Scale_setup.started,Scale_setup.stopped,participant,expid,session,sex,age,date,expName,psychopyVersion,OS,frameRate,Intro.started,Intro.stopped,key_resp_2.keys,key_resp_2.rt,key_resp_2.duration,block.started,direction,Block_id,block.stopped,trial_direction,Block_resp_2.keys,Block_resp_2.rt,Block_resp_2.duration,ITI.started,ITI.stopped,Mask_2.started,Mask_2.stopped,encoding.started,encoding.stopped,Cue.started,Cue.stopped,Response.started,Response.stopped,keyDuration,Feedback_Time.started,FeedbackID_T,Feedback_Time.stopped,trials.thisRepN,trials.thisTrialN,trials.thisN,trials.thisIndex,trials.ran,TimeDur,Coherence1,TrialType
0.000200000001115,0.0003000000007489,S01,026578,1,男,19,anonymized,Serial_Dependence_U,2023.2.3,Win32,59.523809523799216,,,,,,,,,,,,,,,,,,,,,,,,,,,,,,,,,,,
,,S01,026578,1,男,19,anonymized,Serial_Dependence_U,2023.2.3,Win32,59.523809523799216,13.958800000000764,15.391600000001516,space,1.4040999999996302,,,,,,,,,,,,,,,,,,,,,,,,,,,,,,,
,,S01,026578,1,男,19,anonymized,Serial_Dependence_U,2023.2.3,Win32,59.523809523799216,,,,,,15.396800000000752,234.0,0.0,16.71160000000151,234.0,s,1.2942000000010978,,20.66300000000001,21.156700000001138,20.145800000000776,20.662900000000377,17.713700000001126,20.145600000001508,21.157500000000027,21.65700000000001,21.657500000000027,24.207200000001137,842.0,24.20760000000152,1.0,25.211700000001144,0.0,0.0,0.0,18.0,1.0,1.4,0.7,Time
,,S01,026578,1,男,19,anonymized,Serial_Dependence_U,2023.2.3,Win32,59.523809523799216,,,,,,25.212000000000018,125.0,0.0,25.213000000000022,125.0,,,,29.408100000001497,29.91030000000077,28.89500000000001,29.407700000001142,26.228500000000025,28.89500000000001,29.91030000000077,30.406300000000755,30.406500000000023,32.146100000001496,1419.0,32.14620000000113,2.0,33.140100000001496,0.0,1.0,1.0,4.0,1.0,1.6,0.3,Time
,,S01,026578,1,男,19,anonymized,Serial_Dependence_U,2023.2.3,Win32,59.523809523799216,,,,,,33.1414000000004,287.0,0.0,33.14180000000076,287.0,,,,36.89100000000002,37.389800000000776,36.377800000000775,36.89060000000151,34.1439000000004,36.37760000000151,37.38990000000038,37.889800000000776,37.890000000000015,39.47800000000001,1266.0,39.47820000000112,4.0,40.47620000000114,0.0,2.0,2.0,17.0,1.0,1.2,0.7,Time
,,S01,026578,1,男,19,anonymized,Serial_Dependence_U,2023.2.3,Win32,59.523809523799216,,,,,,40.476500000000016,341.0,0.0,40.4766000000015,341.0,,,,44.22740000000039,44.72540000000038,43.71120000000113,44.22740000000039,41.47810000000152,43.71110000000149,44.72540000000038,45.22290000000038,45.22320000000113,47.26140000000038,1700.0,47.26140000000038,5.0,48.25600000000003,0.0,3.0,3.0,7.0,1.0,1.2,0.7,Time
,,S01,026578,1,男,19,anonymized,Serial_Dependence_U,2023.2.3,Win32,59.523809523799216,,,,,,48.25740000000039,184.0,0.0,48.25780000000077,184.0,,,,51.80650000000003,52.31050000000002,51.292400000000384,51.80630000000076,49.257900000000376,51.29230000000075,52.31050000000002,52.80570000000114,52.80580000000077,54.20570000000114,1019.0,54.20600000000002,3.0,55.20570000000114,0.0,4.0,4.0,16.0,1.0,1.0,0.7,Time
,,S01,026578,1,男,19,anonymized,Serial_Dependence_U,2023.2.3,Win32,59.523809523799216,,,,,,55.20700000000002,61.0,0.0,55.207400000000376,61.0,,,,59.210500000000025,59.71030000000076,58.69360000000151,59.210500000000025,56.22720000000115,58.69360000000151,59.71040000000039,60.2054000000004,60.20570000000114,61.71040000000039,1133.0,61.71040000000039,2.0,62.70560000000151,0.0,5.0,5.0,13.0,1.0,1.4,0.3,Time
,,S01,026578,1,男,19,anonymized,Serial_Dependence_U,2023.2.3,Win32,59.523809523799216,,,,,,62.70670000000112,228.0,0.0,62.70720000000114,228.0,,,,66.67670000000115,67.17160000000152,66.15750000000003,66.67660000000151,63.72540000000038,66.15700000000001,67.17180000000076,67.67420000000112,67.67420000000112,69.16020000000114,1168.0,69.16030000000077,2.0,70.15510000000151,0.0,6.0,6.0,8.0,1.0,1.4,0.7,Time
,,S01,026578,1,男,19,anonymized,Serial_Dependence_U,2023.2.3,Win32,59.523809523799216,,,,,,70.15640000000039,170.0,0.0,70.15680000000077,170.0,,,,74.34320000000113,74.84200000000001,73.83900000000003,74.34300000000002,71.17280000000076,73.83860000000152,74.84200000000001,75.34080000000077,75.34080000000077,77.14320000000114,1458.0,77.14330000000075,2.0,78.13770000000113,0.0,7.0,7.0,24.0,1.0,1.6,0.3,Time
,,S01,026578,1,男,19,anonymized,Serial_Dependence_U,2023.2.3,Win32,59.523809523799216,,,,,,78.13910000000152,270.0,0.0,78.13950000000003,270.0,,,,81.94300000000001,82.43800000000002,81.42500000000001,81.94280000000077,79.15540000000038,81.42500000000001,82.43820000000113,82.93780000000075,82.93800000000002,84.57570000000112,1366.0,84.57570000000112,4.0,85.57060000000152,0.0,8.0,8.0,2.0,1.0,1.2,0.3,Time
,,S01,026578,1,男,19,anonymized,Serial_Dependence_U,2023.2.3,Win32,59.523809523799216,,,,,,85.57220000000115,170.0,0.0,85.57250000000002,170.0,,,,89.7424000000004,90.2379000000004,89.22620000000114,89.74220000000113,86.57620000000114,89.22620000000114,90.2379000000004,90.7371000000015,90.73740000000038,92.621,1530.0,92.62120000000112,3.0,93.6204000000004,0.0,9.0,9.0,19.0,1.0,1.6,0.7,Time
,,S01,026578,1,男,19,anonymized,Serial_Dependence_U,2023.2.3,Win32,59.523809523799216,,,,,,93.62170000000114,44.0,0.0,93.6221000000015,44.0,,,,97.40440000000038,97.90380000000076,96.8925,97.40420000000114,94.62430000000076,96.89240000000038,97.9039000000004,98.3914000000004,98.3915,100.1036000000015,1194.0,100.10380000000076,3.0,101.1036000000015,0.0,10.0,10.0,12.0,1.0,1.2,0.3,Time
,,S01,026578,1,男,19,anonymized,Serial_Dependence_U,2023.2.3,Win32,59.523809523799216,,,,,,101.10480000000076,215.0,0.0,101.10520000000112,215.0,,,,104.47530000000076,104.97030000000076,103.95880000000076,104.47520000000114,102.12540000000038,103.95870000000112,104.97040000000038,105.47020000000114,105.47040000000038,107.1701000000015,1065.0,107.17030000000076,5.0,108.1584000000004,0.0,11.0,11.0,15.0,1.0,0.8,0.7,Time
,,S01,026578,1,男,19,anonymized,Serial_Dependence_U,2023.2.3,Win32,59.523809523799216,,,,,,108.15880000000077,233.0,0.0,108.1589000000004,233.0,,,,111.52090000000038,112.02030000000076,111.00890000000038,111.52050000000004,109.15860000000151,111.00870000000114,112.02060000000152,112.52420000000114,112.52430000000076,113.95850000000002,1083.0,113.9586000000015,5.0,114.95770000000113,0.0,12.0,12.0,5.0,1.0,0.8,0.7,Time
,,S01,026578,1,男,19,anonymized,Serial_Dependence_U,2023.2.3,Win32,59.523809523799216,,,,,,114.9579000000004,13.0,0.0,114.95810000000152,13.0,,,,118.5571000000015,119.05330000000076,118.0374000000004,118.5571000000015,115.97070000000112,118.03710000000152,119.0535,119.55420000000116,119.55430000000077,120.9254000000004,1052.0,120.92550000000004,4.0,121.91970000000114,0.0,13.0,13.0,11.0,1.0,1.0,0.3,Time
,,S01,026578,1,男,19,anonymized,Serial_Dependence_U,2023.2.3,Win32,59.523809523799216,,,,,,121.9211000000015,105.0,0.0,121.9215,105.0,,,,125.91990000000038,126.41910000000152,125.40820000000112,125.91960000000152,122.9406000000015,125.40800000000002,126.41920000000113,126.91920000000113,126.9194000000004,128.3914000000004,1216.0,128.3915,2.0,129.38580000000076,0.0,14.0,14.0,3.0,1.0,1.4,0.3,Time
,,S01,026578,1,男,19,anonymized,Serial_Dependence_U,2023.2.3,Win32,59.523809523799216,,,,,,129.38700000000003,236.0,0.0,129.38730000000075,236.0,,,,133.53680000000077,134.03930000000076,133.0245,133.5365,130.3909000000004,133.0244000000004,134.03930000000076,134.53960000000149,134.53960000000149,136.24110000000147,1377.0,136.24110000000147,2.0,137.23570000000112,0.0,15.0,15.0,29.0,1.0,1.6,0.7,Time
,,S01,026578,1,男,19,anonymized,Serial_Dependence_U,2023.2.3,Win32,59.523809523799216,,,,,,137.23690000000036,297.0,0.0,137.23730000000072,297.0,,,,141.424,141.9187000000011,140.91960000000145,141.42380000000074,138.25310000000147,140.91930000000073,141.91890000000038,142.40649999999997,142.40649999999997,144.39060000000146,1644.0,144.39060000000146,3.0,145.38960000000148,0.0,16.0,16.0,14.0,1.0,1.6,0.3,Time
,,S01,026578,1,男,19,anonymized,Serial_Dependence_U,2023.2.3,Win32,59.523809523799216,,,,,,145.38990000000038,342.0,0.0,145.39,342.0,,,,149.3692000000011,149.86910000000145,148.85710000000145,149.36890000000037,146.40590000000034,148.857,149.86930000000072,150.36840000000038,150.36860000000146,152.17480000000072,1467.0,152.17490000000035,3.0,153.17240000000035,0.0,17.0,17.0,28.0,1.0,1.4,0.7,Time
,,S01,026578,1,男,19,anonymized,Serial_Dependence_U,2023.2.3,Win32,59.523809523799216,,,,,,153.1726000000015,187.0,0.0,153.1726000000015,187.0,,,,156.77140000000034,157.2676000000015,156.256,156.77140000000034,154.1908000000007,156.25590000000037,157.26790000000037,157.768,157.76830000000072,160.47340000000034,1766.0,160.47349999999997,5.0,161.46899999999997,0.0,18.0,18.0,21.0,1.0,1.0,0.3,Time
,,S01,026578,1,男,19,anonymized,Serial_Dependence_U,2023.2.3,Win32,59.523809523799216,,,,,,161.47040000000035,332.0,0.0,161.4706000000015,332.0,,,,165.25530000000074,165.7507000000011,164.75220000000112,165.2552000000011,162.48570000000112,164.75190000000035,165.75090000000037,166.25540000000038,166.2555,167.92330000000075,1334.0,167.92330000000075,4.0,168.91880000000074,0.0,19.0,19.0,22.0,1.0,1.2,0.3,Time
,,S01,026578,1,男,19,anonymized,Serial_Dependence_U,2023.2.3,Win32,59.523809523799216,,,,,,168.9201000000015,190.0,0.0,168.9203000000007,190.0,,,,173.07310000000146,173.56740000000033,172.5685,173.073,169.93499999999997,172.5682000000011,173.56749999999997,174.0677000000011,174.06780000000074,176.184,1807.0,176.18420000000108,4.0,177.18430000000072,0.0,20.0,20.0,9.0,1.0,1.6,0.7,Time
,,S01,026578,1,男,19,anonymized,Serial_Dependence_U,2023.2.3,Win32,59.523809523799216,,,,,,177.1857000000011,168.0,0.0,177.18610000000146,168.0,,,,180.56810000000144,181.06740000000036,180.0515,180.56780000000077,178.18920000000108,180.05130000000074,181.0675,181.56740000000036,181.5677000000011,182.8895,1000.0,182.8895,4.0,183.88380000000072,0.0,21.0,21.0,0.0,1.0,0.8,0.3,Time
,,S01,026578,1,男,19,anonymized,Serial_Dependence_U,2023.2.3,Win32,59.523809523799216,,,,,,183.88510000000147,3.0,0.0,183.8855,3.0,,,,187.88460000000148,188.3835,187.372,187.8843000000007,184.90180000000075,187.372,188.38370000000108,188.88780000000077,188.88780000000077,192.4731000000015,1308.0,192.4731000000015,2.0,193.46640000000036,0.0,22.0,22.0,23.0,1.0,1.4,0.3,Time
,,S01,026578,1,男,19,anonymized,Serial_Dependence_U,2023.2.3,Win32,59.523809523799216,,,,,,193.4679000000004,200.0,0.0,193.4683000000007,200.0,,,,196.82140000000035,197.3166000000015,196.3062000000011,196.82130000000072,194.4705,196.30610000000144,197.3168000000007,197.8162000000011,197.81630000000072,198.7663000000007,645.0,198.76640000000037,2.0,199.76620000000108,0.0,23.0,23.0,25.0,1.0,0.8,0.7,Time
,,S01,026578,1,男,19,anonymized,Serial_Dependence_U,2023.2.3,Win32,59.523809523799216,,,,,,199.76730000000077,339.0,0.0,199.7677000000011,339.0,,,,203.151,203.6497000000011,202.63870000000108,203.15070000000108,200.7713000000007,202.63870000000108,203.64980000000077,204.14960000000147,204.1497000000011,205.5555,1040.0,205.55560000000148,5.0,206.54930000000076,0.0,24.0,24.0,10.0,1.0,0.8,0.3,Time
,,S01,026578,1,男,19,anonymized,Serial_Dependence_U,2023.2.3,Win32,59.523809523799216,,,,,,206.55060000000148,332.0,0.0,206.55110000000147,332.0,,,,209.93330000000077,210.4325,209.42110000000147,209.93310000000147,207.5545,209.421,210.43270000000112,210.9364000000004,210.9364000000004,211.97090000000037,716.0,211.97090000000037,2.0,212.96640000000036,0.0,25.0,25.0,20.0,1.0,0.8,0.3,Time
,,S01,026578,1,男,19,anonymized,Serial_Dependence_U,2023.2.3,Win32,59.523809523799216,,,,,,212.9677000000011,294.0,0.0,212.968,294.0,,,,216.52080000000072,217.01560000000143,216.0043000000007,216.52080000000072,213.97120000000112,216.0041000000015,217.0157000000011,217.5157000000011,217.516,218.8215,967.0,218.8216000000015,3.0,219.8155,0.0,26.0,26.0,6.0,1.0,1.0,0.7,Time
,,S01,026578,1,男,19,anonymized,Serial_Dependence_U,2023.2.3,Win32,59.523809523799216,,,,,,219.8168000000007,102.0,0.0,219.81720000000112,102.0,,,,223.42080000000075,223.91540000000035,222.9042000000011,223.42080000000075,220.83310000000145,222.90410000000148,223.9156000000015,224.41540000000035,224.4155,225.9485,1268.0,225.94870000000108,4.0,226.949,0.0,27.0,27.0,1.0,1.0,1.0,0.3,Time
,,S01,026578,1,男,19,anonymized,Serial_Dependence_U,2023.2.3,Win32,59.523809523799216,,,,,,226.95030000000077,12.0,0.0,226.95080000000075,12.0,,,,230.502,230.9982000000011,229.98810000000148,230.50190000000035,227.95390000000037,229.988,230.99830000000077,231.50310000000147,231.50310000000147,233.054,1232.0,233.05410000000143,4.0,234.04860000000147,0.0,28.0,28.0,26.0,1.0,1.0,0.7,Time
,,S01,026578,1,男,19,anonymized,Serial_Dependence_U,2023.2.3,Win32,59.523809523799216,,,,,,234.04970000000108,78.0,0.0,234.05040000000037,78.0,,,,237.8199000000004,238.31420000000108,237.29930000000076,237.8199000000004,235.066,237.299,238.31440000000035,238.8021000000015,238.80220000000108,240.30430000000072,1134.0,240.3044000000004,2.0,241.29770000000116,0.0,29.0,29.0,27.0,1.0,1.2,0.7,Time
,,S01,026578,1,男,19,anonymized,Serial_Dependence_U,2023.2.3,Win32,59.523809523799216,,,,,,241.299,11.0,1.0,243.61940000000035,11.0,s,2.300000000000012,,247.76530000000076,248.2638000000007,247.2534000000004,247.765,244.61790000000036,247.2534000000004,248.264,248.7685,248.7686000000015,250.20280000000076,1283.0,250.20280000000076,2.0,250.20310000000143,1.0,0.0,30.0,9.0,1.0,1.6,0.7,Time
,,S01,026578,1,男,19,anonymized,Serial_Dependence_U,2023.2.3,Win32,59.523809523799216,,,,,,250.2036000000015,161.0,1.0,250.20420000000112,161.0,,,,254.2029000000004,254.69730000000075,253.686,254.20280000000076,251.2195,253.6859000000004,254.69760000000147,255.18530000000075,255.18530000000075,257.2861000000015,1883.0,257.28620000000114,5.0,257.28649999999993,1.0,1.0,31.0,13.0,1.0,1.4,0.3,Time
,,S01,026578,1,男,19,anonymized,Serial_Dependence_U,2023.2.3,Win32,59.523809523799216,,,,,,257.2871000000015,130.0,1.0,257.2872000000011,130.0,,,,261.0646000000015,261.5683000000007,260.5483000000007,261.0644000000003,258.2859000000003,260.548,261.56840000000034,262.0639000000004,262.0643000000007,264.247,1869.0,264.2472000000012,5.0,264.24799999999993,1.0,2.0,32.0,2.0,1.0,1.2,0.3,Time
,,S01,026578,1,男,19,anonymized,Serial_Dependence_U,2023.2.3,Win32,59.523809523799216,,,,,,264.2487000000011,86.0,1.0,264.2489000000004,86.0,,,,267.634,268.1329000000004,267.1317000000012,267.6339000000004,265.2689000000004,267.1314000000003,268.1329000000004,268.6302000000011,268.63040000000035,270.38010000000145,1538.0,270.3803000000007,5.0,270.381,1.0,3.0,33.0,20.0,1.0,0.8,0.3,Time
,,S01,026578,1,男,19,anonymized,Serial_Dependence_U,2023.2.3,Win32,59.523809523799216,,,,,,270.3817000000012,189.0,1.0,270.3819000000003,189.0,,,,273.7476000000015,274.2508000000007,273.23480000000075,273.7473000000007,271.3979000000004,273.23480000000075,274.2508000000007,274.74610000000143,274.7463000000007,276.6687000000011,1645.0,276.6688000000007,5.0,276.66890000000035,1.0,4.0,34.0,15.0,1.0,0.8,0.7,Time
,,S01,026578,1,男,19,anonymized,Serial_Dependence_U,2023.2.3,Win32,59.523809523799216,,,,,,276.6696000000014,54.0,1.0,276.6698000000007,54.0,,,,280.6476000000015,281.1462000000012,280.13380000000075,280.6473000000008,277.66860000000145,280.1337000000011,281.1463000000007,281.6463000000007,281.64649999999995,283.4196000000014,1553.0,283.4196000000014,4.0,283.4198000000007,1.0,5.0,35.0,3.0,1.0,1.4,0.3,Time
,,S01,026578,1,男,19,anonymized,Serial_Dependence_U,2023.2.3,Win32,59.523809523799216,,,,,,283.4203000000007,181.0,1.0,283.4204000000003,181.0,,,,287.35270000000105,287.8457000000011,286.85140000000035,287.35270000000105,284.4166000000015,286.8513000000007,287.84580000000074,288.346,288.3462000000011,290.2345,1347.0,290.2345,3.0,290.23480000000075,1.0,6.0,36.0,8.0,1.0,1.4,0.7,Time
,,S01,026578,1,男,19,anonymized,Serial_Dependence_U,2023.2.3,Win32,59.523809523799216,,,,,,290.2354000000004,227.0,1.0,290.2355,227.0,,,,293.5996000000015,294.09580000000074,293.0839000000003,293.59950000000003,291.24640000000034,293.0838000000007,294.096,294.5984000000003,294.5984000000003,296.3349000000004,1517.0,296.3349000000004,5.0,296.3352000000011,1.0,7.0,37.0,5.0,1.0,0.8,0.7,Time
,,S01,026578,1,男,19,anonymized,Serial_Dependence_U,2023.2.3,Win32,59.523809523799216,,,,,,296.3356000000015,317.0,1.0,296.3359000000004,317.0,,,,300.53410000000144,301.02910000000145,300.0137000000011,300.53410000000144,297.3491000000015,300.01330000000075,301.0292000000011,301.5295,301.52960000000144,303.81210000000146,1981.0,303.81230000000073,4.0,303.81290000000035,1.0,8.0,38.0,14.0,1.0,1.6,0.3,Time
,,S01,026578,1,男,19,anonymized,Serial_Dependence_U,2023.2.3,Win32,59.523809523799216,,,,,,303.8135,42.0,1.0,303.8138000000007,42.0,,,,307.3818000000007,307.8783000000008,306.8679000000003,307.3818000000007,304.8339000000003,306.8678000000008,307.87850000000003,308.38249999999994,308.38249999999994,309.8673000000007,1191.0,309.8674000000003,4.0,309.86749999999995,1.0,9.0,39.0,16.0,1.0,1.0,0.7,Time
,,S01,026578,1,男,19,anonymized,Serial_Dependence_U,2023.2.3,Win32,59.523809523799216,,,,,,309.8679000000003,320.0,1.0,309.8681000000015,320.0,,,,313.65040000000033,314.14490000000035,313.1336000000015,313.6503000000007,310.8836000000015,313.1336000000015,314.14510000000143,314.645,314.64520000000107,316.351,1398.0,316.351,4.0,316.3512000000011,1.0,10.0,40.0,27.0,1.0,1.2,0.7,Time
,,S01,026578,1,男,19,anonymized,Serial_Dependence_U,2023.2.3,Win32,59.523809523799216,,,,,,316.35160000000144,126.0,1.0,316.35190000000034,126.0,,,,319.7288000000008,320.2281000000015,319.2168000000007,319.7286000000015,317.3504000000004,319.2167000000011,320.22820000000115,320.7278000000007,320.72799999999995,322.2115,1188.0,322.21160000000145,5.0,322.21260000000143,1.0,11.0,41.0,10.0,1.0,0.8,0.3,Time
,,S01,026578,1,男,19,anonymized,Serial_Dependence_U,2023.2.3,Win32,59.523809523799216,,,,,,322.21349999999995,66.0,1.0,322.21370000000115,66.0,,,,325.8166000000015,326.3161000000015,325.2985,325.8165,323.2333000000008,325.2984000000004,326.3161000000015,326.8153000000008,326.8153000000008,328.7164000000004,1618.0,328.7165,5.0,328.7168000000007,1.0,12.0,42.0,11.0,1.0,1.0,0.3,Time
,,S01,026578,1,男,19,anonymized,Serial_Dependence_U,2023.2.3,Win32,59.523809523799216,,,,,,328.71720000000107,205.0,1.0,328.7175,205.0,,,,332.915,333.4156000000015,332.3995,332.9149000000004,329.7284000000003,332.3993000000007,333.4156000000015,333.9109000000003,333.91099999999994,335.5988000000008,1449.0,335.5989000000004,2.0,335.59899999999993,1.0,13.0,43.0,24.0,1.0,1.6,0.3,Time
,,S01,026578,1,男,19,anonymized,Serial_Dependence_U,2023.2.3,Win32,59.523809523799216,,,,,,335.59950000000003,129.0,1.0,335.59950000000003,129.0,,,,339.5949000000004,340.0938000000008,339.08270000000107,339.5947000000011,336.6158000000007,339.08260000000143,340.0939000000004,340.58160000000146,340.58160000000146,342.3657000000011,1483.0,342.3658000000007,4.0,342.366,1.0,14.0,44.0,23.0,1.0,1.4,0.3,Time
,,S01,026578,1,男,19,anonymized,Serial_Dependence_U,2023.2.3,Win32,59.523809523799216,,,,,,342.3662000000011,177.0,1.0,342.3665,177.0,,,,346.1278000000008,346.6266000000016,345.61590000000035,346.1274000000003,343.38249999999994,345.6158000000007,346.6268000000007,347.1316000000015,347.1316000000015,348.716,1412.0,348.716,4.0,348.7162000000011,1.0,15.0,45.0,7.0,1.0,1.2,0.7,Time
,,S01,026578,1,男,19,anonymized,Serial_Dependence_U,2023.2.3,Win32,59.523809523799216,,,,,,348.7165,245.0,1.0,348.7165,245.0,,,,352.88220000000115,353.3764000000004,352.3654000000004,352.8821000000015,349.73220000000106,352.3653000000008,353.3764000000004,353.8642000000011,353.8642000000011,355.5823000000007,1450.0,355.5823000000007,2.0,355.58260000000143,1.0,16.0,46.0,19.0,1.0,1.6,0.7,Time
,,S01,026578,1,男,19,anonymized,Serial_Dependence_U,2023.2.3,Win32,59.523809523799216,,,,,,355.5831000000014,295.0,1.0,355.58320000000106,295.0,,,,359.1815,359.6764000000004,358.6654000000003,359.1814000000004,356.59399999999994,358.6653000000007,359.67650000000003,360.1761000000015,360.1763000000008,362.1136000000015,1615.0,362.1136000000015,5.0,362.11370000000113,1.0,17.0,47.0,1.0,1.0,1.0,0.3,Time
,,S01,026578,1,男,19,anonymized,Serial_Dependence_U,2023.2.3,Win32,59.523809523799216,,,,,,362.114,89.0,1.0,362.1141000000015,89.0,,,,366.0813000000008,366.5762000000011,365.5648000000008,366.0813000000008,363.1298000000007,365.5647000000012,366.5763000000008,367.0765,367.0767000000011,368.83449999999993,1478.0,368.8346000000015,4.0,368.8351000000015,1.0,18.0,48.0,28.0,1.0,1.4,0.7,Time
,,S01,026578,1,男,19,anonymized,Serial_Dependence_U,2023.2.3,Win32,59.523809523799216,,,,,,368.8354000000004,268.0,1.0,368.8355,268.0,,,,372.79780000000073,373.2926000000015,372.2814000000004,372.79780000000073,369.848,372.2813000000008,373.2927000000011,373.7937000000011,373.7939000000004,375.34899999999993,1350.0,375.34899999999993,3.0,375.3491000000015,1.0,19.0,49.0,18.0,1.0,1.4,0.7,Time
,,S01,026578,1,男,19,anonymized,Serial_Dependence_U,2023.2.3,Win32,59.523809523799216,,,,,,375.3496000000015,313.0,1.0,375.3499000000004,313.0,,,,379.5436000000015,380.0466000000015,379.031,379.5433000000007,376.3598000000008,379.031,380.0466000000015,380.5425,380.5427000000011,382.6983000000007,1801.0,382.6983000000007,4.0,382.6985,1.0,20.0,50.0,4.0,1.0,1.6,0.3,Time
,,S01,026578,1,男,19,anonymized,Serial_Dependence_U,2023.2.3,Win32,59.523809523799216,,,,,,382.699,90.0,1.0,382.699,90.0,,,,386.8629000000003,387.3589000000003,386.34720000000107,386.8628000000007,383.7103000000008,386.34710000000143,387.3589999999999,387.8628000000007,387.8629000000003,389.7143000000007,1569.0,389.7143000000007,3.0,389.71449999999993,1.0,21.0,51.0,29.0,1.0,1.6,0.7,Time
,,S01,026578,1,男,19,anonymized,Serial_Dependence_U,2023.2.3,Win32,59.523809523799216,,,,,,389.7151000000015,34.0,1.0,389.7152000000011,34.0,,,,393.0958000000008,393.5928000000007,392.579,393.0958000000008,390.7141000000014,392.5789000000003,393.5929000000003,394.0917000000011,394.0919000000004,396.0807000000011,1331.0,396.0807000000011,5.0,396.0808000000008,1.0,22.0,52.0,0.0,1.0,0.8,0.3,Time
,,S01,026578,1,男,19,anonymized,Serial_Dependence_U,2023.2.3,Win32,59.523809523799216,,,,,,396.0813000000008,301.0,1.0,396.0816000000015,301.0,,,,399.8757000000011,400.3749000000004,399.363200000001,399.8753000000007,397.0948000000008,399.3631000000014,400.3751000000015,400.8747000000011,400.87480000000073,403.0134999999999,1882.0,403.0136000000015,5.0,403.0137000000011,1.0,23.0,53.0,22.0,1.0,1.2,0.3,Time
,,S01,026578,1,男,19,anonymized,Serial_Dependence_U,2023.2.3,Win32,59.523809523799216,,,,,,403.01430000000073,22.0,1.0,403.0145,22.0,,,,406.5757000000011,407.0788000000007,406.06360000000143,406.5754000000003,404.031,406.0635,407.0788000000007,407.57870000000105,407.5788000000007,408.896700000001,1097.0,408.896700000001,4.0,408.8969000000003,1.0,24.0,54.0,6.0,1.0,1.0,0.7,Time
,,S01,026578,1,男,19,anonymized,Serial_Dependence_U,2023.2.3,Win32,59.523809523799216,,,,,,408.8974999999999,319.0,1.0,408.8977000000011,319.0,,,,412.6781000000015,413.17410000000143,412.1754000000003,412.678,409.9131000000015,412.1751000000014,413.17420000000106,413.6746000000014,413.67470000000105,415.67420000000106,1805.0,415.6745,5.0,415.6751000000014,1.0,25.0,55.0,12.0,1.0,1.2,0.3,Time
,,S01,026578,1,男,19,anonymized,Serial_Dependence_U,2023.2.3,Win32,59.523809523799216,,,,,,415.67599999999993,144.0,1.0,415.67620000000113,144.0,,,,419.24610000000143,419.7405,418.74140000000034,419.246,416.6793000000007,418.74110000000144,419.7407000000011,420.24110000000144,420.2413000000007,421.9633000000007,1475.0,421.9633000000007,5.0,421.9638000000007,1.0,26.0,56.0,21.0,1.0,1.0,0.3,Time
,,S01,026578,1,男,19,anonymized,Serial_Dependence_U,2023.2.3,Win32,59.523809523799216,,,,,,421.964200000001,72.0,1.0,421.964200000001,72.0,,,,425.72720000000106,426.2241000000015,425.2085,425.7271000000014,422.9746000000015,425.20820000000106,426.2243000000007,426.7236000000014,426.7239000000003,428.596,1657.0,428.5961000000015,5.0,428.5962000000011,1.0,27.0,57.0,17.0,1.0,1.2,0.7,Time
,,S01,026578,1,男,19,anonymized,Serial_Dependence_U,2023.2.3,Win32,59.523809523799216,,,,,,428.5968000000007,181.0,1.0,428.597,181.0,,,,431.945200000001,432.4403000000007,431.42890000000034,431.945200000001,429.594,431.4288000000007,432.44049999999993,432.94310000000144,432.94310000000144,434.846,1734.0,434.8461000000015,5.0,434.8463000000007,1.0,28.0,58.0,25.0,1.0,0.8,0.7,Time
,,S01,026578,1,男,19,anonymized,Serial_Dependence_U,2023.2.3,Win32,59.523809523799216,,,,,,434.8468000000007,138.0,1.0,434.8469000000004,138.0,,,,438.3956000000014,438.89010000000144,437.8789000000004,438.39540000000034,435.8439000000003,437.8789000000004,438.8903000000007,439.39040000000034,439.39070000000106,441.2453000000007,1582.0,441.2454000000004,5.0,441.2455,1.0,29.0,59.0,26.0,1.0,1.0,0.7,Time
,,S01,026578,1,男,19,anonymized,Serial_Dependence_U,2023.2.3,Win32,59.523809523799216,,,,,,441.2459000000004,23.0,2.0,903.021200000001,23.0,s,461.75200000000007,,907.1591000000014,907.6588000000006,906.6585,907.1591000000014,904.026700000001,906.6584000000004,907.6588000000006,908.1541000000016,908.1543000000006,910.2768000000008,1750.0,910.2768000000008,4.0,910.277,2.0,0.0,60.0,19.0,1.0,1.6,0.7,Time
,,S01,026578,1,男,19,anonymized,Serial_Dependence_U,2023.2.3,Win32,59.523809523799216,,,,,,910.2775,245.0,2.0,910.278700000001,245.0,,,,914.0095,914.5039000000004,913.5058000000008,914.0094000000004,911.2734000000004,913.5055,914.5041000000016,915.0046000000012,915.0047000000012,916.7426000000014,1349.0,916.7426000000014,4.0,916.7428000000008,2.0,1.0,61.0,17.0,1.0,1.2,0.7,Time
,,S01,026578,1,男,19,anonymized,Serial_Dependence_U,2023.2.3,Win32,59.523809523799216,,,,,,916.7431000000016,106.0,2.0,916.743200000001,106.0,,,,920.1406000000017,920.6371000000016,919.6255,920.1406000000017,917.7602000000012,919.6255,920.637200000001,921.137,921.137200000001,922.4929000000004,1082.0,922.4929000000004,5.0,922.493200000001,2.0,2.0,62.0,0.0,1.0,0.8,0.3,Time
,,S01,026578,1,男,19,anonymized,Serial_Dependence_U,2023.2.3,Win32,59.523809523799216,,,,,,922.4934000000004,335.0,2.0,922.4937000000012,335.0,,,,925.8711000000014,926.3714000000002,925.3591000000016,925.8708000000006,923.508,925.3589000000004,926.3715,926.8712000000012,926.8713000000008,928.4254000000004,1216.0,928.4254000000004,5.0,928.4256000000014,2.0,3.0,63.0,5.0,1.0,0.8,0.7,Time
,,S01,026578,1,男,19,anonymized,Serial_Dependence_U,2023.2.3,Win32,59.523809523799216,,,,,,928.4263000000008,277.0,2.0,928.4264000000004,277.0,,,,931.8087000000012,932.303200000001,931.2927000000012,931.8086000000014,929.4233000000006,931.2926000000014,932.3033000000008,932.8073000000006,932.8074000000004,934.642700000001,1497.0,934.642700000001,5.0,934.6429000000004,2.0,4.0,64.0,10.0,1.0,0.8,0.3,Time
,,S01,026578,1,男,19,anonymized,Serial_Dependence_U,2023.2.3,Win32,59.523809523799216,,,,,,934.6435,192.0,2.0,934.6435,192.0,,,,938.3883000000008,938.8906000000017,937.8756000000014,938.3881000000016,935.6419000000004,937.8755,938.8906000000017,939.3864000000004,939.3865,941.1253000000006,1433.0,941.1253000000006,4.0,941.1258000000008,2.0,5.0,65.0,7.0,1.0,1.2,0.7,Time
,,S01,026578,1,男,19,anonymized,Serial_Dependence_U,2023.2.3,Win32,59.523809523799216,,,,,,941.1263000000008,101.0,2.0,941.1264000000004,101.0,,,,945.3207000000012,945.8197000000011,944.8086000000014,945.3203000000008,942.1407000000012,944.8085,945.8198000000008,946.308,946.3081000000016,948.1195,1521.0,948.1196000000014,3.0,948.1201000000016,2.0,6.0,66.0,24.0,1.0,1.6,0.3,Time
,,S01,026578,1,男,19,anonymized,Serial_Dependence_U,2023.2.3,Win32,59.523809523799216,,,,,,948.1209000000003,299.0,2.0,948.1211000000014,299.0,,,,952.1251000000012,952.6196000000014,951.6035,952.125,949.1408000000008,951.6033000000008,952.6198000000006,953.1233000000008,953.1233000000008,954.5744000000004,1384.0,954.5744000000004,3.0,954.5746000000016,2.0,7.0,67.0,23.0,1.0,1.4,0.3,Time
,,S01,026578,1,男,19,anonymized,Serial_Dependence_U,2023.2.3,Win32,59.523809523799216,,,,,,954.574700000001,166.0,2.0,954.5751000000014,166.0,,,,958.137,958.6354000000003,957.6246000000016,958.1367000000012,955.5915,957.6245,958.6355,959.1386000000014,959.1386000000014,960.7078000000008,1317.0,960.7078000000008,5.0,960.708,2.0,8.0,68.0,16.0,1.0,1.0,0.7,Time
,,S01,026578,1,男,19,anonymized,Serial_Dependence_U,2023.2.3,Win32,59.523809523799216,,,,,,960.7086000000016,181.0,2.0,960.708700000001,181.0,,,,964.9032000000012,965.406,964.3908000000008,964.9028000000008,961.7241000000016,964.3907000000012,965.406,965.9023000000008,965.9024000000004,968.0736000000016,1961.0,968.073700000001,4.0,968.074,2.0,9.0,69.0,4.0,1.0,1.6,0.3,Time
,,S01,026578,1,男,19,anonymized,Serial_Dependence_U,2023.2.3,Win32,59.523809523799216,,,,,,968.074700000001,276.0,2.0,968.0748000000008,276.0,,,,972.035700000001,972.5348000000008,971.5241000000016,972.0355,969.073700000001,971.5241000000016,972.5349000000004,973.0349000000004,973.0351000000014,974.6912000000012,1335.0,974.6912000000012,3.0,974.691700000001,2.0,10.0,70.0,18.0,1.0,1.4,0.7,Time
,,S01,026578,1,男,19,anonymized,Serial_Dependence_U,2023.2.3,Win32,59.523809523799216,,,,,,974.692,253.0,2.0,974.692,253.0,,,,978.072,978.5683000000008,977.557,978.072,975.7055,977.5569000000004,978.5684000000005,979.0679000000002,979.0681000000016,980.2064000000004,932.0,980.2065,4.0,980.2067000000012,2.0,11.0,71.0,15.0,1.0,0.8,0.7,Time
,,S01,026578,1,男,19,anonymized,Serial_Dependence_U,2023.2.3,Win32,59.523809523799216,,,,,,980.207,324.0,2.0,980.2073000000008,324.0,,,,983.569,984.0684000000005,983.0575,983.5688000000008,981.2071000000014,983.0573000000006,984.0686000000014,984.5675,984.567700000001,985.9733000000008,1166.0,985.9733000000008,5.0,985.9734000000004,2.0,12.0,72.0,25.0,1.0,0.8,0.7,Time
,,S01,026578,1,男,19,anonymized,Serial_Dependence_U,2023.2.3,Win32,59.523809523799216,,,,,,985.9737000000011,50.0,2.0,985.974,50.0,,,,989.5705,990.068,989.0524000000004,989.5703000000008,986.9896000000016,989.0521000000016,990.0682000000012,990.5672000000012,990.5673000000006,992.0884000000004,1315.0,992.0884000000004,5.0,992.0885,2.0,13.0,73.0,21.0,1.0,1.0,0.3,Time
,,S01,026578,1,男,19,anonymized,Serial_Dependence_U,2023.2.3,Win32,59.523809523799216,,,,,,992.0888000000008,347.0,2.0,992.0889000000004,347.0,,,,996.2541000000016,996.7511000000017,995.7516000000014,996.2541000000016,993.0893000000008,995.7512000000012,996.7513000000008,997.2517000000012,997.2518000000008,999.3063000000006,1600.0,999.3063000000006,3.0,999.3064000000004,2.0,14.0,74.0,14.0,1.0,1.6,0.3,Time
,,S01,026578,1,男,19,anonymized,Serial_Dependence_U,2023.2.3,Win32,59.523809523799216,,,,,,999.3071000000014,282.0,2.0,999.3072000000012,282.0,,,,1002.884700000001,1003.383700000001,1002.3683000000008,1002.8844000000004,1000.3062000000012,1002.368,1003.3838000000007,1003.888200000001,1003.888200000001,1005.5171000000014,1398.0,1005.5173000000008,5.0,1005.518,2.0,15.0,75.0,1.0,1.0,1.0,0.3,Time
,,S01,026578,1,男,19,anonymized,Serial_Dependence_U,2023.2.3,Win32,59.523809523799216,,,,,,1005.518700000001,85.0,2.0,1005.5189000000004,85.0,,,,1009.4847000000012,1009.983200000001,1008.9724000000004,1009.4844000000004,1006.5348000000008,1008.9723000000008,1009.9834000000004,1010.4837000000012,1010.484,1012.3539000000004,1564.0,1012.354,4.0,1012.3541000000014,2.0,16.0,76.0,8.0,1.0,1.4,0.7,Time
,,S01,026578,1,男,19,anonymized,Serial_Dependence_U,2023.2.3,Win32,59.523809523799216,,,,,,1012.3543000000006,95.0,2.0,1012.3543000000006,95.0,,,,1015.922,1016.4167000000012,1015.4051000000017,1015.9219000000004,1013.3712000000012,1015.4051000000017,1016.4167000000012,1016.9171000000016,1016.9173000000008,1018.4831000000016,1349.0,1018.4833000000008,5.0,1018.484,2.0,17.0,77.0,26.0,1.0,1.0,0.7,Time
,,S01,026578,1,男,19,anonymized,Serial_Dependence_U,2023.2.3,Win32,59.523809523799216,,,,,,1018.4847000000012,198.0,2.0,1018.485,198.0,,,,1022.4884000000004,1022.9831000000016,1021.9676000000017,1022.4884000000004,1019.5009000000002,1021.9673000000008,1022.983200000001,1023.4833000000008,1023.4836000000014,1025.4057000000012,1612.0,1025.405800000001,4.0,1025.406,2.0,18.0,78.0,3.0,1.0,1.4,0.3,Time
,,S01,026578,1,男,19,anonymized,Serial_Dependence_U,2023.2.3,Win32,59.523809523799216,,,,,,1025.4065,75.0,2.0,1025.4067000000011,75.0,,,,1029.3714000000002,1029.866200000001,1028.854700000001,1029.3713000000007,1026.4216000000015,1028.8545,1029.8663000000006,1030.366,1030.3661000000016,1031.9886000000015,1382.0,1031.9886000000015,3.0,1031.989,2.0,19.0,79.0,28.0,1.0,1.4,0.7,Time
,,S01,026578,1,男,19,anonymized,Serial_Dependence_U,2023.2.3,Win32,59.523809523799216,,,,,,1031.9895,71.0,2.0,1031.9896000000017,71.0,,,,1035.7505,1036.249700000001,1035.2381000000014,1035.7503000000006,1033.0005,1035.238,1036.2499000000005,1036.7495,1036.749700000001,1038.538700000001,1434.0,1038.538700000001,4.0,1038.5389000000002,2.0,20.0,80.0,27.0,1.0,1.2,0.7,Time
,,S01,026578,1,男,19,anonymized,Serial_Dependence_U,2023.2.3,Win32,59.523809523799216,,,,,,1038.5391000000016,270.0,2.0,1038.539200000001,270.0,,,,1042.5338000000006,1043.0324000000005,1042.0207000000012,1042.5335,1039.5498000000007,1042.0207000000012,1043.0326000000014,1043.5365,1043.5365,1157.4665,1439.0,1157.4666000000016,3.0,1157.4671000000014,2.0,21.0,81.0,13.0,1.0,1.4,0.3,Time
,,S01,026578,1,男,19,anonymized,Serial_Dependence_U,2023.2.3,Win32,59.523809523799216,,,,,,1157.4673000000007,66.0,2.0,1157.4674000000002,66.0,,,,1161.2659999999998,1161.7609000000002,1160.7498000000007,1161.2659999999998,1158.4827000000012,1160.749700000001,1161.7611000000015,1162.265,1162.265,1163.5997000000011,1032.0,1163.5997000000011,2.0,1163.5999000000004,2.0,22.0,82.0,12.0,1.0,1.2,0.3,Time
,,S01,026578,1,男,19,anonymized,Serial_Dependence_U,2023.2.3,Win32,59.523809523799216,,,,,,1163.600200000001,217.0,2.0,1163.6004000000005,217.0,,,,1167.182200000001,1167.6776000000011,1166.6661000000015,1167.1821000000014,1164.6158000000007,1166.6661000000015,1167.6776000000011,1168.1812000000011,1168.1812000000011,1169.6167000000012,1179.0,1169.6168000000007,4.0,1169.617200000001,2.0,23.0,83.0,6.0,1.0,1.0,0.7,Time
,,S01,026578,1,男,19,anonymized,Serial_Dependence_U,2023.2.3,Win32,59.523809523799216,,,,,,1169.6176000000014,272.0,2.0,1169.6176000000014,272.0,,,,1173.011200000001,1173.5111000000015,1172.4993000000006,1173.0109000000002,1170.6277000000011,1172.499200000001,1173.511200000001,1174.0105,1174.0106000000014,1175.9993000000006,1666.0,1175.9993000000006,5.0,1175.9996000000017,2.0,24.0,84.0,20.0,1.0,0.8,0.3,Time
,,S01,026578,1,男,19,anonymized,Serial_Dependence_U,2023.2.3,Win32,59.523809523799216,,,,,,1176.0006000000014,113.0,2.0,1176.0007000000012,113.0,,,,1180.1655,1180.6601000000014,1179.6489000000004,1180.1655,1177.0135,1179.6489000000004,1180.6603000000007,1181.1602000000012,1181.1604000000004,1183.165800000001,1783.0,1183.1659000000004,4.0,1183.166,2.0,25.0,85.0,29.0,1.0,1.6,0.7,Time
,,S01,026578,1,男,19,anonymized,Serial_Dependence_U,2023.2.3,Win32,59.523809523799216,,,,,,1183.1667000000011,128.0,2.0,1183.1668000000006,128.0,,,,1187.3152000000011,1187.8094000000003,1186.8108000000009,1187.3151000000014,1184.1781000000017,1186.8105,1187.8095,1188.31,1188.3101000000015,1190.23,1693.0,1190.23,4.0,1190.230200000001,2.0,26.0,86.0,9.0,1.0,1.6,0.7,Time
,,S01,026578,1,男,19,anonymized,Serial_Dependence_U,2023.2.3,Win32,59.523809523799216,,,,,,1190.2304000000004,211.0,2.0,1190.2305,211.0,,,,1194.0145,1194.5094000000004,1193.494,1194.0145,1191.2316000000014,1193.4937000000011,1194.5095,1195.009200000001,1195.0093000000006,1196.6315,1291.0,1196.6315,4.0,1196.6318000000008,2.0,27.0,87.0,22.0,1.0,1.2,0.3,Time
,,S01,026578,1,男,19,anonymized,Serial_Dependence_U,2023.2.3,Win32,59.523809523799216,,,,,,1196.632,259.0,2.0,1196.6325,259.0,,,,1200.3988000000006,1200.897,1199.8979000000004,1200.3988000000006,1197.6325,1199.8978000000006,1200.897,1201.3926000000015,1201.392700000001,1203.4313000000006,1782.0,1203.4314000000004,5.0,1203.4316000000017,2.0,28.0,88.0,2.0,1.0,1.2,0.3,Time
,,S01,026578,1,男,19,anonymized,Serial_Dependence_U,2023.2.3,Win32,59.523809523799216,,,,,,1203.4321000000014,247.0,2.0,1203.432200000001,247.0,,,,1207.0104000000003,1207.5091000000014,1206.4974000000004,1207.0101000000016,1204.431,1206.4974000000004,1207.5093000000006,1208.0096000000017,1208.009700000001,1209.7482000000011,1417.0,1209.7482000000011,5.0,1209.7483000000009,2.0,29.0,89.0,11.0,1.0,1.0,0.3,Time
,,S01,026578,1,男,19,anonymized,Serial_Dependence_U,2023.2.3,Win32,59.523809523799216,,,,,,1209.7489000000005,118.0,3.0,1254.5069000000003,118.0,s,44.74090000000047,,1258.7131000000015,1259.207,1258.1955,1258.713,1255.5248000000006,1258.1954000000003,1259.207200000001,1259.7069000000004,1259.7071000000014,1261.4124000000004,1283.0,1261.4124000000004,2.0,1261.4126000000017,3.0,0.0,90.0,4.0,1.0,1.6,0.3,Time
,,S01,026578,1,男,19,anonymized,Serial_Dependence_U,2023.2.3,Win32,59.523809523799216,,,,,,1261.4131000000014,171.0,3.0,1261.414,171.0,,,,1264.961200000001,1265.457,1264.4455,1264.961200000001,1262.412,1264.4454000000003,1265.457,1265.9568000000006,1265.9569000000004,1267.4129000000005,1219.0,1267.413,4.0,1267.4135,3.0,1.0,91.0,26.0,1.0,1.0,0.7,Time
,,S01,026578,1,男,19,anonymized,Serial_Dependence_U,2023.2.3,Win32,59.523809523799216,,,,,,1267.4139000000002,203.0,3.0,1267.4139000000002,203.0,,,,1271.1912000000011,1271.6899000000003,1270.6781000000017,1271.1909000000005,1268.411700000001,1270.678,1271.69,1272.189700000001,1272.1899000000003,1273.5731000000014,1056.0,1273.5732000000012,2.0,1273.5739000000003,3.0,2.0,92.0,2.0,1.0,1.2,0.3,Time
,,S01,026578,1,男,19,anonymized,Serial_Dependence_U,2023.2.3,Win32,59.523809523799216,,,,,,1273.5745,100.0,3.0,1273.574700000001,100.0,,,,1277.5613000000008,1278.061,1277.059800000001,1277.561200000001,1274.5899000000004,1277.0597000000012,1278.061,1278.556,1278.5561000000014,1280.3287000000012,1460.0,1280.328800000001,3.0,1280.329,3.0,3.0,93.0,23.0,1.0,1.4,0.3,Time
,,S01,026578,1,男,19,anonymized,Serial_Dependence_U,2023.2.3,Win32,59.523809523799216,,,,,,1280.3297000000011,247.0,3.0,1280.3297000000011,247.0,,,,1284.2899000000004,1284.7936000000016,1283.778,1284.2897000000012,1281.328200000001,1283.7778000000008,1284.7936000000016,1285.2896000000014,1285.2898000000007,1287.0058000000008,1640.0,1287.006,4.0,1287.0066000000015,3.0,4.0,94.0,8.0,1.0,1.4,0.7,Time
,,S01,026578,1,男,19,anonymized,Serial_Dependence_U,2023.2.3,Win32,59.523809523799216,,,,,,1287.0076000000015,199.0,3.0,1287.0079000000003,199.0,,,,1291.0065,1291.5058000000008,1290.4946000000014,1291.0063000000007,1288.023700000001,1290.4945,1291.506,1292.0055,1292.0058000000008,1295.1773000000007,1883.0,1295.1774000000005,5.0,1295.1775,3.0,5.0,95.0,13.0,1.0,1.4,0.3,Time
,,S01,026578,1,男,19,anonymized,Serial_Dependence_U,2023.2.3,Win32,59.523809523799216,,,,,,1295.178200000001,275.0,3.0,1295.1784000000002,275.0,,,,1298.7439000000004,1299.2391000000014,1298.227700000001,1298.7438000000006,1296.1771000000017,1298.2275,1299.2393000000006,1299.7384000000004,1299.7385,1411.9061000000015,1295.0,1411.906200000001,4.0,1411.9064000000003,3.0,6.0,96.0,16.0,1.0,1.0,0.7,Time
,,S01,026578,1,男,19,anonymized,Serial_Dependence_U,2023.2.3,Win32,59.523809523799216,,,,,,1411.907,188.0,3.0,1411.907200000001,188.0,,,,1415.2711000000015,1415.7713000000008,1414.7556000000016,1415.2711000000015,1412.9185,1414.7555,1415.7714000000003,1416.2671000000014,1416.2672000000011,1417.6505,1160.0,1417.6506000000015,5.0,1417.6512000000012,3.0,7.0,97.0,25.0,1.0,0.8,0.7,Time
,,S01,026578,1,男,19,anonymized,Serial_Dependence_U,2023.2.3,Win32,59.523809523799216,,,,,,1417.652,121.0,3.0,1417.6522000000011,121.0,,,,1421.035,1421.5336000000011,1420.5224000000003,1421.0348000000008,1418.6723000000006,1420.5223000000008,1421.5338000000006,1422.0339000000004,1422.034,1423.1726000000017,1017.0,1423.1726000000017,4.0,1423.172700000001,3.0,8.0,98.0,15.0,1.0,0.8,0.7,Time
,,S01,026578,1,男,19,anonymized,Serial_Dependence_U,2023.2.3,Win32,59.523809523799216,,,,,,1423.1733000000006,137.0,3.0,1423.1736000000014,137.0,,,,1426.7551000000014,1427.250200000001,1426.2538000000006,1426.755,1424.1888000000008,1426.2537000000011,1427.2503000000006,1427.750200000001,1427.7504000000004,1429.1909000000005,1302.0,1429.191,5.0,1429.1913000000006,3.0,9.0,99.0,21.0,1.0,1.0,0.3,Time
,,S01,026578,1,男,19,anonymized,Serial_Dependence_U,2023.2.3,Win32,59.523809523799216,,,,,,1429.1916000000017,89.0,3.0,1429.1916000000017,89.0,,,,1433.1389000000004,1433.6333000000006,1432.6219000000003,1433.1389000000004,1430.188700000001,1432.6218000000008,1433.6335,1434.1357000000012,1434.1357000000012,1436.0548000000008,1783.0,1436.0548000000008,4.0,1436.055,3.0,10.0,100.0,18.0,1.0,1.4,0.7,Time
,,S01,026578,1,男,19,anonymized,Serial_Dependence_U,2023.2.3,Win32,59.523809523799216,,,,,,1436.0555,124.0,3.0,1436.055700000001,124.0,,,,1439.8368000000007,1440.3329000000003,1439.3364000000004,1439.836700000001,1437.066700000001,1439.3363000000006,1440.333,1440.8331000000014,1440.8333000000007,1442.171700000001,1245.0,1442.171700000001,3.0,1442.1719000000005,3.0,11.0,101.0,12.0,1.0,1.2,0.3,Time
,,S01,026578,1,男,19,anonymized,Serial_Dependence_U,2023.2.3,Win32,59.523809523799216,,,,,,1442.1724000000004,291.0,3.0,1442.1726000000017,291.0,,,,1445.9024000000004,1446.3993000000007,1445.4001000000014,1445.9024000000004,1443.1674000000005,1445.3998000000006,1446.3994000000002,1446.899200000001,1446.8995,1448.471700000001,1362.0,1448.4718000000007,4.0,1448.472,3.0,12.0,102.0,7.0,1.0,1.2,0.7,Time
,,S01,026578,1,男,19,anonymized,Serial_Dependence_U,2023.2.3,Win32,59.523809523799216,,,,,,1448.4724000000003,324.0,3.0,1448.4726000000014,324.0,,,,1452.4375,1452.9328000000007,1451.9211000000014,1452.4374000000005,1449.487700000001,1451.9211000000014,1452.933,1453.4323000000006,1453.4324000000004,1455.3376000000014,1728.0,1455.3377000000012,4.0,1455.3378000000007,3.0,13.0,103.0,28.0,1.0,1.4,0.7,Time
,,S01,026578,1,男,19,anonymized,Serial_Dependence_U,2023.2.3,Win32,59.523809523799216,,,,,,1455.3384000000003,216.0,3.0,1455.3386000000014,216.0,,,,1459.504,1460.0037000000011,1458.9876000000015,1459.504,1456.3499000000004,1458.9875,1460.0037000000011,1460.4989000000005,1460.499,1461.9995,1296.0,1461.999700000001,2.0,1462.0003000000006,3.0,14.0,104.0,9.0,1.0,1.6,0.7,Time
,,S01,026578,1,男,19,anonymized,Serial_Dependence_U,2023.2.3,Win32,59.523809523799216,,,,,,1462.001,137.0,3.0,1462.0013000000008,137.0,,,,1465.5666000000017,1466.065700000001,1465.0541000000014,1465.5662000000011,1463.0039000000004,1465.054,1466.0658000000008,1466.5655,1466.565700000001,1468.187600000001,1350.0,1468.187600000001,5.0,1468.1878000000006,3.0,15.0,105.0,6.0,1.0,1.0,0.7,Time
,,S01,026578,1,男,19,anonymized,Serial_Dependence_U,2023.2.3,Win32,59.523809523799216,,,,,,1468.1885,185.0,3.0,1468.1885,185.0,,,,1471.5385,1472.034200000001,1471.033,1471.5383000000006,1469.1998000000008,1471.0327000000011,1472.034200000001,1472.5326000000014,1472.5328000000006,1473.8539000000003,1219.0,1473.854,5.0,1473.8542000000011,3.0,16.0,106.0,5.0,1.0,0.8,0.7,Time
,,S01,026578,1,男,19,anonymized,Serial_Dependence_U,2023.2.3,Win32,59.523809523799216,,,,,,1473.8548000000008,98.0,3.0,1473.855,98.0,,,,1477.615700000001,1478.114700000001,1477.1036000000015,1477.6154000000004,1474.8698000000006,1477.1035,1478.1148000000007,1478.6146000000017,1478.614700000001,1480.0381000000014,1264.0,1480.0381000000014,4.0,1480.0384000000004,3.0,17.0,107.0,27.0,1.0,1.2,0.7,Time
,,S01,026578,1,男,19,anonymized,Serial_Dependence_U,2023.2.3,Win32,59.523809523799216,,,,,,1480.039,257.0,3.0,1480.0391000000016,257.0,,,,1484.0207000000012,1484.517700000001,1483.5195,1484.0206000000014,1481.0489000000002,1483.5195,1484.517700000001,1485.0148000000006,1485.0149000000004,1526.8854000000003,1130.0,1526.8854000000003,2.0,1526.8855,3.0,18.0,108.0,3.0,1.0,1.4,0.3,Time
,,S01,026578,1,男,19,anonymized,Serial_Dependence_U,2023.2.3,Win32,59.523809523799216,,,,,,1526.8859000000002,230.0,3.0,1526.8861000000015,230.0,,,,1531.0639000000003,1531.5629000000004,1530.5514000000005,1531.063700000001,1527.885200000001,1530.5514000000005,1531.563,1532.062700000001,1532.0629000000004,1534.017700000001,1683.0,1534.0178000000008,4.0,1534.0179000000005,3.0,19.0,109.0,14.0,1.0,1.6,0.3,Time
,,S01,026578,1,男,19,anonymized,Serial_Dependence_U,2023.2.3,Win32,59.523809523799216,,,,,,1534.0186000000017,3.0,3.0,1534.018700000001,3.0,,,,1537.4136000000017,1537.9121000000014,1536.901300000001,1537.413200000001,1535.0303000000008,1536.901300000001,1537.9122000000011,1538.4125,1538.4126000000017,1539.9175,1284.0,1539.9175,5.0,1539.9178000000006,3.0,20.0,110.0,0.0,1.0,0.8,0.3,Time
,,S01,026578,1,男,19,anonymized,Serial_Dependence_U,2023.2.3,Win32,59.523809523799216,,,,,,1539.9183000000007,285.0,3.0,1539.9183000000007,285.0,,,,1544.1003000000007,1544.5956000000017,1543.584700000001,1544.100200000001,1540.9338000000007,1543.5846000000015,1544.5958000000007,1545.095,1545.0952000000011,1547.0678000000007,1623.0,1547.0679000000002,3.0,1547.068,3.0,21.0,111.0,19.0,1.0,1.6,0.7,Time
,,S01,026578,1,男,19,anonymized,Serial_Dependence_U,2023.2.3,Win32,59.523809523799216,,,,,,1547.0686000000014,332.0,3.0,1547.0687000000012,332.0,,,,1550.4504000000004,1550.9455,1549.9465,1550.4504000000004,1548.083700000001,1549.946200000001,1550.9456000000014,1551.4454000000003,1551.4455,1552.5668000000007,950.0,1552.5668000000007,4.0,1552.5671000000011,3.0,22.0,112.0,10.0,1.0,0.8,0.3,Time
,,S01,026578,1,男,19,anonymized,Serial_Dependence_U,2023.2.3,Win32,59.523809523799216,,,,,,1552.5675,178.0,3.0,1552.5679000000002,178.0,,,,1556.1625,1556.6619000000003,1555.6463000000008,1556.1623000000006,1553.5842000000011,1555.646,1556.662,1557.166,1557.166,1559.2003000000009,1650.0,1559.2004000000004,5.0,1559.2006000000015,3.0,23.0,113.0,1.0,1.0,1.0,0.3,Time
,,S01,026578,1,男,19,anonymized,Serial_Dependence_U,2023.2.3,Win32,59.523809523799216,,,,,,1559.201200000001,88.0,3.0,1559.201200000001,88.0,,,,1562.8,1563.2988000000007,1562.283200000001,1562.8,1560.2125,1562.283200000001,1563.2989000000002,1563.7951000000014,1563.795300000001,1565.1339000000005,1249.0,1565.1339000000005,4.0,1565.1343000000006,3.0,24.0,114.0,11.0,1.0,1.0,0.3,Time
,,S01,026578,1,男,19,anonymized,Serial_Dependence_U,2023.2.3,Win32,59.523809523799216,,,,,,1565.1348000000007,260.0,3.0,1565.1348000000007,260.0,,,,1569.2828000000006,1569.7781000000014,1568.7668000000008,1569.2827000000011,1566.1336000000017,1568.7666000000015,1569.7783000000006,1570.2778000000008,1570.2779000000005,1572.0329000000004,1497.0,1572.0329000000004,2.0,1572.0331000000017,3.0,25.0,115.0,29.0,1.0,1.6,0.7,Time
,,S01,026578,1,男,19,anonymized,Serial_Dependence_U,2023.2.3,Win32,59.523809523799216,,,,,,1572.033700000001,48.0,3.0,1572.0339000000004,48.0,,,,1575.8114000000005,1576.3155,1575.3,1575.8111000000015,1573.049200000001,1575.3,1576.3155,1576.815300000001,1576.8154000000004,1578.5661000000014,1549.0,1578.5661000000014,4.0,1578.5663000000006,3.0,26.0,116.0,17.0,1.0,1.2,0.7,Time
,,S01,026578,1,男,19,anonymized,Serial_Dependence_U,2023.2.3,Win32,59.523809523799216,,,,,,1578.5669000000005,18.0,3.0,1578.567,18.0,,,,1581.9628000000007,1582.4603000000006,1581.449,1581.9625,1579.5823000000007,1581.4489000000003,1582.4604000000004,1582.9606000000017,1582.960700000001,1583.75,595.0,1583.75,2.0,1583.750200000001,3.0,27.0,117.0,20.0,1.0,0.8,0.3,Time
,,S01,026578,1,男,19,anonymized,Serial_Dependence_U,2023.2.3,Win32,59.523809523799216,,,,,,1583.7507000000012,198.0,3.0,1583.7509000000002,198.0,,,,1587.9278000000006,1588.4266000000014,1587.4157000000012,1587.9276000000011,1584.7495,1587.4156000000014,1588.4267000000011,1588.9146000000014,1588.9146000000014,1590.3767000000012,1193.0,1590.3769000000004,2.0,1590.3775,3.0,28.0,118.0,24.0,1.0,1.6,0.3,Time
,,S01,026578,1,男,19,anonymized,Serial_Dependence_U,2023.2.3,Win32,59.523809523799216,,,,,,1590.3783000000008,27.0,3.0,1590.3786000000014,27.0,,,,1594.1821000000014,1594.6771000000017,1593.6612000000011,1594.182,1591.3984000000005,1593.6608000000008,1594.677200000001,1595.1765,1595.1766000000014,1597.2156000000014,1439.0,1597.215700000001,4.0,1597.2158000000006,3.0,29.0,119.0,22.0,1.0,1.2,0.3,Time
,,S01,026578,1,男,19,anonymized,Serial_Dependence_U,2023.2.3,Win32,59.523809523799216,,,,,,1597.2163000000007,179.0,4.0,1598.793200000001,179.0,s,1.5573000000008506,,1602.7606000000014,1603.259700000001,1602.2483000000009,1602.7603000000006,1599.811,1602.2483000000009,1603.2599000000002,1603.759700000001,1603.7599000000002,1605.3595,1356.0,1605.359700000001,3.0,1605.3603000000007,4.0,0.0,120.0,18.0,1.0,1.4,0.7,Time
,,S01,026578,1,男,19,anonymized,Serial_Dependence_U,2023.2.3,Win32,59.523809523799216,,,,,,1605.361,273.0,4.0,1605.3626000000015,273.0,,,,1608.7315,1609.2286000000015,1608.2155,1608.7314000000003,1606.3799000000004,1608.2154000000005,1609.2286000000015,1609.7261000000017,1609.7264000000002,1611.0483000000006,1118.0,1611.0483000000006,5.0,1611.0485,4.0,1.0,121.0,15.0,1.0,0.8,0.7,Time
,,S01,026578,1,男,19,anonymized,Serial_Dependence_U,2023.2.3,Win32,59.523809523799216,,,,,,1611.049200000001,257.0,4.0,1611.049200000001,257.0,,,,1614.6124000000004,1615.1095,1614.098200000001,1614.6124000000004,1612.064300000001,1614.0981000000015,1615.1096000000014,1615.6121000000014,1615.6121000000014,1617.0151000000014,1216.0,1617.0151000000014,4.0,1617.0156000000015,4.0,2.0,122.0,26.0,1.0,1.0,0.7,Time
,,S01,026578,1,男,19,anonymized,Serial_Dependence_U,2023.2.3,Win32,59.523809523799216,,,,,,1617.0159000000003,150.0,4.0,1617.0161000000014,150.0,,,,1620.6142000000011,1621.1085,1620.098,1620.6141000000014,1618.0268000000008,1620.0979000000004,1621.1086000000014,1621.6089000000004,1621.6091000000015,1623.2148000000009,1345.0,1623.2148000000009,5.0,1623.215,4.0,3.0,123.0,11.0,1.0,1.0,0.3,Time
,,S01,026578,1,男,19,anonymized,Serial_Dependence_U,2023.2.3,Win32,59.523809523799216,,,,,,1623.2155,295.0,4.0,1623.215700000001,295.0,,,,1627.409700000001,1627.9099000000003,1626.8978000000006,1627.4094000000002,1624.2323000000008,1626.8977000000011,1627.9101000000014,1628.4083000000007,1628.4084000000005,1630.3144000000004,1647.0,1630.3144000000004,3.0,1630.3148000000008,4.0,4.0,124.0,24.0,1.0,1.6,0.3,Time
,,S01,026578,1,男,19,anonymized,Serial_Dependence_U,2023.2.3,Win32,59.523809523799216,,,,,,1630.3152000000011,80.0,4.0,1630.315300000001,80.0,,,,1633.6806000000015,1634.1748000000007,1633.1763000000008,1633.6804000000004,1631.314300000001,1633.176,1634.1749000000004,1634.6779000000004,1634.6779000000004,1636.391700000001,1382.0,1636.3919000000003,5.0,1636.3925,4.0,5.0,125.0,20.0,1.0,0.8,0.3,Time
,,S01,026578,1,男,19,anonymized,Serial_Dependence_U,2023.2.3,Win32,59.523809523799216,,,,,,1636.3934000000004,211.0,4.0,1636.393700000001,211.0,,,,1640.1473000000008,1640.6418000000008,1639.630700000001,1640.1473000000008,1637.3964000000003,1639.6306000000016,1640.642,1641.1422000000011,1641.1424000000004,1642.6583000000007,1199.0,1642.6586000000011,3.0,1642.6593000000007,4.0,6.0,126.0,7.0,1.0,1.2,0.7,Time
,,S01,026578,1,男,19,anonymized,Serial_Dependence_U,2023.2.3,Win32,59.523809523799216,,,,,,1642.6601000000014,309.0,4.0,1642.6603000000007,309.0,,,,1646.4259000000004,1646.9241000000015,1645.9131000000014,1646.4257000000011,1643.68,1645.9131000000014,1646.9241000000015,1647.4247000000012,1647.4249000000004,1649.247,1549.0,1649.2471000000014,4.0,1649.2472000000012,4.0,7.0,127.0,27.0,1.0,1.2,0.7,Time
,,S01,026578,1,男,19,anonymized,Serial_Dependence_U,2023.2.3,Win32,59.523809523799216,,,,,,1649.2478000000008,74.0,4.0,1649.248,74.0,,,,1653.3981000000017,1653.8909999999998,1652.8961000000015,1653.398,1650.2463000000007,1652.8961000000015,1653.8911000000014,1654.3949000000002,1654.3949000000002,1656.3969000000004,1650.0,1656.397,3.0,1656.397200000001,4.0,8.0,128.0,9.0,1.0,1.6,0.7,Time
,,S01,026578,1,男,19,anonymized,Serial_Dependence_U,2023.2.3,Win32,59.523809523799216,,,,,,1656.3975,32.0,4.0,1656.3977000000011,32.0,,,,1660.5635,1661.0574000000004,1660.0631000000014,1660.5635,1657.4122000000011,1660.0631000000014,1661.0575,1661.5615,1661.5615,1663.3626000000015,1533.0,1663.3626000000015,3.0,1663.3631000000014,4.0,9.0,129.0,29.0,1.0,1.6,0.7,Time
,,S01,026578,1,男,19,anonymized,Serial_Dependence_U,2023.2.3,Win32,59.523809523799216,,,,,,1663.363700000001,125.0,4.0,1663.3638000000008,125.0,,,,1667.3279000000002,1667.824700000001,1666.8136000000015,1667.3278000000007,1664.379200000001,1666.8135,1667.8248000000008,1668.3242000000012,1668.324300000001,1670.1403000000007,1605.0,1670.1405,4.0,1670.1411000000014,4.0,10.0,130.0,28.0,1.0,1.4,0.7,Time
,,S01,026578,1,男,19,anonymized,Serial_Dependence_U,2023.2.3,Win32,59.523809523799216,,,,,,1670.142,83.0,4.0,1670.142300000001,83.0,,,,1673.5254000000004,1674.0236000000014,1673.0083000000006,1673.5252000000012,1671.1454000000003,1673.0079000000003,1674.023700000001,1674.5238000000006,1674.5239000000004,1676.0624000000005,1211.0,1676.0624000000005,5.0,1676.0625,4.0,11.0,131.0,10.0,1.0,0.8,0.3,Time
,,S01,026578,1,男,19,anonymized,Serial_Dependence_U,2023.2.3,Win32,59.523809523799216,,,,,,1676.0628000000006,254.0,4.0,1676.0628000000006,254.0,,,,1679.4245,1679.9233000000006,1678.912,1679.4243000000008,1677.0609000000004,1678.9119000000003,1679.9234000000004,1680.4236000000014,1680.4237000000012,1682.1283000000008,1363.0,1682.1284000000005,5.0,1682.1285,4.0,12.0,132.0,5.0,1.0,0.8,0.7,Time
,,S01,026578,1,男,19,anonymized,Serial_Dependence_U,2023.2.3,Win32,59.523809523799216,,,,,,1682.129200000001,258.0,4.0,1682.129200000001,258.0,,,,1686.3283000000008,1686.823,1685.8115,1686.328200000001,1683.145200000001,1685.8115,1686.823,1687.326200000001,1687.326200000001,1692.79,1934.0,1692.7901000000015,4.0,1692.7907000000012,4.0,13.0,133.0,14.0,1.0,1.6,0.3,Time
,,S01,026578,1,男,19,anonymized,Serial_Dependence_U,2023.2.3,Win32,59.523809523799216,,,,,,1692.7913000000008,34.0,4.0,1692.7916000000014,34.0,,,,1696.9898000000007,1697.4929000000004,1696.4779000000003,1696.9895,1693.811700000001,1696.4779000000003,1697.4929000000004,1697.9894000000004,1697.9896000000017,1699.9779000000003,1766.0,1699.9779000000003,4.0,1699.978300000001,4.0,14.0,134.0,4.0,1.0,1.6,0.3,Time
,,S01,026578,1,男,19,anonymized,Serial_Dependence_U,2023.2.3,Win32,59.523809523799216,,,,,,1699.9786000000015,153.0,4.0,1699.978700000001,153.0,,,,1703.3452000000011,1703.8434000000004,1702.8442000000011,1703.3451000000014,1700.9774000000004,1702.8441000000014,1703.8435,1704.3428000000008,1704.3428000000008,1705.6944000000003,1150.0,1705.6945,5.0,1705.694800000001,4.0,15.0,135.0,0.0,1.0,0.8,0.3,Time
,,S01,026578,1,男,19,anonymized,Serial_Dependence_U,2023.2.3,Win32,59.523809523799216,,,,,,1705.6951000000015,185.0,4.0,1705.6953000000008,185.0,,,,1709.444,1709.9386000000015,1708.9286000000016,1709.444,1706.6926000000014,1708.9285,1709.938700000001,1710.443,1710.443,1712.1388000000006,1471.0,1712.1389000000004,4.0,1712.139600000001,4.0,16.0,136.0,17.0,1.0,1.2,0.7,Time
,,S01,026578,1,男,19,anonymized,Serial_Dependence_U,2023.2.3,Win32,59.523809523799216,,,,,,1712.1404000000002,168.0,4.0,1712.1406000000015,168.0,,,,1716.110600000001,1716.608200000001,1715.610200000001,1716.110600000001,1713.1431000000014,1715.6101000000017,1716.608200000001,1717.1051000000014,1717.1053000000006,1718.6112000000012,1369.0,1718.6113000000007,3.0,1718.6118000000008,4.0,17.0,137.0,23.0,1.0,1.4,0.3,Time
,,S01,026578,1,男,19,anonymized,Serial_Dependence_U,2023.2.3,Win32,59.523809523799216,,,,,,1718.612,164.0,4.0,1718.6121000000014,164.0,,,,1722.4101000000014,1722.9047000000012,1721.8891000000017,1722.41,1719.6258000000007,1721.8888000000006,1722.9048000000007,1723.405,1723.4053000000008,1724.8943000000006,1248.0,1724.8943000000006,3.0,1724.8946000000014,4.0,18.0,138.0,12.0,1.0,1.2,0.3,Time
,,S01,026578,1,男,19,anonymized,Serial_Dependence_U,2023.2.3,Win32,59.523809523799216,,,,,,1724.895,315.0,4.0,1724.8951000000015,315.0,,,,1728.4429000000002,1728.9383000000007,1727.9267000000011,1728.4429000000002,1725.8915,1727.9267000000011,1728.9384000000002,1729.4384000000002,1729.4386000000015,1730.9937000000011,1450.0,1730.9937000000011,5.0,1730.994,4.0,19.0,139.0,16.0,1.0,1.0,0.7,Time
,,S01,026578,1,男,19,anonymized,Serial_Dependence_U,2023.2.3,Win32,59.523809523799216,,,,,,1730.9946000000014,256.0,4.0,1730.994700000001,256.0,,,,1734.942700000001,1735.4378000000006,1734.4265,1734.942700000001,1731.9929000000004,1734.4264000000005,1735.438,1735.9378000000006,1735.938,1737.8444000000004,1762.0,1737.8445,4.0,1737.8449000000005,4.0,20.0,140.0,8.0,1.0,1.4,0.7,Time
,,S01,026578,1,男,19,anonymized,Serial_Dependence_U,2023.2.3,Win32,59.523809523799216,,,,,,1737.8451000000014,148.0,4.0,1737.8451000000014,148.0,,,,1741.4416000000017,1741.9419000000005,1740.9266000000014,1741.4415,1738.859700000001,1740.9265,1741.9419000000005,1742.4373000000007,1742.4375,1743.9933000000008,1352.0,1743.9935,5.0,1743.9938000000006,4.0,21.0,141.0,1.0,1.0,1.0,0.3,Time
,,S01,026578,1,男,19,anonymized,Serial_Dependence_U,2023.2.3,Win32,59.523809523799216,,,,,,1743.9944000000005,253.0,4.0,1743.9945,253.0,,,,1747.572,1748.0705,1747.0593000000008,1747.571700000001,1745.009200000001,1747.059200000001,1748.0706000000014,1748.559,1748.559,1749.887,1186.0,1749.887200000001,4.0,1749.8879000000004,4.0,22.0,142.0,6.0,1.0,1.0,0.7,Time
,,S01,026578,1,男,19,anonymized,Serial_Dependence_U,2023.2.3,Win32,59.523809523799216,,,,,,1749.8886000000014,344.0,4.0,1749.8888000000006,344.0,,,,1753.8776000000014,1754.3706000000016,1753.3759000000002,1753.8773000000008,1750.9046000000014,1753.3759000000002,1754.370700000001,1754.8701000000017,1754.8703000000007,1756.5768000000007,1535.0,1756.5768000000007,4.0,1756.577200000001,4.0,23.0,143.0,3.0,1.0,1.4,0.3,Time
,,S01,026578,1,男,19,anonymized,Serial_Dependence_U,2023.2.3,Win32,59.523809523799216,,,,,,1756.5775,342.0,4.0,1756.5776000000014,342.0,,,,1760.3586000000014,1760.8563000000006,1759.8553000000006,1760.3586000000014,1757.5921000000014,1759.8549000000005,1760.8563000000006,1761.356200000001,1761.356200000001,1830.4237000000007,1184.0,1830.4239,3.0,1830.424100000001,4.0,24.0,144.0,2.0,1.0,1.2,0.3,Time
,,S01,026578,1,男,19,anonymized,Serial_Dependence_U,2023.2.3,Win32,59.523809523799216,,,,,,1830.4243000000008,136.0,4.0,1830.4243000000008,136.0,,,,1833.7551000000012,1834.2506000000012,1833.254200000001,1833.755,1831.4208000000008,1833.254200000001,1834.2507000000007,1834.7507000000007,1834.7508000000007,1835.9065,1049.0,1835.9065,5.0,1835.907,4.0,25.0,145.0,25.0,1.0,0.8,0.7,Time
,,S01,026578,1,男,19,anonymized,Serial_Dependence_U,2023.2.3,Win32,59.523809523799216,,,,,,1835.907200000001,236.0,4.0,1835.907200000001,236.0,,,,1840.0514000000005,1840.5504000000003,1839.5391000000016,1840.051200000001,1836.9059000000004,1839.539,1840.5505,1841.0513000000008,1841.0514000000005,1842.867,1426.0,1842.867200000001,2.0,1842.867800000001,4.0,26.0,146.0,19.0,1.0,1.6,0.7,Time
,,S01,026578,1,男,19,anonymized,Serial_Dependence_U,2023.2.3,Win32,59.523809523799216,,,,,,1842.8684000000003,305.0,4.0,1842.8686000000012,305.0,,,,1846.6718000000008,1847.1714000000004,1846.1548000000007,1846.6716000000013,1843.8871000000013,1846.1547000000007,1847.1715,1847.6669000000004,1847.6671000000013,1849.4221000000011,1501.0,1849.4221000000011,4.0,1849.422200000001,4.0,27.0,147.0,22.0,1.0,1.2,0.3,Time
,,S01,026578,1,男,19,anonymized,Serial_Dependence_U,2023.2.3,Win32,59.523809523799216,,,,,,1849.4228000000007,4.0,4.0,1849.423200000001,4.0,,,,1853.417700000001,1853.920700000001,1852.9057000000007,1853.4174000000005,1850.4373000000007,1852.9055,1853.920700000001,1854.4186000000016,1854.418700000001,1856.0891000000013,1533.0,1856.0891000000013,4.0,1856.0893000000008,4.0,28.0,148.0,13.0,1.0,1.4,0.3,Time
,,S01,026578,1,男,19,anonymized,Serial_Dependence_U,2023.2.3,Win32,59.523809523799216,,,,,,1856.0899000000004,154.0,4.0,1856.0901000000013,154.0,,,,1859.6686000000016,1860.1711000000012,1859.1548000000007,1859.6684,1857.0887000000007,1859.1547000000007,1860.171200000001,1860.6661000000013,1860.666200000001,1862.4326000000012,1730.0,1862.4328000000007,5.0,1862.4334000000003,4.0,29.0,149.0,21.0,1.0,1.0,0.3,Time
,,S01,026578,1,男,19,anonymized,Serial_Dependence_U,2023.2.3,Win32,59.523809523799216,,,,,,1862.4344000000003,1.0,5.0,2005.830700000001,1.0,s,143.37570000000142,,2009.9941000000013,2010.4939000000008,2009.4819000000005,2009.9939000000008,2006.831800000001,2009.4818000000007,2010.4940000000004,2010.9932000000013,2010.9934000000003,2013.0325,1829.0,2013.0325,4.0,2013.033,5.0,0.0,150.0,19.0,1.0,1.6,0.7,Time
,,S01,026578,1,男,19,anonymized,Serial_Dependence_U,2023.2.3,Win32,59.523809523799216,,,,,,2013.0333000000007,34.0,5.0,2013.0340000000003,34.0,,,,2016.7769000000003,2017.2767000000013,2016.2652000000012,2016.7766000000015,2014.0307000000012,2016.265,2017.2768000000008,2017.7793000000008,2017.7793000000008,2019.1482000000008,1284.0,2019.1482000000008,4.0,2019.1484000000007,5.0,1.0,151.0,17.0,1.0,1.2,0.7,Time
,,S01,026578,1,男,19,anonymized,Serial_Dependence_U,2023.2.3,Win32,59.523809523799216,,,,,,2019.149,333.0,5.0,2019.149,333.0,,,,2022.529800000001,2023.025800000001,2022.0273000000009,2022.529800000001,2020.1646000000017,2022.0270000000005,2023.0259000000008,2023.5304000000008,2023.5304000000008,2094.4735000000005,1030.0,2094.4737,4.0,2094.474300000001,5.0,2.0,152.0,0.0,1.0,0.8,0.3,Time
,,S01,026578,1,男,19,anonymized,Serial_Dependence_U,2023.2.3,Win32,59.523809523799216,,,,,,2094.475100000002,299.0,5.0,2094.4755000000005,299.0,,,,2098.2569000000026,2098.7605000000003,2097.745100000002,2098.256600000002,2095.4785000000006,2097.7450000000003,2098.7605000000003,2099.256100000002,2099.2563000000014,2100.745600000002,1350.0,2100.745600000002,4.0,2100.745800000001,5.0,3.0,153.0,12.0,1.0,1.2,0.3,Time
,,S01,026578,1,男,19,anonymized,Serial_Dependence_U,2023.2.3,Win32,59.523809523799216,,,,,,2100.7462,310.0,5.0,2100.7465,310.0,,,,2104.723800000001,2105.222600000002,2104.209800000001,2104.7235000000005,2101.7448000000013,2104.209600000002,2105.2227,2105.723100000002,2105.723300000001,2107.612800000001,1734.0,2107.612900000003,4.0,2107.6133000000013,5.0,4.0,154.0,3.0,1.0,1.4,0.3,Time
,,S01,026578,1,男,19,anonymized,Serial_Dependence_U,2023.2.3,Win32,59.523809523799216,,,,,,2107.6135000000004,58.0,5.0,2107.613600000002,58.0,,,,2111.3737,2111.876800000002,2110.861300000001,2111.3735000000006,2108.6262,2110.8612,2111.876800000002,2112.3722,2112.372300000002,2114.228300000001,1532.0,2114.228300000001,4.0,2114.2285000000006,5.0,5.0,155.0,27.0,1.0,1.2,0.7,Time
,,S01,026578,1,男,19,anonymized,Serial_Dependence_U,2023.2.3,Win32,59.523809523799216,,,,,,2114.2287,79.0,5.0,2114.228900000003,79.0,,,,2118.0235,2118.522800000001,2117.5115000000005,2118.0231000000017,2115.239800000001,2117.5115000000005,2118.5229000000027,2119.0224000000026,2119.022600000002,2121.2946999999995,1712.0,2121.294800000001,5.0,2121.2950000000005,5.0,6.0,156.0,22.0,1.0,1.2,0.3,Time
,,S01,026578,1,男,19,anonymized,Serial_Dependence_U,2023.2.3,Win32,59.523809523799216,,,,,,2121.2956000000017,61.0,5.0,2121.2957,61.0,,,,2124.8900000000003,2125.393100000002,2124.3775000000005,2124.8897,2122.307400000003,2124.3774000000026,2125.3931999999995,2125.8892,2125.889300000001,2146.694300000001,1065.0,2146.6945000000005,4.0,2146.694600000002,5.0,7.0,157.0,11.0,1.0,1.0,0.3,Time
,,S01,026578,1,男,19,anonymized,Serial_Dependence_U,2023.2.3,Win32,59.523809523799216,,,,,,2146.694800000001,97.0,5.0,2146.6949000000027,97.0,,,,2150.2384000000025,2150.7389000000026,2149.7264000000027,2150.238100000002,2147.693400000003,2149.7264000000027,2150.739100000002,2151.2382,2151.2384000000025,2152.5547,1007.0,2152.5548000000013,3.0,2152.5555000000004,5.0,8.0,158.0,26.0,1.0,1.0,0.7,Time
,,S01,026578,1,男,19,anonymized,Serial_Dependence_U,2023.2.3,Win32,59.523809523799216,,,,,,2152.556300000001,208.0,5.0,2152.5566000000017,208.0,,,,2156.3588000000013,2156.854100000002,2155.838400000003,2156.3588000000013,2153.571600000002,2155.8381000000018,2156.8542,2157.354100000002,2157.3542,2160.326300000001,1366.0,2160.326400000002,4.0,2160.3267,5.0,9.0,159.0,2.0,1.0,1.2,0.3,Time
,,S01,026578,1,男,19,anonymized,Serial_Dependence_U,2023.2.3,Win32,59.523809523799216,,,,,,2160.3273000000013,31.0,5.0,2160.3273000000013,31.0,,,,2164.5219000000025,2165.025300000001,2164.009400000002,2164.521600000002,2161.3381000000018,2164.0091999999995,2165.025300000001,2165.521600000002,2165.5218000000013,2167.327,1595.0,2167.327,3.0,2167.3272,5.0,10.0,160.0,14.0,1.0,1.6,0.3,Time
,,S01,026578,1,男,19,anonymized,Serial_Dependence_U,2023.2.3,Win32,59.523809523799216,,,,,,2167.327800000001,51.0,5.0,2167.327800000001,51.0,,,,2171.274300000001,2171.7701999999995,2170.7712,2171.274300000001,2168.337800000001,2170.7709000000027,2171.7705000000005,2172.2710000000006,2172.2712,2174.4590000000003,1851.0,2174.459100000002,5.0,2174.4592,5.0,11.0,161.0,28.0,1.0,1.4,0.7,Time
,,S01,026578,1,男,19,anonymized,Serial_Dependence_U,2023.2.3,Win32,59.523809523799216,,,,,,2174.459800000001,16.0,5.0,2174.4599000000026,16.0,,,,2178.654800000001,2179.153100000002,2178.1427,2178.654500000001,2175.475100000002,2178.142600000002,2179.1532,2179.654100000002,2179.6541999999995,2181.675300000001,1814.0,2181.675300000001,4.0,2181.675400000003,5.0,12.0,162.0,24.0,1.0,1.6,0.3,Time
,,S01,026578,1,男,19,anonymized,Serial_Dependence_U,2023.2.3,Win32,59.523809523799216,,,,,,2181.6758000000013,32.0,5.0,2181.676300000001,32.0,,,,2185.6580000000004,2186.152800000001,2185.141100000002,2185.6580000000004,2182.674600000002,2185.141100000002,2186.152900000003,2186.6572,2186.6572,2188.541600000002,1600.0,2188.5418000000013,4.0,2188.5422,5.0,13.0,163.0,13.0,1.0,1.4,0.3,Time
,,S01,026578,1,男,19,anonymized,Serial_Dependence_U,2023.2.3,Win32,59.523809523799216,,,,,,2188.5424000000025,0.0,5.0,2188.5424000000025,0.0,,,,2191.924300000001,2192.419100000002,2191.4080000000004,2191.924300000001,2189.541300000001,2191.4078000000013,2192.4193000000014,2192.924300000001,2192.9244000000026,2194.757900000003,1294.0,2194.757900000003,5.0,2194.758100000002,5.0,14.0,164.0,20.0,1.0,0.8,0.3,Time
,,S01,026578,1,男,19,anonymized,Serial_Dependence_U,2023.2.3,Win32,59.523809523799216,,,,,,2194.758800000001,98.0,5.0,2194.7589000000025,98.0,,,,2198.341100000002,2198.835800000001,2197.824300000001,2198.340900000003,2195.757100000002,2197.824300000001,2198.8359000000028,2199.3356000000017,2199.335800000001,2201.5249000000026,1567.0,2201.525100000002,5.0,2201.5254000000027,5.0,15.0,165.0,1.0,1.0,1.0,0.3,Time
,,S01,026578,1,男,19,anonymized,Serial_Dependence_U,2023.2.3,Win32,59.523809523799216,,,,,,2201.525900000003,6.0,5.0,2201.525900000003,6.0,,,,2205.119900000003,2205.6236000000017,2204.6077,2205.1197,2202.5404000000026,2204.6075000000005,2205.6236000000017,2206.1191000000017,2206.119300000001,2210.5519000000027,1685.0,2210.5521000000017,5.0,2210.5525,5.0,16.0,166.0,21.0,1.0,1.0,0.3,Time
,,S01,026578,1,男,19,anonymized,Serial_Dependence_U,2023.2.3,Win32,59.523809523799216,,,,,,2210.5534000000025,332.0,5.0,2210.553600000002,332.0,,,,2214.7374000000027,2215.2349000000027,2214.223800000001,2214.737100000002,2211.5557,2214.223800000001,2215.2349000000027,2215.7346999999995,2215.7350000000006,2217.740800000001,1726.0,2217.7409000000025,4.0,2217.7415000000005,5.0,17.0,167.0,4.0,1.0,1.6,0.3,Time
,,S01,026578,1,男,19,anonymized,Serial_Dependence_U,2023.2.3,Win32,59.523809523799216,,,,,,2217.7417,241.0,5.0,2217.7417,241.0,,,,2221.504900000002,2222.005600000002,2220.9855,2221.504800000001,2218.7524000000026,2220.985300000001,2222.005600000002,2222.5040000000004,2222.5040000000004,2224.3073000000013,1532.0,2224.3073000000013,4.0,2224.307800000001,5.0,18.0,168.0,7.0,1.0,1.2,0.7,Time
,,S01,026578,1,男,19,anonymized,Serial_Dependence_U,2023.2.3,Win32,59.523809523799216,,,,,,2224.3081999999995,97.0,5.0,2224.308300000001,97.0,,,,2228.451800000001,2228.9555000000005,2227.939699999999,2228.451400000002,2225.306300000001,2227.939600000002,2228.955600000002,2229.451300000001,2229.4515000000006,2231.4735000000005,1783.0,2231.4735000000005,4.0,2231.473600000002,5.0,19.0,169.0,9.0,1.0,1.6,0.7,Time
,,S01,026578,1,男,19,anonymized,Serial_Dependence_U,2023.2.3,Win32,59.523809523799216,,,,,,2231.4742,245.0,5.0,2231.474400000003,245.0,,,,2235.4066999999995,2235.9005,2234.9015000000004,2235.4066999999995,2232.469300000001,2234.9014000000025,2235.9007,2236.406199999999,2236.406199999999,2238.5509000000025,1634.0,2238.5512,4.0,2238.5519000000027,5.0,20.0,170.0,18.0,1.0,1.4,0.7,Time
,,S01,026578,1,男,19,anonymized,Serial_Dependence_U,2023.2.3,Win32,59.523809523799216,,,,,,2238.5527,167.0,5.0,2238.5530000000003,167.0,,,,2242.5515000000005,2243.0547,2242.0399000000025,2242.5512,2239.568100000002,2242.0398000000014,2243.0547,2243.5550000000003,2243.5550000000003,2245.355800000001,1328.0,2245.355800000001,2.0,2245.3562,5.0,21.0,171.0,23.0,1.0,1.4,0.3,Time
,,S01,026578,1,男,19,anonymized,Serial_Dependence_U,2023.2.3,Win32,59.523809523799216,,,,,,2245.3569000000025,203.0,5.0,2245.3570000000004,203.0,,,,2249.5212,2250.0170000000003,2249.0055,2249.5211000000018,2246.368100000002,2249.0054000000027,2250.0170000000003,2250.5173000000013,2250.5175000000004,2252.473300000001,1729.0,2252.4734000000026,4.0,2252.473600000002,5.0,22.0,172.0,29.0,1.0,1.6,0.7,Time
,,S01,026578,1,男,19,anonymized,Serial_Dependence_U,2023.2.3,Win32,59.523809523799216,,,,,,2252.4741000000017,15.0,5.0,2252.4741000000017,15.0,,,,2256.0345,2256.536300000001,2255.5217,2256.0342,2253.487900000003,2255.521600000002,2256.536300000001,2257.034000000001,2257.034000000001,2258.1886000000018,1100.0,2258.1887,4.0,2258.1888000000013,5.0,23.0,173.0,6.0,1.0,1.0,0.7,Time
,,S01,026578,1,男,19,anonymized,Serial_Dependence_U,2023.2.3,Win32,59.523809523799216,,,,,,2258.189300000002,340.0,5.0,2258.1895000000004,340.0,,,,2262.134300000001,2262.632800000001,2261.621900000003,2262.134100000002,2259.1869000000024,2261.6217,2262.6330000000003,2263.1335000000004,2263.133600000002,2264.8498000000013,1487.0,2264.8499000000024,4.0,2264.8505000000005,5.0,24.0,174.0,8.0,1.0,1.4,0.7,Time
,,S01,026578,1,男,19,anonymized,Serial_Dependence_U,2023.2.3,Win32,59.523809523799216,,,,,,2264.8512,128.0,5.0,2264.8515,128.0,,,,2268.2512,2268.7493000000013,2267.7382,2268.2509000000027,2265.8714000000027,2267.738100000002,2268.7495000000004,2269.2494000000024,2269.249600000002,2270.8170000000005,1255.0,2270.817100000002,5.0,2270.817800000001,5.0,25.0,175.0,10.0,1.0,0.8,0.3,Time
,,S01,026578,1,男,19,anonymized,Serial_Dependence_U,2023.2.3,Win32,59.523809523799216,,,,,,2270.8185000000003,248.0,5.0,2270.8187,248.0,,,,2274.384100000002,2274.8825000000006,2273.8710000000005,2274.3837,2271.834100000002,2273.8710000000005,2274.8826000000017,2275.3825000000006,2275.382800000001,2276.9990000000003,1458.0,2276.9992,5.0,2276.9997,5.0,26.0,176.0,16.0,1.0,1.0,0.7,Time
,,S01,026578,1,男,19,anonymized,Serial_Dependence_U,2023.2.3,Win32,59.523809523799216,,,,,,2277.000300000001,128.0,5.0,2277.000500000001,128.0,,,,2280.3542,2280.8495000000003,2279.8505000000005,2280.3542,2278.016800000001,2279.850300000001,2280.849600000002,2281.353300000001,2281.3534000000027,2282.7692,1205.0,2282.7693000000013,5.0,2282.769400000003,5.0,27.0,177.0,5.0,1.0,0.8,0.7,Time
,,S01,026578,1,男,19,anonymized,Serial_Dependence_U,2023.2.3,Win32,59.523809523799216,,,,,,2282.7697,159.0,5.0,2282.769800000001,159.0,,,,2286.1209000000026,2286.6164000000026,2285.6047,2286.1209000000026,2283.770800000001,2285.604600000002,2286.6165000000005,2287.116100000002,2287.116300000001,2288.637300000001,1183.0,2288.637400000003,5.0,2288.637600000002,5.0,28.0,178.0,15.0,1.0,0.8,0.7,Time
,,S01,026578,1,男,19,anonymized,Serial_Dependence_U,2023.2.3,Win32,59.523809523799216,,,,,,2288.6379000000024,354.0,5.0,2288.6382,354.0,,,,2292.0156999999995,2292.5155000000004,2291.504100000002,2292.0154000000025,2289.654100000002,2291.504100000002,2292.5156999999995,2293.0150000000003,2293.0152,2294.5320000000006,1239.0,2294.5322,5.0,2294.5329000000024,5.0,29.0,179.0,25.0,1.0,0.8,0.7,Time
,,S01,026578,1,男,19,anonymized,Serial_Dependence_U,2023.2.3,Win32,59.523809523799216,,,,,,2294.5335000000005,26.0,6.0,2735.464800000001,26.0,s,440.9044999999997,,2739.4483000000014,2739.947300000001,2738.9359000000027,2739.448100000002,2736.4695000000006,2738.9359000000027,2739.9474000000027,2740.446900000002,2740.447000000001,2742.2189000000026,1516.0,2742.2190000000005,4.0,2742.2194000000027,6.0,0.0,180.0,13.0,1.0,1.4,0.3,Time
,,S01,026578,1,男,19,anonymized,Serial_Dependence_U,2023.2.3,Win32,59.523809523799216,,,,,,2742.219900000003,237.0,6.0,2742.2207,237.0,,,,2745.5981999999995,2746.099600000002,2745.085800000001,2745.597800000002,2743.217100000002,2745.0857,2746.099600000002,2746.597,2746.597100000002,2748.2860000000005,1514.0,2748.2860000000005,5.0,2748.2864000000027,6.0,1.0,181.0,20.0,1.0,0.8,0.3,Time
,,S01,026578,1,男,19,anonymized,Serial_Dependence_U,2023.2.3,Win32,59.523809523799216,,,,,,2748.286800000001,231.0,6.0,2748.286800000001,231.0,,,,2751.8849000000027,2752.3804000000027,2751.3689000000027,2751.884800000001,2749.3028000000013,2751.3689000000027,2752.380600000002,2752.8827,2752.8827,2754.130000000001,1074.0,2754.1302,4.0,2754.130900000003,6.0,2.0,182.0,11.0,1.0,1.0,0.3,Time
,,S01,026578,1,男,19,anonymized,Serial_Dependence_U,2023.2.3,Win32,59.523809523799216,,,,,,2754.1315000000004,256.0,6.0,2754.1319000000026,256.0,,,,2757.9005,2758.4004000000027,2757.3976999999995,2757.9004000000027,2755.1353000000013,2757.3974000000026,2758.4005,2758.8968000000013,2758.8969000000025,2760.3016999999995,1215.0,2760.301800000001,3.0,2760.3021000000017,6.0,3.0,183.0,12.0,1.0,1.2,0.3,Time
,,S01,026578,1,男,19,anonymized,Serial_Dependence_U,2023.2.3,Win32,59.523809523799216,,,,,,2760.302600000002,162.0,6.0,2760.3027,162.0,,,,2763.6805000000004,2764.184400000003,2763.1685,2763.680300000002,2761.3188000000014,2763.1684000000027,2764.184400000003,2764.679300000001,2764.6794000000027,2889.147100000002,1195.0,2889.147100000002,5.0,2889.1475000000005,6.0,4.0,184.0,5.0,1.0,0.8,0.7,Time
,,S01,026578,1,男,19,anonymized,Serial_Dependence_U,2023.2.3,Win32,59.523809523799216,,,,,,2889.1480000000006,142.0,6.0,2889.1481000000017,142.0,,,,2892.8960000000006,2893.3906999999995,2892.3920000000003,2892.8960000000006,2890.159000000001,2892.3917,2893.3909000000026,2893.891300000001,2893.8915000000006,2895.7309000000027,1531.0,2895.731,4.0,2895.7312,6.0,5.0,185.0,7.0,1.0,1.2,0.7,Time
,,S01,026578,1,男,19,anonymized,Serial_Dependence_U,2023.2.3,Win32,59.523809523799216,,,,,,2895.731400000003,168.0,6.0,2895.7315000000003,168.0,,,,2899.0926000000018,2899.5908000000013,2898.5789000000027,2899.092300000001,2896.7439000000027,2898.578800000001,2899.5910000000003,2900.0910000000003,2900.0912,2901.3472,1036.0,2901.3473000000013,4.0,2901.3477,6.0,6.0,186.0,15.0,1.0,0.8,0.7,Time
,,S01,026578,1,男,19,anonymized,Serial_Dependence_U,2023.2.3,Win32,59.523809523799216,,,,,,2901.3479000000025,221.0,6.0,2901.3479000000025,221.0,,,,2905.4960000000005,2905.9948000000013,2904.9942,2905.4959000000026,2902.3625000000006,2904.9941000000017,2905.9948000000013,2906.490600000002,2906.4907,2908.4960000000005,1667.0,2908.4962,3.0,2908.4965,6.0,7.0,187.0,9.0,1.0,1.6,0.7,Time
,,S01,026578,1,男,19,anonymized,Serial_Dependence_U,2023.2.3,Win32,59.523809523799216,,,,,,2908.4967,222.0,6.0,2908.4968000000013,222.0,,,,2912.458100000002,2912.957300000001,2911.9458000000013,2912.457800000001,2909.5103000000013,2911.9457,2912.9574000000025,2913.457100000002,2913.4572,2915.2465,1516.0,2915.2465,4.0,2915.2467,6.0,8.0,188.0,8.0,1.0,1.4,0.7,Time
,,S01,026578,1,男,19,anonymized,Serial_Dependence_U,2023.2.3,Win32,59.523809523799216,,,,,,2915.247300000002,218.0,6.0,2915.2474000000025,218.0,,,,2918.6244000000024,2919.1235000000006,2918.1122,2918.624100000002,2916.243300000001,2918.1122,2919.1236000000017,2919.6234000000027,2919.6236000000017,2921.1285000000003,1364.0,2921.128600000002,5.0,2921.1288000000013,6.0,9.0,189.0,10.0,1.0,0.8,0.3,Time
,,S01,026578,1,男,19,anonymized,Serial_Dependence_U,2023.2.3,Win32,59.523809523799216,,,,,,2921.129300000001,330.0,6.0,2921.1294000000025,330.0,,,,2924.9122,2925.4114000000027,2924.3951999999995,2924.912100000002,2922.128400000003,2924.395100000002,2925.4115000000006,2925.906300000001,2925.9064000000026,2927.6285000000003,1511.0,2927.6285000000003,4.0,2927.6289000000024,6.0,10.0,190.0,22.0,1.0,1.2,0.3,Time
,,S01,026578,1,男,19,anonymized,Serial_Dependence_U,2023.2.3,Win32,59.523809523799216,,,,,,2927.6294000000025,329.0,6.0,2927.6294000000025,329.0,,,,2931.194600000002,2931.6890000000003,2930.6780000000003,2931.1945000000005,2928.6449000000025,2930.677900000003,2931.689100000002,2932.1939000000025,2932.1939000000025,2933.7284000000027,1324.0,2933.7285000000006,5.0,2933.728800000001,6.0,11.0,191.0,26.0,1.0,1.0,0.7,Time
,,S01,026578,1,男,19,anonymized,Serial_Dependence_U,2023.2.3,Win32,59.523809523799216,,,,,,2933.7293000000013,221.0,6.0,2933.7294000000024,221.0,,,,2937.878300000001,2938.3720000000003,2937.377600000002,2937.8782,2934.7444000000028,2937.3775000000005,2938.3722,2938.872600000002,2938.8727,2940.5617,1598.0,2940.5618000000013,3.0,2940.5622,6.0,12.0,192.0,29.0,1.0,1.6,0.7,Time
,,S01,026578,1,男,19,anonymized,Serial_Dependence_U,2023.2.3,Win32,59.523809523799216,,,,,,2940.562600000002,288.0,6.0,2940.562600000002,288.0,,,,2943.940300000001,2944.4432,2943.4277,2943.9399000000026,2941.561400000003,2943.427600000002,2944.4432,2944.938900000003,2944.939100000002,2946.7280000000005,1601.0,2946.7280000000005,5.0,2946.728300000001,6.0,13.0,193.0,0.0,1.0,0.8,0.3,Time
,,S01,026578,1,男,19,anonymized,Serial_Dependence_U,2023.2.3,Win32,59.523809523799216,,,,,,2946.728800000001,163.0,6.0,2946.728900000003,163.0,,,,2950.673,2951.171800000001,2950.160800000001,2950.6727,2947.727100000002,2950.1606999999995,2951.1719000000026,2951.6717,2951.671800000001,2953.6717,1662.0,2953.6719000000026,4.0,2953.6725000000006,6.0,14.0,194.0,18.0,1.0,1.4,0.7,Time
,,S01,026578,1,男,19,anonymized,Serial_Dependence_U,2023.2.3,Win32,59.523809523799216,,,,,,2953.6733000000013,346.0,6.0,2953.673600000002,346.0,,,,2957.672800000001,2958.1713000000013,2957.160100000002,2957.6725000000006,2954.692100000002,2957.159900000003,2958.1714000000024,2958.6714000000024,2958.671600000002,2963.5276000000017,1461.0,2963.5276000000017,3.0,2963.528,6.0,15.0,195.0,3.0,1.0,1.4,0.3,Time
,,S01,026578,1,男,19,anonymized,Serial_Dependence_U,2023.2.3,Win32,59.523809523799216,,,,,,2963.528400000003,228.0,6.0,2963.528400000003,228.0,,,,2967.0896999999995,2967.5887,2966.5769000000028,2967.0892,2964.5419000000024,2966.576800000001,2967.588800000002,2968.0882,2968.088400000003,2969.5935000000004,1184.0,2969.5935000000004,4.0,2969.5941999999995,6.0,16.0,196.0,16.0,1.0,1.0,0.7,Time
,,S01,026578,1,男,19,anonymized,Serial_Dependence_U,2023.2.3,Win32,59.523809523799216,,,,,,2969.5945000000006,160.0,6.0,2969.5945000000006,160.0,,,,2973.788400000002,2974.2877,2973.2765000000004,2973.7880000000005,2970.6051999999995,2973.2764000000025,2974.287800000001,2974.788100000002,2974.788300000001,2976.528,1434.0,2976.528100000002,2.0,2976.528400000003,6.0,17.0,197.0,14.0,1.0,1.6,0.3,Time
,,S01,026578,1,男,19,anonymized,Serial_Dependence_U,2023.2.3,Win32,59.523809523799216,,,,,,2976.528600000002,137.0,6.0,2976.528600000002,137.0,,,,2980.7072,2981.2042,2980.1914000000024,2980.707100000002,2977.526300000002,2980.1913000000013,2981.204400000003,2981.7082,2981.7082,2986.610900000003,1190.0,2986.610900000003,2.0,2986.6112,6.0,18.0,198.0,24.0,1.0,1.6,0.3,Time
,,S01,026578,1,男,19,anonymized,Serial_Dependence_U,2023.2.3,Win32,59.523809523799216,,,,,,2986.6114000000025,32.0,6.0,2986.6114000000025,32.0,,,,2990.8047,2991.3079000000025,2990.2925000000005,2990.8045,2987.6102,2990.2924000000025,2991.3079000000025,2991.8045,2991.8045,2993.5593000000013,1417.0,2993.5593000000013,2.0,2993.5597,6.0,19.0,199.0,4.0,1.0,1.6,0.3,Time
,,S01,026578,1,男,19,anonymized,Serial_Dependence_U,2023.2.3,Win32,59.523809523799216,,,,,,2993.560100000002,56.0,6.0,2993.5602,56.0,,,,2997.5542,2998.0532,2997.0407,2997.5540000000005,2994.5740000000005,2997.040600000002,2998.053300000001,2998.541400000003,2998.5415000000003,3002.5591000000018,1302.0,3002.5592,2.0,3002.559800000002,6.0,20.0,200.0,23.0,1.0,1.4,0.3,Time
,,S01,026578,1,男,19,anonymized,Serial_Dependence_U,2023.2.3,Win32,59.523809523799216,,,,,,3002.5599000000025,105.0,6.0,3002.5600000000004,105.0,,,,3006.3252,3006.8197,3005.8084000000026,3006.3252,3003.5564000000027,3005.808300000001,3006.8197,3007.3205000000003,3007.320600000002,3009.3587,1448.0,3009.3587,4.0,3009.359100000002,6.0,21.0,201.0,27.0,1.0,1.2,0.7,Time
,,S01,026578,1,男,19,anonymized,Serial_Dependence_U,2023.2.3,Win32,59.523809523799216,,,,,,3009.3595000000005,157.0,6.0,3009.359600000002,157.0,,,,3013.508100000002,3014.003300000001,3012.991600000002,3013.508100000002,3010.356400000003,3012.9915000000005,3014.003400000003,3014.5076000000017,3014.5076000000017,3016.276100000002,1383.0,3016.276100000002,2.0,3016.2764000000025,6.0,22.0,202.0,19.0,1.0,1.6,0.7,Time
,,S01,026578,1,男,19,anonymized,Serial_Dependence_U,2023.2.3,Win32,59.523809523799216,,,,,,3016.276800000001,329.0,6.0,3016.276800000001,329.0,,,,3019.875400000002,3020.3705000000004,3019.357800000001,3019.875300000001,3017.2867,3019.3577,3020.370600000002,3020.8724000000025,3020.8724000000025,3022.8255000000004,1652.0,3022.825600000002,5.0,3022.826100000002,6.0,23.0,203.0,1.0,1.0,1.0,0.3,Time
,,S01,026578,1,男,19,anonymized,Serial_Dependence_U,2023.2.3,Win32,59.523809523799216,,,,,,3022.826300000001,314.0,6.0,3022.826300000001,314.0,,,,3026.7879000000025,3027.2855000000004,3026.2742,3026.7877,3023.8415000000005,3026.2740000000003,3027.285600000002,3027.785800000001,3027.7860000000005,3029.4691999999995,1497.0,3029.4694000000027,4.0,3029.4700000000003,6.0,24.0,204.0,28.0,1.0,1.4,0.7,Time
,,S01,026578,1,男,19,anonymized,Serial_Dependence_U,2023.2.3,Win32,59.523809523799216,,,,,,3029.4707,250.0,6.0,3029.4709000000025,250.0,,,,3033.036300000001,3033.5355000000004,3032.5240000000003,3033.0359000000026,3030.4860000000003,3032.5238000000013,3033.535600000002,3034.0356999999995,3034.0359000000026,3035.4415000000004,1150.0,3035.441600000002,4.0,3035.4420000000005,6.0,25.0,205.0,6.0,1.0,1.0,0.7,Time
,,S01,026578,1,男,19,anonymized,Serial_Dependence_U,2023.2.3,Win32,59.523809523799216,,,,,,3035.4421999999995,25.0,6.0,3035.4421999999995,25.0,,,,3039.0226999999995,3039.5184000000027,3038.5037,3039.0226999999995,3036.4404000000027,3038.503400000003,3039.5185000000006,3040.0225000000005,3040.0225000000005,3041.9576999999995,1647.0,3041.957800000001,5.0,3041.9580000000005,6.0,26.0,206.0,21.0,1.0,1.0,0.3,Time
,,S01,026578,1,男,19,anonymized,Serial_Dependence_U,2023.2.3,Win32,59.523809523799216,,,,,,3041.9582,143.0,6.0,3041.958300000001,143.0,,,,3045.7191999999995,3046.218100000002,3045.2075000000004,3045.7190000000005,3042.973600000002,3045.2074000000025,3046.2182,3046.7184000000025,3046.7185000000004,3048.3242,1385.0,3048.3242,4.0,3048.3245000000006,6.0,27.0,207.0,17.0,1.0,1.2,0.7,Time
,,S01,026578,1,男,19,anonymized,Serial_Dependence_U,2023.2.3,Win32,59.523809523799216,,,,,,3048.3250000000003,313.0,6.0,3048.325100000002,313.0,,,,3051.685800000001,3052.1849000000025,3051.173400000003,3051.6855000000005,3049.3401000000017,3051.1733000000013,3052.1850000000004,3052.6852,3052.685300000001,3054.5013000000013,1533.0,3054.501400000003,5.0,3054.502100000002,6.0,28.0,208.0,25.0,1.0,0.8,0.7,Time
,,S01,026578,1,男,19,anonymized,Serial_Dependence_U,2023.2.3,Win32,59.523809523799216,,,,,,3054.5030000000006,160.0,6.0,3054.503300000001,160.0,,,,3058.2909000000027,3058.7845,3057.790300000001,3058.2909000000027,3055.5218000000013,3057.7901999999995,3058.7847,3059.2845,3059.284600000002,3060.8729000000026,1366.0,3060.8730000000005,4.0,3060.8731999999995,6.0,29.0,209.0,2.0,1.0,1.2,0.3,Time
,,S01,026578,1,男,19,anonymized,Serial_Dependence_U,2023.2.3,Win32,59.523809523799216,,,,,,3060.8735000000006,314.0,7.0,3394.8716000000018,314.0,s,333.971,,3398.655400000003,3399.1582,3398.142600000002,3398.655,3395.875800000001,3398.1425000000004,3399.1582,3399.6537,3399.6539000000025,3401.3763000000013,1272.0,3401.3765000000003,4.0,3401.3767,7.0,0.0,210.0,2.0,1.0,1.2,0.3,Time
,,S01,026578,1,男,19,anonymized,Serial_Dependence_U,2023.2.3,Win32,59.523809523799216,,,,,,3401.3769000000025,336.0,7.0,3401.3776999999995,336.0,,,,3404.7711000000018,3405.2704000000026,3404.258800000001,3404.7710000000006,3402.3877,3404.2587,3405.2705000000005,3405.7699000000025,3405.7700000000004,3407.225900000002,1167.0,3407.226000000001,5.0,3407.2262,7.0,1.0,211.0,10.0,1.0,0.8,0.3,Time
,,S01,026578,1,男,19,anonymized,Serial_Dependence_U,2023.2.3,Win32,59.523809523799216,,,,,,3407.226900000003,62.0,7.0,3407.2270000000003,62.0,,,,3411.406800000001,3411.903,3410.8927,3411.406800000001,3408.2255000000005,3410.8927,3411.903100000002,3412.404500000001,3412.404500000001,3460.4235000000003,1678.0,3460.4237,3.0,3460.4241999999995,7.0,2.0,212.0,24.0,1.0,1.6,0.3,Time
,,S01,026578,1,男,19,anonymized,Serial_Dependence_U,2023.2.3,Win32,59.523809523799216,,,,,,3460.424300000001,202.0,7.0,3460.424300000001,202.0,,,,3464.5899000000027,3465.0847,3464.0859000000028,3464.5899000000027,3461.423600000002,3464.0856000000017,3465.084800000001,3465.585100000002,3465.585300000001,3467.758100000002,1865.0,3467.7582,4.0,3467.7584000000024,7.0,3.0,213.0,4.0,1.0,1.6,0.3,Time
,,S01,026578,1,男,19,anonymized,Serial_Dependence_U,2023.2.3,Win32,59.523809523799216,,,,,,3467.758600000002,150.0,7.0,3467.758600000002,150.0,,,,3471.339600000002,3471.8344000000025,3470.8230000000003,3471.339600000002,3468.7532,3470.8230000000003,3471.8345000000004,3472.3371999999995,3472.3371999999995,3473.7402,1235.0,3473.7403000000013,4.0,3473.740800000001,7.0,4.0,214.0,21.0,1.0,1.0,0.3,Time
,,S01,026578,1,男,19,anonymized,Serial_Dependence_U,2023.2.3,Win32,59.523809523799216,,,,,,3473.741100000002,90.0,7.0,3473.7411999999995,90.0,,,,3477.106400000003,3477.6005000000005,3476.589600000002,3477.1063000000013,3474.7515000000003,3476.5895000000005,3477.600600000002,3478.100300000001,3478.1004000000025,3510.866800000001,1383.0,3510.8669000000027,5.0,3510.8675000000003,7.0,5.0,215.0,25.0,1.0,0.8,0.7,Time
,,S01,026578,1,男,19,anonymized,Serial_Dependence_U,2023.2.3,Win32,59.523809523799216,,,,,,3510.8682,202.0,7.0,3510.8686999999995,202.0,,,,3514.420900000003,3514.915800000001,3513.917100000002,3514.420900000003,3511.8840000000005,3513.9169000000024,3514.9159000000027,3515.4162,3515.416400000003,3516.972,1232.0,3516.972,4.0,3516.9725000000003,7.0,6.0,216.0,26.0,1.0,1.0,0.7,Time
,,S01,026578,1,男,19,anonymized,Serial_Dependence_U,2023.2.3,Win32,59.523809523799216,,,,,,3516.972800000002,215.0,7.0,3516.9729000000025,215.0,,,,3520.3669000000027,3520.866300000001,3519.8542,3520.3667,3517.9835000000003,3519.8542,3520.8665000000005,3521.3660000000004,3521.366100000002,3523.271300000001,1582.0,3523.271300000001,5.0,3523.271600000002,7.0,7.0,217.0,20.0,1.0,0.8,0.3,Time
,,S01,026578,1,男,19,anonymized,Serial_Dependence_U,2023.2.3,Win32,59.523809523799216,,,,,,3523.272100000002,272.0,7.0,3523.2722,272.0,,,,3527.252300000001,3527.7485000000006,3526.7380000000003,3527.252300000001,3524.2718000000013,3526.7380000000003,3527.7486000000017,3528.248800000001,3528.2490000000003,3593.935800000001,1133.0,3593.9359000000027,2.0,3593.936400000003,7.0,8.0,218.0,23.0,1.0,1.4,0.3,Time
,,S01,026578,1,男,19,anonymized,Serial_Dependence_U,2023.2.3,Win32,59.523809523799216,,,,,,3593.9365000000003,317.0,7.0,3593.936600000002,317.0,,,,3597.885100000002,3598.379300000001,3597.384300000001,3597.885,3594.935100000002,3597.3841999999995,3598.3795000000005,3598.8794000000025,3598.8795000000005,3600.685300000001,1584.0,3600.6854000000026,4.0,3600.685600000002,7.0,9.0,219.0,18.0,1.0,1.4,0.7,Time
,,S01,026578,1,男,19,anonymized,Serial_Dependence_U,2023.2.3,Win32,59.523809523799216,,,,,,3600.6862,95.0,7.0,3600.6862,95.0,,,,3604.847,3605.3459000000025,3604.3344000000025,3604.8467,3601.7010000000005,3604.334300000001,3605.346000000001,3605.8455,3605.8457,3607.718100000002,1600.0,3607.718300000002,3.0,3607.7185,7.0,10.0,220.0,9.0,1.0,1.6,0.7,Time
,,S01,026578,1,男,19,anonymized,Serial_Dependence_U,2023.2.3,Win32,59.523809523799216,,,,,,3607.718600000002,145.0,7.0,3607.7187,145.0,,,,3611.6841000000018,3612.1832,3611.1674000000025,3611.684,3608.717900000003,3611.167300000001,3612.1832,3612.679000000001,3612.6792,3614.3787,1466.0,3614.3789000000015,3.0,3614.379800000001,7.0,11.0,221.0,8.0,1.0,1.4,0.7,Time
,,S01,026578,1,男,19,anonymized,Serial_Dependence_U,2023.2.3,Win32,59.523809523799216,,,,,,3614.380600000002,180.0,7.0,3614.380900000003,180.0,,,,3618.183800000001,3618.6796000000018,3617.6680000000006,3618.183800000001,3615.396600000002,3617.667800000001,3618.6797,3619.1787,3619.1789000000026,3620.934300000001,1495.0,3620.934300000001,4.0,3620.9347,7.0,12.0,222.0,12.0,1.0,1.2,0.3,Time
,,S01,026578,1,男,19,anonymized,Serial_Dependence_U,2023.2.3,Win32,59.523809523799216,,,,,,3620.934800000002,161.0,7.0,3620.934800000002,161.0,,,,3624.699100000002,3625.1952,3624.1839000000023,3624.699100000002,3621.933600000002,3624.183800000001,3625.195400000003,3625.6950000000006,3625.6951000000017,3627.2005,1383.0,3627.200600000002,4.0,3627.2007,7.0,13.0,223.0,7.0,1.0,1.2,0.7,Time
,,S01,026578,1,男,19,anonymized,Serial_Dependence_U,2023.2.3,Win32,59.523809523799216,,,,,,3627.201300000001,210.0,7.0,3627.201300000001,210.0,,,,3630.566300000001,3631.062300000001,3630.0500000000006,3630.566300000001,3628.212,3630.0500000000006,3631.062600000002,3631.566300000001,3631.5664000000015,3670.130000000001,1432.0,3670.130000000001,5.0,3670.130100000002,7.0,14.0,224.0,5.0,1.0,0.8,0.7,Time
,,S01,026578,1,男,19,anonymized,Serial_Dependence_U,2023.2.3,Win32,59.523809523799216,,,,,,3670.1304000000023,97.0,7.0,3670.1305,97.0,,,,3673.713800000002,3674.2102,3673.210800000001,3673.7137,3671.144,3673.2105000000006,3674.210300000001,3674.7099000000026,3674.710000000001,3675.9992,1117.0,3675.9992,4.0,3675.9995,7.0,15.0,225.0,11.0,1.0,1.0,0.3,Time
,,S01,026578,1,男,19,anonymized,Serial_Dependence_U,2023.2.3,Win32,59.523809523799216,,,,,,3676.000000000001,344.0,7.0,3676.000000000001,344.0,,,,3679.9602,3680.4592,3679.448800000001,3679.960000000001,3677.0134000000025,3679.4487,3680.459300000001,3680.9594000000025,3680.9595,3682.8985,1684.0,3682.8985,4.0,3682.898800000001,7.0,16.0,226.0,28.0,1.0,1.4,0.7,Time
,,S01,026578,1,男,19,anonymized,Serial_Dependence_U,2023.2.3,Win32,59.523809523799216,,,,,,3682.899600000002,37.0,7.0,3682.8997,37.0,,,,3686.66,3687.159000000001,3686.147900000002,3686.659800000001,3683.9127,3686.147900000002,3687.159100000002,3687.658800000001,3687.659000000001,3689.264800000001,1397.0,3689.264900000003,4.0,3689.2652,7.0,17.0,227.0,17.0,1.0,1.2,0.7,Time
,,S01,026578,1,男,19,anonymized,Serial_Dependence_U,2023.2.3,Win32,59.523809523799216,,,,,,3689.2657,84.0,7.0,3689.2657,84.0,,,,3692.66,3693.163000000001,3692.147600000002,3692.659800000001,3690.281300000001,3692.147500000001,3693.163000000001,3693.658600000002,3693.6587,3695.0649000000026,1295.0,3695.0649000000026,5.0,3695.065300000001,7.0,18.0,228.0,0.0,1.0,0.8,0.3,Time
,,S01,026578,1,男,19,anonymized,Serial_Dependence_U,2023.2.3,Win32,59.523809523799216,,,,,,3695.0657,136.0,7.0,3695.0657,136.0,,,,3699.059800000002,3699.558600000002,3698.5479000000023,3699.059600000002,3696.080300000001,3698.547800000001,3699.558600000002,3700.046100000002,3700.046100000002,3701.764300000001,1517.0,3701.7644000000023,4.0,3701.7647,7.0,19.0,229.0,3.0,1.0,1.4,0.3,Time
,,S01,026578,1,男,19,anonymized,Serial_Dependence_U,2023.2.3,Win32,59.523809523799216,,,,,,3701.764900000003,247.0,7.0,3701.765,247.0,,,,3705.3292,3705.829400000003,3704.8134000000023,3705.3292,3702.7801000000018,3704.8134000000023,3705.829400000003,3706.324800000001,3706.324900000003,3708.124600000002,1539.0,3708.124800000001,5.0,3708.1252,7.0,20.0,230.0,16.0,1.0,1.0,0.7,Time
,,S01,026578,1,男,19,anonymized,Serial_Dependence_U,2023.2.3,Win32,59.523809523799216,,,,,,3708.1259000000023,120.0,7.0,3708.1261000000018,120.0,,,,3712.325300000001,3712.8254000000015,3711.811800000001,3712.325100000002,3709.1424000000025,3711.8117,3712.8255,3713.324100000002,3713.3242,3715.3314000000023,1744.0,3715.331600000002,4.0,3715.3317,7.0,21.0,231.0,14.0,1.0,1.6,0.3,Time
,,S01,026578,1,男,19,anonymized,Serial_Dependence_U,2023.2.3,Win32,59.523809523799216,,,,,,3715.331900000003,164.0,7.0,3715.332,164.0,,,,3719.491600000002,3719.991100000002,3718.979600000002,3719.491300000001,3716.328,3718.9795,3719.9912,3720.4944000000023,3720.4944000000023,3722.4304000000025,1702.0,3722.4305,4.0,3722.4307,7.0,22.0,232.0,19.0,1.0,1.6,0.7,Time
,,S01,026578,1,男,19,anonymized,Serial_Dependence_U,2023.2.3,Win32,59.523809523799216,,,,,,3722.4309000000026,256.0,7.0,3722.4309000000026,256.0,,,,3725.991800000001,3726.495,3725.475600000002,3725.991600000002,3723.442400000002,3725.4752,3726.495,3726.991100000002,3726.991300000001,3729.013900000002,1717.0,3729.0140000000006,5.0,3729.0142,7.0,23.0,233.0,6.0,1.0,1.0,0.7,Time
,,S01,026578,1,男,19,anonymized,Serial_Dependence_U,2023.2.3,Win32,59.523809523799216,,,,,,3729.0144000000023,184.0,7.0,3729.0145,184.0,,,,3732.994300000001,3733.491100000002,3732.479,3732.994300000001,3730.0127,3732.479,3733.491300000001,3733.994900000003,3733.994900000003,3735.946500000001,1733.0,3735.946500000001,4.0,3735.946800000001,7.0,24.0,234.0,13.0,1.0,1.4,0.3,Time
,,S01,026578,1,男,19,anonymized,Serial_Dependence_U,2023.2.3,Win32,59.523809523799216,,,,,,3735.946900000002,173.0,7.0,3735.947000000001,173.0,,,,3739.307600000002,3739.806400000002,3738.7957,3739.307400000003,3736.9587,3738.7957,3739.806400000002,3740.3069000000023,3740.307100000002,3742.612900000003,1998.0,3742.612900000003,5.0,3742.6132,7.0,25.0,235.0,15.0,1.0,0.8,0.7,Time
,,S01,026578,1,男,19,anonymized,Serial_Dependence_U,2023.2.3,Win32,59.523809523799216,,,,,,3742.6134000000025,341.0,7.0,3742.6135,341.0,,,,3746.7744000000025,3747.273300000001,3746.2621000000017,3746.774300000001,3743.628600000002,3746.2620000000006,3747.2734000000023,3747.7734000000023,3747.7735,3749.9954000000025,1949.0,3749.9955,4.0,3749.995800000001,7.0,26.0,236.0,29.0,1.0,1.6,0.7,Time
,,S01,026578,1,男,19,anonymized,Serial_Dependence_U,2023.2.3,Win32,59.523809523799216,,,,,,3749.9959000000026,190.0,7.0,3749.996000000001,190.0,,,,3753.7455,3754.2397,3753.227100000002,3753.7454000000025,3750.994800000001,3753.227,3754.239800000001,3754.742600000002,3754.742600000002,3756.379600000002,1409.0,3756.3797,4.0,3756.379900000002,7.0,27.0,237.0,27.0,1.0,1.2,0.7,Time
,,S01,026578,1,男,19,anonymized,Serial_Dependence_U,2023.2.3,Win32,59.523809523799216,,,,,,3756.380100000002,55.0,7.0,3756.3802,55.0,,,,3759.973500000001,3760.473,3759.457300000001,3759.973300000001,3757.3935000000006,3759.457,3760.4732,3760.9729000000025,3760.973100000002,3762.811600000002,1602.0,3762.811600000002,5.0,3762.812,7.0,28.0,238.0,1.0,1.0,1.0,0.3,Time
,,S01,026578,1,男,19,anonymized,Serial_Dependence_U,2023.2.3,Win32,59.523809523799216,,,,,,3762.812500000001,237.0,7.0,3762.812500000001,237.0,,,,3766.589800000001,3767.089100000002,3766.077100000002,3766.589600000002,3763.811300000001,3766.077,3767.0892,3767.5889000000025,3767.589,3769.628400000003,1850.0,3769.628400000003,5.0,3769.628600000002,7.0,29.0,239.0,22.0,1.0,1.2,0.3,Time
,,S01,026578,1,男,19,anonymized,Serial_Dependence_U,2023.2.3,Win32,59.523809523799216,,,,,,3769.6292,45.0,8.0,3771.988800000001,45.0,s,2.33779999999706,,3775.5437,3776.0387,3775.027900000003,3775.5437,3772.9897,3775.027800000001,3776.038800000001,3776.539,3776.539100000002,3778.055800000001,1258.0,3778.0559000000026,4.0,3778.056400000002,8.0,0.0,240.0,6.0,1.0,1.0,0.7,Time
,,S01,026578,1,男,19,anonymized,Serial_Dependence_U,2023.2.3,Win32,59.523809523799216,,,,,,3778.0572,37.0,8.0,3778.058600000002,37.0,,,,3781.644300000001,3782.138300000001,3781.141100000002,3781.6442,3779.077400000003,3781.140800000001,3782.138500000001,3782.626300000001,3782.626300000001,3784.444100000002,1544.0,3784.444100000002,5.0,3784.444500000001,8.0,1.0,241.0,11.0,1.0,1.0,0.3,Time
,,S01,026578,1,男,19,anonymized,Serial_Dependence_U,2023.2.3,Win32,59.523809523799216,,,,,,3784.4450000000006,316.0,8.0,3784.4450000000006,316.0,,,,3788.624100000002,3789.1214000000023,3788.105800000001,3788.623800000001,3785.4438000000014,3788.1055000000006,3789.1216000000018,3789.609100000002,3789.609100000002,3791.628400000003,1815.0,3791.6285,4.0,3791.6287,8.0,2.0,242.0,14.0,1.0,1.6,0.3,Time
,,S01,026578,1,男,19,anonymized,Serial_Dependence_U,2023.2.3,Win32,59.523809523799216,,,,,,3791.6292,268.0,8.0,3791.6292,268.0,,,,3795.6225,3796.1212,3795.109600000002,3795.6224000000025,3792.643000000001,3795.109600000002,3796.1214000000023,3796.6229000000026,3796.623000000001,3798.577100000002,1800.0,3798.577100000002,4.0,3798.5772,8.0,3.0,243.0,13.0,1.0,1.4,0.3,Time
,,S01,026578,1,男,19,anonymized,Serial_Dependence_U,2023.2.3,Win32,59.523809523799216,,,,,,3798.5779000000025,100.0,8.0,3798.5779000000025,100.0,,,,3802.772600000002,3803.2707,3802.2605,3802.772300000001,3799.592100000002,3802.260400000003,3803.270800000001,3803.770800000001,3803.7710000000006,3805.827400000003,1802.0,3805.827600000002,4.0,3805.8279000000025,8.0,4.0,244.0,24.0,1.0,1.6,0.3,Time
,,S01,026578,1,男,19,anonymized,Serial_Dependence_U,2023.2.3,Win32,59.523809523799216,,,,,,3805.828,235.0,8.0,3805.8282,235.0,,,,3809.6068000000014,3810.1087,3809.089,3809.6065,3806.8252,3809.0887,3810.1087,3810.608400000003,3810.608400000003,3812.470800000001,1514.0,3812.471100000002,4.0,3812.4717,8.0,5.0,245.0,2.0,1.0,1.2,0.3,Time
,,S01,026578,1,男,19,anonymized,Serial_Dependence_U,2023.2.3,Win32,59.523809523799216,,,,,,3812.472600000002,166.0,8.0,3812.472800000002,166.0,,,,3815.838300000001,3816.337100000002,3815.3237,3815.838,3813.4889000000026,3815.3237,3816.337300000001,3816.8374000000026,3816.837600000002,3819.1104000000023,1613.0,3819.1104000000023,5.0,3819.110600000002,8.0,6.0,246.0,25.0,1.0,0.8,0.7,Time
,,S01,026578,1,男,19,anonymized,Serial_Dependence_U,2023.2.3,Win32,59.523809523799216,,,,,,3819.111100000002,21.0,8.0,3819.111300000001,21.0,,,,3823.0544000000023,3823.5546000000018,3822.5422,3823.054000000001,3820.109100000002,3822.5422,3823.5547,3824.059,3824.059,3826.1767,2000.0,3826.176800000001,5.0,3826.176900000002,8.0,7.0,247.0,18.0,1.0,1.4,0.7,Time
,,S01,026578,1,男,19,anonymized,Serial_Dependence_U,2023.2.3,Win32,59.523809523799216,,,,,,3826.1771000000017,100.0,8.0,3826.1771000000017,100.0,,,,3829.5377,3830.036800000001,3829.025300000001,3829.5374000000015,3827.175400000003,3829.025300000001,3830.037,3830.539600000002,3830.539600000002,3832.303300000001,1336.0,3832.3035,5.0,3832.3042,8.0,8.0,248.0,15.0,1.0,0.8,0.7,Time
,,S01,026578,1,男,19,anonymized,Serial_Dependence_U,2023.2.3,Win32,59.523809523799216,,,,,,3832.3052,46.0,8.0,3832.3055,46.0,,,,3836.2872,3836.7864000000022,3835.7752,3836.287,3833.3077,3835.7752,3836.7865000000006,3837.2865000000006,3837.2866000000017,3839.292900000002,1819.0,3839.2931000000017,4.0,3839.293300000001,8.0,9.0,249.0,3.0,1.0,1.4,0.3,Time
,,S01,026578,1,男,19,anonymized,Serial_Dependence_U,2023.2.3,Win32,59.523809523799216,,,,,,3839.2935,247.0,8.0,3839.293600000002,247.0,,,,3843.439800000001,3843.935900000002,3842.924600000002,3843.4397,3840.2912,3842.924600000002,3843.9360000000006,3844.4357,3844.435900000002,3846.424800000001,1697.0,3846.4249000000023,4.0,3846.4250000000006,8.0,10.0,250.0,9.0,1.0,1.6,0.7,Time
,,S01,026578,1,男,19,anonymized,Serial_Dependence_U,2023.2.3,Win32,59.523809523799216,,,,,,3846.425600000002,351.0,8.0,3846.4257,351.0,,,,3850.3870000000006,3850.8859000000025,3849.874300000001,3850.3867,3847.440900000003,3849.8742,3850.886100000002,3851.3742,3851.3742,3853.2917,1743.0,3853.291800000001,4.0,3853.2922,8.0,11.0,251.0,8.0,1.0,1.4,0.7,Time
,,S01,026578,1,男,19,anonymized,Serial_Dependence_U,2023.2.3,Win32,59.523809523799216,,,,,,3853.292500000001,21.0,8.0,3853.2927,21.0,,,,3857.2369000000026,3857.7352,3856.7239000000022,3857.236600000002,3854.2895,3856.723800000001,3857.735300000001,3858.2354000000023,3858.235600000002,3860.042100000002,1649.0,3860.042100000002,4.0,3860.042300000001,8.0,12.0,252.0,28.0,1.0,1.4,0.7,Time
