Scale_setup.started,Scale_setup.stopped,participant,session,sex,age,date,expName,psychopyVersion,OS,frameRate,screen_scale_keys.started,screen_scale_keys.stopped,X Scale,Y Scale,rectangel_keys.started,rectangel_keys.stopped,Intro.started,Intro.stopped,key_resp_2.keys,key_resp_2.rt,key_resp_2.duration,block.started,Block_id,block.stopped,Block_resp_2.keys,Block_resp_2.rt,Block_resp_2.duration,ITI.started,ITI.stopped,Mask_2.started,Mask_2.stopped,M2.started,direction,M2.stopped,Cue.started,Cue.stopped,Response.started,Response.stopped,keyDuration,Feedback_Time.started,FeedbackID_T,Feedback_Time.stopped,trials.thisRepN,trials.thisTrialN,trials.thisN,trials.thisIndex,trials.ran,TimeDur,Coherence1,TrialType
0.0005,0.0011,S02,1,Male,33,anonymized,Serial_Dependence_U,2023.2.3,Win32,59.52380952,,,,,,,,,,,,,,,,,,,,,,,,,,,,,,,,,,,,,,,,
,,S02,1,Male,33,anonymized,Serial_Dependence_U,2023.2.3,Win32,59.52380952,0.0053,335.6423,0.0679,0.0685,335.6427,347.896,347.8967,422.1338,space,74.1309,,,,,,,,,,,,,,,,,,,,,,,,,,,,,,
,,S02,1,Male,33,anonymized,Serial_Dependence_U,2023.2.3,Win32,59.52380952,,,,,,,,,,,,422.1605,0.0,426.0455,s,3.8209,0.0009,428.8023,429.3072,428.2774,428.8021,427.0623,218.0,428.2769,429.3077,429.7977,429.7984,435.889,9999.0,435.8904,0.0,436.926,0.0,0.0,0.0,2.0,1.0,1.2,0.3,Time
,,S02,1,Male,33,anonymized,Serial_Dependence_U,2023.2.3,Win32,59.52380952,,,,,,,,,,,,436.9281,0.0,436.9331,,,,439.4921,439.9876,438.984,439.4919,437.945,130.0,438.9837,439.9877,440.4401,440.4403,446.4913,9999.0,446.4917,0.0,447.4843,0.0,1.0,1.0,11.0,1.0,1.0,0.3,Time
,,S02,1,Male,33,anonymized,Serial_Dependence_U,2023.2.3,Win32,59.52380952,,,,,,,,,,,,447.4853,0.0,447.4859,,,,450.1117,450.6166,449.5717,450.1115,448.4884,169.0,449.5715,450.6166,451.1112,451.1113,457.1156,9999.0,457.116,0.0,458.1467,0.0,2.0,2.0,16.0,1.0,1.0,0.7,Time
,,S02,1,Male,33,anonymized,Serial_Dependence_U,2023.2.3,Win32,59.52380952,,,,,,,,,,,,458.1479,0.0,458.1482,,,,461.3352,461.8111,460.8128,461.3351,459.1546,173.0,460.8126,461.8113,462.2806,462.2808,468.2872,9999.0,468.2881,0.0,469.2508,0.0,3.0,3.0,4.0,1.0,1.6,0.3,Time
,,S02,1,Male,33,anonymized,Serial_Dependence_U,2023.2.3,Win32,59.52380952,,,,,,,,,,,,469.253,0.0,469.2537,,,,471.5387,472.0183,471.0335,471.5378,470.2163,330.0,471.0333,472.0183,472.5198,472.5199,473.055,504.1999999,473.0555,1.0,474.031,0.0,4.0,4.0,20.0,1.0,0.8,0.3,Time
,,S02,1,Male,33,anonymized,Serial_Dependence_U,2023.2.3,Win32,59.52380952,,,,,,,,,,,,474.0326,0.0,474.0331,,,,476.8223,477.3211,476.2888,476.8222,475.0756,267.0,476.2886,477.3213,477.7603,477.7605,481.5444,2363.6,481.5492,5.0,482.5112,0.0,5.0,5.0,17.0,1.0,1.2,0.7,Time
,,S02,1,Male,33,anonymized,Serial_Dependence_U,2023.2.3,Win32,59.52380952,,,,,,,,,,,,482.5144,0.0,482.515,,,,485.1261,485.5895,484.5861,485.1258,483.5089,52.0,484.5856,485.5901,486.0986,486.0986,487.3119,1121.5,487.3133,4.0,488.0889,0.0,6.0,6.0,6.0,1.0,1.0,0.7,Time
,,S02,1,Male,33,anonymized,Serial_Dependence_U,2023.2.3,Win32,59.52380952,,,,,,,,,,,,488.0915,0.0,488.0935,,,,490.6934,491.1564,490.085,490.6925,489.1022,235.0,490.0838,491.1564,491.6426,491.6427,492.4553,728.6,492.4645,2.0,493.4528,0.0,7.0,7.0,0.0,1.0,0.8,0.3,Time
,,S02,1,Male,33,anonymized,Serial_Dependence_U,2023.2.3,Win32,59.52380952,,,,,,,,,,,,493.4543,0.0,493.4559,,,,496.216,496.7052,495.5688,496.2152,494.7069,106.0,495.5685,496.7053,497.1961,497.1963,503.3197,9999.0,503.3207,0.0,504.341,0.0,8.0,8.0,25.0,1.0,0.8,0.7,Time
,,S02,1,Male,33,anonymized,Serial_Dependence_U,2023.2.3,Win32,59.52380952,,,,,,,,,,,,504.3421,0.0,504.3427,,,,507.572,508.0421,507.0404,507.5718,505.4272,291.0,507.0402,508.0421,508.5573,508.5574,512.2865,3359.9,512.2901,5.0,513.287,0.0,9.0,9.0,19.0,1.0,1.6,0.7,Time
,,S02,1,Male,33,anonymized,Serial_Dependence_U,2023.2.3,Win32,59.52380952,,,,,,,,,,,,513.288,0.0,513.2888,,,,516.0565,516.5314,515.5268,516.0564,514.2939,268.0,515.5266,516.5314,516.9893,516.9894,523.0161,9999.0,523.0165,0.0,524.0147,0.0,10.0,10.0,22.0,1.0,1.2,0.3,Time
,,S02,1,Male,33,anonymized,Serial_Dependence_U,2023.2.3,Win32,59.52380952,,,,,,,,,,,,524.0164,0.0,524.0174,,,,526.8513,527.3195,526.3412,526.851,524.9814,146.0,526.3409,527.3197,527.8145,527.8146,533.8518,9999.0,533.8524,0.0,534.837,0.0,11.0,11.0,7.0,1.0,1.2,0.7,Time
,,S02,1,Male,33,anonymized,Serial_Dependence_U,2023.2.3,Win32,59.52380952,,,,,,,,,,,,534.8388,0.0,534.8398,,,,537.2325,537.709,536.6901,537.2323,535.8228,27.0,536.6899,537.7091,538.2168,538.2169,541.6579,2870.3,541.6588,5.0,542.6604,0.0,12.0,12.0,10.0,1.0,0.8,0.3,Time
,,S02,1,Male,33,anonymized,Serial_Dependence_U,2023.2.3,Win32,59.52380952,,,,,,,,,,,,542.6632,0.0,542.6638,,,,545.88,546.358,545.3745,545.8798,543.7128,355.0,545.3744,546.358,546.8746,546.8748,547.7264,794.0999999,547.7275,1.0,548.7579,0.0,13.0,13.0,24.0,1.0,1.6,0.3,Time
,,S02,1,Male,33,anonymized,Serial_Dependence_U,2023.2.3,Win32,59.52380952,,,,,,,,,,,,548.76,0.0,548.7611,,,,551.7434,552.2069,551.2333,551.7432,549.8196,66.0,551.233,552.2069,552.691,552.6911,554.7433,625.5,554.7444,1.0,555.7246,0.0,14.0,14.0,3.0,1.0,1.4,0.3,Time
,,S02,1,Male,33,anonymized,Serial_Dependence_U,2023.2.3,Win32,59.52380952,,,,,,,,,,,,555.7256,0.0,555.7259,,,,558.4485,558.9541,557.9381,558.4483,556.7206,355.0,557.9374,558.9542,559.4595,559.4597,562.5774,2579.5,562.5781,5.0,563.5902,0.0,15.0,15.0,27.0,1.0,1.2,0.7,Time
,,S02,1,Male,33,anonymized,Serial_Dependence_U,2023.2.3,Win32,59.52380952,,,,,,,,,,,,563.5928,0.0,563.5939,,,,566.5847,567.0495,566.0463,566.5844,564.6001,201.0,566.0462,567.0496,567.5544,567.5544,567.9082,293.6,567.9096,1.0,568.9108,0.0,16.0,16.0,18.0,1.0,1.4,0.7,Time
,,S02,1,Male,33,anonymized,Serial_Dependence_U,2023.2.3,Win32,59.52380952,,,,,,,,,,,,568.9121,0.0,568.9128,,,,571.4989,571.9789,570.9354,571.4988,569.8909,137.0,570.9353,571.979,572.48,572.48,573.4162,871.1999999,573.4167,2.0,574.4142,0.0,17.0,17.0,26.0,1.0,1.0,0.7,Time
,,S02,1,Male,33,anonymized,Serial_Dependence_U,2023.2.3,Win32,59.52380952,,,,,,,,,,,,574.4153,0.0,574.4161,,,,577.4881,577.9429,576.9578,577.4881,575.4843,30.0,576.9574,577.943,578.4412,578.4414,579.7039,1194.3,579.7046,2.0,580.7469,0.0,18.0,18.0,13.0,1.0,1.4,0.3,Time
,,S02,1,Male,33,anonymized,Serial_Dependence_U,2023.2.3,Win32,59.52380952,,,,,,,,,,,,580.7478,0.0,580.7483,,,,583.9782,584.4691,583.4706,583.9781,581.8322,259.0,583.4705,584.4692,584.9749,584.9751,585.5915,583.8000001,585.5925,1.0,586.5733,0.0,19.0,19.0,14.0,1.0,1.6,0.3,Time
,,S02,1,Male,33,anonymized,Serial_Dependence_U,2023.2.3,Win32,59.52380952,,,,,,,,,,,,586.5748,0.0,586.5763,,,,588.9235,589.436,588.4002,588.9233,587.5904,86.0,588.4,589.4362,589.9027,589.9028,594.0659,3287.0,594.0662,5.0,595.0112,0.0,20.0,20.0,5.0,1.0,0.8,0.7,Time
,,S02,1,Male,33,anonymized,Serial_Dependence_U,2023.2.3,Win32,59.52380952,,,,,,,,,,,,595.0121,0.0,595.0131,,,,597.6508,598.1523,597.0738,597.65,596.0451,118.0,597.0735,598.1523,598.5816,598.5817,601.3914,2158.2,601.3918,5.0,602.3786,0.0,21.0,21.0,1.0,1.0,1.0,0.3,Time
,,S02,1,Male,33,anonymized,Serial_Dependence_U,2023.2.3,Win32,59.52380952,,,,,,,,,,,,602.3798,0.0,602.3804,,,,605.3859,605.8799,604.8697,605.3857,603.4189,62.0,604.8694,605.8801,606.348,606.3501,610.2571,2820.5,610.2576,5.0,611.252,0.0,22.0,22.0,28.0,1.0,1.4,0.7,Time
,,S02,1,Male,33,anonymized,Serial_Dependence_U,2023.2.3,Win32,59.52380952,,,,,,,,,,,,611.2535,0.0,611.2541,,,,614.4528,614.9628,613.8955,614.4527,612.2643,121.0,613.8954,614.9629,615.422,615.4221,617.9491,1309.6,617.95,2.0,619.0046,0.0,23.0,23.0,9.0,1.0,1.6,0.7,Time
,,S02,1,Male,33,anonymized,Serial_Dependence_U,2023.2.3,Win32,59.52380952,,,,,,,,,,,,619.0058,0.0,619.0069,,,,621.6382,622.1274,621.1048,621.638,620.037,230.0,621.1032,622.1275,622.5865,622.5867,626.055,1780.2,626.0556,5.0,627.0692,0.0,24.0,24.0,21.0,1.0,1.0,0.3,Time
,,S02,1,Male,33,anonymized,Serial_Dependence_U,2023.2.3,Win32,59.52380952,,,,,,,,,,,,627.0707,0.0,627.0714,,,,630.2204,630.7064,629.7157,630.2202,628.1046,55.0,629.7155,630.7065,631.1979,631.198,637.1387,703.3000001,637.1394,1.0,638.1317,0.0,25.0,25.0,29.0,1.0,1.6,0.7,Time
,,S02,1,Male,33,anonymized,Serial_Dependence_U,2023.2.3,Win32,59.52380952,,,,,,,,,,,,638.1327,0.0,638.1334,,,,641.0901,641.5933,640.5707,641.0899,639.1636,174.0,640.5704,641.5933,642.0997,642.0997,644.3566,1133.8,644.3572,2.0,645.3649,0.0,26.0,26.0,8.0,1.0,1.4,0.7,Time
,,S02,1,Male,33,anonymized,Serial_Dependence_U,2023.2.3,Win32,59.52380952,,,,,,,,,,,,645.3657,0.0,645.3661,,,,648.1096,648.6106,647.5941,648.1094,646.3811,147.0,647.5939,648.6106,649.0505,649.0506,650.3161,792.3000001,650.317,1.0,651.3341,0.0,27.0,27.0,12.0,1.0,1.2,0.3,Time
,,S02,1,Male,33,anonymized,Serial_Dependence_U,2023.2.3,Win32,59.52380952,,,,,,,,,,,,651.335,0.0,651.3354,,,,654.3454,654.8563,653.7884,654.3452,652.347,247.0,653.7882,654.8564,655.3523,655.3523,661.4149,9999.0,661.4155,0.0,662.4024,0.0,28.0,28.0,23.0,1.0,1.4,0.3,Time
,,S02,1,Male,33,anonymized,Serial_Dependence_U,2023.2.3,Win32,59.52380952,,,,,,,,,,,,662.4037,0.0,662.4047,,,,664.8938,665.4037,664.3266,664.8937,663.4656,72.0,664.3265,665.4038,665.8711,665.8712,668.0469,839.9,668.0474,3.0,669.001,0.0,29.0,29.0,15.0,1.0,0.8,0.7,Time
,,S02,1,Male,33,anonymized,Serial_Dependence_U,2023.2.3,Win32,59.52380952,,,,,,,,,,,,669.0019,1.0,676.8864,s,7.8251,0.0006,679.5481,680.0689,678.9963,679.5479,677.9345,42.0,678.9961,680.069,680.5193,680.5194,681.7237,1169.8,681.7241,4.0,682.7602,1.0,0.0,30.0,26.0,1.0,1.0,0.7,Time
,,S02,1,Male,33,anonymized,Serial_Dependence_U,2023.2.3,Win32,59.52380952,,,,,,,,,,,,682.7611,1.0,682.7646,,,,685.1052,685.6129,684.5731,685.1046,683.7579,359.0,684.5729,685.613,686.1045,686.1047,687.6472,294.7,687.6477,1.0,688.6506,1.0,1.0,31.0,10.0,1.0,0.8,0.3,Time
,,S02,1,Male,33,anonymized,Serial_Dependence_U,2023.2.3,Win32,59.52380952,,,,,,,,,,,,688.6532,1.0,688.6537,,,,691.4009,691.882,690.8713,691.4007,689.6403,2.0,690.8712,691.8822,692.4104,692.4105,692.96,504.3,692.9622,1.0,693.9639,1.0,2.0,32.0,17.0,1.0,1.2,0.7,Time
,,S02,1,Male,33,anonymized,Serial_Dependence_U,2023.2.3,Win32,59.52380952,,,,,,,,,,,,693.9672,1.0,693.9678,,,,697.2122,697.7065,696.6528,697.212,695.0172,217.0,696.6526,697.7066,698.1837,698.1839,700.2216,1514.9,700.2219,2.0,701.1887,1.0,3.0,33.0,4.0,1.0,1.6,0.3,Time
,,S02,1,Male,33,anonymized,Serial_Dependence_U,2023.2.3,Win32,59.52380952,,,,,,,,,,,,701.1921,1.0,701.1927,,,,703.9266,704.4122,703.4079,703.9263,702.191,325.0,703.4077,704.4122,704.8762,704.8762,706.007,1088.1,706.0078,2.0,707.0384,1.0,4.0,34.0,2.0,1.0,1.2,0.3,Time
,,S02,1,Male,33,anonymized,Serial_Dependence_U,2023.2.3,Win32,59.52380952,,,,,,,,,,,,707.0397,1.0,707.0403,,,,710.2543,710.7263,709.6896,710.2541,708.0646,121.0,709.6894,710.7264,711.2325,711.2327,711.5916,324.0,711.592,1.0,712.5969,1.0,5.0,35.0,9.0,1.0,1.6,0.7,Time
,,S02,1,Male,33,anonymized,Serial_Dependence_U,2023.2.3,Win32,59.52380952,,,,,,,,,,,,712.5983,1.0,712.5989,,,,715.337,715.8221,714.7955,715.3365,713.5754,60.0,714.7953,715.8222,716.3224,716.3225,717.0911,710.1999999,717.0915,1.0,718.1072,1.0,6.0,36.0,27.0,1.0,1.2,0.7,Time
,,S02,1,Male,33,anonymized,Serial_Dependence_U,2023.2.3,Win32,59.52380952,,,,,,,,,,,,718.1087,1.0,718.1092,,,,721.3855,721.8546,720.8408,721.3853,719.224,153.0,720.8407,721.8546,722.3386,722.3387,722.5365,157.2,722.5371,1.0,723.5444,1.0,7.0,37.0,14.0,1.0,1.6,0.3,Time
,,S02,1,Male,33,anonymized,Serial_Dependence_U,2023.2.3,Win32,59.52380952,,,,,,,,,,,,723.5459,1.0,723.5471,,,,726.3679,726.8557,725.8579,726.3677,724.6108,30.0,725.8577,726.8558,727.3552,727.3552,728.2012,715.7,728.2017,1.0,729.2572,1.0,8.0,38.0,7.0,1.0,1.2,0.7,Time
,,S02,1,Male,33,anonymized,Serial_Dependence_U,2023.2.3,Win32,59.52380952,,,,,,,,,,,,729.2593,1.0,729.2604,,,,731.6462,732.1374,731.1214,731.646,730.3155,263.0,731.1213,732.1376,732.6212,732.6213,738.6499,9999.0,738.6505,0.0,739.6071,1.0,9.0,39.0,5.0,1.0,0.8,0.7,Time
,,S02,1,Male,33,anonymized,Serial_Dependence_U,2023.2.3,Win32,59.52380952,,,,,,,,,,,,739.6086,1.0,739.6093,,,,742.6628,743.1302,742.1367,742.6626,740.6695,281.0,742.1346,743.1303,743.624,743.6241,749.5651,567.8000001,749.566,1.0,750.5337,1.0,10.0,40.0,13.0,1.0,1.4,0.3,Time
,,S02,1,Male,33,anonymized,Serial_Dependence_U,2023.2.3,Win32,59.52380952,,,,,,,,,,,,750.5346,1.0,750.5351,,,,753.523,754.0263,753.0176,753.5228,751.5942,122.0,753.0174,754.0263,754.5207,754.5209,755.9609,1391.3,755.9613,3.0,756.9871,1.0,11.0,41.0,18.0,1.0,1.4,0.7,Time
,,S02,1,Male,33,anonymized,Serial_Dependence_U,2023.2.3,Win32,59.52380952,,,,,,,,,,,,756.9891,1.0,756.9909,,,,759.4023,759.8908,758.8794,759.4021,758.0063,154.0,758.8791,759.8908,760.4169,760.417,764.0293,2875.3,764.034,5.0,765.0445,1.0,12.0,42.0,20.0,1.0,0.8,0.3,Time
,,S02,1,Male,33,anonymized,Serial_Dependence_U,2023.2.3,Win32,59.52380952,,,,,,,,,,,,765.0455,1.0,765.0471,,,,767.6494,768.1156,767.1106,767.6492,766.0995,288.0,767.1105,768.1157,768.6571,768.6573,771.5683,226.6,771.5698,1.0,772.6201,1.0,13.0,43.0,11.0,1.0,1.0,0.3,Time
,,S02,1,Male,33,anonymized,Serial_Dependence_U,2023.2.3,Win32,59.52380952,,,,,,,,,,,,772.6211,1.0,772.6218,,,,775.5976,776.0816,775.0711,775.5973,773.6334,175.0,775.0709,776.0816,776.5999,776.6001,779.6012,2715.6,779.6026,5.0,780.5933,1.0,14.0,44.0,8.0,1.0,1.4,0.7,Time
,,S02,1,Male,33,anonymized,Serial_Dependence_U,2023.2.3,Win32,59.52380952,,,,,,,,,,,,780.5942,1.0,780.5957,,,,783.6125,784.1211,783.0888,783.6124,781.6448,311.0,783.0886,784.1212,784.626,784.6261,784.975,59.80000007,784.9759,1.0,785.9195,1.0,15.0,45.0,23.0,1.0,1.4,0.3,Time
,,S02,1,Male,33,anonymized,Serial_Dependence_U,2023.2.3,Win32,59.52380952,,,,,,,,,,,,785.921,1.0,785.9214,,,,788.3765,788.8815,787.8227,788.3764,786.971,149.0,787.8224,788.8816,789.3817,789.3819,792.069,911.0,792.0694,4.0,793.0812,1.0,16.0,46.0,25.0,1.0,0.8,0.7,Time
,,S02,1,Male,33,anonymized,Serial_Dependence_U,2023.2.3,Win32,59.52380952,,,,,,,,,,,,793.0822,1.0,793.0835,,,,795.7995,796.2631,795.2939,795.7993,794.0712,157.0,795.2938,796.2633,796.7355,796.7356,800.3147,2151.7,800.315,5.0,801.3335,1.0,17.0,47.0,12.0,1.0,1.2,0.3,Time
,,S02,1,Male,33,anonymized,Serial_Dependence_U,2023.2.3,Win32,59.52380952,,,,,,,,,,,,801.3347,1.0,801.3352,,,,803.8705,804.3779,803.3435,803.8702,802.336,216.0,803.3434,804.3782,804.8612,804.8613,807.4039,1763.9,807.4042,5.0,808.3901,1.0,18.0,48.0,16.0,1.0,1.0,0.7,Time
,,S02,1,Male,33,anonymized,Serial_Dependence_U,2023.2.3,Win32,59.52380952,,,,,,,,,,,,808.3913,1.0,808.392,,,,810.8052,811.3034,810.2698,810.8051,809.4209,3.0,810.2697,811.3035,811.8093,811.8095,812.2318,383.8,812.233,1.0,813.1874,1.0,19.0,49.0,0.0,1.0,0.8,0.3,Time
,,S02,1,Male,33,anonymized,Serial_Dependence_U,2023.2.3,Win32,59.52380952,,,,,,,,,,,,813.1885,1.0,813.189,,,,815.5914,816.094,815.0264,815.5913,814.2201,141.0,815.0247,816.0941,816.5844,816.5845,819.4329,658.9000001,819.434,2.0,820.3796,1.0,20.0,50.0,15.0,1.0,0.8,0.7,Time
,,S02,1,Male,33,anonymized,Serial_Dependence_U,2023.2.3,Win32,59.52380952,,,,,,,,,,,,820.3809,1.0,820.3816,,,,822.9271,823.3962,822.4109,822.927,821.3775,129.0,822.4107,823.3962,823.9157,823.9158,824.606,660.7,824.6065,1.0,825.6245,1.0,21.0,51.0,6.0,1.0,1.0,0.7,Time
,,S02,1,Male,33,anonymized,Serial_Dependence_U,2023.2.3,Win32,59.52380952,,,,,,,,,,,,825.6256,1.0,825.6263,,,,828.455,828.932,827.8913,828.4549,826.6454,343.0,827.891,828.9321,829.445,829.4451,831.0727,1577.0,831.0736,5.0,832.049,1.0,22.0,52.0,22.0,1.0,1.2,0.3,Time
,,S02,1,Male,33,anonymized,Serial_Dependence_U,2023.2.3,Win32,59.52380952,,,,,,,,,,,,832.0502,1.0,832.0508,,,,834.6315,835.1573,834.1045,834.6313,833.073,176.0,834.1044,835.1574,835.6489,835.649,836.9723,1291.4,836.9753,4.0,837.9447,1.0,23.0,53.0,1.0,1.0,1.0,0.3,Time
,,S02,1,Male,33,anonymized,Serial_Dependence_U,2023.2.3,Win32,59.52380952,,,,,,,,,,,,837.9458,1.0,837.9465,,,,841.1054,841.6508,840.5705,841.1053,838.9604,33.0,840.5702,841.6509,842.1434,842.1435,844.7682,2194.8,844.7693,5.0,845.8489,1.0,24.0,54.0,19.0,1.0,1.6,0.7,Time
,,S02,1,Male,33,anonymized,Serial_Dependence_U,2023.2.3,Win32,59.52380952,,,,,,,,,,,,845.8504,1.0,845.8511,,,,848.8946,849.4191,848.3198,848.8939,846.8409,141.0,848.3196,849.4192,849.941,849.941,851.6302,1599.6,851.6305,4.0,852.6462,1.0,25.0,55.0,3.0,1.0,1.4,0.3,Time
,,S02,1,Male,33,anonymized,Serial_Dependence_U,2023.2.3,Win32,59.52380952,,,,,,,,,,,,852.6481,1.0,852.6492,,,,855.6272,856.1141,855.1078,855.6271,853.6785,232.0,855.1076,856.1142,856.5941,856.5941,858.2826,1546.4,858.283,4.0,859.2965,1.0,26.0,56.0,28.0,1.0,1.4,0.7,Time
,,S02,1,Male,33,anonymized,Serial_Dependence_U,2023.2.3,Win32,59.52380952,,,,,,,,,,,,859.2975,1.0,859.298,,,,862.4937,862.9683,861.975,862.4935,860.3546,334.0,861.9749,862.9685,863.4589,863.459,863.8672,337.5,863.8679,1.0,864.8589,1.0,27.0,57.0,29.0,1.0,1.6,0.7,Time
,,S02,1,Male,33,anonymized,Serial_Dependence_U,2023.2.3,Win32,59.52380952,,,,,,,,,,,,864.8608,1.0,864.8625,,,,868.0249,868.4826,867.511,868.0244,865.8835,255.0,867.5108,868.4827,868.9423,868.9424,869.4004,394.8,869.4007,1.0,870.4261,1.0,28.0,58.0,24.0,1.0,1.6,0.3,Time
,,S02,1,Male,33,anonymized,Serial_Dependence_U,2023.2.3,Win32,59.52380952,,,,,,,,,,,,870.4274,1.0,870.428,,,,873.0603,873.5451,872.506,873.0602,871.4819,17.0,872.5058,873.5452,873.9878,873.9879,876.4289,1942.4,876.4292,5.0,877.405,1.0,29.0,59.0,21.0,1.0,1.0,0.3,Time
,,S02,1,Male,33,anonymized,Serial_Dependence_U,2023.2.3,Win32,59.52380952,,,,,,,,,,,,877.4057,2.0,911.4233,s,33.9483,0.0027,914.2388,914.7666,913.6497,914.2387,912.4363,97.0,913.6495,914.7666,915.2622,915.2622,919.5283,1431.6,919.5289,4.0,920.5531,2.0,0.0,60.0,2.0,1.0,1.2,0.3,Time
,,S02,1,Male,33,anonymized,Serial_Dependence_U,2023.2.3,Win32,59.52380952,,,,,,,,,,,,920.5543,2.0,920.558,,,,923.3061,923.7927,922.8037,923.306,921.5862,307.0,922.8035,923.7928,924.284,924.2841,924.6424,320.7,924.6432,1.0,925.6368,2.0,1.0,61.0,7.0,1.0,1.2,0.7,Time
,,S02,1,Male,33,anonymized,Serial_Dependence_U,2023.2.3,Win32,59.52380952,,,,,,,,,,,,925.6378,2.0,925.6386,,,,928.9361,929.423,928.3853,928.9356,926.7457,85.0,928.3852,929.423,929.9599,929.9599,930.9731,495.5,930.9743,1.0,931.9901,2.0,2.0,62.0,4.0,1.0,1.6,0.3,Time
,,S02,1,Male,33,anonymized,Serial_Dependence_U,2023.2.3,Win32,59.52380952,,,,,,,,,,,,931.9913,2.0,931.9923,,,,934.385,934.8539,933.8218,934.3848,932.9812,86.0,933.8216,934.854,935.3324,935.3325,936.047,133.1,936.0483,1.0,936.996,2.0,3.0,63.0,20.0,1.0,0.8,0.3,Time
,,S02,1,Male,33,anonymized,Serial_Dependence_U,2023.2.3,Win32,59.52380952,,,,,,,,,,,,936.9969,2.0,936.9974,,,,939.9441,940.4186,939.426,939.9439,938.0212,325.0,939.4258,940.4187,940.8715,940.8716,942.5883,682.6999999,942.5898,1.0,943.6025,2.0,4.0,64.0,23.0,1.0,1.4,0.3,Time
,,S02,1,Male,33,anonymized,Serial_Dependence_U,2023.2.3,Win32,59.52380952,,,,,,,,,,,,943.6039,2.0,943.605,,,,946.1869,946.6499,945.6346,946.1868,944.6124,190.0,945.6319,946.65,947.1997,947.1998,952.2116,4320.8,952.2119,5.0,953.1663,2.0,5.0,65.0,6.0,1.0,1.0,0.7,Time
,,S02,1,Male,33,anonymized,Serial_Dependence_U,2023.2.3,Win32,59.52380952,,,,,,,,,,,,953.1683,2.0,953.1688,,,,956.0881,956.5478,955.581,956.0879,954.1678,190.0,955.5808,956.5479,957.0222,957.0223,958.5334,1063.4,958.5338,2.0,959.4946,2.0,6.0,66.0,18.0,1.0,1.4,0.7,Time
,,S02,1,Male,33,anonymized,Serial_Dependence_U,2023.2.3,Win32,59.52380952,,,,,,,,,,,,959.4964,2.0,959.4973,,,,962.53,962.9946,961.9622,962.5299,960.5463,142.0,961.962,962.9947,963.4868,963.4874,964.2174,678.0,964.2179,1.0,965.2112,2.0,7.0,67.0,28.0,1.0,1.4,0.7,Time
,,S02,1,Male,33,anonymized,Serial_Dependence_U,2023.2.3,Win32,59.52380952,,,,,,,,,,,,965.2135,2.0,965.2143,,,,967.9786,968.4341,967.4476,967.9784,966.188,70.0,967.4472,968.4341,968.9068,968.907,969.1066,155.9000001,969.107,1.0,970.1291,2.0,8.0,68.0,22.0,1.0,1.2,0.3,Time
,,S02,1,Male,33,anonymized,Serial_Dependence_U,2023.2.3,Win32,59.52380952,,,,,,,,,,,,970.1308,2.0,970.1318,,,,973.166,973.6895,972.6153,973.1659,971.1831,343.0,972.6147,973.6896,974.1586,974.1587,974.9765,692.8000001,974.9775,1.0,975.9891,2.0,9.0,69.0,8.0,1.0,1.4,0.7,Time
,,S02,1,Male,33,anonymized,Serial_Dependence_U,2023.2.3,Win32,59.52380952,,,,,,,,,,,,975.99,2.0,975.9905,,,,978.8093,979.3074,978.234,978.8092,977.0281,108.0,978.2337,979.3075,979.8105,979.8106,980.7682,904.5999999,980.769,2.0,981.7708,2.0,10.0,70.0,12.0,1.0,1.2,0.3,Time
,,S02,1,Male,33,anonymized,Serial_Dependence_U,2023.2.3,Win32,59.52380952,,,,,,,,,,,,981.7718,2.0,981.7724,,,,984.8199,985.2965,984.2609,984.8198,982.8205,256.0,984.2605,985.2966,985.7886,985.7886,986.1405,322.9,986.1427,1.0,987.1531,2.0,11.0,71.0,3.0,1.0,1.4,0.3,Time
,,S02,1,Male,33,anonymized,Serial_Dependence_U,2023.2.3,Win32,59.52380952,,,,,,,,,,,,987.154,2.0,987.1548,,,,989.9693,990.4672,989.3957,989.969,988.173,143.0,989.3956,990.4672,990.9409,990.941,991.335,328.9,991.3355,1.0,992.3513,2.0,12.0,72.0,17.0,1.0,1.2,0.7,Time
,,S02,1,Male,33,anonymized,Serial_Dependence_U,2023.2.3,Win32,59.52380952,,,,,,,,,,,,992.3523,2.0,992.3531,,,,994.9924,995.487,994.4411,994.9918,993.3569,122.0,994.441,995.4872,996.0053,996.0054,997.888,1797.5,997.8906,5.0,998.8889,2.0,13.0,73.0,16.0,1.0,1.0,0.7,Time
,,S02,1,Male,33,anonymized,Serial_Dependence_U,2023.2.3,Win32,59.52380952,,,,,,,,,,,,998.8898,2.0,998.8905,,,,1001.9859,1002.4961,1001.4818,1001.9857,999.8428,32.0,1001.4817,1002.4962,1002.9859,1002.986,1004.9147,1669.6,1004.915,3.0,1005.9049,2.0,14.0,74.0,14.0,1.0,1.6,0.3,Time
,,S02,1,Male,33,anonymized,Serial_Dependence_U,2023.2.3,Win32,59.52380952,,,,,,,,,,,,1005.9058,2.0,1005.9063,,,,1008.8805,1009.3615,1008.3417,1008.8803,1006.9119,356.0,1008.3415,1009.3615,1009.8735,1009.8737,1015.8962,9999.0,1015.8966,0.0,1016.8803,2.0,15.0,75.0,13.0,1.0,1.4,0.3,Time
,,S02,1,Male,33,anonymized,Serial_Dependence_U,2023.2.3,Win32,59.52380952,,,,,,,,,,,,1016.8816,2.0,1016.8827,,,,1019.999,1020.4818,1019.4815,1019.9989,1017.8676,350.0,1019.4811,1020.482,1021.0148,1021.0149,1023.9093,1348.8,1023.9097,2.0,1024.8797,2.0,16.0,76.0,9.0,1.0,1.6,0.7,Time
,,S02,1,Male,33,anonymized,Serial_Dependence_U,2023.2.3,Win32,59.52380952,,,,,,,,,,,,1024.8805,2.0,1024.881,,,,1028.129,1028.6219,1027.574,1028.1287,1025.9243,309.0,1027.5739,1028.6221,1029.0979,1029.0981,1029.9599,676.6,1029.962,1.0,1030.9436,2.0,17.0,77.0,24.0,1.0,1.6,0.3,Time
,,S02,1,Male,33,anonymized,Serial_Dependence_U,2023.2.3,Win32,59.52380952,,,,,,,,,,,,1030.9448,2.0,1030.9455,,,,1034.2031,1034.6798,1033.6181,1034.203,1031.9837,159.0,1033.6178,1034.6798,1035.13,1035.1301,1036.4096,870.7,1036.413,1.0,1037.3942,2.0,18.0,78.0,29.0,1.0,1.6,0.7,Time
,,S02,1,Male,33,anonymized,Serial_Dependence_U,2023.2.3,Win32,59.52380952,,,,,,,,,,,,1037.3959,2.0,1037.3967,,,,1039.7629,1040.2897,1039.1953,1039.7628,1038.3915,47.0,1039.1951,1040.2897,1040.777,1040.7771,1044.37,2863.9,1044.3704,5.0,1045.333,2.0,19.0,79.0,10.0,1.0,0.8,0.3,Time
,,S02,1,Male,33,anonymized,Serial_Dependence_U,2023.2.3,Win32,59.52380952,,,,,,,,,,,,1045.3343,2.0,1045.3357,,,,1047.9893,1048.5009,1047.4427,1047.9892,1046.3787,45.0,1047.4425,1048.5009,1048.9688,1048.9689,1050.1732,214.9000001,1050.1742,1.0,1051.1726,2.0,20.0,80.0,11.0,1.0,1.0,0.3,Time
,,S02,1,Male,33,anonymized,Serial_Dependence_U,2023.2.3,Win32,59.52380952,,,,,,,,,,,,1051.1736,2.0,1051.1744,,,,1053.5808,1054.033,1053.024,1053.5807,1052.1967,87.0,1053.0236,1054.0332,1054.5286,1054.5287,1056.5562,329.9,1056.5569,1.0,1057.5512,2.0,21.0,81.0,15.0,1.0,0.8,0.7,Time
,,S02,1,Male,33,anonymized,Serial_Dependence_U,2023.2.3,Win32,59.52380952,,,,,,,,,,,,1057.5522,2.0,1057.5531,,,,1059.9424,1060.4479,1059.3921,1059.9422,1058.5815,86.0,1059.392,1060.4479,1060.9228,1060.9229,1061.3769,379.9000001,1061.3785,1.0,1062.3708,2.0,22.0,82.0,25.0,1.0,0.8,0.7,Time
,,S02,1,Male,33,anonymized,Serial_Dependence_U,2023.2.3,Win32,59.52380952,,,,,,,,,,,,1062.3725,2.0,1062.3731,,,,1065.5288,1066.0075,1064.9599,1065.5286,1063.35,53.0,1064.9598,1066.0076,1066.4971,1066.4973,1069.5677,2370.0,1069.5682,5.0,1070.5475,2.0,23.0,83.0,19.0,1.0,1.6,0.7,Time
,,S02,1,Male,33,anonymized,Serial_Dependence_U,2023.2.3,Win32,59.52380952,,,,,,,,,,,,1070.5486,2.0,1070.5492,,,,1073.1219,1073.6312,1072.5774,1073.1217,1071.5624,352.0,1072.5772,1073.6316,1074.1709,1074.171,1076.3187,1786.5,1076.3199,5.0,1077.3575,2.0,24.0,84.0,21.0,1.0,1.0,0.3,Time
,,S02,1,Male,33,anonymized,Serial_Dependence_U,2023.2.3,Win32,59.52380952,,,,,,,,,,,,1077.3588,2.0,1077.3596,,,,1079.7572,1080.2555,1079.2177,1079.757,1078.3554,16.0,1079.2173,1080.2557,1080.7441,1080.7443,1086.6156,1215.2,1086.6161,5.0,1087.5983,2.0,25.0,85.0,0.0,1.0,0.8,0.3,Time
,,S02,1,Male,33,anonymized,Serial_Dependence_U,2023.2.3,Win32,59.52380952,,,,,,,,,,,,1087.5991,2.0,1087.5995,,,,1090.1524,1090.6415,1089.6449,1090.1523,1088.5905,169.0,1089.6448,1090.6416,1091.1056,1091.1057,1091.7529,417.0,1091.7537,1.0,1092.7314,2.0,26.0,86.0,1.0,1.0,1.0,0.3,Time
,,S02,1,Male,33,anonymized,Serial_Dependence_U,2023.2.3,Win32,59.52380952,,,,,,,,,,,,1092.7331,2.0,1092.7342,,,,1095.1455,1095.6752,1094.6258,1095.1452,1093.7634,156.0,1094.6257,1095.6752,1096.1731,1096.1732,1096.6576,194.4000001,1096.6582,1.0,1097.6345,2.0,27.0,87.0,5.0,1.0,0.8,0.7,Time
,,S02,1,Male,33,anonymized,Serial_Dependence_U,2023.2.3,Win32,59.52380952,,,,,,,,,,,,1097.6356,2.0,1097.636,,,,1100.2512,1100.7565,1099.7099,1100.251,1098.7028,8.0,1099.7098,1100.7566,1101.2522,1101.2522,1102.8536,1139.0,1102.8539,4.0,1103.8419,2.0,28.0,88.0,26.0,1.0,1.0,0.7,Time
,,S02,1,Male,33,anonymized,Serial_Dependence_U,2023.2.3,Win32,59.52380952,,,,,,,,,,,,1103.8428,2.0,1103.8436,,,,1106.6451,1107.1376,1106.1203,1106.6449,1104.9061,145.0,1106.12,1107.138,1107.6305,1107.6307,1113.6912,9999.0,1113.6915,0.0,1114.6803,2.0,29.0,89.0,27.0,1.0,1.2,0.7,Time
,,S02,1,Male,33,anonymized,Serial_Dependence_U,2023.2.3,Win32,59.52380952,,,,,,,,,,,,1114.6816,3.0,1117.13,s,2.3902,0.0006,1119.7484,1120.2249,1119.1895,1119.7482,1118.1487,86.0,1119.1894,1120.225,1120.733,1120.7331,1124.732,1202.7,1124.7347,4.0,1125.7583,3.0,0.0,90.0,21.0,1.0,1.0,0.3,Time
,,S02,1,Male,33,anonymized,Serial_Dependence_U,2023.2.3,Win32,59.52380952,,,,,,,,,,,,1125.7596,3.0,1125.762,,,,1128.7222,1129.2102,1128.2149,1128.722,1126.7517,246.0,1128.2148,1129.2103,1129.7335,1129.7335,1133.7407,621.7,1133.741,1.0,1134.7178,3.0,1.0,91.0,18.0,1.0,1.4,0.7,Time
,,S02,1,Male,33,anonymized,Serial_Dependence_U,2023.2.3,Win32,59.52380952,,,,,,,,,,,,1134.719,3.0,1134.7195,,,,1138.0116,1138.4933,1137.5002,1138.0115,1135.8399,169.0,1137.5001,1138.4934,1138.9602,1138.9606,1140.9524,616.5,1140.9529,1.0,1141.9153,3.0,2.0,92.0,24.0,1.0,1.6,0.3,Time
,,S02,1,Male,33,anonymized,Serial_Dependence_U,2023.2.3,Win32,59.52380952,,,,,,,,,,,,1141.9169,3.0,1141.9176,,,,1144.9099,1145.3909,1144.3564,1144.9098,1142.9208,8.0,1144.3562,1145.391,1145.8411,1145.8412,1146.5027,599.0999999,1146.5031,1.0,1147.5167,3.0,3.0,93.0,3.0,1.0,1.4,0.3,Time
,,S02,1,Male,33,anonymized,Serial_Dependence_U,2023.2.3,Win32,59.52380952,,,,,,,,,,,,1147.5202,3.0,1147.5208,,,,1150.3304,1150.8056,1149.7691,1150.3303,1148.5073,127.0,1149.7689,1150.8058,1151.2833,1151.2833,1152.0857,745.8,1152.0862,1.0,1153.0666,3.0,4.0,94.0,22.0,1.0,1.2,0.3,Time
,,S02,1,Male,33,anonymized,Serial_Dependence_U,2023.2.3,Win32,59.52380952,,,,,,,,,,,,1153.0674,3.0,1153.0682,,,,1155.7956,1156.2903,1155.2581,1155.7954,1154.0211,213.0,1155.258,1156.2903,1156.779,1156.7791,1159.394,2440.1,1159.3948,5.0,1160.3935,3.0,5.0,95.0,27.0,1.0,1.2,0.7,Time
,,S02,1,Male,33,anonymized,Serial_Dependence_U,2023.2.3,Win32,59.52380952,,,,,,,,,,,,1160.3946,3.0,1160.3952,,,,1163.3674,1163.8889,1162.8429,1163.3672,1161.3872,174.0,1162.8427,1163.8889,1164.3766,1164.3767,1165.9268,1273.4,1165.9272,2.0,1166.9366,3.0,6.0,96.0,13.0,1.0,1.4,0.3,Time
,,S02,1,Male,33,anonymized,Serial_Dependence_U,2023.2.3,Win32,59.52380952,,,,,,,,,,,,1166.9378,3.0,1166.9385,,,,1170.1308,1170.5965,1169.6129,1170.1307,1167.9491,81.0,1169.6127,1170.5966,1171.0647,1171.065,1172.7788,965.6,1172.7794,1.0,1173.8269,3.0,7.0,97.0,19.0,1.0,1.6,0.7,Time
,,S02,1,Male,33,anonymized,Serial_Dependence_U,2023.2.3,Win32,59.52380952,,,,,,,,,,,,1173.828,3.0,1173.8287,,,,1176.3306,1176.7962,1175.7731,1176.3305,1174.8827,203.0,1175.7729,1176.7963,1177.2517,1177.2518,1179.3982,1087.5,1179.3991,5.0,1180.4136,3.0,8.0,98.0,15.0,1.0,0.8,0.7,Time
,,S02,1,Male,33,anonymized,Serial_Dependence_U,2023.2.3,Win32,59.52380952,,,,,,,,,,,,1180.4167,3.0,1180.4173,,,,1182.7879,1183.3269,1182.2485,1182.7878,1181.4252,231.0,1182.2484,1183.327,1183.8064,1183.8065,1184.373,203.3,1184.3739,1.0,1185.3425,3.0,9.0,99.0,10.0,1.0,0.8,0.3,Time
,,S02,1,Male,33,anonymized,Serial_Dependence_U,2023.2.3,Win32,59.52380952,,,,,,,,,,,,1185.3436,3.0,1185.3443,,,,1188.1981,1188.683,1187.681,1188.198,1186.4217,30.0,1187.6809,1188.6831,1189.1433,1189.1433,1189.944,743.4,1189.9452,1.0,1190.9467,3.0,10.0,100.0,12.0,1.0,1.2,0.3,Time
,,S02,1,Male,33,anonymized,Serial_Dependence_U,2023.2.3,Win32,59.52380952,,,,,,,,,,,,1190.9478,3.0,1190.9483,,,,1193.9253,1194.4376,1193.3468,1193.9252,1191.9051,201.0,1193.3467,1194.4377,1194.9078,1194.9081,1195.9766,580.5999999,1195.9772,1.0,1196.9599,3.0,11.0,101.0,8.0,1.0,1.4,0.7,Time
,,S02,1,Male,33,anonymized,Serial_Dependence_U,2023.2.3,Win32,59.52380952,,,,,,,,,,,,1196.9613,3.0,1196.9627,,,,1199.7222,1200.178,1199.2043,1199.7221,1197.9948,305.0,1199.2042,1200.1781,1200.6746,1200.6749,1201.5466,558.9000001,1201.5473,1.0,1202.5171,3.0,12.0,102.0,2.0,1.0,1.2,0.3,Time
,,S02,1,Male,33,anonymized,Serial_Dependence_U,2023.2.3,Win32,59.52380952,,,,,,,,,,,,1202.5181,3.0,1202.5185,,,,1205.7889,1206.2287,1205.2142,1205.7887,1203.5989,83.0,1205.214,1206.2287,1206.7061,1206.7062,1209.5134,1091.2,1209.5137,1.0,1210.5112,3.0,13.0,103.0,4.0,1.0,1.6,0.3,Time
,,S02,1,Male,33,anonymized,Serial_Dependence_U,2023.2.3,Win32,59.52380952,,,,,,,,,,,,1210.5123,3.0,1210.5127,,,,1213.668,1214.1717,1213.1465,1213.6678,1211.5172,285.0,1213.1463,1214.1719,1214.6644,1214.6645,1215.9162,1117.0,1215.9171,1.0,1216.9105,3.0,14.0,104.0,14.0,1.0,1.6,0.3,Time
,,S02,1,Male,33,anonymized,Serial_Dependence_U,2023.2.3,Win32,59.52380952,,,,,,,,,,,,1216.9118,3.0,1216.9125,,,,1219.4925,1219.9912,1218.9744,1219.4924,1217.9354,206.0,1218.9742,1219.9913,1220.4985,1220.4986,1222.0504,1042.2,1222.0509,3.0,1223.0479,3.0,15.0,105.0,16.0,1.0,1.0,0.7,Time
,,S02,1,Male,33,anonymized,Serial_Dependence_U,2023.2.3,Win32,59.52380952,,,,,,,,,,,,1223.0493,3.0,1223.05,,,,1226.0067,1226.4783,1225.5012,1226.0065,1224.0815,261.0,1225.501,1226.4784,1226.9764,1226.9764,1228.1453,972.6999999,1228.1468,1.0,1229.1305,3.0,16.0,106.0,28.0,1.0,1.4,0.7,Time
,,S02,1,Male,33,anonymized,Serial_Dependence_U,2023.2.3,Win32,59.52380952,,,,,,,,,,,,1229.1317,3.0,1229.1329,,,,1231.4625,1231.9275,1230.946,1231.4624,1230.1348,139.0,1230.9459,1231.9276,1232.4052,1232.4054,1234.0224,1571.5,1234.0234,5.0,1235.0185,3.0,17.0,107.0,25.0,1.0,0.8,0.7,Time
,,S02,1,Male,33,anonymized,Serial_Dependence_U,2023.2.3,Win32,59.52380952,,,,,,,,,,,,1235.0198,3.0,1235.0203,,,,1237.4765,1237.9398,1236.9382,1237.4763,1236.0971,174.0,1236.9381,1237.9398,1238.4487,1238.4488,1243.9939,2816.7,1243.9945,5.0,1244.9856,3.0,18.0,108.0,5.0,1.0,0.8,0.7,Time
,,S02,1,Male,33,anonymized,Serial_Dependence_U,2023.2.3,Win32,59.52380952,,,,,,,,,,,,1244.987,3.0,1244.9877,,,,1247.9388,1248.4148,1247.4171,1247.9386,1245.9643,237.0,1247.417,1248.4148,1248.9031,1248.9032,1251.0346,847.3,1251.0355,1.0,1252.0251,3.0,19.0,109.0,23.0,1.0,1.4,0.3,Time
,,S02,1,Male,33,anonymized,Serial_Dependence_U,2023.2.3,Win32,59.52380952,,,,,,,,,,,,1252.0262,3.0,1252.0269,,,,1255.152,1255.6364,1254.6483,1255.1515,1253.0399,260.0,1254.6481,1255.6365,1256.0997,1256.0998,1259.2564,2443.6,1259.2577,5.0,1260.2329,3.0,20.0,110.0,9.0,1.0,1.6,0.7,Time
,,S02,1,Male,33,anonymized,Serial_Dependence_U,2023.2.3,Win32,59.52380952,,,,,,,,,,,,1260.2338,3.0,1260.2343,,,,1262.8078,1263.3066,1262.2814,1262.8077,1261.2323,132.0,1262.2812,1263.3067,1263.769,1263.769,1265.7777,1779.9,1265.7782,5.0,1266.8067,3.0,21.0,111.0,1.0,1.0,1.0,0.3,Time
,,S02,1,Male,33,anonymized,Serial_Dependence_U,2023.2.3,Win32,59.52380952,,,,,,,,,,,,1266.8086,3.0,1266.8091,,,,1269.6302,1270.1011,1269.1202,1269.6301,1267.9037,90.0,1269.12,1270.1011,1270.5989,1270.5991,1272.9668,1931.4,1272.9672,5.0,1273.979,3.0,22.0,112.0,7.0,1.0,1.2,0.7,Time
,,S02,1,Male,33,anonymized,Serial_Dependence_U,2023.2.3,Win32,59.52380952,,,,,,,,,,,,1273.9799,3.0,1273.9803,,,,1276.3658,1276.8716,1275.8496,1276.3657,1275.0108,206.0,1275.8494,1276.8716,1277.3952,1277.3953,1278.2054,443.6,1278.2059,1.0,1279.2148,3.0,23.0,113.0,20.0,1.0,0.8,0.3,Time
,,S02,1,Male,33,anonymized,Serial_Dependence_U,2023.2.3,Win32,59.52380952,,,,,,,,,,,,1279.2161,3.0,1279.2174,,,,1281.894,1282.37,1281.3756,1281.8939,1280.3263,204.0,1281.3755,1282.37,1282.8126,1282.8127,1284.5212,1098.7,1284.5219,4.0,1285.5058,3.0,24.0,114.0,11.0,1.0,1.0,0.3,Time
,,S02,1,Male,33,anonymized,Serial_Dependence_U,2023.2.3,Win32,59.52380952,,,,,,,,,,,,1285.507,3.0,1285.5077,,,,1288.7452,1289.2417,1288.1806,1288.7451,1286.5734,16.0,1288.18,1289.2417,1289.7396,1289.7396,1290.841,795.1,1290.8425,1.0,1291.8471,3.0,25.0,115.0,29.0,1.0,1.6,0.7,Time
,,S02,1,Male,33,anonymized,Serial_Dependence_U,2023.2.3,Win32,59.52380952,,,,,,,,,,,,1291.8481,3.0,1291.8487,,,,1294.3099,1294.783,1293.7274,1294.3097,1292.8782,23.0,1293.7268,1294.7831,1295.3184,1295.3184,1295.4422,66.60000002,1295.4427,1.0,1296.4417,3.0,26.0,116.0,0.0,1.0,0.8,0.3,Time
,,S02,1,Male,33,anonymized,Serial_Dependence_U,2023.2.3,Win32,59.52380952,,,,,,,,,,,,1296.4431,3.0,1296.4446,,,,1299.0114,1299.493,1298.4621,1299.0112,1297.44,22.0,1298.462,1299.4932,1300.0365,1300.0367,1303.0721,1955.8,1303.0724,5.0,1304.0534,3.0,27.0,117.0,26.0,1.0,1.0,0.7,Time
,,S02,1,Male,33,anonymized,Serial_Dependence_U,2023.2.3,Win32,59.52380952,,,,,,,,,,,,1304.0544,3.0,1304.0548,,,,1306.8606,1307.3395,1306.2984,1306.8605,1305.0874,265.0,1306.2982,1307.3396,1307.7999,1307.7999,1309.7839,655.3000001,1309.7842,1.0,1310.7838,3.0,28.0,118.0,17.0,1.0,1.2,0.7,Time
,,S02,1,Male,33,anonymized,Serial_Dependence_U,2023.2.3,Win32,59.52380952,,,,,,,,,,,,1310.7872,3.0,1310.7877,,,,1313.5004,1313.9607,1312.8918,1313.5002,1311.828,206.0,1312.8916,1313.9608,1314.4223,1314.4225,1316.7916,921.9,1316.7921,2.0,1317.7894,3.0,29.0,119.0,6.0,1.0,1.0,0.7,Time
,,S02,1,Male,33,anonymized,Serial_Dependence_U,2023.2.3,Win32,59.52380952,,,,,,,,,,,,1317.7904,4.0,1321.6436,s,3.8069,0.0013,1324.2381,1324.7747,1323.6947,1324.2379,1322.6682,279.0,1323.6945,1324.7747,1325.2167,1325.2168,1330.0415,2649.1,1330.042,5.0,1331.0439,4.0,0.0,120.0,11.0,1.0,1.0,0.3,Time
,,S02,1,Male,33,anonymized,Serial_Dependence_U,2023.2.3,Win32,59.52380952,,,,,,,,,,,,1331.0448,4.0,1331.0475,,,,1333.9696,1334.417,1333.4464,1333.9695,1332.0032,301.0,1333.4461,1334.4171,1334.9239,1334.9242,1337.5014,1223.9,1337.5023,2.0,1338.5027,4.0,1.0,121.0,8.0,1.0,1.4,0.7,Time
,,S02,1,Male,33,anonymized,Serial_Dependence_U,2023.2.3,Win32,59.52380952,,,,,,,,,,,,1338.5042,4.0,1338.5055,,,,1341.0987,1341.6031,1340.5766,1341.0984,1339.5352,253.0,1340.5765,1341.6032,1342.0739,1342.074,1342.2031,80.0999999,1342.2036,1.0,1343.2306,4.0,2.0,122.0,1.0,1.0,1.0,0.3,Time
,,S02,1,Male,33,anonymized,Serial_Dependence_U,2023.2.3,Win32,59.52380952,,,,,,,,,,,,1343.2318,4.0,1343.2324,,,,1346.4821,1346.975,1345.9199,1346.4819,1344.2664,194.0,1345.9198,1346.975,1347.4424,1347.4425,1348.0095,503.1,1348.0103,1.0,1349.0003,4.0,3.0,123.0,9.0,1.0,1.6,0.7,Time
,,S02,1,Male,33,anonymized,Serial_Dependence_U,2023.2.3,Win32,59.52380952,,,,,,,,,,,,1349.0024,4.0,1349.0032,,,,1352.197,1352.6663,1351.6577,1352.1969,1350.0464,242.0,1351.6576,1352.6663,1353.2176,1353.2176,1354.762,1312.8,1354.7627,2.0,1355.7547,4.0,4.0,124.0,29.0,1.0,1.6,0.7,Time
,,S02,1,Male,33,anonymized,Serial_Dependence_U,2023.2.3,Win32,59.52380952,,,,,,,,,,,,1355.7559,4.0,1355.7564,,,,1358.0983,1358.5884,1357.5691,1358.0982,1356.7519,237.0,1357.5689,1358.5884,1359.1142,1359.1142,1361.5864,1739.8,1361.5873,5.0,1362.6182,4.0,5.0,125.0,20.0,1.0,0.8,0.3,Time
,,S02,1,Male,33,anonymized,Serial_Dependence_U,2023.2.3,Win32,59.52380952,,,,,,,,,,,,1362.619,4.0,1362.6204,,,,1365.4542,1365.9647,1364.9311,1365.4542,1363.7103,39.0,1364.931,1365.9648,1366.4381,1366.4383,1366.9333,109.0,1366.9337,1.0,1367.8862,4.0,6.0,126.0,12.0,1.0,1.2,0.3,Time
,,S02,1,Male,33,anonymized,Serial_Dependence_U,2023.2.3,Win32,59.52380952,,,,,,,,,,,,1367.887,4.0,1367.8875,,,,1370.9038,1371.3541,1370.3698,1370.9036,1368.8843,357.0,1370.3697,1371.3541,1371.8591,1371.8592,1371.9946,33.70000005,1371.9958,1.0,1372.9852,4.0,7.0,127.0,3.0,1.0,1.4,0.3,Time
,,S02,1,Male,33,anonymized,Serial_Dependence_U,2023.2.3,Win32,59.52380952,,,,,,,,,,,,1372.9876,4.0,1372.9881,,,,1376.1813,1376.7035,1375.6687,1376.1809,1374.0273,95.0,1375.6686,1376.7036,1377.2228,1377.223,1379.5557,2279.3,1379.5562,5.0,1380.566,4.0,8.0,128.0,19.0,1.0,1.6,0.7,Time
,,S02,1,Male,33,anonymized,Serial_Dependence_U,2023.2.3,Win32,59.52380952,,,,,,,,,,,,1380.5673,4.0,1380.5679,,,,1382.9536,1383.4245,1382.3925,1382.9535,1381.5817,305.0,1382.3924,1383.4245,1383.9557,1383.9559,1389.9696,9999.0,1389.9704,0.0,1390.9754,4.0,9.0,129.0,25.0,1.0,0.8,0.7,Time
,,S02,1,Male,33,anonymized,Serial_Dependence_U,2023.2.3,Win32,59.52380952,,,,,,,,,,,,1390.9767,4.0,1390.9772,,,,1393.5057,1394.0154,1392.9813,1393.5056,1391.9758,104.0,1392.9813,1394.0156,1394.4497,1394.4498,1395.1039,264.6999999,1395.1042,1.0,1396.0922,4.0,10.0,130.0,26.0,1.0,1.0,0.7,Time
,,S02,1,Male,33,anonymized,Serial_Dependence_U,2023.2.3,Win32,59.52380952,,,,,,,,,,,,1396.0939,4.0,1396.0944,,,,1398.4524,1398.9352,1397.9454,1398.4522,1397.1313,12.0,1397.9451,1398.9353,1399.4091,1399.4092,1403.7379,286.8000001,1403.7384,1.0,1404.7303,4.0,11.0,131.0,15.0,1.0,0.8,0.7,Time
,,S02,1,Male,33,anonymized,Serial_Dependence_U,2023.2.3,Win32,59.52380952,,,,,,,,,,,,1404.7314,4.0,1404.7321,,,,1407.1509,1407.6392,1406.6234,1407.1507,1405.799,24.0,1406.6233,1407.6393,1408.1156,1408.1159,1411.3679,396.6999999,1411.3685,1.0,1412.36,4.0,12.0,132.0,0.0,1.0,0.8,0.3,Time
,,S02,1,Male,33,anonymized,Serial_Dependence_U,2023.2.3,Win32,59.52380952,,,,,,,,,,,,1412.3609,4.0,1412.3614,,,,1415.3936,1415.936,1414.853,1415.3935,1413.3794,309.0,1414.8529,1415.9361,1416.381,1416.3812,1418.1831,1250.5,1418.1835,2.0,1419.1733,4.0,13.0,133.0,13.0,1.0,1.4,0.3,Time
,,S02,1,Male,33,anonymized,Serial_Dependence_U,2023.2.3,Win32,59.52380952,,,,,,,,,,,,1419.1749,4.0,1419.1759,,,,1422.3201,1422.8161,1421.8154,1422.3199,1420.1893,113.0,1421.8153,1422.8161,1423.284,1423.2841,1424.8323,1112.2,1424.8337,1.0,1425.8501,4.0,14.0,134.0,24.0,1.0,1.6,0.3,Time
,,S02,1,Male,33,anonymized,Serial_Dependence_U,2023.2.3,Win32,59.52380952,,,,,,,,,,,,1425.8512,4.0,1425.8518,,,,1428.4745,1428.9487,1427.9094,1428.4743,1426.9041,99.0,1427.9091,1428.9488,1429.4263,1429.4265,1430.3168,718.7,1430.3177,2.0,1431.332,4.0,15.0,135.0,16.0,1.0,1.0,0.7,Time
,,S02,1,Male,33,anonymized,Serial_Dependence_U,2023.2.3,Win32,59.52380952,,,,,,,,,,,,1431.333,4.0,1431.3338,,,,1434.1315,1434.6394,1433.5963,1434.1313,1432.3628,202.0,1433.5961,1434.6397,1435.1182,1435.1184,1436.8194,1600.7,1436.8198,5.0,1437.7613,4.0,16.0,136.0,27.0,1.0,1.2,0.7,Time
,,S02,1,Male,33,anonymized,Serial_Dependence_U,2023.2.3,Win32,59.52380952,,,,,,,,,,,,1437.7628,4.0,1437.7638,,,,1440.4776,1440.9515,1439.9331,1440.4775,1438.8541,350.0,1439.9329,1440.9515,1441.4594,1441.4595,1442.2494,738.6,1442.2498,2.0,1443.2407,4.0,17.0,137.0,21.0,1.0,1.0,0.3,Time
,,S02,1,Male,33,anonymized,Serial_Dependence_U,2023.2.3,Win32,59.52380952,,,,,,,,,,,,1443.2431,4.0,1443.2438,,,,1446.2522,1446.6936,1445.7476,1446.2518,1444.2823,285.0,1445.7475,1446.6937,1447.1979,1447.1979,1447.4772,230.4,1447.4777,1.0,1448.4708,4.0,18.0,138.0,18.0,1.0,1.4,0.7,Time
,,S02,1,Male,33,anonymized,Serial_Dependence_U,2023.2.3,Win32,59.52380952,,,,,,,,,,,,1448.4722,4.0,1448.4728,,,,1451.182,1451.6792,1450.6654,1451.1817,1449.4628,30.0,1450.6652,1451.6795,1452.1494,1452.1495,1453.3138,772.5,1453.3148,1.0,1454.3492,4.0,19.0,139.0,2.0,1.0,1.2,0.3,Time
,,S02,1,Male,33,anonymized,Serial_Dependence_U,2023.2.3,Win32,59.52380952,,,,,,,,,,,,1454.3521,4.0,1454.3528,,,,1457.5719,1458.0694,1457.0395,1457.5717,1455.358,26.0,1457.0393,1458.0694,1458.5236,1458.5237,1459.6014,337.6,1459.6022,1.0,1460.6492,4.0,20.0,140.0,4.0,1.0,1.6,0.3,Time
,,S02,1,Male,33,anonymized,Serial_Dependence_U,2023.2.3,Win32,59.52380952,,,,,,,,,,,,1460.6504,4.0,1460.6511,,,,1463.646,1464.1814,1463.0865,1463.6459,1461.6694,217.0,1463.0863,1464.1815,1464.7174,1464.7175,1465.0487,226.7,1465.0491,1.0,1466.0478,4.0,21.0,141.0,23.0,1.0,1.4,0.3,Time
,,S02,1,Male,33,anonymized,Serial_Dependence_U,2023.2.3,Win32,59.52380952,,,,,,,,,,,,1466.0499,4.0,1466.0504,,,,1468.4162,1468.8939,1467.8808,1468.416,1467.0738,185.0,1467.8807,1468.894,1469.347,1469.3472,1473.5704,135.6,1473.5709,1.0,1474.5472,4.0,22.0,142.0,5.0,1.0,0.8,0.7,Time
,,S02,1,Male,33,anonymized,Serial_Dependence_U,2023.2.3,Win32,59.52380952,,,,,,,,,,,,1474.5498,4.0,1474.5505,,,,1476.9332,1477.4431,1476.3841,1476.933,1475.5601,257.0,1476.3839,1477.4432,1477.9312,1477.9314,1479.762,531.3,1479.7624,1.0,1480.7775,4.0,23.0,143.0,10.0,1.0,0.8,0.3,Time
,,S02,1,Male,33,anonymized,Serial_Dependence_U,2023.2.3,Win32,59.52380952,,,,,,,,,,,,1480.7792,4.0,1480.78,,,,1483.5585,1484.0441,1483.0277,1483.5583,1481.7931,252.0,1483.0275,1484.0441,1484.5092,1484.5093,1485.6636,737.9,1485.6641,1.0,1486.6717,4.0,24.0,144.0,17.0,1.0,1.2,0.7,Time
,,S02,1,Male,33,anonymized,Serial_Dependence_U,2023.2.3,Win32,59.52380952,,,,,,,,,,,,1486.6727,4.0,1486.6732,,,,1489.8856,1490.3807,1489.3704,1489.8854,1487.7227,49.0,1489.3702,1490.3807,1490.9086,1490.9086,1492.2772,544.0,1492.2776,1.0,1493.2756,4.0,25.0,145.0,14.0,1.0,1.6,0.3,Time
,,S02,1,Male,33,anonymized,Serial_Dependence_U,2023.2.3,Win32,59.52380952,,,,,,,,,,,,1493.2766,4.0,1493.2771,,,,1496.0022,1496.5152,1495.4985,1496.0018,1494.2942,329.0,1495.4983,1496.5155,1497.0435,1497.0435,1498.46,583.4000001,1498.4636,1.0,1499.4411,4.0,26.0,146.0,22.0,1.0,1.2,0.3,Time
,,S02,1,Male,33,anonymized,Serial_Dependence_U,2023.2.3,Win32,59.52380952,,,,,,,,,,,,1499.442,4.0,1499.4428,,,,1502.3593,1502.879,1501.7563,1502.3591,1500.5111,118.0,1501.7561,1502.8791,1503.3581,1503.3581,1504.3571,346.2,1504.3575,1.0,1505.3552,4.0,27.0,147.0,7.0,1.0,1.2,0.7,Time
,,S02,1,Male,33,anonymized,Serial_Dependence_U,2023.2.3,Win32,59.52380952,,,,,,,,,,,,1505.3567,4.0,1505.3573,,,,1508.3748,1508.8831,1507.8026,1508.3746,1506.3805,342.0,1507.8024,1508.8832,1509.3589,1509.359,1509.7595,240.7,1509.7607,1.0,1510.7411,4.0,28.0,148.0,28.0,1.0,1.4,0.7,Time
,,S02,1,Male,33,anonymized,Serial_Dependence_U,2023.2.3,Win32,59.52380952,,,,,,,,,,,,1510.7428,4.0,1510.7433,,,,1513.2969,1513.7943,1512.7734,1513.2967,1511.7647,324.0,1512.773,1513.7943,1514.2829,1514.2831,1518.4929,354.4000001,1518.4933,1.0,1519.5064,4.0,29.0,149.0,6.0,1.0,1.0,0.7,Time
,,S02,1,Male,33,anonymized,Serial_Dependence_U,2023.2.3,Win32,59.52380952,,,,,,,,,,,,1519.5092,5.0,1524.0049,s,4.4324,0.0006,1526.3675,1526.8683,1525.8441,1526.3673,1525.0338,258.0,1525.8439,1526.8683,1527.3282,1527.3287,1528.7605,250.3,1528.7618,1.0,1529.7171,5.0,0.0,150.0,0.0,1.0,0.8,0.3,Time
,,S02,1,Male,33,anonymized,Serial_Dependence_U,2023.2.3,Win32,59.52380952,,,,,,,,,,,,1529.7184,5.0,1529.7226,,,,1532.9128,1533.4167,1532.3494,1532.9125,1530.7395,120.0,1532.3493,1533.4168,1533.9654,1533.9655,1535.6407,267.3,1535.6414,1.0,1536.5967,5.0,1.0,151.0,9.0,1.0,1.6,0.7,Time
,,S02,1,Male,33,anonymized,Serial_Dependence_U,2023.2.3,Win32,59.52380952,,,,,,,,,,,,1536.5975,5.0,1536.5984,,,,1539.7357,1540.1992,1539.223,1539.7355,1537.5845,224.0,1539.2226,1540.1993,1540.693,1540.6934,1542.7444,428.7,1542.7448,1.0,1543.7061,5.0,2.0,152.0,19.0,1.0,1.6,0.7,Time
,,S02,1,Male,33,anonymized,Serial_Dependence_U,2023.2.3,Win32,59.52380952,,,,,,,,,,,,1543.708,5.0,1543.7086,,,,1546.0359,1546.5339,1545.5165,1546.0353,1544.7101,153.0,1545.5163,1546.5339,1547.0166,1547.0166,1547.5937,213.1999999,1547.5966,1.0,1548.5491,5.0,3.0,153.0,15.0,1.0,0.8,0.7,Time
,,S02,1,Male,33,anonymized,Serial_Dependence_U,2023.2.3,Win32,59.52380952,,,,,,,,,,,,1548.5503,5.0,1548.5511,,,,1551.3652,1551.8581,1550.794,1551.365,1549.519,15.0,1550.7931,1551.8583,1552.3068,1552.3069,1554.3411,545.1,1554.3415,1.0,1555.3264,5.0,4.0,154.0,2.0,1.0,1.2,0.3,Time
,,S02,1,Male,33,anonymized,Serial_Dependence_U,2023.2.3,Win32,59.52380952,,,,,,,,,,,,1555.3279,5.0,1555.3292,,,,1558.2856,1558.777,1557.768,1558.2855,1556.3587,152.0,1557.7678,1558.777,1559.3295,1559.3297,1561.6816,296.7,1561.6831,1.0,1562.7287,5.0,5.0,155.0,23.0,1.0,1.4,0.3,Time
,,S02,1,Male,33,anonymized,Serial_Dependence_U,2023.2.3,Win32,59.52380952,,,,,,,,,,,,1562.7296,5.0,1562.7303,,,,1565.1176,1565.6113,1564.6026,1565.1175,1563.7653,317.0,1564.6022,1565.6114,1566.032,1566.0321,1566.6127,503.8000001,1566.6131,1.0,1567.6073,5.0,6.0,156.0,10.0,1.0,0.8,0.3,Time
,,S02,1,Male,33,anonymized,Serial_Dependence_U,2023.2.3,Win32,59.52380952,,,,,,,,,,,,1567.6082,5.0,1567.6089,,,,1570.6025,1571.0692,1570.0602,1570.6022,1568.6435,340.0,1570.06,1571.0695,1571.5737,1571.5737,1573.0129,252.8,1573.0131,1.0,1574.0091,5.0,7.0,157.0,18.0,1.0,1.4,0.7,Time
,,S02,1,Male,33,anonymized,Serial_Dependence_U,2023.2.3,Win32,59.52380952,,,,,,,,,,,,1574.0104,5.0,1574.0113,,,,1577.2158,1577.7529,1576.6868,1577.2155,1575.0397,306.0,1576.6868,1577.7529,1578.2494,1578.2495,1581.2159,364.7,1581.2166,1.0,1582.2103,5.0,8.0,158.0,4.0,1.0,1.6,0.3,Time
,,S02,1,Male,33,anonymized,Serial_Dependence_U,2023.2.3,Win32,59.52380952,,,,,,,,,,,,1582.2122,5.0,1582.2127,,,,1585.2333,1585.7079,1584.6646,1585.2332,1583.2096,23.0,1584.6644,1585.7079,1586.173,1586.1731,1591.2068,420.5,1591.2076,1.0,1592.2065,5.0,9.0,159.0,28.0,1.0,1.4,0.7,Time
,,S02,1,Male,33,anonymized,Serial_Dependence_U,2023.2.3,Win32,59.52380952,,,,,,,,,,,,1592.2076,5.0,1592.2082,,,,1595.1013,1595.592,1594.5259,1595.1011,1593.2602,322.0,1594.5258,1595.5923,1596.0314,1596.0317,1598.8464,324.3000001,1598.8474,1.0,1599.8408,5.0,10.0,160.0,22.0,1.0,1.2,0.3,Time
,,S02,1,Male,33,anonymized,Serial_Dependence_U,2023.2.3,Win32,59.52380952,,,,,,,,,,,,1599.8438,5.0,1599.8443,,,,1602.5105,1602.9889,1601.9247,1602.5102,1600.8865,16.0,1601.9246,1602.9889,1603.5027,1603.5028,1605.3921,380.6,1605.3925,1.0,1606.3644,5.0,11.0,161.0,1.0,1.0,1.0,0.3,Time
,,S02,1,Male,33,anonymized,Serial_Dependence_U,2023.2.3,Win32,59.52380952,,,,,,,,,,,,1606.3659,5.0,1606.3664,,,,1609.4175,1609.8393,1608.8526,1609.4172,1607.3899,266.0,1608.8523,1609.8395,1610.3098,1610.3099,1610.4379,98.39999998,1610.4422,1.0,1611.4661,5.0,12.0,162.0,8.0,1.0,1.4,0.7,Time
,,S02,1,Male,33,anonymized,Serial_Dependence_U,2023.2.3,Win32,59.52380952,,,,,,,,,,,,1611.4674,5.0,1611.468,,,,1614.101,1614.5706,1613.547,1614.1008,1612.5109,271.0,1613.5469,1614.5707,1615.085,1615.0851,1618.7377,576.9000001,1618.738,1.0,1619.7362,5.0,13.0,163.0,21.0,1.0,1.0,0.3,Time
,,S02,1,Male,33,anonymized,Serial_Dependence_U,2023.2.3,Win32,59.52380952,,,,,,,,,,,,1619.7372,5.0,1619.74,,,,1622.3399,1622.8729,1621.807,1622.3397,1620.7474,352.0,1621.8066,1622.8729,1623.386,1623.386,1625.1866,1237.8,1625.187,4.0,1626.1387,5.0,14.0,164.0,6.0,1.0,1.0,0.7,Time
,,S02,1,Male,33,anonymized,Serial_Dependence_U,2023.2.3,Win32,59.52380952,,,,,,,,,,,,1626.1397,5.0,1626.1406,,,,1628.7586,1629.2536,1628.2367,1628.7584,1627.1925,338.0,1628.2365,1629.2537,1629.7971,1629.7972,1632.002,1413.9,1632.003,5.0,1633.0215,5.0,15.0,165.0,16.0,1.0,1.0,0.7,Time
,,S02,1,Male,33,anonymized,Serial_Dependence_U,2023.2.3,Win32,59.52380952,,,,,,,,,,,,1633.0235,5.0,1633.024,,,,1635.7421,1636.2281,1635.2212,1635.742,1634.0095,85.0,1635.2211,1636.2282,1636.7188,1636.7188,1639.9583,504.7,1639.9587,1.0,1640.9525,5.0,16.0,166.0,12.0,1.0,1.2,0.3,Time
,,S02,1,Male,33,anonymized,Serial_Dependence_U,2023.2.3,Win32,59.52380952,,,,,,,,,,,,1640.9544,5.0,1640.9551,,,,1644.1411,1644.6324,1643.6223,1644.141,1642.0065,269.0,1643.6216,1644.6325,1645.1654,1645.1656,1649.3786,361.1,1649.3791,1.0,1650.4203,5.0,17.0,167.0,14.0,1.0,1.6,0.3,Time
,,S02,1,Male,33,anonymized,Serial_Dependence_U,2023.2.3,Win32,59.52380952,,,,,,,,,,,,1650.4215,5.0,1650.4221,,,,1652.8722,1653.3263,1652.3186,1652.872,1651.4525,65.0,1652.3184,1653.3263,1653.8519,1653.852,1654.4943,339.4000001,1654.4952,1.0,1655.4732,5.0,18.0,168.0,20.0,1.0,0.8,0.3,Time
,,S02,1,Male,33,anonymized,Serial_Dependence_U,2023.2.3,Win32,59.52380952,,,,,,,,,,,,1655.475,5.0,1655.4755,,,,1657.9142,1658.4522,1657.3761,1657.9141,1656.5558,334.0,1657.3759,1658.4522,1658.9214,1658.9216,1661.3249,413.1,1661.3254,1.0,1662.3075,5.0,19.0,169.0,5.0,1.0,0.8,0.7,Time
,,S02,1,Male,33,anonymized,Serial_Dependence_U,2023.2.3,Win32,59.52380952,,,,,,,,,,,,1662.3091,5.0,1662.31,,,,1664.9588,1665.5137,1664.378,1664.9588,1663.3664,275.0,1664.3779,1665.5138,1665.9792,1665.9793,1669.1459,285.6,1669.1464,1.0,1670.1434,5.0,20.0,170.0,11.0,1.0,1.0,0.3,Time
,,S02,1,Male,33,anonymized,Serial_Dependence_U,2023.2.3,Win32,59.52380952,,,,,,,,,,,,1670.1459,5.0,1670.147,,,,1673.2744,1673.7744,1672.7554,1673.2742,1671.1372,338.0,1672.7552,1673.7745,1674.2566,1674.2568,1674.8659,226.3,1674.8664,1.0,1675.9017,5.0,21.0,171.0,24.0,1.0,1.6,0.3,Time
,,S02,1,Male,33,anonymized,Serial_Dependence_U,2023.2.3,Win32,59.52380952,,,,,,,,,,,,1675.9026,5.0,1675.9034,,,,1678.7579,1679.2651,1678.1978,1678.7578,1676.9778,61.0,1678.1976,1679.2652,1679.7286,1679.7287,1682.0954,134.4,1682.0958,1.0,1683.0604,5.0,22.0,172.0,27.0,1.0,1.2,0.7,Time
,,S02,1,Male,33,anonymized,Serial_Dependence_U,2023.2.3,Win32,59.52380952,,,,,,,,,,,,1683.062,5.0,1683.0632,,,,1686.0258,1686.5357,1685.5148,1686.0256,1684.1035,119.0,1685.5146,1686.536,1687.0264,1687.0265,1689.1922,1190.2,1689.1927,2.0,1690.2122,5.0,23.0,173.0,3.0,1.0,1.4,0.3,Time
,,S02,1,Male,33,anonymized,Serial_Dependence_U,2023.2.3,Win32,59.52380952,,,,,,,,,,,,1690.213,5.0,1690.2135,,,,1692.8544,1693.3197,1692.3033,1692.8543,1691.2451,96.0,1692.3031,1693.3197,1693.8264,1693.8265,1694.8877,777.3,1694.8882,2.0,1695.9004,5.0,24.0,174.0,26.0,1.0,1.0,0.7,Time
,,S02,1,Male,33,anonymized,Serial_Dependence_U,2023.2.3,Win32,59.52380952,,,,,,,,,,,,1695.9014,5.0,1695.9018,,,,1698.9137,1699.4125,1698.37,1698.9135,1696.9486,291.0,1698.3695,1699.4128,1699.9294,1699.9294,1702.1951,530.5999999,1702.1971,1.0,1703.1821,5.0,25.0,175.0,13.0,1.0,1.4,0.3,Time
,,S02,1,Male,33,anonymized,Serial_Dependence_U,2023.2.3,Win32,59.52380952,,,,,,,,,,,,1703.183,5.0,1703.1836,,,,1705.6092,1706.0892,1705.0828,1705.6091,1704.2274,71.0,1705.0827,1706.0893,1706.5824,1706.5824,1706.8967,202.8,1706.8977,1.0,1707.8696,5.0,26.0,176.0,25.0,1.0,0.8,0.7,Time
,,S02,1,Male,33,anonymized,Serial_Dependence_U,2023.2.3,Win32,59.52380952,,,,,,,,,,,,1707.8704,5.0,1707.871,,,,1710.763,1711.2253,1710.2024,1710.7629,1708.9696,258.0,1710.2022,1711.2254,1711.7087,1711.7088,1714.1653,855.8,1714.1662,2.0,1715.1164,5.0,27.0,177.0,7.0,1.0,1.2,0.7,Time
,,S02,1,Male,33,anonymized,Serial_Dependence_U,2023.2.3,Win32,59.52380952,,,,,,,,,,,,1715.1201,5.0,1715.1207,,,,1718.326,1718.8159,1717.7947,1718.3258,1716.1215,264.0,1717.7945,1718.8159,1719.3262,1719.3266,1721.5686,664.7,1721.5696,1.0,1722.563,5.0,28.0,178.0,29.0,1.0,1.6,0.7,Time
,,S02,1,Male,33,anonymized,Serial_Dependence_U,2023.2.3,Win32,59.52380952,,,,,,,,,,,,1722.5639,5.0,1722.5643,,,,1725.3209,1725.7744,1724.768,1725.3208,1723.5362,331.0,1724.7678,1725.7745,1726.2527,1726.2528,1726.7053,209.4,1726.7057,1.0,1727.6541,5.0,29.0,179.0,17.0,1.0,1.2,0.7,Time
,,S02,1,Male,33,anonymized,Serial_Dependence_U,2023.2.3,Win32,59.52380952,,,,,,,,,,,,1727.6555,6.0,1731.1007,s,3.3588,,1733.6597,1734.1156,1733.1321,1733.6596,1732.0983,291.0,1733.1318,1734.1157,1734.6461,1734.6462,1735.5442,493.5,1735.5451,1.0,1736.5142,6.0,0.0,180.0,26.0,1.0,1.0,0.7,Time
,,S02,1,Male,33,anonymized,Serial_Dependence_U,2023.2.3,Win32,59.52380952,,,,,,,,,,,,1736.5154,6.0,1736.5209,,,,1739.3666,1739.8541,1738.8505,1739.3665,1737.5786,208.0,1738.8504,1739.8542,1740.3553,1740.3555,1741.2322,594.4,1741.2326,1.0,1742.2231,6.0,1.0,181.0,27.0,1.0,1.2,0.7,Time
,,S02,1,Male,33,anonymized,Serial_Dependence_U,2023.2.3,Win32,59.52380952,,,,,,,,,,,,1742.2239,6.0,1742.2245,,,,1745.0364,1745.5106,1744.5251,1745.0363,1743.2802,223.0,1744.525,1745.5106,1746.0512,1746.0514,1748.3713,975.8,1748.3718,2.0,1749.3886,6.0,2.0,182.0,12.0,1.0,1.2,0.3,Time
,,S02,1,Male,33,anonymized,Serial_Dependence_U,2023.2.3,Win32,59.52380952,,,,,,,,,,,,1749.3896,6.0,1749.3901,,,,1752.2795,1752.7569,1751.7175,1752.2793,1750.4452,113.0,1751.7174,1752.757,1753.2252,1753.2253,1756.3638,1290.4,1756.3642,4.0,1757.388,6.0,3.0,183.0,2.0,1.0,1.2,0.3,Time
,,S02,1,Male,33,anonymized,Serial_Dependence_U,2023.2.3,Win32,59.52380952,,,,,,,,,,,,1757.3889,6.0,1757.3895,,,,1760.3574,1760.8396,1759.8345,1760.3573,1758.3999,60.0,1759.8343,1760.8396,1761.3252,1761.3254,1763.9887,736.4,1763.9891,1.0,1764.978,6.0,4.0,184.0,23.0,1.0,1.4,0.3,Time
,,S02,1,Male,33,anonymized,Serial_Dependence_U,2023.2.3,Win32,59.52380952,,,,,,,,,,,,1764.9793,6.0,1764.9808,,,,1767.9226,1768.3969,1767.3979,1767.9225,1765.9805,185.0,1767.3975,1768.3971,1768.8711,1768.8712,1769.0449,102.6999999,1769.0458,1.0,1770.0453,6.0,5.0,185.0,13.0,1.0,1.4,0.3,Time
,,S02,1,Male,33,anonymized,Serial_Dependence_U,2023.2.3,Win32,59.52380952,,,,,,,,,,,,1770.0461,6.0,1770.0467,,,,1772.4629,1772.9959,1771.9258,1772.4628,1771.0886,264.0,1771.9257,1772.9961,1773.4503,1773.4504,1775.1317,731.9,1775.1323,2.0,1776.1272,6.0,6.0,186.0,25.0,1.0,0.8,0.7,Time
,,S02,1,Male,33,anonymized,Serial_Dependence_U,2023.2.3,Win32,59.52380952,,,,,,,,,,,,1776.1285,6.0,1776.129,,,,1778.7533,1779.242,1778.2493,1778.7532,1777.2158,133.0,1778.249,1779.2421,1779.7254,1779.7254,1782.9918,1947.1,1782.9929,5.0,1784.0634,6.0,7.0,187.0,16.0,1.0,1.0,0.7,Time
,,S02,1,Male,33,anonymized,Serial_Dependence_U,2023.2.3,Win32,59.52380952,,,,,,,,,,,,1784.0648,6.0,1784.0654,,,,1787.0759,1787.5826,1786.5178,1787.0758,1785.0876,283.0,1786.5177,1787.5827,1788.085,1788.0851,1789.4257,1019.0,1789.4262,2.0,1790.4279,6.0,8.0,188.0,3.0,1.0,1.4,0.3,Time
,,S02,1,Male,33,anonymized,Serial_Dependence_U,2023.2.3,Win32,59.52380952,,,,,,,,,,,,1790.4304,6.0,1790.4309,,,,1793.6643,1794.1521,1793.1552,1793.6642,1791.4806,324.0,1793.1549,1794.1523,1794.6806,1794.6807,1795.8158,694.3,1795.8174,1.0,1796.8094,6.0,9.0,189.0,29.0,1.0,1.6,0.7,Time
,,S02,1,Male,33,anonymized,Serial_Dependence_U,2023.2.3,Win32,59.52380952,,,,,,,,,,,,1796.8113,6.0,1796.8121,,,,1799.2536,1799.797,1798.7462,1799.2534,1797.8885,20.0,1798.7461,1799.7971,1800.2759,1800.2759,1801.5322,1034.0,1801.5326,4.0,1802.4972,6.0,10.0,190.0,0.0,1.0,0.8,0.3,Time
,,S02,1,Male,33,anonymized,Serial_Dependence_U,2023.2.3,Win32,59.52380952,,,,,,,,,,,,1802.4981,6.0,1802.4989,,,,1805.7641,1806.25,1805.1836,1805.7638,1803.5462,61.0,1805.1834,1806.25,1806.7005,1806.7006,1808.791,1344.8,1808.7914,2.0,1809.743,6.0,11.0,191.0,19.0,1.0,1.6,0.7,Time
,,S02,1,Male,33,anonymized,Serial_Dependence_U,2023.2.3,Win32,59.52380952,,,,,,,,,,,,1809.7438,6.0,1809.7443,,,,1812.4968,1812.9862,1811.9355,1812.4965,1810.693,26.0,1811.9353,1812.9862,1813.4581,1813.4581,1813.9504,446.1,1813.9513,1.0,1814.9422,6.0,12.0,192.0,22.0,1.0,1.2,0.3,Time
,,S02,1,Male,33,anonymized,Serial_Dependence_U,2023.2.3,Win32,59.52380952,,,,,,,,,,,,1814.9437,6.0,1814.9447,,,,1817.6476,1818.1463,1817.1403,1817.6474,1816.0829,93.0,1817.1401,1818.1464,1818.6291,1818.6292,1820.3486,1373.8,1820.3491,5.0,1821.3296,6.0,13.0,193.0,1.0,1.0,1.0,0.3,Time
,,S02,1,Male,33,anonymized,Serial_Dependence_U,2023.2.3,Win32,59.52380952,,,,,,,,,,,,1821.3306,6.0,1821.3311,,,,1824.553,1825.0587,1823.9939,1824.5529,1822.3836,223.0,1823.9936,1825.0587,1825.5914,1825.5915,1826.0753,430.5,1826.076,1.0,1827.0546,6.0,14.0,194.0,4.0,1.0,1.6,0.3,Time
,,S02,1,Male,33,anonymized,Serial_Dependence_U,2023.2.3,Win32,59.52380952,,,,,,,,,,,,1827.0561,6.0,1827.0567,,,,1829.5365,1830.0169,1829.0201,1829.5364,1828.1393,224.0,1829.0199,1830.017,1830.4845,1830.4845,1830.8344,293.0,1830.8358,1.0,1831.8044,6.0,15.0,195.0,15.0,1.0,0.8,0.7,Time
,,S02,1,Male,33,anonymized,Serial_Dependence_U,2023.2.3,Win32,59.52380952,,,,,,,,,,,,1831.8059,6.0,1831.8065,,,,1834.7838,1835.2946,1834.268,1834.7836,1832.85,348.0,1834.2678,1835.2946,1835.7861,1835.7862,1837.5888,1443.4,1837.5894,3.0,1838.6087,6.0,16.0,196.0,28.0,1.0,1.4,0.7,Time
,,S02,1,Male,33,anonymized,Serial_Dependence_U,2023.2.3,Win32,59.52380952,,,,,,,,,,,,1838.6099,6.0,1838.6104,,,,1841.201,1841.7236,1840.684,1841.2009,1839.6612,11.0,1840.6839,1841.7237,1842.2407,1842.241,1843.4035,920.5,1843.4039,2.0,1844.4033,6.0,17.0,197.0,21.0,1.0,1.0,0.3,Time
,,S02,1,Male,33,anonymized,Serial_Dependence_U,2023.2.3,Win32,59.52380952,,,,,,,,,,,,1844.4046,6.0,1844.4051,,,,1846.7951,1847.2778,1846.2075,1846.7923,1845.3624,340.0,1846.2074,1847.2778,1847.7574,1847.7575,1848.4693,579.5,1848.4703,2.0,1849.4461,6.0,18.0,198.0,5.0,1.0,0.8,0.7,Time
,,S02,1,Male,33,anonymized,Serial_Dependence_U,2023.2.3,Win32,59.52380952,,,,,,,,,,,,1849.4481,6.0,1849.4489,,,,1852.2909,1852.7803,1851.732,1852.2907,1850.4924,353.0,1851.7319,1852.7804,1853.3169,1853.3169,1853.4309,1.200000048,1853.4323,1.0,1854.4097,6.0,19.0,199.0,7.0,1.0,1.2,0.7,Time
,,S02,1,Male,33,anonymized,Serial_Dependence_U,2023.2.3,Win32,59.52380952,,,,,,,,,,,,1854.411,6.0,1854.4115,,,,1857.0226,1857.493,1856.4631,1857.0225,1855.4386,102.0,1856.463,1857.493,1857.9939,1857.994,1858.3946,326.6,1858.3952,1.0,1859.3918,6.0,20.0,200.0,6.0,1.0,1.0,0.7,Time
,,S02,1,Male,33,anonymized,Serial_Dependence_U,2023.2.3,Win32,59.52380952,,,,,,,,,,,,1859.3942,6.0,1859.3946,,,,1861.9842,1862.5084,1861.4794,1861.9841,1860.4358,306.0,1861.4793,1862.5085,1863.021,1863.0211,1863.2095,83.10000002,1863.2107,1.0,1864.2206,6.0,21.0,201.0,11.0,1.0,1.0,0.3,Time
,,S02,1,Male,33,anonymized,Serial_Dependence_U,2023.2.3,Win32,59.52380952,,,,,,,,,,,,1864.2221,6.0,1864.2228,,,,1866.6736,1867.2031,1866.1161,1866.6733,1865.2669,215.0,1866.1159,1867.2032,1867.6827,1867.6828,1868.0861,364.6,1868.0875,1.0,1869.131,6.0,22.0,202.0,10.0,1.0,0.8,0.3,Time
,,S02,1,Male,33,anonymized,Serial_Dependence_U,2023.2.3,Win32,59.52380952,,,,,,,,,,,,1869.134,6.0,1869.1347,,,,1872.2983,1872.7941,1871.7795,1872.2982,1870.1625,234.0,1871.7794,1872.7941,1873.2664,1873.2666,1874.63,1281.9,1874.6303,2.0,1875.6448,6.0,23.0,203.0,14.0,1.0,1.6,0.3,Time
,,S02,1,Male,33,anonymized,Serial_Dependence_U,2023.2.3,Win32,59.52380952,,,,,,,,,,,,1875.6457,6.0,1875.6463,,,,1878.9263,1879.3707,1878.3913,1878.9261,1876.7239,274.0,1878.391,1879.3708,1879.8352,1879.8353,1881.1472,893.8,1881.1476,1.0,1882.1457,6.0,24.0,204.0,9.0,1.0,1.6,0.7,Time
,,S02,1,Male,33,anonymized,Serial_Dependence_U,2023.2.3,Win32,59.52380952,,,,,,,,,,,,1882.1485,6.0,1882.1491,,,,1885.1505,1885.6533,1884.5826,1885.1504,1883.1709,28.0,1884.5824,1885.6533,1886.101,1886.1011,1886.2141,89.89999998,1886.2186,1.0,1887.2155,6.0,25.0,205.0,18.0,1.0,1.4,0.7,Time
,,S02,1,Male,33,anonymized,Serial_Dependence_U,2023.2.3,Win32,59.52380952,,,,,,,,,,,,1887.2165,6.0,1887.2169,,,,1890.4456,1890.9516,1889.9119,1890.4455,1888.2688,67.0,1889.9118,1890.9517,1891.4646,1891.4646,1893.2103,1605.0,1893.2112,3.0,1894.1889,6.0,26.0,206.0,24.0,1.0,1.6,0.3,Time
,,S02,1,Male,33,anonymized,Serial_Dependence_U,2023.2.3,Win32,59.52380952,,,,,,,,,,,,1894.1904,6.0,1894.1911,,,,1896.9168,1897.3946,1896.3896,1896.9167,1895.1714,126.0,1896.3895,1897.3946,1897.8811,1897.8812,1898.5284,285.9,1898.5289,1.0,1899.5376,6.0,27.0,207.0,17.0,1.0,1.2,0.7,Time
,,S02,1,Male,33,anonymized,Serial_Dependence_U,2023.2.3,Win32,59.52380952,,,,,,,,,,,,1899.5387,6.0,1899.5393,,,,1902.0045,1902.5088,1901.4503,1902.0043,1900.5737,226.0,1901.4503,1902.5088,1903.0207,1903.0209,1905.2713,1875.1,1905.2721,5.0,1906.2486,6.0,28.0,208.0,20.0,1.0,0.8,0.3,Time
,,S02,1,Male,33,anonymized,Serial_Dependence_U,2023.2.3,Win32,59.52380952,,,,,,,,,,,,1906.2499,6.0,1906.2507,,,,1909.1781,1909.677,1908.6593,1909.1779,1907.2317,104.0,1908.6588,1909.677,1910.1546,1910.1548,1912.3442,1502.4,1912.3447,4.0,1913.3711,6.0,29.0,209.0,8.0,1.0,1.4,0.7,Time
,,S02,1,Male,33,anonymized,Serial_Dependence_U,2023.2.3,Win32,59.52380952,,,,,,,,,,,,1913.3737,7.0,1916.5106,s,3.0807,0.0006,1919.5424,1920.0267,1918.9687,1919.5401,1917.5517,307.0,1918.9685,1920.0268,1920.5301,1920.5302,1923.4349,580.6,1923.4354,1.0,1924.4139,7.0,0.0,210.0,28.0,1.0,1.4,0.7,Time
,,S02,1,Male,33,anonymized,Serial_Dependence_U,2023.2.3,Win32,59.52380952,,,,,,,,,,,,1924.4154,7.0,1924.4191,,,,1927.0907,1927.5959,1926.4914,1927.0905,1925.4492,292.0,1926.4911,1927.596,1928.1045,1928.1046,1930.114,744.2,1930.1154,2.0,1931.1101,7.0,1.0,211.0,1.0,1.0,1.0,0.3,Time
,,S02,1,Male,33,anonymized,Serial_Dependence_U,2023.2.3,Win32,59.52380952,,,,,,,,,,,,1931.112,7.0,1931.1124,,,,1933.7922,1934.2386,1933.29,1933.7921,1932.084,289.0,1933.2899,1934.2386,1934.7183,1934.7184,1936.6229,290.6,1936.6233,1.0,1937.5972,7.0,2.0,212.0,7.0,1.0,1.2,0.7,Time
,,S02,1,Male,33,anonymized,Serial_Dependence_U,2023.2.3,Win32,59.52380952,,,,,,,,,,,,1937.5991,7.0,1937.5997,,,,1940.2108,1940.6922,1939.694,1940.2107,1938.6327,336.0,1939.6938,1940.6922,1941.1718,1941.1719,1942.1057,526.8000001,1942.1071,1.0,1943.1144,7.0,3.0,213.0,26.0,1.0,1.0,0.7,Time
,,S02,1,Male,33,anonymized,Serial_Dependence_U,2023.2.3,Win32,59.52380952,,,,,,,,,,,,1943.1163,7.0,1943.117,,,,1946.3414,1946.8479,1945.8015,1946.3411,1944.1506,248.0,1945.8014,1946.8479,1947.3247,1947.3248,1948.5107,644.2,1948.5112,1.0,1949.5101,7.0,4.0,214.0,24.0,1.0,1.6,0.3,Time
,,S02,1,Male,33,anonymized,Serial_Dependence_U,2023.2.3,Win32,59.52380952,,,,,,,,,,,,1949.5116,7.0,1949.5126,,,,1952.6282,1953.1461,1952.1194,1952.6281,1950.4781,299.0,1952.1193,1953.1462,1953.6543,1953.6543,1954.3278,454.9000001,1954.3287,1.0,1955.341,7.0,5.0,215.0,19.0,1.0,1.6,0.7,Time
,,S02,1,Male,33,anonymized,Serial_Dependence_U,2023.2.3,Win32,59.52380952,,,,,,,,,,,,1955.3423,7.0,1955.3429,,,,1958.3991,1958.9201,1957.8794,1958.3989,1956.414,129.0,1957.8793,1958.9202,1959.4177,1959.4178,1959.8312,163.5999999,1959.8323,1.0,1960.843,7.0,6.0,216.0,23.0,1.0,1.4,0.3,Time
,,S02,1,Male,33,anonymized,Serial_Dependence_U,2023.2.3,Win32,59.52380952,,,,,,,,,,,,1960.8439,7.0,1960.8443,,,,1963.8735,1964.344,1963.2905,1963.8733,1961.8731,184.0,1963.2903,1964.3441,1964.8247,1964.8247,1965.4488,471.8000001,1965.4494,1.0,1966.4413,7.0,7.0,217.0,3.0,1.0,1.4,0.3,Time
,,S02,1,Male,33,anonymized,Serial_Dependence_U,2023.2.3,Win32,59.52380952,,,,,,,,,,,,1966.4428,7.0,1966.444,,,,1969.2674,1969.7513,1968.7058,1969.2672,1967.4841,62.0,1968.7056,1969.7514,1970.2541,1970.2543,1971.6583,614.8000001,1971.6652,1.0,1972.6531,7.0,8.0,218.0,12.0,1.0,1.2,0.3,Time
,,S02,1,Male,33,anonymized,Serial_Dependence_U,2023.2.3,Win32,59.52380952,,,,,,,,,,,,1972.6541,7.0,1972.6549,,,,1975.9102,1976.4078,1975.3309,1975.9101,1973.6908,131.0,1975.3307,1976.4079,1976.9025,1976.9025,1977.3904,417.8,1977.3907,1.0,1978.3884,7.0,9.0,219.0,4.0,1.0,1.6,0.3,Time
,,S02,1,Male,33,anonymized,Serial_Dependence_U,2023.2.3,Win32,59.52380952,,,,,,,,,,,,1978.3897,7.0,1978.3905,,,,1981.5774,1982.0559,1981.0602,1981.5753,1979.4573,190.0,1981.06,1982.0561,1982.5818,1982.5819,1984.5539,1224.7,1984.5543,2.0,1985.5998,7.0,10.0,220.0,29.0,1.0,1.6,0.7,Time
,,S02,1,Male,33,anonymized,Serial_Dependence_U,2023.2.3,Win32,59.52380952,,,,,,,,,,,,1985.6013,7.0,1985.6019,,,,1988.4053,1988.8749,1987.899,1988.4052,1986.6633,149.0,1987.8988,1988.8749,1989.3616,1989.3617,1989.8631,441.2,1989.8638,1.0,1990.8865,7.0,11.0,221.0,22.0,1.0,1.2,0.3,Time
,,S02,1,Male,33,anonymized,Serial_Dependence_U,2023.2.3,Win32,59.52380952,,,,,,,,,,,,1990.8875,7.0,1990.8881,,,,1993.41,1993.9316,1992.8336,1993.4098,1991.9498,115.0,1992.8335,1993.9317,1994.4414,1994.4415,1997.4228,1555.0,1997.4233,5.0,1998.441,7.0,12.0,222.0,15.0,1.0,0.8,0.7,Time
,,S02,1,Male,33,anonymized,Serial_Dependence_U,2023.2.3,Win32,59.52380952,,,,,,,,,,,,1998.4427,7.0,1998.4436,,,,2001.6593,2002.1761,2001.0762,2001.6589,1999.473,94.0,2001.0761,2002.1762,2002.6812,2002.6812,2003.0694,353.5,2003.0699,1.0,2004.0559,7.0,13.0,223.0,9.0,1.0,1.6,0.7,Time
,,S02,1,Male,33,anonymized,Serial_Dependence_U,2023.2.3,Win32,59.52380952,,,,,,,,,,,,2004.0573,7.0,2004.0584,,,,2006.8932,2007.4138,2006.3619,2006.893,2005.1098,108.0,2006.3617,2007.4139,2007.8795,2007.8796,2009.2914,333.6,2009.2923,1.0,2010.264,7.0,14.0,224.0,27.0,1.0,1.2,0.7,Time
,,S02,1,Male,33,anonymized,Serial_Dependence_U,2023.2.3,Win32,59.52380952,,,,,,,,,,,,2010.2653,7.0,2010.2658,,,,2012.7607,2013.2167,2012.1844,2012.7606,2011.3439,311.0,2012.1843,2013.2168,2013.7085,2013.7086,2017.1176,674.6,2017.1185,2.0,2018.1389,7.0,15.0,225.0,20.0,1.0,0.8,0.3,Time
,,S02,1,Male,33,anonymized,Serial_Dependence_U,2023.2.3,Win32,59.52380952,,,,,,,,,,,,2018.14,7.0,2018.1413,,,,2021.1347,2021.6621,2020.6222,2021.1346,2019.2049,153.0,2020.622,2021.6623,2022.093,2022.0932,2024.9521,346.9000001,2024.9524,1.0,2025.9473,7.0,16.0,226.0,18.0,1.0,1.4,0.7,Time
,,S02,1,Male,33,anonymized,Serial_Dependence_U,2023.2.3,Win32,59.52380952,,,,,,,,,,,,2025.9587,7.0,2025.9762,,,,2028.6628,2029.1747,2028.1483,2028.6626,2027.1164,222.0,2028.148,2029.1748,2029.6501,2029.6501,2031.0397,1105.5,2031.0403,4.0,2032.0404,7.0,17.0,227.0,6.0,1.0,1.0,0.7,Time
,,S02,1,Male,33,anonymized,Serial_Dependence_U,2023.2.3,Win32,59.52380952,,,,,,,,,,,,2032.0416,7.0,2032.0423,,,,2034.8946,2035.3854,2034.3237,2034.8945,2033.0475,15.0,2034.3235,2035.3854,2035.838,2035.8381,2037.2274,865.6999999,2037.2281,2.0,2038.197,7.0,18.0,228.0,17.0,1.0,1.2,0.7,Time
,,S02,1,Male,33,anonymized,Serial_Dependence_U,2023.2.3,Win32,59.52380952,,,,,,,,,,,,2038.1979,7.0,2038.1982,,,,2040.6147,2041.0908,2040.0692,2040.6145,2039.213,68.0,2040.0691,2041.0909,2041.6276,2041.6276,2043.0946,377.6,2043.095,1.0,2044.1367,7.0,19.0,229.0,5.0,1.0,0.8,0.7,Time
,,S02,1,Male,33,anonymized,Serial_Dependence_U,2023.2.3,Win32,59.52380952,,,,,,,,,,,,2044.1385,7.0,2044.1393,,,,2046.4965,2046.982,2045.9575,2046.4963,2045.1012,97.0,2045.9573,2046.982,2047.4825,2047.4826,2049.2069,625.9000001,2049.2072,2.0,2050.2359,7.0,20.0,230.0,10.0,1.0,0.8,0.3,Time
,,S02,1,Male,33,anonymized,Serial_Dependence_U,2023.2.3,Win32,59.52380952,,,,,,,,,,,,2050.2371,7.0,2050.2379,,,,2052.6801,2053.1405,2052.0909,2052.6798,2051.2359,269.0,2052.0908,2053.1405,2053.6582,2053.6583,2054.9229,1109.0,2054.9237,5.0,2055.9458,7.0,21.0,231.0,25.0,1.0,0.8,0.7,Time
,,S02,1,Male,33,anonymized,Serial_Dependence_U,2023.2.3,Win32,59.52380952,,,,,,,,,,,,2055.9474,7.0,2055.948,,,,2058.9607,2059.475,2058.4053,2058.9605,2056.9978,165.0,2058.4052,2059.4751,2059.9759,2059.976,2061.0254,768.8,2061.0271,1.0,2062.0079,7.0,22.0,232.0,13.0,1.0,1.4,0.3,Time
,,S02,1,Male,33,anonymized,Serial_Dependence_U,2023.2.3,Win32,59.52380952,,,,,,,,,,,,2062.0097,7.0,2062.0102,,,,2065.0167,2065.4972,2064.4497,2065.0166,2063.0449,17.0,2064.4495,2065.4973,2065.9747,2065.9748,2067.6657,597.1,2067.6693,1.0,2068.6596,7.0,23.0,233.0,8.0,1.0,1.4,0.7,Time
,,S02,1,Male,33,anonymized,Serial_Dependence_U,2023.2.3,Win32,59.52380952,,,,,,,,,,,,2068.6607,7.0,2068.6613,,,,2071.0234,2071.5134,2070.4986,2071.0233,2069.6341,261.0,2070.4983,2071.5135,2072.0302,2072.0303,2075.2131,740.5,2075.2136,2.0,2076.1889,7.0,24.0,234.0,0.0,1.0,0.8,0.3,Time
,,S02,1,Male,33,anonymized,Serial_Dependence_U,2023.2.3,Win32,59.52380952,,,,,,,,,,,,2076.1905,7.0,2076.1918,,,,2078.9365,2079.4595,2078.4229,2078.9362,2077.2099,9.0,2078.4228,2079.4595,2079.9798,2079.9799,2081.896,795.1,2081.8977,1.0,2082.9104,7.0,25.0,235.0,2.0,1.0,1.2,0.3,Time
,,S02,1,Male,33,anonymized,Serial_Dependence_U,2023.2.3,Win32,59.52380952,,,,,,,,,,,,2082.9118,7.0,2082.9131,,,,2086.0809,2086.6297,2085.5509,2086.0808,2083.8841,324.0,2085.5506,2086.6297,2087.1113,2087.1114,2087.3071,144.8,2087.3075,1.0,2088.3288,7.0,26.0,236.0,14.0,1.0,1.6,0.3,Time
,,S02,1,Male,33,anonymized,Serial_Dependence_U,2023.2.3,Win32,59.52380952,,,,,,,,,,,,2088.3327,7.0,2088.3335,,,,2090.862,2091.3756,2090.3309,2090.8619,2089.311,158.0,2090.3307,2091.3757,2091.8695,2091.8696,2093.6727,957.5999999,2093.6731,3.0,2094.6507,7.0,27.0,237.0,21.0,1.0,1.0,0.3,Time
,,S02,1,Male,33,anonymized,Serial_Dependence_U,2023.2.3,Win32,59.52380952,,,,,,,,,,,,2094.6521,7.0,2094.6528,,,,2097.2699,2097.746,2096.7426,2097.2698,2095.7255,195.0,2096.7425,2097.746,2098.2096,2098.2097,2098.5747,270.1999999,2098.5775,1.0,2099.6333,7.0,28.0,238.0,11.0,1.0,1.0,0.3,Time
,,S02,1,Male,33,anonymized,Serial_Dependence_U,2023.2.3,Win32,59.52380952,,,,,,,,,,,,2099.6342,7.0,2099.6358,,,,2102.2391,2102.7306,2101.7127,2102.2389,2100.6866,306.0,2101.7125,2102.7307,2103.2026,2103.2026,2105.5941,546.8,2105.5945,1.0,2106.5649,7.0,29.0,239.0,16.0,1.0,1.0,0.7,Time
,,S02,1,Male,33,anonymized,Serial_Dependence_U,2023.2.3,Win32,59.52380952,,,,,,,,,,,,2106.5661,8.0,2116.6764,s,10.0183,0.0003,2119.4318,2119.9033,2118.929,2119.4317,2117.7147,344.0,2118.9288,2119.9033,2120.4243,2120.4243,2123.3498,996.4,2123.3506,2.0,2124.3814,8.0,0.0,240.0,12.0,1.0,1.2,0.3,Time
,,S02,1,Male,33,anonymized,Serial_Dependence_U,2023.2.3,Win32,59.52380952,,,,,,,,,,,,2124.3832,8.0,2124.3862,,,,2127.2377,2127.7327,2126.6774,2127.2375,2125.4156,355.0,2126.6772,2127.7328,2128.2164,2128.2166,2128.9128,317.0999999,2128.9163,1.0,2129.9608,8.0,1.0,241.0,2.0,1.0,1.2,0.3,Time
,,S02,1,Male,33,anonymized,Serial_Dependence_U,2023.2.3,Win32,59.52380952,,,,,,,,,,,,2129.9617,8.0,2129.9622,,,,2133.0555,2133.5697,2132.5379,2133.0554,2130.9335,48.0,2132.5356,2133.5697,2134.1536,2134.1536,2134.9623,551.1,2134.9633,1.0,2135.9333,8.0,2.0,242.0,4.0,1.0,1.6,0.3,Time
,,S02,1,Male,33,anonymized,Serial_Dependence_U,2023.2.3,Win32,59.52380952,,,,,,,,,,,,2135.9341,8.0,2135.9346,,,,2139.0438,2139.5182,2138.5183,2139.0436,2136.9135,246.0,2138.5181,2139.5182,2139.9651,2139.9651,2142.4178,1249.7,2142.4186,2.0,2143.4042,8.0,3.0,243.0,9.0,1.0,1.6,0.7,Time
,,S02,1,Male,33,anonymized,Serial_Dependence_U,2023.2.3,Win32,59.52380952,,,,,,,,,,,,2143.4049,8.0,2143.4055,,,,2146.3982,2146.8473,2145.8547,2146.3981,2144.4005,251.0,2145.8544,2146.8474,2147.3623,2147.3625,2148.8919,687.8,2148.8922,1.0,2149.8909,8.0,4.0,244.0,13.0,1.0,1.4,0.3,Time
,,S02,1,Male,33,anonymized,Serial_Dependence_U,2023.2.3,Win32,59.52380952,,,,,,,,,,,,2149.8926,8.0,2149.8934,,,,2153.1184,2153.6093,2152.5324,2153.1183,2150.8959,81.0,2152.5323,2153.6094,2154.0944,2154.0945,2155.2669,296.1,2155.2691,1.0,2156.2757,8.0,5.0,245.0,19.0,1.0,1.6,0.7,Time
,,S02,1,Male,33,anonymized,Serial_Dependence_U,2023.2.3,Win32,59.52380952,,,,,,,,,,,,2156.2772,8.0,2156.2781,,,,2159.2967,2159.7999,2158.7801,2159.2961,2157.3586,265.0,2158.7799,2159.8,2160.2633,2160.2634,2162.7876,533.6999999,2162.7881,1.0,2163.7561,8.0,6.0,246.0,3.0,1.0,1.4,0.3,Time
,,S02,1,Male,33,anonymized,Serial_Dependence_U,2023.2.3,Win32,59.52380952,,,,,,,,,,,,2163.7572,8.0,2163.758,,,,2166.175,2166.6424,2165.613,2166.1749,2164.7944,159.0,2165.6129,2166.6425,2167.1568,2167.1569,2169.2822,772.8000001,2169.2831,3.0,2170.2616,8.0,7.0,247.0,20.0,1.0,0.8,0.3,Time
,,S02,1,Male,33,anonymized,Serial_Dependence_U,2023.2.3,Win32,59.52380952,,,,,,,,,,,,2170.2624,8.0,2170.263,,,,2172.7963,2173.2885,2172.2833,2172.7961,2171.2706,158.0,2172.2831,2173.2887,2173.772,2173.7721,2177.7554,2538.1,2177.756,5.0,2178.7295,8.0,8.0,248.0,1.0,1.0,1.0,0.3,Time
,,S02,1,Male,33,anonymized,Serial_Dependence_U,2023.2.3,Win32,59.52380952,,,,,,,,,,,,2178.7312,8.0,2178.732,,,,2181.0497,2181.5407,2180.535,2181.0463,2179.7089,151.0,2180.5348,2181.5408,2182.0079,2182.008,2183.7505,506.4,2183.751,1.0,2184.6918,8.0,9.0,249.0,15.0,1.0,0.8,0.7,Time
,,S02,1,Male,33,anonymized,Serial_Dependence_U,2023.2.3,Win32,59.52380952,,,,,,,,,,,,2184.6931,8.0,2184.694,,,,2187.6651,2188.1867,2187.121,2187.6649,2185.6589,327.0,2187.1209,2188.1868,2188.6641,2188.6642,2192.463,436.0,2192.4661,1.0,2193.4476,8.0,10.0,250.0,28.0,1.0,1.4,0.7,Time
,,S02,1,Male,33,anonymized,Serial_Dependence_U,2023.2.3,Win32,59.52380952,,,,,,,,,,,,2193.4484,8.0,2193.4489,,,,2195.8118,2196.3075,2195.2799,2195.8117,2194.4466,100.0,2195.2797,2196.3075,2196.7773,2196.7774,2198.5903,771.1,2198.5911,3.0,2199.6061,8.0,11.0,251.0,0.0,1.0,0.8,0.3,Time
,,S02,1,Male,33,anonymized,Serial_Dependence_U,2023.2.3,Win32,59.52380952,,,,,,,,,,,,2199.607,8.0,2199.6075,,,,2202.621,2203.1587,2202.0785,2202.6208,2200.6376,35.0,2202.0782,2203.1588,2203.6644,2203.6645,2209.3373,751.5,2209.3383,1.0,2210.3678,8.0,12.0,252.0,18.0,1.0,1.4,0.7,Time
,,S02,1,Male,33,anonymized,Serial_Dependence_U,2023.2.3,Win32,59.52380952,,,,,,,,,,,,2210.3695,8.0,2210.3707,,,,2212.7194,2213.1752,2212.2097,2212.7193,2211.3992,18.0,2212.2095,2213.1753,2213.688,2213.6881,2217.0215,1493.5,2217.0219,5.0,2218.04,8.0,13.0,253.0,10.0,1.0,0.8,0.3,Time
,,S02,1,Male,33,anonymized,Serial_Dependence_U,2023.2.3,Win32,59.52380952,,,,,,,,,,,,2218.0414,8.0,2218.0418,,,,2220.4094,2220.9019,2219.8976,2220.4092,2219.0652,111.0,2219.8975,2220.9022,2221.4196,2221.4197,2222.9842,1342.4,2222.9881,5.0,2223.9889,8.0,14.0,254.0,25.0,1.0,0.8,0.7,Time
,,S02,1,Male,33,anonymized,Serial_Dependence_U,2023.2.3,Win32,59.52380952,,,,,,,,,,,,2223.9899,8.0,2223.9903,,,,2226.6231,2227.0983,2226.1007,2226.6229,2225.0263,98.0,2226.1005,2227.0984,2227.5864,2227.5865,2229.5521,809.2,2229.5535,2.0,2230.5299,8.0,15.0,255.0,26.0,1.0,1.0,0.7,Time
,,S02,1,Male,33,anonymized,Serial_Dependence_U,2023.2.3,Win32,59.52380952,,,,,,,,,,,,2230.5311,8.0,2230.5326,,,,2232.9267,2233.4381,2232.3993,2232.9267,2231.5796,70.0,2232.3973,2233.4381,2233.9135,2233.9135,2235.2236,723.1999999,2235.224,2.0,2236.1818,8.0,16.0,256.0,5.0,1.0,0.8,0.7,Time
,,S02,1,Male,33,anonymized,Serial_Dependence_U,2023.2.3,Win32,59.52380952,,,,,,,,,,,,2236.1842,8.0,2236.1854,,,,2239.3448,2239.8438,2238.7855,2239.3447,2237.156,139.0,2238.7854,2239.844,2240.3265,2240.3266,2243.0174,490.8,2243.0178,1.0,2243.9748,8.0,17.0,257.0,14.0,1.0,1.6,0.3,Time
,,S02,1,Male,33,anonymized,Serial_Dependence_U,2023.2.3,Win32,59.52380952,,,,,,,,,,,,2243.9756,8.0,2243.976,,,,2247.2989,2247.8259,2246.7809,2247.2988,2245.1213,187.0,2246.7808,2247.8259,2248.3013,2248.3013,2248.5611,130.2,2248.5619,1.0,2249.5442,8.0,18.0,258.0,24.0,1.0,1.6,0.3,Time
,,S02,1,Male,33,anonymized,Serial_Dependence_U,2023.2.3,Win32,59.52380952,,,,,,,,,,,,2249.5461,8.0,2249.5469,,,,2252.5073,2253.0238,2251.9825,2252.5071,2250.5567,103.0,2251.9824,2253.0238,2253.4987,2253.4988,2256.9669,507.1,2256.9673,1.0,2257.9734,8.0,19.0,259.0,23.0,1.0,1.4,0.3,Time
,,S02,1,Male,33,anonymized,Serial_Dependence_U,2023.2.3,Win32,59.52380952,,,,,,,,,,,,2257.9746,8.0,2257.9754,,,,2260.8484,2261.323,2260.283,2260.8481,2259.0479,350.0,2260.2827,2261.323,2261.7967,2261.7969,2263.3284,281.3,2263.3288,1.0,2264.3034,8.0,20.0,260.0,27.0,1.0,1.2,0.7,Time
,,S02,1,Male,33,anonymized,Serial_Dependence_U,2023.2.3,Win32,59.52380952,,,,,,,,,,,,2264.3044,8.0,2264.3051,,,,2267.1812,2267.7069,2266.6296,2267.181,2265.405,357.0,2266.6295,2267.707,2268.2115,2268.2117,2269.9503,436.6,2269.9506,1.0,2270.9111,8.0,21.0,261.0,17.0,1.0,1.2,0.7,Time
,,S02,1,Male,33,anonymized,Serial_Dependence_U,2023.2.3,Win32,59.52380952,,,,,,,,,,,,2270.9124,8.0,2270.9135,,,,2274.1083,2274.6208,2273.6013,2274.1081,2271.9605,3.0,2273.6012,2274.6209,2275.0981,2275.0982,2276.2475,817.2,2276.2481,1.0,2277.2183,8.0,22.0,262.0,29.0,1.0,1.6,0.7,Time
,,S02,1,Male,33,anonymized,Serial_Dependence_U,2023.2.3,Win32,59.52380952,,,,,,,,,,,,2277.2195,8.0,2277.2204,,,,2279.98,2280.481,2279.4393,2279.9799,2278.2037,51.0,2279.4392,2280.4811,2280.9828,2280.9828,2281.1372,82.89999998,2281.1384,1.0,2282.1124,8.0,23.0,263.0,7.0,1.0,1.2,0.7,Time
,,S02,1,Male,33,anonymized,Serial_Dependence_U,2023.2.3,Win32,59.52380952,,,,,,,,,,,,2282.1146,8.0,2282.1152,,,,2285.0783,2285.5868,2284.5519,2285.0782,2283.1345,315.0,2284.5516,2285.5868,2286.0793,2286.0795,2287.1865,786.9,2287.1869,1.0,2288.1938,8.0,24.0,264.0,8.0,1.0,1.4,0.7,Time
,,S02,1,Male,33,anonymized,Serial_Dependence_U,2023.2.3,Win32,59.52380952,,,,,,,,,,,,2288.195,8.0,2288.1957,,,,2290.8022,2291.3334,2290.279,2290.8021,2289.256,76.0,2290.2789,2291.3335,2291.8387,2291.8387,2292.0352,164.4000001,2292.0361,1.0,2293.0369,8.0,25.0,265.0,11.0,1.0,1.0,0.3,Time
,,S02,1,Male,33,anonymized,Serial_Dependence_U,2023.2.3,Win32,59.52380952,,,,,,,,,,,,2293.0383,8.0,2293.0389,,,,2295.5646,2296.0933,2295.038,2295.5645,2294.0139,214.0,2295.0379,2296.0933,2296.5573,2296.5574,2297.0883,460.9,2297.0887,1.0,2298.0493,8.0,26.0,266.0,16.0,1.0,1.0,0.7,Time
,,S02,1,Male,33,anonymized,Serial_Dependence_U,2023.2.3,Win32,59.52380952,,,,,,,,,,,,2298.0514,8.0,2298.0521,,,,2300.8591,2301.3575,2300.3432,2300.8539,2299.1295,245.0,2300.343,2301.3576,2301.8355,2301.8357,2302.5923,259.3000001,2302.5926,1.0,2303.5962,8.0,27.0,267.0,22.0,1.0,1.2,0.3,Time
,,S02,1,Male,33,anonymized,Serial_Dependence_U,2023.2.3,Win32,59.52380952,,,,,,,,,,,,2303.5974,8.0,2303.598,,,,2306.2461,2306.7345,2305.6814,2306.2459,2304.6571,188.0,2305.6812,2306.7345,2307.1777,2307.1777,2308.3109,733.0,2308.3114,2.0,2309.2744,8.0,28.0,268.0,6.0,1.0,1.0,0.7,Time
,,S02,1,Male,33,anonymized,Serial_Dependence_U,2023.2.3,Win32,59.52380952,,,,,,,,,,,,2309.2752,8.0,2309.2757,,,,2311.8889,2312.3888,2311.3571,2311.8888,2310.285,264.0,2311.3569,2312.3889,2312.879,2312.8791,2314.6686,674.0,2314.6693,1.0,2315.7096,8.0,29.0,269.0,21.0,1.0,1.0,0.3,Time
