Scale_setup.started,Scale_setup.stopped,participant,session,sex,age,date,expName,psychopyVersion,OS,frameRate,screen_scale_keys.started,screen_scale_keys.stopped,X Scale,Y Scale,rectangel_keys.started,rectangel_keys.stopped,Intro.started,Intro.stopped,key_resp_2.keys,key_resp_2.rt,key_resp_2.duration,block.started,Block_id,block.stopped,Block_resp_2.keys,Block_resp_2.rt,Block_resp_2.duration,ITI.started,ITI.stopped,Mask_2.started,Mask_2.stopped,M2.started,direction,M2.stopped,Cue.started,Cue.stopped,Response.started,Response.stopped,keyDuration,Feedback_Time.started,FeedbackID_T,Feedback_Time.stopped,trials.thisRepN,trials.thisTrialN,trials.thisN,trials.thisIndex,trials.ran,TimeDur,Coherence1,TrialType
0.0003,0.0005,S03,1,male,33,anonymized,Serial_Dependence_U,2023.2.3,Win32,59.88023952,,,,,,,,,,,,,,,,,,,,,,,,,,,,,,,,,,,,,,,,
,,S03,1,male,33,anonymized,Serial_Dependence_U,2023.2.3,Win32,59.88023952,0.0041,166.7726,0.05,0.05,166.7728,168.17,168.1712,169.9027,space,1.6667,,,,,,,,,,,,,,,,,,,,,,,,,,,,,,
,,S03,1,male,33,anonymized,Serial_Dependence_U,2023.2.3,Win32,59.88023952,,,,,,,,,,,,169.9123,0.0,171.5861,s,1.6496,,173.9192,174.4185,173.403,173.9192,172.5949,173.0,173.4027,174.4187,174.9187,174.9188,176.3867,851.3000001,176.3872,4.0,177.3866,0.0,0.0,0.0,10.0,1.0,0.8,0.3,Time
,,S03,1,male,33,anonymized,Serial_Dependence_U,2023.2.3,Win32,59.88023952,,,,,,,,,,,,177.3884,0.0,177.3941,,,,179.9391,180.4365,179.4197,179.9386,178.4038,312.0,179.4195,180.4368,180.9369,180.9371,182.303,996.9,182.3033,3.0,183.3035,0.0,1.0,1.0,1.0,1.0,1.0,0.3,Time
,,S03,1,male,33,anonymized,Serial_Dependence_U,2023.2.3,Win32,59.88023952,,,,,,,,,,,,183.3049,0.0,183.3062,,,,186.2413,186.7374,185.7391,186.2411,184.3227,327.0,185.739,186.7374,187.2374,187.2375,188.9203,1330.5,188.9206,3.0,189.9202,0.0,2.0,2.0,28.0,1.0,1.4,0.7,Time
,,S03,1,male,33,anonymized,Serial_Dependence_U,2023.2.3,Win32,59.88023952,,,,,,,,,,,,189.9206,0.0,189.921,,,,192.8501,193.3542,192.3428,192.8493,190.9375,74.0,192.3426,193.3544,193.8547,193.8549,195.6225,1366.5,195.6239,3.0,196.6212,0.0,3.0,3.0,23.0,1.0,1.4,0.3,Time
,,S03,1,male,33,anonymized,Serial_Dependence_U,2023.2.3,Win32,59.88023952,,,,,,,,,,,,196.6226,0.0,196.6238,,,,199.3745,199.8711,198.8574,199.3738,197.641,238.0,198.8571,199.8712,200.371,200.3712,201.7881,1102.0,201.7883,2.0,202.7878,0.0,4.0,4.0,17.0,1.0,1.2,0.7,Time
,,S03,1,male,33,anonymized,Serial_Dependence_U,2023.2.3,Win32,59.88023952,,,,,,,,,,,,202.7883,0.0,202.7889,,,,205.9251,206.4224,205.4092,205.9249,203.8052,98.0,205.4089,206.4224,206.9227,206.9229,208.7056,1471.3,208.7059,2.0,209.7059,0.0,5.0,5.0,9.0,1.0,1.6,0.7,Time
,,S03,1,male,33,anonymized,Serial_Dependence_U,2023.2.3,Win32,59.88023952,,,,,,,,,,,,209.7073,0.0,209.7092,,,,212.2591,212.7566,211.7412,212.2587,210.7288,345.0,211.741,212.7566,213.2565,213.2565,214.91,1366.9,214.9103,5.0,215.9068,0.0,6.0,6.0,6.0,1.0,1.0,0.7,Time
,,S03,1,male,33,anonymized,Serial_Dependence_U,2023.2.3,Win32,59.88023952,,,,,,,,,,,,215.9081,0.0,215.9092,,,,218.8399,219.3396,218.3232,218.8398,216.9118,50.0,218.3231,219.3396,219.8394,219.8395,221.4397,1301.0,221.4402,2.0,222.4397,0.0,7.0,7.0,8.0,1.0,1.4,0.7,Time
,,S03,1,male,33,anonymized,Serial_Dependence_U,2023.2.3,Win32,59.88023952,,,,,,,,,,,,222.4402,0.0,222.4408,,,,224.793,225.29,224.2762,224.7927,223.4605,158.0,224.2758,225.29,225.7918,225.792,227.7276,1170.9,227.7282,5.0,228.7241,0.0,8.0,8.0,25.0,1.0,0.8,0.7,Time
,,S03,1,male,33,anonymized,Serial_Dependence_U,2023.2.3,Win32,59.88023952,,,,,,,,,,,,228.7255,0.0,228.7258,,,,231.6747,232.1738,231.1577,231.6744,229.7409,35.0,231.1576,232.1739,232.6738,232.6739,233.9742,985.3,233.9745,2.0,234.974,0.0,9.0,9.0,3.0,1.0,1.4,0.3,Time
,,S03,1,male,33,anonymized,Serial_Dependence_U,2023.2.3,Win32,59.88023952,,,,,,,,,,,,234.9746,0.0,234.9751,,,,238.1105,238.6086,237.5944,238.1101,235.9918,111.0,237.5938,238.6087,239.1093,239.1094,240.4097,950.6999999,240.4105,1.0,241.4085,0.0,10.0,10.0,29.0,1.0,1.6,0.7,Time
,,S03,1,male,33,anonymized,Serial_Dependence_U,2023.2.3,Win32,59.88023952,,,,,,,,,,,,241.4099,0.0,241.4112,,,,244.3446,244.8429,243.8282,244.3443,242.4257,48.0,243.8279,244.8431,245.3426,245.3427,247.0101,1134.0,247.0112,2.0,248.0093,0.0,11.0,11.0,18.0,1.0,1.4,0.7,Time
,,S03,1,male,33,anonymized,Serial_Dependence_U,2023.2.3,Win32,59.88023952,,,,,,,,,,,,248.0107,0.0,248.0118,,,,250.7594,251.2588,250.2429,250.7593,249.0262,158.0,250.2427,251.2588,251.7589,251.7589,253.3614,1159.7,253.3621,3.0,254.3603,0.0,12.0,12.0,7.0,1.0,1.2,0.7,Time
,,S03,1,male,33,anonymized,Serial_Dependence_U,2023.2.3,Win32,59.88023952,,,,,,,,,,,,254.3618,0.0,254.3629,,,,257.0978,257.5932,256.5947,257.0976,255.3791,309.0,256.5944,257.5933,258.0939,258.0939,259.5132,1016.5,259.5136,2.0,260.5111,0.0,13.0,13.0,2.0,1.0,1.2,0.3,Time
,,S03,1,male,33,anonymized,Serial_Dependence_U,2023.2.3,Win32,59.88023952,,,,,,,,,,,,260.5127,0.0,260.5134,,,,263.6441,264.1432,263.1299,263.6439,261.5207,2.0,263.1295,264.1432,264.6432,264.6433,266.2939,1366.5,266.2941,2.0,267.2937,0.0,14.0,14.0,19.0,1.0,1.6,0.7,Time
,,S03,1,male,33,anonymized,Serial_Dependence_U,2023.2.3,Win32,59.88023952,,,,,,,,,,,,267.2947,0.0,267.2951,,,,270.4302,270.928,269.9132,270.4299,268.2977,117.0,269.9129,270.928,271.4279,271.4282,272.7973,1104.8,272.7979,1.0,273.7942,0.0,15.0,15.0,24.0,1.0,1.6,0.3,Time
,,S03,1,male,33,anonymized,Serial_Dependence_U,2023.2.3,Win32,59.88023952,,,,,,,,,,,,273.7947,0.0,273.7953,,,,276.9479,277.4451,276.4305,276.9477,274.8143,324.0,276.4302,277.4452,277.9445,277.9446,279.4949,1217.0,279.4953,2.0,280.4947,0.0,16.0,16.0,4.0,1.0,1.6,0.3,Time
,,S03,1,male,33,anonymized,Serial_Dependence_U,2023.2.3,Win32,59.88023952,,,,,,,,,,,,280.4953,0.0,280.4958,,,,283.0313,283.5294,282.5126,283.0306,281.4984,65.0,282.5122,283.5295,284.0296,284.0298,285.3311,1034.2,285.332,3.0,286.3292,0.0,17.0,17.0,16.0,1.0,1.0,0.7,Time
,,S03,1,male,33,anonymized,Serial_Dependence_U,2023.2.3,Win32,59.88023952,,,,,,,,,,,,286.3307,0.0,286.3319,,,,288.6794,289.1787,288.1626,288.6794,287.3486,323.0,288.1626,289.1788,289.6789,289.679,290.9292,883.0,290.9296,4.0,291.93,0.0,18.0,18.0,15.0,1.0,0.8,0.7,Time
,,S03,1,male,33,anonymized,Serial_Dependence_U,2023.2.3,Win32,59.88023952,,,,,,,,,,,,291.9311,0.0,291.9321,,,,294.2635,294.7625,293.7466,294.2632,292.9419,101.0,293.7465,294.7626,295.2627,295.2627,296.3131,744.5999999,296.3134,2.0,297.3135,0.0,19.0,19.0,20.0,1.0,0.8,0.3,Time
,,S03,1,male,33,anonymized,Serial_Dependence_U,2023.2.3,Win32,59.88023952,,,,,,,,,,,,297.3149,0.0,297.3159,,,,299.8658,300.364,299.3487,299.8655,298.3303,154.0,299.3483,300.364,300.8637,300.8639,302.4639,1263.4,302.4641,4.0,303.4634,0.0,20.0,20.0,26.0,1.0,1.0,0.7,Time
,,S03,1,male,33,anonymized,Serial_Dependence_U,2023.2.3,Win32,59.88023952,,,,,,,,,,,,303.464,0.0,303.4644,,,,306.2166,306.7147,305.6998,306.2163,304.4809,251.0,305.6996,306.7147,307.2147,307.2148,309.0477,1412.0,309.0479,4.0,310.0473,0.0,21.0,21.0,12.0,1.0,1.2,0.3,Time
,,S03,1,male,33,anonymized,Serial_Dependence_U,2023.2.3,Win32,59.88023952,,,,,,,,,,,,310.0478,0.0,310.0484,,,,312.4005,312.8987,311.8839,312.4002,311.0672,39.0,311.8835,312.8988,313.3986,313.3988,314.8765,975.6,314.8769,4.0,315.8645,0.0,22.0,22.0,0.0,1.0,0.8,0.3,Time
,,S03,1,male,33,anonymized,Serial_Dependence_U,2023.2.3,Win32,59.88023952,,,,,,,,,,,,315.865,0.0,315.8655,,,,318.387,318.8823,317.885,318.3867,316.8753,236.0,317.8847,318.8824,319.3815,319.3815,321.0417,1297.2,321.0421,4.0,322.0322,0.0,23.0,23.0,11.0,1.0,1.0,0.3,Time
,,S03,1,male,33,anonymized,Serial_Dependence_U,2023.2.3,Win32,59.88023952,,,,,,,,,,,,322.0338,0.0,322.035,,,,324.5659,325.0652,324.0492,324.5658,323.036,329.0,324.049,325.0654,325.5654,325.5654,327.116,1150.1,327.1165,4.0,328.1195,0.0,24.0,24.0,21.0,1.0,1.0,0.3,Time
,,S03,1,male,33,anonymized,Serial_Dependence_U,2023.2.3,Win32,59.88023952,,,,,,,,,,,,328.1207,0.0,328.1211,,,,331.2698,331.7669,330.7524,331.2696,329.1348,135.0,330.7521,331.767,332.2671,332.2672,333.6511,1063.8,333.6524,1.0,334.6506,0.0,25.0,25.0,14.0,1.0,1.6,0.3,Time
,,S03,1,male,33,anonymized,Serial_Dependence_U,2023.2.3,Win32,59.88023952,,,,,,,,,,,,334.6523,0.0,334.653,,,,337.3859,337.8842,336.8696,337.3857,335.6561,195.0,336.8694,337.8844,338.3838,338.3841,340.4003,1700.4,340.4007,5.0,341.4001,0.0,26.0,26.0,27.0,1.0,1.2,0.7,Time
,,S03,1,male,33,anonymized,Serial_Dependence_U,2023.2.3,Win32,59.88023952,,,,,,,,,,,,341.4006,0.0,341.4012,,,,343.7516,344.253,343.2329,343.7512,342.4178,276.0,343.2327,344.2532,344.7522,344.7523,346.1693,1133.6,346.1699,5.0,347.169,0.0,27.0,27.0,5.0,1.0,0.8,0.7,Time
,,S03,1,male,33,anonymized,Serial_Dependence_U,2023.2.3,Win32,59.88023952,,,,,,,,,,,,347.1702,0.0,347.1709,,,,350.1186,350.6177,349.602,350.1183,348.1854,331.0,349.6018,350.6177,351.1179,351.118,352.385,930.3,352.3856,1.0,353.3848,0.0,28.0,28.0,13.0,1.0,1.4,0.3,Time
,,S03,1,male,33,anonymized,Serial_Dependence_U,2023.2.3,Win32,59.88023952,,,,,,,,,,,,353.3855,0.0,353.3857,,,,356.1213,356.62,355.6041,356.121,354.4026,333.0,355.6039,356.6203,357.1198,357.1199,358.521,1050.1,358.5216,2.0,359.5196,0.0,29.0,29.0,22.0,1.0,1.2,0.3,Time
,,S03,1,male,33,anonymized,Serial_Dependence_U,2023.2.3,Win32,59.88023952,,,,,,,,,,,,359.5216,1.0,372.4881,s,12.9305,,374.8395,375.3375,374.3226,374.8391,373.5063,67.0,374.3222,375.3377,375.8383,375.8384,377.2902,1015.7,377.2906,4.0,378.2876,1.0,0.0,30.0,10.0,1.0,0.8,0.3,Time
,,S03,1,male,33,anonymized,Serial_Dependence_U,2023.2.3,Win32,59.88023952,,,,,,,,,,,,378.2891,1.0,378.2957,,,,381.2403,381.7384,380.7236,381.24,379.3072,153.0,380.7232,381.7386,382.237,382.2371,383.8544,1277.2,383.8546,2.0,384.8541,1.0,1.0,31.0,18.0,1.0,1.4,0.7,Time
,,S03,1,male,33,anonymized,Serial_Dependence_U,2023.2.3,Win32,59.88023952,,,,,,,,,,,,384.8548,1.0,384.8552,,,,387.3912,387.8883,386.8893,387.391,385.8715,151.0,386.889,387.8884,388.3883,388.3884,389.9941,1251.3,389.9945,4.0,390.9891,1.0,2.0,32.0,11.0,1.0,1.0,0.3,Time
,,S03,1,male,33,anonymized,Serial_Dependence_U,2023.2.3,Win32,59.88023952,,,,,,,,,,,,390.9903,1.0,390.9914,,,,394.1413,394.6387,393.6251,394.1409,392.0081,114.0,393.6249,394.6388,395.1382,395.1383,396.5913,1135.8,396.5915,2.0,397.5889,1.0,3.0,33.0,19.0,1.0,1.6,0.7,Time
,,S03,1,male,33,anonymized,Serial_Dependence_U,2023.2.3,Win32,59.88023952,,,,,,,,,,,,397.5895,1.0,397.59,,,,400.3393,400.8393,399.8227,400.3393,398.606,163.0,399.8226,400.8395,401.3399,401.34,402.8064,1123.8,402.8074,2.0,403.8067,1.0,4.0,34.0,2.0,1.0,1.2,0.3,Time
,,S03,1,male,33,anonymized,Serial_Dependence_U,2023.2.3,Win32,59.88023952,,,,,,,,,,,,403.808,1.0,403.8096,,,,406.9593,407.4573,406.441,406.9589,404.8251,187.0,406.4407,407.4573,407.9568,407.957,409.4068,1001.0,409.4072,1.0,410.4062,1.0,5.0,35.0,14.0,1.0,1.6,0.3,Time
,,S03,1,male,33,anonymized,Serial_Dependence_U,2023.2.3,Win32,59.88023952,,,,,,,,,,,,410.4067,1.0,410.4072,,,,412.9434,413.4398,412.4409,412.943,411.4241,330.0,412.4408,413.4398,413.9399,413.94,415.5738,1249.1,415.5745,4.0,416.5746,1.0,6.0,36.0,26.0,1.0,1.0,0.7,Time
,,S03,1,male,33,anonymized,Serial_Dependence_U,2023.2.3,Win32,59.88023952,,,,,,,,,,,,416.576,1.0,416.5772,,,,418.9267,419.4246,418.4099,418.9261,417.5933,299.0,418.4094,419.4246,419.9246,419.9247,421.1423,918.1,421.1433,4.0,422.1413,1.0,7.0,37.0,0.0,1.0,0.8,0.3,Time
,,S03,1,male,33,anonymized,Serial_Dependence_U,2023.2.3,Win32,59.88023952,,,,,,,,,,,,422.1429,1.0,422.1439,,,,424.6938,425.1914,424.1773,424.6936,423.1585,53.0,424.1769,425.1915,425.6921,425.6921,427.0807,1021.8,427.081,3.0,428.0756,1.0,8.0,38.0,6.0,1.0,1.0,0.7,Time
,,S03,1,male,33,anonymized,Serial_Dependence_U,2023.2.3,Win32,59.88023952,,,,,,,,,,,,428.0769,1.0,428.0779,,,,430.4253,430.9246,429.9085,430.4253,429.092,114.0,429.9085,430.9246,431.4249,431.425,433.1434,1066.4,433.1444,5.0,434.1428,1.0,9.0,39.0,15.0,1.0,0.8,0.7,Time
,,S03,1,male,33,anonymized,Serial_Dependence_U,2023.2.3,Win32,59.88023952,,,,,,,,,,,,434.144,1.0,434.1453,,,,436.8951,437.3942,436.3782,436.8946,435.1622,51.0,436.3779,437.3942,437.8931,437.8932,439.2772,1050.5,439.2783,2.0,440.2769,1.0,10.0,40.0,27.0,1.0,1.2,0.7,Time
,,S03,1,male,33,anonymized,Serial_Dependence_U,2023.2.3,Win32,59.88023952,,,,,,,,,,,,440.2783,1.0,440.2789,,,,443.4097,443.9092,442.8958,443.4096,441.2803,269.0,442.8957,443.9092,444.4092,444.4093,445.8813,1106.3,445.8818,1.0,446.8785,1.0,11.0,41.0,24.0,1.0,1.6,0.3,Time
,,S03,1,male,33,anonymized,Serial_Dependence_U,2023.2.3,Win32,59.88023952,,,,,,,,,,,,446.8798,1.0,446.8803,,,,449.4031,449.8941,448.8963,449.4029,447.8886,194.0,448.8959,449.8942,450.4012,450.4013,452.397,1387.2,452.3974,5.0,453.395,1.0,12.0,42.0,16.0,1.0,1.0,0.7,Time
,,S03,1,male,33,anonymized,Serial_Dependence_U,2023.2.3,Win32,59.88023952,,,,,,,,,,,,453.3966,1.0,453.3977,,,,455.9463,456.4446,455.43,455.9461,454.4127,92.0,455.4299,456.4447,456.9452,456.9455,457.379,292.8000001,457.3794,1.0,458.3778,1.0,13.0,43.0,21.0,1.0,1.0,0.3,Time
,,S03,1,male,33,anonymized,Serial_Dependence_U,2023.2.3,Win32,59.88023952,,,,,,,,,,,,458.3792,1.0,458.3803,,,,461.1209,461.6118,460.6135,461.1206,459.3959,349.0,460.6131,461.6119,462.112,462.1121,464.0631,1143.7,464.0642,3.0,465.0632,1.0,14.0,44.0,12.0,1.0,1.2,0.3,Time
,,S03,1,male,33,anonymized,Serial_Dependence_U,2023.2.3,Win32,59.88023952,,,,,,,,,,,,465.0649,1.0,465.0654,,,,468.2127,468.7117,467.6979,468.2125,466.0802,345.0,467.6976,468.7117,469.2118,469.2119,470.7459,1255.8,470.7463,2.0,471.7453,1.0,15.0,45.0,4.0,1.0,1.6,0.3,Time
,,S03,1,male,33,anonymized,Serial_Dependence_U,2023.2.3,Win32,59.88023952,,,,,,,,,,,,471.746,1.0,471.7465,,,,474.0815,474.5789,473.5645,474.0813,472.7481,14.0,473.5644,474.5789,475.0789,475.0789,476.6462,965.9,476.6466,4.0,477.6484,1.0,16.0,46.0,25.0,1.0,0.8,0.7,Time
,,S03,1,male,33,anonymized,Serial_Dependence_U,2023.2.3,Win32,59.88023952,,,,,,,,,,,,477.65,1.0,477.6508,,,,480.6008,481.0977,480.0826,480.6004,478.6656,165.0,480.0822,481.0978,481.5976,481.5976,483.1819,1182.8,483.1824,2.0,484.1801,1.0,17.0,47.0,8.0,1.0,1.4,0.7,Time
,,S03,1,male,33,anonymized,Serial_Dependence_U,2023.2.3,Win32,59.88023952,,,,,,,,,,,,484.1819,1.0,484.1831,,,,486.9185,487.4138,486.4139,486.9183,485.1994,329.0,486.4138,487.4138,487.9139,487.9142,489.2802,1036.1,489.2805,2.0,490.2799,1.0,18.0,48.0,7.0,1.0,1.2,0.7,Time
,,S03,1,male,33,anonymized,Serial_Dependence_U,2023.2.3,Win32,59.88023952,,,,,,,,,,,,490.2806,1.0,490.2811,,,,493.417,493.9142,492.9003,493.4167,491.2974,36.0,492.9,493.9143,494.4146,494.4147,495.9821,1197.5,495.9834,2.0,496.9818,1.0,19.0,49.0,9.0,1.0,1.6,0.7,Time
,,S03,1,male,33,anonymized,Serial_Dependence_U,2023.2.3,Win32,59.88023952,,,,,,,,,,,,496.9836,1.0,496.9845,,,,499.7344,500.2319,499.2172,499.7342,498.0009,104.0,499.2167,500.2319,500.7325,500.7328,502.7708,1450.9,502.771,4.0,503.7645,1.0,20.0,50.0,17.0,1.0,1.2,0.7,Time
,,S03,1,male,33,anonymized,Serial_Dependence_U,2023.2.3,Win32,59.88023952,,,,,,,,,,,,503.7651,1.0,503.7655,,,,506.6919,507.1823,506.1852,506.6916,504.7819,161.0,506.1848,507.1824,507.6825,507.6826,509.5333,1283.6,509.5341,2.0,510.5327,1.0,21.0,51.0,13.0,1.0,1.4,0.3,Time
,,S03,1,male,33,anonymized,Serial_Dependence_U,2023.2.3,Win32,59.88023952,,,,,,,,,,,,510.5345,1.0,510.5355,,,,512.8854,513.3827,512.3682,512.8852,511.5518,68.0,512.3677,513.3828,513.8827,513.8829,516.087,1472.5,516.0873,5.0,517.083,1.0,22.0,52.0,20.0,1.0,0.8,0.3,Time
,,S03,1,male,33,anonymized,Serial_Dependence_U,2023.2.3,Win32,59.88023952,,,,,,,,,,,,517.0847,1.0,517.0856,,,,519.6333,520.1325,519.1165,519.6331,518.1009,299.0,519.1164,520.1326,520.6326,520.6327,521.8998,961.3000001,521.9002,3.0,522.9007,1.0,23.0,53.0,1.0,1.0,1.0,0.3,Time
,,S03,1,male,33,anonymized,Serial_Dependence_U,2023.2.3,Win32,59.88023952,,,,,,,,,,,,522.9023,1.0,522.9038,,,,525.8523,526.3509,525.3365,525.8521,523.9197,205.0,525.3363,526.3509,526.8508,526.8512,528.5503,1361.5,528.5508,3.0,529.5501,1.0,24.0,54.0,3.0,1.0,1.4,0.3,Time
,,S03,1,male,33,anonymized,Serial_Dependence_U,2023.2.3,Win32,59.88023952,,,,,,,,,,,,529.5507,1.0,529.5512,,,,532.5011,533.0009,531.9844,532.5009,530.568,181.0,531.9843,533.0009,533.5005,533.5005,535.2188,1405.9,535.2198,3.0,536.2187,1.0,25.0,55.0,28.0,1.0,1.4,0.7,Time
,,S03,1,male,33,anonymized,Serial_Dependence_U,2023.2.3,Win32,59.88023952,,,,,,,,,,,,536.22,1.0,536.2206,,,,539.1704,539.6685,538.6539,539.1701,537.2376,207.0,538.6535,539.6686,540.1694,540.1695,541.8701,1368.3,541.871,3.0,542.8687,1.0,26.0,56.0,23.0,1.0,1.4,0.3,Time
,,S03,1,male,33,anonymized,Serial_Dependence_U,2023.2.3,Win32,59.88023952,,,,,,,,,,,,542.8703,1.0,542.8717,,,,546.0054,546.5035,545.4884,546.0052,543.8718,131.0,545.4883,546.5035,547.0026,547.0027,548.7023,1411.3,548.7025,2.0,549.7021,1.0,27.0,57.0,29.0,1.0,1.6,0.7,Time
,,S03,1,male,33,anonymized,Serial_Dependence_U,2023.2.3,Win32,59.88023952,,,,,,,,,,,,549.7026,1.0,549.7032,,,,552.4346,552.9364,551.9224,552.4343,550.7055,4.0,551.9222,552.9365,553.4367,553.4368,554.822,1094.9,554.8227,2.0,555.8198,1.0,28.0,58.0,22.0,1.0,1.2,0.3,Time
,,S03,1,male,33,anonymized,Serial_Dependence_U,2023.2.3,Win32,59.88023952,,,,,,,,,,,,555.8215,1.0,555.8223,,,,558.1721,558.671,557.6548,558.1716,556.8395,347.0,557.6546,558.6712,559.1709,559.1712,560.7733,1404.8,560.7738,5.0,561.7706,1.0,29.0,59.0,5.0,1.0,0.8,0.7,Time
,,S03,1,male,33,anonymized,Serial_Dependence_U,2023.2.3,Win32,59.88023952,,,,,,,,,,,,561.7719,2.0,569.022,s,7.2134,,571.3734,571.8723,570.857,571.3731,570.0399,267.0,570.8567,571.8724,572.3732,572.3732,573.9227,1232.9,573.9237,5.0,574.9217,2.0,0.0,60.0,5.0,1.0,0.8,0.7,Time
,,S03,1,male,33,anonymized,Serial_Dependence_U,2023.2.3,Win32,59.88023952,,,,,,,,,,,,574.9235,2.0,574.9291,,,,578.0472,578.5378,577.541,578.047,575.927,117.0,577.5406,578.5379,579.0378,579.0379,580.5217,1216.5,580.522,2.0,581.5214,2.0,1.0,61.0,19.0,1.0,1.6,0.7,Time
,,S03,1,male,33,anonymized,Serial_Dependence_U,2023.2.3,Win32,59.88023952,,,,,,,,,,,,581.5221,2.0,581.5226,,,,584.6664,585.1564,584.148,584.6661,582.5389,124.0,584.148,585.1564,585.6563,585.6564,587.2575,1303.0,587.258,2.0,588.2559,2.0,2.0,62.0,14.0,1.0,1.6,0.3,Time
,,S03,1,male,33,anonymized,Serial_Dependence_U,2023.2.3,Win32,59.88023952,,,,,,,,,,,,588.2576,2.0,588.2589,,,,590.8064,591.3062,590.2896,590.8063,589.2731,46.0,590.2894,591.3066,591.8062,591.8062,593.1739,1050.4,593.175,4.0,594.1725,2.0,3.0,63.0,26.0,1.0,1.0,0.7,Time
,,S03,1,male,33,anonymized,Serial_Dependence_U,2023.2.3,Win32,59.88023952,,,,,,,,,,,,594.1731,2.0,594.1736,,,,597.1105,597.6066,596.5923,597.1092,595.19,112.0,596.5918,597.6066,598.1075,598.1076,599.6902,1265.7,599.6903,2.0,600.6904,2.0,4.0,64.0,8.0,1.0,1.4,0.7,Time
,,S03,1,male,33,anonymized,Serial_Dependence_U,2023.2.3,Win32,59.88023952,,,,,,,,,,,,600.6917,2.0,600.6933,,,,603.6407,604.14,603.1241,603.6407,601.7073,105.0,603.124,604.14,604.64,604.6402,606.1781,1274.5,606.1789,2.0,607.1749,2.0,5.0,65.0,13.0,1.0,1.4,0.3,Time
,,S03,1,male,33,anonymized,Serial_Dependence_U,2023.2.3,Win32,59.88023952,,,,,,,,,,,,607.1765,2.0,607.1775,,,,609.5246,610.0245,609.0078,609.5245,608.1912,269.0,609.0078,610.0245,610.5244,610.5246,612.0922,1216.2,612.0936,5.0,613.0916,2.0,6.0,66.0,20.0,1.0,0.8,0.3,Time
,,S03,1,male,33,anonymized,Serial_Dependence_U,2023.2.3,Win32,59.88023952,,,,,,,,,,,,613.0931,2.0,613.0939,,,,615.6441,616.1418,615.128,615.6434,614.1116,134.0,615.1274,616.1419,616.642,616.6421,618.1931,1165.5,618.1943,4.0,619.1922,2.0,7.0,67.0,16.0,1.0,1.0,0.7,Time
,,S03,1,male,33,anonymized,Serial_Dependence_U,2023.2.3,Win32,59.88023952,,,,,,,,,,,,619.1936,2.0,619.1947,,,,621.7462,622.2427,621.2289,621.7458,620.212,131.0,621.2287,622.2428,622.7425,622.7427,624.3759,1282.3,624.3762,4.0,625.3761,2.0,8.0,68.0,6.0,1.0,1.0,0.7,Time
,,S03,1,male,33,anonymized,Serial_Dependence_U,2023.2.3,Win32,59.88023952,,,,,,,,,,,,625.3766,2.0,625.3771,,,,627.9128,628.4096,627.4096,627.9127,626.3927,277.0,627.4095,628.4098,628.9098,628.9099,630.6777,1451.2,630.6788,5.0,631.6767,2.0,9.0,69.0,1.0,1.0,1.0,0.3,Time
,,S03,1,male,33,anonymized,Serial_Dependence_U,2023.2.3,Win32,59.88023952,,,,,,,,,,,,631.6781,2.0,631.6792,,,,634.4287,634.9272,633.9139,634.4285,632.6964,343.0,633.9134,634.9272,635.4262,635.4262,636.7057,996.8000001,636.7063,2.0,637.6943,2.0,10.0,70.0,7.0,1.0,1.2,0.7,Time
,,S03,1,male,33,anonymized,Serial_Dependence_U,2023.2.3,Win32,59.88023952,,,,,,,,,,,,637.696,2.0,637.6964,,,,640.0442,640.5446,639.5275,640.044,638.7105,230.0,639.5273,640.5447,641.0461,641.0463,642.5483,1183.7,642.5486,5.0,643.5448,2.0,11.0,71.0,0.0,1.0,0.8,0.3,Time
,,S03,1,male,33,anonymized,Serial_Dependence_U,2023.2.3,Win32,59.88023952,,,,,,,,,,,,643.5462,2.0,643.547,,,,645.8714,646.3612,645.3634,645.8712,644.5505,45.0,645.3632,646.3614,646.8617,646.8618,648.2794,983.6999999,648.2803,4.0,649.2774,2.0,12.0,72.0,15.0,1.0,0.8,0.7,Time
,,S03,1,male,33,anonymized,Serial_Dependence_U,2023.2.3,Win32,59.88023952,,,,,,,,,,,,649.278,2.0,649.2785,,,,652.4285,652.9277,651.9117,652.4283,650.2948,335.0,651.9116,652.9277,653.4278,653.4279,654.795,895.3,654.7953,1.0,655.7952,2.0,13.0,73.0,29.0,1.0,1.6,0.7,Time
,,S03,1,male,33,anonymized,Serial_Dependence_U,2023.2.3,Win32,59.88023952,,,,,,,,,,,,655.7966,2.0,655.7981,,,,658.3479,658.8459,657.8309,658.3472,656.815,239.0,657.8303,658.846,659.3457,659.3459,661.1799,1517.3,661.181,5.0,662.1791,2.0,14.0,74.0,11.0,1.0,1.0,0.3,Time
,,S03,1,male,33,anonymized,Serial_Dependence_U,2023.2.3,Win32,59.88023952,,,,,,,,,,,,662.1808,2.0,662.1819,,,,665.3266,665.8305,664.8156,665.3264,663.1967,220.0,664.8155,665.8306,666.3313,666.3315,668.2643,1760.5,668.2648,4.0,669.2634,2.0,15.0,75.0,9.0,1.0,1.6,0.7,Time
,,S03,1,male,33,anonymized,Serial_Dependence_U,2023.2.3,Win32,59.88023952,,,,,,,,,,,,669.2644,2.0,669.2651,,,,671.6137,672.1131,671.0969,671.6136,670.2803,12.0,671.0967,672.1131,672.6131,672.6132,673.898,1039.2,673.8983,4.0,674.8981,2.0,16.0,76.0,10.0,1.0,0.8,0.3,Time
,,S03,1,male,33,anonymized,Serial_Dependence_U,2023.2.3,Win32,59.88023952,,,,,,,,,,,,674.9001,2.0,674.9009,,,,677.6498,678.1489,677.1335,677.6496,675.9165,87.0,677.1332,678.149,678.6482,678.6488,680.3148,1091.9,680.3154,2.0,681.3145,2.0,17.0,77.0,12.0,1.0,1.2,0.3,Time
,,S03,1,male,33,anonymized,Serial_Dependence_U,2023.2.3,Win32,59.88023952,,,,,,,,,,,,681.3159,2.0,681.3168,,,,684.0646,684.5639,683.5488,684.0644,682.3336,349.0,683.5485,684.5639,685.064,685.064,686.4861,1105.2,686.4864,2.0,687.4816,2.0,18.0,78.0,27.0,1.0,1.2,0.7,Time
,,S03,1,male,33,anonymized,Serial_Dependence_U,2023.2.3,Win32,59.88023952,,,,,,,,,,,,687.4834,2.0,687.4841,,,,690.217,690.7155,689.7014,690.2166,688.4864,216.0,689.7012,690.7155,691.2155,691.2158,692.7993,1333.7,692.8007,4.0,693.7994,2.0,19.0,79.0,17.0,1.0,1.2,0.7,Time
,,S03,1,male,33,anonymized,Serial_Dependence_U,2023.2.3,Win32,59.88023952,,,,,,,,,,,,693.802,2.0,693.803,,,,696.7495,697.2483,696.2345,696.7493,694.8185,208.0,696.2339,697.2483,697.7484,697.7484,699.1158,1033.4,699.1162,2.0,700.1155,2.0,20.0,80.0,3.0,1.0,1.4,0.3,Time
,,S03,1,male,33,anonymized,Serial_Dependence_U,2023.2.3,Win32,59.88023952,,,,,,,,,,,,700.1162,2.0,700.1173,,,,703.0679,703.5655,702.5498,703.0676,701.1329,145.0,702.5495,703.5656,704.0663,704.0665,705.5677,1099.4,705.5689,2.0,706.5665,2.0,21.0,81.0,23.0,1.0,1.4,0.3,Time
,,S03,1,male,33,anonymized,Serial_Dependence_U,2023.2.3,Win32,59.88023952,,,,,,,,,,,,706.5683,2.0,706.5694,,,,709.7169,710.2161,709.2001,709.7167,707.5833,131.0,709.2,710.2162,710.7174,710.7176,712.2348,1266.1,712.2359,2.0,713.2335,2.0,22.0,82.0,24.0,1.0,1.6,0.3,Time
,,S03,1,male,33,anonymized,Serial_Dependence_U,2023.2.3,Win32,59.88023952,,,,,,,,,,,,713.2349,2.0,713.2359,,,,715.5846,716.0834,715.0673,715.5844,714.2508,325.0,715.0672,716.0835,716.5835,716.5835,717.8352,999.5,717.8361,4.0,718.8348,2.0,23.0,83.0,25.0,1.0,0.8,0.7,Time
,,S03,1,male,33,anonymized,Serial_Dependence_U,2023.2.3,Win32,59.88023952,,,,,,,,,,,,718.8365,2.0,718.8372,,,,721.787,722.2844,721.27,721.7866,719.8536,40.0,721.2697,722.2845,722.7846,722.7848,724.3176,1304.2,724.3179,2.0,725.3175,2.0,24.0,84.0,18.0,1.0,1.4,0.7,Time
,,S03,1,male,33,anonymized,Serial_Dependence_U,2023.2.3,Win32,59.88023952,,,,,,,,,,,,725.3182,2.0,725.3186,,,,728.0518,728.551,727.5388,728.0518,726.335,177.0,727.5386,728.551,729.0512,729.0513,730.7396,1386.1,730.7399,4.0,731.7362,2.0,25.0,85.0,2.0,1.0,1.2,0.3,Time
,,S03,1,male,33,anonymized,Serial_Dependence_U,2023.2.3,Win32,59.88023952,,,,,,,,,,,,731.7377,2.0,731.7386,,,,734.2894,734.7855,733.7709,734.2892,732.7536,85.0,733.7705,734.7856,735.2861,735.2862,736.5386,1051.6,736.5391,4.0,737.5359,2.0,26.0,86.0,21.0,1.0,1.0,0.3,Time
,,S03,1,male,33,anonymized,Serial_Dependence_U,2023.2.3,Win32,59.88023952,,,,,,,,,,,,737.5376,2.0,737.5385,,,,740.2719,740.7699,739.7558,740.2716,738.5529,132.0,739.7553,740.77,741.27,741.27,742.4558,986.2,742.4563,2.0,743.453,2.0,27.0,87.0,22.0,1.0,1.2,0.3,Time
,,S03,1,male,33,anonymized,Serial_Dependence_U,2023.2.3,Win32,59.88023952,,,,,,,,,,,,743.4541,2.0,743.4553,,,,746.4034,746.9027,745.8874,746.4033,744.4698,109.0,745.8871,746.9027,747.4039,747.4041,749.2297,1604.0,749.2301,4.0,750.2208,2.0,28.0,88.0,28.0,1.0,1.4,0.7,Time
,,S03,1,male,33,anonymized,Serial_Dependence_U,2023.2.3,Win32,59.88023952,,,,,,,,,,,,750.2222,2.0,750.2235,,,,753.3738,753.8712,752.8565,753.3735,751.24,68.0,752.8561,753.8714,754.3706,754.3709,756.1223,1483.9,756.123,2.0,757.1215,2.0,29.0,89.0,4.0,1.0,1.6,0.3,Time
,,S03,1,male,33,anonymized,Serial_Dependence_U,2023.2.3,Win32,59.88023952,,,,,,,,,,,,757.1228,3.0,759.0373,s,1.8826,,762.1734,762.6727,761.6583,762.1732,760.0548,245.0,761.658,762.6728,763.1742,763.1743,764.7227,1226.2,764.7239,2.0,765.7218,3.0,0.0,90.0,24.0,1.0,1.6,0.3,Time
,,S03,1,male,33,anonymized,Serial_Dependence_U,2023.2.3,Win32,59.88023952,,,,,,,,,,,,765.7234,3.0,765.7287,,,,768.2721,768.7712,767.7574,768.272,766.7396,44.0,767.757,768.7714,769.2714,769.2715,770.772,1232.0,770.7722,4.0,771.7716,3.0,1.0,91.0,26.0,1.0,1.0,0.7,Time
,,S03,1,male,33,anonymized,Serial_Dependence_U,2023.2.3,Win32,59.88023952,,,,,,,,,,,,771.7722,3.0,771.7728,,,,774.5229,775.0222,774.0063,774.5229,772.791,228.0,774.0062,775.0222,775.5221,775.5221,777.2725,1417.1,777.2728,4.0,778.2732,3.0,2.0,92.0,12.0,1.0,1.2,0.3,Time
,,S03,1,male,33,anonymized,Serial_Dependence_U,2023.2.3,Win32,59.88023952,,,,,,,,,,,,778.2745,3.0,778.2753,,,,780.8252,781.3233,780.3094,780.8246,779.2912,73.0,780.3091,781.3233,781.8232,781.8236,782.873,802.7,782.8734,2.0,783.8738,3.0,3.0,93.0,1.0,1.0,1.0,0.3,Time
,,S03,1,male,33,anonymized,Serial_Dependence_U,2023.2.3,Win32,59.88023952,,,,,,,,,,,,783.875,3.0,783.8763,,,,786.2258,786.724,785.7095,786.2256,784.8921,24.0,785.7091,786.7241,787.2239,787.2241,788.3569,863.5,788.357,4.0,789.3566,3.0,4.0,94.0,5.0,1.0,0.8,0.7,Time
,,S03,1,male,33,anonymized,Serial_Dependence_U,2023.2.3,Win32,59.88023952,,,,,,,,,,,,789.3571,3.0,789.3576,,,,791.6949,792.1908,791.1816,791.6943,790.3746,254.0,791.1813,792.1908,792.6912,792.6915,793.8086,833.5,793.8094,3.0,794.808,3.0,5.0,95.0,20.0,1.0,0.8,0.3,Time
,,S03,1,male,33,anonymized,Serial_Dependence_U,2023.2.3,Win32,59.88023952,,,,,,,,,,,,794.8095,3.0,794.8104,,,,797.9581,798.4573,797.4414,797.958,795.826,330.0,797.4412,798.4574,798.9574,798.9574,800.7709,1600.3,800.7714,3.0,801.7594,3.0,6.0,96.0,29.0,1.0,1.6,0.7,Time
,,S03,1,male,33,anonymized,Serial_Dependence_U,2023.2.3,Win32,59.88023952,,,,,,,,,,,,801.76,3.0,801.7602,,,,804.8926,805.3923,804.3757,804.8924,802.7685,175.0,804.3754,805.3923,805.8919,805.8923,806.53,613.9,806.5313,1.0,807.5256,3.0,7.0,97.0,9.0,1.0,1.6,0.7,Time
,,S03,1,male,33,anonymized,Serial_Dependence_U,2023.2.3,Win32,59.88023952,,,,,,,,,,,,807.5271,3.0,807.5293,,,,810.6619,811.1594,810.1447,810.6617,808.5336,184.0,810.1444,811.1595,811.6601,811.6603,813.4592,1444.3,813.4597,2.0,814.4588,3.0,8.0,98.0,19.0,1.0,1.6,0.7,Time
,,S03,1,male,33,anonymized,Serial_Dependence_U,2023.2.3,Win32,59.88023952,,,,,,,,,,,,814.4593,3.0,814.4599,,,,816.7817,817.2767,816.2786,816.7816,815.4605,301.0,816.2783,817.2767,817.7778,817.7779,819.0094,923.7,819.0098,4.0,820.0093,3.0,9.0,99.0,25.0,1.0,0.8,0.7,Time
,,S03,1,male,33,anonymized,Serial_Dependence_U,2023.2.3,Win32,59.88023952,,,,,,,,,,,,820.01,3.0,820.0104,,,,822.7603,823.2594,822.2438,822.7602,821.0267,167.0,822.2436,823.2596,823.7596,823.7598,825.4948,1502.7,825.4961,4.0,826.494,3.0,10.0,100.0,17.0,1.0,1.2,0.7,Time
,,S03,1,male,33,anonymized,Serial_Dependence_U,2023.2.3,Win32,59.88023952,,,,,,,,,,,,826.4956,3.0,826.4971,,,,829.0439,829.5435,828.5277,829.0438,827.5134,196.0,828.5274,829.5435,830.0435,830.0435,831.3823,1068.8,831.3825,4.0,832.3779,3.0,11.0,101.0,11.0,1.0,1.0,0.3,Time
,,S03,1,male,33,anonymized,Serial_Dependence_U,2023.2.3,Win32,59.88023952,,,,,,,,,,,,832.3793,3.0,832.3804,,,,835.328,835.8272,834.8115,835.3279,833.3947,285.0,834.8112,835.8273,836.3274,836.3275,837.7449,1250.5,837.7454,2.0,838.745,3.0,12.0,102.0,13.0,1.0,1.4,0.3,Time
,,S03,1,male,33,anonymized,Serial_Dependence_U,2023.2.3,Win32,59.88023952,,,,,,,,,,,,838.7463,3.0,838.7477,,,,841.4978,841.9952,840.9815,841.4975,839.7642,86.0,840.9813,841.9953,842.4951,842.4954,844.0302,1222.7,844.031,3.0,845.0281,3.0,13.0,103.0,22.0,1.0,1.2,0.3,Time
,,S03,1,male,33,anonymized,Serial_Dependence_U,2023.2.3,Win32,59.88023952,,,,,,,,,,,,845.0287,3.0,845.0289,,,,847.9828,848.4791,847.4674,847.9825,846.0483,327.0,847.467,848.4792,848.9799,848.9802,850.9663,1738.1,850.9666,4.0,851.9626,3.0,14.0,104.0,28.0,1.0,1.4,0.7,Time
,,S03,1,male,33,anonymized,Serial_Dependence_U,2023.2.3,Win32,59.88023952,,,,,,,,,,,,851.964,3.0,851.9652,,,,854.499,854.997,853.9816,854.4988,852.9711,69.0,853.9814,854.9972,855.4963,855.4965,857.6825,783.5,857.6831,2.0,858.6805,3.0,15.0,105.0,21.0,1.0,1.0,0.3,Time
,,S03,1,male,33,anonymized,Serial_Dependence_U,2023.2.3,Win32,59.88023952,,,,,,,,,,,,858.6823,3.0,858.6839,,,,861.4334,861.9303,860.9162,861.4328,859.699,272.0,860.9159,861.9303,862.4308,862.4309,864.0969,1281.6,864.0972,4.0,865.0966,3.0,16.0,106.0,2.0,1.0,1.2,0.3,Time
,,S03,1,male,33,anonymized,Serial_Dependence_U,2023.2.3,Win32,59.88023952,,,,,,,,,,,,865.0972,3.0,865.0977,,,,868.0331,868.5312,867.5172,868.0328,866.114,243.0,867.517,868.5314,869.0314,869.0316,871.3333,1329.0,871.3339,2.0,872.3313,3.0,17.0,107.0,23.0,1.0,1.4,0.3,Time
,,S03,1,male,33,anonymized,Serial_Dependence_U,2023.2.3,Win32,59.88023952,,,,,,,,,,,,872.3327,3.0,872.3343,,,,874.884,875.382,874.3672,874.8836,873.3504,80.0,874.3669,875.382,875.8824,875.8825,880.4316,1233.0,880.4318,4.0,881.4324,3.0,18.0,108.0,6.0,1.0,1.0,0.7,Time
,,S03,1,male,33,anonymized,Serial_Dependence_U,2023.2.3,Win32,59.88023952,,,,,,,,,,,,881.4339,3.0,881.4346,,,,883.7687,884.2657,883.2523,883.7686,882.4412,133.0,883.252,884.2657,884.774,884.774,886.2507,1116.4,886.2514,5.0,887.2497,3.0,19.0,109.0,15.0,1.0,0.8,0.7,Time
,,S03,1,male,33,anonymized,Serial_Dependence_U,2023.2.3,Win32,59.88023952,,,,,,,,,,,,887.251,3.0,887.252,,,,890.1995,890.6989,889.6828,890.1994,888.2659,311.0,889.6827,890.6989,891.1989,891.1989,892.9673,1448.3,892.9683,3.0,893.9658,3.0,20.0,110.0,3.0,1.0,1.4,0.3,Time
,,S03,1,male,33,anonymized,Serial_Dependence_U,2023.2.3,Win32,59.88023952,,,,,,,,,,,,893.9664,3.0,893.967,,,,896.3184,896.8174,895.8003,896.318,894.9832,68.0,895.8,896.8175,897.3173,897.3176,900.0029,1316.9,900.0034,5.0,901.0007,3.0,21.0,111.0,10.0,1.0,0.8,0.3,Time
,,S03,1,male,33,anonymized,Serial_Dependence_U,2023.2.3,Win32,59.88023952,,,,,,,,,,,,901.0027,3.0,901.0035,,,,904.1507,904.65,903.634,904.1506,902.0175,202.0,903.6339,904.6501,905.1502,905.1502,906.7852,934.8,906.7866,1.0,907.7842,3.0,22.0,112.0,14.0,1.0,1.6,0.3,Time
,,S03,1,male,33,anonymized,Serial_Dependence_U,2023.2.3,Win32,59.88023952,,,,,,,,,,,,907.7856,3.0,907.7869,,,,910.1347,910.6339,909.6179,910.1345,908.8012,27.0,909.6178,910.6339,911.134,911.134,912.6718,1222.3,912.6724,5.0,913.6688,3.0,23.0,113.0,0.0,1.0,0.8,0.3,Time
,,S03,1,male,33,anonymized,Serial_Dependence_U,2023.2.3,Win32,59.88023952,,,,,,,,,,,,913.6704,3.0,913.6709,,,,916.8046,917.3032,916.3027,916.8043,914.6878,341.0,916.3024,917.3034,917.8017,917.8017,919.2543,1133.1,919.2551,2.0,920.2522,3.0,24.0,114.0,4.0,1.0,1.6,0.3,Time
,,S03,1,male,33,anonymized,Serial_Dependence_U,2023.2.3,Win32,59.88023952,,,,,,,,,,,,920.2539,3.0,920.2548,,,,923.2024,923.7017,922.6858,923.2023,921.269,31.0,922.6856,923.7017,924.2019,924.2019,925.4235,1022.7,925.424,2.0,926.4202,3.0,25.0,115.0,8.0,1.0,1.4,0.7,Time
,,S03,1,male,33,anonymized,Serial_Dependence_U,2023.2.3,Win32,59.88023952,,,,,,,,,,,,926.4215,3.0,926.4224,,,,928.9557,929.4522,928.4389,928.9556,927.4254,28.0,928.4388,929.4523,929.953,929.9531,931.2702,1068.6,931.2709,4.0,932.2698,3.0,26.0,116.0,16.0,1.0,1.0,0.7,Time
,,S03,1,male,33,anonymized,Serial_Dependence_U,2023.2.3,Win32,59.88023952,,,,,,,,,,,,932.272,3.0,932.2737,,,,935.2202,935.7202,934.7036,935.2202,933.2872,136.0,934.7034,935.7203,936.2203,936.2211,937.9368,1384.3,937.9371,3.0,938.9364,3.0,27.0,117.0,18.0,1.0,1.4,0.7,Time
,,S03,1,male,33,anonymized,Serial_Dependence_U,2023.2.3,Win32,59.88023952,,,,,,,,,,,,938.937,3.0,938.9376,,,,941.6875,942.1867,941.1707,941.6874,939.9539,196.0,941.1707,942.1867,942.6871,942.6873,944.223,1251.4,944.2234,3.0,945.2204,3.0,28.0,118.0,27.0,1.0,1.2,0.7,Time
,,S03,1,male,33,anonymized,Serial_Dependence_U,2023.2.3,Win32,59.88023952,,,,,,,,,,,,945.2209,3.0,945.2215,,,,947.9735,948.4711,947.4568,947.9728,946.2403,211.0,947.4565,948.4712,948.9708,948.9709,950.5046,1102.7,950.505,2.0,951.5042,3.0,29.0,119.0,7.0,1.0,1.2,0.7,Time
,,S03,1,male,33,anonymized,Serial_Dependence_U,2023.2.3,Win32,59.88023952,,,,,,,,,,,,951.5048,4.0,1046.1463,s,94.6174,,1048.8706,1049.3635,1048.367,1048.8703,1047.1635,134.0,1048.3668,1049.3635,1049.8637,1049.8639,1051.4481,965.0,1051.4492,2.0,1052.4477,4.0,0.0,120.0,7.0,1.0,1.2,0.7,Time
,,S03,1,male,33,anonymized,Serial_Dependence_U,2023.2.3,Win32,59.88023952,,,,,,,,,,,,1052.4492,4.0,1052.4544,,,,1055.4,1055.8979,1054.8831,1055.3997,1053.4657,183.0,1054.8828,1055.898,1056.3978,1056.3978,1058.3807,1331.0,1058.381,3.0,1059.3805,4.0,1.0,121.0,18.0,1.0,1.4,0.7,Time
,,S03,1,male,33,anonymized,Serial_Dependence_U,2023.2.3,Win32,59.88023952,,,,,,,,,,,,1059.381,4.0,1059.3815,,,,1062.5012,1062.9985,1061.9996,1062.5008,1060.398,122.0,1061.9994,1062.9985,1063.4984,1063.4987,1064.7163,1053.3,1064.7171,1.0,1065.7151,4.0,2.0,122.0,9.0,1.0,1.6,0.7,Time
,,S03,1,male,33,anonymized,Serial_Dependence_U,2023.2.3,Win32,59.88023952,,,,,,,,,,,,1065.7164,4.0,1065.7179,,,,1068.6654,1069.1646,1068.1487,1068.6653,1066.7351,27.0,1068.1485,1069.1646,1069.6647,1069.6647,1071.2652,1218.1,1071.2655,2.0,1072.2658,4.0,3.0,123.0,3.0,1.0,1.4,0.3,Time
,,S03,1,male,33,anonymized,Serial_Dependence_U,2023.2.3,Win32,59.88023952,,,,,,,,,,,,1072.2674,4.0,1072.2683,,,,1075.416,1075.9153,1074.8992,1075.4158,1073.2825,342.0,1074.899,1075.9153,1076.4155,1076.4155,1078.4659,1684.1,1078.4662,4.0,1079.4663,4.0,4.0,124.0,14.0,1.0,1.6,0.3,Time
,,S03,1,male,33,anonymized,Serial_Dependence_U,2023.2.3,Win32,59.88023952,,,,,,,,,,,,1079.4676,4.0,1079.4683,,,,1082.2029,1082.7013,1081.6856,1082.2027,1080.4835,243.0,1081.6854,1082.7014,1083.2007,1083.2013,1084.8691,1451.3,1084.8698,4.0,1085.8666,4.0,5.0,125.0,12.0,1.0,1.2,0.3,Time
,,S03,1,male,33,anonymized,Serial_Dependence_U,2023.2.3,Win32,59.88023952,,,,,,,,,,,,1085.8674,4.0,1085.8679,,,,1088.8174,1089.3166,1088.3009,1088.8172,1086.8842,306.0,1088.3007,1089.3167,1089.8169,1089.8169,1091.4217,1350.4,1091.4222,3.0,1092.418,4.0,6.0,126.0,8.0,1.0,1.4,0.7,Time
,,S03,1,male,33,anonymized,Serial_Dependence_U,2023.2.3,Win32,59.88023952,,,,,,,,,,,,1092.4194,4.0,1092.4202,,,,1095.3702,1095.868,1094.8517,1095.3699,1093.4369,188.0,1094.8516,1095.868,1096.3681,1096.3682,1097.8025,1242.9,1097.8035,2.0,1098.8016,4.0,7.0,127.0,28.0,1.0,1.4,0.7,Time
,,S03,1,male,33,anonymized,Serial_Dependence_U,2023.2.3,Win32,59.88023952,,,,,,,,,,,,1098.803,4.0,1098.8045,,,,1101.5401,1102.0351,1101.0219,1101.5396,1099.8132,292.0,1101.0217,1102.0351,1102.5351,1102.5352,1104.0348,1244.0,1104.0351,3.0,1105.0346,4.0,8.0,128.0,2.0,1.0,1.2,0.3,Time
,,S03,1,male,33,anonymized,Serial_Dependence_U,2023.2.3,Win32,59.88023952,,,,,,,,,,,,1105.0351,4.0,1105.0357,,,,1107.3732,1107.868,1106.8542,1107.3729,1106.0522,281.0,1106.8535,1107.8681,1108.3686,1108.3688,1109.9538,1350.6,1109.9546,5.0,1110.9529,4.0,9.0,129.0,0.0,1.0,0.8,0.3,Time
,,S03,1,male,33,anonymized,Serial_Dependence_U,2023.2.3,Win32,59.88023952,,,,,,,,,,,,1110.9544,4.0,1110.9564,,,,1113.3051,1113.8029,1112.7888,1113.3048,1111.9717,57.0,1112.7886,1113.803,1114.3026,1114.3028,1115.6193,1148.0,1115.6197,5.0,1116.6194,4.0,10.0,130.0,5.0,1.0,0.8,0.7,Time
,,S03,1,male,33,anonymized,Serial_Dependence_U,2023.2.3,Win32,59.88023952,,,,,,,,,,,,1116.6207,4.0,1116.6219,,,,1119.1532,1119.6524,1118.6364,1119.1531,1117.6269,11.0,1118.6363,1119.6525,1120.1525,1120.1525,1121.2196,832.7,1121.22,2.0,1122.2205,4.0,11.0,131.0,1.0,1.0,1.0,0.3,Time
,,S03,1,male,33,anonymized,Serial_Dependence_U,2023.2.3,Win32,59.88023952,,,,,,,,,,,,1122.2223,4.0,1122.2231,,,,1124.5732,1125.0706,1124.0565,1124.5729,1123.2394,55.0,1124.0562,1125.0706,1125.5709,1125.571,1126.7872,978.8,1126.7877,4.0,1127.7868,4.0,12.0,132.0,15.0,1.0,0.8,0.7,Time
,,S03,1,male,33,anonymized,Serial_Dependence_U,2023.2.3,Win32,59.88023952,,,,,,,,,,,,1127.7877,4.0,1127.7883,,,,1130.7208,1131.22,1130.2041,1130.7207,1128.7885,171.0,1130.2041,1131.2201,1131.7204,1131.7205,1133.0707,1033.4,1133.071,2.0,1134.0705,4.0,13.0,133.0,23.0,1.0,1.4,0.3,Time
,,S03,1,male,33,anonymized,Serial_Dependence_U,2023.2.3,Win32,59.88023952,,,,,,,,,,,,1134.0711,4.0,1134.0717,,,,1136.4217,1136.9206,1135.9047,1136.4215,1135.0879,48.0,1135.9045,1136.9206,1137.4211,1137.4211,1139.3392,1019.7,1139.3406,4.0,1140.3383,4.0,14.0,134.0,10.0,1.0,0.8,0.3,Time
,,S03,1,male,33,anonymized,Serial_Dependence_U,2023.2.3,Win32,59.88023952,,,,,,,,,,,,1140.3399,4.0,1140.3409,,,,1143.4747,1143.9726,1142.972,1143.4743,1141.3576,71.0,1142.9719,1143.9726,1144.4726,1144.4729,1146.2572,1501.6,1146.2584,2.0,1147.2556,4.0,15.0,135.0,24.0,1.0,1.6,0.3,Time
,,S03,1,male,33,anonymized,Serial_Dependence_U,2023.2.3,Win32,59.88023952,,,,,,,,,,,,1147.2575,4.0,1147.2587,,,,1149.6059,1150.1054,1149.0891,1149.6058,1148.2723,145.0,1149.089,1150.1054,1150.6052,1150.6053,1151.9057,1117.8,1151.906,5.0,1152.9054,4.0,16.0,136.0,20.0,1.0,0.8,0.3,Time
,,S03,1,male,33,anonymized,Serial_Dependence_U,2023.2.3,Win32,59.88023952,,,,,,,,,,,,1152.906,4.0,1152.9065,,,,1155.4431,1155.9398,1154.9258,1155.4429,1153.9233,276.0,1154.9256,1155.9398,1156.4396,1156.4398,1157.8081,1136.4,1157.8091,4.0,1158.8071,4.0,17.0,137.0,16.0,1.0,1.0,0.7,Time
,,S03,1,male,33,anonymized,Serial_Dependence_U,2023.2.3,Win32,59.88023952,,,,,,,,,,,,1158.8086,4.0,1158.8097,,,,1161.5593,1162.0574,1161.0432,1161.559,1159.8265,115.0,1161.0429,1162.0574,1162.5576,1162.558,1163.8817,998.9000001,1163.8821,2.0,1164.8731,4.0,18.0,138.0,27.0,1.0,1.2,0.7,Time
,,S03,1,male,33,anonymized,Serial_Dependence_U,2023.2.3,Win32,59.88023952,,,,,,,,,,,,1164.8737,4.0,1164.8743,,,,1167.2243,1167.7234,1166.7075,1167.2241,1165.8927,341.0,1166.7073,1167.7235,1168.2237,1168.2238,1170.0421,1073.8,1170.0434,5.0,1171.0426,4.0,19.0,139.0,25.0,1.0,0.8,0.7,Time
,,S03,1,male,33,anonymized,Serial_Dependence_U,2023.2.3,Win32,59.88023952,,,,,,,,,,,,1171.0442,4.0,1171.0449,,,,1173.5941,1174.0924,1173.077,1173.5939,1172.0603,204.0,1173.0768,1174.0925,1174.5932,1174.5934,1175.9788,1033.1,1175.9791,3.0,1176.9756,4.0,20.0,140.0,6.0,1.0,1.0,0.7,Time
,,S03,1,male,33,anonymized,Serial_Dependence_U,2023.2.3,Win32,59.88023952,,,,,,,,,,,,1176.9774,4.0,1176.9782,,,,1179.9252,1180.4258,1179.4085,1179.9252,1177.9918,38.0,1179.4083,1180.4258,1180.9251,1180.9254,1182.8718,1126.3,1182.8724,2.0,1183.8759,4.0,21.0,141.0,13.0,1.0,1.4,0.3,Time
,,S03,1,male,33,anonymized,Serial_Dependence_U,2023.2.3,Win32,59.88023952,,,,,,,,,,,,1183.8772,4.0,1183.8782,,,,1186.4286,1186.9259,1185.9122,1186.4284,1184.8951,186.0,1185.9121,1186.9261,1187.4266,1187.4268,1189.2424,1462.7,1189.2426,5.0,1190.2426,4.0,22.0,142.0,11.0,1.0,1.0,0.3,Time
,,S03,1,male,33,anonymized,Serial_Dependence_U,2023.2.3,Win32,59.88023952,,,,,,,,,,,,1190.244,4.0,1190.245,,,,1192.7958,1193.2925,1192.2786,1192.7957,1191.2616,241.0,1192.2783,1193.2926,1193.7926,1193.7926,1195.0429,782.2,1195.0431,2.0,1196.0438,4.0,23.0,143.0,21.0,1.0,1.0,0.3,Time
,,S03,1,male,33,anonymized,Serial_Dependence_U,2023.2.3,Win32,59.88023952,,,,,,,,,,,,1196.0451,4.0,1196.0464,,,,1199.195,1199.6937,1198.6794,1199.1948,1197.0622,160.0,1198.6791,1199.6938,1200.1938,1200.1939,1201.8117,1250.8,1201.8123,2.0,1202.81,4.0,24.0,144.0,19.0,1.0,1.6,0.7,Time
,,S03,1,male,33,anonymized,Serial_Dependence_U,2023.2.3,Win32,59.88023952,,,,,,,,,,,,1202.8104,4.0,1202.8109,,,,1205.544,1206.0434,1205.0274,1205.544,1203.8133,139.0,1205.0272,1206.0434,1206.5436,1206.5436,1208.2285,1166.5,1208.229,3.0,1209.2274,4.0,25.0,145.0,17.0,1.0,1.2,0.7,Time
,,S03,1,male,33,anonymized,Serial_Dependence_U,2023.2.3,Win32,59.88023952,,,,,,,,,,,,1209.2281,4.0,1209.2284,,,,1211.7805,1212.278,1211.2641,1211.7803,1210.2449,128.0,1211.2638,1212.2781,1212.7783,1212.7785,1214.6792,1082.0,1214.68,4.0,1215.6787,4.0,26.0,146.0,26.0,1.0,1.0,0.7,Time
,,S03,1,male,33,anonymized,Serial_Dependence_U,2023.2.3,Win32,59.88023952,,,,,,,,,,,,1215.6802,4.0,1215.6815,,,,1218.8312,1219.3289,1218.3137,1218.8308,1216.6979,90.0,1218.3136,1219.329,1219.829,1219.8292,1221.2639,1150.5,1221.2649,2.0,1222.2633,4.0,27.0,147.0,4.0,1.0,1.6,0.3,Time
,,S03,1,male,33,anonymized,Serial_Dependence_U,2023.2.3,Win32,59.88023952,,,,,,,,,,,,1222.2647,4.0,1222.2652,,,,1225.4127,1225.9121,1224.8961,1225.4112,1223.2796,183.0,1224.8959,1225.9121,1226.4121,1226.4122,1228.0641,1357.8,1228.0649,2.0,1229.063,4.0,28.0,148.0,29.0,1.0,1.6,0.7,Time
,,S03,1,male,33,anonymized,Serial_Dependence_U,2023.2.3,Win32,59.88023952,,,,,,,,,,,,1229.0643,4.0,1229.0657,,,,1231.816,1232.3142,1231.299,1231.8158,1230.0827,250.0,1231.2987,1232.3145,1232.8138,1232.8138,1234.3308,1152.3,1234.3322,3.0,1235.3319,4.0,29.0,149.0,22.0,1.0,1.2,0.3,Time
,,S03,1,male,33,anonymized,Serial_Dependence_U,2023.2.3,Win32,59.88023952,,,,,,,,,,,,1235.3329,5.0,1263.8786,s,28.4864,,1267.009,1267.5001,1266.5021,1267.0084,1264.8994,18.0,1266.5017,1267.5001,1268.0006,1268.0006,1269.4328,1100.4,1269.4331,1.0,1270.4327,5.0,0.0,150.0,4.0,1.0,1.6,0.3,Time
,,S03,1,male,33,anonymized,Serial_Dependence_U,2023.2.3,Win32,59.88023952,,,,,,,,,,,,1270.4333,5.0,1270.4364,,,,1272.9703,1273.4676,1272.4534,1272.97,1271.4499,191.0,1272.4531,1273.4677,1273.9674,1273.9674,1275.6349,1281.7,1275.6358,4.0,1276.6343,5.0,1.0,151.0,16.0,1.0,1.0,0.7,Time
,,S03,1,male,33,anonymized,Serial_Dependence_U,2023.2.3,Win32,59.88023952,,,,,,,,,,,,1276.6357,5.0,1276.6373,,,,1278.9867,1279.4842,1278.4699,1278.9864,1277.6535,168.0,1278.4694,1279.4842,1279.9845,1279.985,1281.755,1421.2,1281.7554,5.0,1282.7512,5.0,2.0,152.0,25.0,1.0,0.8,0.7,Time
,,S03,1,male,33,anonymized,Serial_Dependence_U,2023.2.3,Win32,59.88023952,,,,,,,,,,,,1282.7526,5.0,1282.7535,,,,1285.7018,1286.2018,1285.1846,1285.7016,1283.7682,290.0,1285.1845,1286.2018,1286.7015,1286.7016,1288.0043,1035.9,1288.0046,2.0,1289.0021,5.0,3.0,153.0,23.0,1.0,1.4,0.3,Time
,,S03,1,male,33,anonymized,Serial_Dependence_U,2023.2.3,Win32,59.88023952,,,,,,,,,,,,1289.0035,5.0,1289.0053,,,,1291.9528,1292.4522,1291.4376,1291.9525,1290.0214,240.0,1291.4374,1292.4523,1292.9523,1292.9526,1294.4198,1101.2,1294.4208,2.0,1295.4189,5.0,4.0,154.0,3.0,1.0,1.4,0.3,Time
,,S03,1,male,33,anonymized,Serial_Dependence_U,2023.2.3,Win32,59.88023952,,,,,,,,,,,,1295.4203,5.0,1295.4216,,,,1298.369,1298.8687,1297.8547,1298.3689,1296.4381,279.0,1297.8538,1298.8687,1299.3684,1299.3684,1301.2195,1569.4,1301.2198,4.0,1302.2194,5.0,5.0,155.0,28.0,1.0,1.4,0.7,Time
,,S03,1,male,33,anonymized,Serial_Dependence_U,2023.2.3,Win32,59.88023952,,,,,,,,,,,,1302.2208,5.0,1302.2222,,,,1304.9724,1305.4702,1304.4559,1304.9721,1303.2377,338.0,1304.4551,1305.4703,1305.9706,1305.9708,1307.5392,1232.0,1307.5396,3.0,1308.5363,5.0,6.0,156.0,7.0,1.0,1.2,0.7,Time
,,S03,1,male,33,anonymized,Serial_Dependence_U,2023.2.3,Win32,59.88023952,,,,,,,,,,,,1308.5377,5.0,1308.5387,,,,1311.0869,1311.5862,1310.5702,1311.0868,1309.5535,250.0,1310.57,1311.5862,1312.0863,1312.0863,1313.3199,962.3,1313.3202,3.0,1314.32,5.0,7.0,157.0,1.0,1.0,1.0,0.3,Time
,,S03,1,male,33,anonymized,Serial_Dependence_U,2023.2.3,Win32,59.88023952,,,,,,,,,,,,1314.3205,5.0,1314.321,,,,1317.4566,1317.9539,1316.9398,1317.4559,1315.3372,34.0,1316.9396,1317.9541,1318.4541,1318.4542,1320.1074,1299.3,1320.1086,2.0,1321.105,5.0,8.0,158.0,14.0,1.0,1.6,0.3,Time
,,S03,1,male,33,anonymized,Serial_Dependence_U,2023.2.3,Win32,59.88023952,,,,,,,,,,,,1321.1063,5.0,1321.107,,,,1323.4406,1323.9384,1322.9382,1323.4405,1322.1236,293.0,1322.9381,1323.9384,1324.4385,1324.4388,1325.7891,1083.0,1325.7905,5.0,1326.7886,5.0,9.0,159.0,5.0,1.0,0.8,0.7,Time
,,S03,1,male,33,anonymized,Serial_Dependence_U,2023.2.3,Win32,59.88023952,,,,,,,,,,,,1326.79,5.0,1326.7914,,,,1329.3218,1329.8211,1328.805,1329.3217,1327.7914,74.0,1328.8049,1329.8212,1330.3213,1330.3213,1330.7549,81.10000002,1330.7552,1.0,1331.7554,5.0,10.0,160.0,11.0,1.0,1.0,0.3,Time
,,S03,1,male,33,anonymized,Serial_Dependence_U,2023.2.3,Win32,59.88023952,,,,,,,,,,,,1331.7568,5.0,1331.7581,,,,1334.908,1335.406,1334.3914,1334.9072,1332.7744,146.0,1334.3911,1335.406,1335.906,1335.9062,1337.5737,1450.1,1337.575,2.0,1338.5729,5.0,11.0,161.0,9.0,1.0,1.6,0.7,Time
,,S03,1,male,33,anonymized,Serial_Dependence_U,2023.2.3,Win32,59.88023952,,,,,,,,,,,,1338.5745,5.0,1338.5762,,,,1341.5046,1342.0066,1340.993,1341.5042,1339.5757,304.0,1340.9928,1342.0066,1342.5057,1342.5058,1344.1394,1377.2,1344.1396,3.0,1345.1393,5.0,12.0,162.0,8.0,1.0,1.4,0.7,Time
,,S03,1,male,33,anonymized,Serial_Dependence_U,2023.2.3,Win32,59.88023952,,,,,,,,,,,,1345.1398,5.0,1345.1403,,,,1347.4479,1347.9406,1346.9431,1347.4477,1346.1406,299.0,1346.943,1347.9407,1348.4402,1348.4403,1350.0081,1192.4,1350.0092,5.0,1351.0074,5.0,13.0,163.0,10.0,1.0,0.8,0.3,Time
,,S03,1,male,33,anonymized,Serial_Dependence_U,2023.2.3,Win32,59.88023952,,,,,,,,,,,,1351.009,5.0,1351.01,,,,1354.1596,1354.6576,1353.6431,1354.1593,1352.0268,70.0,1353.6428,1354.6577,1355.1578,1355.1578,1356.6278,1153.5,1356.6285,2.0,1357.6248,5.0,14.0,164.0,29.0,1.0,1.6,0.7,Time
,,S03,1,male,33,anonymized,Serial_Dependence_U,2023.2.3,Win32,59.88023952,,,,,,,,,,,,1357.627,5.0,1357.6277,,,,1359.9745,1360.474,1359.4578,1359.9745,1358.6411,119.0,1359.4577,1360.474,1360.9739,1360.974,1363.0758,1241.5,1363.0772,5.0,1364.075,5.0,15.0,165.0,15.0,1.0,0.8,0.7,Time
,,S03,1,male,33,anonymized,Serial_Dependence_U,2023.2.3,Win32,59.88023952,,,,,,,,,,,,1364.0765,5.0,1364.0777,,,,1366.8272,1367.3254,1366.3098,1366.827,1365.0938,331.0,1366.3095,1367.3256,1367.8251,1367.8253,1369.3417,1203.6,1369.342,3.0,1370.3414,5.0,16.0,166.0,17.0,1.0,1.2,0.7,Time
,,S03,1,male,33,anonymized,Serial_Dependence_U,2023.2.3,Win32,59.88023952,,,,,,,,,,,,1370.342,5.0,1370.3425,,,,1372.6959,1373.1923,1372.1787,1372.6956,1371.3589,99.0,1372.1785,1373.1923,1373.6924,1373.6927,1375.7922,1033.7,1375.7926,4.0,1376.7919,5.0,17.0,167.0,20.0,1.0,0.8,0.3,Time
,,S03,1,male,33,anonymized,Serial_Dependence_U,2023.2.3,Win32,59.88023952,,,,,,,,,,,,1376.7926,5.0,1376.7931,,,,1379.5265,1380.0267,1379.0121,1379.5263,1377.7954,86.0,1379.0119,1380.0268,1380.527,1380.5273,1381.8595,1029.3,1381.8597,2.0,1382.8598,5.0,18.0,168.0,2.0,1.0,1.2,0.3,Time
,,S03,1,male,33,anonymized,Serial_Dependence_U,2023.2.3,Win32,59.88023952,,,,,,,,,,,,1382.8615,5.0,1382.8623,,,,1385.4101,1385.9095,1384.896,1385.4101,1383.8769,109.0,1384.8957,1385.9095,1386.4103,1386.4105,1388.1656,1117.2,1388.1659,4.0,1389.1599,5.0,19.0,169.0,26.0,1.0,1.0,0.7,Time
,,S03,1,male,33,anonymized,Serial_Dependence_U,2023.2.3,Win32,59.88023952,,,,,,,,,,,,1389.1607,5.0,1389.161,,,,1392.3137,1392.8113,1391.7961,1392.3134,1390.1776,168.0,1391.796,1392.8113,1393.3116,1393.3117,1394.9457,1332.1,1394.9462,2.0,1395.9445,5.0,20.0,170.0,24.0,1.0,1.6,0.3,Time
,,S03,1,male,33,anonymized,Serial_Dependence_U,2023.2.3,Win32,59.88023952,,,,,,,,,,,,1395.9463,5.0,1395.9471,,,,1398.6779,1399.1773,1398.1616,1398.6779,1396.9475,30.0,1398.1616,1399.1774,1399.6779,1399.678,1401.2968,1337.9,1401.2972,4.0,1402.295,5.0,21.0,171.0,12.0,1.0,1.2,0.3,Time
,,S03,1,male,33,anonymized,Serial_Dependence_U,2023.2.3,Win32,59.88023952,,,,,,,,,,,,1402.2963,5.0,1402.2975,,,,1404.8285,1405.3278,1404.3119,1404.8283,1403.3064,78.0,1404.3118,1405.3279,1405.8278,1405.8279,1407.5504,1506.7,1407.5507,5.0,1408.5461,5.0,22.0,172.0,21.0,1.0,1.0,0.3,Time
,,S03,1,male,33,anonymized,Serial_Dependence_U,2023.2.3,Win32,59.88023952,,,,,,,,,,,,1408.5473,5.0,1408.5486,,,,1411.4987,1411.9958,1410.9819,1411.4984,1409.5649,43.0,1410.9813,1411.9959,1412.4962,1412.4965,1414.114,1366.4,1414.1154,3.0,1415.1138,5.0,23.0,173.0,18.0,1.0,1.4,0.7,Time
,,S03,1,male,33,anonymized,Serial_Dependence_U,2023.2.3,Win32,59.88023952,,,,,,,,,,,,1415.1159,5.0,1415.1166,,,,1418.0496,1418.5457,1417.5325,1418.0495,1416.127,112.0,1417.5324,1418.5458,1419.0462,1419.0464,1420.713,1300.0,1420.7132,2.0,1421.7136,5.0,24.0,174.0,13.0,1.0,1.4,0.3,Time
,,S03,1,male,33,anonymized,Serial_Dependence_U,2023.2.3,Win32,59.88023952,,,,,,,,,,,,1421.7148,5.0,1421.7161,,,,1424.4503,1424.9473,1423.9331,1424.4501,1422.7188,338.0,1423.9328,1424.9474,1425.4494,1425.4496,1427.0982,1365.8,1427.0985,4.0,1428.0969,5.0,25.0,175.0,22.0,1.0,1.2,0.3,Time
,,S03,1,male,33,anonymized,Serial_Dependence_U,2023.2.3,Win32,59.88023952,,,,,,,,,,,,1428.0983,5.0,1428.0994,,,,1430.648,1431.1474,1430.1307,1430.6478,1429.1141,34.0,1430.1307,1431.1474,1431.6481,1431.6484,1433.1475,1080.0,1433.1479,4.0,1434.147,5.0,26.0,176.0,6.0,1.0,1.0,0.7,Time
,,S03,1,male,33,anonymized,Serial_Dependence_U,2023.2.3,Win32,59.88023952,,,,,,,,,,,,1434.1476,5.0,1434.1482,,,,1436.9009,1437.3985,1436.3837,1436.9007,1435.1649,121.0,1436.3833,1437.3986,1437.8987,1437.8987,1439.4326,1242.3,1439.4335,3.0,1440.4317,5.0,27.0,177.0,27.0,1.0,1.2,0.7,Time
,,S03,1,male,33,anonymized,Serial_Dependence_U,2023.2.3,Win32,59.88023952,,,,,,,,,,,,1440.4332,5.0,1440.4346,,,,1443.582,1444.0813,1443.0662,1443.5818,1441.4512,61.0,1443.0657,1444.0814,1444.5814,1444.5814,1446.0484,1248.4,1446.049,2.0,1447.0491,5.0,28.0,178.0,19.0,1.0,1.6,0.7,Time
,,S03,1,male,33,anonymized,Serial_Dependence_U,2023.2.3,Win32,59.88023952,,,,,,,,,,,,1447.0505,5.0,1447.0514,,,,1449.3991,1449.8997,1448.8824,1449.399,1448.0663,302.0,1448.8822,1449.8998,1450.3995,1450.3996,1451.8212,1069.8,1451.8218,5.0,1452.816,5.0,29.0,179.0,0.0,1.0,0.8,0.3,Time
,,S03,1,male,33,anonymized,Serial_Dependence_U,2023.2.3,Win32,59.88023952,,,,,,,,,,,,1452.8174,6.0,1521.2667,s,68.384,,1523.8061,1524.305,1523.289,1523.8058,1522.2742,99.0,1523.2889,1524.3051,1524.8052,1524.8052,1526.6291,1040.5,1526.6298,3.0,1527.6229,6.0,0.0,180.0,21.0,1.0,1.0,0.3,Time
,,S03,1,male,33,anonymized,Serial_Dependence_U,2023.2.3,Win32,59.88023952,,,,,,,,,,,,1527.6244,6.0,1527.6296,,,,1530.1756,1530.6722,1529.6597,1530.1754,1528.6396,295.0,1529.6595,1530.6722,1531.1739,1531.1742,1532.8587,1136.6,1532.8592,4.0,1533.8559,6.0,1.0,181.0,16.0,1.0,1.0,0.7,Time
,,S03,1,male,33,anonymized,Serial_Dependence_U,2023.2.3,Win32,59.88023952,,,,,,,,,,,,1533.8565,6.0,1533.8571,,,,1536.2075,1536.707,1535.6902,1536.2072,1534.8734,318.0,1535.6901,1536.7071,1537.2068,1537.207,1538.7069,1045.7,1538.7077,5.0,1539.7064,6.0,2.0,182.0,15.0,1.0,0.8,0.7,Time
,,S03,1,male,33,anonymized,Serial_Dependence_U,2023.2.3,Win32,59.88023952,,,,,,,,,,,,1539.707,6.0,1539.7075,,,,1542.6582,1543.1567,1542.1409,1542.6581,1540.7239,263.0,1542.1407,1543.1568,1543.658,1543.6581,1545.0586,1116.6,1545.0598,2.0,1546.0578,6.0,3.0,183.0,3.0,1.0,1.4,0.3,Time
,,S03,1,male,33,anonymized,Serial_Dependence_U,2023.2.3,Win32,59.88023952,,,,,,,,,,,,1546.0592,6.0,1546.0605,,,,1549.208,1549.7073,1548.6914,1549.2079,1547.0766,93.0,1548.6914,1549.7073,1550.2075,1550.2076,1550.6676,152.7,1550.6679,1.0,1551.6583,6.0,4.0,184.0,24.0,1.0,1.6,0.3,Time
,,S03,1,male,33,anonymized,Serial_Dependence_U,2023.2.3,Win32,59.88023952,,,,,,,,,,,,1551.6597,6.0,1551.6607,,,,1553.9916,1554.4909,1553.475,1553.9916,1552.6608,358.0,1553.475,1554.491,1554.9911,1554.9913,1556.3917,1177.3,1556.3919,5.0,1557.3921,6.0,5.0,185.0,5.0,1.0,0.8,0.7,Time
,,S03,1,male,33,anonymized,Serial_Dependence_U,2023.2.3,Win32,59.88023952,,,,,,,,,,,,1557.3932,6.0,1557.3946,,,,1560.5447,1561.0426,1560.0292,1560.5444,1558.411,224.0,1560.029,1561.0426,1561.543,1561.5431,1563.109,1379.2,1563.1097,2.0,1564.1097,6.0,6.0,186.0,14.0,1.0,1.6,0.3,Time
,,S03,1,male,33,anonymized,Serial_Dependence_U,2023.2.3,Win32,59.88023952,,,,,,,,,,,,1564.1108,6.0,1564.1117,,,,1567.0614,1567.5589,1566.5455,1567.0611,1565.1287,209.0,1566.5452,1567.5589,1568.0596,1568.0598,1569.7429,1450.1,1569.7431,3.0,1570.7424,6.0,7.0,187.0,23.0,1.0,1.4,0.3,Time
,,S03,1,male,33,anonymized,Serial_Dependence_U,2023.2.3,Win32,59.88023952,,,,,,,,,,,,1570.743,6.0,1570.7437,,,,1573.2833,1573.7768,1572.7795,1573.2831,1571.7614,121.0,1572.7794,1573.7769,1574.277,1574.2774,1575.6779,1143.5,1575.6787,4.0,1576.6774,6.0,8.0,188.0,11.0,1.0,1.0,0.3,Time
,,S03,1,male,33,anonymized,Serial_Dependence_U,2023.2.3,Win32,59.88023952,,,,,,,,,,,,1576.6789,6.0,1576.68,,,,1579.8201,1580.3107,1579.3131,1579.8199,1577.6961,87.0,1579.3128,1580.3108,1580.8109,1580.8111,1582.2608,1249.7,1582.2613,2.0,1583.2608,6.0,9.0,189.0,29.0,1.0,1.6,0.7,Time
,,S03,1,male,33,anonymized,Serial_Dependence_U,2023.2.3,Win32,59.88023952,,,,,,,,,,,,1583.2624,6.0,1583.2637,,,,1586.4113,1586.9106,1585.8947,1586.4112,1584.2779,197.0,1585.8945,1586.9106,1587.4114,1587.4114,1588.7965,1092.1,1588.7971,1.0,1589.7956,6.0,10.0,190.0,19.0,1.0,1.6,0.7,Time
,,S03,1,male,33,anonymized,Serial_Dependence_U,2023.2.3,Win32,59.88023952,,,,,,,,,,,,1589.7977,6.0,1589.7984,,,,1592.9472,1593.4455,1592.4313,1592.9466,1590.8146,288.0,1592.431,1593.4455,1593.9456,1593.9459,1595.4989,1097.9,1595.4993,1.0,1596.4957,6.0,11.0,191.0,4.0,1.0,1.6,0.3,Time
,,S03,1,male,33,anonymized,Serial_Dependence_U,2023.2.3,Win32,59.88023952,,,,,,,,,,,,1596.4971,6.0,1596.498,,,,1599.2458,1599.745,1598.7292,1599.2456,1597.5126,159.0,1598.729,1599.745,1600.2452,1600.2453,1602.1497,1637.9,1602.1501,5.0,1603.1461,6.0,12.0,192.0,27.0,1.0,1.2,0.7,Time
,,S03,1,male,33,anonymized,Serial_Dependence_U,2023.2.3,Win32,59.88023952,,,,,,,,,,,,1603.1476,6.0,1603.1487,,,,1605.8965,1606.3956,1605.3828,1605.8963,1604.1657,213.0,1605.3825,1606.3957,1606.8957,1606.8958,1608.2629,1263.6,1608.2631,4.0,1609.2625,6.0,13.0,193.0,17.0,1.0,1.2,0.7,Time
,,S03,1,male,33,anonymized,Serial_Dependence_U,2023.2.3,Win32,59.88023952,,,,,,,,,,,,1609.2631,6.0,1609.2636,,,,1611.6136,1612.1128,1611.0971,1611.6135,1610.2801,8.0,1611.0968,1612.1129,1612.6137,1612.6139,1613.9634,1042.8,1613.9638,5.0,1614.9631,6.0,14.0,194.0,10.0,1.0,0.8,0.3,Time
,,S03,1,male,33,anonymized,Serial_Dependence_U,2023.2.3,Win32,59.88023952,,,,,,,,,,,,1614.9637,6.0,1614.9641,,,,1617.9176,1618.4145,1617.3997,1617.9172,1615.981,117.0,1617.3994,1618.4146,1618.9147,1618.9149,1621.0489,1250.6,1621.0497,2.0,1622.0483,6.0,15.0,195.0,18.0,1.0,1.4,0.7,Time
,,S03,1,male,33,anonymized,Serial_Dependence_U,2023.2.3,Win32,59.88023952,,,,,,,,,,,,1622.0496,6.0,1622.0509,,,,1625.0014,1625.4982,1624.4845,1625.0012,1623.0674,331.0,1624.4837,1625.4982,1625.9986,1625.9987,1627.8349,1200.0,1627.8352,2.0,1628.8318,6.0,16.0,196.0,28.0,1.0,1.4,0.7,Time
,,S03,1,male,33,anonymized,Serial_Dependence_U,2023.2.3,Win32,59.88023952,,,,,,,,,,,,1628.8332,6.0,1628.8344,,,,1631.582,1632.082,1631.0655,1631.5819,1629.8484,277.0,1631.0651,1632.0821,1632.5829,1632.583,1634.0353,1108.5,1634.0364,2.0,1635.034,6.0,17.0,197.0,2.0,1.0,1.2,0.3,Time
,,S03,1,male,33,anonymized,Serial_Dependence_U,2023.2.3,Win32,59.88023952,,,,,,,,,,,,1635.0356,6.0,1635.0364,,,,1637.9849,1638.4837,1637.4685,1637.9847,1636.0538,50.0,1637.4681,1638.4837,1638.9824,1638.9825,1640.4161,1160.9,1640.4165,2.0,1641.4166,6.0,18.0,198.0,13.0,1.0,1.4,0.3,Time
,,S03,1,male,33,anonymized,Serial_Dependence_U,2023.2.3,Win32,59.88023952,,,,,,,,,,,,1641.4172,6.0,1641.4175,,,,1644.5498,1645.0491,1644.0333,1644.5497,1642.4239,166.0,1644.0332,1645.0491,1645.55,1645.5502,1647.8583,1585.5,1647.8587,3.0,1648.8506,6.0,19.0,199.0,9.0,1.0,1.6,0.7,Time
,,S03,1,male,33,anonymized,Serial_Dependence_U,2023.2.3,Win32,59.88023952,,,,,,,,,,,,1648.8519,6.0,1648.8529,,,,1651.4022,1651.9006,1650.885,1651.4018,1649.8695,39.0,1650.8847,1651.9007,1652.4009,1652.4011,1654.035,1217.9,1654.0363,4.0,1655.0342,6.0,20.0,200.0,1.0,1.0,1.0,0.3,Time
,,S03,1,male,33,anonymized,Serial_Dependence_U,2023.2.3,Win32,59.88023952,,,,,,,,,,,,1655.0364,6.0,1655.0371,,,,1657.7718,1658.2668,1657.2682,1657.7717,1656.0533,36.0,1657.268,1658.267,1658.7669,1658.767,1660.6509,1250.2,1660.6512,3.0,1661.6515,6.0,21.0,201.0,7.0,1.0,1.2,0.7,Time
,,S03,1,male,33,anonymized,Serial_Dependence_U,2023.2.3,Win32,59.88023952,,,,,,,,,,,,1661.6525,6.0,1661.6534,,,,1664.2002,1664.7018,1663.6882,1664.2,1662.6706,17.0,1663.688,1664.7018,1665.2021,1665.2021,1666.456,1004.7,1666.4564,3.0,1667.4514,6.0,22.0,202.0,26.0,1.0,1.0,0.7,Time
,,S03,1,male,33,anonymized,Serial_Dependence_U,2023.2.3,Win32,59.88023952,,,,,,,,,,,,1667.4521,6.0,1667.4525,,,,1670.2022,1670.7026,1669.6861,1670.2021,1668.4693,19.0,1669.6858,1670.7026,1671.2019,1671.202,1672.7208,999.9,1672.7213,2.0,1673.7184,6.0,23.0,203.0,12.0,1.0,1.2,0.3,Time
,,S03,1,male,33,anonymized,Serial_Dependence_U,2023.2.3,Win32,59.88023952,,,,,,,,,,,,1673.719,6.0,1673.7196,,,,1676.0692,1676.5686,1675.5525,1676.0692,1674.7361,14.0,1675.5525,1676.5687,1677.0691,1677.0693,1679.9709,1081.7,1679.9718,5.0,1680.9714,6.0,24.0,204.0,20.0,1.0,0.8,0.3,Time
,,S03,1,male,33,anonymized,Serial_Dependence_U,2023.2.3,Win32,59.88023952,,,,,,,,,,,,1680.9728,6.0,1680.9733,,,,1683.3039,1683.8028,1682.789,1683.3036,1681.9726,131.0,1682.7887,1683.8028,1684.3038,1684.304,1686.2205,1095.1,1686.2206,5.0,1687.2198,6.0,25.0,205.0,0.0,1.0,0.8,0.3,Time
,,S03,1,male,33,anonymized,Serial_Dependence_U,2023.2.3,Win32,59.88023952,,,,,,,,,,,,1687.2203,6.0,1687.2207,,,,1689.9722,1690.4706,1689.4541,1689.9719,1688.2382,105.0,1689.454,1690.4706,1690.9703,1690.9703,1692.2874,914.8,1692.2877,2.0,1693.287,6.0,26.0,206.0,22.0,1.0,1.2,0.3,Time
,,S03,1,male,33,anonymized,Serial_Dependence_U,2023.2.3,Win32,59.88023952,,,,,,,,,,,,1693.2879,6.0,1693.2884,,,,1696.242,1696.7391,1695.7234,1696.2419,1694.3068,263.0,1695.723,1696.7392,1697.2394,1697.2398,1698.5915,965.0,1698.5919,1.0,1699.5882,6.0,27.0,207.0,8.0,1.0,1.4,0.7,Time
,,S03,1,male,33,anonymized,Serial_Dependence_U,2023.2.3,Win32,59.88023952,,,,,,,,,,,,1699.5897,6.0,1699.5906,,,,1702.1271,1702.6214,1701.6244,1702.1267,1700.6076,326.0,1701.6241,1702.6216,1703.1209,1703.121,1704.4717,1017.1,1704.4721,3.0,1705.4721,6.0,28.0,208.0,6.0,1.0,1.0,0.7,Time
,,S03,1,male,33,anonymized,Serial_Dependence_U,2023.2.3,Win32,59.88023952,,,,,,,,,,,,1705.4734,6.0,1705.4746,,,,1707.8096,1708.3053,1707.2927,1707.8092,1706.4856,240.0,1707.2926,1708.3053,1708.8055,1708.8057,1710.2569,1177.5,1710.2578,5.0,1711.2559,6.0,29.0,209.0,25.0,1.0,0.8,0.7,Time
,,S03,1,male,33,anonymized,Serial_Dependence_U,2023.2.3,Win32,59.88023952,,,,,,,,,,,,1711.2575,7.0,1712.9573,s,1.6676,,1715.9091,1716.4066,1715.3908,1715.9088,1713.9748,11.0,1715.3903,1716.4066,1716.9064,1716.9065,1718.3564,1127.7,1718.3574,2.0,1719.3558,7.0,0.0,210.0,13.0,1.0,1.4,0.3,Time
,,S03,1,male,33,anonymized,Serial_Dependence_U,2023.2.3,Win32,59.88023952,,,,,,,,,,,,1719.3564,7.0,1719.3591,,,,1721.8925,1722.3904,1721.3775,1721.8923,1720.3735,107.0,1721.3774,1722.3905,1722.8899,1722.8901,1724.3602,1135.9,1724.3611,4.0,1725.3574,7.0,1.0,211.0,6.0,1.0,1.0,0.7,Time
,,S03,1,male,33,anonymized,Serial_Dependence_U,2023.2.3,Win32,59.88023952,,,,,,,,,,,,1725.3586,7.0,1725.3597,,,,1728.0927,1728.5905,1727.5764,1728.0924,1726.3611,118.0,1727.576,1728.5905,1729.0899,1729.09,1730.7738,1417.3,1730.7741,4.0,1731.7735,7.0,2.0,212.0,17.0,1.0,1.2,0.7,Time
,,S03,1,male,33,anonymized,Serial_Dependence_U,2023.2.3,Win32,59.88023952,,,,,,,,,,,,1731.774,7.0,1731.7747,,,,1734.5088,1735.007,1733.9915,1734.5086,1732.7761,221.0,1733.9914,1735.007,1735.5071,1735.5072,1737.8247,1182.9,1737.8253,3.0,1738.8253,7.0,3.0,213.0,22.0,1.0,1.2,0.3,Time
,,S03,1,male,33,anonymized,Serial_Dependence_U,2023.2.3,Win32,59.88023952,,,,,,,,,,,,1738.8271,7.0,1738.8281,,,,1741.5786,1742.0751,1741.0612,1741.5782,1739.8438,340.0,1741.0607,1742.0752,1742.5751,1742.5752,1744.2431,1117.2,1744.2442,2.0,1745.2423,7.0,4.0,214.0,2.0,1.0,1.2,0.3,Time
,,S03,1,male,33,anonymized,Serial_Dependence_U,2023.2.3,Win32,59.88023952,,,,,,,,,,,,1745.2438,7.0,1745.2449,,,,1748.1926,1748.6921,1747.6816,1748.1924,1746.2614,241.0,1747.6813,1748.6921,1749.1921,1749.1922,1750.8092,1148.1,1750.8094,2.0,1751.8089,7.0,5.0,215.0,18.0,1.0,1.4,0.7,Time
,,S03,1,male,33,anonymized,Serial_Dependence_U,2023.2.3,Win32,59.88023952,,,,,,,,,,,,1751.8096,7.0,1751.8101,,,,1754.3452,1754.8429,1753.8286,1754.3449,1752.8139,326.0,1753.8281,1754.8429,1755.3433,1755.3433,1756.9108,1199.9,1756.912,4.0,1757.9099,7.0,6.0,216.0,11.0,1.0,1.0,0.3,Time
,,S03,1,male,33,anonymized,Serial_Dependence_U,2023.2.3,Win32,59.88023952,,,,,,,,,,,,1757.9112,7.0,1757.9126,,,,1760.6632,1761.1606,1760.1468,1760.6631,1758.9291,17.0,1760.1467,1761.1606,1761.6615,1761.662,1766.2642,905.6999999,1766.2646,2.0,1767.261,7.0,7.0,217.0,7.0,1.0,1.2,0.7,Time
,,S03,1,male,33,anonymized,Serial_Dependence_U,2023.2.3,Win32,59.88023952,,,,,,,,,,,,1767.2627,7.0,1767.2638,,,,1770.4134,1770.9115,1769.897,1770.4132,1768.2799,245.0,1769.8966,1770.9116,1771.4112,1771.4112,1772.9123,1216.6,1772.9132,2.0,1773.9118,7.0,8.0,218.0,24.0,1.0,1.6,0.3,Time
,,S03,1,male,33,anonymized,Serial_Dependence_U,2023.2.3,Win32,59.88023952,,,,,,,,,,,,1773.9134,7.0,1773.9144,,,,1776.4664,1776.9622,1775.9484,1776.4661,1774.9309,24.0,1775.9481,1776.9623,1777.4622,1777.4623,1779.2613,1506.5,1779.262,5.0,1780.2611,7.0,9.0,219.0,16.0,1.0,1.0,0.7,Time
,,S03,1,male,33,anonymized,Serial_Dependence_U,2023.2.3,Win32,59.88023952,,,,,,,,,,,,1780.2617,7.0,1780.2622,,,,1782.8145,1783.3122,1782.2973,1782.8143,1781.2787,5.0,1782.2969,1783.3122,1783.8122,1783.8125,1785.2633,1284.3,1785.2646,4.0,1786.2633,7.0,10.0,220.0,26.0,1.0,1.0,0.7,Time
,,S03,1,male,33,anonymized,Serial_Dependence_U,2023.2.3,Win32,59.88023952,,,,,,,,,,,,1786.2653,7.0,1786.2658,,,,1788.6127,1789.1119,1788.0997,1788.6126,1787.2811,49.0,1788.0995,1789.112,1789.6119,1789.612,1791.0792,1143.4,1791.0794,5.0,1792.0799,7.0,11.0,221.0,5.0,1.0,0.8,0.7,Time
,,S03,1,male,33,anonymized,Serial_Dependence_U,2023.2.3,Win32,59.88023952,,,,,,,,,,,,1792.0809,7.0,1792.082,,,,1794.4297,1794.929,1793.9129,1794.4297,1793.0982,279.0,1793.9128,1794.9291,1795.4291,1795.4293,1798.2812,747.0,1798.2823,2.0,1799.2802,7.0,12.0,222.0,20.0,1.0,0.8,0.3,Time
,,S03,1,male,33,anonymized,Serial_Dependence_U,2023.2.3,Win32,59.88023952,,,,,,,,,,,,1799.2814,7.0,1799.2826,,,,1802.0332,1802.5309,1801.5168,1802.0331,1800.3007,271.0,1801.5163,1802.5309,1803.0305,1803.0308,1804.4006,1041.2,1804.4012,2.0,1805.3979,7.0,13.0,223.0,12.0,1.0,1.2,0.3,Time
,,S03,1,male,33,anonymized,Serial_Dependence_U,2023.2.3,Win32,59.88023952,,,,,,,,,,,,1805.3991,7.0,1805.4005,,,,1808.331,1808.8303,1807.8191,1808.3308,1806.4027,237.0,1807.8188,1808.8304,1809.3305,1809.3306,1811.231,1233.0,1811.2313,2.0,1812.2315,7.0,14.0,224.0,28.0,1.0,1.4,0.7,Time
,,S03,1,male,33,anonymized,Serial_Dependence_U,2023.2.3,Win32,59.88023952,,,,,,,,,,,,1812.233,7.0,1812.2342,,,,1815.3816,1815.8809,1814.8649,1815.3815,1813.2481,4.0,1814.8648,1815.8809,1816.381,1816.3811,1818.8329,1066.5,1818.8341,1.0,1819.8331,7.0,15.0,225.0,29.0,1.0,1.6,0.7,Time
,,S03,1,male,33,anonymized,Serial_Dependence_U,2023.2.3,Win32,59.88023952,,,,,,,,,,,,1819.8343,7.0,1819.8349,,,,1822.7687,1823.2651,1822.2509,1822.7683,1820.8354,75.0,1822.2504,1823.2651,1823.765,1823.765,1825.4321,1401.4,1825.4324,3.0,1826.4319,7.0,16.0,226.0,23.0,1.0,1.4,0.3,Time
,,S03,1,male,33,anonymized,Serial_Dependence_U,2023.2.3,Win32,59.88023952,,,,,,,,,,,,1826.4324,7.0,1826.4329,,,,1828.7857,1829.283,1828.2678,1828.7853,1827.451,37.0,1828.2676,1829.2831,1829.7831,1829.7831,1831.1177,1000.3,1831.1185,4.0,1832.1173,7.0,17.0,227.0,15.0,1.0,0.8,0.7,Time
,,S03,1,male,33,anonymized,Serial_Dependence_U,2023.2.3,Win32,59.88023952,,,,,,,,,,,,1832.1186,7.0,1832.1196,,,,1834.4578,1834.9504,1833.9525,1834.4574,1833.1357,157.0,1833.9522,1834.9504,1835.4503,1835.4507,1837.2278,1459.4,1837.2282,5.0,1838.2173,7.0,18.0,228.0,25.0,1.0,0.8,0.7,Time
,,S03,1,male,33,anonymized,Serial_Dependence_U,2023.2.3,Win32,59.88023952,,,,,,,,,,,,1838.2186,7.0,1838.2196,,,,1840.5672,1841.0665,1840.0503,1840.567,1839.2339,306.0,1840.0501,1841.0665,1841.5667,1841.5667,1842.6426,760.2,1842.6429,3.0,1843.6334,7.0,19.0,229.0,0.0,1.0,0.8,0.3,Time
,,S03,1,male,33,anonymized,Serial_Dependence_U,2023.2.3,Win32,59.88023952,,,,,,,,,,,,1843.634,7.0,1843.6341,,,,1846.5853,1847.0847,1846.0709,1846.5852,1844.6512,273.0,1846.0703,1847.0847,1847.5846,1847.5848,1849.5846,1728.7,1849.585,4.0,1850.5839,7.0,20.0,230.0,3.0,1.0,1.4,0.3,Time
,,S03,1,male,33,anonymized,Serial_Dependence_U,2023.2.3,Win32,59.88023952,,,,,,,,,,,,1850.5845,7.0,1850.5851,,,,1853.7184,1854.2178,1853.2016,1853.7183,1851.5912,180.0,1853.2014,1854.2179,1854.7177,1854.7178,1856.8204,1904.4,1856.821,4.0,1857.8192,7.0,21.0,231.0,4.0,1.0,1.6,0.3,Time
,,S03,1,male,33,anonymized,Serial_Dependence_U,2023.2.3,Win32,59.88023952,,,,,,,,,,,,1857.8206,7.0,1857.822,,,,1860.3715,1860.8693,1859.8546,1860.3712,1858.8391,30.0,1859.8543,1860.8694,1861.3694,1861.3695,1862.8043,1218.0,1862.8051,4.0,1863.8019,7.0,22.0,232.0,21.0,1.0,1.0,0.3,Time
,,S03,1,male,33,anonymized,Serial_Dependence_U,2023.2.3,Win32,59.88023952,,,,,,,,,,,,1863.8025,7.0,1863.803,,,,1866.9528,1867.4522,1866.4362,1866.9526,1864.8195,183.0,1866.4361,1867.4522,1867.9521,1867.9522,1870.3065,2021.3,1870.3068,4.0,1871.3037,7.0,23.0,233.0,19.0,1.0,1.6,0.7,Time
,,S03,1,male,33,anonymized,Serial_Dependence_U,2023.2.3,Win32,59.88023952,,,,,,,,,,,,1871.3051,7.0,1871.3062,,,,1874.2554,1874.7535,1873.7392,1874.2551,1872.3238,85.0,1873.7389,1874.7537,1875.2541,1875.2543,1876.8714,1353.3,1876.8727,3.0,1877.872,7.0,24.0,234.0,8.0,1.0,1.4,0.7,Time
,,S03,1,male,33,anonymized,Serial_Dependence_U,2023.2.3,Win32,59.88023952,,,,,,,,,,,,1877.8731,7.0,1877.8738,,,,1881.0174,1881.5212,1880.5025,1881.0172,1878.8911,229.0,1880.5023,1881.5212,1882.0212,1882.0213,1883.6888,1450.0,1883.6896,2.0,1884.687,7.0,25.0,235.0,14.0,1.0,1.6,0.3,Time
,,S03,1,male,33,anonymized,Serial_Dependence_U,2023.2.3,Win32,59.88023952,,,,,,,,,,,,1884.6876,7.0,1884.6881,,,,1887.438,1887.9382,1886.9213,1887.438,1885.7048,111.0,1886.9212,1887.9383,1888.4389,1888.4391,1889.7571,1075.9,1889.7577,2.0,1890.7565,7.0,26.0,236.0,27.0,1.0,1.2,0.7,Time
,,S03,1,male,33,anonymized,Serial_Dependence_U,2023.2.3,Win32,59.88023952,,,,,,,,,,,,1890.7578,7.0,1890.7582,,,,1893.9094,1894.406,1893.3912,1893.9091,1891.7747,49.0,1893.3909,1894.4061,1894.9071,1894.9071,1896.6723,1479.0,1896.6727,2.0,1897.6728,7.0,27.0,237.0,9.0,1.0,1.6,0.7,Time
,,S03,1,male,33,anonymized,Serial_Dependence_U,2023.2.3,Win32,59.88023952,,,,,,,,,,,,1897.6743,7.0,1897.6747,,,,1900.0061,1900.5055,1899.4894,1900.006,1898.6729,276.0,1899.4893,1900.5056,1901.0055,1901.0056,1902.1562,844.4,1902.1566,4.0,1903.1556,7.0,28.0,238.0,10.0,1.0,0.8,0.3,Time
,,S03,1,male,33,anonymized,Serial_Dependence_U,2023.2.3,Win32,59.88023952,,,,,,,,,,,,1903.1562,7.0,1903.1568,,,,1905.7085,1906.2071,1905.1918,1905.7083,1904.176,160.0,1905.1916,1906.2072,1906.7071,1906.7072,1908.1086,1076.4,1908.1088,4.0,1909.1072,7.0,29.0,239.0,1.0,1.0,1.0,0.3,Time
,,S03,1,male,33,anonymized,Serial_Dependence_U,2023.2.3,Win32,59.88023952,,,,,,,,,,,,1909.1078,8.0,1911.19,s,2.0604,,1913.9243,1914.4231,1913.4073,1913.9241,1912.1908,357.0,1913.4071,1914.4233,1914.9234,1914.9235,1916.6073,1350.4,1916.6079,4.0,1917.6078,8.0,0.0,240.0,2.0,1.0,1.2,0.3,Time
,,S03,1,male,33,anonymized,Serial_Dependence_U,2023.2.3,Win32,59.88023952,,,,,,,,,,,,1917.609,8.0,1917.6129,,,,1920.7606,1921.2596,1920.2432,1920.7603,1918.6268,81.0,1920.243,1921.2597,1921.7595,1921.7596,1923.8912,1794.3,1923.8916,4.0,1924.8925,8.0,1.0,241.0,14.0,1.0,1.6,0.3,Time
,,S03,1,male,33,anonymized,Serial_Dependence_U,2023.2.3,Win32,59.88023952,,,,,,,,,,,,1924.8939,8.0,1924.8944,,,,1927.8418,1928.3412,1927.3254,1927.8417,1925.9085,237.0,1927.3253,1928.3413,1928.8412,1928.8413,1930.1921,1162.8,1930.1924,2.0,1931.1918,8.0,2.0,242.0,23.0,1.0,1.4,0.3,Time
,,S03,1,male,33,anonymized,Serial_Dependence_U,2023.2.3,Win32,59.88023952,,,,,,,,,,,,1931.1923,8.0,1931.1926,,,,1934.1133,1934.6101,1933.6109,1934.1129,1932.2095,176.0,1933.6107,1934.6102,1935.1118,1935.1121,1936.9777,1583.1,1936.978,4.0,1937.9763,8.0,3.0,243.0,13.0,1.0,1.4,0.3,Time
,,S03,1,male,33,anonymized,Serial_Dependence_U,2023.2.3,Win32,59.88023952,,,,,,,,,,,,1937.9778,8.0,1937.9789,,,,1940.7062,1941.2094,1940.1976,1940.706,1938.9954,123.0,1940.1974,1941.2095,1941.7121,1941.7122,1943.4965,1209.9,1943.4969,3.0,1944.4925,8.0,4.0,244.0,12.0,1.0,1.2,0.3,Time
,,S03,1,male,33,anonymized,Serial_Dependence_U,2023.2.3,Win32,59.88023952,,,,,,,,,,,,1944.4931,8.0,1944.4935,,,,1947.4305,1947.9265,1946.9127,1947.43,1945.5098,88.0,1946.9125,1947.9266,1948.4267,1948.4268,1948.6081,93.29999995,1948.6085,1.0,1949.6106,8.0,5.0,245.0,28.0,1.0,1.4,0.7,Time
,,S03,1,male,33,anonymized,Serial_Dependence_U,2023.2.3,Win32,59.88023952,,,,,,,,,,,,1949.6124,8.0,1949.6136,,,,1952.7631,1953.2605,1952.2453,1952.7629,1950.6295,282.0,1952.2451,1953.2605,1953.7611,1953.7612,1955.3799,1285.4,1955.3804,2.0,1956.3781,8.0,6.0,246.0,19.0,1.0,1.6,0.7,Time
,,S03,1,male,33,anonymized,Serial_Dependence_U,2023.2.3,Win32,59.88023952,,,,,,,,,,,,1956.3794,8.0,1956.3804,,,,1958.7276,1959.2269,1958.2111,1958.7275,1957.3942,62.0,1958.211,1959.227,1959.7272,1959.7272,1960.6609,566.1999999,1960.6611,2.0,1961.6605,8.0,7.0,247.0,10.0,1.0,0.8,0.3,Time
,,S03,1,male,33,anonymized,Serial_Dependence_U,2023.2.3,Win32,59.88023952,,,,,,,,,,,,1961.6612,8.0,1961.6616,,,,1963.9963,1964.4952,1963.4804,1963.9962,1962.6639,61.0,1963.4798,1964.4952,1964.9951,1964.9953,1965.9946,638.0999999,1965.9949,2.0,1966.9949,8.0,8.0,248.0,0.0,1.0,0.8,0.3,Time
,,S03,1,male,33,anonymized,Serial_Dependence_U,2023.2.3,Win32,59.88023952,,,,,,,,,,,,1966.996,8.0,1966.997,,,,1970.1454,1970.6457,1969.6286,1970.1453,1968.0125,216.0,1969.6285,1970.6459,1971.146,1971.1461,1972.9943,1595.4,1972.9954,3.0,1973.9962,8.0,9.0,249.0,4.0,1.0,1.6,0.3,Time
,,S03,1,male,33,anonymized,Serial_Dependence_U,2023.2.3,Win32,59.88023952,,,,,,,,,,,,1973.9973,8.0,1973.9982,,,,1976.946,1977.4452,1976.4295,1976.9459,1975.0125,216.0,1976.4293,1977.4453,1977.9453,1977.9454,1979.2304,969.9000001,1979.2313,1.0,1980.232,8.0,10.0,250.0,18.0,1.0,1.4,0.7,Time
,,S03,1,male,33,anonymized,Serial_Dependence_U,2023.2.3,Win32,59.88023952,,,,,,,,,,,,1980.2332,8.0,1980.2338,,,,1982.5813,1983.0792,1982.0665,1982.5809,1981.2482,40.0,1982.0657,1983.0793,1983.5792,1983.5793,1984.8001,923.9000001,1984.8005,4.0,1985.7972,8.0,11.0,251.0,5.0,1.0,0.8,0.7,Time
,,S03,1,male,33,anonymized,Serial_Dependence_U,2023.2.3,Win32,59.88023952,,,,,,,,,,,,1985.7987,8.0,1985.7997,,,,1988.1497,1988.647,1987.6328,1988.1496,1986.8161,154.0,1987.6325,1988.6471,1989.1464,1989.1464,1990.7303,1196.9,1990.7308,5.0,1991.73,8.0,12.0,252.0,25.0,1.0,0.8,0.7,Time
,,S03,1,male,33,anonymized,Serial_Dependence_U,2023.2.3,Win32,59.88023952,,,,,,,,,,,,1991.7305,8.0,1991.731,,,,1994.4666,1994.9645,1993.9501,1994.4659,1992.7328,92.0,1993.9498,1994.9647,1995.4648,1995.465,1996.6158,834.1,1996.6166,1.0,1997.6146,8.0,13.0,253.0,17.0,1.0,1.2,0.7,Time
,,S03,1,male,33,anonymized,Serial_Dependence_U,2023.2.3,Win32,59.88023952,,,,,,,,,,,,1997.6164,8.0,1997.618,,,,2000.167,2000.6655,1999.6513,2000.1668,1998.6335,108.0,1999.6507,2000.6656,2001.1648,2001.1649,2002.0994,649.3,2002.1004,1.0,2003.0983,8.0,14.0,254.0,26.0,1.0,1.0,0.7,Time
,,S03,1,male,33,anonymized,Serial_Dependence_U,2023.2.3,Win32,59.88023952,,,,,,,,,,,,2003.0997,8.0,2003.1009,,,,2006.2486,2006.7478,2005.7319,2006.2485,2004.115,109.0,2005.7317,2006.7479,2007.2479,2007.248,2009.1652,1647.5,2009.1654,3.0,2010.166,8.0,15.0,255.0,9.0,1.0,1.6,0.7,Time
,,S03,1,male,33,anonymized,Serial_Dependence_U,2023.2.3,Win32,59.88023952,,,,,,,,,,,,2010.1674,8.0,2010.1691,,,,2012.7187,2013.2162,2012.2016,2012.7185,2011.1852,335.0,2012.2013,2013.2162,2013.7163,2013.7165,2015.1506,1167.5,2015.1516,4.0,2016.1497,8.0,16.0,256.0,21.0,1.0,1.0,0.3,Time
,,S03,1,male,33,anonymized,Serial_Dependence_U,2023.2.3,Win32,59.88023952,,,,,,,,,,,,2016.1508,8.0,2016.1521,,,,2019.2831,2019.7825,2018.7663,2019.283,2017.1534,176.0,2018.7662,2019.7825,2020.2825,2020.2825,2022.0372,1457.3,2022.0375,2.0,2023.034,8.0,17.0,257.0,29.0,1.0,1.6,0.7,Time
,,S03,1,male,33,anonymized,Serial_Dependence_U,2023.2.3,Win32,59.88023952,,,,,,,,,,,,2023.0354,8.0,2023.0362,,,,2025.5854,2026.0839,2025.067,2025.5852,2024.0529,174.0,2025.0668,2026.0839,2026.585,2026.5851,2028.3174,1396.0,2028.3181,5.0,2029.3167,8.0,18.0,258.0,16.0,1.0,1.0,0.7,Time
,,S03,1,male,33,anonymized,Serial_Dependence_U,2023.2.3,Win32,59.88023952,,,,,,,,,,,,2029.3197,8.0,2029.3199,,,,2031.8699,2032.3679,2031.3534,2031.8696,2030.3341,74.0,2031.3531,2032.3679,2032.8678,2032.868,2034.434,1284.2,2034.4353,4.0,2035.4337,8.0,19.0,259.0,1.0,1.0,1.0,0.3,Time
,,S03,1,male,33,anonymized,Serial_Dependence_U,2023.2.3,Win32,59.88023952,,,,,,,,,,,,2035.4343,8.0,2035.4344,,,,2037.9848,2038.4846,2037.468,2037.9847,2036.4513,97.0,2037.4678,2038.4847,2038.9849,2038.985,2040.5028,1167.2,2040.5037,4.0,2041.5017,8.0,20.0,260.0,11.0,1.0,1.0,0.3,Time
,,S03,1,male,33,anonymized,Serial_Dependence_U,2023.2.3,Win32,59.88023952,,,,,,,,,,,,2041.5031,8.0,2041.5044,,,,2044.052,2044.5523,2043.5352,2044.0519,2042.5206,48.0,2043.5351,2044.5524,2045.0523,2045.0524,2046.6827,1435.0,2046.6831,5.0,2047.6859,8.0,21.0,261.0,6.0,1.0,1.0,0.7,Time
,,S03,1,male,33,anonymized,Serial_Dependence_U,2023.2.3,Win32,59.88023952,,,,,,,,,,,,2047.6882,8.0,2047.6892,,,,2050.6222,2051.119,2050.1195,2050.622,2048.7024,147.0,2050.1195,2051.1191,2051.6195,2051.6197,2053.4375,1549.3,2053.4383,4.0,2054.4367,8.0,22.0,262.0,3.0,1.0,1.4,0.3,Time
,,S03,1,male,33,anonymized,Serial_Dependence_U,2023.2.3,Win32,59.88023952,,,,,,,,,,,,2054.4387,8.0,2054.4399,,,,2057.1886,2057.6868,2056.6718,2057.1876,2055.456,53.0,2056.6713,2057.6869,2058.1868,2058.1869,2059.8904,1404.6,2059.8912,4.0,2060.8871,8.0,23.0,263.0,27.0,1.0,1.2,0.7,Time
,,S03,1,male,33,anonymized,Serial_Dependence_U,2023.2.3,Win32,59.88023952,,,,,,,,,,,,2060.8884,8.0,2060.8892,,,,2064.0204,2064.5196,2063.5061,2064.0203,2061.8977,74.0,2063.5059,2064.5197,2065.0198,2065.0199,2066.837,1316.6,2066.8372,2.0,2067.8379,8.0,24.0,264.0,24.0,1.0,1.6,0.3,Time
,,S03,1,male,33,anonymized,Serial_Dependence_U,2023.2.3,Win32,59.88023952,,,,,,,,,,,,2067.8394,8.0,2067.8405,,,,2070.5899,2071.088,2070.0732,2070.5896,2068.8567,82.0,2070.0727,2071.0881,2071.5879,2071.588,2073.3403,1454.7,2073.3411,4.0,2074.3382,8.0,25.0,265.0,7.0,1.0,1.2,0.7,Time
,,S03,1,male,33,anonymized,Serial_Dependence_U,2023.2.3,Win32,59.88023952,,,,,,,,,,,,2074.3396,8.0,2074.3409,,,,2076.6928,2077.188,2076.1751,2076.6926,2075.3576,98.0,2076.1748,2077.1881,2077.6881,2077.6884,2079.338,1283.4,2079.3383,5.0,2080.3377,8.0,26.0,266.0,15.0,1.0,0.8,0.7,Time
,,S03,1,male,33,anonymized,Serial_Dependence_U,2023.2.3,Win32,59.88023952,,,,,,,,,,,,2080.3384,8.0,2080.339,,,,2083.2822,2083.7724,2082.7743,2083.282,2081.3552,186.0,2082.774,2083.7725,2084.2729,2084.2731,2085.8898,1350.6,2085.8904,3.0,2086.8899,8.0,27.0,267.0,8.0,1.0,1.4,0.7,Time
,,S03,1,male,33,anonymized,Serial_Dependence_U,2023.2.3,Win32,59.88023952,,,,,,,,,,,,2086.8914,8.0,2086.8919,,,,2089.6396,2090.1388,2089.1228,2089.6394,2087.9064,111.0,2089.1227,2090.1389,2090.6391,2090.6391,2092.3408,1357.0,2092.3409,4.0,2093.3391,8.0,28.0,268.0,22.0,1.0,1.2,0.3,Time
,,S03,1,male,33,anonymized,Serial_Dependence_U,2023.2.3,Win32,59.88023952,,,,,,,,,,,,2093.3398,8.0,2093.3403,,,,2095.6902,2096.1895,2095.1736,2095.6901,2094.3569,12.0,2095.1732,2096.1895,2096.6895,2096.6895,2098.1113,1171.4,2098.1117,5.0,2099.1077,8.0,29.0,269.0,20.0,1.0,0.8,0.3,Time
