Scale_setup.started,Scale_setup.stopped,participant,expid,session,sex,age,date,expName,psychopyVersion,OS,frameRate,Intro.started,Intro.stopped,key_resp_2.keys,key_resp_2.rt,key_resp_2.duration,block.started,direction,Block_id,block.stopped,trial_direction,Block_resp_2.keys,Block_resp_2.rt,Block_resp_2.duration,ITI.started,ITI.stopped,Mask_2.started,Mask_2.stopped,encoding.started,encoding.stopped,Cue.started,Cue.stopped,Response.started,Response.stopped,keyDuration,Feedback_Time.started,FeedbackID_T,Feedback_Time.stopped,trials.thisRepN,trials.thisTrialN,trials.thisN,trials.thisIndex,trials.ran,TimeDur,Coherence1,TrialType
0.0,0.0,S03,199724,1,男,23,anonymized,Serial_Dependence_U,2023.2.3,Win32,89.92805755393564,,,,,,,,,,,,,,,,,,,,,,,,,,,,,,,,,,,
,,S03,199724,1,男,23,anonymized,Serial_Dependence_U,2023.2.3,Win32,89.92805755393564,4.238999999999997,8.705999999999996,space,4.439,,,,,,,,,,,,,,,,,,,,,,,,,,,,,,,
,,S03,199724,1,男,23,anonymized,Serial_Dependence_U,2023.2.3,Win32,89.92805755393564,,,,,,8.71,335.0,0.0,47.517,335.0,s,38.77700000000001,,51.507000000000005,52.006,50.996,51.507000000000005,48.526,50.996,52.006,52.505,52.505,54.607,1750.0,54.607,4.0,55.605,0.0,0.0,0.0,23.0,1.0,1.4,0.3,Time
,,S03,199724,1,男,23,anonymized,Serial_Dependence_U,2023.2.3,Win32,89.92805755393564,,,,,,55.607,303.0,0.0,55.609,303.0,,,,59.178,59.672,58.673,59.178,56.61,58.673,59.672,60.172,60.172,61.797,1324.0,61.797,5.0,62.794,0.0,1.0,1.0,1.0,1.0,1.0,0.3,Time
,,S03,199724,1,男,23,anonymized,Serial_Dependence_U,2023.2.3,Win32,89.92805755393564,,,,,,62.79599999999999,215.0,0.0,62.79599999999999,215.0,,,,66.374,66.872,65.867,66.374,63.79599999999999,65.867,66.872,67.373,67.373,68.807,1101.0,68.807,4.0,69.806,0.0,2.0,2.0,21.0,1.0,1.0,0.3,Time
,,S03,199724,1,男,23,anonymized,Serial_Dependence_U,2023.2.3,Win32,89.92805755393564,,,,,,69.806,74.0,0.0,69.806,74.0,,,,73.17399999999999,73.672,72.66799999999999,73.17399999999999,70.807,72.66799999999999,73.672,74.172,74.172,75.53399999999999,1006.0,75.53399999999999,4.0,76.528,0.0,3.0,3.0,10.0,1.0,0.8,0.3,Time
,,S03,199724,1,男,23,anonymized,Serial_Dependence_U,2023.2.3,Win32,89.92805755393564,,,,,,76.528,301.0,0.0,76.528,301.0,,,,80.67399999999999,81.172,80.163,80.67399999999999,77.528,80.163,81.172,81.672,81.672,83.173,1043.0,83.173,1.0,84.172,0.0,4.0,4.0,9.0,1.0,1.6,0.7,Time
,,S03,199724,1,男,23,anonymized,Serial_Dependence_U,2023.2.3,Win32,89.92805755393564,,,,,,84.172,212.0,0.0,84.172,212.0,,,,87.92899999999999,88.427,87.41799999999999,87.92899999999999,85.185,87.41799999999999,88.427,88.927,88.927,90.495,1247.0,90.495,3.0,91.494,0.0,5.0,5.0,7.0,1.0,1.2,0.7,Time
,,S03,199724,1,男,23,anonymized,Serial_Dependence_U,2023.2.3,Win32,89.92805755393564,,,,,,91.494,127.0,0.0,91.494,127.0,,,,95.29,95.784,94.77399999999996,95.29,92.49599999999998,94.77399999999996,95.784,96.283,96.283,97.85399999999998,1235.0,97.85399999999998,3.0,98.85,0.0,6.0,6.0,22.0,1.0,1.2,0.3,Time
,,S03,199724,1,男,23,anonymized,Serial_Dependence_U,2023.2.3,Win32,89.92805755393564,,,,,,98.85099999999996,137.0,0.0,98.85099999999996,137.0,,,,102.408,102.90599999999998,101.89899999999996,102.408,99.861,101.89899999999996,102.90599999999998,103.40499999999996,103.40499999999996,104.92899999999996,1170.0,104.92899999999996,4.0,105.928,0.0,7.0,7.0,16.0,1.0,1.0,0.7,Time
,,S03,199724,1,男,23,anonymized,Serial_Dependence_U,2023.2.3,Win32,89.92805755393564,,,,,,105.928,172.0,0.0,105.928,172.0,,,,109.878,110.372,109.36299999999996,109.878,106.92899999999996,109.36299999999996,110.372,110.872,110.872,112.42999999999998,1228.0,112.42999999999998,2.0,113.428,0.0,8.0,8.0,28.0,1.0,1.4,0.7,Time
,,S03,199724,1,男,23,anonymized,Serial_Dependence_U,2023.2.3,Win32,89.92805755393564,,,,,,113.428,47.0,0.0,113.428,47.0,,,,117.606,118.105,117.106,117.606,114.44099999999996,117.106,118.105,118.606,118.606,120.325,1254.0,120.325,2.0,121.31699999999998,0.0,9.0,9.0,4.0,1.0,1.6,0.3,Time
,,S03,199724,1,男,23,anonymized,Serial_Dependence_U,2023.2.3,Win32,89.92805755393564,,,,,,121.31699999999998,149.0,0.0,121.31699999999998,149.0,,,,125.052,125.54999999999998,124.54999999999998,125.052,122.31699999999998,124.54999999999998,125.54999999999998,126.051,126.051,127.76299999999998,1373.0,127.76299999999998,4.0,128.76199999999997,0.0,10.0,10.0,27.0,1.0,1.2,0.7,Time
,,S03,199724,1,男,23,anonymized,Serial_Dependence_U,2023.2.3,Win32,89.92805755393564,,,,,,128.76399999999998,104.0,0.0,128.76399999999998,104.0,,,,132.522,133.017,132.00599999999997,132.522,129.76899999999998,132.00599999999997,133.017,133.516,133.516,134.72799999999998,906.0,134.72799999999998,2.0,135.72799999999998,0.0,11.0,11.0,17.0,1.0,1.2,0.7,Time
,,S03,199724,1,男,23,anonymized,Serial_Dependence_U,2023.2.3,Win32,89.92805755393564,,,,,,135.72799999999998,114.0,0.0,135.72799999999998,114.0,,,,139.08399999999995,139.583,138.57399999999998,139.08399999999995,136.72899999999998,138.57399999999998,139.583,140.083,140.08399999999995,141.497,1058.0,141.497,5.0,142.49399999999997,0.0,12.0,12.0,25.0,1.0,0.8,0.7,Time
,,S03,199724,1,男,23,anonymized,Serial_Dependence_U,2023.2.3,Win32,89.92805755393564,,,,,,142.49499999999998,261.0,0.0,142.49499999999998,261.0,,,,146.433,146.928,145.932,146.433,143.49499999999998,145.932,146.928,147.428,147.428,148.69899999999998,919.0,148.69899999999998,1.0,149.694,0.0,13.0,13.0,8.0,1.0,1.4,0.7,Time
,,S03,199724,1,男,23,anonymized,Serial_Dependence_U,2023.2.3,Win32,89.92805755393564,,,,,,149.695,252.0,0.0,149.695,252.0,,,,153.641,154.13899999999998,153.14,153.641,150.695,153.14,154.13899999999998,154.63899999999998,154.63899999999998,156.57399999999998,1202.0,156.57399999999998,2.0,157.57199999999995,0.0,14.0,14.0,18.0,1.0,1.4,0.7,Time
,,S03,199724,1,男,23,anonymized,Serial_Dependence_U,2023.2.3,Win32,89.92805755393564,,,,,,157.57199999999995,255.0,0.0,157.57299999999998,255.0,,,,160.92899999999997,161.428,160.41799999999998,160.92899999999997,158.58399999999995,160.41799999999998,161.428,161.928,161.928,163.201,959.0,163.201,4.0,164.195,0.0,15.0,15.0,15.0,1.0,0.8,0.7,Time
,,S03,199724,1,男,23,anonymized,Serial_Dependence_U,2023.2.3,Win32,89.92805755393564,,,,,,164.196,226.0,0.0,164.19699999999995,226.0,,,,167.553,168.04999999999998,167.041,167.551,165.196,167.041,168.04999999999998,168.551,168.551,169.76299999999998,846.0,169.76299999999998,4.0,170.761,0.0,16.0,16.0,5.0,1.0,0.8,0.7,Time
,,S03,199724,1,男,23,anonymized,Serial_Dependence_U,2023.2.3,Win32,89.92805755393564,,,,,,170.76199999999997,302.0,0.0,170.76199999999997,302.0,,,,174.91699999999997,175.41699999999997,174.40699999999998,174.91699999999997,171.766,174.40699999999998,175.41699999999997,175.91699999999997,175.91699999999997,177.49599999999998,1233.0,177.49599999999998,2.0,178.49499999999998,0.0,17.0,17.0,19.0,1.0,1.6,0.7,Time
,,S03,199724,1,男,23,anonymized,Serial_Dependence_U,2023.2.3,Win32,89.92805755393564,,,,,,178.49499999999998,101.0,0.0,178.49499999999998,101.0,,,,182.639,183.14,182.13,182.639,179.49599999999998,182.13,183.14,183.639,183.639,185.262,1197.0,185.262,2.0,186.262,0.0,18.0,18.0,29.0,1.0,1.6,0.7,Time
,,S03,199724,1,男,23,anonymized,Serial_Dependence_U,2023.2.3,Win32,89.92805755393564,,,,,,186.262,168.0,0.0,186.262,168.0,,,,190.237,190.74,189.73,190.237,187.262,189.73,190.74,191.239,191.239,192.819,1292.0,192.819,2.0,193.817,0.0,19.0,19.0,13.0,1.0,1.4,0.3,Time
,,S03,199724,1,男,23,anonymized,Serial_Dependence_U,2023.2.3,Win32,89.92805755393564,,,,,,193.818,201.0,0.0,193.818,201.0,,,,197.196,197.695,196.685,197.196,194.823,196.685,197.695,198.194,198.194,200.0,1222.0,200.0,5.0,200.995,0.0,20.0,20.0,20.0,1.0,0.8,0.3,Time
,,S03,199724,1,男,23,anonymized,Serial_Dependence_U,2023.2.3,Win32,89.92805755393564,,,,,,200.995,190.0,0.0,200.995,190.0,,,,204.778,205.273,204.263,204.778,201.996,204.263,205.273,205.773,205.773,207.154,1100.0,207.154,2.0,208.15,0.0,21.0,21.0,12.0,1.0,1.2,0.3,Time
,,S03,199724,1,男,23,anonymized,Serial_Dependence_U,2023.2.3,Win32,89.92805755393564,,,,,,208.151,202.0,0.0,208.151,202.0,,,,212.315,212.817,211.814,212.314,209.152,211.814,212.817,213.317,213.317,214.235,579.0,214.236,1.0,215.228,0.0,22.0,22.0,14.0,1.0,1.6,0.3,Time
,,S03,199724,1,男,23,anonymized,Serial_Dependence_U,2023.2.3,Win32,89.92805755393564,,,,,,215.228,336.0,0.0,215.228,336.0,,,,219.407,219.905,218.901,219.407,216.23,218.9,219.905,220.40600000000003,220.40600000000003,222.153,1204.0,222.153,2.0,223.15,0.0,23.0,23.0,24.0,1.0,1.6,0.3,Time
,,S03,199724,1,男,23,anonymized,Serial_Dependence_U,2023.2.3,Win32,89.92805755393564,,,,,,223.15,343.0,0.0,223.15,343.0,,,,226.708,227.206,226.18700000000004,226.708,224.15100000000004,226.18700000000004,227.206,227.705,227.707,229.296,1240.0,229.297,4.0,230.295,0.0,24.0,24.0,26.0,1.0,1.0,0.7,Time
,,S03,199724,1,男,23,anonymized,Serial_Dependence_U,2023.2.3,Win32,89.92805755393564,,,,,,230.296,16.0,0.0,230.296,16.0,,,,233.852,234.35,233.34,233.852,231.308,233.34,234.35,234.85100000000003,234.85100000000003,236.268,1090.0,236.268,4.0,237.261,0.0,25.0,25.0,6.0,1.0,1.0,0.7,Time
,,S03,199724,1,男,23,anonymized,Serial_Dependence_U,2023.2.3,Win32,89.92805755393564,,,,,,237.26200000000003,18.0,0.0,237.26200000000003,18.0,,,,240.83,241.328,240.328,240.83,238.263,240.328,241.32900000000004,241.828,241.828,243.155,1100.0,243.155,4.0,244.15,0.0,26.0,26.0,11.0,1.0,1.0,0.3,Time
,,S03,199724,1,男,23,anonymized,Serial_Dependence_U,2023.2.3,Win32,89.92805755393564,,,,,,244.15,296.0,0.0,244.15100000000004,296.0,,,,247.529,248.028,247.025,247.529,245.152,247.025,248.028,248.528,248.528,249.81500000000003,1004.0,249.81500000000003,4.0,250.81700000000004,0.0,27.0,27.0,0.0,1.0,0.8,0.3,Time
,,S03,199724,1,男,23,anonymized,Serial_Dependence_U,2023.2.3,Win32,89.92805755393564,,,,,,250.81700000000004,80.0,0.0,250.81700000000004,80.0,,,,254.807,255.306,254.29800000000003,254.807,251.826,254.29800000000003,255.306,255.806,255.806,257.096,966.0,257.096,1.0,258.095,0.0,28.0,28.0,3.0,1.0,1.4,0.3,Time
,,S03,199724,1,男,23,anonymized,Serial_Dependence_U,2023.2.3,Win32,89.92805755393564,,,,,,258.096,139.0,0.0,258.096,139.0,,,,261.889,262.384,261.376,261.88800000000003,259.10900000000004,261.376,262.384,262.884,262.884,264.15100000000007,1011.0,264.15100000000007,2.0,265.15100000000007,0.0,29.0,29.0,2.0,1.0,1.2,0.3,Time
,,S03,199724,1,男,23,anonymized,Serial_Dependence_U,2023.2.3,Win32,89.92805755393564,,,,,,265.15100000000007,331.0,1.0,308.08500000000004,331.0,s,42.916,,311.635,312.12800000000004,311.122,311.635,309.08500000000004,311.122,312.12800000000004,312.62800000000004,312.62800000000004,313.951,1036.0,313.951,3.0,313.951,1.0,0.0,30.0,16.0,1.0,1.0,0.7,Time
,,S03,199724,1,男,23,anonymized,Serial_Dependence_U,2023.2.3,Win32,89.92805755393564,,,,,,313.95400000000006,67.0,1.0,313.95400000000006,67.0,,,,317.53,318.028,317.019,317.53,314.956,317.019,318.028,318.528,318.528,319.952,1080.0,319.952,4.0,319.953,1.0,1.0,31.0,11.0,1.0,1.0,0.3,Time
,,S03,199724,1,男,23,anonymized,Serial_Dependence_U,2023.2.3,Win32,89.92805755393564,,,,,,319.953,75.0,1.0,319.953,75.0,,,,323.54100000000005,324.039,323.04,323.54100000000005,320.96400000000006,323.04,324.039,324.54,324.54,325.89,1033.0,325.89,3.0,325.89,1.0,2.0,32.0,21.0,1.0,1.0,0.3,Time
,,S03,199724,1,男,23,anonymized,Serial_Dependence_U,2023.2.3,Win32,89.92805755393564,,,,,,325.891,333.0,1.0,325.891,333.0,,,,329.669,330.16200000000003,329.163,329.669,326.88700000000006,329.163,330.16200000000003,330.66200000000003,330.66200000000003,332.285,1194.0,332.285,3.0,332.28600000000006,1.0,3.0,33.0,22.0,1.0,1.2,0.3,Time
,,S03,199724,1,男,23,anonymized,Serial_Dependence_U,2023.2.3,Win32,89.92805755393564,,,,,,332.28600000000006,72.0,1.0,332.28700000000003,72.0,,,,335.86300000000006,336.362,335.36300000000006,335.86300000000006,333.297,335.36300000000006,336.362,336.862,336.862,338.336,1159.0,338.336,4.0,338.337,1.0,4.0,34.0,1.0,1.0,1.0,0.3,Time
,,S03,199724,1,男,23,anonymized,Serial_Dependence_U,2023.2.3,Win32,89.92805755393564,,,,,,338.337,306.0,1.0,338.337,306.0,,,,341.68600000000004,342.183,341.178,341.68600000000004,339.333,341.178,342.184,342.684,342.684,343.852,877.0,343.852,4.0,343.852,1.0,5.0,35.0,15.0,1.0,0.8,0.7,Time
,,S03,199724,1,男,23,anonymized,Serial_Dependence_U,2023.2.3,Win32,89.92805755393564,,,,,,343.85300000000007,232.0,1.0,343.85300000000007,232.0,,,,348.01300000000003,348.506,347.50800000000004,348.01300000000003,344.86300000000006,347.50800000000004,348.506,349.00700000000006,349.00700000000006,350.528,1220.0,350.528,2.0,350.529,1.0,6.0,36.0,29.0,1.0,1.6,0.7,Time
,,S03,199724,1,男,23,anonymized,Serial_Dependence_U,2023.2.3,Win32,89.92805755393564,,,,,,350.529,269.0,1.0,350.529,269.0,,,,354.27600000000007,354.773,353.774,354.27600000000007,351.54200000000003,353.774,354.773,355.273,355.273,356.764,1113.0,356.764,2.0,356.765,1.0,7.0,37.0,27.0,1.0,1.2,0.7,Time
,,S03,199724,1,男,23,anonymized,Serial_Dependence_U,2023.2.3,Win32,89.92805755393564,,,,,,356.766,128.0,1.0,356.766,128.0,,,,360.737,361.239,360.237,360.737,357.764,360.237,361.239,361.74,361.74,362.942,879.0,362.942,1.0,362.943,1.0,8.0,38.0,23.0,1.0,1.4,0.3,Time
,,S03,199724,1,男,23,anonymized,Serial_Dependence_U,2023.2.3,Win32,89.92805755393564,,,,,,362.943,232.0,1.0,362.943,232.0,,,,366.479,366.973,365.9740000000001,366.479,363.941,365.9740000000001,366.973,367.473,367.473,368.822,1015.0,368.822,3.0,368.823,1.0,9.0,39.0,26.0,1.0,1.0,0.7,Time
,,S03,199724,1,男,23,anonymized,Serial_Dependence_U,2023.2.3,Win32,89.92805755393564,,,,,,368.823,216.0,1.0,368.823,216.0,,,,372.777,373.273,372.263,372.777,369.831,372.263,373.273,373.773,373.773,375.32400000000007,1175.0,375.32400000000007,2.0,375.3250000000001,1.0,10.0,40.0,18.0,1.0,1.4,0.7,Time
,,S03,199724,1,男,23,anonymized,Serial_Dependence_U,2023.2.3,Win32,89.92805755393564,,,,,,375.3250000000001,284.0,1.0,375.3250000000001,284.0,,,,379.28100000000006,379.773,378.77600000000007,379.28,376.33,378.77600000000007,379.773,380.273,380.273,381.508,851.0,381.508,1.0,381.509,1.0,11.0,41.0,28.0,1.0,1.4,0.7,Time
,,S03,199724,1,男,23,anonymized,Serial_Dependence_U,2023.2.3,Win32,89.92805755393564,,,,,,381.509,82.0,1.0,381.509,82.0,,,,385.484,385.984,384.975,385.484,382.508,384.975,385.984,386.484,386.484,387.919,1136.0,387.919,2.0,387.92,1.0,12.0,42.0,13.0,1.0,1.4,0.3,Time
,,S03,199724,1,男,23,anonymized,Serial_Dependence_U,2023.2.3,Win32,89.92805755393564,,,,,,387.9210000000001,18.0,1.0,387.9210000000001,18.0,,,,391.288,391.784,390.78600000000006,391.288,388.919,390.78600000000006,391.784,392.284,392.284,393.504,915.0,393.504,4.0,393.504,1.0,13.0,43.0,0.0,1.0,0.8,0.3,Time
,,S03,199724,1,男,23,anonymized,Serial_Dependence_U,2023.2.3,Win32,89.92805755393564,,,,,,393.504,132.0,1.0,393.504,132.0,,,,396.886,397.385,396.37700000000007,396.885,394.508,396.37700000000007,397.385,397.884,397.884,399.056,889.0,399.056,4.0,399.056,1.0,14.0,44.0,10.0,1.0,0.8,0.3,Time
,,S03,199724,1,男,23,anonymized,Serial_Dependence_U,2023.2.3,Win32,89.92805755393564,,,,,,399.056,298.0,1.0,399.057,298.0,,,,402.407,402.90600000000006,401.896,402.407,400.051,401.896,402.90600000000006,403.40600000000006,403.40600000000006,404.686,1007.0,404.686,4.0,404.687,1.0,15.0,45.0,25.0,1.0,0.8,0.7,Time
,,S03,199724,1,男,23,anonymized,Serial_Dependence_U,2023.2.3,Win32,89.92805755393564,,,,,,404.687,172.0,1.0,404.688,172.0,,,,408.827,409.328,408.318,408.827,405.68500000000006,408.317,409.328,409.828,409.828,411.203,1006.0,411.203,1.0,411.203,1.0,16.0,46.0,9.0,1.0,1.6,0.7,Time
,,S03,199724,1,男,23,anonymized,Serial_Dependence_U,2023.2.3,Win32,89.92805755393564,,,,,,411.203,191.0,1.0,411.203,191.0,,,,414.999,415.495,414.486,414.999,412.2190000000001,414.486,415.495,415.995,415.995,417.57900000000006,1045.0,417.57900000000006,2.0,417.58,1.0,17.0,47.0,12.0,1.0,1.2,0.3,Time
,,S03,199724,1,男,23,anonymized,Serial_Dependence_U,2023.2.3,Win32,89.92805755393564,,,,,,417.58,160.0,1.0,417.58,160.0,,,,421.552,422.051,421.04100000000005,421.552,418.577,421.04100000000005,422.051,422.55000000000007,422.551,424.03,1114.0,424.03,2.0,424.03100000000006,1.0,18.0,48.0,3.0,1.0,1.4,0.3,Time
,,S03,199724,1,男,23,anonymized,Serial_Dependence_U,2023.2.3,Win32,89.92805755393564,,,,,,424.033,267.0,1.0,424.033,267.0,,,,427.819,428.317,427.308,427.818,425.04100000000005,427.308,428.317,428.817,428.817,430.707,1504.0,430.707,4.0,430.707,1.0,19.0,49.0,2.0,1.0,1.2,0.3,Time
,,S03,199724,1,男,23,anonymized,Serial_Dependence_U,2023.2.3,Win32,89.92805755393564,,,,,,430.708,300.0,1.0,430.708,300.0,,,,434.649,435.15100000000007,434.141,434.649,431.70900000000006,434.141,435.15100000000007,435.65100000000007,435.65100000000007,437.18000000000006,1206.0,437.18000000000006,2.0,437.181,1.0,20.0,50.0,8.0,1.0,1.4,0.7,Time
,,S03,199724,1,男,23,anonymized,Serial_Dependence_U,2023.2.3,Win32,89.92805755393564,,,,,,437.181,3.0,1.0,437.181,3.0,,,,440.734,441.229,440.22,440.73300000000006,438.174,440.22,441.229,441.72800000000007,441.729,443.27600000000007,1218.0,443.27600000000007,4.0,443.277,1.0,21.0,51.0,6.0,1.0,1.0,0.7,Time
,,S03,199724,1,男,23,anonymized,Serial_Dependence_U,2023.2.3,Win32,89.92805755393564,,,,,,443.277,60.0,1.0,443.277,60.0,,,,447.47,447.963,446.96400000000006,447.47,444.28600000000006,446.963,447.963,448.462,448.462,450.091,1298.0,450.091,2.0,450.091,1.0,22.0,52.0,24.0,1.0,1.6,0.3,Time
,,S03,199724,1,男,23,anonymized,Serial_Dependence_U,2023.2.3,Win32,89.92805755393564,,,,,,450.091,310.0,1.0,450.092,310.0,,,,454.264,454.76200000000006,453.746,454.264,451.086,453.746,454.76200000000006,455.26200000000006,455.26200000000006,456.937,1369.0,456.937,2.0,456.938,1.0,23.0,53.0,14.0,1.0,1.6,0.3,Time
,,S03,199724,1,男,23,anonymized,Serial_Dependence_U,2023.2.3,Win32,89.92805755393564,,,,,,456.939,107.0,1.0,456.939,107.0,,,,460.34,460.84,459.83,460.34,457.952,459.83,460.84,461.34,461.34,462.73,1076.0,462.73,5.0,462.732,1.0,24.0,54.0,20.0,1.0,0.8,0.3,Time
,,S03,199724,1,男,23,anonymized,Serial_Dependence_U,2023.2.3,Win32,89.92805755393564,,,,,,462.732,299.0,1.0,462.732,299.0,,,,466.08900000000006,466.58400000000006,465.57400000000007,466.08900000000006,463.73,465.57400000000007,466.58400000000006,467.085,467.085,468.375,1020.0,468.375,4.0,468.375,1.0,25.0,55.0,5.0,1.0,0.8,0.7,Time
,,S03,199724,1,男,23,anonymized,Serial_Dependence_U,2023.2.3,Win32,89.92805755393564,,,,,,468.376,328.0,1.0,468.376,328.0,,,,472.567,473.062,472.053,472.567,469.374,472.053,473.062,473.562,473.562,475.04,1221.0,475.04,2.0,475.041,1.0,26.0,56.0,4.0,1.0,1.6,0.3,Time
,,S03,199724,1,男,23,anonymized,Serial_Dependence_U,2023.2.3,Win32,89.92805755393564,,,,,,475.041,277.0,1.0,475.041,277.0,,,,478.791,479.285,478.287,478.791,476.053,478.287,479.285,479.785,479.785,481.329,1276.0,481.329,4.0,481.329,1.0,27.0,57.0,17.0,1.0,1.2,0.7,Time
,,S03,199724,1,男,23,anonymized,Serial_Dependence_U,2023.2.3,Win32,89.92805755393564,,,,,,481.329,178.0,1.0,481.33,178.0,,,,485.49,485.985,484.976,485.49,482.329,484.975,485.985,486.484,486.484,488.085,1314.0,488.085,2.0,488.086,1.0,28.0,58.0,19.0,1.0,1.6,0.7,Time
,,S03,199724,1,男,23,anonymized,Serial_Dependence_U,2023.2.3,Win32,89.92805755393564,,,,,,488.087,136.0,1.0,488.087,136.0,,,,491.831,492.329,491.33,491.831,489.085,491.33,492.329,492.829,492.829,494.72,1568.0,494.72,5.0,494.721,1.0,29.0,59.0,7.0,1.0,1.2,0.7,Time
,,S03,199724,1,男,23,anonymized,Serial_Dependence_U,2023.2.3,Win32,89.92805755393564,,,,,,494.721,278.0,2.0,521.262,278.0,s,26.519999999999985,,525.03,525.529,524.513,525.03,522.275,524.513,525.529,526.029,526.029,527.408,1108.0,527.408,2.0,527.409,2.0,0.0,60.0,7.0,1.0,1.2,0.7,Time
,,S03,199724,1,男,23,anonymized,Serial_Dependence_U,2023.2.3,Win32,89.92805755393564,,,,,,527.41,242.0,2.0,527.412,242.0,,,,530.986,531.485,530.486,530.986,528.424,530.486,531.485,531.985,531.985,533.558,1255.0,533.559,4.0,533.559,2.0,1.0,61.0,1.0,1.0,1.0,0.3,Time
,,S03,199724,1,男,23,anonymized,Serial_Dependence_U,2023.2.3,Win32,89.92805755393564,,,,,,533.559,20.0,2.0,533.559,20.0,,,,537.108,537.607,536.598,537.108,534.563,536.598,537.607,538.107,538.107,539.641,950.0,539.6419999999999,2.0,539.6419999999999,2.0,2.0,62.0,26.0,1.0,1.0,0.7,Time
,,S03,199724,1,男,23,anonymized,Serial_Dependence_U,2023.2.3,Win32,89.92805755393564,,,,,,539.643,284.0,2.0,539.643,284.0,,,,543.2189999999999,543.718,542.712,543.2189999999999,540.645,542.712,543.718,544.218,544.218,545.641,1150.0,545.641,4.0,545.6419999999999,2.0,3.0,63.0,11.0,1.0,1.0,0.3,Time
,,S03,199724,1,男,23,anonymized,Serial_Dependence_U,2023.2.3,Win32,89.92805755393564,,,,,,545.6419999999999,125.0,2.0,545.6419999999999,125.0,,,,549.409,549.907,548.909,549.409,546.6419999999999,548.909,549.907,550.407,550.407,551.8249999999999,1156.0,551.8249999999999,3.0,551.826,2.0,4.0,64.0,22.0,1.0,1.2,0.3,Time
,,S03,199724,1,男,23,anonymized,Serial_Dependence_U,2023.2.3,Win32,89.92805755393564,,,,,,551.827,210.0,2.0,551.827,210.0,,,,555.797,556.295,555.297,555.797,552.832,555.297,556.295,556.7959999999999,556.7959999999999,558.39,1330.0,558.39,3.0,558.39,2.0,5.0,65.0,13.0,1.0,1.4,0.3,Time
,,S03,199724,1,男,23,anonymized,Serial_Dependence_U,2023.2.3,Win32,89.92805755393564,,,,,,558.391,336.0,2.0,558.391,336.0,,,,561.923,562.418,561.4209999999999,561.923,559.388,561.4209999999999,562.418,562.917,562.917,564.574,1387.0,564.574,5.0,564.574,2.0,6.0,66.0,16.0,1.0,1.0,0.7,Time
,,S03,199724,1,男,23,anonymized,Serial_Dependence_U,2023.2.3,Win32,89.92805755393564,,,,,,564.5749999999999,317.0,2.0,564.5749999999999,317.0,,,,567.951,568.451,567.4449999999999,567.951,565.574,567.4449999999999,568.451,568.951,568.951,570.28,1080.0,570.28,5.0,570.28,2.0,7.0,67.0,10.0,1.0,0.8,0.3,Time
,,S03,199724,1,男,23,anonymized,Serial_Dependence_U,2023.2.3,Win32,89.92805755393564,,,,,,570.28,273.0,2.0,570.28,273.0,,,,574.0459999999999,574.54,573.54,574.0459999999999,571.275,573.54,574.54,575.04,575.04,576.3969999999999,1033.0,576.3969999999999,2.0,576.3969999999999,2.0,8.0,68.0,12.0,1.0,1.2,0.3,Time
,,S03,199724,1,男,23,anonymized,Serial_Dependence_U,2023.2.3,Win32,89.92805755393564,,,,,,576.3969999999999,248.0,2.0,576.3969999999999,248.0,,,,580.579,581.073,580.063,580.579,577.4019999999999,580.063,581.073,581.574,581.574,583.2909999999999,1361.0,583.2909999999999,2.0,583.292,2.0,9.0,69.0,14.0,1.0,1.6,0.3,Time
,,S03,199724,1,男,23,anonymized,Serial_Dependence_U,2023.2.3,Win32,89.92805755393564,,,,,,583.293,261.0,2.0,583.293,261.0,,,,587.079,587.574,586.576,587.079,584.297,586.576,587.574,588.074,588.074,589.6899999999999,1344.0,589.6899999999999,4.0,589.691,2.0,10.0,70.0,2.0,1.0,1.2,0.3,Time
,,S03,199724,1,男,23,anonymized,Serial_Dependence_U,2023.2.3,Win32,89.92805755393564,,,,,,589.691,277.0,2.0,589.691,277.0,,,,593.086,593.585,592.5749999999999,593.085,590.702,592.5749999999999,593.585,594.085,594.085,595.447,1062.0,595.447,5.0,595.448,2.0,11.0,71.0,0.0,1.0,0.8,0.3,Time
,,S03,199724,1,男,23,anonymized,Serial_Dependence_U,2023.2.3,Win32,89.92805755393564,,,,,,595.448,343.0,2.0,595.448,343.0,,,,599.02,599.518,598.508,599.02,596.4639999999999,598.508,599.518,600.018,600.018,601.536,1243.0,601.536,4.0,601.537,2.0,12.0,72.0,6.0,1.0,1.0,0.7,Time
,,S03,199724,1,男,23,anonymized,Serial_Dependence_U,2023.2.3,Win32,89.92805755393564,,,,,,601.537,218.0,2.0,601.537,218.0,,,,605.675,606.174,605.164,605.675,602.533,605.164,606.174,606.674,606.674,608.197,1230.0,608.197,2.0,608.197,2.0,13.0,73.0,9.0,1.0,1.6,0.7,Time
,,S03,199724,1,男,23,anonymized,Serial_Dependence_U,2023.2.3,Win32,89.92805755393564,,,,,,608.199,248.0,2.0,608.199,248.0,,,,611.786,612.285,611.264,611.786,609.196,611.263,612.286,612.785,612.785,614.523,1400.0,614.523,5.0,614.524,2.0,14.0,74.0,21.0,1.0,1.0,0.3,Time
,,S03,199724,1,男,23,anonymized,Serial_Dependence_U,2023.2.3,Win32,89.92805755393564,,,,,,614.525,250.0,2.0,614.525,250.0,,,,618.508,619.007,617.9979999999999,618.507,615.534,617.9979999999999,619.007,619.508,619.508,620.953,1109.0,620.953,2.0,620.953,2.0,15.0,75.0,3.0,1.0,1.4,0.3,Time
,,S03,199724,1,男,23,anonymized,Serial_Dependence_U,2023.2.3,Win32,89.92805755393564,,,,,,620.954,347.0,2.0,620.954,347.0,,,,625.12,625.6179999999999,624.617,625.12,621.953,624.617,625.6179999999999,626.1179999999999,626.1179999999999,627.586,1259.0,627.586,2.0,627.586,2.0,16.0,76.0,24.0,1.0,1.6,0.3,Time
,,S03,199724,1,男,23,anonymized,Serial_Dependence_U,2023.2.3,Win32,89.92805755393564,,,,,,627.587,111.0,2.0,627.587,111.0,,,,631.742,632.24,631.242,631.742,628.597,631.242,632.241,632.74,632.74,634.308,1247.0,634.308,2.0,634.309,2.0,17.0,77.0,29.0,1.0,1.6,0.7,Time
,,S03,199724,1,男,23,anonymized,Serial_Dependence_U,2023.2.3,Win32,89.92805755393564,,,,,,634.309,43.0,2.0,634.309,43.0,,,,638.4789999999999,638.9739999999999,637.977,638.4789999999999,635.308,637.977,638.9739999999999,639.4739999999999,639.4739999999999,640.96,1237.0,640.96,2.0,640.961,2.0,18.0,78.0,4.0,1.0,1.6,0.3,Time
,,S03,199724,1,男,23,anonymized,Serial_Dependence_U,2023.2.3,Win32,89.92805755393564,,,,,,640.961,258.0,2.0,640.961,258.0,,,,644.323,644.818,643.81,644.323,641.963,643.809,644.818,645.318,645.318,646.813,1217.0,646.813,5.0,646.813,2.0,19.0,79.0,25.0,1.0,0.8,0.7,Time
,,S03,199724,1,男,23,anonymized,Serial_Dependence_U,2023.2.3,Win32,89.92805755393564,,,,,,646.814,237.0,2.0,646.814,237.0,,,,650.742,651.24,650.241,650.742,647.809,650.241,651.24,651.741,651.741,653.3629999999999,1336.0,653.3629999999999,3.0,653.364,2.0,20.0,80.0,28.0,1.0,1.4,0.7,Time
,,S03,199724,1,男,23,anonymized,Serial_Dependence_U,2023.2.3,Win32,89.92805755393564,,,,,,653.365,62.0,2.0,653.365,62.0,,,,656.703,657.196,656.202,656.702,654.3629999999999,656.202,657.196,657.696,657.696,659.588,1170.0,659.588,5.0,659.588,2.0,21.0,81.0,15.0,1.0,0.8,0.7,Time
,,S03,199724,1,男,23,anonymized,Serial_Dependence_U,2023.2.3,Win32,89.92805755393564,,,,,,659.588,75.0,2.0,659.588,75.0,,,,663.329,663.83,662.826,663.329,660.587,662.8249999999999,663.83,664.329,664.329,665.971,1353.0,665.971,4.0,665.971,2.0,22.0,82.0,27.0,1.0,1.2,0.7,Time
,,S03,199724,1,男,23,anonymized,Serial_Dependence_U,2023.2.3,Win32,89.92805755393564,,,,,,665.971,235.0,2.0,665.972,235.0,,,,669.324,669.818,668.823,669.324,666.98,668.823,669.818,670.319,670.319,671.797,1200.0,671.798,5.0,671.798,2.0,23.0,83.0,5.0,1.0,0.8,0.7,Time
,,S03,199724,1,男,23,anonymized,Serial_Dependence_U,2023.2.3,Win32,89.92805755393564,,,,,,671.798,239.0,2.0,671.798,239.0,,,,675.9449999999999,676.4399999999999,675.43,675.9449999999999,672.798,675.43,676.4399999999999,676.941,676.941,678.502,1249.0,678.502,2.0,678.502,2.0,24.0,84.0,19.0,1.0,1.6,0.7,Time
,,S03,199724,1,男,23,anonymized,Serial_Dependence_U,2023.2.3,Win32,89.92805755393564,,,,,,678.5029999999999,52.0,2.0,678.5029999999999,52.0,,,,682.252,682.751,681.742,682.252,679.497,681.742,682.751,683.252,683.252,684.867,1277.0,684.867,4.0,684.8679999999999,2.0,25.0,85.0,17.0,1.0,1.2,0.7,Time
,,S03,199724,1,男,23,anonymized,Serial_Dependence_U,2023.2.3,Win32,89.92805755393564,,,,,,684.8679999999999,304.0,2.0,684.8679999999999,304.0,,,,688.81,689.307,688.309,688.81,685.866,688.309,689.307,689.807,689.807,691.4929999999999,1400.0,691.4929999999999,3.0,691.494,2.0,26.0,86.0,18.0,1.0,1.4,0.7,Time
,,S03,199724,1,男,23,anonymized,Serial_Dependence_U,2023.2.3,Win32,89.92805755393564,,,,,,691.495,209.0,2.0,691.495,209.0,,,,695.456,695.952,694.942,695.456,692.505,694.942,695.952,696.452,696.452,697.983,1250.0,697.983,2.0,697.984,2.0,27.0,87.0,8.0,1.0,1.4,0.7,Time
,,S03,199724,1,男,23,anonymized,Serial_Dependence_U,2023.2.3,Win32,89.92805755393564,,,,,,697.984,9.0,2.0,697.984,9.0,,,,701.364,701.8629999999999,700.8629999999999,701.364,698.997,700.8629999999999,701.8629999999999,702.3629999999999,702.3629999999999,703.787,1116.0,703.787,5.0,703.788,2.0,28.0,88.0,20.0,1.0,0.8,0.3,Time
,,S03,199724,1,男,23,anonymized,Serial_Dependence_U,2023.2.3,Win32,89.92805755393564,,,,,,703.789,297.0,2.0,703.789,297.0,,,,707.778,708.274,707.265,707.778,704.786,707.265,708.274,708.774,708.774,710.408,1351.0,710.408,3.0,710.409,2.0,29.0,89.0,23.0,1.0,1.4,0.3,Time
,,S03,199724,1,男,23,anonymized,Serial_Dependence_U,2023.2.3,Win32,89.92805755393564,,,,,,710.41,188.0,3.0,715.385,188.0,s,4.959999999999923,,719.1759999999999,719.674,718.664,719.175,716.398,718.664,719.674,720.174,720.174,721.709,1304.0,721.709,4.0,721.709,3.0,0.0,90.0,22.0,1.0,1.2,0.3,Time
,,S03,199724,1,男,23,anonymized,Serial_Dependence_U,2023.2.3,Win32,89.92805755393564,,,,,,721.71,30.0,3.0,721.712,30.0,,,,725.058,725.552,724.557,725.058,722.7189999999999,724.557,725.552,726.052,726.052,727.435,1120.0,727.435,5.0,727.435,3.0,1.0,91.0,15.0,1.0,0.8,0.7,Time
,,S03,199724,1,男,23,anonymized,Serial_Dependence_U,2023.2.3,Win32,89.92805755393564,,,,,,727.435,221.0,3.0,727.435,221.0,,,,730.98,731.4739999999999,730.4789999999999,730.98,728.443,730.4789999999999,731.4739999999999,731.9739999999999,731.9739999999999,733.3389999999999,1033.0,733.3389999999999,3.0,733.34,3.0,2.0,92.0,16.0,1.0,1.0,0.7,Time
,,S03,199724,1,男,23,anonymized,Serial_Dependence_U,2023.2.3,Win32,89.92805755393564,,,,,,733.341,63.0,3.0,733.342,63.0,,,,737.309,737.807,736.798,737.309,734.347,736.798,737.807,738.307,738.307,739.944,1315.0,739.944,2.0,739.9449999999999,3.0,3.0,93.0,28.0,1.0,1.4,0.7,Time
,,S03,199724,1,男,23,anonymized,Serial_Dependence_U,2023.2.3,Win32,89.92805755393564,,,,,,739.9449999999999,101.0,3.0,739.9449999999999,101.0,,,,743.885,744.385,743.376,743.885,740.942,743.376,744.385,744.885,744.885,746.814,1484.0,746.814,4.0,746.8149999999999,3.0,4.0,94.0,8.0,1.0,1.4,0.7,Time
,,S03,199724,1,男,23,anonymized,Serial_Dependence_U,2023.2.3,Win32,89.92805755393564,,,,,,746.8149999999999,329.0,3.0,746.8149999999999,329.0,,,,750.956,751.451,750.453,750.956,747.816,750.453,751.451,751.952,751.952,753.598,1334.0,753.598,2.0,753.598,3.0,5.0,95.0,29.0,1.0,1.6,0.7,Time
,,S03,199724,1,男,23,anonymized,Serial_Dependence_U,2023.2.3,Win32,89.92805755393564,,,,,,753.598,108.0,3.0,753.598,108.0,,,,756.9789999999999,757.4739999999999,756.4639999999999,756.9789999999999,754.598,756.4639999999999,757.4739999999999,757.9739999999999,757.9739999999999,759.226,1002.0,759.226,4.0,759.226,3.0,6.0,96.0,0.0,1.0,0.8,0.3,Time
,,S03,199724,1,男,23,anonymized,Serial_Dependence_U,2023.2.3,Win32,89.92805755393564,,,,,,759.226,18.0,3.0,759.226,18.0,,,,762.792,763.285,762.2909999999999,762.7909999999999,760.2189999999999,762.2909999999999,763.285,763.785,763.785,765.303,1240.0,765.304,4.0,765.305,3.0,7.0,97.0,11.0,1.0,1.0,0.3,Time
,,S03,199724,1,男,23,anonymized,Serial_Dependence_U,2023.2.3,Win32,89.92805755393564,,,,,,765.306,359.0,3.0,765.306,359.0,,,,768.66,769.1519999999999,768.146,768.659,766.309,768.146,769.1519999999999,769.6519999999999,769.6519999999999,770.922,1120.0,770.922,5.0,770.923,3.0,8.0,98.0,5.0,1.0,0.8,0.7,Time
,,S03,199724,1,男,23,anonymized,Serial_Dependence_U,2023.2.3,Win32,89.92805755393564,,,,,,770.923,222.0,3.0,770.923,222.0,,,,775.12,775.6179999999999,774.598,775.12,771.931,774.598,775.6179999999999,776.119,776.119,777.837,1455.0,777.837,2.0,777.837,3.0,9.0,99.0,24.0,1.0,1.6,0.3,Time
,,S03,199724,1,男,23,anonymized,Serial_Dependence_U,2023.2.3,Win32,89.92805755393564,,,,,,777.837,3.0,3.0,777.837,3.0,,,,781.42,781.919,780.909,781.42,778.835,780.909,781.919,782.418,782.418,783.7189999999999,1035.0,783.7189999999999,3.0,783.72,3.0,10.0,100.0,1.0,1.0,1.0,0.3,Time
,,S03,199724,1,男,23,anonymized,Serial_Dependence_U,2023.2.3,Win32,89.92805755393564,,,,,,783.72,131.0,3.0,783.72,131.0,,,,787.098,787.597,786.587,787.098,784.7189999999999,786.587,787.597,788.096,788.096,789.5749999999999,1359.0,789.5749999999999,5.0,789.5749999999999,3.0,11.0,101.0,10.0,1.0,0.8,0.3,Time
,,S03,199724,1,男,23,anonymized,Serial_Dependence_U,2023.2.3,Win32,89.92805755393564,,,,,,789.576,138.0,3.0,789.576,138.0,,,,792.947,793.441,792.435,792.946,790.5749999999999,792.435,793.441,793.941,793.941,795.553,1296.0,795.554,5.0,795.556,3.0,12.0,102.0,20.0,1.0,0.8,0.3,Time
,,S03,199724,1,男,23,anonymized,Serial_Dependence_U,2023.2.3,Win32,89.92805755393564,,,,,,795.556,158.0,3.0,795.556,158.0,,,,799.312,799.807,798.798,799.312,796.558,798.798,799.807,800.308,800.308,801.887,1302.0,801.887,4.0,801.888,3.0,13.0,103.0,7.0,1.0,1.2,0.7,Time
,,S03,199724,1,男,23,anonymized,Serial_Dependence_U,2023.2.3,Win32,89.92805755393564,,,,,,801.888,94.0,3.0,801.888,94.0,,,,805.443,805.941,804.924,805.443,802.887,804.924,805.941,806.441,806.441,808.146,1409.0,808.1469999999999,5.0,808.1469999999999,3.0,14.0,104.0,26.0,1.0,1.0,0.7,Time
,,S03,199724,1,男,23,anonymized,Serial_Dependence_U,2023.2.3,Win32,89.92805755393564,,,,,,808.1469999999999,156.0,3.0,808.1469999999999,156.0,,,,811.72,812.2189999999999,811.211,811.72,809.144,811.211,812.2189999999999,812.718,812.718,814.689,1680.0,814.689,5.0,814.6899999999999,3.0,15.0,105.0,21.0,1.0,1.0,0.3,Time
,,S03,199724,1,男,23,anonymized,Serial_Dependence_U,2023.2.3,Win32,89.92805755393564,,,,,,814.6899999999999,108.0,3.0,814.6899999999999,108.0,,,,818.043,818.5409999999999,817.543,818.043,815.698,817.543,818.5409999999999,819.0409999999999,819.0409999999999,820.51,1237.0,820.51,5.0,820.511,3.0,16.0,106.0,25.0,1.0,0.8,0.7,Time
,,S03,199724,1,男,23,anonymized,Serial_Dependence_U,2023.2.3,Win32,89.92805755393564,,,,,,820.511,203.0,3.0,820.511,203.0,,,,824.659,825.1519999999999,824.154,824.659,821.508,824.153,825.1519999999999,825.6519999999999,825.6519999999999,827.43,1422.0,827.43,2.0,827.432,3.0,17.0,107.0,9.0,1.0,1.6,0.7,Time
,,S03,199724,1,男,23,anonymized,Serial_Dependence_U,2023.2.3,Win32,89.92805755393564,,,,,,827.434,242.0,3.0,827.434,242.0,,,,831.61,832.108,831.109,831.61,828.435,831.109,832.108,832.608,832.608,834.5,1570.0,834.5,3.0,834.501,3.0,18.0,108.0,4.0,1.0,1.6,0.3,Time
,,S03,199724,1,男,23,anonymized,Serial_Dependence_U,2023.2.3,Win32,89.92805755393564,,,,,,834.501,359.0,3.0,834.501,359.0,,,,838.287,838.785,837.7669999999999,838.287,835.506,837.766,838.785,839.286,839.286,841.024,1440.0,841.024,4.0,841.024,3.0,19.0,109.0,2.0,1.0,1.2,0.3,Time
,,S03,199724,1,男,23,anonymized,Serial_Dependence_U,2023.2.3,Win32,89.92805755393564,,,,,,841.024,99.0,3.0,841.025,99.0,,,,844.768,845.263,844.258,844.768,842.019,844.257,845.263,845.764,845.764,847.584,1515.0,847.584,4.0,847.584,3.0,20.0,110.0,17.0,1.0,1.2,0.7,Time
,,S03,199724,1,男,23,anonymized,Serial_Dependence_U,2023.2.3,Win32,89.92805755393564,,,,,,847.585,124.0,3.0,847.585,124.0,,,,851.7429999999999,852.241,851.232,851.7429999999999,848.587,851.232,852.241,852.741,852.741,854.557,1566.0,854.557,3.0,854.558,3.0,21.0,111.0,19.0,1.0,1.6,0.7,Time
,,S03,199724,1,男,23,anonymized,Serial_Dependence_U,2023.2.3,Win32,89.92805755393564,,,,,,854.558,170.0,3.0,854.558,170.0,,,,858.526,859.018,858.02,858.526,855.554,858.02,859.018,859.519,859.519,861.483,1697.0,861.483,4.0,861.483,3.0,22.0,112.0,23.0,1.0,1.4,0.3,Time
,,S03,199724,1,男,23,anonymized,Serial_Dependence_U,2023.2.3,Win32,89.92805755393564,,,,,,861.484,41.0,3.0,861.484,41.0,,,,865.032,865.53,864.531,865.032,862.4979999999999,864.531,865.53,866.03,866.03,867.7669999999999,1464.0,867.7669999999999,5.0,867.768,3.0,23.0,113.0,6.0,1.0,1.0,0.7,Time
,,S03,199724,1,男,23,anonymized,Serial_Dependence_U,2023.2.3,Win32,89.92805755393564,,,,,,867.768,27.0,3.0,867.768,27.0,,,,871.713,872.207,871.198,871.713,868.764,871.197,872.207,872.707,872.707,874.617,1601.0,874.617,4.0,874.6179999999999,3.0,24.0,114.0,18.0,1.0,1.4,0.7,Time
,,S03,199724,1,男,23,anonymized,Serial_Dependence_U,2023.2.3,Win32,89.92805755393564,,,,,,874.619,141.0,3.0,874.619,141.0,,,,878.598,879.097,878.087,878.598,875.62,878.087,879.097,879.597,879.597,881.382,1568.0,881.382,4.0,881.382,3.0,25.0,115.0,13.0,1.0,1.4,0.3,Time
,,S03,199724,1,男,23,anonymized,Serial_Dependence_U,2023.2.3,Win32,89.92805755393564,,,,,,881.382,346.0,3.0,881.382,346.0,,,,885.1759999999999,885.674,884.653,885.1759999999999,882.3919999999999,884.6519999999999,885.674,886.174,886.174,888.21,1593.0,888.21,5.0,888.211,3.0,26.0,116.0,12.0,1.0,1.2,0.3,Time
,,S03,199724,1,男,23,anonymized,Serial_Dependence_U,2023.2.3,Win32,89.92805755393564,,,,,,888.211,166.0,3.0,888.211,166.0,,,,892.198,892.697,891.688,892.197,889.209,891.688,892.697,893.197,893.197,894.9449999999999,1398.0,894.9449999999999,3.0,894.946,3.0,27.0,117.0,3.0,1.0,1.4,0.3,Time
,,S03,199724,1,男,23,anonymized,Serial_Dependence_U,2023.2.3,Win32,89.92805755393564,,,,,,894.947,236.0,3.0,894.947,236.0,,,,899.121,899.619,898.62,899.121,895.959,898.62,899.619,900.119,900.119,901.987,1547.0,901.987,3.0,901.988,3.0,28.0,118.0,14.0,1.0,1.6,0.3,Time
,,S03,199724,1,男,23,anonymized,Serial_Dependence_U,2023.2.3,Win32,89.92805755393564,,,,,,901.989,322.0,3.0,901.989,322.0,,,,905.743,906.241,905.243,905.743,902.996,905.243,906.241,906.741,906.741,908.327,1265.0,908.327,4.0,908.327,3.0,29.0,119.0,27.0,1.0,1.2,0.7,Time
,,S03,199724,1,男,23,anonymized,Serial_Dependence_U,2023.2.3,Win32,89.92805755393564,,,,,,908.327,185.0,4.0,922.23,185.0,s,13.885999999999967,,925.621,926.119,925.097,925.621,923.232,925.097,926.119,926.619,926.62,928.303,1405.0,928.303,5.0,928.304,4.0,0.0,120.0,20.0,1.0,0.8,0.3,Time
,,S03,199724,1,男,23,anonymized,Serial_Dependence_U,2023.2.3,Win32,89.92805755393564,,,,,,928.305,343.0,4.0,928.306,343.0,,,,931.876,932.375,931.358,931.876,929.321,931.358,932.375,932.875,932.875,934.337,1186.0,934.337,4.0,934.337,4.0,1.0,121.0,26.0,1.0,1.0,0.7,Time
,,S03,199724,1,男,23,anonymized,Serial_Dependence_U,2023.2.3,Win32,89.92805755393564,,,,,,934.338,239.0,4.0,934.338,239.0,,,,937.688,938.185,937.177,937.687,935.331,937.177,938.185,938.686,938.686,940.168,1170.0,940.168,5.0,940.168,4.0,2.0,122.0,15.0,1.0,0.8,0.7,Time
,,S03,199724,1,男,23,anonymized,Serial_Dependence_U,2023.2.3,Win32,89.92805755393564,,,,,,940.168,136.0,4.0,940.169,136.0,,,,944.112,944.609,943.608,944.112,941.164,943.608,944.609,945.108,945.108,946.914,1307.0,946.914,2.0,946.915,4.0,3.0,123.0,18.0,1.0,1.4,0.7,Time
,,S03,199724,1,男,23,anonymized,Serial_Dependence_U,2023.2.3,Win32,89.92805755393564,,,,,,946.915,313.0,4.0,946.915,313.0,,,,950.298,950.797,949.787,950.298,947.908,949.787,950.797,951.297,951.297,953.054,1359.0,953.054,5.0,953.054,4.0,4.0,124.0,10.0,1.0,0.8,0.3,Time
,,S03,199724,1,男,23,anonymized,Serial_Dependence_U,2023.2.3,Win32,89.92805755393564,,,,,,953.054,347.0,4.0,953.054,347.0,,,,956.636,957.13,956.136,956.636,954.066,956.136,957.13,957.63,957.63,959.36,1094.0,959.36,4.0,959.361,4.0,5.0,125.0,11.0,1.0,1.0,0.3,Time
,,S03,199724,1,男,23,anonymized,Serial_Dependence_U,2023.2.3,Win32,89.92805755393564,,,,,,959.362,235.0,4.0,959.362,235.0,,,,963.143,963.641,962.643,963.143,960.365,962.643,963.641,964.142,964.142,966.187,1688.0,966.187,5.0,966.188,4.0,6.0,126.0,2.0,1.0,1.2,0.3,Time
,,S03,199724,1,男,23,anonymized,Serial_Dependence_U,2023.2.3,Win32,89.92805755393564,,,,,,966.188,68.0,4.0,966.188,68.0,,,,969.921,970.419,969.421,969.921,967.187,969.421,970.419,970.919,970.919,972.648,1422.0,972.648,4.0,972.649,4.0,7.0,127.0,7.0,1.0,1.2,0.7,Time
,,S03,199724,1,男,23,anonymized,Serial_Dependence_U,2023.2.3,Win32,89.92805755393564,,,,,,972.649,8.0,4.0,972.649,8.0,,,,976.225,976.719,975.711,976.225,973.647,975.711,976.719,977.219,977.219,978.677,1173.0,978.678,4.0,978.678,4.0,8.0,128.0,1.0,1.0,1.0,0.3,Time
,,S03,199724,1,男,23,anonymized,Serial_Dependence_U,2023.2.3,Win32,89.92805755393564,,,,,,978.679,49.0,4.0,978.679,49.0,,,,982.432,982.93,981.921,982.432,979.691,981.921,982.93,983.43,983.43,984.934,1241.0,984.934,3.0,984.934,4.0,9.0,129.0,27.0,1.0,1.2,0.7,Time
,,S03,199724,1,男,23,anonymized,Serial_Dependence_U,2023.2.3,Win32,89.92805755393564,,,,,,984.935,51.0,4.0,984.935,51.0,,,,989.119,989.619,988.61,989.119,985.932,988.61,989.619,990.119,990.119,991.643,1324.0,991.643,2.0,991.643,4.0,10.0,130.0,14.0,1.0,1.6,0.3,Time
,,S03,199724,1,男,23,anonymized,Serial_Dependence_U,2023.2.3,Win32,89.92805755393564,,,,,,991.644,193.0,4.0,991.6450000000002,193.0,,,,995.7990000000002,996.297,995.2800000000002,995.7990000000002,992.642,995.2800000000002,996.297,996.797,996.797,998.8100000000002,1667.0,998.8100000000002,3.0,998.8100000000002,4.0,11.0,131.0,9.0,1.0,1.6,0.7,Time
,,S03,199724,1,男,23,anonymized,Serial_Dependence_U,2023.2.3,Win32,89.92805755393564,,,,,,998.811,345.0,4.0,998.811,345.0,,,,1002.776,1003.275,1002.276,1002.776,999.8100000000002,1002.276,1003.275,1003.775,1003.775,1005.398,1374.0,1005.398,3.0,1005.399,4.0,12.0,132.0,23.0,1.0,1.4,0.3,Time
,,S03,199724,1,男,23,anonymized,Serial_Dependence_U,2023.2.3,Win32,89.92805755393564,,,,,,1005.4,295.0,4.0,1005.4,295.0,,,,1009.142,1009.641,1008.632,1009.142,1006.3970000000002,1008.632,1009.641,1010.142,1010.142,1011.61,1205.0,1011.61,3.0,1011.61,4.0,13.0,133.0,17.0,1.0,1.2,0.7,Time
,,S03,199724,1,男,23,anonymized,Serial_Dependence_U,2023.2.3,Win32,89.92805755393564,,,,,,1011.611,172.0,4.0,1011.611,172.0,,,,1015.792,1016.286,1015.2820000000002,1015.792,1012.61,1015.2820000000002,1016.286,1016.786,1016.786,1018.5690000000002,1519.0,1018.5690000000002,2.0,1018.5700000000002,4.0,14.0,134.0,24.0,1.0,1.6,0.3,Time
,,S03,199724,1,男,23,anonymized,Serial_Dependence_U,2023.2.3,Win32,89.92805755393564,,,,,,1018.5700000000002,302.0,4.0,1018.5700000000002,302.0,,,,1022.332,1022.831,1021.8300000000002,1022.332,1019.5690000000002,1021.8300000000002,1022.831,1023.331,1023.331,1025.0210000000002,1443.0,1025.0210000000002,4.0,1025.0220000000002,4.0,15.0,135.0,22.0,1.0,1.2,0.3,Time
,,S03,199724,1,男,23,anonymized,Serial_Dependence_U,2023.2.3,Win32,89.92805755393564,,,,,,1025.023,352.0,4.0,1025.023,352.0,,,,1028.798,1029.297,1028.294,1028.798,1026.0320000000002,1028.293,1029.297,1029.797,1029.797,1031.431,1391.0,1031.431,4.0,1031.432,4.0,16.0,136.0,12.0,1.0,1.2,0.3,Time
,,S03,199724,1,男,23,anonymized,Serial_Dependence_U,2023.2.3,Win32,89.92805755393564,,,,,,1031.432,295.0,4.0,1031.432,295.0,,,,1035.409,1035.908,1034.9,1035.409,1032.432,1034.9,1035.908,1036.408,1036.408,1038.215,1518.0,1038.215,4.0,1038.216,4.0,17.0,137.0,13.0,1.0,1.4,0.3,Time
,,S03,199724,1,男,23,anonymized,Serial_Dependence_U,2023.2.3,Win32,89.92805755393564,,,,,,1038.216,1.0,4.0,1038.216,1.0,,,,1041.602,1042.0970000000002,1041.0880000000002,1041.602,1039.216,1041.0880000000002,1042.0970000000002,1042.5970000000002,1042.5970000000002,1044.341,1483.0,1044.342,5.0,1044.343,4.0,18.0,138.0,0.0,1.0,0.8,0.3,Time
,,S03,199724,1,男,23,anonymized,Serial_Dependence_U,2023.2.3,Win32,89.92805755393564,,,,,,1044.343,48.0,4.0,1044.343,48.0,,,,1048.509,1049.008,1047.999,1048.508,1045.354,1047.998,1049.008,1049.509,1049.509,1051.581,1734.0,1051.581,4.0,1051.582,4.0,19.0,139.0,19.0,1.0,1.6,0.7,Time
,,S03,199724,1,男,23,anonymized,Serial_Dependence_U,2023.2.3,Win32,89.92805755393564,,,,,,1051.582,62.0,4.0,1051.582,62.0,,,,1055.154,1055.653,1054.632,1055.154,1052.585,1054.632,1055.653,1056.153,1056.153,1058.043,1606.0,1058.043,5.0,1058.044,4.0,20.0,140.0,6.0,1.0,1.0,0.7,Time
,,S03,199724,1,男,23,anonymized,Serial_Dependence_U,2023.2.3,Win32,89.92805755393564,,,,,,1058.045,355.0,4.0,1058.046,355.0,,,,1062.0020000000002,1062.497,1061.486,1062.0020000000002,1059.054,1061.486,1062.497,1062.997,1062.997,1064.921,1634.0,1064.921,4.0,1064.922,4.0,21.0,141.0,28.0,1.0,1.4,0.7,Time
,,S03,199724,1,男,23,anonymized,Serial_Dependence_U,2023.2.3,Win32,89.92805755393564,,,,,,1064.923,96.0,4.0,1064.923,96.0,,,,1069.0880000000002,1069.586,1068.587,1069.0880000000002,1065.921,1068.587,1069.586,1070.086,1070.086,1072.075,1682.0,1072.075,4.0,1072.075,4.0,22.0,142.0,4.0,1.0,1.6,0.3,Time
,,S03,199724,1,男,23,anonymized,Serial_Dependence_U,2023.2.3,Win32,89.92805755393564,,,,,,1072.076,17.0,4.0,1072.076,17.0,,,,1075.4540000000002,1075.9530000000002,1074.9350000000002,1075.4540000000002,1073.0880000000002,1074.9340000000002,1075.9530000000002,1076.4530000000002,1076.4530000000002,1078.0310000000002,1278.0,1078.0310000000002,5.0,1078.0320000000002,4.0,23.0,143.0,25.0,1.0,0.8,0.7,Time
,,S03,199724,1,男,23,anonymized,Serial_Dependence_U,2023.2.3,Win32,89.92805755393564,,,,,,1078.0320000000002,81.0,4.0,1078.0320000000002,81.0,,,,1081.381,1081.875,1080.866,1081.381,1079.0320000000002,1080.866,1081.875,1082.375,1082.375,1084.0600000000002,1398.0,1084.0600000000002,5.0,1084.0600000000002,4.0,24.0,144.0,5.0,1.0,0.8,0.7,Time
,,S03,199724,1,男,23,anonymized,Serial_Dependence_U,2023.2.3,Win32,89.92805755393564,,,,,,1084.061,128.0,4.0,1084.061,128.0,,,,1088.187,1088.686,1087.687,1088.187,1085.054,1087.687,1088.686,1089.186,1089.187,1091.287,1650.0,1091.287,3.0,1091.289,4.0,25.0,145.0,29.0,1.0,1.6,0.7,Time
,,S03,199724,1,男,23,anonymized,Serial_Dependence_U,2023.2.3,Win32,89.92805755393564,,,,,,1091.289,115.0,4.0,1091.289,115.0,,,,1095.266,1095.764,1094.764,1095.265,1092.2990000000002,1094.764,1095.764,1096.264,1096.264,1097.979,1453.0,1097.979,3.0,1097.979,4.0,26.0,146.0,3.0,1.0,1.4,0.3,Time
,,S03,199724,1,男,23,anonymized,Serial_Dependence_U,2023.2.3,Win32,89.92805755393564,,,,,,1097.979,97.0,4.0,1097.979,97.0,,,,1101.523,1102.019,1101.0220000000002,1101.523,1098.981,1101.0220000000002,1102.019,1102.519,1102.519,1104.365,1555.0,1104.366,5.0,1104.366,4.0,27.0,147.0,16.0,1.0,1.0,0.7,Time
,,S03,199724,1,男,23,anonymized,Serial_Dependence_U,2023.2.3,Win32,89.92805755393564,,,,,,1104.366,124.0,4.0,1104.3670000000002,124.0,,,,1108.322,1108.8200000000002,1107.8100000000002,1108.322,1105.3770000000002,1107.8100000000002,1108.8200000000002,1109.3190000000002,1109.3190000000002,1111.0980000000002,1468.0,1111.0980000000002,3.0,1111.0990000000002,4.0,28.0,148.0,8.0,1.0,1.4,0.7,Time
,,S03,199724,1,男,23,anonymized,Serial_Dependence_U,2023.2.3,Win32,89.92805755393564,,,,,,1111.0990000000002,90.0,4.0,1111.0990000000002,90.0,,,,1114.7030000000002,1115.197,1114.187,1114.7030000000002,1112.121,1114.186,1115.197,1115.698,1115.698,1117.375,1346.0,1117.375,5.0,1117.3760000000002,4.0,29.0,149.0,21.0,1.0,1.0,0.3,Time
,,S03,199724,1,男,23,anonymized,Serial_Dependence_U,2023.2.3,Win32,89.92805755393564,,,,,,1117.3760000000002,329.0,5.0,1169.12,329.0,s,51.72199999999998,,1172.8760000000002,1173.375,1172.356,1172.8760000000002,1170.12,1172.356,1173.375,1173.875,1173.875,1175.528,1391.0,1175.528,4.0,1175.5300000000002,5.0,0.0,150.0,17.0,1.0,1.2,0.7,Time
,,S03,199724,1,男,23,anonymized,Serial_Dependence_U,2023.2.3,Win32,89.92805755393564,,,,,,1175.5310000000002,227.0,5.0,1175.533,227.0,,,,1179.315,1179.8090000000002,1178.8010000000002,1179.315,1176.5320000000002,1178.8010000000002,1179.8090000000002,1180.308,1180.308,1182.071,1487.0,1182.071,4.0,1182.071,5.0,1.0,151.0,12.0,1.0,1.2,0.3,Time
,,S03,199724,1,男,23,anonymized,Serial_Dependence_U,2023.2.3,Win32,89.92805755393564,,,,,,1182.071,189.0,5.0,1182.071,189.0,,,,1185.826,1186.3200000000002,1185.326,1185.826,1183.065,1185.326,1186.3200000000002,1186.8200000000002,1186.8200000000002,1188.5700000000002,1454.0,1188.5700000000002,4.0,1188.5700000000002,5.0,2.0,152.0,22.0,1.0,1.2,0.3,Time
,,S03,199724,1,男,23,anonymized,Serial_Dependence_U,2023.2.3,Win32,89.92805755393564,,,,,,1188.571,351.0,5.0,1188.571,351.0,,,,1191.9440000000002,1192.442,1191.433,1191.9440000000002,1189.566,1191.433,1192.442,1192.942,1192.942,1194.542,1339.0,1194.542,5.0,1194.543,5.0,3.0,153.0,0.0,1.0,0.8,0.3,Time
,,S03,199724,1,男,23,anonymized,Serial_Dependence_U,2023.2.3,Win32,89.92805755393564,,,,,,1194.543,52.0,5.0,1194.543,52.0,,,,1197.909,1198.409,1197.409,1197.909,1195.543,1197.409,1198.409,1198.909,1198.909,1200.5500000000002,1362.0,1200.5500000000002,5.0,1200.5510000000002,5.0,4.0,154.0,10.0,1.0,0.8,0.3,Time
,,S03,199724,1,男,23,anonymized,Serial_Dependence_U,2023.2.3,Win32,89.92805755393564,,,,,,1200.5510000000002,281.0,5.0,1200.5510000000002,281.0,,,,1204.141,1204.642,1203.6270000000002,1204.141,1201.555,1203.6270000000002,1204.642,1205.142,1205.142,1206.888,1403.0,1206.888,5.0,1206.889,5.0,5.0,155.0,11.0,1.0,1.0,0.3,Time
,,S03,199724,1,男,23,anonymized,Serial_Dependence_U,2023.2.3,Win32,89.92805755393564,,,,,,1206.889,70.0,5.0,1206.89,70.0,,,,1211.077,1211.575,1210.566,1211.077,1207.9,1210.566,1211.575,1212.075,1212.075,1213.585,1220.0,1213.585,2.0,1213.585,5.0,6.0,156.0,4.0,1.0,1.6,0.3,Time
,,S03,199724,1,男,23,anonymized,Serial_Dependence_U,2023.2.3,Win32,89.92805755393564,,,,,,1213.585,12.0,5.0,1213.585,12.0,,,,1217.576,1218.075,1217.066,1217.576,1214.5990000000002,1217.066,1218.075,1218.575,1218.575,1220.5880000000002,1677.0,1220.5880000000002,4.0,1220.5890000000002,5.0,7.0,157.0,3.0,1.0,1.4,0.3,Time
,,S03,199724,1,男,23,anonymized,Serial_Dependence_U,2023.2.3,Win32,89.92805755393564,,,,,,1220.59,324.0,5.0,1220.59,324.0,,,,1224.566,1225.065,1224.054,1224.566,1221.587,1224.054,1225.065,1225.565,1225.565,1227.315,1545.0,1227.315,4.0,1227.316,5.0,8.0,158.0,23.0,1.0,1.4,0.3,Time
,,S03,199724,1,男,23,anonymized,Serial_Dependence_U,2023.2.3,Win32,89.92805755393564,,,,,,1227.316,166.0,5.0,1227.316,166.0,,,,1230.844,1231.342,1230.343,1230.844,1228.3090000000002,1230.343,1231.342,1231.842,1231.842,1233.653,1492.0,1233.653,5.0,1233.654,5.0,9.0,159.0,26.0,1.0,1.0,0.7,Time
,,S03,199724,1,男,23,anonymized,Serial_Dependence_U,2023.2.3,Win32,89.92805755393564,,,,,,1233.6550000000002,350.0,5.0,1233.6550000000002,350.0,,,,1237.815,1238.308,1237.302,1237.815,1234.659,1237.302,1238.308,1238.8090000000002,1238.8090000000002,1240.5980000000002,1488.0,1240.5980000000002,2.0,1240.5990000000002,5.0,10.0,160.0,9.0,1.0,1.6,0.7,Time
,,S03,199724,1,男,23,anonymized,Serial_Dependence_U,2023.2.3,Win32,89.92805755393564,,,,,,1240.5990000000002,100.0,5.0,1240.5990000000002,100.0,,,,1243.932,1244.431,1243.432,1243.932,1241.5990000000002,1243.432,1244.431,1244.931,1244.931,1246.545,1349.0,1246.545,5.0,1246.545,5.0,11.0,161.0,25.0,1.0,0.8,0.7,Time
,,S03,199724,1,男,23,anonymized,Serial_Dependence_U,2023.2.3,Win32,89.92805755393564,,,,,,1246.546,84.0,5.0,1246.546,84.0,,,,1250.11,1250.6080000000002,1249.605,1250.11,1247.545,1249.605,1250.6080000000002,1251.1090000000002,1251.1090000000002,1252.66,1315.0,1252.661,5.0,1252.661,5.0,12.0,162.0,21.0,1.0,1.0,0.3,Time
,,S03,199724,1,男,23,anonymized,Serial_Dependence_U,2023.2.3,Win32,89.92805755393564,,,,,,1252.662,301.0,5.0,1252.662,301.0,,,,1256.237,1256.7320000000002,1255.7220000000002,1256.237,1253.669,1255.721,1256.7320000000002,1257.231,1257.231,1258.977,1439.0,1258.977,5.0,1258.978,5.0,13.0,163.0,6.0,1.0,1.0,0.7,Time
,,S03,199724,1,男,23,anonymized,Serial_Dependence_U,2023.2.3,Win32,89.92805755393564,,,,,,1258.979,84.0,5.0,1258.979,84.0,,,,1262.725,1263.22,1262.221,1262.7240000000002,1259.986,1262.221,1263.22,1263.72,1263.72,1265.6550000000002,1595.0,1265.6550000000002,5.0,1265.6550000000002,5.0,14.0,164.0,27.0,1.0,1.2,0.7,Time
,,S03,199724,1,男,23,anonymized,Serial_Dependence_U,2023.2.3,Win32,89.92805755393564,,,,,,1265.6560000000002,188.0,5.0,1265.6560000000002,188.0,,,,1268.987,1269.487,1268.487,1268.987,1266.6550000000002,1268.487,1269.487,1269.987,1269.987,1271.4050000000002,1166.0,1271.4060000000002,5.0,1271.4060000000002,5.0,15.0,165.0,5.0,1.0,0.8,0.7,Time
,,S03,199724,1,男,23,anonymized,Serial_Dependence_U,2023.2.3,Win32,89.92805755393564,,,,,,1271.4060000000002,17.0,5.0,1271.4060000000002,17.0,,,,1274.999,1275.498,1274.481,1274.999,1272.411,1274.481,1275.498,1275.998,1275.998,1277.634,1320.0,1277.634,5.0,1277.635,5.0,16.0,166.0,1.0,1.0,1.0,0.3,Time
,,S03,199724,1,男,23,anonymized,Serial_Dependence_U,2023.2.3,Win32,89.92805755393564,,,,,,1277.6360000000002,208.0,5.0,1277.6360000000002,208.0,,,,1280.977,1281.476,1280.476,1280.977,1278.644,1280.476,1281.476,1281.975,1281.976,1283.672,1466.0,1283.673,5.0,1283.673,5.0,17.0,167.0,15.0,1.0,0.8,0.7,Time
,,S03,199724,1,男,23,anonymized,Serial_Dependence_U,2023.2.3,Win32,89.92805755393564,,,,,,1283.673,79.0,5.0,1283.673,79.0,,,,1287.611,1288.1090000000002,1287.11,1287.611,1284.6660000000002,1287.11,1288.1090000000002,1288.6090000000002,1288.6090000000002,1290.066,1254.0,1290.066,2.0,1290.066,5.0,18.0,168.0,28.0,1.0,1.4,0.7,Time
,,S03,199724,1,男,23,anonymized,Serial_Dependence_U,2023.2.3,Win32,89.92805755393564,,,,,,1290.067,140.0,5.0,1290.067,140.0,,,,1294.2320000000002,1294.731,1293.728,1294.2320000000002,1291.066,1293.728,1294.731,1295.231,1295.231,1296.755,1345.0,1296.755,2.0,1296.755,5.0,19.0,169.0,24.0,1.0,1.6,0.3,Time
,,S03,199724,1,男,23,anonymized,Serial_Dependence_U,2023.2.3,Win32,89.92805755393564,,,,,,1296.756,33.0,5.0,1296.756,33.0,,,,1300.2990000000002,1300.798,1299.798,1300.2990000000002,1297.755,1299.798,1300.798,1301.298,1301.298,1302.635,1075.0,1302.635,4.0,1302.6360000000002,5.0,20.0,170.0,16.0,1.0,1.0,0.7,Time
,,S03,199724,1,男,23,anonymized,Serial_Dependence_U,2023.2.3,Win32,89.92805755393564,,,,,,1302.6360000000002,226.0,5.0,1302.6360000000002,226.0,,,,1306.792,1307.287,1306.277,1306.792,1303.644,1306.277,1307.287,1307.787,1307.787,1309.432,1326.0,1309.432,2.0,1309.433,5.0,21.0,171.0,19.0,1.0,1.6,0.7,Time
,,S03,199724,1,男,23,anonymized,Serial_Dependence_U,2023.2.3,Win32,89.92805755393564,,,,,,1309.4340000000002,307.0,5.0,1309.4350000000002,307.0,,,,1313.3760000000002,1313.8760000000002,1312.866,1313.3760000000002,1310.433,1312.866,1313.8760000000002,1314.375,1314.3760000000002,1316.104,1461.0,1316.104,3.0,1316.105,5.0,22.0,172.0,8.0,1.0,1.4,0.7,Time
,,S03,199724,1,男,23,anonymized,Serial_Dependence_U,2023.2.3,Win32,89.92805755393564,,,,,,1316.105,102.0,5.0,1316.105,102.0,,,,1320.237,1320.731,1319.737,1320.237,1317.0980000000002,1319.737,1320.731,1321.231,1321.231,1322.767,1263.0,1322.767,2.0,1322.768,5.0,23.0,173.0,29.0,1.0,1.6,0.7,Time
,,S03,199724,1,男,23,anonymized,Serial_Dependence_U,2023.2.3,Win32,89.92805755393564,,,,,,1322.768,317.0,5.0,1322.768,317.0,,,,1326.721,1327.22,1326.2130000000002,1326.721,1323.766,1326.2130000000002,1327.22,1327.72,1327.72,1329.399,1334.0,1329.399,3.0,1329.399,5.0,24.0,174.0,18.0,1.0,1.4,0.7,Time
,,S03,199724,1,男,23,anonymized,Serial_Dependence_U,2023.2.3,Win32,89.92805755393564,,,,,,1329.4,220.0,5.0,1329.4,220.0,,,,1333.1760000000002,1333.6750000000002,1332.667,1333.1760000000002,1330.402,1332.667,1333.6750000000002,1334.1750000000002,1334.1750000000002,1336.0490000000002,1579.0,1336.0490000000002,5.0,1336.0490000000002,5.0,25.0,175.0,2.0,1.0,1.2,0.3,Time
,,S03,199724,1,男,23,anonymized,Serial_Dependence_U,2023.2.3,Win32,89.92805755393564,,,,,,1336.0490000000002,109.0,5.0,1336.0490000000002,109.0,,,,1339.779,1340.276,1339.275,1339.778,1337.043,1339.275,1340.276,1340.776,1340.776,1342.533,1456.0,1342.533,4.0,1342.535,5.0,26.0,176.0,7.0,1.0,1.2,0.7,Time
,,S03,199724,1,男,23,anonymized,Serial_Dependence_U,2023.2.3,Win32,89.92805755393564,,,,,,1342.536,116.0,5.0,1342.536,116.0,,,,1346.5110000000002,1347.009,1346.005,1346.5110000000002,1343.544,1346.005,1347.009,1347.51,1347.51,1349.039,1344.0,1349.039,3.0,1349.039,5.0,27.0,177.0,13.0,1.0,1.4,0.3,Time
,,S03,199724,1,男,23,anonymized,Serial_Dependence_U,2023.2.3,Win32,89.92805755393564,,,,,,1349.0400000000002,273.0,5.0,1349.0400000000002,273.0,,,,1353.211,1353.709,1352.7030000000002,1353.211,1350.033,1352.7030000000002,1353.709,1354.209,1354.209,1356.055,1534.0,1356.055,3.0,1356.055,5.0,28.0,178.0,14.0,1.0,1.6,0.3,Time
,,S03,199724,1,男,23,anonymized,Serial_Dependence_U,2023.2.3,Win32,89.92805755393564,,,,,,1356.056,159.0,5.0,1356.056,159.0,,,,1359.4250000000002,1359.92,1358.921,1359.4250000000002,1357.0600000000002,1358.921,1359.92,1360.42,1360.42,1362.1650000000002,1456.0,1362.1650000000002,5.0,1362.1660000000002,5.0,29.0,179.0,20.0,1.0,0.8,0.3,Time
,,S03,199724,1,男,23,anonymized,Serial_Dependence_U,2023.2.3,Win32,89.92805755393564,,,,,,1362.168,194.0,6.0,1394.577,194.0,s,32.39200000000005,,1398.754,1399.2530000000002,1398.2510000000002,1398.754,1395.5890000000002,1398.2510000000002,1399.254,1399.754,1399.754,1401.623,1518.0,1401.623,2.0,1401.623,6.0,0.0,180.0,4.0,1.0,1.6,0.3,Time
,,S03,199724,1,男,23,anonymized,Serial_Dependence_U,2023.2.3,Win32,89.92805755393564,,,,,,1401.624,183.0,6.0,1401.6260000000002,183.0,,,,1405.01,1405.509,1404.4920000000002,1405.01,1402.622,1404.4920000000002,1405.509,1406.009,1406.009,1407.737,1444.0,1407.737,5.0,1407.737,6.0,1.0,181.0,0.0,1.0,0.8,0.3,Time
,,S03,199724,1,男,23,anonymized,Serial_Dependence_U,2023.2.3,Win32,89.92805755393564,,,,,,1407.738,192.0,6.0,1407.738,192.0,,,,1411.721,1412.221,1411.21,1411.721,1408.744,1411.21,1412.221,1412.721,1412.721,1414.539,1584.0,1414.539,4.0,1414.5400000000002,6.0,2.0,182.0,3.0,1.0,1.4,0.3,Time
,,S03,199724,1,男,23,anonymized,Serial_Dependence_U,2023.2.3,Win32,89.92805755393564,,,,,,1414.5400000000002,151.0,6.0,1414.5400000000002,151.0,,,,1418.5220000000002,1419.0200000000002,1417.998,1418.5220000000002,1415.533,1417.998,1419.0200000000002,1419.5210000000002,1419.5210000000002,1421.4920000000002,1722.0,1421.4920000000002,4.0,1421.4930000000002,6.0,3.0,183.0,13.0,1.0,1.4,0.3,Time
,,S03,199724,1,男,23,anonymized,Serial_Dependence_U,2023.2.3,Win32,89.92805755393564,,,,,,1421.4930000000002,138.0,6.0,1421.4930000000002,138.0,,,,1425.244,1425.7420000000002,1424.738,1425.244,1422.4930000000002,1424.738,1425.7420000000002,1426.2430000000002,1426.2430000000002,1427.994,1488.0,1427.994,4.0,1427.994,6.0,4.0,184.0,7.0,1.0,1.2,0.7,Time
,,S03,199724,1,男,23,anonymized,Serial_Dependence_U,2023.2.3,Win32,89.92805755393564,,,,,,1427.994,310.0,6.0,1427.994,310.0,,,,1431.988,1432.487,1431.478,1431.988,1428.999,1431.478,1432.487,1432.987,1432.987,1434.747,1454.0,1434.747,3.0,1434.748,6.0,5.0,185.0,23.0,1.0,1.4,0.3,Time
,,S03,199724,1,男,23,anonymized,Serial_Dependence_U,2023.2.3,Win32,89.92805755393564,,,,,,1434.748,312.0,6.0,1434.748,312.0,,,,1438.881,1439.3760000000002,1438.381,1438.881,1435.744,1438.381,1439.3760000000002,1439.8760000000002,1439.8760000000002,1441.6280000000002,1499.0,1441.6280000000002,2.0,1441.629,6.0,6.0,186.0,9.0,1.0,1.6,0.7,Time
,,S03,199724,1,男,23,anonymized,Serial_Dependence_U,2023.2.3,Win32,89.92805755393564,,,,,,1441.63,53.0,6.0,1441.63,53.0,,,,1445.0220000000002,1445.5210000000002,1444.5,1445.0220000000002,1442.632,1444.5,1445.5210000000002,1446.0210000000002,1446.0210000000002,1447.994,1737.0,1447.994,5.0,1447.994,6.0,7.0,187.0,20.0,1.0,0.8,0.3,Time
,,S03,199724,1,男,23,anonymized,Serial_Dependence_U,2023.2.3,Win32,89.92805755393564,,,,,,1447.994,4.0,6.0,1447.994,4.0,,,,1452.1450000000002,1452.643,1451.6260000000002,1452.1450000000002,1448.988,1451.6260000000002,1452.643,1453.142,1453.143,1455.1560000000002,1745.0,1455.1560000000002,4.0,1455.1560000000002,6.0,8.0,188.0,29.0,1.0,1.6,0.7,Time
,,S03,199724,1,男,23,anonymized,Serial_Dependence_U,2023.2.3,Win32,89.92805755393564,,,,,,1455.1560000000002,271.0,6.0,1455.1560000000002,271.0,,,,1458.9,1459.398,1458.388,1458.9,1456.1550000000002,1458.388,1459.398,1459.898,1459.898,1461.577,1451.0,1461.577,4.0,1461.5780000000002,6.0,9.0,189.0,17.0,1.0,1.2,0.7,Time
,,S03,199724,1,男,23,anonymized,Serial_Dependence_U,2023.2.3,Win32,89.92805755393564,,,,,,1461.5780000000002,219.0,6.0,1461.5780000000002,219.0,,,,1465.326,1465.8200000000002,1464.8100000000002,1465.326,1462.577,1464.8100000000002,1465.8200000000002,1466.3200000000002,1466.3200000000002,1467.8780000000002,1338.0,1467.8780000000002,4.0,1467.879,6.0,10.0,190.0,27.0,1.0,1.2,0.7,Time
,,S03,199724,1,男,23,anonymized,Serial_Dependence_U,2023.2.3,Win32,89.92805755393564,,,,,,1467.879,350.0,6.0,1467.879,350.0,,,,1471.4720000000002,1471.965,1470.96,1471.4720000000002,1468.889,1470.96,1471.965,1472.465,1472.465,1474.342,1618.0,1474.342,5.0,1474.343,6.0,11.0,191.0,21.0,1.0,1.0,0.3,Time
,,S03,199724,1,男,23,anonymized,Serial_Dependence_U,2023.2.3,Win32,89.92805755393564,,,,,,1474.343,267.0,6.0,1474.344,267.0,,,,1477.7330000000002,1478.2320000000002,1477.216,1477.7330000000002,1475.343,1477.215,1478.2320000000002,1478.7320000000002,1478.7320000000002,1480.595,1601.0,1480.595,5.0,1480.595,6.0,12.0,192.0,10.0,1.0,0.8,0.3,Time
,,S03,199724,1,男,23,anonymized,Serial_Dependence_U,2023.2.3,Win32,89.92805755393564,,,,,,1480.595,114.0,6.0,1480.596,114.0,,,,1484.1550000000002,1484.654,1483.635,1484.1550000000002,1481.6,1483.635,1484.654,1485.154,1485.154,1486.668,1301.0,1486.668,5.0,1486.668,6.0,13.0,193.0,6.0,1.0,1.0,0.7,Time
,,S03,199724,1,男,23,anonymized,Serial_Dependence_U,2023.2.3,Win32,89.92805755393564,,,,,,1486.669,68.0,6.0,1486.669,68.0,,,,1490.015,1490.51,1489.5,1490.015,1487.6660000000002,1489.5,1490.51,1491.01,1491.01,1492.5510000000002,1302.0,1492.5510000000002,5.0,1492.5510000000002,6.0,14.0,194.0,15.0,1.0,0.8,0.7,Time
,,S03,199724,1,男,23,anonymized,Serial_Dependence_U,2023.2.3,Win32,89.92805755393564,,,,,,1492.552,300.0,6.0,1492.553,300.0,,,,1496.489,1496.987,1495.988,1496.489,1493.556,1495.988,1496.987,1497.487,1497.487,1499.337,1531.0,1499.337,4.0,1499.3380000000002,6.0,15.0,195.0,18.0,1.0,1.4,0.7,Time
,,S03,199724,1,男,23,anonymized,Serial_Dependence_U,2023.2.3,Win32,89.92805755393564,,,,,,1499.3380000000002,157.0,6.0,1499.3390000000002,157.0,,,,1503.5,1503.998,1503.0,1503.5,1500.334,1503.0,1503.998,1504.498,1504.498,1506.413,1643.0,1506.413,3.0,1506.414,6.0,16.0,196.0,24.0,1.0,1.6,0.3,Time
,,S03,199724,1,男,23,anonymized,Serial_Dependence_U,2023.2.3,Win32,89.92805755393564,,,,,,1506.414,62.0,6.0,1506.414,62.0,,,,1509.744,1510.2430000000002,1509.2430000000002,1509.744,1507.41,1509.2430000000002,1510.2430000000002,1510.7430000000002,1510.7430000000002,1512.4050000000002,1323.0,1512.4050000000002,5.0,1512.4060000000002,6.0,17.0,197.0,5.0,1.0,0.8,0.7,Time
,,S03,199724,1,男,23,anonymized,Serial_Dependence_U,2023.2.3,Win32,89.92805755393564,,,,,,1512.4060000000002,54.0,6.0,1512.4060000000002,54.0,,,,1516.3670000000002,1516.865,1515.8470000000002,1516.3670000000002,1513.4,1515.8470000000002,1516.865,1517.366,1517.366,1519.2340000000002,1593.0,1519.2340000000002,4.0,1519.2340000000002,6.0,18.0,198.0,8.0,1.0,1.4,0.7,Time
,,S03,199724,1,男,23,anonymized,Serial_Dependence_U,2023.2.3,Win32,89.92805755393564,,,,,,1519.235,22.0,6.0,1519.235,22.0,,,,1523.01,1523.51,1522.5,1523.01,1520.2320000000002,1522.5,1523.51,1524.01,1524.01,1525.8480000000002,1510.0,1525.8480000000002,4.0,1525.8490000000002,6.0,19.0,199.0,2.0,1.0,1.2,0.3,Time
,,S03,199724,1,男,23,anonymized,Serial_Dependence_U,2023.2.3,Win32,89.92805755393564,,,,,,1525.8490000000002,334.0,6.0,1525.8490000000002,334.0,,,,1529.381,1529.8770000000002,1528.881,1529.381,1526.845,1528.881,1529.8770000000002,1530.3770000000002,1530.3770000000002,1532.027,1363.0,1532.027,5.0,1532.027,6.0,20.0,200.0,16.0,1.0,1.0,0.7,Time
,,S03,199724,1,男,23,anonymized,Serial_Dependence_U,2023.2.3,Win32,89.92805755393564,,,,,,1532.028,229.0,6.0,1532.028,229.0,,,,1536.167,1536.6650000000002,1535.6560000000002,1536.167,1533.0210000000002,1535.6560000000002,1536.6650000000002,1537.1650000000002,1537.1650000000002,1539.039,1614.0,1539.039,3.0,1539.0400000000002,6.0,21.0,201.0,19.0,1.0,1.6,0.7,Time
,,S03,199724,1,男,23,anonymized,Serial_Dependence_U,2023.2.3,Win32,89.92805755393564,,,,,,1539.0400000000002,296.0,6.0,1539.0400000000002,296.0,,,,1542.9830000000002,1543.477,1542.481,1542.9830000000002,1540.037,1542.481,1543.477,1543.976,1543.976,1545.699,1512.0,1545.699,4.0,1545.7,6.0,22.0,202.0,28.0,1.0,1.4,0.7,Time
,,S03,199724,1,男,23,anonymized,Serial_Dependence_U,2023.2.3,Win32,89.92805755393564,,,,,,1545.701,210.0,6.0,1545.701,210.0,,,,1549.889,1550.388,1549.3780000000002,1549.889,1546.7040000000002,1549.3780000000002,1550.388,1550.8870000000002,1550.8870000000002,1552.8570000000002,1591.0,1552.8570000000002,3.0,1552.8580000000002,6.0,23.0,203.0,14.0,1.0,1.6,0.3,Time
,,S03,199724,1,男,23,anonymized,Serial_Dependence_U,2023.2.3,Win32,89.92805755393564,,,,,,1552.8580000000002,77.0,6.0,1552.8580000000002,77.0,,,,1556.433,1556.932,1555.927,1556.432,1553.856,1555.927,1556.932,1557.432,1557.432,1559.273,1530.0,1559.273,5.0,1559.274,6.0,24.0,204.0,1.0,1.0,1.0,0.3,Time
,,S03,199724,1,男,23,anonymized,Serial_Dependence_U,2023.2.3,Win32,89.92805755393564,,,,,,1559.274,273.0,6.0,1559.274,273.0,,,,1563.056,1563.554,1562.545,1563.056,1560.278,1562.545,1563.554,1564.054,1564.054,1566.074,1617.0,1566.074,5.0,1566.075,6.0,25.0,205.0,12.0,1.0,1.2,0.3,Time
,,S03,199724,1,男,23,anonymized,Serial_Dependence_U,2023.2.3,Win32,89.92805755393564,,,,,,1566.075,337.0,6.0,1566.075,337.0,,,,1569.667,1570.1650000000002,1569.148,1569.667,1567.0780000000002,1569.148,1570.1650000000002,1570.6660000000002,1570.6660000000002,1572.544,1547.0,1572.544,5.0,1572.545,6.0,26.0,206.0,11.0,1.0,1.0,0.3,Time
,,S03,199724,1,男,23,anonymized,Serial_Dependence_U,2023.2.3,Win32,89.92805755393564,,,,,,1572.545,200.0,6.0,1572.545,200.0,,,,1575.899,1576.399,1575.389,1575.899,1573.544,1575.389,1576.399,1576.899,1576.899,1578.8670000000002,1626.0,1578.8670000000002,5.0,1578.8670000000002,6.0,27.0,207.0,25.0,1.0,0.8,0.7,Time
,,S03,199724,1,男,23,anonymized,Serial_Dependence_U,2023.2.3,Win32,89.92805755393564,,,,,,1578.8680000000002,53.0,6.0,1578.8680000000002,53.0,,,,1582.422,1582.921,1581.912,1582.422,1579.8780000000002,1581.912,1582.921,1583.421,1583.421,1585.033,1455.0,1585.033,5.0,1585.034,6.0,28.0,208.0,26.0,1.0,1.0,0.7,Time
,,S03,199724,1,男,23,anonymized,Serial_Dependence_U,2023.2.3,Win32,89.92805755393564,,,,,,1585.034,63.0,6.0,1585.034,63.0,,,,1588.812,1589.3100000000002,1588.311,1588.812,1586.038,1588.311,1589.3100000000002,1589.8100000000002,1589.8100000000002,1591.571,1481.0,1591.571,4.0,1591.572,6.0,29.0,209.0,22.0,1.0,1.2,0.3,Time
,,S03,199724,1,男,23,anonymized,Serial_Dependence_U,2023.2.3,Win32,89.92805755393564,,,,,,1591.572,191.0,7.0,1594.843,191.0,s,3.254000000000133,,1598.825,1599.321,1598.322,1598.825,1595.856,1598.322,1599.321,1599.821,1599.821,1601.6170000000002,1576.0,1601.6170000000002,4.0,1601.6180000000002,7.0,0.0,210.0,13.0,1.0,1.4,0.3,Time
,,S03,199724,1,男,23,anonymized,Serial_Dependence_U,2023.2.3,Win32,89.92805755393564,,,,,,1601.619,344.0,7.0,1601.62,344.0,,,,1605.814,1606.3100000000002,1605.3010000000002,1605.814,1602.631,1605.3010000000002,1606.3100000000002,1606.8100000000002,1606.8100000000002,1608.34,1194.0,1608.34,2.0,1608.341,7.0,1.0,211.0,24.0,1.0,1.6,0.3,Time
,,S03,199724,1,男,23,anonymized,Serial_Dependence_U,2023.2.3,Win32,89.92805755393564,,,,,,1608.341,217.0,7.0,1608.341,217.0,,,,1612.293,1612.788,1611.7900000000002,1612.293,1609.356,1611.789,1612.788,1613.287,1613.287,1615.0490000000002,1444.0,1615.0490000000002,3.0,1615.0500000000002,7.0,2.0,212.0,8.0,1.0,1.4,0.7,Time
,,S03,199724,1,男,23,anonymized,Serial_Dependence_U,2023.2.3,Win32,89.92805755393564,,,,,,1615.0500000000002,100.0,7.0,1615.0500000000002,100.0,,,,1619.0,1619.499,1618.48,1619.0,1616.0500000000002,1618.48,1619.499,1619.999,1619.999,1621.885,1565.0,1621.885,4.0,1621.8860000000002,7.0,3.0,213.0,28.0,1.0,1.4,0.7,Time
,,S03,199724,1,男,23,anonymized,Serial_Dependence_U,2023.2.3,Win32,89.92805755393564,,,,,,1621.8860000000002,160.0,7.0,1621.8860000000002,160.0,,,,1625.4450000000002,1625.9430000000002,1624.9340000000002,1625.4450000000002,1622.889,1624.9340000000002,1625.9430000000002,1626.4430000000002,1626.4430000000002,1628.303,1484.0,1628.303,5.0,1628.304,7.0,4.0,214.0,6.0,1.0,1.0,0.7,Time
,,S03,199724,1,男,23,anonymized,Serial_Dependence_U,2023.2.3,Win32,89.92805755393564,,,,,,1628.305,29.0,7.0,1628.305,29.0,,,,1631.8770000000002,1632.3760000000002,1631.3670000000002,1631.8770000000002,1629.2990000000002,1631.3670000000002,1632.3760000000002,1632.8770000000002,1632.8770000000002,1635.0220000000002,1760.0,1635.0220000000002,5.0,1635.023,7.0,5.0,215.0,11.0,1.0,1.0,0.3,Time
,,S03,199724,1,男,23,anonymized,Serial_Dependence_U,2023.2.3,Win32,89.92805755393564,,,,,,1635.024,59.0,7.0,1635.024,59.0,,,,1638.59,1639.0880000000002,1638.0680000000002,1638.5890000000002,1636.0220000000002,1638.0680000000002,1639.0880000000002,1639.587,1639.587,1641.45,1608.0,1641.451,5.0,1641.451,7.0,6.0,216.0,16.0,1.0,1.0,0.7,Time
,,S03,199724,1,男,23,anonymized,Serial_Dependence_U,2023.2.3,Win32,89.92805755393564,,,,,,1641.451,298.0,7.0,1641.451,298.0,,,,1644.834,1645.332,1644.312,1644.834,1642.4450000000002,1644.312,1645.332,1645.832,1645.832,1647.401,1407.0,1647.401,5.0,1647.401,7.0,7.0,217.0,10.0,1.0,0.8,0.3,Time
,,S03,199724,1,男,23,anonymized,Serial_Dependence_U,2023.2.3,Win32,89.92805755393564,,,,,,1647.401,267.0,7.0,1647.402,267.0,,,,1651.16,1651.654,1650.644,1651.16,1648.399,1650.644,1651.654,1652.154,1652.154,1654.037,1341.0,1654.037,4.0,1654.037,7.0,8.0,218.0,7.0,1.0,1.2,0.7,Time
,,S03,199724,1,男,23,anonymized,Serial_Dependence_U,2023.2.3,Win32,89.92805755393564,,,,,,1654.037,41.0,7.0,1654.037,41.0,,,,1657.7820000000002,1658.276,1657.268,1657.7820000000002,1655.033,1657.267,1658.276,1658.776,1658.776,1660.5,1419.0,1660.5,4.0,1660.5010000000002,7.0,9.0,219.0,27.0,1.0,1.2,0.7,Time
,,S03,199724,1,男,23,anonymized,Serial_Dependence_U,2023.2.3,Win32,89.92805755393564,,,,,,1660.5020000000002,11.0,7.0,1660.5020000000002,11.0,,,,1664.292,1664.787,1663.779,1664.292,1661.5,1663.778,1664.788,1665.288,1665.288,1667.038,1421.0,1667.038,4.0,1667.039,7.0,10.0,220.0,2.0,1.0,1.2,0.3,Time
,,S03,199724,1,男,23,anonymized,Serial_Dependence_U,2023.2.3,Win32,89.92805755393564,,,,,,1667.039,62.0,7.0,1667.039,62.0,,,,1671.027,1671.5210000000002,1670.5120000000002,1671.027,1668.034,1670.5120000000002,1671.5210000000002,1672.0210000000002,1672.0210000000002,1673.662,1314.0,1673.662,2.0,1673.663,7.0,11.0,221.0,23.0,1.0,1.4,0.3,Time
,,S03,199724,1,男,23,anonymized,Serial_Dependence_U,2023.2.3,Win32,89.92805755393564,,,,,,1673.663,226.0,7.0,1673.663,226.0,,,,1677.804,1678.298,1677.3010000000002,1677.804,1674.67,1677.3010000000002,1678.298,1678.7990000000002,1678.7990000000002,1680.64,1455.0,1680.64,2.0,1680.64,7.0,12.0,222.0,29.0,1.0,1.6,0.7,Time
,,S03,199724,1,男,23,anonymized,Serial_Dependence_U,2023.2.3,Win32,89.92805755393564,,,,,,1680.64,74.0,7.0,1680.641,74.0,,,,1684.225,1684.721,1683.711,1684.225,1681.6450000000002,1683.711,1684.721,1685.221,1685.221,1687.105,1500.0,1687.106,5.0,1687.106,7.0,13.0,223.0,21.0,1.0,1.0,0.3,Time
,,S03,199724,1,男,23,anonymized,Serial_Dependence_U,2023.2.3,Win32,89.92805755393564,,,,,,1687.106,252.0,7.0,1687.106,252.0,,,,1690.883,1691.3760000000002,1690.3670000000002,1690.883,1688.1,1690.3670000000002,1691.3770000000002,1691.8770000000002,1691.8770000000002,1693.573,1334.0,1693.573,4.0,1693.573,7.0,14.0,224.0,22.0,1.0,1.2,0.3,Time
,,S03,199724,1,男,23,anonymized,Serial_Dependence_U,2023.2.3,Win32,89.92805755393564,,,,,,1693.574,301.0,7.0,1693.574,301.0,,,,1697.5010000000002,1697.999,1696.999,1697.5010000000002,1694.567,1696.999,1697.999,1698.499,1698.499,1700.606,1632.0,1700.606,4.0,1700.6070000000002,7.0,15.0,225.0,18.0,1.0,1.4,0.7,Time
,,S03,199724,1,男,23,anonymized,Serial_Dependence_U,2023.2.3,Win32,89.92805755393564,,,,,,1700.6070000000002,235.0,7.0,1700.6070000000002,235.0,,,,1704.16,1704.6550000000002,1703.6450000000002,1704.159,1701.6,1703.6450000000002,1704.6550000000002,1705.1550000000002,1705.1550000000002,1707.183,1797.0,1707.183,5.0,1707.183,7.0,16.0,226.0,26.0,1.0,1.0,0.7,Time
,,S03,199724,1,男,23,anonymized,Serial_Dependence_U,2023.2.3,Win32,89.92805755393564,,,,,,1707.183,263.0,7.0,1707.1840000000002,263.0,,,,1710.555,1711.054,1710.045,1710.555,1708.177,1710.045,1711.054,1711.554,1711.554,1713.179,1352.0,1713.179,5.0,1713.18,7.0,17.0,227.0,0.0,1.0,0.8,0.3,Time
,,S03,199724,1,男,23,anonymized,Serial_Dependence_U,2023.2.3,Win32,89.92805755393564,,,,,,1713.181,1.0,7.0,1713.181,1.0,,,,1717.345,1717.844,1716.834,1717.345,1714.1940000000002,1716.834,1717.844,1718.343,1718.343,1720.306,1642.0,1720.306,3.0,1720.307,7.0,18.0,228.0,9.0,1.0,1.6,0.7,Time
,,S03,199724,1,男,23,anonymized,Serial_Dependence_U,2023.2.3,Win32,89.92805755393564,,,,,,1720.308,12.0,7.0,1720.308,12.0,,,,1724.489,1724.988,1723.978,1724.489,1721.312,1723.978,1724.988,1725.488,1725.488,1727.605,1854.0,1727.605,4.0,1727.605,7.0,19.0,229.0,4.0,1.0,1.6,0.3,Time
,,S03,199724,1,男,23,anonymized,Serial_Dependence_U,2023.2.3,Win32,89.92805755393564,,,,,,1727.605,130.0,7.0,1727.605,130.0,,,,1731.178,1731.677,1730.667,1731.178,1728.602,1730.6660000000002,1731.677,1732.177,1732.177,1734.138,1717.0,1734.138,5.0,1734.14,7.0,20.0,230.0,1.0,1.0,1.0,0.3,Time
,,S03,199724,1,男,23,anonymized,Serial_Dependence_U,2023.2.3,Win32,89.92805755393564,,,,,,1734.14,335.0,7.0,1734.14,335.0,,,,1737.881,1738.3770000000002,1737.3680000000002,1737.881,1735.138,1737.3680000000002,1738.3770000000002,1738.8770000000002,1738.8770000000002,1740.6950000000002,1368.0,1740.6950000000002,4.0,1740.696,7.0,21.0,231.0,17.0,1.0,1.2,0.7,Time
,,S03,199724,1,男,23,anonymized,Serial_Dependence_U,2023.2.3,Win32,89.92805755393564,,,,,,1740.696,221.0,7.0,1740.696,221.0,,,,1744.8680000000002,1745.366,1744.3670000000002,1744.8670000000002,1741.69,1744.3670000000002,1745.366,1745.866,1745.866,1748.006,1667.0,1748.006,3.0,1748.007,7.0,22.0,232.0,14.0,1.0,1.6,0.3,Time
,,S03,199724,1,男,23,anonymized,Serial_Dependence_U,2023.2.3,Win32,89.92805755393564,,,,,,1748.007,267.0,7.0,1748.008,267.0,,,,1751.39,1751.888,1750.889,1751.39,1749.023,1750.889,1751.888,1752.388,1752.388,1754.872,2122.0,1754.872,5.0,1754.872,7.0,23.0,233.0,20.0,1.0,0.8,0.3,Time
,,S03,199724,1,男,23,anonymized,Serial_Dependence_U,2023.2.3,Win32,89.92805755393564,,,,,,1754.873,230.0,7.0,1754.873,230.0,,,,1758.212,1758.71,1757.711,1758.212,1755.872,1757.711,1758.71,1759.21,1759.21,1760.994,1433.0,1760.994,5.0,1760.994,7.0,24.0,234.0,25.0,1.0,0.8,0.7,Time
,,S03,199724,1,男,23,anonymized,Serial_Dependence_U,2023.2.3,Win32,89.92805755393564,,,,,,1760.995,231.0,7.0,1760.995,231.0,,,,1765.138,1765.633,1764.624,1765.138,1761.99,1764.623,1765.633,1766.133,1766.133,1767.9630000000002,1468.0,1767.9630000000002,2.0,1767.9630000000002,7.0,25.0,235.0,19.0,1.0,1.6,0.7,Time
,,S03,199724,1,男,23,anonymized,Serial_Dependence_U,2023.2.3,Win32,89.92805755393564,,,,,,1767.9630000000002,359.0,7.0,1767.9630000000002,359.0,,,,1771.9350000000002,1772.432,1771.4340000000002,1771.9350000000002,1768.968,1771.4340000000002,1772.432,1772.932,1772.932,1774.712,1416.0,1774.712,3.0,1774.712,7.0,26.0,236.0,3.0,1.0,1.4,0.3,Time
,,S03,199724,1,男,23,anonymized,Serial_Dependence_U,2023.2.3,Win32,89.92805755393564,,,,,,1774.7130000000002,59.0,7.0,1774.7130000000002,59.0,,,,1778.505,1778.999,1777.99,1778.505,1775.711,1777.99,1778.999,1779.499,1779.499,1781.361,1453.0,1781.361,4.0,1781.362,7.0,27.0,237.0,12.0,1.0,1.2,0.3,Time
,,S03,199724,1,男,23,anonymized,Serial_Dependence_U,2023.2.3,Win32,89.92805755393564,,,,,,1781.363,316.0,7.0,1781.363,316.0,,,,1784.7230000000002,1785.2220000000002,1784.201,1784.7230000000002,1782.36,1784.201,1785.2220000000002,1785.7220000000002,1785.7220000000002,1787.315,1231.0,1787.315,5.0,1787.315,7.0,28.0,238.0,15.0,1.0,0.8,0.7,Time
,,S03,199724,1,男,23,anonymized,Serial_Dependence_U,2023.2.3,Win32,89.92805755393564,,,,,,1787.315,152.0,7.0,1787.315,152.0,,,,1790.668,1791.1660000000002,1790.148,1790.668,1788.311,1790.148,1791.1660000000002,1791.6660000000002,1791.6660000000002,1793.447,1401.0,1793.447,5.0,1793.448,7.0,29.0,239.0,5.0,1.0,0.8,0.7,Time
,,S03,199724,1,男,23,anonymized,Serial_Dependence_U,2023.2.3,Win32,89.92805755393564,,,,,,1793.448,223.0,8.0,1843.9,223.0,s,50.43300000000022,,1847.492,1847.988,1846.98,1847.492,1844.902,1846.98,1847.988,1848.489,1848.489,1850.235,1403.0,1850.235,5.0,1850.236,8.0,0.0,240.0,21.0,1.0,1.0,0.3,Time
,,S03,199724,1,男,23,anonymized,Serial_Dependence_U,2023.2.3,Win32,89.92805755393564,,,,,,1850.237,253.0,8.0,1850.238,253.0,,,,1853.812,1854.311,1853.301,1853.812,1851.234,1853.301,1854.311,1854.81,1854.81,1856.468,1335.0,1856.468,5.0,1856.468,8.0,1.0,241.0,1.0,1.0,1.0,0.3,Time
,,S03,199724,1,男,23,anonymized,Serial_Dependence_U,2023.2.3,Win32,89.92805755393564,,,,,,1856.469,197.0,8.0,1856.469,197.0,,,,1860.401,1860.899,1859.9,1860.401,1857.468,1859.9,1860.899,1861.399,1861.399,1863.35,1544.0,1863.35,4.0,1863.35,8.0,2.0,242.0,8.0,1.0,1.4,0.7,Time
,,S03,199724,1,男,23,anonymized,Serial_Dependence_U,2023.2.3,Win32,89.92805755393564,,,,,,1863.35,23.0,8.0,1863.35,23.0,,,,1867.29,1867.788,1866.783,1867.29,1864.345,1866.782,1867.788,1868.288,1868.288,1869.89,1322.0,1869.89,2.0,1869.89,8.0,3.0,243.0,18.0,1.0,1.4,0.7,Time
,,S03,199724,1,男,23,anonymized,Serial_Dependence_U,2023.2.3,Win32,89.92805755393564,,,,,,1869.89,314.0,8.0,1869.891,314.0,,,,1873.884,1874.377,1873.366,1873.884,1870.901,1873.366,1874.377,1874.877,1874.877,1876.507,1306.0,1876.507,2.0,1876.508,8.0,4.0,244.0,13.0,1.0,1.4,0.3,Time
,,S03,199724,1,男,23,anonymized,Serial_Dependence_U,2023.2.3,Win32,89.92805755393564,,,,,,1876.508,239.0,8.0,1876.51,239.0,,,,1880.657,1881.155,1880.157,1880.657,1877.513,1880.157,1881.155,1881.656,1881.656,1883.521,1427.0,1883.521,2.0,1883.522,8.0,5.0,245.0,19.0,1.0,1.6,0.7,Time
,,S03,199724,1,男,23,anonymized,Serial_Dependence_U,2023.2.3,Win32,89.92805755393564,,,,,,1883.522,309.0,8.0,1883.522,309.0,,,,1887.064,1887.567,1886.557,1887.064,1884.524,1886.557,1887.567,1888.066,1888.066,1889.691,1283.0,1889.691,4.0,1889.692,8.0,6.0,246.0,16.0,1.0,1.0,0.7,Time
,,S03,199724,1,男,23,anonymized,Serial_Dependence_U,2023.2.3,Win32,89.92805755393564,,,,,,1889.692,19.0,8.0,1889.692,19.0,,,,1893.044,1893.544,1892.535,1893.044,1890.697,1892.535,1893.544,1894.044,1894.044,1895.461,1127.0,1895.461,5.0,1895.462,8.0,7.0,247.0,5.0,1.0,0.8,0.7,Time
,,S03,199724,1,男,23,anonymized,Serial_Dependence_U,2023.2.3,Win32,89.92805755393564,,,,,,1895.462,6.0,8.0,1895.462,6.0,,,,1899.635,1900.132,1899.134,1899.635,1896.472,1899.134,1900.132,1900.633,1900.633,1902.459,1527.0,1902.459,3.0,1902.46,8.0,8.0,248.0,24.0,1.0,1.6,0.3,Time
,,S03,199724,1,男,23,anonymized,Serial_Dependence_U,2023.2.3,Win32,89.92805755393564,,,,,,1902.46,9.0,8.0,1902.46,9.0,,,,1906.008,1906.5,1905.502,1906.008,1903.457,1905.502,1906.5,1907.0,1907.0,1908.585,1281.0,1908.585,4.0,1908.586,8.0,9.0,249.0,6.0,1.0,1.0,0.7,Time
,,S03,199724,1,男,23,anonymized,Serial_Dependence_U,2023.2.3,Win32,89.92805755393564,,,,,,1908.587,261.0,8.0,1908.587,261.0,,,,1911.968,1912.466,1911.462,1911.968,1909.594,1911.462,1912.466,1912.967,1912.967,1914.584,1309.0,1914.584,5.0,1914.585,8.0,10.0,250.0,20.0,1.0,0.8,0.3,Time
,,S03,199724,1,男,23,anonymized,Serial_Dependence_U,2023.2.3,Win32,89.92805755393564,,,,,,1914.585,116.0,8.0,1914.585,116.0,,,,1918.179,1918.677,1917.668,1918.179,1915.59,1917.668,1918.677,1919.177,1919.177,1920.872,1464.0,1920.872,5.0,1920.873,8.0,11.0,251.0,11.0,1.0,1.0,0.3,Time
,,S03,199724,1,男,23,anonymized,Serial_Dependence_U,2023.2.3,Win32,89.92805755393564,,,,,,1920.873,341.0,8.0,1920.873,341.0,,,,1925.046,1925.545,1924.546,1925.046,1921.868,1924.545,1925.545,1926.044,1926.045,1927.745,1275.0,1927.745,2.0,1927.745,8.0,12.0,252.0,4.0,1.0,1.6,0.3,Time
,,S03,199724,1,男,23,anonymized,Serial_Dependence_U,2023.2.3,Win32,89.92805755393564,,,,,,1927.747,28.0,8.0,1927.747,28.0,,,,1931.491,1931.989,1930.989,1931.491,1928.757,1930.989,1931.989,1932.488,1932.488,1934.028,1317.0,1934.028,4.0,1934.028,8.0,13.0,253.0,17.0,1.0,1.2,0.7,Time
,,S03,199724,1,男,23,anonymized,Serial_Dependence_U,2023.2.3,Win32,89.92805755393564,,,,,,1934.028,346.0,8.0,1934.029,346.0,,,,1937.567,1938.067,1937.066,1937.567,1935.027,1937.066,1938.067,1938.566,1938.566,1940.269,1368.0,1940.269,5.0,1940.27,8.0,14.0,254.0,26.0,1.0,1.0,0.7,Time
,,S03,199724,1,男,23,anonymized,Serial_Dependence_U,2023.2.3,Win32,89.92805755393564,,,,,,1940.27,266.0,8.0,1940.27,266.0,,,,1944.068,1944.566,1943.546,1944.068,1941.268,1943.546,1944.566,1945.066,1945.066,1946.727,1461.0,1946.727,4.0,1946.727,8.0,15.0,255.0,12.0,1.0,1.2,0.3,Time
,,S03,199724,1,男,23,anonymized,Serial_Dependence_U,2023.2.3,Win32,89.92805755393564,,,,,,1946.727,38.0,8.0,1946.727,38.0,,,,1950.913,1951.41,1950.402,1950.913,1947.723,1950.402,1951.41,1951.911,1951.911,1953.546,1471.0,1953.546,2.0,1953.547,8.0,16.0,256.0,14.0,1.0,1.6,0.3,Time
,,S03,199724,1,男,23,anonymized,Serial_Dependence_U,2023.2.3,Win32,89.92805755393564,,,,,,1953.547,343.0,8.0,1953.547,343.0,,,,1956.946,1957.444,1956.426,1956.946,1954.557,1956.426,1957.444,1957.944,1957.944,1959.623,1419.0,1959.623,5.0,1959.623,8.0,17.0,257.0,0.0,1.0,0.8,0.3,Time
,,S03,199724,1,男,23,anonymized,Serial_Dependence_U,2023.2.3,Win32,89.92805755393564,,,,,,1959.624,207.0,8.0,1959.625,207.0,,,,1963.616,1964.111,1963.102,1963.616,1960.623,1963.102,1964.111,1964.611,1964.611,1966.307,1463.0,1966.307,3.0,1966.307,8.0,18.0,258.0,23.0,1.0,1.4,0.3,Time
,,S03,199724,1,男,23,anonymized,Serial_Dependence_U,2023.2.3,Win32,89.92805755393564,,,,,,1966.307,171.0,8.0,1966.307,171.0,,,,1969.701,1970.199,1969.18,1969.701,1967.302,1969.18,1970.2,1970.7,1970.701,1972.419,1391.0,1972.419,5.0,1972.42,8.0,19.0,259.0,10.0,1.0,0.8,0.3,Time
,,S03,199724,1,男,23,anonymized,Serial_Dependence_U,2023.2.3,Win32,89.92805755393564,,,,,,1972.42,33.0,8.0,1972.421,33.0,,,,1976.223,1976.722,1975.712,1976.223,1973.434,1975.712,1976.722,1977.222,1977.222,1978.904,1550.0,1978.904,4.0,1978.905,8.0,20.0,260.0,2.0,1.0,1.2,0.3,Time
,,S03,199724,1,男,23,anonymized,Serial_Dependence_U,2023.2.3,Win32,89.92805755393564,,,,,,1978.905,107.0,8.0,1978.905,107.0,,,,1982.85,1983.344,1982.337,1982.85,1979.901,1982.337,1983.344,1983.844,1983.844,1985.597,1457.0,1985.597,3.0,1985.597,8.0,21.0,261.0,28.0,1.0,1.4,0.7,Time
,,S03,199724,1,男,23,anonymized,Serial_Dependence_U,2023.2.3,Win32,89.92805755393564,,,,,,1985.597,342.0,8.0,1985.597,342.0,,,,1989.357,1989.856,1988.846,1989.357,1986.601,1988.846,1989.856,1990.356,1990.356,1992.116,1611.0,1992.116,5.0,1992.118,8.0,22.0,262.0,7.0,1.0,1.2,0.7,Time
,,S03,199724,1,男,23,anonymized,Serial_Dependence_U,2023.2.3,Win32,89.92805755393564,,,,,,1992.118,22.0,8.0,1992.118,22.0,,,,1996.089,1996.589,1995.579,1996.089,1993.112,1995.579,1996.589,1997.089,1997.089,1998.683,1209.0,1998.683,2.0,1998.684,8.0,23.0,263.0,3.0,1.0,1.4,0.3,Time
,,S03,199724,1,男,23,anonymized,Serial_Dependence_U,2023.2.3,Win32,89.92805755393564,,,,,,1998.684,246.0,8.0,1998.684,246.0,,,,2002.413,2002.911,2001.912,2002.413,1999.679,2001.912,2002.911,2003.411,2003.411,2005.216,1543.0,2005.216,4.0,2005.217,8.0,24.0,264.0,27.0,1.0,1.2,0.7,Time
,,S03,199724,1,男,23,anonymized,Serial_Dependence_U,2023.2.3,Win32,89.92805755393564,,,,,,2005.217,99.0,8.0,2005.217,99.0,,,,2009.357,2009.855,2008.8450000000005,2009.357,2006.212,2008.8450000000005,2009.855,2010.355,2010.355,2012.19,1610.0,2012.19,3.0,2012.19,8.0,25.0,265.0,29.0,1.0,1.6,0.7,Time
,,S03,199724,1,男,23,anonymized,Serial_Dependence_U,2023.2.3,Win32,89.92805755393564,,,,,,2012.1910000000005,158.0,8.0,2012.1910000000005,158.0,,,,2015.967,2016.467,2015.467,2015.967,2013.202,2015.467,2016.467,2016.967,2016.967,2018.899,1642.0,2018.899,5.0,2018.9,8.0,26.0,266.0,22.0,1.0,1.2,0.3,Time
,,S03,199724,1,男,23,anonymized,Serial_Dependence_U,2023.2.3,Win32,89.92805755393564,,,,,,2018.9,332.0,8.0,2018.9,332.0,,,,2023.0460000000005,2023.5440000000003,2022.538,2023.0460000000005,2019.905,2022.538,2023.5440000000003,2024.045,2024.045,2025.981,1736.0,2025.981,4.0,2025.981,8.0,27.0,267.0,9.0,1.0,1.6,0.7,Time
,,S03,199724,1,男,23,anonymized,Serial_Dependence_U,2023.2.3,Win32,89.92805755393564,,,,,,2025.982,130.0,8.0,2025.982,130.0,,,,2029.335,2029.833,2028.813,2029.335,2026.98,2028.813,2029.833,2030.333,2030.333,2031.951,1343.0,2031.952,5.0,2031.952,8.0,28.0,268.0,15.0,1.0,0.8,0.7,Time
,,S03,199724,1,男,23,anonymized,Serial_Dependence_U,2023.2.3,Win32,89.92805755393564,,,,,,2031.953,155.0,8.0,2031.953,155.0,,,,2035.299,2035.8,2034.791,2035.299,2032.9590000000003,2034.791,2035.8,2036.3,2036.3,2037.822,1244.0,2037.822,5.0,2037.8230000000003,8.0,29.0,269.0,25.0,1.0,0.8,0.7,Time
