Scale_setup.started,Scale_setup.stopped,participant,expid,session,sex,age,date,expName,psychopyVersion,OS,frameRate,Intro.started,Intro.stopped,key_resp_2.keys,key_resp_2.rt,key_resp_2.duration,block.started,direction,Block_id,block.stopped,trial_direction,Block_resp_2.keys,Block_resp_2.rt,Block_resp_2.duration,ITI.started,ITI.stopped,Mask_2.started,Mask_2.stopped,encoding.started,encoding.stopped,Cue.started,Cue.stopped,Response.started,Response.stopped,keyDuration,Feedback_Time.started,FeedbackID_T,Feedback_Time.stopped,trials.thisRepN,trials.thisTrialN,trials.thisN,trials.thisIndex,trials.ran,TimeDur,Coherence1,TrialType
0.0004,0.0008,S04,241220,1,Female,23,anonymized,Serial_Dependence_U,2023.2.3,Win32,59.88023952,,,,,,,,,,,,,,,,,,,,,,,,,,,,,,,,,,,
,,S04,241220,1,Female,23,anonymized,Serial_Dependence_U,2023.2.3,Win32,59.88023952,205.5183,422.4094,space,216.8199,,,,,,,,,,,,,,,,,,,,,,,,,,,,,,,
,,S04,241220,1,Female,23,anonymized,Serial_Dependence_U,2023.2.3,Win32,59.88023952,,,,,,422.4291,224.0,0.0,437.9202,224.0,s,15.4448,,441.9025,442.4016,441.3924,441.9022,438.9274,441.3923,442.4019,442.9019,442.9024,447.7078,583.0,447.7084,1.0,448.6999,0.0,0.0,0.0,3.0,1.0,1.4,0.3,Time
,,S04,241220,1,Female,23,anonymized,Serial_Dependence_U,2023.2.3,Win32,59.88023952,,,,,,448.7011,133.0,0.0,448.7038,133.0,,,,452.0725,452.5648,451.5556,452.0724,449.7227,451.5554,452.5649,453.0646,453.0647,456.4384,2149.0,456.4386,5.0,457.4297,0.0,1.0,1.0,15.0,1.0,0.8,0.7,Time
,,S04,241220,1,Female,23,anonymized,Serial_Dependence_U,2023.2.3,Win32,59.88023952,,,,,,457.4304,180.0,0.0,457.4308,180.0,,,,461.2292,461.7284,460.7129,461.2291,458.4467,460.7128,461.7284,462.228,462.2281,463.6116,885.0,463.6117,2.0,464.6106,0.0,2.0,2.0,22.0,1.0,1.2,0.3,Time
,,S04,241220,1,Female,23,anonymized,Serial_Dependence_U,2023.2.3,Win32,59.88023952,,,,,,464.6114,298.0,0.0,464.6119,298.0,,,,468.7765,469.2757,468.2667,468.7763,465.6336,468.2666,469.2758,469.7755,469.7755,476.3473,2700.0,476.3474,5.0,477.3395,0.0,3.0,3.0,29.0,1.0,1.6,0.7,Time
,,S04,241220,1,Female,23,anonymized,Serial_Dependence_U,2023.2.3,Win32,59.88023952,,,,,,477.3402,219.0,0.0,477.3406,219.0,,,,481.4948,481.9878,480.9792,481.4947,478.3455,480.9791,481.9878,482.4876,482.4877,487.3433,2176.0,487.3434,5.0,488.3358,0.0,4.0,4.0,19.0,1.0,1.6,0.7,Time
,,S04,241220,1,Female,23,anonymized,Serial_Dependence_U,2023.2.3,Win32,59.88023952,,,,,,488.3366,308.0,0.0,488.337,308.0,,,,492.0914,492.5843,491.5753,492.0912,489.3423,491.5752,492.5843,493.084,493.0842,500.2557,1949.0,500.2558,5.0,501.2542,0.0,5.0,5.0,27.0,1.0,1.2,0.7,Time
,,S04,241220,1,Female,23,anonymized,Serial_Dependence_U,2023.2.3,Win32,59.88023952,,,,,,501.255,349.0,0.0,501.2553,349.0,,,,504.814,505.3131,504.3041,504.8139,502.2712,504.3039,505.3132,505.813,505.8132,507.6529,1216.0,507.653,4.0,508.6453,0.0,6.0,6.0,6.0,1.0,1.0,0.7,Time
,,S04,241220,1,Female,23,anonymized,Serial_Dependence_U,2023.2.3,Win32,59.88023952,,,,,,508.646,241.0,0.0,508.6465,241.0,,,,512.8446,513.3436,512.3283,512.8445,509.6623,512.3282,513.3437,513.8435,513.8435,516.06,1531.0,516.0601,3.0,517.059,0.0,7.0,7.0,14.0,1.0,1.6,0.3,Time
,,S04,241220,1,Female,23,anonymized,Serial_Dependence_U,2023.2.3,Win32,59.88023952,,,,,,517.0598,8.0,0.0,517.0602,8.0,,,,520.8146,521.3075,520.2982,520.8145,518.0633,520.2981,521.3075,521.8075,521.8076,523.7813,1200.0,523.7815,3.0,524.773,0.0,8.0,8.0,17.0,1.0,1.2,0.7,Time
,,S04,241220,1,Female,23,anonymized,Serial_Dependence_U,2023.2.3,Win32,59.88023952,,,,,,524.7738,63.0,0.0,524.774,63.0,,,,528.162,528.655,527.646,528.1619,525.7793,527.6459,528.6551,529.1548,529.155,530.245,373.0,530.2451,1.0,531.2374,0.0,9.0,9.0,0.0,1.0,0.8,0.3,Time
,,S04,241220,1,Female,23,anonymized,Serial_Dependence_U,2023.2.3,Win32,59.88023952,,,,,,531.2382,197.0,0.0,531.2386,197.0,,,,535.0199,535.5193,534.5103,535.0198,532.2443,534.5101,535.5193,536.019,536.0191,537.5761,883.0,537.5763,2.0,538.5682,0.0,10.0,10.0,2.0,1.0,1.2,0.3,Time
,,S04,241220,1,Female,23,anonymized,Serial_Dependence_U,2023.2.3,Win32,59.88023952,,,,,,538.569,188.0,0.0,538.5695,188.0,,,,542.5675,543.0666,542.0512,542.5673,539.585,542.051,543.0666,543.5665,543.5665,545.8662,1533.0,545.8664,4.0,546.8653,0.0,11.0,11.0,13.0,1.0,1.4,0.3,Time
,,S04,241220,1,Female,23,anonymized,Serial_Dependence_U,2023.2.3,Win32,59.88023952,,,,,,546.8659,66.0,0.0,546.8662,66.0,,,,550.6312,551.1305,550.115,550.6311,547.8823,550.1148,551.1306,551.6304,551.6306,553.8303,1600.0,553.8304,5.0,554.8293,0.0,12.0,12.0,7.0,1.0,1.2,0.7,Time
,,S04,241220,1,Female,23,anonymized,Serial_Dependence_U,2023.2.3,Win32,59.88023952,,,,,,554.8301,272.0,0.0,554.8305,272.0,,,,558.3785,558.8777,557.8687,558.3785,555.8354,557.8686,558.8778,559.3777,559.3777,560.4349,650.0,560.4349,1.0,561.4268,0.0,13.0,13.0,26.0,1.0,1.0,0.7,Time
,,S04,241220,1,Female,23,anonymized,Serial_Dependence_U,2023.2.3,Win32,59.88023952,,,,,,561.4275,118.0,0.0,561.4277,118.0,,,,565.626,566.1253,565.1097,565.6259,562.4437,565.1097,566.1254,566.6251,566.6251,568.1252,1399.0,568.1253,2.0,569.1243,0.0,14.0,14.0,24.0,1.0,1.6,0.3,Time
,,S04,241220,1,Female,23,anonymized,Serial_Dependence_U,2023.2.3,Win32,59.88023952,,,,,,569.1249,218.0,0.0,569.1252,218.0,,,,573.3066,573.8059,572.7965,573.3065,570.1308,572.7965,573.806,574.3058,574.3059,577.3459,2050.0,577.346,4.0,578.3376,0.0,15.0,15.0,4.0,1.0,1.6,0.3,Time
,,S04,241220,1,Female,23,anonymized,Serial_Dependence_U,2023.2.3,Win32,59.88023952,,,,,,578.3384,90.0,0.0,578.3386,90.0,,,,581.9371,582.4363,581.4208,581.937,579.3545,581.4206,582.4363,582.9362,582.9362,584.7194,1062.0,584.7195,4.0,585.7184,0.0,16.0,16.0,11.0,1.0,1.0,0.3,Time
,,S04,241220,1,Female,23,anonymized,Serial_Dependence_U,2023.2.3,Win32,59.88023952,,,,,,585.7191,33.0,0.0,585.7193,33.0,,,,589.6844,590.1836,589.1682,589.6843,586.7354,589.1681,590.1837,590.6835,590.6836,593.2498,1788.0,593.2499,4.0,594.2488,0.0,17.0,17.0,18.0,1.0,1.4,0.7,Time
,,S04,241220,1,Female,23,anonymized,Serial_Dependence_U,2023.2.3,Win32,59.88023952,,,,,,594.2494,347.0,0.0,594.2497,347.0,,,,597.6483,598.1475,597.1319,597.6482,595.2657,597.1318,598.1475,598.6473,598.6473,599.4309,417.0,599.431,1.0,600.43,0.0,18.0,18.0,10.0,1.0,0.8,0.3,Time
,,S04,241220,1,Female,23,anonymized,Serial_Dependence_U,2023.2.3,Win32,59.88023952,,,,,,600.4308,291.0,0.0,600.4311,291.0,,,,604.0295,604.5287,603.5131,604.0294,601.4468,603.513,604.5288,605.0284,605.0285,606.7949,871.0,606.7951,2.0,607.7944,0.0,19.0,19.0,21.0,1.0,1.0,0.3,Time
,,S04,241220,1,Female,23,anonymized,Serial_Dependence_U,2023.2.3,Win32,59.88023952,,,,,,607.7952,157.0,0.0,607.7956,157.0,,,,611.583,612.076,611.0668,611.5828,608.8009,611.0667,612.0761,612.5758,612.5758,614.333,892.0,614.3331,2.0,615.3249,0.0,20.0,20.0,12.0,1.0,1.2,0.3,Time
,,S04,241220,1,Female,23,anonymized,Serial_Dependence_U,2023.2.3,Win32,59.88023952,,,,,,615.3257,276.0,0.0,615.3261,276.0,,,,618.6744,619.1735,618.1649,618.6742,616.3307,618.1647,619.1735,619.6733,619.6735,621.3804,829.0,621.3804,3.0,622.3724,0.0,21.0,21.0,25.0,1.0,0.8,0.7,Time
,,S04,241220,1,Female,23,anonymized,Serial_Dependence_U,2023.2.3,Win32,59.88023952,,,,,,622.3732,65.0,0.0,622.3735,65.0,,,,626.3383,626.8375,625.8221,626.3382,623.3893,625.8219,626.8376,627.3374,627.3375,628.5708,643.0,628.5709,1.0,629.5701,0.0,22.0,22.0,8.0,1.0,1.4,0.7,Time
,,S04,241220,1,Female,23,anonymized,Serial_Dependence_U,2023.2.3,Win32,59.88023952,,,,,,629.5708,109.0,0.0,629.5712,109.0,,,,633.5357,634.0349,633.0192,633.5356,630.587,633.0191,634.0351,634.5347,634.5347,636.7346,1583.0,636.7346,4.0,637.7336,0.0,23.0,23.0,28.0,1.0,1.4,0.7,Time
,,S04,241220,1,Female,23,anonymized,Serial_Dependence_U,2023.2.3,Win32,59.88023952,,,,,,637.7343,267.0,0.0,637.7345,267.0,,,,641.8996,642.3987,641.3833,641.8995,638.7505,641.3832,642.3987,642.8986,642.8986,645.448,1732.0,645.4481,4.0,646.4474,0.0,24.0,24.0,9.0,1.0,1.6,0.7,Time
,,S04,241220,1,Female,23,anonymized,Serial_Dependence_U,2023.2.3,Win32,59.88023952,,,,,,646.448,84.0,0.0,646.4483,84.0,,,,650.0464,650.5458,649.5304,650.0464,647.4643,649.5303,650.5459,651.0457,651.0457,652.4126,813.0,652.4127,2.0,653.4115,0.0,25.0,25.0,1.0,1.0,1.0,0.3,Time
,,S04,241220,1,Female,23,anonymized,Serial_Dependence_U,2023.2.3,Win32,59.88023952,,,,,,653.4119,253.0,0.0,653.412,253.0,,,,656.8111,657.3101,656.2943,656.811,654.4281,656.2942,657.3102,657.81,657.8101,660.8261,1834.0,660.8262,5.0,661.8254,0.0,26.0,26.0,20.0,1.0,0.8,0.3,Time
,,S04,241220,1,Female,23,anonymized,Serial_Dependence_U,2023.2.3,Win32,59.88023952,,,,,,661.826,172.0,0.0,661.8263,172.0,,,,665.1979,665.6905,664.682,665.1978,662.8484,664.6819,665.6906,666.1904,666.1904,667.8299,874.0,667.8301,4.0,668.8228,0.0,27.0,27.0,5.0,1.0,0.8,0.7,Time
,,S04,241220,1,Female,23,anonymized,Serial_Dependence_U,2023.2.3,Win32,59.88023952,,,,,,668.8232,219.0,0.0,668.8234,219.0,,,,672.362,672.8548,671.8459,672.3619,669.8126,671.8458,672.8549,673.3547,673.3547,674.8117,1135.0,674.8118,4.0,675.8038,0.0,28.0,28.0,16.0,1.0,1.0,0.7,Time
,,S04,241220,1,Female,23,anonymized,Serial_Dependence_U,2023.2.3,Win32,59.88023952,,,,,,675.8047,64.0,0.0,675.8051,64.0,,,,679.7931,680.2856,679.2765,679.793,676.8102,679.2764,680.2857,680.7854,680.7855,682.3754,1133.0,682.3756,2.0,683.368,0.0,29.0,29.0,23.0,1.0,1.4,0.3,Time
,,S04,241220,1,Female,23,anonymized,Serial_Dependence_U,2023.2.3,Win32,59.88023952,,,,,,683.3687,303.0,1.0,760.7245,303.0,s,77.3312,,764.1239,764.623,763.6076,764.1237,761.7415,763.6075,764.6232,765.1228,765.1229,767.006,387.0,767.0062,1.0,767.0068,1.0,0.0,30.0,0.0,1.0,0.8,0.3,Time
,,S04,241220,1,Female,23,anonymized,Serial_Dependence_U,2023.2.3,Win32,59.88023952,,,,,,767.0073,182.0,1.0,767.01,182.0,,,,771.1712,771.6706,770.655,771.1711,768.0226,770.6549,771.6706,772.1704,772.1704,772.4207,21.0,772.4208,1.0,772.4215,1.0,1.0,31.0,9.0,1.0,1.6,0.7,Time
,,S04,241220,1,Female,23,anonymized,Serial_Dependence_U,2023.2.3,Win32,59.88023952,,,,,,772.4221,167.0,1.0,772.4224,167.0,,,,776.5867,777.0853,776.0698,776.5866,773.4373,776.0697,777.0853,777.5851,777.5852,779.785,1723.0,779.7851,4.0,779.7856,1.0,2.0,32.0,19.0,1.0,1.6,0.7,Time
,,S04,241220,1,Female,23,anonymized,Serial_Dependence_U,2023.2.3,Win32,59.88023952,,,,,,779.7862,193.0,1.0,779.7866,193.0,,,,783.1838,783.683,782.6676,783.1837,780.8015,782.6676,783.683,784.1827,784.1828,785.5661,1032.0,785.5662,4.0,785.5667,1.0,3.0,33.0,20.0,1.0,0.8,0.3,Time
,,S04,241220,1,Female,23,anonymized,Serial_Dependence_U,2023.2.3,Win32,59.88023952,,,,,,785.5672,26.0,1.0,785.5674,26.0,,,,789.5649,790.0643,789.0487,789.5648,786.5826,789.0485,790.0643,790.5639,790.564,793.2967,1504.0,793.2968,4.0,793.2974,1.0,4.0,34.0,3.0,1.0,1.4,0.3,Time
,,S04,241220,1,Female,23,anonymized,Serial_Dependence_U,2023.2.3,Win32,59.88023952,,,,,,793.2979,217.0,1.0,793.2981,217.0,,,,797.4955,797.9947,796.9793,797.4954,794.3132,796.9792,797.9948,798.4945,798.4946,800.2945,1116.0,800.2946,1.0,800.2953,1.0,5.0,35.0,24.0,1.0,1.6,0.3,Time
,,S04,241220,1,Female,23,anonymized,Serial_Dependence_U,2023.2.3,Win32,59.88023952,,,,,,800.2959,68.0,1.0,800.2963,68.0,,,,803.6602,804.1592,803.1437,803.6601,801.3108,803.1436,804.1593,804.6591,804.6591,806.2419,899.0,806.242,4.0,806.2423,1.0,6.0,36.0,25.0,1.0,0.8,0.7,Time
,,S04,241220,1,Female,23,anonymized,Serial_Dependence_U,2023.2.3,Win32,59.88023952,,,,,,806.2427,18.0,1.0,806.2427,18.0,,,,810.4243,810.9235,809.9084,810.4242,807.2424,809.9083,810.9235,811.4233,811.4234,813.7731,1631.0,813.7732,3.0,813.7739,1.0,7.0,37.0,4.0,1.0,1.6,0.3,Time
,,S04,241220,1,Female,23,anonymized,Serial_Dependence_U,2023.2.3,Win32,59.88023952,,,,,,813.7746,346.0,1.0,813.7749,346.0,,,,817.9719,818.471,817.4557,817.9717,814.7894,817.4556,818.471,818.9707,818.9707,821.4037,1298.0,821.4039,2.0,821.4045,1.0,8.0,38.0,14.0,1.0,1.6,0.3,Time
,,S04,241220,1,Female,23,anonymized,Serial_Dependence_U,2023.2.3,Win32,59.88023952,,,,,,821.405,198.0,1.0,821.4054,198.0,,,,825.3692,825.8683,824.8529,825.369,822.4201,824.8527,825.8684,826.3682,826.3683,828.6011,1272.0,828.6012,2.0,828.6018,1.0,9.0,39.0,28.0,1.0,1.4,0.7,Time
,,S04,241220,1,Female,23,anonymized,Serial_Dependence_U,2023.2.3,Win32,59.88023952,,,,,,828.6024,92.0,1.0,828.6026,92.0,,,,832.5667,833.0657,832.0504,832.5666,829.6176,832.0503,833.0658,833.5658,833.5658,835.3489,928.0,835.349,1.0,835.3495,1.0,10.0,40.0,18.0,1.0,1.4,0.7,Time
,,S04,241220,1,Female,23,anonymized,Serial_Dependence_U,2023.2.3,Win32,59.88023952,,,,,,835.3501,171.0,1.0,835.3504,171.0,,,,838.9147,839.4136,838.3978,838.9143,836.3654,838.3977,839.4136,839.9134,839.9135,841.4633,950.0,841.4634,2.0,841.4641,1.0,11.0,41.0,6.0,1.0,1.0,0.7,Time
,,S04,241220,1,Female,23,anonymized,Serial_Dependence_U,2023.2.3,Win32,59.88023952,,,,,,841.4647,15.0,1.0,841.465,15.0,,,,845.229,845.7281,844.7127,845.2287,842.4799,844.7127,845.7282,846.2279,846.228,848.9274,1700.0,848.9275,5.0,848.9281,1.0,12.0,42.0,27.0,1.0,1.2,0.7,Time
,,S04,241220,1,Female,23,anonymized,Serial_Dependence_U,2023.2.3,Win32,59.88023952,,,,,,848.9287,2.0,1.0,848.929,2.0,,,,852.2931,852.7922,851.7767,852.293,849.944,851.7767,852.7922,853.2921,853.2922,853.9755,167.0,853.9757,1.0,853.9762,1.0,13.0,43.0,15.0,1.0,0.8,0.7,Time
,,S04,241220,1,Female,23,anonymized,Serial_Dependence_U,2023.2.3,Win32,59.88023952,,,,,,853.9769,101.0,1.0,853.9773,101.0,,,,857.7746,858.2736,857.2584,857.7745,854.9923,857.2583,858.2737,858.7735,858.7736,860.3901,821.0,860.3902,1.0,860.3907,1.0,14.0,44.0,12.0,1.0,1.2,0.3,Time
,,S04,241220,1,Female,23,anonymized,Serial_Dependence_U,2023.2.3,Win32,59.88023952,,,,,,860.3914,325.0,1.0,860.3918,325.0,,,,864.3889,864.8881,863.8726,864.3888,861.4066,863.8724,864.8882,865.3894,865.3894,867.2546,1213.0,867.2548,2.0,867.2555,1.0,15.0,45.0,23.0,1.0,1.4,0.3,Time
,,S04,241220,1,Female,23,anonymized,Serial_Dependence_U,2023.2.3,Win32,59.88023952,,,,,,867.2562,120.0,1.0,867.2565,120.0,,,,870.8532,871.3526,870.3371,870.8531,868.271,870.337,871.3526,871.8524,871.8524,873.219,565.0,873.219,1.0,873.2196,1.0,16.0,46.0,1.0,1.0,1.0,0.3,Time
,,S04,241220,1,Female,23,anonymized,Serial_Dependence_U,2023.2.3,Win32,59.88023952,,,,,,873.22,173.0,1.0,873.2204,173.0,,,,877.1844,877.6836,876.6683,877.1842,874.2355,876.6683,877.6837,878.1835,878.1835,880.4667,1359.0,880.4668,3.0,880.4673,1.0,17.0,47.0,8.0,1.0,1.4,0.7,Time
,,S04,241220,1,Female,23,anonymized,Serial_Dependence_U,2023.2.3,Win32,59.88023952,,,,,,880.468,55.0,1.0,880.4683,55.0,,,,884.0654,884.5645,883.5492,884.0653,881.4829,883.5491,884.5646,885.0644,885.0644,887.7806,1112.0,887.7808,4.0,887.7814,1.0,18.0,48.0,21.0,1.0,1.0,0.3,Time
,,S04,241220,1,Female,23,anonymized,Serial_Dependence_U,2023.2.3,Win32,59.88023952,,,,,,887.782,43.0,1.0,887.7824,43.0,,,,891.9463,892.4452,891.4297,891.9459,888.7969,891.4296,892.4453,892.9449,892.945,894.5781,1079.0,894.5783,1.0,894.5787,1.0,19.0,49.0,29.0,1.0,1.6,0.7,Time
,,S04,241220,1,Female,23,anonymized,Serial_Dependence_U,2023.2.3,Win32,59.88023952,,,,,,894.5793,193.0,1.0,894.5795,193.0,,,,898.1437,898.6429,897.6273,898.1436,895.5946,897.6272,898.6429,899.1427,899.1428,900.4093,813.0,900.4095,2.0,900.4099,1.0,20.0,50.0,26.0,1.0,1.0,0.7,Time
,,S04,241220,1,Female,23,anonymized,Serial_Dependence_U,2023.2.3,Win32,59.88023952,,,,,,900.4103,231.0,1.0,900.4107,231.0,,,,904.2083,904.7075,903.692,904.2081,901.4261,903.6919,904.7076,905.2072,905.2073,906.9571,1066.0,906.9572,2.0,906.9577,1.0,21.0,51.0,22.0,1.0,1.2,0.3,Time
,,S04,241220,1,Female,23,anonymized,Serial_Dependence_U,2023.2.3,Win32,59.88023952,,,,,,906.9581,41.0,1.0,906.9583,41.0,,,,910.7224,911.2219,910.206,910.7224,907.9734,910.2059,911.2219,911.7218,911.7218,914.0713,1342.0,914.0714,4.0,914.0719,1.0,22.0,52.0,17.0,1.0,1.2,0.7,Time
,,S04,241220,1,Female,23,anonymized,Serial_Dependence_U,2023.2.3,Win32,59.88023952,,,,,,914.0726,145.0,1.0,914.0728,145.0,,,,918.0698,918.5693,917.5536,918.0698,915.0875,917.5535,918.5693,919.0692,919.0692,921.1357,1460.0,921.1358,3.0,921.1364,1.0,23.0,53.0,13.0,1.0,1.4,0.3,Time
,,S04,241220,1,Female,23,anonymized,Serial_Dependence_U,2023.2.3,Win32,59.88023952,,,,,,921.137,327.0,1.0,921.1373,327.0,,,,924.9013,925.4003,924.3852,924.9011,922.1524,924.3851,925.4004,925.9001,925.9001,928.1166,1158.0,928.1169,3.0,928.1173,1.0,24.0,54.0,7.0,1.0,1.2,0.7,Time
,,S04,241220,1,Female,23,anonymized,Serial_Dependence_U,2023.2.3,Win32,59.88023952,,,,,,928.1179,334.0,1.0,928.1182,334.0,,,,931.7154,932.2146,931.1992,931.7153,929.133,931.1991,932.2147,932.7146,932.7146,934.2646,754.0,934.2646,2.0,934.2651,1.0,25.0,55.0,11.0,1.0,1.0,0.3,Time
,,S04,241220,1,Female,23,anonymized,Serial_Dependence_U,2023.2.3,Win32,59.88023952,,,,,,934.2656,194.0,1.0,934.2659,194.0,,,,937.6133,938.1125,937.0966,937.6132,935.2641,937.0966,938.1125,938.6124,938.6124,940.1455,566.0,940.1456,2.0,940.146,1.0,26.0,56.0,5.0,1.0,0.8,0.7,Time
,,S04,241220,1,Female,23,anonymized,Serial_Dependence_U,2023.2.3,Win32,59.88023952,,,,,,940.1463,301.0,1.0,940.1465,301.0,,,,943.9443,944.4435,943.4282,943.9443,941.1623,943.4281,944.4435,944.9434,944.9435,946.5269,820.0,946.527,1.0,946.5277,1.0,27.0,57.0,2.0,1.0,1.2,0.3,Time
,,S04,241220,1,Female,23,anonymized,Serial_Dependence_U,2023.2.3,Win32,59.88023952,,,,,,946.5284,344.0,1.0,946.5288,344.0,,,,949.9256,950.4248,949.4096,949.9255,947.5433,949.4095,950.4248,950.9247,950.9247,952.2746,739.0,952.2747,2.0,952.275,1.0,28.0,58.0,10.0,1.0,0.8,0.3,Time
,,S04,241220,1,Female,23,anonymized,Serial_Dependence_U,2023.2.3,Win32,59.88023952,,,,,,952.2755,323.0,1.0,952.2758,323.0,,,,955.84,956.3394,955.3236,955.84,953.2911,955.3235,956.3394,956.8392,956.8393,958.5058,1205.0,958.5059,4.0,958.5064,1.0,29.0,59.0,16.0,1.0,1.0,0.7,Time
,,S04,241220,1,Female,23,anonymized,Serial_Dependence_U,2023.2.3,Win32,59.88023952,,,,,,958.5067,215.0,2.0,965.0201,215.0,s,6.4983,,968.3856,968.885,967.8691,968.3856,966.0369,967.8691,968.8851,969.3849,969.3849,970.9017,832.0,970.9018,3.0,970.9023,2.0,0.0,60.0,15.0,1.0,0.8,0.7,Time
,,S04,241220,1,Female,23,anonymized,Serial_Dependence_U,2023.2.3,Win32,59.88023952,,,,,,970.9028,12.0,2.0,970.9049,12.0,,,,975.1006,975.5996,974.5842,975.1004,971.9182,974.584,975.5997,976.0995,976.0995,977.8494,1225.0,977.8494,2.0,977.8502,2.0,1.0,61.0,24.0,1.0,1.6,0.3,Time
,,S04,241220,1,Female,23,anonymized,Serial_Dependence_U,2023.2.3,Win32,59.88023952,,,,,,977.8508,123.0,2.0,977.8512,123.0,,,,982.0481,982.5471,981.5317,982.048,978.8658,981.5317,982.5472,983.0471,983.0471,985.0136,1398.0,985.0137,2.0,985.0142,2.0,2.0,62.0,14.0,1.0,1.6,0.3,Time
,,S04,241220,1,Female,23,anonymized,Serial_Dependence_U,2023.2.3,Win32,59.88023952,,,,,,985.0148,296.0,2.0,985.0152,296.0,,,,988.6126,989.1115,988.096,988.6123,986.03,988.0959,989.1116,989.6113,989.6114,991.3775,1140.0,991.3776,4.0,991.3779,2.0,3.0,63.0,1.0,1.0,1.0,0.3,Time
,,S04,241220,1,Female,23,anonymized,Serial_Dependence_U,2023.2.3,Win32,59.88023952,,,,,,991.3782,196.0,2.0,991.3783,196.0,,,,995.3764,995.8758,994.8604,995.3764,992.3942,994.8603,995.8758,996.3757,996.3758,998.4423,1697.0,998.4425,4.0,998.4431,2.0,4.0,64.0,13.0,1.0,1.4,0.3,Time
,,S04,241220,1,Female,23,anonymized,Serial_Dependence_U,2023.2.3,Win32,59.88023952,,,,,,998.4439,297.0,2.0,998.4442,297.0,,,,1001.8414,1002.3404,1001.3249,1001.8413,999.4588,1001.3248,1002.3404,1002.8401,1002.8402,1004.4139,810.0,1004.414,3.0,1004.4143,2.0,5.0,65.0,20.0,1.0,0.8,0.3,Time
,,S04,241220,1,Female,23,anonymized,Serial_Dependence_U,2023.2.3,Win32,59.88023952,,,,,,1004.4147,309.0,2.0,1004.415,309.0,,,,1007.763,1008.2603,1007.2456,1007.763,1005.4131,1007.2455,1008.2603,1008.7602,1008.7603,1010.9455,1400.0,1010.9457,5.0,1010.9462,2.0,6.0,66.0,5.0,1.0,0.8,0.7,Time
,,S04,241220,1,Female,23,anonymized,Serial_Dependence_U,2023.2.3,Win32,59.88023952,,,,,,1010.9466,308.0,2.0,1010.9469,308.0,,,,1014.8926,1015.3911,1014.3772,1014.8925,1011.9444,1014.3771,1015.3911,1015.8855,1015.8856,1018.642,1696.0,1018.6421,4.0,1018.6426,2.0,7.0,67.0,8.0,1.0,1.4,0.7,Time
,,S04,241220,1,Female,23,anonymized,Serial_Dependence_U,2023.2.3,Win32,59.88023952,,,,,,1018.6432,351.0,2.0,1018.6435,351.0,,,,1022.3794,1022.8832,1021.8739,1022.3792,1019.6407,1021.8738,1022.8832,1023.3715,1023.3716,1025.2587,1295.0,1025.2588,4.0,1025.2593,2.0,8.0,68.0,17.0,1.0,1.2,0.7,Time
,,S04,241220,1,Female,23,anonymized,Serial_Dependence_U,2023.2.3,Win32,59.88023952,,,,,,1025.26,145.0,2.0,1025.2603,145.0,,,,1029.2047,1029.6974,1028.6883,1029.2045,1026.2553,1028.6883,1029.6974,1030.1972,1030.1972,1032.9468,1953.0,1032.9469,5.0,1032.9475,2.0,9.0,69.0,28.0,1.0,1.4,0.7,Time
,,S04,241220,1,Female,23,anonymized,Serial_Dependence_U,2023.2.3,Win32,59.88023952,,,,,,1032.948,105.0,2.0,1032.9483,105.0,,,,1037.1455,1037.6446,1036.6292,1037.1454,1033.9634,1036.6291,1037.6447,1038.1444,1038.1444,1040.7509,1272.0,1040.751,2.0,1040.7515,2.0,10.0,70.0,4.0,1.0,1.6,0.3,Time
,,S04,241220,1,Female,23,anonymized,Serial_Dependence_U,2023.2.3,Win32,59.88023952,,,,,,1040.7522,293.0,2.0,1040.7524,293.0,,,,1044.2994,1044.7921,1043.7829,1044.2993,1041.7501,1043.7828,1044.7922,1045.292,1045.2921,1047.1662,934.0,1047.1662,2.0,1047.1667,2.0,11.0,71.0,6.0,1.0,1.0,0.7,Time
,,S04,241220,1,Female,23,anonymized,Serial_Dependence_U,2023.2.3,Win32,59.88023952,,,,,,1047.1673,323.0,2.0,1047.1676,323.0,,,,1050.7111,1051.2978,1050.1973,1050.7109,1048.1646,1050.1969,1051.2979,1051.7231,1051.7231,1053.8628,1049.0,1053.863,3.0,1053.8634,2.0,12.0,72.0,26.0,1.0,1.0,0.7,Time
,,S04,241220,1,Female,23,anonymized,Serial_Dependence_U,2023.2.3,Win32,59.88023952,,,,,,1053.864,104.0,2.0,1053.8642,104.0,,,,1058.0111,1058.504,1057.4945,1058.011,1054.862,1057.4944,1058.504,1059.0038,1059.0039,1061.5607,1500.0,1061.5607,2.0,1061.5612,2.0,13.0,73.0,29.0,1.0,1.6,0.7,Time
,,S04,241220,1,Female,23,anonymized,Serial_Dependence_U,2023.2.3,Win32,59.88023952,,,,,,1061.562,290.0,2.0,1061.5623,290.0,,,,1065.1587,1065.6515,1064.6423,1065.1586,1062.5697,1064.6422,1065.6515,1066.1514,1066.1514,1067.7086,700.0,1067.7087,1.0,1067.7091,2.0,14.0,74.0,21.0,1.0,1.0,0.3,Time
,,S04,241220,1,Female,23,anonymized,Serial_Dependence_U,2023.2.3,Win32,59.88023952,,,,,,1067.7098,150.0,2.0,1067.7101,150.0,,,,1071.2903,1071.7828,1070.7735,1071.2902,1068.7074,1070.7734,1071.7829,1072.2825,1072.2826,1073.9991,735.0,1073.9991,2.0,1073.9996,2.0,15.0,75.0,11.0,1.0,1.0,0.3,Time
,,S04,241220,1,Female,23,anonymized,Serial_Dependence_U,2023.2.3,Win32,59.88023952,,,,,,1074.0,189.0,2.0,1074.0004,189.0,,,,1077.9979,1078.4972,1077.4815,1077.9978,1075.0155,1077.4814,1078.4972,1078.9968,1078.9969,1080.6303,934.0,1080.6304,1.0,1080.6309,2.0,16.0,76.0,23.0,1.0,1.4,0.3,Time
,,S04,241220,1,Female,23,anonymized,Serial_Dependence_U,2023.2.3,Win32,59.88023952,,,,,,1080.6314,132.0,2.0,1080.6317,132.0,,,,1084.0189,1084.5118,1083.5022,1084.0187,1081.6362,1083.5021,1084.5118,1085.0115,1085.0116,1086.6519,682.0,1086.652,2.0,1086.6524,2.0,17.0,77.0,10.0,1.0,0.8,0.3,Time
,,S04,241220,1,Female,23,anonymized,Serial_Dependence_U,2023.2.3,Win32,59.88023952,,,,,,1086.6529,174.0,2.0,1086.6532,174.0,,,,1090.5936,1091.0926,1090.0837,1090.5934,1087.651,1090.0835,1091.0927,1091.5925,1091.5926,1093.2165,917.0,1093.2166,1.0,1093.217,2.0,18.0,78.0,18.0,1.0,1.4,0.7,Time
,,S04,241220,1,Female,23,anonymized,Serial_Dependence_U,2023.2.3,Win32,59.88023952,,,,,,1093.2176,298.0,2.0,1093.2178,298.0,,,,1096.5977,1097.0906,1096.0814,1096.5977,1094.2128,1096.0812,1097.0906,1097.5906,1097.5907,1099.6301,1083.0,1099.6301,5.0,1099.6305,2.0,19.0,79.0,0.0,1.0,0.8,0.3,Time
,,S04,241220,1,Female,23,anonymized,Serial_Dependence_U,2023.2.3,Win32,59.88023952,,,,,,1099.6309,273.0,2.0,1099.6311,273.0,,,,1102.9749,1103.4717,1102.4619,1102.9749,1100.6289,1102.4618,1103.4717,1103.9714,1103.9714,1105.5122,792.0,1105.5123,3.0,1105.5128,2.0,20.0,80.0,25.0,1.0,0.8,0.7,Time
,,S04,241220,1,Female,23,anonymized,Serial_Dependence_U,2023.2.3,Win32,59.88023952,,,,,,1105.5134,203.0,2.0,1105.5136,203.0,,,,1109.674,1110.1694,1109.1602,1109.6739,1106.5278,1109.16,1110.1695,1110.6692,1110.6693,1112.5258,1069.0,1112.5259,1.0,1112.5264,2.0,21.0,81.0,9.0,1.0,1.6,0.7,Time
,,S04,241220,1,Female,23,anonymized,Serial_Dependence_U,2023.2.3,Win32,59.88023952,,,,,,1112.527,264.0,2.0,1112.5271,264.0,,,,1116.2908,1116.7837,1115.7749,1116.2907,1113.5355,1115.7749,1116.7837,1117.2836,1117.2837,1118.4238,34.0,1118.4239,1.0,1118.4244,2.0,22.0,82.0,27.0,1.0,1.2,0.7,Time
,,S04,241220,1,Female,23,anonymized,Serial_Dependence_U,2023.2.3,Win32,59.88023952,,,,,,1118.4251,108.0,2.0,1118.4254,108.0,,,,1122.2223,1122.7151,1121.7061,1122.2222,1119.4398,1121.706,1122.7151,1123.215,1123.215,1124.798,457.0,1124.7981,1.0,1124.7986,2.0,23.0,83.0,22.0,1.0,1.2,0.3,Time
,,S04,241220,1,Female,23,anonymized,Serial_Dependence_U,2023.2.3,Win32,59.88023952,,,,,,1124.7992,346.0,2.0,1124.7994,346.0,,,,1128.5968,1129.0961,1128.0869,1128.5967,1125.8146,1128.0868,1129.0961,1129.5959,1129.5959,1131.1697,676.0,1131.1699,1.0,1131.1703,2.0,24.0,84.0,12.0,1.0,1.2,0.3,Time
,,S04,241220,1,Female,23,anonymized,Serial_Dependence_U,2023.2.3,Win32,59.88023952,,,,,,1131.1707,142.0,2.0,1131.1709,142.0,,,,1135.1508,1135.6439,1134.6346,1135.1507,1132.1686,1134.6344,1135.6439,1136.1437,1136.1437,1137.0436,391.0,1137.0437,1.0,1137.0444,2.0,25.0,85.0,3.0,1.0,1.4,0.3,Time
,,S04,241220,1,Female,23,anonymized,Serial_Dependence_U,2023.2.3,Win32,59.88023952,,,,,,1137.045,100.0,2.0,1137.0453,100.0,,,,1140.616,1141.1086,1140.0989,1140.6158,1138.0663,1140.0989,1141.1086,1141.6086,1141.6086,1143.0994,846.0,1143.0995,2.0,1143.1,2.0,26.0,86.0,16.0,1.0,1.0,0.7,Time
,,S04,241220,1,Female,23,anonymized,Serial_Dependence_U,2023.2.3,Win32,59.88023952,,,,,,1143.1004,287.0,2.0,1143.1007,287.0,,,,1147.2468,1147.7397,1146.7302,1147.2467,1144.0978,1146.73,1147.7397,1148.2394,1148.2395,1149.8131,733.0,1149.8131,1.0,1149.8135,2.0,27.0,87.0,19.0,1.0,1.6,0.7,Time
,,S04,241220,1,Female,23,anonymized,Serial_Dependence_U,2023.2.3,Win32,59.88023952,,,,,,1149.8141,24.0,2.0,1149.8144,24.0,,,,1153.5612,1154.054,1153.0454,1153.5612,1150.8119,1153.0453,1154.054,1154.554,1154.554,1156.1613,833.0,1156.1615,1.0,1156.1621,2.0,28.0,88.0,7.0,1.0,1.2,0.7,Time
,,S04,241220,1,Female,23,anonymized,Serial_Dependence_U,2023.2.3,Win32,59.88023952,,,,,,1156.1627,52.0,2.0,1156.163,52.0,,,,1159.9419,1160.4352,1159.426,1159.9419,1157.1598,1159.4259,1160.4353,1160.9351,1160.9351,1162.3591,550.0,1162.3592,1.0,1162.3598,2.0,29.0,89.0,2.0,1.0,1.2,0.3,Time
,,S04,241220,1,Female,23,anonymized,Serial_Dependence_U,2023.2.3,Win32,59.88023952,,,,,,1162.3603,252.0,3.0,1165.9502,252.0,s,3.5652,,1169.3163,1169.8153,1168.8063,1169.3162,1166.972,1168.8062,1169.8153,1170.3151,1170.3153,1171.4056,416.0,1171.4057,1.0,1171.4063,3.0,0.0,90.0,15.0,1.0,0.8,0.7,Time
,,S04,241220,1,Female,23,anonymized,Serial_Dependence_U,2023.2.3,Win32,59.88023952,,,,,,1171.4069,70.0,3.0,1171.4088,70.0,,,,1175.164,1175.6633,1174.6538,1175.1639,1172.4046,1174.6537,1175.6633,1176.1631,1176.1632,1177.6372,791.0,1177.6373,1.0,1177.6378,3.0,1.0,91.0,17.0,1.0,1.2,0.7,Time
,,S04,241220,1,Female,23,anonymized,Serial_Dependence_U,2023.2.3,Win32,59.88023952,,,,,,1177.6385,138.0,3.0,1177.6388,138.0,,,,1181.3852,1181.8778,1180.8686,1181.3851,1178.6361,1180.8683,1181.8778,1182.3777,1182.3778,1183.9184,650.0,1183.9184,1.0,1183.919,3.0,2.0,92.0,27.0,1.0,1.2,0.7,Time
,,S04,241220,1,Female,23,anonymized,Serial_Dependence_U,2023.2.3,Win32,59.88023952,,,,,,1183.9195,83.0,3.0,1183.9198,83.0,,,,1187.266,1187.759,1186.7497,1187.2659,1184.9168,1186.7496,1187.759,1188.2589,1188.259,1189.5332,550.0,1189.5334,1.0,1189.5339,3.0,3.0,93.0,25.0,1.0,0.8,0.7,Time
,,S04,241220,1,Female,23,anonymized,Serial_Dependence_U,2023.2.3,Win32,59.88023952,,,,,,1189.5345,275.0,3.0,1189.5347,275.0,,,,1192.8913,1193.3904,1192.381,1192.8911,1190.5461,1192.3808,1193.3905,1193.8902,1193.8903,1195.228,497.0,1195.2281,1.0,1195.2286,3.0,4.0,94.0,5.0,1.0,0.8,0.7,Time
,,S04,241220,1,Female,23,anonymized,Serial_Dependence_U,2023.2.3,Win32,59.88023952,,,,,,1195.2293,168.0,3.0,1195.2297,168.0,,,,1198.6121,1199.1051,1198.096,1198.612,1196.2297,1198.0958,1199.1051,1199.605,1199.605,1200.7718,492.0,1200.7719,1.0,1200.7724,3.0,5.0,95.0,0.0,1.0,0.8,0.3,Time
,,S04,241220,1,Female,23,anonymized,Serial_Dependence_U,2023.2.3,Win32,59.88023952,,,,,,1200.773,2.0,3.0,1200.7732,2.0,,,,1204.3602,1204.8532,1203.8437,1204.3601,1201.7777,1203.8435,1204.8532,1205.353,1205.353,1206.794,767.0,1206.7941,2.0,1206.7947,3.0,6.0,96.0,21.0,1.0,1.0,0.3,Time
,,S04,241220,1,Female,23,anonymized,Serial_Dependence_U,2023.2.3,Win32,59.88023952,,,,,,1206.7951,303.0,3.0,1206.7954,303.0,,,,1210.7413,1211.2344,1210.225,1210.7413,1207.7924,1210.2249,1211.2344,1211.7341,1211.7341,1213.408,933.0,1213.4081,1.0,1213.4086,3.0,7.0,97.0,18.0,1.0,1.4,0.7,Time
,,S04,241220,1,Female,23,anonymized,Serial_Dependence_U,2023.2.3,Win32,59.88023952,,,,,,1213.4093,356.0,3.0,1213.4097,356.0,,,,1217.5552,1218.0538,1217.0392,1217.5551,1214.4067,1217.0391,1218.0538,1218.5483,1218.5483,1220.9719,1166.0,1220.9721,2.0,1220.9725,3.0,8.0,98.0,29.0,1.0,1.6,0.7,Time
,,S04,241220,1,Female,23,anonymized,Serial_Dependence_U,2023.2.3,Win32,59.88023952,,,,,,1220.9732,211.0,3.0,1220.9735,211.0,,,,1224.947,1225.4459,1224.4368,1224.9468,1221.9706,1224.4367,1225.4459,1225.9459,1225.946,1227.2025,699.0,1227.2026,1.0,1227.2029,3.0,9.0,99.0,23.0,1.0,1.4,0.3,Time
,,S04,241220,1,Female,23,anonymized,Serial_Dependence_U,2023.2.3,Win32,59.88023952,,,,,,1227.2034,248.0,3.0,1227.2036,248.0,,,,1230.9445,1231.4437,1230.4347,1230.9443,1228.2019,1230.4347,1231.4438,1231.9435,1231.9435,1233.7675,700.0,1233.7676,1.0,1233.7679,3.0,10.0,100.0,7.0,1.0,1.2,0.7,Time
,,S04,241220,1,Female,23,anonymized,Serial_Dependence_U,2023.2.3,Win32,59.88023952,,,,,,1233.7684,306.0,3.0,1233.7685,306.0,,,,1237.3653,1237.8583,1236.8491,1237.3653,1234.7828,1236.849,1237.8583,1238.3582,1238.3583,1239.5154,276.0,1239.5155,1.0,1239.516,3.0,11.0,101.0,1.0,1.0,1.0,0.3,Time
,,S04,241220,1,Female,23,anonymized,Serial_Dependence_U,2023.2.3,Win32,59.88023952,,,,,,1239.5166,186.0,3.0,1239.517,186.0,,,,1243.0971,1243.5896,1242.5806,1243.0969,1240.5146,1242.5805,1243.5897,1244.0895,1244.0895,1245.2609,514.0,1245.261,1.0,1245.2615,3.0,12.0,102.0,11.0,1.0,1.0,0.3,Time
,,S04,241220,1,Female,23,anonymized,Serial_Dependence_U,2023.2.3,Win32,59.88023952,,,,,,1245.262,8.0,3.0,1245.2622,8.0,,,,1248.8112,1249.3043,1248.295,1248.8111,1246.2622,1248.295,1249.3044,1249.8041,1249.8042,1251.0947,700.0,1251.0948,1.0,1251.0952,3.0,13.0,103.0,16.0,1.0,1.0,0.7,Time
,,S04,241220,1,Female,23,anonymized,Serial_Dependence_U,2023.2.3,Win32,59.88023952,,,,,,1251.0959,109.0,3.0,1251.0962,109.0,,,,1255.2733,1255.7687,1254.7601,1255.2732,1252.0937,1254.76,1255.7687,1256.2686,1256.2687,1257.6593,757.0,1257.6594,1.0,1257.66,3.0,14.0,104.0,4.0,1.0,1.6,0.3,Time
,,S04,241220,1,Female,23,anonymized,Serial_Dependence_U,2023.2.3,Win32,59.88023952,,,,,,1257.6606,273.0,3.0,1257.6608,273.0,,,,1261.6173,1262.1165,1261.1068,1261.6172,1258.6723,1261.1068,1262.1166,1262.6164,1262.6164,1264.2568,916.0,1264.2568,1.0,1264.2574,3.0,15.0,105.0,28.0,1.0,1.4,0.7,Time
,,S04,241220,1,Female,23,anonymized,Serial_Dependence_U,2023.2.3,Win32,59.88023952,,,,,,1264.2579,49.0,3.0,1264.2582,49.0,,,,1268.4483,1268.9474,1267.9383,1268.4482,1265.2659,1267.9382,1268.9474,1269.4473,1269.4473,1270.5691,531.0,1270.5692,1.0,1270.5698,3.0,16.0,106.0,14.0,1.0,1.6,0.3,Time
,,S04,241220,1,Female,23,anonymized,Serial_Dependence_U,2023.2.3,Win32,59.88023952,,,,,,1270.5705,264.0,3.0,1270.5709,264.0,,,,1274.1361,1274.6289,1273.6196,1274.1359,1271.5844,1273.6195,1274.6289,1275.1288,1275.1288,1276.1857,266.0,1276.1858,1.0,1276.1862,3.0,17.0,107.0,26.0,1.0,1.0,0.7,Time
,,S04,241220,1,Female,23,anonymized,Serial_Dependence_U,2023.2.3,Win32,59.88023952,,,,,,1276.1867,228.0,3.0,1276.1869,228.0,,,,1280.1673,1280.66,1279.6507,1280.1672,1277.1823,1279.6506,1280.66,1281.1599,1281.1601,1282.1836,350.0,1282.1837,1.0,1282.1842,3.0,18.0,108.0,3.0,1.0,1.4,0.3,Time
,,S04,241220,1,Female,23,anonymized,Serial_Dependence_U,2023.2.3,Win32,59.88023952,,,,,,1282.1846,145.0,3.0,1282.185,145.0,,,,1285.7485,1286.2416,1285.2323,1285.7483,1283.1995,1285.2322,1286.2416,1286.7413,1286.7413,1288.4152,826.0,1288.4152,2.0,1288.4157,3.0,19.0,109.0,6.0,1.0,1.0,0.7,Time
,,S04,241220,1,Female,23,anonymized,Serial_Dependence_U,2023.2.3,Win32,59.88023952,,,,,,1288.4163,183.0,3.0,1288.4165,183.0,,,,1292.563,1293.0557,1292.0464,1292.5629,1289.4137,1292.0463,1293.0557,1293.5556,1293.5557,1295.0462,400.0,1295.0462,1.0,1295.0467,3.0,20.0,110.0,19.0,1.0,1.6,0.7,Time
,,S04,241220,1,Female,23,anonymized,Serial_Dependence_U,2023.2.3,Win32,59.88023952,,,,,,1295.0474,164.0,3.0,1295.0478,164.0,,,,1298.9939,1299.4871,1298.4776,1298.9937,1296.0449,1298.4774,1299.4871,1299.9868,1299.9869,1301.0605,466.0,1301.0606,1.0,1301.0611,3.0,21.0,111.0,8.0,1.0,1.4,0.7,Time
,,S04,241220,1,Female,23,anonymized,Serial_Dependence_U,2023.2.3,Win32,59.88023952,,,,,,1301.0617,157.0,3.0,1301.062,157.0,,,,1304.4396,1304.935,1303.9257,1304.4395,1302.0594,1303.9256,1304.9351,1305.4409,1305.4411,1306.6755,728.0,1306.6756,2.0,1306.6769,3.0,22.0,112.0,10.0,1.0,0.8,0.3,Time
,,S04,241220,1,Female,23,anonymized,Serial_Dependence_U,2023.2.3,Win32,59.88023952,,,,,,1306.6773,218.0,3.0,1306.6777,218.0,,,,1310.4543,1310.9495,1309.9401,1310.4541,1307.6744,1309.94,1310.9495,1311.4494,1311.4494,1313.3729,1285.0,1313.373,4.0,1313.3735,3.0,23.0,113.0,12.0,1.0,1.2,0.3,Time
,,S04,241220,1,Female,23,anonymized,Serial_Dependence_U,2023.2.3,Win32,59.88023952,,,,,,1313.3739,326.0,3.0,1313.3742,326.0,,,,1317.535,1318.0304,1317.0214,1317.5349,1314.3884,1317.0212,1318.0305,1318.5302,1318.5302,1320.6205,1150.0,1320.6205,2.0,1320.621,3.0,24.0,114.0,9.0,1.0,1.6,0.7,Time
,,S04,241220,1,Female,23,anonymized,Serial_Dependence_U,2023.2.3,Win32,59.88023952,,,,,,1320.6216,277.0,3.0,1320.6219,277.0,,,,1323.9957,1324.4948,1323.4855,1323.9956,1321.6194,1323.4855,1324.4949,1324.9947,1324.9948,1326.3525,750.0,1326.3525,2.0,1326.3532,3.0,25.0,115.0,20.0,1.0,0.8,0.3,Time
,,S04,241220,1,Female,23,anonymized,Serial_Dependence_U,2023.2.3,Win32,59.88023952,,,,,,1326.3538,150.0,3.0,1326.3541,150.0,,,,1330.5329,1331.0259,1330.0166,1330.5328,1327.3508,1330.0165,1331.0259,1331.5258,1331.5259,1332.4994,116.0,1332.4995,1.0,1332.4999,3.0,26.0,116.0,24.0,1.0,1.6,0.3,Time
,,S04,241220,1,Female,23,anonymized,Serial_Dependence_U,2023.2.3,Win32,59.88023952,,,,,,1332.5006,18.0,3.0,1332.5008,18.0,,,,1336.4812,1336.9738,1335.9646,1336.4811,1333.4985,1335.9645,1336.9738,1337.4738,1337.4739,1338.3643,183.0,1338.3643,1.0,1338.365,3.0,27.0,117.0,13.0,1.0,1.4,0.3,Time
,,S04,241220,1,Female,23,anonymized,Serial_Dependence_U,2023.2.3,Win32,59.88023952,,,,,,1338.3657,42.0,3.0,1338.366,42.0,,,,1342.1457,1342.6385,1341.6292,1342.1456,1339.3632,1341.6292,1342.6386,1343.1384,1343.1384,1344.7626,1036.0,1344.7628,2.0,1344.7632,3.0,28.0,118.0,22.0,1.0,1.2,0.3,Time
,,S04,241220,1,Female,23,anonymized,Serial_Dependence_U,2023.2.3,Win32,59.88023952,,,,,,1344.7637,327.0,3.0,1344.764,327.0,,,,1348.5436,1349.0364,1348.027,1348.5435,1345.761,1348.0269,1349.0364,1349.5361,1349.5363,1351.7608,1417.0,1351.761,4.0,1351.7613,3.0,29.0,119.0,2.0,1.0,1.2,0.3,Time
,,S04,241220,1,Female,23,anonymized,Serial_Dependence_U,2023.2.3,Win32,59.88023952,,,,,,1351.7618,299.0,4.0,1357.9667,299.0,s,6.1779,,1361.9489,1362.4484,1361.4387,1361.9488,1358.9728,1361.4385,1362.4485,1362.9482,1362.9482,1365.0215,1199.0,1365.0215,2.0,1365.022,4.0,0.0,120.0,23.0,1.0,1.4,0.3,Time
,,S04,241220,1,Female,23,anonymized,Serial_Dependence_U,2023.2.3,Win32,59.88023952,,,,,,1365.0225,224.0,4.0,1365.0243,224.0,,,,1369.1673,1369.6625,1368.6531,1369.1672,1366.0206,1368.653,1369.6625,1370.1623,1370.1624,1372.4693,1599.0,1372.4694,3.0,1372.4699,4.0,1.0,121.0,29.0,1.0,1.6,0.7,Time
,,S04,241220,1,Female,23,anonymized,Serial_Dependence_U,2023.2.3,Win32,59.88023952,,,,,,1372.4705,66.0,4.0,1372.4709,66.0,,,,1376.0172,1376.5101,1375.5008,1376.0171,1373.4681,1375.5007,1376.5101,1377.01,1377.01,1378.7501,950.0,1378.7503,2.0,1378.7507,4.0,2.0,122.0,16.0,1.0,1.0,0.7,Time
,,S04,241220,1,Female,23,anonymized,Serial_Dependence_U,2023.2.3,Win32,59.88023952,,,,,,1378.7513,201.0,4.0,1378.7518,201.0,,,,1382.9085,1383.4077,1382.3984,1382.9084,1379.7596,1382.3983,1383.4077,1383.9075,1383.9075,1386.3478,1533.0,1386.3479,3.0,1386.3485,4.0,3.0,123.0,19.0,1.0,1.6,0.7,Time
,,S04,241220,1,Female,23,anonymized,Serial_Dependence_U,2023.2.3,Win32,59.88023952,,,,,,1386.349,43.0,4.0,1386.3492,43.0,,,,1389.7228,1390.222,1389.2127,1389.7228,1387.3463,1389.2126,1390.2221,1390.7218,1390.7218,1392.163,767.0,1392.1631,3.0,1392.1635,4.0,4.0,124.0,20.0,1.0,0.8,0.3,Time
,,S04,241220,1,Female,23,anonymized,Serial_Dependence_U,2023.2.3,Win32,59.88023952,,,,,,1392.164,101.0,4.0,1392.1643,101.0,,,,1395.5269,1396.02,1395.0107,1395.5268,1393.1779,1395.0106,1396.02,1396.5198,1396.5198,1397.9936,775.0,1397.9936,3.0,1397.9941,4.0,5.0,125.0,25.0,1.0,0.8,0.7,Time
,,S04,241220,1,Female,23,anonymized,Serial_Dependence_U,2023.2.3,Win32,59.88023952,,,,,,1397.9947,93.0,4.0,1397.9951,93.0,,,,1401.5915,1402.0845,1401.0754,1401.5914,1399.009,1401.0753,1402.0845,1402.5844,1402.5844,1404.6916,1233.0,1404.6917,4.0,1404.6922,4.0,6.0,126.0,11.0,1.0,1.0,0.3,Time
,,S04,241220,1,Female,23,anonymized,Serial_Dependence_U,2023.2.3,Win32,59.88023952,,,,,,1404.6928,136.0,4.0,1404.6932,136.0,,,,1408.6328,1409.132,1408.1227,1408.6327,1405.6902,1408.1227,1409.1321,1409.6319,1409.632,1411.5566,1384.0,1411.5567,3.0,1411.5572,4.0,7.0,127.0,28.0,1.0,1.4,0.7,Time
,,S04,241220,1,Female,23,anonymized,Serial_Dependence_U,2023.2.3,Win32,59.88023952,,,,,,1411.5578,154.0,4.0,1411.558,154.0,,,,1415.5036,1415.9964,1414.9872,1415.5035,1412.5544,1414.987,1415.9964,1416.4962,1416.4962,1419.3193,2066.0,1419.3201,5.0,1419.3208,4.0,8.0,128.0,18.0,1.0,1.4,0.7,Time
,,S04,241220,1,Female,23,anonymized,Serial_Dependence_U,2023.2.3,Win32,59.88023952,,,,,,1419.3216,90.0,4.0,1419.3217,90.0,,,,1422.7009,1423.194,1422.1846,1422.7008,1420.3186,1422.1845,1423.194,1423.6938,1423.6938,1426.767,1550.0,1426.767,5.0,1426.7675,4.0,9.0,129.0,10.0,1.0,0.8,0.3,Time
,,S04,241220,1,Female,23,anonymized,Serial_Dependence_U,2023.2.3,Win32,59.88023952,,,,,,1426.7679,123.0,4.0,1426.7682,123.0,,,,1430.7479,1431.241,1430.2317,1430.7478,1427.7659,1430.2316,1431.241,1431.7408,1431.7409,1434.1476,1183.0,1434.1477,2.0,1434.1481,4.0,10.0,130.0,13.0,1.0,1.4,0.3,Time
,,S04,241220,1,Female,23,anonymized,Serial_Dependence_U,2023.2.3,Win32,59.88023952,,,,,,1434.1488,53.0,4.0,1434.149,53.0,,,,1438.129,1438.6218,1437.6124,1438.1289,1435.1469,1437.6123,1438.6218,1439.1216,1439.1217,1440.9792,1136.0,1440.9793,2.0,1440.9799,4.0,11.0,131.0,3.0,1.0,1.4,0.3,Time
,,S04,241220,1,Female,23,anonymized,Serial_Dependence_U,2023.2.3,Win32,59.88023952,,,,,,1440.9806,337.0,4.0,1440.9808,337.0,,,,1444.76,1445.2529,1444.2435,1444.7599,1441.9718,1444.2434,1445.2529,1445.7526,1445.7527,1447.3603,1172.0,1447.3604,3.0,1447.3609,4.0,12.0,132.0,12.0,1.0,1.2,0.3,Time
,,S04,241220,1,Female,23,anonymized,Serial_Dependence_U,2023.2.3,Win32,59.88023952,,,,,,1447.3614,163.0,4.0,1447.3617,163.0,,,,1450.9349,1451.434,1450.4248,1450.9348,1448.3587,1450.4247,1451.4341,1451.9339,1451.9339,1453.6415,834.0,1453.6416,2.0,1453.6422,4.0,13.0,133.0,1.0,1.0,1.0,0.3,Time
,,S04,241220,1,Female,23,anonymized,Serial_Dependence_U,2023.2.3,Win32,59.88023952,,,,,,1453.6427,101.0,4.0,1453.643,101.0,,,,1457.8159,1458.3149,1457.3057,1457.8158,1454.6402,1457.3057,1458.3149,1458.8148,1458.8149,1460.9385,1283.0,1460.9386,2.0,1460.939,4.0,14.0,134.0,4.0,1.0,1.6,0.3,Time
,,S04,241220,1,Female,23,anonymized,Serial_Dependence_U,2023.2.3,Win32,59.88023952,,,,,,1460.9396,228.0,4.0,1460.9398,228.0,,,,1464.4802,1464.9794,1463.9702,1464.4801,1461.9373,1463.97,1464.9794,1465.4792,1465.4793,1467.6361,1278.0,1467.6362,4.0,1467.6367,4.0,15.0,135.0,26.0,1.0,1.0,0.7,Time
,,S04,241220,1,Female,23,anonymized,Serial_Dependence_U,2023.2.3,Win32,59.88023952,,,,,,1467.6372,177.0,4.0,1467.6375,177.0,,,,1471.5835,1472.0768,1471.0677,1471.5834,1468.6349,1471.0677,1472.0769,1472.5768,1472.5769,1475.2003,1666.0,1475.2003,4.0,1475.2008,4.0,16.0,136.0,8.0,1.0,1.4,0.7,Time
,,S04,241220,1,Female,23,anonymized,Serial_Dependence_U,2023.2.3,Win32,59.88023952,,,,,,1475.2012,348.0,4.0,1475.2015,348.0,,,,1479.3479,1479.8408,1478.8317,1479.3478,1476.1985,1478.8316,1479.8408,1480.3408,1480.3408,1482.4813,1417.0,1482.4814,2.0,1482.4819,4.0,17.0,137.0,9.0,1.0,1.6,0.7,Time
,,S04,241220,1,Female,23,anonymized,Serial_Dependence_U,2023.2.3,Win32,59.88023952,,,,,,1482.4825,113.0,4.0,1482.4827,113.0,,,,1485.829,1486.3219,1485.3128,1485.8289,1483.4797,1485.3128,1486.3219,1486.8217,1486.8218,1489.7784,1283.0,1489.7786,5.0,1489.779,4.0,18.0,138.0,15.0,1.0,0.8,0.7,Time
,,S04,241220,1,Female,23,anonymized,Serial_Dependence_U,2023.2.3,Win32,59.88023952,,,,,,1489.7795,283.0,4.0,1489.7799,283.0,,,,1493.1599,1493.6527,1492.6436,1493.1598,1490.7772,1492.6435,1493.6527,1494.1525,1494.1525,1495.9261,866.0,1495.9262,4.0,1495.9268,4.0,19.0,139.0,0.0,1.0,0.8,0.3,Time
,,S04,241220,1,Female,23,anonymized,Serial_Dependence_U,2023.2.3,Win32,59.88023952,,,,,,1495.9273,234.0,4.0,1495.9276,234.0,,,,1499.4908,1499.9839,1498.9744,1499.4908,1496.9418,1498.9743,1499.9839,1500.4836,1500.4836,1502.1412,1209.0,1502.1413,4.0,1502.1417,4.0,20.0,140.0,6.0,1.0,1.0,0.7,Time
,,S04,241220,1,Female,23,anonymized,Serial_Dependence_U,2023.2.3,Win32,59.88023952,,,,,,1502.1424,225.0,4.0,1502.1426,225.0,,,,1505.8886,1506.3816,1505.3724,1505.8884,1503.137,1505.3723,1506.3817,1506.8815,1506.8815,1508.5384,883.0,1508.5385,2.0,1508.5391,4.0,21.0,141.0,27.0,1.0,1.2,0.7,Time
,,S04,241220,1,Female,23,anonymized,Serial_Dependence_U,2023.2.3,Win32,59.88023952,,,,,,1508.5401,221.0,4.0,1508.5403,221.0,,,,1512.7034,1513.196,1512.2009,1512.7033,1509.5374,1512.2008,1513.1961,1513.6958,1513.6959,1516.386,1849.0,1516.3861,4.0,1516.3866,4.0,22.0,142.0,24.0,1.0,1.6,0.3,Time
,,S04,241220,1,Female,23,anonymized,Serial_Dependence_U,2023.2.3,Win32,59.88023952,,,,,,1516.3873,295.0,4.0,1516.3876,295.0,,,,1520.1774,1520.6767,1519.6674,1520.1772,1517.395,1519.6672,1520.6767,1521.1764,1521.1765,1522.1172,776.0,1522.1172,1.0,1522.1177,4.0,23.0,143.0,22.0,1.0,1.2,0.3,Time
,,S04,241220,1,Female,23,anonymized,Serial_Dependence_U,2023.2.3,Win32,59.88023952,,,,,,1522.1183,278.0,4.0,1522.1187,278.0,,,,1525.6958,1526.1913,1525.182,1525.6957,1523.116,1525.1819,1526.1913,1526.6912,1526.6913,1531.9305,617.0,1531.9306,1.0,1531.9311,4.0,24.0,144.0,21.0,1.0,1.0,0.3,Time
,,S04,241220,1,Female,23,anonymized,Serial_Dependence_U,2023.2.3,Win32,59.88023952,,,,,,1531.9318,80.0,4.0,1531.9321,80.0,,,,1535.6786,1536.1716,1535.1618,1535.6785,1532.9292,1535.1617,1536.1718,1536.6711,1536.6712,1538.878,1025.0,1538.8781,2.0,1538.8786,4.0,25.0,145.0,17.0,1.0,1.2,0.7,Time
,,S04,241220,1,Female,23,anonymized,Serial_Dependence_U,2023.2.3,Win32,59.88023952,,,,,,1538.8792,347.0,4.0,1538.8794,347.0,,,,1543.0693,1543.5686,1542.5594,1543.0692,1539.8936,1542.5593,1543.5686,1544.0686,1544.0686,1545.9255,783.0,1545.9256,1.0,1545.926,4.0,26.0,146.0,14.0,1.0,1.6,0.3,Time
,,S04,241220,1,Female,23,anonymized,Serial_Dependence_U,2023.2.3,Win32,59.88023952,,,,,,1545.9265,254.0,4.0,1545.9269,254.0,,,,1549.2903,1549.7833,1548.7736,1549.2902,1546.9413,1548.7735,1549.7833,1550.2832,1550.2832,1552.7568,800.0,1552.7569,3.0,1552.7574,4.0,27.0,147.0,5.0,1.0,0.8,0.7,Time
,,S04,241220,1,Female,23,anonymized,Serial_Dependence_U,2023.2.3,Win32,59.88023952,,,,,,1552.758,215.0,4.0,1552.7583,215.0,,,,1556.5045,1556.9973,1555.988,1556.5044,1553.7547,1555.9879,1556.9973,1557.4972,1557.4973,1559.4546,824.0,1559.4547,1.0,1559.4552,4.0,28.0,148.0,7.0,1.0,1.2,0.7,Time
,,S04,241220,1,Female,23,anonymized,Serial_Dependence_U,2023.2.3,Win32,59.88023952,,,,,,1559.4558,86.0,4.0,1559.4561,86.0,,,,1563.2354,1563.7283,1562.7187,1563.2353,1560.4529,1562.7185,1563.7284,1564.2281,1564.2281,1565.9189,529.0,1565.919,1.0,1565.9196,4.0,29.0,149.0,2.0,1.0,1.2,0.3,Time
,,S04,241220,1,Female,23,anonymized,Serial_Dependence_U,2023.2.3,Win32,59.88023952,,,,,,1565.9201,168.0,5.0,1623.941,168.0,s,57.993,,1627.7297,1628.2226,1627.2132,1627.7295,1624.9472,1627.2131,1628.2226,1628.7225,1628.7226,1630.4956,842.0,1630.4957,2.0,1630.4961,5.0,0.0,150.0,12.0,1.0,1.2,0.3,Time
,,S04,241220,1,Female,23,anonymized,Serial_Dependence_U,2023.2.3,Win32,59.88023952,,,,,,1630.4966,62.0,5.0,1630.4986,62.0,,,,1634.0545,1634.5537,1633.5442,1634.0544,1631.5055,1633.5441,1634.5537,1635.0535,1635.0536,1638.6774,950.0,1638.6774,2.0,1638.6779,5.0,1.0,151.0,16.0,1.0,1.0,0.7,Time
,,S04,241220,1,Female,23,anonymized,Serial_Dependence_U,2023.2.3,Win32,59.88023952,,,,,,1638.6786,255.0,5.0,1638.6789,255.0,,,,1642.6577,1643.1508,1642.1412,1642.6575,1639.6756,1642.1412,1643.1508,1643.6505,1643.6505,1646.6907,816.0,1646.6907,1.0,1646.6913,5.0,2.0,152.0,23.0,1.0,1.4,0.3,Time
,,S04,241220,1,Female,23,anonymized,Serial_Dependence_U,2023.2.3,Win32,59.88023952,,,,,,1646.6918,118.0,5.0,1646.6921,118.0,,,,1650.8821,1651.3811,1650.3718,1650.8819,1647.7058,1650.3716,1651.3812,1651.8809,1651.881,1654.7711,658.0,1654.7712,1.0,1654.7717,5.0,3.0,153.0,24.0,1.0,1.6,0.3,Time
,,S04,241220,1,Female,23,anonymized,Serial_Dependence_U,2023.2.3,Win32,59.88023952,,,,,,1654.7723,89.0,5.0,1654.7726,89.0,,,,1658.536,1659.0284,1658.0191,1658.5358,1655.7863,1658.0189,1659.0284,1659.5284,1659.5284,1660.4525,867.0,1660.4526,2.0,1660.4531,5.0,4.0,154.0,7.0,1.0,1.2,0.7,Time
,,S04,241220,1,Female,23,anonymized,Serial_Dependence_U,2023.2.3,Win32,59.88023952,,,,,,1660.4537,170.0,5.0,1660.454,170.0,,,,1663.8167,1664.3099,1663.3009,1663.8167,1661.4678,1663.3008,1664.31,1664.8098,1664.8099,1665.9173,595.0,1665.9174,2.0,1665.9179,5.0,5.0,155.0,15.0,1.0,0.8,0.7,Time
,,S04,241220,1,Female,23,anonymized,Serial_Dependence_U,2023.2.3,Win32,59.88023952,,,,,,1665.9185,76.0,5.0,1665.9187,76.0,,,,1669.6589,1670.1579,1669.149,1669.6588,1666.916,1669.1489,1670.1581,1670.6578,1670.6579,1674.0652,901.0,1674.0652,2.0,1674.0657,5.0,6.0,156.0,17.0,1.0,1.2,0.7,Time
,,S04,241220,1,Female,23,anonymized,Serial_Dependence_U,2023.2.3,Win32,59.88023952,,,,,,1674.0662,70.0,5.0,1674.0665,70.0,,,,1677.4454,1677.9386,1676.9293,1677.4453,1675.0632,1676.9291,1677.9386,1678.4383,1678.4384,1681.9281,516.0,1681.9282,1.0,1681.9286,5.0,7.0,157.0,20.0,1.0,0.8,0.3,Time
,,S04,241220,1,Female,23,anonymized,Serial_Dependence_U,2023.2.3,Win32,59.88023952,,,,,,1681.9293,119.0,5.0,1681.9296,119.0,,,,1685.7032,1686.2024,1685.1933,1685.7031,1682.9264,1685.1932,1686.2024,1686.7022,1686.7023,1690.1423,583.0,1690.1424,1.0,1690.1428,5.0,8.0,158.0,22.0,1.0,1.2,0.3,Time
,,S04,241220,1,Female,23,anonymized,Serial_Dependence_U,2023.2.3,Win32,59.88023952,,,,,,1690.1433,316.0,5.0,1690.1435,316.0,,,,1693.9065,1694.3995,1693.4008,1693.9064,1691.1384,1693.4006,1694.3995,1694.8994,1694.8995,1695.5068,450.0,1695.5069,1.0,1695.5075,5.0,9.0,159.0,2.0,1.0,1.2,0.3,Time
,,S04,241220,1,Female,23,anonymized,Serial_Dependence_U,2023.2.3,Win32,59.88023952,,,,,,1695.5094,175.0,5.0,1695.51,175.0,,,,1699.0545,1699.5478,1698.5384,1699.0545,1696.5057,1698.5384,1699.5478,1700.0475,1700.0476,1701.2548,733.0,1701.255,2.0,1701.2555,5.0,10.0,160.0,26.0,1.0,1.0,0.7,Time
,,S04,241220,1,Female,23,anonymized,Serial_Dependence_U,2023.2.3,Win32,59.88023952,,,,,,1701.2561,352.0,5.0,1701.2564,352.0,,,,1704.5966,1705.0958,1704.0864,1704.5965,1702.2534,1704.0863,1705.0958,1705.5956,1705.5957,1706.9704,651.0,1706.9705,2.0,1706.9711,5.0,11.0,161.0,5.0,1.0,0.8,0.7,Time
,,S04,241220,1,Female,23,anonymized,Serial_Dependence_U,2023.2.3,Win32,59.88023952,,,,,,1706.9715,8.0,5.0,1706.9717,8.0,,,,1710.5509,1711.0437,1710.0345,1710.5508,1707.9681,1710.0344,1711.0438,1711.5436,1711.5437,1714.7832,702.0,1714.7833,2.0,1714.7837,5.0,12.0,162.0,1.0,1.0,1.0,0.3,Time
,,S04,241220,1,Female,23,anonymized,Serial_Dependence_U,2023.2.3,Win32,59.88023952,,,,,,1714.7841,156.0,5.0,1714.7843,156.0,,,,1718.3252,1718.8244,1717.815,1718.3251,1715.7822,1717.8148,1718.8244,1719.3242,1719.3243,1720.4657,751.0,1720.4658,2.0,1720.4664,5.0,13.0,163.0,6.0,1.0,1.0,0.7,Time
,,S04,241220,1,Female,23,anonymized,Serial_Dependence_U,2023.2.3,Win32,59.88023952,,,,,,1720.4669,139.0,5.0,1720.4672,139.0,,,,1723.84,1724.3393,1723.3298,1723.8399,1721.4615,1723.3297,1724.3393,1724.839,1724.8391,1727.1131,717.0,1727.1132,2.0,1727.1138,5.0,14.0,164.0,10.0,1.0,0.8,0.3,Time
,,S04,241220,1,Female,23,anonymized,Serial_Dependence_U,2023.2.3,Win32,59.88023952,,,,,,1727.1144,109.0,5.0,1727.1148,109.0,,,,1731.3105,1731.8032,1730.7937,1731.3103,1728.1252,1730.7936,1731.8032,1732.3031,1732.3032,1734.5099,1250.0,1734.5099,2.0,1734.5105,5.0,15.0,165.0,4.0,1.0,1.6,0.3,Time
,,S04,241220,1,Female,23,anonymized,Serial_Dependence_U,2023.2.3,Win32,59.88023952,,,,,,1734.5112,121.0,5.0,1734.5113,121.0,,,,1738.4578,1738.9507,1737.9412,1738.4578,1735.5087,1737.9411,1738.9507,1739.4506,1739.4506,1742.2245,883.0,1742.2246,1.0,1742.2251,5.0,16.0,166.0,8.0,1.0,1.4,0.7,Time
,,S04,241220,1,Female,23,anonymized,Serial_Dependence_U,2023.2.3,Win32,59.88023952,,,,,,1742.2256,333.0,5.0,1742.2259,333.0,,,,1745.7991,1746.2981,1745.2889,1745.7988,1743.2229,1745.2888,1746.2982,1746.798,1746.798,1750.2049,617.0,1750.205,1.0,1750.2056,5.0,17.0,167.0,11.0,1.0,1.0,0.3,Time
,,S04,241220,1,Female,23,anonymized,Serial_Dependence_U,2023.2.3,Win32,59.88023952,,,,,,1750.2062,228.0,5.0,1750.2066,228.0,,,,1754.1797,1754.6786,1753.6694,1754.1796,1751.2011,1753.6693,1754.6786,1755.1784,1755.1784,1758.3527,677.0,1758.3528,1.0,1758.3533,5.0,18.0,168.0,3.0,1.0,1.4,0.3,Time
,,S04,241220,1,Female,23,anonymized,Serial_Dependence_U,2023.2.3,Win32,59.88023952,,,,,,1758.3539,214.0,5.0,1758.3544,214.0,,,,1762.5329,1763.0256,1762.0165,1762.5328,1759.3504,1762.0164,1763.0257,1763.5257,1763.5257,1766.8325,926.0,1766.8326,1.0,1766.8331,5.0,19.0,169.0,14.0,1.0,1.6,0.3,Time
,,S04,241220,1,Female,23,anonymized,Serial_Dependence_U,2023.2.3,Win32,59.88023952,,,,,,1766.8336,342.0,5.0,1766.8342,342.0,,,,1770.1799,1770.673,1769.664,1770.1797,1767.8308,1769.6638,1770.673,1771.173,1771.173,1774.5796,383.0,1774.5797,1.0,1774.5801,5.0,20.0,170.0,25.0,1.0,0.8,0.7,Time
,,S04,241220,1,Female,23,anonymized,Serial_Dependence_U,2023.2.3,Win32,59.88023952,,,,,,1774.5808,113.0,5.0,1774.5813,113.0,,,,1778.3219,1778.8202,1777.8107,1778.3215,1775.5783,1777.8106,1778.8202,1779.32,1779.32,1780.7614,734.0,1780.7614,1.0,1780.762,5.0,21.0,171.0,27.0,1.0,1.2,0.7,Time
,,S04,241220,1,Female,23,anonymized,Serial_Dependence_U,2023.2.3,Win32,59.88023952,,,,,,1780.7626,205.0,5.0,1780.7631,205.0,,,,1784.1419,1784.6348,1783.6254,1784.1419,1781.7595,1783.6252,1784.6348,1785.1347,1785.1347,1788.3079,516.0,1788.308,1.0,1788.3085,5.0,22.0,172.0,0.0,1.0,0.8,0.3,Time
,,S04,241220,1,Female,23,anonymized,Serial_Dependence_U,2023.2.3,Win32,59.88023952,,,,,,1788.3091,144.0,5.0,1788.3096,144.0,,,,1792.4555,1792.9486,1791.9395,1792.4554,1789.3066,1791.9394,1792.9486,1793.4484,1793.4484,1796.5887,650.0,1796.5888,1.0,1796.5893,5.0,23.0,173.0,9.0,1.0,1.6,0.7,Time
,,S04,241220,1,Female,23,anonymized,Serial_Dependence_U,2023.2.3,Win32,59.88023952,,,,,,1796.59,252.0,5.0,1796.5905,252.0,,,,1800.5362,1801.0291,1800.0198,1800.5362,1797.5872,1800.0196,1801.0291,1801.5289,1801.5289,1803.653,950.0,1803.653,1.0,1803.6535,5.0,24.0,174.0,28.0,1.0,1.4,0.7,Time
,,S04,241220,1,Female,23,anonymized,Serial_Dependence_U,2023.2.3,Win32,59.88023952,,,,,,1803.654,319.0,5.0,1803.6544,319.0,,,,1807.8005,1808.2932,1807.2836,1807.8003,1804.6516,1807.2835,1808.2933,1808.7933,1808.7934,1810.6179,1044.0,1810.618,1.0,1810.6183,5.0,25.0,175.0,29.0,1.0,1.6,0.7,Time
,,S04,241220,1,Female,23,anonymized,Serial_Dependence_U,2023.2.3,Win32,59.88023952,,,,,,1810.6187,45.0,5.0,1810.619,45.0,,,,1814.5755,1815.0742,1814.0651,1814.5754,1811.6322,1814.065,1815.0742,1815.5741,1815.5741,1818.7319,1077.0,1818.732,2.0,1818.7326,5.0,26.0,176.0,18.0,1.0,1.4,0.7,Time
,,S04,241220,1,Female,23,anonymized,Serial_Dependence_U,2023.2.3,Win32,59.88023952,,,,,,1818.7332,214.0,5.0,1818.7337,214.0,,,,1822.8784,1823.3714,1822.3622,1822.8784,1819.7294,1822.3622,1823.3715,1823.8712,1823.8713,1827.0778,800.0,1827.0778,1.0,1827.0783,5.0,27.0,177.0,19.0,1.0,1.6,0.7,Time
,,S04,241220,1,Female,23,anonymized,Serial_Dependence_U,2023.2.3,Win32,59.88023952,,,,,,1827.0789,263.0,5.0,1827.0801,263.0,,,,1830.6694,1831.1686,1830.1595,1830.6693,1828.093,1830.1594,1831.1686,1831.6684,1831.6685,1833.1599,584.0,1833.16,1.0,1833.1605,5.0,28.0,178.0,21.0,1.0,1.0,0.3,Time
,,S04,241220,1,Female,23,anonymized,Serial_Dependence_U,2023.2.3,Win32,59.88023952,,,,,,1833.161,343.0,5.0,1833.1613,343.0,,,,1837.1402,1837.6331,1836.6239,1837.1401,1834.1579,1836.6239,1837.6331,1838.1329,1838.133,1841.507,1851.0,1841.5071,5.0,1841.5076,5.0,29.0,179.0,13.0,1.0,1.4,0.3,Time
,,S04,241220,1,Female,23,anonymized,Serial_Dependence_U,2023.2.3,Win32,59.88023952,,,,,,1841.5081,202.0,6.0,1844.2143,202.0,s,2.6882,,1847.9802,1848.4793,1847.4699,1847.9801,1845.2373,1847.4698,1848.4793,1848.9792,1848.9792,1851.9363,1333.0,1851.9364,4.0,1851.9369,6.0,0.0,180.0,7.0,1.0,1.2,0.7,Time
,,S04,241220,1,Female,23,anonymized,Serial_Dependence_U,2023.2.3,Win32,59.88023952,,,,,,1851.9375,233.0,6.0,1851.9395,233.0,,,,1855.5004,1855.9934,1854.9843,1855.5003,1852.9513,1854.9842,1855.9935,1856.4934,1856.4935,1859.8831,1050.0,1859.8832,4.0,1859.8838,6.0,1.0,181.0,16.0,1.0,1.0,0.7,Time
,,S04,241220,1,Female,23,anonymized,Serial_Dependence_U,2023.2.3,Win32,59.88023952,,,,,,1859.8844,311.0,6.0,1859.8848,311.0,,,,1863.4809,1863.974,1862.9648,1863.4808,1860.8983,1862.9647,1863.974,1864.4737,1864.4738,1865.648,656.0,1865.648,1.0,1865.6486,6.0,2.0,182.0,11.0,1.0,1.0,0.3,Time
,,S04,241220,1,Female,23,anonymized,Serial_Dependence_U,2023.2.3,Win32,59.88023952,,,,,,1865.6491,317.0,6.0,1865.6495,317.0,,,,1869.4455,1869.9385,1868.9291,1869.4454,1866.6629,1868.929,1869.9385,1870.4383,1870.4383,1873.5451,683.0,1873.5452,1.0,1873.5458,6.0,3.0,183.0,2.0,1.0,1.2,0.3,Time
,,S04,241220,1,Female,23,anonymized,Serial_Dependence_U,2023.2.3,Win32,59.88023952,,,,,,1873.5464,344.0,6.0,1873.5469,344.0,,,,1877.1034,1877.6025,1876.5931,1877.1032,1874.5609,1876.593,1877.6025,1878.1023,1878.1025,1880.3429,1277.0,1880.343,4.0,1880.3435,6.0,4.0,184.0,6.0,1.0,1.0,0.7,Time
,,S04,241220,1,Female,23,anonymized,Serial_Dependence_U,2023.2.3,Win32,59.88023952,,,,,,1880.3442,104.0,6.0,1880.3446,104.0,,,,1884.1176,1884.6168,1883.6072,1884.1175,1881.3356,1883.6071,1884.6168,1885.1165,1885.1165,1887.0739,992.0,1887.074,2.0,1887.0745,6.0,5.0,185.0,22.0,1.0,1.2,0.3,Time
,,S04,241220,1,Female,23,anonymized,Serial_Dependence_U,2023.2.3,Win32,59.88023952,,,,,,1887.0751,236.0,6.0,1887.0755,236.0,,,,1891.0319,1891.5313,1890.5214,1891.0317,1888.0891,1890.5213,1891.5313,1892.0308,1892.0309,1894.1881,1383.0,1894.1882,3.0,1894.1887,6.0,6.0,186.0,18.0,1.0,1.4,0.7,Time
,,S04,241220,1,Female,23,anonymized,Serial_Dependence_U,2023.2.3,Win32,59.88023952,,,,,,1894.1895,68.0,6.0,1894.1899,68.0,,,,1897.7688,1898.262,1897.2528,1897.7686,1895.186,1897.2527,1898.262,1898.7618,1898.7619,1900.586,933.0,1900.5861,2.0,1900.5866,6.0,7.0,187.0,1.0,1.0,1.0,0.3,Time
,,S04,241220,1,Female,23,anonymized,Serial_Dependence_U,2023.2.3,Win32,59.88023952,,,,,,1900.5874,261.0,6.0,1900.5877,261.0,,,,1903.9837,1904.4766,1903.467,1903.9836,1901.5948,1903.4669,1904.4766,1904.9763,1904.9763,1908.5999,516.0,1908.6,1.0,1908.6007,6.0,8.0,188.0,0.0,1.0,0.8,0.3,Time
,,S04,241220,1,Female,23,anonymized,Serial_Dependence_U,2023.2.3,Win32,59.88023952,,,,,,1908.6013,73.0,6.0,1908.6016,73.0,,,,1912.3806,1912.8738,1911.8643,1912.3806,1909.5982,1911.8641,1912.8739,1913.3734,1913.3735,1914.7976,709.0,1914.7977,1.0,1914.7983,6.0,9.0,189.0,12.0,1.0,1.2,0.3,Time
,,S04,241220,1,Female,23,anonymized,Serial_Dependence_U,2023.2.3,Win32,59.88023952,,,,,,1914.7989,247.0,6.0,1914.7992,247.0,,,,1918.9429,1919.4379,1918.4288,1918.9428,1915.796,1918.4287,1919.4379,1919.9378,1919.9378,1922.8955,1341.0,1922.8958,2.0,1922.8965,6.0,10.0,190.0,29.0,1.0,1.6,0.7,Time
,,S04,241220,1,Female,23,anonymized,Serial_Dependence_U,2023.2.3,Win32,59.88023952,,,,,,1922.8969,259.0,6.0,1922.8973,259.0,,,,1926.4587,1926.9519,1925.943,1926.4585,1923.9074,1925.943,1926.952,1927.452,1927.452,1929.2092,875.0,1929.2093,2.0,1929.2099,6.0,11.0,191.0,26.0,1.0,1.0,0.7,Time
,,S04,241220,1,Female,23,anonymized,Serial_Dependence_U,2023.2.3,Win32,59.88023952,,,,,,1929.2104,146.0,6.0,1929.2108,146.0,,,,1933.2006,1933.6997,1932.6903,1933.2004,1930.2247,1932.6903,1933.6997,1934.1995,1934.1995,1937.3733,866.0,1937.3734,1.0,1937.3739,6.0,12.0,192.0,23.0,1.0,1.4,0.3,Time
,,S04,241220,1,Female,23,anonymized,Serial_Dependence_U,2023.2.3,Win32,59.88023952,,,,,,1937.3747,123.0,6.0,1937.375,123.0,,,,1941.3206,1941.8135,1940.8043,1941.3204,1938.3689,1940.8042,1941.8135,1942.3133,1942.3133,1944.3217,807.0,1944.3218,1.0,1944.3222,6.0,13.0,193.0,28.0,1.0,1.4,0.7,Time
,,S04,241220,1,Female,23,anonymized,Serial_Dependence_U,2023.2.3,Win32,59.88023952,,,,,,1944.3227,146.0,6.0,1944.3231,146.0,,,,1948.0683,1948.5612,1947.5521,1948.0682,1945.319,1947.5521,1948.5613,1949.061,1949.061,1952.4341,783.0,1952.4341,1.0,1952.4347,6.0,14.0,194.0,17.0,1.0,1.2,0.7,Time
,,S04,241220,1,Female,23,anonymized,Serial_Dependence_U,2023.2.3,Win32,59.88023952,,,,,,1952.4359,267.0,6.0,1952.4363,267.0,,,,1956.6153,1957.1082,1956.0988,1956.6151,1953.4332,1956.0987,1957.1082,1957.6079,1957.608,1959.3991,1033.0,1959.3992,1.0,1959.3998,6.0,15.0,195.0,14.0,1.0,1.6,0.3,Time
,,S04,241220,1,Female,23,anonymized,Serial_Dependence_U,2023.2.3,Win32,59.88023952,,,,,,1959.4002,230.0,6.0,1959.4007,230.0,,,,1963.563,1964.0557,1963.0465,1963.5628,1960.4077,1963.0464,1964.0557,1964.5557,1964.5557,1967.1625,1966.0,1967.1626,4.0,1967.1632,6.0,16.0,196.0,9.0,1.0,1.6,0.7,Time
,,S04,241220,1,Female,23,anonymized,Serial_Dependence_U,2023.2.3,Win32,59.88023952,,,,,,1967.1639,8.0,6.0,1967.1642,8.0,,,,1970.5105,1971.0033,1969.994,1970.5104,1968.1611,1969.9939,1971.0034,1971.5032,1971.5032,1974.8436,900.0,1974.8436,4.0,1974.8442,6.0,17.0,197.0,15.0,1.0,0.8,0.7,Time
,,S04,241220,1,Female,23,anonymized,Serial_Dependence_U,2023.2.3,Win32,59.88023952,,,,,,1974.8448,168.0,6.0,1974.8451,168.0,,,,1978.2243,1978.7174,1977.7079,1978.2242,1975.8396,1977.7078,1978.7174,1979.2171,1979.2173,1980.9582,867.0,1980.9583,4.0,1980.9594,6.0,18.0,198.0,20.0,1.0,0.8,0.3,Time
,,S04,241220,1,Female,23,anonymized,Serial_Dependence_U,2023.2.3,Win32,59.88023952,,,,,,1980.9599,166.0,6.0,1980.9602,166.0,,,,1985.0991,1985.5983,1984.5889,1985.099,1981.9566,1984.5888,1985.5983,1986.0981,1986.0982,1988.5562,734.0,1988.5563,1.0,1988.5568,6.0,19.0,199.0,19.0,1.0,1.6,0.7,Time
,,S04,241220,1,Female,23,anonymized,Serial_Dependence_U,2023.2.3,Win32,59.88023952,,,,,,1988.5574,192.0,6.0,1988.5578,192.0,,,,1992.1365,1992.6291,1991.6199,1992.1364,1989.5537,1991.6198,1992.6292,1993.129,1993.1291,1996.3695,567.0,1996.3696,1.0,1996.3701,6.0,20.0,200.0,21.0,1.0,1.0,0.3,Time
,,S04,241220,1,Female,23,anonymized,Serial_Dependence_U,2023.2.3,Win32,59.88023952,,,,,,1996.3707,314.0,6.0,1996.3711,314.0,,,,2000.344,2000.843,1999.8336,2000.3439,1997.3679,1999.8335,2000.843,2001.3428,2001.3428,2003.517,1399.0,2003.5171,3.0,2003.5176,6.0,21.0,201.0,13.0,1.0,1.4,0.3,Time
,,S04,241220,1,Female,23,anonymized,Serial_Dependence_U,2023.2.3,Win32,59.88023952,,,,,,2003.5182,236.0,6.0,2003.5186,236.0,,,,2007.7118,2008.207,2007.1977,2007.7117,2004.5296,2007.1976,2008.2072,2008.7069,2008.707,2012.5638,850.0,2012.5638,1.0,2012.565,6.0,22.0,202.0,24.0,1.0,1.6,0.3,Time
,,S04,241220,1,Female,23,anonymized,Serial_Dependence_U,2023.2.3,Win32,59.88023952,,,,,,2012.5655,129.0,6.0,2012.5659,129.0,,,,2015.9613,2016.4543,2015.4447,2015.9611,2013.5766,2015.4447,2016.4543,2016.954,2016.954,2020.7442,816.0,2020.7444,3.0,2020.7451,6.0,23.0,203.0,10.0,1.0,0.8,0.3,Time
,,S04,241220,1,Female,23,anonymized,Serial_Dependence_U,2023.2.3,Win32,59.88023952,,,,,,2020.7458,118.0,6.0,2020.7463,118.0,,,,2024.7252,2025.2178,2024.2087,2024.725,2021.7425,2024.2086,2025.2178,2025.7177,2025.7177,2027.6251,1150.0,2027.6252,2.0,2027.6257,6.0,24.0,204.0,3.0,1.0,1.4,0.3,Time
,,S04,241220,1,Female,23,anonymized,Serial_Dependence_U,2023.2.3,Win32,59.88023952,,,,,,2027.6262,246.0,6.0,2027.6266,246.0,,,,2031.583,2032.0822,2031.0731,2031.583,2028.6399,2031.0731,2032.0822,2032.582,2032.582,2035.6732,910.0,2035.6733,1.0,2035.6738,6.0,25.0,205.0,8.0,1.0,1.4,0.7,Time
,,S04,241220,1,Female,23,anonymized,Serial_Dependence_U,2023.2.3,Win32,59.88023952,,,,,,2035.6743,153.0,6.0,2035.6745,153.0,,,,2039.8509,2040.3459,2039.3365,2039.8507,2036.671,2039.3363,2040.346,2040.8458,2040.8459,2043.3527,1177.0,2043.3528,2.0,2043.3533,6.0,26.0,206.0,4.0,1.0,1.6,0.3,Time
,,S04,241220,1,Female,23,anonymized,Serial_Dependence_U,2023.2.3,Win32,59.88023952,,,,,,2043.3539,223.0,6.0,2043.3543,223.0,,,,2047.0941,2047.5935,2046.584,2047.0941,2044.3514,2046.5839,2047.5935,2048.0933,2048.0934,2051.7674,1550.0,2051.7674,4.0,2051.7679,6.0,27.0,207.0,27.0,1.0,1.2,0.7,Time
,,S04,241220,1,Female,23,anonymized,Serial_Dependence_U,2023.2.3,Win32,59.88023952,,,,,,2051.7685,29.0,6.0,2051.7687,29.0,,,,2055.1144,2055.6073,2054.5979,2055.1142,2052.7626,2054.5978,2055.6074,2056.1071,2056.1071,2059.497,1425.0,2059.497,5.0,2059.4975,6.0,28.0,208.0,25.0,1.0,0.8,0.7,Time
,,S04,241220,1,Female,23,anonymized,Serial_Dependence_U,2023.2.3,Win32,59.88023952,,,,,,2059.4983,58.0,6.0,2059.4988,58.0,,,,2062.8617,2063.3547,2062.3456,2062.8616,2060.5061,2062.3455,2063.3547,2063.8544,2063.8544,2065.7953,1002.0,2065.7954,4.0,2065.7958,6.0,29.0,209.0,5.0,1.0,0.8,0.7,Time
,,S04,241220,1,Female,23,anonymized,Serial_Dependence_U,2023.2.3,Win32,59.88023952,,,,,,2065.7965,246.0,7.0,2068.2864,246.0,s,2.4706,,2071.6588,2072.1516,2071.1426,2071.6587,2069.3092,2071.1425,2072.1517,2072.6514,2072.6514,2075.142,716.0,2075.1421,2.0,2075.1427,7.0,0.0,210.0,25.0,1.0,0.8,0.7,Time
,,S04,241220,1,Female,23,anonymized,Serial_Dependence_U,2023.2.3,Win32,59.88023952,,,,,,2075.1434,245.0,7.0,2075.1458,245.0,,,,2079.2892,2079.782,2078.773,2079.289,2076.1407,2078.7729,2079.7821,2080.282,2080.2821,2083.8386,1163.0,2083.8387,2.0,2083.8392,7.0,1.0,211.0,9.0,1.0,1.6,0.7,Time
,,S04,241220,1,Female,23,anonymized,Serial_Dependence_U,2023.2.3,Win32,59.88023952,,,,,,2083.8397,90.0,7.0,2083.8402,90.0,,,,2087.6197,2088.1128,2087.1034,2087.6196,2084.8372,2087.1033,2088.1128,2088.6125,2088.6126,2090.4199,866.0,2090.42,2.0,2090.4206,7.0,2.0,212.0,12.0,1.0,1.2,0.3,Time
,,S04,241220,1,Female,23,anonymized,Serial_Dependence_U,2023.2.3,Win32,59.88023952,,,,,,2090.4211,306.0,7.0,2090.4214,306.0,,,,2094.3675,2094.8603,2093.8511,2094.3673,2091.4181,2093.851,2094.8603,2095.36,2095.3601,2098.2007,1716.0,2098.2008,4.0,2098.2013,7.0,3.0,213.0,8.0,1.0,1.4,0.7,Time
,,S04,241220,1,Female,23,anonymized,Serial_Dependence_U,2023.2.3,Win32,59.88023952,,,,,,2098.2021,218.0,7.0,2098.2025,218.0,,,,2101.7648,2102.2577,2101.2483,2101.7647,2099.2154,2101.2481,2102.2577,2102.7576,2102.7576,2106.0308,1118.0,2106.0309,4.0,2106.0314,7.0,4.0,214.0,16.0,1.0,1.0,0.7,Time
,,S04,241220,1,Female,23,anonymized,Serial_Dependence_U,2023.2.3,Win32,59.88023952,,,,,,2106.032,103.0,7.0,2106.0325,103.0,,,,2109.5788,2110.0717,2109.0623,2109.5787,2107.0274,2109.0622,2110.0717,2110.5717,2110.5717,2113.9621,1183.0,2113.9622,4.0,2113.9628,7.0,5.0,215.0,26.0,1.0,1.0,0.7,Time
,,S04,241220,1,Female,23,anonymized,Serial_Dependence_U,2023.2.3,Win32,59.88023952,,,,,,2113.9633,160.0,7.0,2113.9636,160.0,,,,2118.1028,2118.6021,2117.5929,2118.1027,2114.96,2117.5928,2118.6021,2119.102,2119.1021,2121.3103,1167.0,2121.3105,2.0,2121.3111,7.0,6.0,216.0,29.0,1.0,1.6,0.7,Time
,,S04,241220,1,Female,23,anonymized,Serial_Dependence_U,2023.2.3,Win32,59.88023952,,,,,,2121.3116,204.0,7.0,2121.312,204.0,,,,2125.3003,2125.7996,2124.7907,2125.3002,2122.3243,2124.7906,2125.7996,2126.2994,2126.2995,2127.6566,800.0,2127.6567,1.0,2127.6573,7.0,7.0,217.0,23.0,1.0,1.4,0.3,Time
,,S04,241220,1,Female,23,anonymized,Serial_Dependence_U,2023.2.3,Win32,59.88023952,,,,,,2127.6579,59.0,7.0,2127.6583,59.0,,,,2131.6018,2132.0974,2131.0887,2131.6017,2128.6554,2131.0885,2132.0974,2132.5971,2132.5972,2134.2378,517.0,2134.2378,1.0,2134.2383,7.0,8.0,218.0,18.0,1.0,1.4,0.7,Time
,,S04,241220,1,Female,23,anonymized,Serial_Dependence_U,2023.2.3,Win32,59.88023952,,,,,,2134.2388,189.0,7.0,2134.2391,189.0,,,,2137.9854,2138.4785,2137.4693,2137.9854,2135.2365,2137.4692,2138.4786,2138.9783,2138.9784,2142.1533,967.0,2142.1533,2.0,2142.1537,7.0,9.0,219.0,7.0,1.0,1.2,0.7,Time
,,S04,241220,1,Female,23,anonymized,Serial_Dependence_U,2023.2.3,Win32,59.88023952,,,,,,2142.1541,152.0,7.0,2142.1544,152.0,,,,2146.143,2146.6422,2145.633,2146.1429,2143.167,2145.633,2146.6423,2147.142,2147.142,2149.4839,1618.0,2149.484,4.0,2149.4844,7.0,10.0,220.0,3.0,1.0,1.4,0.3,Time
,,S04,241220,1,Female,23,anonymized,Serial_Dependence_U,2023.2.3,Win32,59.88023952,,,,,,2149.4848,82.0,7.0,2149.4851,82.0,,,,2153.2239,2153.7231,2152.7141,2153.2238,2150.4812,2152.714,2153.7231,2154.2231,2154.2231,2156.2304,795.0,2156.2305,1.0,2156.2309,7.0,11.0,221.0,27.0,1.0,1.2,0.7,Time
,,S04,241220,1,Female,23,anonymized,Serial_Dependence_U,2023.2.3,Win32,59.88023952,,,,,,2156.2315,31.0,7.0,2156.2318,31.0,,,,2160.0091,2160.504,2159.495,2160.009,2157.2288,2159.4949,2160.504,2161.0039,2161.004,2165.0273,619.0,2165.0274,1.0,2165.0279,7.0,12.0,222.0,2.0,1.0,1.2,0.3,Time
,,S04,241220,1,Female,23,anonymized,Serial_Dependence_U,2023.2.3,Win32,59.88023952,,,,,,2165.0285,5.0,7.0,2165.0289,5.0,,,,2168.8249,2169.3179,2168.3086,2168.8249,2166.0401,2168.3085,2169.318,2169.8175,2169.8177,2171.3252,750.0,2171.3252,1.0,2171.3259,7.0,13.0,223.0,22.0,1.0,1.2,0.3,Time
,,S04,241220,1,Female,23,anonymized,Serial_Dependence_U,2023.2.3,Win32,59.88023952,,,,,,2171.3264,349.0,7.0,2171.3269,349.0,,,,2175.4996,2175.9987,2174.9896,2175.4995,2172.3236,2174.9895,2175.9988,2176.4986,2176.4986,2179.6888,883.0,2179.6888,1.0,2179.6895,7.0,14.0,224.0,24.0,1.0,1.6,0.3,Time
,,S04,241220,1,Female,23,anonymized,Serial_Dependence_U,2023.2.3,Win32,59.88023952,,,,,,2179.6901,134.0,7.0,2179.6904,134.0,,,,2183.2696,2183.7626,2182.7538,2183.2695,2180.6873,2182.7538,2183.7627,2184.2626,2184.2626,2185.954,634.0,2185.9541,1.0,2185.9546,7.0,15.0,225.0,21.0,1.0,1.0,0.3,Time
,,S04,241220,1,Female,23,anonymized,Serial_Dependence_U,2023.2.3,Win32,59.88023952,,,,,,2185.955,150.0,7.0,2185.9553,150.0,,,,2189.4948,2189.9939,2188.9845,2189.4947,2186.9517,2188.9844,2189.9939,2190.4937,2190.4937,2193.3672,890.0,2193.3673,2.0,2193.3678,7.0,16.0,226.0,6.0,1.0,1.0,0.7,Time
,,S04,241220,1,Female,23,anonymized,Serial_Dependence_U,2023.2.3,Win32,59.88023952,,,,,,2193.3684,137.0,7.0,2193.3688,137.0,,,,2196.7485,2197.2414,2196.2321,2196.7483,2194.3658,2196.232,2197.2414,2197.7412,2197.7412,2201.5313,933.0,2201.5313,4.0,2201.5319,7.0,17.0,227.0,10.0,1.0,0.8,0.3,Time
,,S04,241220,1,Female,23,anonymized,Serial_Dependence_U,2023.2.3,Win32,59.88023952,,,,,,2201.5324,107.0,7.0,2201.533,107.0,,,,2204.8765,2205.372,2204.363,2204.8764,2202.5297,2204.3629,2205.3721,2205.8717,2205.8717,2209.7114,933.0,2209.7115,4.0,2209.712,7.0,18.0,228.0,15.0,1.0,0.8,0.7,Time
,,S04,241220,1,Female,23,anonymized,Serial_Dependence_U,2023.2.3,Win32,59.88023952,,,,,,2209.7125,305.0,7.0,2209.713,305.0,,,,2213.6927,2214.1854,2213.1758,2213.6926,2210.7103,2213.1757,2214.1855,2214.6903,2214.6904,2216.626,1116.0,2216.6261,2.0,2216.6267,7.0,19.0,229.0,13.0,1.0,1.4,0.3,Time
,,S04,241220,1,Female,23,anonymized,Serial_Dependence_U,2023.2.3,Win32,59.88023952,,,,,,2216.6272,357.0,7.0,2216.6275,357.0,,,,2220.5878,2221.083,2220.0737,2220.5877,2217.6412,2220.0736,2221.083,2221.583,2221.583,2224.6728,816.0,2224.6728,1.0,2224.6734,7.0,20.0,230.0,28.0,1.0,1.4,0.7,Time
,,S04,241220,1,Female,23,anonymized,Serial_Dependence_U,2023.2.3,Win32,59.88023952,,,,,,2224.674,99.0,7.0,2224.6744,99.0,,,,2228.253,2228.7471,2227.738,2228.253,2225.672,2227.7379,2228.7472,2229.2469,2229.247,2231.5218,1134.0,2231.5219,4.0,2231.5224,7.0,21.0,231.0,11.0,1.0,1.0,0.3,Time
,,S04,241220,1,Female,23,anonymized,Serial_Dependence_U,2023.2.3,Win32,59.88023952,,,,,,2231.5228,272.0,7.0,2231.5231,272.0,,,,2234.8685,2235.3613,2234.3525,2234.8685,2232.5192,2234.3524,2235.3614,2235.8613,2235.8614,2237.5032,975.0,2237.5032,4.0,2237.5036,7.0,22.0,232.0,5.0,1.0,0.8,0.7,Time
,,S04,241220,1,Female,23,anonymized,Serial_Dependence_U,2023.2.3,Win32,59.88023952,,,,,,2237.5042,144.0,7.0,2237.5045,144.0,,,,2241.2496,2241.7426,2240.7333,2241.2495,2238.4983,2240.7332,2241.7426,2242.2424,2242.2425,2245.666,1490.0,2245.6661,4.0,2245.6666,7.0,23.0,233.0,17.0,1.0,1.2,0.7,Time
,,S04,241220,1,Female,23,anonymized,Serial_Dependence_U,2023.2.3,Win32,59.88023952,,,,,,2245.6671,140.0,7.0,2245.6673,140.0,,,,2249.0638,2249.5566,2248.5473,2249.0637,2246.6747,2248.5472,2249.5566,2250.0564,2250.0564,2251.714,683.0,2251.714,2.0,2251.7146,7.0,24.0,234.0,20.0,1.0,0.8,0.3,Time
,,S04,241220,1,Female,23,anonymized,Serial_Dependence_U,2023.2.3,Win32,59.88023952,,,,,,2251.7158,93.0,7.0,2251.7161,93.0,,,,2255.1115,2255.6043,2254.5954,2255.1114,2252.7289,2254.5953,2255.6044,2256.1042,2256.1042,2258.8283,800.0,2258.8283,3.0,2258.8289,7.0,25.0,235.0,0.0,1.0,0.8,0.3,Time
,,S04,241220,1,Female,23,anonymized,Serial_Dependence_U,2023.2.3,Win32,59.88023952,,,,,,2258.8295,326.0,7.0,2258.8299,326.0,,,,2262.9755,2263.4684,2262.4593,2262.9755,2259.8264,2262.4592,2263.4684,2263.9681,2263.9681,2267.6581,1483.0,2267.6581,2.0,2267.6587,7.0,26.0,236.0,19.0,1.0,1.6,0.7,Time
,,S04,241220,1,Female,23,anonymized,Serial_Dependence_U,2023.2.3,Win32,59.88023952,,,,,,2267.6594,71.0,7.0,2267.6597,71.0,,,,2271.8531,2272.3485,2271.3393,2271.853,2268.6735,2271.3391,2272.3485,2272.8484,2272.8485,2276.3889,2066.0,2276.389,4.0,2276.3897,7.0,27.0,237.0,4.0,1.0,1.6,0.3,Time
,,S04,241220,1,Female,23,anonymized,Serial_Dependence_U,2023.2.3,Win32,59.88023952,,,,,,2276.3902,186.0,7.0,2276.3905,186.0,,,,2280.5858,2281.0789,2280.0699,2280.5857,2277.4035,2280.0696,2281.0789,2281.579,2281.579,2286.2019,983.0,2286.202,1.0,2286.2027,7.0,28.0,238.0,14.0,1.0,1.6,0.3,Time
,,S04,241220,1,Female,23,anonymized,Serial_Dependence_U,2023.2.3,Win32,59.88023952,,,,,,2286.2033,212.0,7.0,2286.2039,212.0,,,,2289.7969,2290.2923,2289.2828,2289.7968,2287.2169,2289.2826,2290.2923,2290.7922,2290.7923,2292.1331,133.0,2292.1332,1.0,2292.1337,7.0,29.0,239.0,1.0,1.0,1.0,0.3,Time
,,S04,241220,1,Female,23,anonymized,Serial_Dependence_U,2023.2.3,Win32,59.88023952,,,,,,2292.1346,281.0,8.0,2295.3075,281.0,s,3.1487,,2299.0631,2299.5557,2298.5463,2299.063,2296.3136,2298.5462,2299.5557,2300.0555,2300.0556,2302.2624,675.0,2302.2624,1.0,2302.2628,8.0,0.0,240.0,27.0,1.0,1.2,0.7,Time
,,S04,241220,1,Female,23,anonymized,Serial_Dependence_U,2023.2.3,Win32,59.88023952,,,,,,2302.2633,103.0,8.0,2302.2652,103.0,,,,2306.2434,2306.7366,2305.7271,2306.2433,2303.2616,2305.727,2306.7366,2307.2364,2307.2364,2309.0775,783.0,2309.0776,1.0,2309.078,8.0,1.0,241.0,23.0,1.0,1.4,0.3,Time
,,S04,241220,1,Female,23,anonymized,Serial_Dependence_U,2023.2.3,Win32,59.88023952,,,,,,2309.0784,127.0,8.0,2309.0789,127.0,,,,2313.0414,2313.5341,2312.5254,2313.0413,2310.0922,2312.5253,2313.5341,2314.0226,2314.0226,2316.0085,1017.0,2316.0086,2.0,2316.0092,8.0,2.0,242.0,28.0,1.0,1.4,0.7,Time
,,S04,241220,1,Female,23,anonymized,Serial_Dependence_U,2023.2.3,Win32,59.88023952,,,,,,2316.0098,317.0,8.0,2316.0104,317.0,,,,2319.9497,2320.4485,2319.4391,2319.9496,2317.0059,2319.4389,2320.4485,2320.9483,2320.9483,2322.9225,900.0,2322.9225,1.0,2322.923,8.0,3.0,243.0,8.0,1.0,1.4,0.7,Time
,,S04,241220,1,Female,23,anonymized,Serial_Dependence_U,2023.2.3,Win32,59.88023952,,,,,,2322.9235,95.0,8.0,2322.9238,95.0,,,,2327.0864,2327.5793,2326.5702,2327.0864,2323.9349,2326.57,2327.5794,2328.0792,2328.0793,2329.7033,740.0,2329.7033,1.0,2329.7038,8.0,4.0,244.0,19.0,1.0,1.6,0.7,Time
,,S04,241220,1,Female,23,anonymized,Serial_Dependence_U,2023.2.3,Win32,59.88023952,,,,,,2329.7044,224.0,8.0,2329.7048,224.0,,,,2333.1014,2333.5939,2332.5844,2333.1014,2330.7182,2332.5843,2333.594,2334.0938,2334.0938,2337.5326,514.0,2337.5326,1.0,2337.5332,8.0,5.0,245.0,20.0,1.0,0.8,0.3,Time
,,S04,241220,1,Female,23,anonymized,Serial_Dependence_U,2023.2.3,Win32,59.88023952,,,,,,2337.5336,302.0,8.0,2337.534,302.0,,,,2341.0984,2341.5912,2340.5818,2341.0984,2338.5492,2340.5817,2341.5913,2342.091,2342.091,2343.4995,818.0,2343.4996,2.0,2343.5,8.0,6.0,246.0,16.0,1.0,1.0,0.7,Time
,,S04,241220,1,Female,23,anonymized,Serial_Dependence_U,2023.2.3,Win32,59.88023952,,,,,,2343.5005,336.0,8.0,2343.5008,336.0,,,,2347.296,2347.789,2346.7795,2347.296,2344.5073,2346.7794,2347.789,2348.2889,2348.2889,2351.0123,192.0,2351.0124,1.0,2351.013,8.0,7.0,247.0,2.0,1.0,1.2,0.3,Time
,,S04,241220,1,Female,23,anonymized,Serial_Dependence_U,2023.2.3,Win32,59.88023952,,,,,,2351.0139,268.0,8.0,2351.0143,268.0,,,,2354.6102,2355.103,2354.0942,2354.6102,2352.0212,2354.0941,2355.1031,2355.6029,2355.603,2357.1118,685.0,2357.1118,1.0,2357.1124,8.0,8.0,248.0,1.0,1.0,1.0,0.3,Time
,,S04,241220,1,Female,23,anonymized,Serial_Dependence_U,2023.2.3,Win32,59.88023952,,,,,,2357.1129,65.0,8.0,2357.1133,65.0,,,,2360.4912,2360.9844,2359.9751,2360.4911,2358.1084,2359.975,2360.9844,2361.4842,2361.4842,2364.8079,278.0,2364.8081,1.0,2364.8085,8.0,9.0,249.0,0.0,1.0,0.8,0.3,Time
,,S04,241220,1,Female,23,anonymized,Serial_Dependence_U,2023.2.3,Win32,59.88023952,,,,,,2364.8093,110.0,8.0,2364.8098,110.0,,,,2368.4054,2368.8982,2367.8897,2368.4053,2365.8231,2367.8896,2368.8983,2369.3981,2369.3981,2370.2388,183.0,2370.239,1.0,2370.2396,8.0,10.0,250.0,21.0,1.0,1.0,0.3,Time
,,S04,241220,1,Female,23,anonymized,Serial_Dependence_U,2023.2.3,Win32,59.88023952,,,,,,2370.2403,139.0,8.0,2370.2409,139.0,,,,2374.42,2374.9128,2373.9038,2374.4199,2371.2354,2373.9037,2374.9129,2375.4128,2375.4129,2380.7356,833.0,2380.7357,1.0,2380.7361,8.0,11.0,251.0,14.0,1.0,1.6,0.3,Time
,,S04,241220,1,Female,23,anonymized,Serial_Dependence_U,2023.2.3,Win32,59.88023952,,,,,,2380.7368,110.0,8.0,2380.7374,110.0,,,,2384.9165,2385.4093,2384.4,2384.9164,2381.7318,2384.4,2385.4093,2385.909,2385.9091,2387.4423,977.0,2387.4424,1.0,2387.443,8.0,12.0,252.0,4.0,1.0,1.6,0.3,Time
,,S04,241220,1,Female,23,anonymized,Serial_Dependence_U,2023.2.3,Win32,59.88023952,,,,,,2387.4438,217.0,8.0,2387.4442,217.0,,,,2391.4415,2391.9403,2390.925,2391.4414,2388.4587,2390.9248,2391.9403,2392.4403,2392.4404,2395.7561,1317.0,2395.7561,2.0,2395.7567,8.0,13.0,253.0,3.0,1.0,1.4,0.3,Time
,,S04,241220,1,Female,23,anonymized,Serial_Dependence_U,2023.2.3,Win32,59.88023952,,,,,,2395.7571,202.0,8.0,2395.7575,202.0,,,,2399.5216,2400.0207,2399.0052,2399.5215,2396.7728,2399.005,2400.0208,2400.5206,2400.5206,2402.6204,1189.0,2402.6204,3.0,2402.6209,8.0,14.0,254.0,7.0,1.0,1.2,0.7,Time
,,S04,241220,1,Female,23,anonymized,Serial_Dependence_U,2023.2.3,Win32,59.88023952,,,,,,2402.6215,31.0,8.0,2402.6219,31.0,,,,2406.1859,2406.6852,2405.6696,2406.1858,2403.6367,2405.6695,2406.6852,2407.185,2407.1851,2409.0684,1234.0,2409.0684,4.0,2409.0692,8.0,15.0,255.0,26.0,1.0,1.0,0.7,Time
,,S04,241220,1,Female,23,anonymized,Serial_Dependence_U,2023.2.3,Win32,59.88023952,,,,,,2409.0697,142.0,8.0,2409.0705,142.0,,,,2412.4337,2412.933,2411.9174,2412.4336,2410.0846,2411.9173,2412.933,2413.4329,2413.4329,2417.082,800.0,2417.0821,3.0,2417.0828,8.0,16.0,256.0,15.0,1.0,0.8,0.7,Time
,,S04,241220,1,Female,23,anonymized,Serial_Dependence_U,2023.2.3,Win32,59.88023952,,,,,,2417.0832,338.0,8.0,2417.0836,338.0,,,,2421.2473,2421.7466,2420.7309,2421.2472,2418.0987,2420.7308,2421.7467,2422.2464,2422.2464,2425.8125,1383.0,2425.8126,2.0,2425.8131,8.0,17.0,257.0,9.0,1.0,1.6,0.7,Time
,,S04,241220,1,Female,23,anonymized,Serial_Dependence_U,2023.2.3,Win32,59.88023952,,,,,,2425.8136,92.0,8.0,2425.8141,92.0,,,,2429.378,2429.8773,2428.8615,2429.3779,2426.8289,2428.8614,2429.8773,2430.3769,2430.3769,2434.026,1568.0,2434.0261,5.0,2434.0266,8.0,18.0,258.0,6.0,1.0,1.0,0.7,Time
,,S04,241220,1,Female,23,anonymized,Serial_Dependence_U,2023.2.3,Win32,59.88023952,,,,,,2434.0272,71.0,8.0,2434.0277,71.0,,,,2437.3918,2437.8911,2436.8754,2437.3917,2435.043,2436.8753,2437.8911,2438.3908,2438.3909,2444.4225,917.0,2444.4226,4.0,2444.423,8.0,19.0,259.0,5.0,1.0,0.8,0.7,Time
,,S04,241220,1,Female,23,anonymized,Serial_Dependence_U,2023.2.3,Win32,59.88023952,,,,,,2444.4235,69.0,8.0,2444.4239,69.0,,,,2447.8215,2448.3208,2447.3051,2447.8214,2445.4392,2447.3049,2448.3209,2448.8206,2448.8207,2450.6204,403.0,2450.6206,1.0,2450.6215,8.0,20.0,260.0,10.0,1.0,0.8,0.3,Time
,,S04,241220,1,Female,23,anonymized,Serial_Dependence_U,2023.2.3,Win32,59.88023952,,,,,,2450.6221,332.0,8.0,2450.6227,332.0,,,,2454.8193,2455.3183,2454.3027,2454.8192,2451.6369,2454.3025,2455.3184,2455.8182,2455.8182,2458.5343,1257.0,2458.5344,2.0,2458.535,8.0,21.0,261.0,24.0,1.0,1.6,0.3,Time
,,S04,241220,1,Female,23,anonymized,Serial_Dependence_U,2023.2.3,Win32,59.88023952,,,,,,2458.5355,248.0,8.0,2458.5359,248.0,,,,2462.2996,2462.7991,2461.7834,2462.2996,2459.5507,2461.7833,2462.7991,2463.2989,2463.2989,2466.3316,993.0,2466.3317,2.0,2466.3323,8.0,22.0,262.0,17.0,1.0,1.2,0.7,Time
,,S04,241220,1,Female,23,anonymized,Serial_Dependence_U,2023.2.3,Win32,59.88023952,,,,,,2466.3328,94.0,8.0,2466.3331,94.0,,,,2470.1304,2470.6297,2469.6139,2470.1303,2467.3483,2469.6138,2470.6298,2471.1294,2471.1295,2472.9294,844.0,2472.9294,2.0,2472.9299,8.0,23.0,263.0,12.0,1.0,1.2,0.3,Time
,,S04,241220,1,Female,23,anonymized,Serial_Dependence_U,2023.2.3,Win32,59.88023952,,,,,,2472.9306,4.0,8.0,2472.9311,4.0,,,,2476.9281,2477.4272,2476.4115,2476.928,2473.9456,2476.4114,2477.4273,2477.9272,2477.9272,2480.1774,1333.0,2480.1774,3.0,2480.1778,8.0,24.0,264.0,13.0,1.0,1.4,0.3,Time
,,S04,241220,1,Female,23,anonymized,Serial_Dependence_U,2023.2.3,Win32,59.88023952,,,,,,2480.1782,115.0,8.0,2480.1785,115.0,,,,2484.3422,2484.8412,2483.8257,2484.3421,2481.1936,2483.8256,2484.8412,2485.3413,2485.3414,2488.5407,1379.0,2488.5408,2.0,2488.5412,8.0,25.0,265.0,29.0,1.0,1.6,0.7,Time
,,S04,241220,1,Female,23,anonymized,Serial_Dependence_U,2023.2.3,Win32,59.88023952,,,,,,2488.5416,121.0,8.0,2488.5419,121.0,,,,2491.9063,2492.4053,2491.3897,2491.9063,2489.5568,2491.3896,2492.4053,2492.9057,2492.9057,2495.3722,1474.0,2495.3722,5.0,2495.3726,8.0,26.0,266.0,25.0,1.0,0.8,0.7,Time
,,S04,241220,1,Female,23,anonymized,Serial_Dependence_U,2023.2.3,Win32,59.88023952,,,,,,2495.3731,135.0,8.0,2495.3734,135.0,,,,2499.3369,2499.836,2498.8205,2499.3368,2496.3882,2498.8204,2499.8361,2500.336,2500.3361,2502.9189,1863.0,2502.9191,5.0,2502.9196,8.0,27.0,267.0,18.0,1.0,1.4,0.7,Time
,,S04,241220,1,Female,23,anonymized,Serial_Dependence_U,2023.2.3,Win32,59.88023952,,,,,,2502.9203,81.0,8.0,2502.9206,81.0,,,,2506.7177,2507.2168,2506.2012,2506.7176,2503.9356,2506.2011,2507.2169,2507.7169,2507.7169,2510.033,1067.0,2510.0331,2.0,2510.0338,8.0,28.0,268.0,22.0,1.0,1.2,0.3,Time
,,S04,241220,1,Female,23,anonymized,Serial_Dependence_U,2023.2.3,Win32,59.88023952,,,,,,2510.0344,104.0,8.0,2510.0348,104.0,,,,2513.632,2514.1312,2513.1156,2513.6318,2511.0497,2513.1153,2514.1312,2514.6311,2514.6311,2518.1634,933.0,2518.1635,2.0,2518.164,8.0,29.0,269.0,11.0,1.0,1.0,0.3,Time
