Scale_setup.started,Scale_setup.stopped,participant,session,sex,age,date,expName,psychopyVersion,OS,frameRate,screen_scale_keys.started,screen_scale_keys.stopped,X Scale,Y Scale,rectangel_keys.started,rectangel_keys.stopped,Intro.started,Intro.stopped,key_resp_2.keys,key_resp_2.rt,key_resp_2.duration,block.started,Block_id,block.stopped,Block_resp_2.keys,Block_resp_2.rt,Block_resp_2.duration,ITI.started,ITI.stopped,Mask_2.started,Mask_2.stopped,M2.started,direction,M2.stopped,Cue.started,Cue.stopped,Response.started,Response.stopped,keyDuration,Feedback_Time.started,FeedbackID_T,Feedback_Time.stopped,trials.thisRepN,trials.thisTrialN,trials.thisN,trials.thisIndex,trials.ran,TimeDur,Coherence1,TrialType
0.0006,0.0017,S04,1,Female,34,anonymized,Serial_Dependence_U,2023.2.3,Win32,59.52380952,,,,,,,,,,,,,,,,,,,,,,,,,,,,,,,,,,,,,,,,
,,S04,1,Female,34,anonymized,Serial_Dependence_U,2023.2.3,Win32,59.52380952,0.014,3.0241,0.05,0.05,3.0251,7.1407,7.1419,19.0231,space,11.7989,,,,,,,,,,,,,,,,,,,,,,,,,,,,,,
,,S04,1,Female,34,anonymized,Serial_Dependence_U,2023.2.3,Win32,59.52380952,,,,,,,,,,,,19.0608,0.0,21.1056,s,1.9675,,23.4466,23.9389,22.9408,23.4463,22.1259,200.0,22.9406,23.9395,24.4391,24.4401,24.5898,115.2,24.5911,1.0,25.5891,0.0,0.0,0.0,5.0,1.0,0.8,0.7,Time
,,S04,1,Female,34,anonymized,Serial_Dependence_U,2023.2.3,Win32,59.52380952,,,,,,,,,,,,25.5919,0.0,25.6014,,,,28.1556,28.6564,27.6402,28.1554,26.623,165.0,27.64,28.6564,29.1552,29.1553,35.1781,9999.0,35.1787,0.0,36.1713,0.0,1.0,1.0,6.0,1.0,1.0,0.7,Time
,,S04,1,Female,34,anonymized,Serial_Dependence_U,2023.2.3,Win32,59.52380952,,,,,,,,,,,,36.1723,0.0,36.1735,,,,38.4954,38.9938,37.9918,38.4952,37.1778,2.0,37.9904,38.9939,39.494,39.4941,43.8379,183.5,43.8388,1.0,44.8378,0.0,2.0,2.0,0.0,1.0,0.8,0.3,Time
,,S04,1,Female,34,anonymized,Serial_Dependence_U,2023.2.3,Win32,59.52380952,,,,,,,,,,,,44.8401,0.0,44.8415,,,,47.9778,48.4757,47.461,47.9777,45.8465,172.0,47.4609,48.4758,48.9758,48.9759,54.9938,9999.0,54.9943,0.0,55.9927,0.0,3.0,3.0,4.0,1.0,1.6,0.3,Time
,,S04,1,Female,34,anonymized,Serial_Dependence_U,2023.2.3,Win32,59.52380952,,,,,,,,,,,,55.9946,0.0,55.9958,,,,58.726,59.225,58.2111,58.7258,57.0053,237.0,58.2108,59.2251,59.7202,59.7203,60.8602,717.0,60.8607,1.0,61.8542,0.0,4.0,4.0,12.0,1.0,1.2,0.3,Time
,,S04,1,Female,34,anonymized,Serial_Dependence_U,2023.2.3,Win32,59.52380952,,,,,,,,,,,,61.8562,0.0,61.8576,,,,64.9889,65.4863,64.4773,64.9887,62.8719,129.0,64.4771,65.4864,65.9871,65.9872,67.2556,1017.7,67.2571,1.0,68.2534,0.0,5.0,5.0,14.0,1.0,1.6,0.3,Time
,,S04,1,Female,34,anonymized,Serial_Dependence_U,2023.2.3,Win32,59.52380952,,,,,,,,,,,,68.2552,0.0,68.2565,,,,71.2041,71.703,70.6873,71.204,69.2708,152.0,70.6871,71.7031,72.2036,72.2037,75.0372,2037.5,75.0381,5.0,76.0371,0.0,6.0,6.0,13.0,1.0,1.4,0.3,Time
,,S04,1,Female,34,anonymized,Serial_Dependence_U,2023.2.3,Win32,59.52380952,,,,,,,,,,,,76.04,0.0,76.0415,,,,78.3775,78.8695,77.8571,78.3773,77.0423,185.0,77.8568,78.8695,79.3693,79.3694,81.5423,215.0,81.5434,1.0,82.5358,0.0,7.0,7.0,10.0,1.0,0.8,0.3,Time
,,S04,1,Female,34,anonymized,Serial_Dependence_U,2023.2.3,Win32,59.52380952,,,,,,,,,,,,82.5403,0.0,82.5418,,,,85.4764,85.9746,84.9595,85.4762,83.5442,291.0,84.9594,85.9748,86.4695,86.47,90.286,182.5,90.2874,1.0,91.2903,0.0,8.0,8.0,3.0,1.0,1.4,0.3,Time
,,S04,1,Female,34,anonymized,Serial_Dependence_U,2023.2.3,Win32,59.52380952,,,,,,,,,,,,91.2913,0.0,91.2918,,,,93.6085,94.1024,93.1038,93.6084,92.2916,149.0,93.1033,94.1025,94.602,94.6022,97.4916,115.7,97.4934,1.0,98.4853,0.0,9.0,9.0,15.0,1.0,0.8,0.7,Time
,,S04,1,Female,34,anonymized,Serial_Dependence_U,2023.2.3,Win32,59.52380952,,,,,,,,,,,,98.4878,0.0,98.4889,,,,101.226,101.7185,100.709,101.2258,99.5035,301.0,100.7089,101.7187,102.2072,102.2074,104.436,177.8,104.4372,1.0,105.4398,0.0,10.0,10.0,22.0,1.0,1.2,0.3,Time
,,S04,1,Female,34,anonymized,Serial_Dependence_U,2023.2.3,Win32,59.52380952,,,,,,,,,,,,105.4411,0.0,105.4417,,,,108.3909,108.885,107.8746,108.3907,106.4577,2.0,107.8745,108.8851,109.3741,109.3742,115.393,9999.0,115.3938,0.0,116.3844,0.0,11.0,11.0,28.0,1.0,1.4,0.7,Time
,,S04,1,Female,34,anonymized,Serial_Dependence_U,2023.2.3,Win32,59.52380952,,,,,,,,,,,,116.3864,0.0,116.388,,,,119.5417,120.0351,119.0261,119.5415,117.4082,304.0,119.0259,120.0351,120.5227,120.5228,123.5408,160.0,123.5413,1.0,124.5373,0.0,12.0,12.0,9.0,1.0,1.6,0.7,Time
,,S04,1,Female,34,anonymized,Serial_Dependence_U,2023.2.3,Win32,59.52380952,,,,,,,,,,,,124.5382,0.0,124.5388,,,,127.2679,127.767,126.7516,127.2677,125.5392,141.0,126.7513,127.7671,128.2559,128.256,134.2745,9999.0,134.275,0.0,135.2726,0.0,13.0,13.0,2.0,1.0,1.2,0.3,Time
,,S04,1,Female,34,anonymized,Serial_Dependence_U,2023.2.3,Win32,59.52380952,,,,,,,,,,,,135.2745,0.0,135.2756,,,,138.0178,138.5168,137.501,138.0177,136.284,158.0,137.5008,138.5168,139.0166,139.0167,139.4251,116.3,139.4258,1.0,140.4203,0.0,14.0,14.0,7.0,1.0,1.2,0.7,Time
,,S04,1,Female,34,anonymized,Serial_Dependence_U,2023.2.3,Win32,59.52380952,,,,,,,,,,,,140.4224,0.0,140.4234,,,,143.5674,144.0668,143.051,143.5672,141.4337,15.0,143.0508,144.0669,144.5668,144.567,150.5847,9999.0,150.5862,0.0,151.5832,0.0,15.0,15.0,24.0,1.0,1.6,0.3,Time
,,S04,1,Female,34,anonymized,Serial_Dependence_U,2023.2.3,Win32,59.52380952,,,,,,,,,,,,151.5852,0.0,151.5864,,,,154.1167,154.6163,153.6036,154.1164,152.6005,139.0,153.6034,154.6164,155.1164,155.1165,156.2834,131.0,156.2845,1.0,157.2883,0.0,16.0,16.0,1.0,1.0,1.0,0.3,Time
,,S04,1,Female,34,anonymized,Serial_Dependence_U,2023.2.3,Win32,59.52380952,,,,,,,,,,,,157.2907,0.0,157.2919,,,,159.8175,160.3156,159.3057,159.8174,158.2892,198.0,159.3054,160.3156,160.8212,160.8213,161.583,127.2,161.5835,1.0,162.5818,0.0,17.0,17.0,26.0,1.0,1.0,0.7,Time
,,S04,1,Female,34,anonymized,Serial_Dependence_U,2023.2.3,Win32,59.52380952,,,,,,,,,,,,162.5833,0.0,162.5842,,,,165.7334,166.2321,165.2177,165.7332,163.5996,104.0,165.2174,166.2322,166.7322,166.7324,167.3367,162.1,167.3382,1.0,168.3315,0.0,18.0,18.0,29.0,1.0,1.6,0.7,Time
,,S04,1,Female,34,anonymized,Serial_Dependence_U,2023.2.3,Win32,59.52380952,,,,,,,,,,,,168.3326,0.0,168.3336,,,,171.268,171.7656,170.7504,171.2677,169.3359,18.0,170.7501,171.7657,172.2657,172.2657,175.232,1952.2,175.2331,5.0,176.2318,0.0,19.0,19.0,18.0,1.0,1.4,0.7,Time
,,S04,1,Female,34,anonymized,Serial_Dependence_U,2023.2.3,Win32,59.52380952,,,,,,,,,,,,176.2336,0.0,176.2356,,,,179.1831,179.6819,178.6736,179.1828,177.2561,257.0,178.6734,179.682,180.1707,180.1708,181.1983,153.5,181.199,1.0,182.201,0.0,20.0,20.0,8.0,1.0,1.4,0.7,Time
,,S04,1,Female,34,anonymized,Serial_Dependence_U,2023.2.3,Win32,59.52380952,,,,,,,,,,,,182.2033,0.0,182.2047,,,,184.9484,185.4474,184.4379,184.9483,183.2211,16.0,184.4378,185.4474,185.9479,185.9479,186.1149,82.29999995,186.1159,1.0,187.1149,0.0,21.0,21.0,17.0,1.0,1.2,0.7,Time
,,S04,1,Female,34,anonymized,Serial_Dependence_U,2023.2.3,Win32,59.52380952,,,,,,,,,,,,187.1169,0.0,187.118,,,,189.6621,190.1642,189.15,189.6618,188.1333,19.0,189.1497,190.1643,190.6648,190.6649,196.6702,9999.0,196.6709,0.0,197.6651,0.0,22.0,22.0,21.0,1.0,1.0,0.3,Time
,,S04,1,Female,34,anonymized,Serial_Dependence_U,2023.2.3,Win32,59.52380952,,,,,,,,,,,,197.6668,0.0,197.6681,,,,200.7198,201.2184,200.2112,200.7197,198.6843,293.0,200.211,201.2185,201.7185,201.7187,206.3551,1801.7,206.3556,5.0,207.3499,0.0,23.0,23.0,27.0,1.0,1.2,0.7,Time
,,S04,1,Female,34,anonymized,Serial_Dependence_U,2023.2.3,Win32,59.52380952,,,,,,,,,,,,207.3512,0.0,207.3519,,,,209.6983,210.1994,209.1874,209.6982,208.3688,254.0,209.1873,210.1994,210.6976,210.698,216.7191,9999.0,216.7197,0.0,217.7157,0.0,24.0,24.0,20.0,1.0,0.8,0.3,Time
,,S04,1,Female,34,anonymized,Serial_Dependence_U,2023.2.3,Win32,59.52380952,,,,,,,,,,,,217.7168,0.0,217.7176,,,,220.8531,221.3521,220.3363,220.8529,218.7192,84.0,220.3361,221.3521,221.8508,221.8509,222.2212,336.1,222.2219,1.0,223.213,0.0,25.0,25.0,19.0,1.0,1.6,0.7,Time
,,S04,1,Female,34,anonymized,Serial_Dependence_U,2023.2.3,Win32,59.52380952,,,,,,,,,,,,223.2144,0.0,223.2151,,,,226.1519,226.6501,225.6346,226.1518,224.2313,2.0,225.6341,226.6501,227.1495,227.1496,228.436,1041.5,228.4367,2.0,229.4331,0.0,26.0,26.0,23.0,1.0,1.4,0.3,Time
,,S04,1,Female,34,anonymized,Serial_Dependence_U,2023.2.3,Win32,59.52380952,,,,,,,,,,,,229.434,0.0,229.4345,,,,231.981,232.4792,231.4637,231.9808,230.4471,103.0,231.4634,232.4793,232.9842,232.9842,236.4514,2378.4,236.4522,5.0,237.4455,0.0,27.0,27.0,16.0,1.0,1.0,0.7,Time
,,S04,1,Female,34,anonymized,Serial_Dependence_U,2023.2.3,Win32,59.52380952,,,,,,,,,,,,237.4472,0.0,237.4482,,,,239.9971,240.4951,239.48,239.9969,238.4643,264.0,239.4797,240.4952,240.999,240.9991,247.0166,9999.0,247.0172,0.0,248.0124,0.0,28.0,28.0,11.0,1.0,1.0,0.3,Time
,,S04,1,Female,34,anonymized,Serial_Dependence_U,2023.2.3,Win32,59.52380952,,,,,,,,,,,,248.0145,0.0,248.0155,,,,250.3507,250.8449,249.83,250.3505,249.0178,192.0,249.8297,250.845,251.333,251.3331,257.3509,9999.0,257.3517,0.0,258.348,0.0,29.0,29.0,25.0,1.0,0.8,0.7,Time
,,S04,1,Female,34,anonymized,Serial_Dependence_U,2023.2.3,Win32,59.52380952,,,,,,,,,,,,258.349,1.0,374.9913,s,116.5493,,377.341,377.8396,376.8242,377.3408,376.0077,158.0,376.824,377.8397,378.3399,378.3399,385.8324,9999.0,385.833,0.0,386.6221,1.0,0.0,30.0,10.0,1.0,0.8,0.3,Time
,,S04,1,Female,34,anonymized,Serial_Dependence_U,2023.2.3,Win32,59.52380952,,,,,,,,,,,,386.6236,1.0,386.6307,,,,389.5729,390.0721,389.0571,389.5728,387.6408,46.0,389.0568,390.0722,390.5718,390.572,396.5898,9999.0,396.5914,0.0,397.5891,1.0,1.0,31.0,23.0,1.0,1.4,0.3,Time
,,S04,1,Female,34,anonymized,Serial_Dependence_U,2023.2.3,Win32,59.52380952,,,,,,,,,,,,397.5909,1.0,397.5923,,,,400.139,400.638,399.6231,400.1388,398.6066,122.0,399.6228,400.638,401.1379,401.138,405.7213,2501.2,405.7222,5.0,406.7209,1.0,2.0,32.0,6.0,1.0,1.0,0.7,Time
,,S04,1,Female,34,anonymized,Serial_Dependence_U,2023.2.3,Win32,59.52380952,,,,,,,,,,,,406.7221,1.0,406.7232,,,,409.6722,410.1713,409.1557,409.6721,407.7389,102.0,409.1556,410.1714,410.6712,410.6713,410.7881,71.69999999,410.7888,1.0,411.7875,1.0,3.0,33.0,8.0,1.0,1.4,0.7,Time
,,S04,1,Female,34,anonymized,Serial_Dependence_U,2023.2.3,Win32,59.52380952,,,,,,,,,,,,411.7886,1.0,411.7904,,,,414.9385,415.4376,414.4223,414.9383,412.8057,298.0,414.4221,415.4376,415.9374,415.9375,421.9551,9999.0,421.9558,0.0,422.954,1.0,4.0,34.0,9.0,1.0,1.6,0.7,Time
,,S04,1,Female,34,anonymized,Serial_Dependence_U,2023.2.3,Win32,59.52380952,,,,,,,,,,,,422.955,1.0,422.9562,,,,425.905,426.4039,425.3887,425.9049,423.9719,153.0,425.3885,426.404,426.9035,426.9036,427.671,746.7,427.6716,1.0,428.6704,1.0,5.0,35.0,13.0,1.0,1.4,0.3,Time
,,S04,1,Female,34,anonymized,Serial_Dependence_U,2023.2.3,Win32,59.52380952,,,,,,,,,,,,428.6716,1.0,428.6729,,,,431.4212,431.9201,430.9048,431.421,429.6883,111.0,430.9046,431.9201,432.4203,432.4204,432.5561,100.2,432.5578,1.0,433.553,1.0,6.0,36.0,7.0,1.0,1.2,0.7,Time
,,S04,1,Female,34,anonymized,Serial_Dependence_U,2023.2.3,Win32,59.52380952,,,,,,,,,,,,433.5556,1.0,433.5566,,,,435.9048,436.4029,435.3882,435.9046,434.5721,241.0,435.388,436.4029,436.9033,436.9034,437.4703,529.7,437.4711,1.0,438.4702,1.0,7.0,37.0,0.0,1.0,0.8,0.3,Time
,,S04,1,Female,34,anonymized,Serial_Dependence_U,2023.2.3,Win32,59.52380952,,,,,,,,,,,,438.4738,1.0,438.4747,,,,441.0214,441.5193,440.5048,441.0213,439.4876,316.0,440.5047,441.5194,442.0193,442.0194,448.0248,9999.0,448.0256,0.0,449.0114,1.0,8.0,38.0,1.0,1.0,1.0,0.3,Time
,,S04,1,Female,34,anonymized,Serial_Dependence_U,2023.2.3,Win32,59.52380952,,,,,,,,,,,,449.0144,1.0,449.0209,,,,451.7601,452.2579,451.243,451.76,450.0278,226.0,451.2428,452.258,452.7587,452.7589,452.8432,50.60000002,452.8443,1.0,453.8397,1.0,9.0,39.0,27.0,1.0,1.2,0.7,Time
,,S04,1,Female,34,anonymized,Serial_Dependence_U,2023.2.3,Win32,59.52380952,,,,,,,,,,,,453.841,1.0,453.8418,,,,456.7899,457.2859,456.2753,456.7897,454.8587,167.0,456.2751,457.2859,457.7877,457.7878,458.6049,779.8,458.6058,1.0,459.6037,1.0,10.0,40.0,3.0,1.0,1.4,0.3,Time
,,S04,1,Female,34,anonymized,Serial_Dependence_U,2023.2.3,Win32,59.52380952,,,,,,,,,,,,459.605,1.0,459.6058,,,,462.5425,463.0772,462.0377,462.5423,460.6211,283.0,462.0376,463.0772,463.5538,463.5539,468.6722,2957.1,468.6732,5.0,469.6713,1.0,11.0,41.0,18.0,1.0,1.4,0.7,Time
,,S04,1,Female,34,anonymized,Serial_Dependence_U,2023.2.3,Win32,59.52380952,,,,,,,,,,,,469.6727,1.0,469.6735,,,,472.4111,472.9078,471.892,472.411,470.6872,78.0,471.8916,472.9078,473.5094,473.5095,474.9189,1082.2,474.9203,2.0,475.7721,1.0,12.0,42.0,17.0,1.0,1.2,0.7,Time
,,S04,1,Female,34,anonymized,Serial_Dependence_U,2023.2.3,Win32,59.52380952,,,,,,,,,,,,475.7735,1.0,475.774,,,,478.108,478.6061,477.6024,478.1079,476.788,169.0,477.6023,478.6061,479.1072,479.1073,479.5421,188.1,479.5428,1.0,480.5393,1.0,13.0,43.0,15.0,1.0,0.8,0.7,Time
,,S04,1,Female,34,anonymized,Serial_Dependence_U,2023.2.3,Win32,59.52380952,,,,,,,,,,,,480.541,1.0,480.542,,,,483.6907,484.1893,483.1748,483.6905,481.5573,325.0,483.1747,484.1894,484.6845,484.6847,490.7063,9999.0,490.7073,0.0,491.7032,1.0,14.0,44.0,24.0,1.0,1.6,0.3,Time
,,S04,1,Female,34,anonymized,Serial_Dependence_U,2023.2.3,Win32,59.52380952,,,,,,,,,,,,491.705,1.0,491.7057,,,,494.2518,494.751,493.7404,494.2514,492.7234,93.0,493.7402,494.7511,495.2511,495.2513,496.8513,1556.5,496.8524,5.0,497.8516,1.0,15.0,45.0,21.0,1.0,1.0,0.3,Time
,,S04,1,Female,34,anonymized,Serial_Dependence_U,2023.2.3,Win32,59.52380952,,,,,,,,,,,,497.8536,1.0,497.8546,,,,501.0019,501.5012,500.4865,501.0016,498.8713,147.0,500.4863,501.5012,502.0012,502.0013,506.2343,4077.7,506.2375,5.0,507.2331,1.0,16.0,46.0,14.0,1.0,1.6,0.3,Time
,,S04,1,Female,34,anonymized,Serial_Dependence_U,2023.2.3,Win32,59.52380952,,,,,,,,,,,,507.2347,1.0,507.2356,,,,509.7862,510.2833,509.2686,509.7859,508.2512,205.0,509.2684,510.2834,510.783,510.783,511.0834,265.4,511.0843,1.0,512.0833,1.0,17.0,47.0,11.0,1.0,1.0,0.3,Time
,,S04,1,Female,34,anonymized,Serial_Dependence_U,2023.2.3,Win32,59.52380952,,,,,,,,,,,,512.0852,1.0,512.086,,,,515.2349,515.7335,514.7182,515.2347,513.1017,245.0,514.718,515.7335,516.2334,516.2335,519.4498,2127.4,519.4511,5.0,520.4493,1.0,18.0,48.0,4.0,1.0,1.6,0.3,Time
,,S04,1,Female,34,anonymized,Serial_Dependence_U,2023.2.3,Win32,59.52380952,,,,,,,,,,,,520.4511,1.0,520.4529,,,,523.4047,523.8991,522.8894,523.4047,521.4725,277.0,522.8892,523.8992,524.4037,524.4038,530.4241,9999.0,530.4249,0.0,531.4159,1.0,19.0,49.0,28.0,1.0,1.4,0.7,Time
,,S04,1,Female,34,anonymized,Serial_Dependence_U,2023.2.3,Win32,59.52380952,,,,,,,,,,,,531.4183,1.0,531.4196,,,,534.1679,534.6654,533.6499,534.1678,532.4333,335.0,533.6498,534.6655,535.1656,535.1658,541.1879,9999.0,541.1883,0.0,542.1819,1.0,20.0,50.0,2.0,1.0,1.2,0.3,Time
,,S04,1,Female,34,anonymized,Serial_Dependence_U,2023.2.3,Win32,59.52380952,,,,,,,,,,,,542.1832,1.0,542.1841,,,,544.9328,545.4315,544.4218,544.9326,543.2045,323.0,544.4217,545.4316,545.9326,545.9327,550.3985,3683.9,550.3997,5.0,551.3988,1.0,21.0,51.0,22.0,1.0,1.2,0.3,Time
,,S04,1,Female,34,anonymized,Serial_Dependence_U,2023.2.3,Win32,59.52380952,,,,,,,,,,,,551.4008,1.0,551.4019,,,,553.7509,554.2481,553.2331,553.7508,552.4163,63.0,553.2328,554.2482,554.7481,554.7482,559.6826,3972.0,559.6838,5.0,560.6815,1.0,22.0,52.0,20.0,1.0,0.8,0.3,Time
,,S04,1,Female,34,anonymized,Serial_Dependence_U,2023.2.3,Win32,59.52380952,,,,,,,,,,,,560.6835,1.0,560.6848,,,,563.2045,563.7038,562.6886,563.2043,561.6867,202.0,562.6885,563.7039,564.2031,564.2032,564.554,49.69999999,564.5547,1.0,565.5521,1.0,23.0,53.0,26.0,1.0,1.0,0.7,Time
,,S04,1,Female,34,anonymized,Serial_Dependence_U,2023.2.3,Win32,59.52380952,,,,,,,,,,,,565.553,1.0,565.5537,,,,568.6999,569.2009,568.1868,568.6997,566.5699,330.0,568.1866,569.201,569.7002,569.7003,575.7165,9999.0,575.7176,0.0,577.2504,1.0,24.0,54.0,19.0,1.0,1.6,0.7,Time
,,S04,1,Female,34,anonymized,Serial_Dependence_U,2023.2.3,Win32,59.52380952,,,,,,,,,,,,577.2519,1.0,577.2534,,,,579.999,580.4965,579.4813,579.9988,578.2646,67.0,579.4811,580.4965,580.9968,580.9968,581.5802,547.1,581.581,1.0,582.5801,1.0,25.0,55.0,12.0,1.0,1.2,0.3,Time
,,S04,1,Female,34,anonymized,Serial_Dependence_U,2023.2.3,Win32,59.52380952,,,,,,,,,,,,582.5819,1.0,582.5837,,,,584.9146,585.414,584.3979,584.9144,583.5848,66.0,584.3978,585.4141,585.9135,585.9137,591.9309,9999.0,591.9317,0.0,592.9313,1.0,26.0,56.0,5.0,1.0,0.8,0.7,Time
,,S04,1,Female,34,anonymized,Serial_Dependence_U,2023.2.3,Win32,59.52380952,,,,,,,,,,,,592.9361,1.0,592.9385,,,,595.2809,595.7794,594.7663,595.2805,593.9478,72.0,594.7661,595.7794,596.2815,596.2816,596.3223,20.59999996,596.3231,1.0,597.3125,1.0,27.0,57.0,25.0,1.0,0.8,0.7,Time
,,S04,1,Female,34,anonymized,Serial_Dependence_U,2023.2.3,Win32,59.52380952,,,,,,,,,,,,597.3139,1.0,597.315,,,,599.8638,600.3633,599.3469,599.8637,598.3302,184.0,599.3467,600.3634,600.8629,600.8631,606.8806,9999.0,606.8815,0.0,607.8792,1.0,28.0,58.0,16.0,1.0,1.0,0.7,Time
,,S04,1,Female,34,anonymized,Serial_Dependence_U,2023.2.3,Win32,59.52380952,,,,,,,,,,,,607.8809,1.0,607.882,,,,611.0301,611.5289,610.5145,611.0298,608.8973,61.0,610.5143,611.529,612.0291,612.0294,618.0462,9999.0,618.0481,0.0,619.0447,1.0,29.0,59.0,29.0,1.0,1.6,0.7,Time
,,S04,1,Female,34,anonymized,Serial_Dependence_U,2023.2.3,Win32,59.52380952,,,,,,,,,,,,619.0461,2.0,714.3484,s,95.2208,,717.0969,717.5913,716.5814,717.0967,715.3645,80.0,716.5812,717.5913,718.0955,718.0955,724.113,9999.0,724.1141,0.0,725.1112,2.0,0.0,60.0,7.0,1.0,1.2,0.7,Time
,,S04,1,Female,34,anonymized,Serial_Dependence_U,2023.2.3,Win32,59.52380952,,,,,,,,,,,,725.1123,2.0,725.1156,,,,728.2419,728.7405,727.7254,728.2415,726.3152,127.0,727.7253,728.7407,729.2403,729.2403,735.2448,9999.0,735.2454,0.0,736.2421,2.0,1.0,61.0,8.0,1.0,1.4,0.7,Time
,,S04,1,Female,34,anonymized,Serial_Dependence_U,2023.2.3,Win32,59.52380952,,,,,,,,,,,,736.2447,2.0,736.2464,,,,738.7776,739.2766,738.2607,738.7775,737.2457,277.0,738.2606,739.2767,739.7729,739.773,745.7918,9999.0,745.7937,0.0,746.7891,2.0,2.0,62.0,16.0,1.0,1.0,0.7,Time
,,S04,1,Female,34,anonymized,Serial_Dependence_U,2023.2.3,Win32,59.52380952,,,,,,,,,,,,746.7904,2.0,746.7917,,,,749.7405,750.239,749.2244,749.7403,747.8082,311.0,749.2243,750.239,750.7391,750.7391,756.7571,9999.0,756.7587,0.0,757.756,2.0,3.0,63.0,18.0,1.0,1.4,0.7,Time
,,S04,1,Female,34,anonymized,Serial_Dependence_U,2023.2.3,Win32,59.52380952,,,,,,,,,,,,757.7586,2.0,757.7595,,,,760.5076,761.0069,759.9906,760.5074,758.774,273.0,759.9903,761.0069,761.5059,761.5061,767.5241,9999.0,767.5252,0.0,768.522,2.0,4.0,64.0,2.0,1.0,1.2,0.3,Time
,,S04,1,Female,34,anonymized,Serial_Dependence_U,2023.2.3,Win32,59.52380952,,,,,,,,,,,,768.5234,2.0,768.5243,,,,770.8743,771.3715,770.357,770.8742,769.5424,50.0,770.3568,771.3715,771.8718,771.8718,777.8899,9999.0,777.8906,0.0,778.8873,2.0,5.0,65.0,5.0,1.0,0.8,0.7,Time
,,S04,1,Female,34,anonymized,Serial_Dependence_U,2023.2.3,Win32,59.52380952,,,,,,,,,,,,778.8884,2.0,778.8895,,,,782.0383,782.5379,781.5237,782.0381,779.9055,162.0,781.5235,782.5379,783.0374,783.0374,789.0548,9999.0,789.0555,0.0,790.0537,2.0,6.0,66.0,4.0,1.0,1.6,0.3,Time
,,S04,1,Female,34,anonymized,Serial_Dependence_U,2023.2.3,Win32,59.52380952,,,,,,,,,,,,790.0549,2.0,790.057,,,,793.0052,793.5039,792.4882,793.0051,791.0721,255.0,792.488,793.5039,794.1744,794.1744,794.2054,0.699999988,794.2074,1.0,795.2033,2.0,7.0,67.0,23.0,1.0,1.4,0.3,Time
,,S04,1,Female,34,anonymized,Serial_Dependence_U,2023.2.3,Win32,59.52380952,,,,,,,,,,,,795.2064,2.0,795.207,,,,798.1551,798.6537,797.6386,798.1549,796.2216,4.0,797.6385,798.6538,799.1536,799.1537,800.3039,800.0,800.3048,1.0,801.3037,2.0,8.0,68.0,13.0,1.0,1.4,0.3,Time
,,S04,1,Female,34,anonymized,Serial_Dependence_U,2023.2.3,Win32,59.52380952,,,,,,,,,,,,801.3055,2.0,801.3072,,,,804.2544,804.7532,803.7381,804.2542,802.3214,307.0,803.738,804.7533,805.2532,805.2533,809.773,168.4,809.7742,1.0,810.7696,2.0,9.0,69.0,28.0,1.0,1.4,0.7,Time
,,S04,1,Female,34,anonymized,Serial_Dependence_U,2023.2.3,Win32,59.52380952,,,,,,,,,,,,810.7715,2.0,810.7731,,,,813.7222,814.2197,813.2041,813.7221,811.7875,48.0,813.204,814.2197,814.7196,814.7196,815.1034,347.4,815.1041,1.0,816.2539,2.0,10.0,70.0,3.0,1.0,1.4,0.3,Time
,,S04,1,Female,34,anonymized,Serial_Dependence_U,2023.2.3,Win32,59.52380952,,,,,,,,,,,,816.2568,2.0,816.2582,,,,819.5063,820.0024,818.9872,819.5062,817.3716,322.0,818.9871,820.0024,820.5024,820.5024,826.5212,9999.0,826.5223,0.0,827.5192,2.0,11.0,71.0,29.0,1.0,1.6,0.7,Time
,,S04,1,Female,34,anonymized,Serial_Dependence_U,2023.2.3,Win32,59.52380952,,,,,,,,,,,,827.521,2.0,827.5228,,,,829.8706,830.3713,829.3531,829.8702,828.537,41.0,829.353,830.3716,830.8685,830.8685,835.5189,2663.2,835.5197,5.0,836.5187,2.0,12.0,72.0,15.0,1.0,0.8,0.7,Time
,,S04,1,Female,34,anonymized,Serial_Dependence_U,2023.2.3,Win32,59.52380952,,,,,,,,,,,,836.5205,2.0,836.522,,,,839.6708,840.1688,839.1548,839.6706,837.5368,63.0,839.1547,840.1689,840.6696,840.6696,844.9519,3166.6,844.9527,5.0,845.9538,2.0,13.0,73.0,19.0,1.0,1.6,0.7,Time
,,S04,1,Female,34,anonymized,Serial_Dependence_U,2023.2.3,Win32,59.52380952,,,,,,,,,,,,845.955,2.0,845.9557,,,,848.3059,848.8025,847.7914,848.3054,846.9701,207.0,847.7911,848.8025,849.3014,849.3015,854.168,4166.4,854.1689,5.0,855.168,2.0,14.0,74.0,10.0,1.0,0.8,0.3,Time
,,S04,1,Female,34,anonymized,Serial_Dependence_U,2023.2.3,Win32,59.52380952,,,,,,,,,,,,855.1709,2.0,855.172,,,,857.521,858.0182,857.0021,857.5208,856.1857,122.0,857.0021,858.0182,858.5186,858.5186,862.6846,3052.3,862.6852,5.0,863.6841,2.0,15.0,75.0,20.0,1.0,0.8,0.3,Time
,,S04,1,Female,34,anonymized,Serial_Dependence_U,2023.2.3,Win32,59.52380952,,,,,,,,,,,,863.6852,2.0,863.6865,,,,866.835,867.3336,866.3187,866.8348,864.7019,2.0,866.3186,867.3336,867.8338,867.8339,871.8838,2968.3,871.8849,5.0,872.8834,2.0,16.0,76.0,24.0,1.0,1.6,0.3,Time
,,S04,1,Female,34,anonymized,Serial_Dependence_U,2023.2.3,Win32,59.52380952,,,,,,,,,,,,872.8848,2.0,872.8863,,,,875.435,875.9334,874.9194,875.4348,873.9022,342.0,874.9192,875.9334,876.4339,876.434,876.7178,4.900000036,876.7188,1.0,877.717,2.0,17.0,77.0,6.0,1.0,1.0,0.7,Time
,,S04,1,Female,34,anonymized,Serial_Dependence_U,2023.2.3,Win32,59.52380952,,,,,,,,,,,,877.7188,2.0,877.7205,,,,880.8681,881.3664,880.3515,880.868,878.7358,232.0,880.3513,881.3664,881.867,881.8671,887.8185,5321.7,887.8198,5.0,888.816,2.0,18.0,78.0,9.0,1.0,1.6,0.7,Time
,,S04,1,Female,34,anonymized,Serial_Dependence_U,2023.2.3,Win32,59.52380952,,,,,,,,,,,,888.8172,2.0,888.8184,,,,891.1673,891.6656,890.6531,891.1673,889.8345,260.0,890.6528,891.6657,892.1662,892.1662,895.0831,2436.0,895.0836,5.0,896.0827,2.0,19.0,79.0,0.0,1.0,0.8,0.3,Time
,,S04,1,Female,34,anonymized,Serial_Dependence_U,2023.2.3,Win32,59.52380952,,,,,,,,,,,,896.0838,2.0,896.0848,,,,898.8223,899.3159,898.3173,898.8222,897.1002,70.0,898.3172,899.316,899.8155,899.8155,900.4498,297.9,900.4505,1.0,901.4495,2.0,20.0,80.0,17.0,1.0,1.2,0.7,Time
,,S04,1,Female,34,anonymized,Serial_Dependence_U,2023.2.3,Win32,59.52380952,,,,,,,,,,,,901.4517,2.0,901.4531,,,,903.8001,904.299,903.2845,903.7999,902.4671,240.0,903.2843,904.299,904.7988,904.7988,910.8164,9999.0,910.817,0.0,911.8155,2.0,21.0,81.0,25.0,1.0,0.8,0.7,Time
,,S04,1,Female,34,anonymized,Serial_Dependence_U,2023.2.3,Win32,59.52380952,,,,,,,,,,,,911.8178,2.0,911.8194,,,,914.567,915.0652,914.05,914.5668,912.8332,349.0,914.0498,915.0652,915.5655,915.5662,918.4001,2797.7,918.4015,5.0,919.3994,2.0,22.0,82.0,27.0,1.0,1.2,0.7,Time
,,S04,1,Female,34,anonymized,Serial_Dependence_U,2023.2.3,Win32,59.52380952,,,,,,,,,,,,919.4013,2.0,919.4023,,,,921.938,922.4366,921.4325,921.9379,920.4162,350.0,921.4323,922.4366,922.937,922.937,924.0896,734.5,924.0905,2.0,925.0858,2.0,23.0,83.0,21.0,1.0,1.0,0.3,Time
,,S04,1,Female,34,anonymized,Serial_Dependence_U,2023.2.3,Win32,59.52380952,,,,,,,,,,,,925.0868,2.0,925.0876,,,,927.6373,928.1355,927.1185,927.6371,926.1037,210.0,927.1185,928.1356,928.6354,928.6356,934.6536,9999.0,934.6542,0.0,935.6527,2.0,24.0,84.0,11.0,1.0,1.0,0.3,Time
,,S04,1,Female,34,anonymized,Serial_Dependence_U,2023.2.3,Win32,59.52380952,,,,,,,,,,,,935.654,2.0,935.6545,,,,938.7743,939.2638,938.272,938.7742,936.6702,220.0,938.2719,939.2639,940.0569,940.0571,946.0646,9999.0,946.0653,0.0,947.0635,2.0,25.0,85.0,14.0,1.0,1.6,0.3,Time
,,S04,1,Female,34,anonymized,Serial_Dependence_U,2023.2.3,Win32,59.52380952,,,,,,,,,,,,947.0656,2.0,947.0667,,,,949.8146,950.3137,949.2983,949.8145,948.0815,103.0,949.2982,950.3137,950.8135,950.8136,956.8312,9999.0,956.8319,0.0,957.83,2.0,26.0,86.0,22.0,1.0,1.2,0.3,Time
,,S04,1,Female,34,anonymized,Serial_Dependence_U,2023.2.3,Win32,59.52380952,,,,,,,,,,,,957.8311,2.0,957.8322,,,,960.3827,960.8803,959.864,960.3824,958.8478,286.0,959.8638,960.8804,961.3827,961.3828,966.1977,4780.3,966.199,5.0,967.1958,2.0,27.0,87.0,26.0,1.0,1.0,0.7,Time
,,S04,1,Female,34,anonymized,Serial_Dependence_U,2023.2.3,Win32,59.52380952,,,,,,,,,,,,967.1969,2.0,967.1989,,,,969.7501,970.2493,969.2311,969.7491,968.2149,28.0,969.2309,970.2494,970.92,970.9201,971.9327,949.3,971.9335,2.0,972.9291,2.0,28.0,88.0,1.0,1.0,1.0,0.3,Time
,,S04,1,Female,34,anonymized,Serial_Dependence_U,2023.2.3,Win32,59.52380952,,,,,,,,,,,,972.9309,2.0,972.9319,,,,975.68,976.1791,975.1634,975.6798,973.9477,117.0,975.1633,976.1791,976.6792,976.6793,982.6989,9999.0,982.701,0.0,983.6973,2.0,29.0,89.0,12.0,1.0,1.2,0.3,Time
,,S04,1,Female,34,anonymized,Serial_Dependence_U,2023.2.3,Win32,59.52380952,,,,,,,,,,,,983.6994,3.0,996.0617,s,12.278,,999.2124,999.7113,998.6961,999.2121,997.0796,344.0,998.6959,999.7113,1000.2113,1000.2113,1002.0456,1682.7,1002.0461,4.0,1003.0445,3.0,0.0,90.0,9.0,1.0,1.6,0.7,Time
,,S04,1,Female,34,anonymized,Serial_Dependence_U,2023.2.3,Win32,59.52380952,,,,,,,,,,,,1003.0456,3.0,1003.0531,,,,1005.9953,1006.4941,1005.479,1005.9953,1004.0625,179.0,1005.4789,1006.4941,1006.9953,1006.9955,1007.5947,134.3,1007.5955,1.0,1008.5946,3.0,1.0,91.0,8.0,1.0,1.4,0.7,Time
,,S04,1,Female,34,anonymized,Serial_Dependence_U,2023.2.3,Win32,59.52380952,,,,,,,,,,,,1008.5956,3.0,1008.5969,,,,1011.5457,1012.044,1011.0291,1011.5455,1009.6124,19.0,1011.0289,1012.044,1012.5442,1012.5444,1016.8609,3679.8,1016.8618,5.0,1017.8612,3.0,2.0,92.0,18.0,1.0,1.4,0.7,Time
,,S04,1,Female,34,anonymized,Serial_Dependence_U,2023.2.3,Win32,59.52380952,,,,,,,,,,,,1017.8628,3.0,1017.864,,,,1021.0122,1021.5105,1020.4952,1021.0119,1018.8787,13.0,1020.495,1021.5105,1022.0103,1022.0104,1026.5776,3182.9,1026.5787,5.0,1027.5779,3.0,3.0,93.0,29.0,1.0,1.6,0.7,Time
,,S04,1,Female,34,anonymized,Serial_Dependence_U,2023.2.3,Win32,59.52380952,,,,,,,,,,,,1027.5799,3.0,1027.581,,,,1029.9287,1030.4267,1029.4123,1029.9284,1028.5954,112.0,1029.4122,1030.4268,1030.9273,1030.9274,1036.944,9999.0,1036.945,0.0,1037.9436,3.0,4.0,94.0,5.0,1.0,0.8,0.7,Time
,,S04,1,Female,34,anonymized,Serial_Dependence_U,2023.2.3,Win32,59.52380952,,,,,,,,,,,,1037.9454,3.0,1037.9468,,,,1040.2947,1040.7934,1039.7786,1040.2944,1038.9612,51.0,1039.7785,1040.7935,1041.2931,1041.2932,1047.3112,9999.0,1047.3128,0.0,1048.3093,3.0,5.0,95.0,20.0,1.0,0.8,0.3,Time
,,S04,1,Female,34,anonymized,Serial_Dependence_U,2023.2.3,Win32,59.52380952,,,,,,,,,,,,1048.3113,3.0,1048.3128,,,,1051.0613,1051.5593,1050.5441,1051.0611,1049.3279,203.0,1050.5438,1051.5593,1052.059,1052.0591,1055.0925,2996.8,1055.0935,5.0,1056.0926,3.0,6.0,96.0,12.0,1.0,1.2,0.3,Time
,,S04,1,Female,34,anonymized,Serial_Dependence_U,2023.2.3,Win32,59.52380952,,,,,,,,,,,,1056.0941,3.0,1056.095,,,,1059.2444,1059.7419,1058.7266,1059.2441,1057.1108,75.0,1058.7262,1059.7419,1060.2418,1060.2419,1066.2607,9999.0,1066.2614,0.0,1067.2589,3.0,7.0,97.0,14.0,1.0,1.6,0.3,Time
,,S04,1,Female,34,anonymized,Serial_Dependence_U,2023.2.3,Win32,59.52380952,,,,,,,,,,,,1067.2609,3.0,1067.262,,,,1069.8094,1070.3086,1069.2922,1069.8092,1068.2787,162.0,1069.292,1070.3087,1070.8084,1070.8084,1072.1918,1366.4,1072.1928,5.0,1073.1919,3.0,8.0,98.0,16.0,1.0,1.0,0.7,Time
,,S04,1,Female,34,anonymized,Serial_Dependence_U,2023.2.3,Win32,59.52380952,,,,,,,,,,,,1073.1931,3.0,1073.1946,,,,1075.5428,1076.0408,1075.0259,1075.5427,1074.2094,235.0,1075.0258,1076.0408,1076.5416,1076.5417,1078.7252,2145.9,1078.7262,5.0,1079.7242,3.0,9.0,99.0,15.0,1.0,0.8,0.7,Time
,,S04,1,Female,34,anonymized,Serial_Dependence_U,2023.2.3,Win32,59.52380952,,,,,,,,,,,,1079.7252,3.0,1079.7263,,,,1082.0764,1082.5741,1081.5591,1082.0763,1080.742,25.0,1081.559,1082.5741,1083.0774,1083.0775,1085.8747,930.4,1085.8766,4.0,1086.8755,3.0,10.0,100.0,25.0,1.0,0.8,0.7,Time
,,S04,1,Female,34,anonymized,Serial_Dependence_U,2023.2.3,Win32,59.52380952,,,,,,,,,,,,1086.8778,3.0,1086.8792,,,,1089.6138,1090.1071,1089.1084,1089.6135,1087.8926,150.0,1089.1082,1090.1072,1090.6123,1090.6124,1091.1434,317.3,1091.1457,1.0,1092.1431,3.0,11.0,101.0,2.0,1.0,1.2,0.3,Time
,,S04,1,Female,34,anonymized,Serial_Dependence_U,2023.2.3,Win32,59.52380952,,,,,,,,,,,,1092.1443,3.0,1092.1451,,,,1095.0757,1095.5755,1094.5634,1095.0756,1093.148,84.0,1094.5632,1095.5756,1096.0743,1096.0744,1102.0804,9999.0,1102.0813,0.0,1103.0734,3.0,12.0,102.0,28.0,1.0,1.4,0.7,Time
,,S04,1,Female,34,anonymized,Serial_Dependence_U,2023.2.3,Win32,59.52380952,,,,,,,,,,,,1103.0744,3.0,1103.0756,,,,1106.0306,1106.529,1105.5137,1106.0305,1104.092,200.0,1105.5135,1106.5291,1107.0285,1107.0285,1108.5961,1546.9,1108.5967,4.0,1109.5948,3.0,13.0,103.0,13.0,1.0,1.4,0.3,Time
,,S04,1,Female,34,anonymized,Serial_Dependence_U,2023.2.3,Win32,59.52380952,,,,,,,,,,,,1109.5967,3.0,1109.5977,,,,1112.1459,1112.6401,1111.6299,1112.1459,1110.6122,141.0,1111.6297,1112.6401,1113.1282,1113.1283,1117.1963,3684.2,1117.1968,5.0,1118.1898,3.0,14.0,104.0,6.0,1.0,1.0,0.7,Time
,,S04,1,Female,34,anonymized,Serial_Dependence_U,2023.2.3,Win32,59.52380952,,,,,,,,,,,,1118.1925,3.0,1118.195,,,,1121.1412,1121.6449,1120.6285,1121.1411,1119.2075,108.0,1120.6285,1121.6451,1122.1392,1122.1393,1126.7627,3550.2,1126.7639,5.0,1127.7606,3.0,15.0,105.0,23.0,1.0,1.4,0.3,Time
,,S04,1,Female,34,anonymized,Serial_Dependence_U,2023.2.3,Win32,59.52380952,,,,,,,,,,,,1127.7615,3.0,1127.7622,,,,1130.2956,1130.7942,1129.778,1130.2956,1128.7628,226.0,1129.7778,1130.7942,1131.294,1131.2941,1131.4555,120.8,1131.4568,1.0,1132.4551,3.0,16.0,106.0,11.0,1.0,1.0,0.3,Time
,,S04,1,Female,34,anonymized,Serial_Dependence_U,2023.2.3,Win32,59.52380952,,,,,,,,,,,,1132.4577,3.0,1132.459,,,,1135.2062,1135.7051,1134.6903,1135.206,1133.4736,127.0,1134.6901,1135.7052,1136.2056,1136.2058,1138.0719,1849.9,1138.0732,5.0,1139.0719,3.0,17.0,107.0,27.0,1.0,1.2,0.7,Time
,,S04,1,Female,34,anonymized,Serial_Dependence_U,2023.2.3,Win32,59.52380952,,,,,,,,,,,,1139.0734,3.0,1139.0744,,,,1141.6247,1142.1218,1141.1071,1141.6243,1140.0897,167.0,1141.1068,1142.1218,1142.6222,1142.6223,1148.6407,9999.0,1148.642,0.0,1149.6382,3.0,18.0,108.0,1.0,1.0,1.0,0.3,Time
,,S04,1,Female,34,anonymized,Serial_Dependence_U,2023.2.3,Win32,59.52380952,,,,,,,,,,,,1149.6403,3.0,1149.6412,,,,1151.9897,1152.488,1151.4729,1151.9896,1150.657,229.0,1151.4726,1152.4881,1152.9884,1152.9885,1159.006,9999.0,1159.0068,0.0,1160.0047,3.0,19.0,109.0,0.0,1.0,0.8,0.3,Time
,,S04,1,Female,34,anonymized,Serial_Dependence_U,2023.2.3,Win32,59.52380952,,,,,,,,,,,,1160.0069,3.0,1160.0082,,,,1162.3565,1162.8543,1161.8385,1162.3564,1161.0234,67.0,1161.8382,1162.8543,1163.3545,1163.3546,1163.5214,148.7,1163.5223,1.0,1164.5209,3.0,20.0,110.0,10.0,1.0,0.8,0.3,Time
,,S04,1,Female,34,anonymized,Serial_Dependence_U,2023.2.3,Win32,59.52380952,,,,,,,,,,,,1164.5234,3.0,1164.525,,,,1167.0601,1167.5585,1166.5438,1167.06,1165.5267,69.0,1166.5437,1167.5586,1168.0591,1168.0596,1173.3766,5296.4,1173.3771,5.0,1174.3702,3.0,21.0,111.0,26.0,1.0,1.0,0.7,Time
,,S04,1,Female,34,anonymized,Serial_Dependence_U,2023.2.3,Win32,59.52380952,,,,,,,,,,,,1174.3729,3.0,1174.3743,,,,1176.8934,1177.3917,1176.3887,1176.8933,1175.3777,344.0,1176.3884,1177.3919,1177.8914,1177.8914,1181.6615,3734.9,1181.6626,5.0,1182.6581,3.0,22.0,112.0,21.0,1.0,1.0,0.3,Time
,,S04,1,Female,34,anonymized,Serial_Dependence_U,2023.2.3,Win32,59.52380952,,,,,,,,,,,,1182.6598,3.0,1182.6609,,,,1185.4093,1185.9045,1184.8882,1185.4092,1183.6762,261.0,1184.888,1185.9046,1186.4092,1186.4094,1187.4259,996.0,1187.4265,2.0,1188.4245,3.0,23.0,113.0,17.0,1.0,1.2,0.7,Time
,,S04,1,Female,34,anonymized,Serial_Dependence_U,2023.2.3,Win32,59.52380952,,,,,,,,,,,,1188.4266,3.0,1188.4276,,,,1191.3595,1191.8566,1190.8424,1191.3594,1189.4271,151.0,1190.8422,1191.8566,1192.3568,1192.3568,1198.376,9999.0,1198.3766,0.0,1199.3734,3.0,24.0,114.0,3.0,1.0,1.4,0.3,Time
,,S04,1,Female,34,anonymized,Serial_Dependence_U,2023.2.3,Win32,59.52380952,,,,,,,,,,,,1199.3745,3.0,1199.3751,,,,1202.5137,1203.007,1202.0083,1202.5135,1200.3926,78.0,1202.008,1203.0071,1203.5071,1203.5073,1209.6338,9999.0,1209.6368,0.0,1210.6387,3.0,25.0,115.0,4.0,1.0,1.6,0.3,Time
,,S04,1,Female,34,anonymized,Serial_Dependence_U,2023.2.3,Win32,59.52380952,,,,,,,,,,,,1210.6405,3.0,1210.6412,,,,1213.3868,1213.8879,1212.8699,1213.3865,1211.6534,109.0,1212.8698,1213.8879,1214.3881,1214.3882,1214.6368,230.3,1214.6384,1.0,1215.6295,3.0,26.0,116.0,7.0,1.0,1.2,0.7,Time
,,S04,1,Female,34,anonymized,Serial_Dependence_U,2023.2.3,Win32,59.52380952,,,,,,,,,,,,1215.6311,3.0,1215.6323,,,,1218.7869,1219.2848,1218.2696,1218.7868,1216.6563,95.0,1218.2692,1219.2848,1219.7728,1219.7728,1225.7903,9999.0,1225.791,0.0,1226.7844,3.0,27.0,117.0,19.0,1.0,1.6,0.7,Time
,,S04,1,Female,34,anonymized,Serial_Dependence_U,2023.2.3,Win32,59.52380952,,,,,,,,,,,,1226.7862,3.0,1226.7878,,,,1229.536,1230.0347,1229.0242,1229.5359,1227.8024,39.0,1229.0239,1230.0347,1230.535,1230.5351,1235.9572,5144.2,1235.9577,5.0,1236.9507,3.0,28.0,118.0,22.0,1.0,1.2,0.3,Time
,,S04,1,Female,34,anonymized,Serial_Dependence_U,2023.2.3,Win32,59.52380952,,,,,,,,,,,,1236.9527,3.0,1236.9544,,,,1240.0904,1240.5849,1239.5742,1240.09,1237.9564,106.0,1239.574,1240.585,1241.0842,1241.0843,1246.0071,3936.0,1246.0077,5.0,1247.0049,3.0,29.0,119.0,24.0,1.0,1.6,0.3,Time
,,S04,1,Female,34,anonymized,Serial_Dependence_U,2023.2.3,Win32,59.52380952,,,,,,,,,,,,1247.0067,4.0,1516.0444,s,268.9919,,1518.7776,1519.2719,1518.2607,1518.7774,1517.0473,86.0,1518.2606,1519.2719,1519.7599,1519.76,1523.5793,967.4,1523.58,2.0,1524.5726,4.0,0.0,120.0,2.0,1.0,1.2,0.3,Time
,,S04,1,Female,34,anonymized,Serial_Dependence_U,2023.2.3,Win32,59.52380952,,,,,,,,,,,,1524.575,4.0,1524.5853,,,,1527.1387,1527.6372,1526.6235,1527.1386,1525.6084,290.0,1526.6234,1527.6373,1528.1379,1528.138,1534.1445,9999.0,1534.145,0.0,1535.1422,4.0,1.0,121.0,6.0,1.0,1.0,0.7,Time
,,S04,1,Female,34,anonymized,Serial_Dependence_U,2023.2.3,Win32,59.52380952,,,,,,,,,,,,1535.1441,4.0,1535.1455,,,,1538.0763,1538.5755,1537.5719,1538.0761,1536.1611,129.0,1537.5714,1538.5756,1539.0742,1539.0743,1541.2609,1778.3,1541.2615,4.0,1542.2539,4.0,2.0,122.0,8.0,1.0,1.4,0.7,Time
,,S04,1,Female,34,anonymized,Serial_Dependence_U,2023.2.3,Win32,59.52380952,,,,,,,,,,,,1542.2556,4.0,1542.2572,,,,1544.7932,1545.2873,1544.2721,1544.793,1543.2599,312.0,1544.272,1545.2874,1545.7761,1545.7761,1546.4099,614.5,1546.4103,1.0,1547.4066,4.0,3.0,123.0,21.0,1.0,1.0,0.3,Time
,,S04,1,Female,34,anonymized,Serial_Dependence_U,2023.2.3,Win32,59.52380952,,,,,,,,,,,,1547.4091,4.0,1547.4102,,,,1549.9559,1550.4531,1549.4385,1549.9554,1548.4223,140.0,1549.4383,1550.4531,1550.9542,1550.9542,1551.0535,55.5,1551.0548,1.0,1552.0537,4.0,4.0,124.0,11.0,1.0,1.0,0.3,Time
,,S04,1,Female,34,anonymized,Serial_Dependence_U,2023.2.3,Win32,59.52380952,,,,,,,,,,,,1552.0562,4.0,1552.0573,,,,1554.6044,1555.1033,1554.0889,1554.604,1553.0719,232.0,1554.0888,1555.1033,1555.6036,1555.6036,1561.6211,9999.0,1561.6236,0.0,1562.6196,4.0,5.0,125.0,26.0,1.0,1.0,0.7,Time
,,S04,1,Female,34,anonymized,Serial_Dependence_U,2023.2.3,Win32,59.52380952,,,,,,,,,,,,1562.6208,4.0,1562.622,,,,1565.3714,1565.8697,1564.8554,1565.3712,1563.6382,218.0,1564.8552,1565.8698,1566.3698,1566.3698,1567.1031,688.7,1567.1043,1.0,1568.1024,4.0,6.0,126.0,7.0,1.0,1.2,0.7,Time
,,S04,1,Female,34,anonymized,Serial_Dependence_U,2023.2.3,Win32,59.52380952,,,,,,,,,,,,1568.1044,4.0,1568.1057,,,,1571.2549,1571.7523,1570.7365,1571.2548,1569.121,332.0,1570.7364,1571.7524,1572.2529,1572.2531,1573.0043,711.7,1573.0051,1.0,1574.003,4.0,7.0,127.0,29.0,1.0,1.6,0.7,Time
,,S04,1,Female,34,anonymized,Serial_Dependence_U,2023.2.3,Win32,59.52380952,,,,,,,,,,,,1574.0051,4.0,1574.0069,,,,1577.1375,1577.6377,1576.6216,1577.1373,1575.0079,187.0,1576.6214,1577.6378,1578.1403,1578.1404,1582.923,4081.3,1582.9236,5.0,1583.9204,4.0,8.0,128.0,19.0,1.0,1.6,0.7,Time
,,S04,1,Female,34,anonymized,Serial_Dependence_U,2023.2.3,Win32,59.52380952,,,,,,,,,,,,1583.9222,4.0,1583.9235,,,,1586.4541,1586.9566,1585.9454,1586.4539,1584.9251,282.0,1585.9451,1586.9567,1587.4556,1587.4556,1590.6074,3133.2,1590.608,5.0,1591.6017,4.0,9.0,129.0,1.0,1.0,1.0,0.3,Time
,,S04,1,Female,34,anonymized,Serial_Dependence_U,2023.2.3,Win32,59.52380952,,,,,,,,,,,,1591.6032,4.0,1591.604,,,,1594.1522,1594.6517,1593.6387,1594.152,1592.624,152.0,1593.6384,1594.6517,1595.1515,1595.1515,1599.054,3265.8,1599.0549,5.0,1600.0525,4.0,10.0,130.0,16.0,1.0,1.0,0.7,Time
,,S04,1,Female,34,anonymized,Serial_Dependence_U,2023.2.3,Win32,59.52380952,,,,,,,,,,,,1600.0537,4.0,1600.055,,,,1603.0028,1603.5017,1602.4874,1603.0026,1601.0691,334.0,1602.4872,1603.5017,1604.0009,1604.001,1610.0188,9999.0,1610.0196,0.0,1611.0174,4.0,11.0,131.0,28.0,1.0,1.4,0.7,Time
,,S04,1,Female,34,anonymized,Serial_Dependence_U,2023.2.3,Win32,59.52380952,,,,,,,,,,,,1611.0196,4.0,1611.0213,,,,1613.357,1613.856,1612.8524,1613.3569,1612.0351,303.0,1612.8523,1613.8562,1614.3552,1614.3553,1620.3724,9999.0,1620.3729,0.0,1621.3678,4.0,12.0,132.0,5.0,1.0,0.8,0.7,Time
,,S04,1,Female,34,anonymized,Serial_Dependence_U,2023.2.3,Win32,59.52380952,,,,,,,,,,,,1621.3702,4.0,1621.3712,,,,1624.3235,1624.8231,1623.808,1624.3233,1622.3899,335.0,1623.8078,1624.8232,1625.317,1625.3172,1629.8893,4544.9,1629.8899,5.0,1630.8826,4.0,13.0,133.0,23.0,1.0,1.4,0.3,Time
,,S04,1,Female,34,anonymized,Serial_Dependence_U,2023.2.3,Win32,59.52380952,,,,,,,,,,,,1630.8838,4.0,1630.885,,,,1633.8232,1634.3211,1633.3079,1633.8231,1631.8905,27.0,1633.3077,1634.3211,1634.8222,1634.8222,1635.5999,750.7,1635.6007,1.0,1636.6027,4.0,14.0,134.0,18.0,1.0,1.4,0.7,Time
,,S04,1,Female,34,anonymized,Serial_Dependence_U,2023.2.3,Win32,59.52380952,,,,,,,,,,,,1636.6054,4.0,1636.6073,,,,1639.3389,1639.8383,1638.8242,1639.3388,1637.6195,0.0,1638.824,1639.8383,1640.3382,1640.3383,1644.2554,3896.8,1644.256,5.0,1645.252,4.0,15.0,135.0,17.0,1.0,1.2,0.7,Time
,,S04,1,Female,34,anonymized,Serial_Dependence_U,2023.2.3,Win32,59.52380952,,,,,,,,,,,,1645.254,4.0,1645.2553,,,,1648.0054,1648.5053,1647.4886,1648.0053,1646.2719,309.0,1647.4885,1648.5054,1649.0045,1649.0046,1650.2721,1247.0,1650.2727,3.0,1651.2654,4.0,16.0,136.0,12.0,1.0,1.2,0.3,Time
,,S04,1,Female,34,anonymized,Serial_Dependence_U,2023.2.3,Win32,59.52380952,,,,,,,,,,,,1651.2672,4.0,1651.2688,,,,1654.2174,1654.7156,1653.7054,1654.2172,1652.2883,217.0,1653.7053,1654.7157,1655.2034,1655.2035,1661.219,9999.0,1661.2196,0.0,1662.2194,4.0,17.0,137.0,13.0,1.0,1.4,0.3,Time
,,S04,1,Female,34,anonymized,Serial_Dependence_U,2023.2.3,Win32,59.52380952,,,,,,,,,,,,1662.2203,4.0,1662.2209,,,,1665.3554,1665.8542,1664.838,1665.3553,1663.2202,96.0,1664.8379,1665.8542,1666.3487,1666.3488,1672.3658,9999.0,1672.3663,0.0,1673.3647,4.0,18.0,138.0,14.0,1.0,1.6,0.3,Time
,,S04,1,Female,34,anonymized,Serial_Dependence_U,2023.2.3,Win32,59.52380952,,,,,,,,,,,,1673.3664,4.0,1673.3684,,,,1675.7159,1676.2145,1675.2006,1675.7157,1674.3831,85.0,1675.2003,1676.2146,1676.7146,1676.7147,1678.1319,1404.4,1678.1325,5.0,1679.1308,4.0,19.0,139.0,25.0,1.0,0.8,0.7,Time
,,S04,1,Female,34,anonymized,Serial_Dependence_U,2023.2.3,Win32,59.52380952,,,,,,,,,,,,1679.1321,4.0,1679.1329,,,,1682.2657,1682.7646,1681.7487,1682.2655,1680.137,230.0,1681.7485,1682.7646,1683.2638,1683.2639,1684.0641,782.5,1684.0649,1.0,1685.0638,4.0,20.0,140.0,9.0,1.0,1.6,0.7,Time
,,S04,1,Female,34,anonymized,Serial_Dependence_U,2023.2.3,Win32,59.52380952,,,,,,,,,,,,1685.066,4.0,1685.0669,,,,1687.415,1687.9136,1686.8983,1687.4149,1686.0819,109.0,1686.8982,1687.9137,1688.4145,1688.4146,1688.9369,484.4,1688.9377,1.0,1689.9304,4.0,21.0,141.0,15.0,1.0,0.8,0.7,Time
,,S04,1,Female,34,anonymized,Serial_Dependence_U,2023.2.3,Win32,59.52380952,,,,,,,,,,,,1689.9319,4.0,1689.9328,,,,1693.071,1693.5639,1692.5535,1693.0709,1690.9376,220.0,1692.5534,1693.564,1694.0528,1694.0529,1696.2866,2212.8,1696.2872,5.0,1697.281,4.0,22.0,142.0,24.0,1.0,1.6,0.3,Time
,,S04,1,Female,34,anonymized,Serial_Dependence_U,2023.2.3,Win32,59.52380952,,,,,,,,,,,,1697.2834,4.0,1697.2844,,,,1699.6029,1700.1017,1699.0874,1699.6027,1698.2856,306.0,1699.0873,1700.1018,1700.6025,1700.6027,1700.7544,132.2,1700.7551,1.0,1701.7478,4.0,23.0,143.0,20.0,1.0,0.8,0.3,Time
,,S04,1,Female,34,anonymized,Serial_Dependence_U,2023.2.3,Win32,59.52380952,,,,,,,,,,,,1701.7491,4.0,1701.7498,,,,1704.4812,1704.9851,1703.9721,1704.4811,1702.7685,222.0,1703.972,1704.9852,1705.4838,1705.4838,1709.5194,3196.9,1709.5198,5.0,1710.513,4.0,24.0,144.0,27.0,1.0,1.2,0.7,Time
,,S04,1,Female,34,anonymized,Serial_Dependence_U,2023.2.3,Win32,59.52380952,,,,,,,,,,,,1710.5146,4.0,1710.5159,,,,1713.6523,1714.1466,1713.1356,1713.6522,1711.52,356.0,1713.1355,1714.1467,1714.6521,1714.6523,1718.5475,3176.4,1718.5493,5.0,1719.5466,4.0,25.0,145.0,4.0,1.0,1.6,0.3,Time
,,S04,1,Female,34,anonymized,Serial_Dependence_U,2023.2.3,Win32,59.52380952,,,,,,,,,,,,1719.549,4.0,1719.5499,,,,1722.5003,1722.996,1721.9829,1722.5002,1720.5659,249.0,1721.9827,1722.9961,1723.4955,1723.4956,1729.5135,9999.0,1729.5144,0.0,1730.5119,4.0,26.0,146.0,3.0,1.0,1.4,0.3,Time
,,S04,1,Female,34,anonymized,Serial_Dependence_U,2023.2.3,Win32,59.52380952,,,,,,,,,,,,1730.5146,4.0,1730.516,,,,1733.2514,1733.7456,1732.735,1733.2513,1731.5186,261.0,1732.7349,1733.7457,1734.2491,1734.2492,1740.2687,9999.0,1740.2692,0.0,1741.262,4.0,27.0,147.0,22.0,1.0,1.2,0.3,Time
,,S04,1,Female,34,anonymized,Serial_Dependence_U,2023.2.3,Win32,59.52380952,,,,,,,,,,,,1741.2652,4.0,1741.2664,,,,1743.6125,1744.1109,1743.0963,1743.6123,1742.2795,251.0,1743.0961,1744.111,1744.6113,1744.6114,1744.7117,2.800000012,1744.7125,1.0,1745.7123,4.0,28.0,148.0,0.0,1.0,0.8,0.3,Time
,,S04,1,Female,34,anonymized,Serial_Dependence_U,2023.2.3,Win32,59.52380952,,,,,,,,,,,,1745.7133,4.0,1745.7145,,,,1748.0631,1748.5612,1747.5458,1748.063,1746.7292,333.0,1747.5457,1748.5612,1749.0624,1749.0624,1749.1643,65.30000001,1749.1655,1.0,1750.1617,4.0,29.0,149.0,10.0,1.0,0.8,0.3,Time
,,S04,1,Female,34,anonymized,Serial_Dependence_U,2023.2.3,Win32,59.52380952,,,,,,,,,,,,1750.1649,5.0,1828.8636,s,78.6547,,1831.8275,1832.3238,1831.3089,1831.8274,1829.8774,278.0,1831.3086,1832.3238,1832.8238,1832.8238,1833.941,432.6,1833.942,1.0,1834.9404,5.0,0.0,150.0,3.0,1.0,1.4,0.3,Time
,,S04,1,Female,34,anonymized,Serial_Dependence_U,2023.2.3,Win32,59.52380952,,,,,,,,,,,,1834.9464,5.0,1834.9518,,,,1837.692,1838.1908,1837.1756,1837.6919,1835.9625,333.0,1837.1754,1838.1909,1838.6904,1838.6904,1843.8256,4482.5,1843.8266,5.0,1844.8242,5.0,1.0,151.0,12.0,1.0,1.2,0.3,Time
,,S04,1,Female,34,anonymized,Serial_Dependence_U,2023.2.3,Win32,59.52380952,,,,,,,,,,,,1844.8258,5.0,1844.8268,,,,1847.9578,1848.4568,1847.4433,1847.9577,1845.8338,117.0,1847.4431,1848.4568,1848.9564,1848.9565,1849.7245,737.3,1849.7254,1.0,1850.7227,5.0,2.0,152.0,4.0,1.0,1.6,0.3,Time
,,S04,1,Female,34,anonymized,Serial_Dependence_U,2023.2.3,Win32,59.52380952,,,,,,,,,,,,1850.7249,5.0,1850.7258,,,,1853.4745,1853.9732,1852.9576,1853.4744,1851.741,295.0,1852.9575,1853.9733,1854.4725,1854.4725,1854.9729,14.30000001,1854.9742,1.0,1855.9732,5.0,3.0,153.0,17.0,1.0,1.2,0.7,Time
,,S04,1,Female,34,anonymized,Serial_Dependence_U,2023.2.3,Win32,59.52380952,,,,,,,,,,,,1855.9756,5.0,1855.9776,,,,1858.5245,1859.0228,1858.007,1858.5244,1856.991,320.0,1858.0067,1859.0229,1859.5229,1859.5231,1862.9898,3115.2,1862.9905,5.0,1863.9889,5.0,4.0,154.0,26.0,1.0,1.0,0.7,Time
,,S04,1,Female,34,anonymized,Serial_Dependence_U,2023.2.3,Win32,59.52380952,,,,,,,,,,,,1863.991,5.0,1863.9923,,,,1866.9413,1867.4391,1866.4238,1866.9412,1865.0073,199.0,1866.4236,1867.4392,1867.9392,1867.9393,1873.9573,9999.0,1873.9581,0.0,1874.9554,5.0,5.0,155.0,28.0,1.0,1.4,0.7,Time
,,S04,1,Female,34,anonymized,Serial_Dependence_U,2023.2.3,Win32,59.52380952,,,,,,,,,,,,1874.9569,5.0,1874.9582,,,,1877.9065,1878.4051,1877.3922,1877.9063,1875.9737,319.0,1877.3905,1878.4052,1878.9049,1878.9049,1879.172,248.2,1879.1728,1.0,1880.1719,5.0,6.0,156.0,13.0,1.0,1.4,0.3,Time
,,S04,1,Female,34,anonymized,Serial_Dependence_U,2023.2.3,Win32,59.52380952,,,,,,,,,,,,1880.1732,5.0,1880.1747,,,,1882.5229,1883.0218,1882.0065,1882.5227,1881.19,89.0,1882.0063,1883.0218,1883.5219,1883.5219,1883.6886,102.5,1883.6895,1.0,1884.6881,5.0,7.0,157.0,20.0,1.0,0.8,0.3,Time
,,S04,1,Female,34,anonymized,Serial_Dependence_U,2023.2.3,Win32,59.52380952,,,,,,,,,,,,1884.6891,5.0,1884.6909,,,,1887.8394,1888.3381,1887.3241,1887.8393,1885.7064,213.0,1887.3239,1888.3382,1888.8384,1888.8385,1889.0221,140.3,1889.0229,1.0,1890.0217,5.0,8.0,158.0,24.0,1.0,1.6,0.3,Time
,,S04,1,Female,34,anonymized,Serial_Dependence_U,2023.2.3,Win32,59.52380952,,,,,,,,,,,,1890.0251,5.0,1890.0266,,,,1892.573,1893.0723,1892.0561,1892.5728,1891.0398,331.0,1892.056,1893.0723,1893.5715,1893.5715,1896.7214,3130.3,1896.722,5.0,1897.7207,5.0,9.0,159.0,11.0,1.0,1.0,0.3,Time
,,S04,1,Female,34,anonymized,Serial_Dependence_U,2023.2.3,Win32,59.52380952,,,,,,,,,,,,1897.7218,5.0,1897.7231,,,,1900.4722,1900.9704,1899.9555,1900.472,1898.7388,352.0,1899.9554,1900.9705,1901.4705,1901.4706,1901.7046,174.9,1901.7054,1.0,1902.704,5.0,10.0,160.0,22.0,1.0,1.2,0.3,Time
,,S04,1,Female,34,anonymized,Serial_Dependence_U,2023.2.3,Win32,59.52380952,,,,,,,,,,,,1902.7054,5.0,1902.7065,,,,1905.0566,1905.5542,1904.5391,1905.0564,1903.7222,84.0,1904.5388,1905.5545,1906.0546,1906.0547,1909.771,3436.6,1909.7721,5.0,1910.7714,5.0,11.0,161.0,25.0,1.0,0.8,0.7,Time
,,S04,1,Female,34,anonymized,Serial_Dependence_U,2023.2.3,Win32,59.52380952,,,,,,,,,,,,1910.7731,5.0,1910.7742,,,,1913.5221,1914.0202,1913.0058,1913.5217,1911.7889,351.0,1913.0056,1914.0203,1914.5207,1914.5207,1917.2704,2580.2,1917.2716,5.0,1918.2705,5.0,12.0,162.0,2.0,1.0,1.2,0.3,Time
,,S04,1,Female,34,anonymized,Serial_Dependence_U,2023.2.3,Win32,59.52380952,,,,,,,,,,,,1918.2718,5.0,1918.2728,,,,1920.8215,1921.3209,1920.3053,1920.8213,1919.288,100.0,1920.305,1921.321,1921.8206,1921.8207,1922.5209,520.6,1922.5225,1.0,1923.5203,5.0,13.0,163.0,1.0,1.0,1.0,0.3,Time
,,S04,1,Female,34,anonymized,Serial_Dependence_U,2023.2.3,Win32,59.52380952,,,,,,,,,,,,1923.5222,5.0,1923.5236,,,,1926.2714,1926.7703,1925.7542,1926.2713,1924.5377,73.0,1925.754,1926.7704,1927.2699,1927.27,1928.1698,633.5,1928.1706,1.0,1929.1695,5.0,14.0,164.0,27.0,1.0,1.2,0.7,Time
,,S04,1,Female,34,anonymized,Serial_Dependence_U,2023.2.3,Win32,59.52380952,,,,,,,,,,,,1929.1714,5.0,1929.1729,,,,1932.3089,1932.8073,1931.8048,1932.3088,1930.1874,59.0,1931.8046,1932.8074,1933.3078,1933.308,1939.3253,9999.0,1939.3259,0.0,1940.3249,5.0,15.0,165.0,29.0,1.0,1.6,0.7,Time
,,S04,1,Female,34,anonymized,Serial_Dependence_U,2023.2.3,Win32,59.52380952,,,,,,,,,,,,1940.3265,5.0,1940.3276,,,,1943.4716,1943.969,1942.9543,1943.4715,1941.3379,118.0,1942.9541,1943.9691,1944.4687,1944.4687,1945.236,153.8,1945.2372,1.0,1946.2356,5.0,16.0,166.0,9.0,1.0,1.6,0.7,Time
,,S04,1,Female,34,anonymized,Serial_Dependence_U,2023.2.3,Win32,59.52380952,,,,,,,,,,,,1946.2377,5.0,1946.2391,,,,1948.5905,1949.091,1948.0759,1948.5904,1947.2554,294.0,1948.0758,1949.0911,1949.5872,1949.5873,1950.0532,42.5,1950.054,1.0,1951.0642,5.0,17.0,167.0,0.0,1.0,0.8,0.3,Time
,,S04,1,Female,34,anonymized,Serial_Dependence_U,2023.2.3,Win32,59.52380952,,,,,,,,,,,,1951.0654,5.0,1951.0663,,,,1953.9943,1954.4849,1953.4884,1953.9941,1952.0735,57.0,1953.4883,1954.4851,1954.9853,1954.9853,1956.3186,1312.5,1956.3196,2.0,1957.3188,5.0,18.0,168.0,8.0,1.0,1.4,0.7,Time
,,S04,1,Female,34,anonymized,Serial_Dependence_U,2023.2.3,Win32,59.52380952,,,,,,,,,,,,1957.3212,5.0,1957.3226,,,,1960.0532,1960.5513,1959.5402,1960.053,1958.336,190.0,1959.5399,1960.5513,1961.0517,1961.0517,1964.7189,3231.2,1964.7196,5.0,1965.7205,5.0,19.0,169.0,7.0,1.0,1.2,0.7,Time
,,S04,1,Female,34,anonymized,Serial_Dependence_U,2023.2.3,Win32,59.52380952,,,,,,,,,,,,1965.7232,5.0,1965.725,,,,1968.872,1969.369,1968.34,1968.8718,1966.7235,11.0,1968.3397,1969.3692,1969.8706,1969.8707,1973.4349,3399.5,1973.4358,5.0,1974.4347,5.0,20.0,170.0,14.0,1.0,1.6,0.3,Time
,,S04,1,Female,34,anonymized,Serial_Dependence_U,2023.2.3,Win32,59.52380952,,,,,,,,,,,,1974.4371,5.0,1974.4382,,,,1977.3856,1977.8838,1976.8684,1977.3855,1975.4524,64.0,1976.8683,1977.8838,1978.3843,1978.3844,1983.6177,3936.0,1983.6184,5.0,1984.6173,5.0,21.0,171.0,23.0,1.0,1.4,0.3,Time
,,S04,1,Female,34,anonymized,Serial_Dependence_U,2023.2.3,Win32,59.52380952,,,,,,,,,,,,1984.6185,5.0,1984.6198,,,,1986.9687,1987.467,1986.4514,1986.9686,1985.6349,122.0,1986.4512,1987.467,1987.9673,1987.9673,1992.8008,4809.0,1992.8016,5.0,1993.8004,5.0,22.0,172.0,10.0,1.0,0.8,0.3,Time
,,S04,1,Female,34,anonymized,Serial_Dependence_U,2023.2.3,Win32,59.52380952,,,,,,,,,,,,1993.8022,5.0,1993.804,,,,1996.1513,1996.65,1995.6347,1996.1512,1994.8181,318.0,1995.6346,1996.6501,1997.1498,1997.1499,1998.7499,1564.1,1998.7509,5.0,1999.75,5.0,23.0,173.0,5.0,1.0,0.8,0.7,Time
,,S04,1,Female,34,anonymized,Serial_Dependence_U,2023.2.3,Win32,59.52380952,,,,,,,,,,,,1999.7518,5.0,1999.7532,,,,2002.3011,2002.7998,2001.7851,2002.301,2000.7675,273.0,2001.7849,2002.7998,2003.2999,2003.3,2005.3341,2015.7,2005.3348,5.0,2006.3329,5.0,24.0,174.0,6.0,1.0,1.0,0.7,Time
,,S04,1,Female,34,anonymized,Serial_Dependence_U,2023.2.3,Win32,59.52380952,,,,,,,,,,,,2006.3339,5.0,2006.3348,,,,2008.8841,2009.3828,2008.3673,2008.8839,2007.3509,173.0,2008.3672,2009.3829,2009.8825,2009.8826,2013.4496,2298.4,2013.4503,5.0,2014.4493,5.0,25.0,175.0,21.0,1.0,1.0,0.3,Time
,,S04,1,Female,34,anonymized,Serial_Dependence_U,2023.2.3,Win32,59.52380952,,,,,,,,,,,,2014.451,5.0,2014.4525,,,,2017.0004,2017.4989,2016.4839,2017.0002,2015.4673,276.0,2016.4838,2017.4989,2017.9988,2017.9989,2018.5997,206.6,2018.6006,1.0,2019.5986,5.0,26.0,176.0,16.0,1.0,1.0,0.7,Time
,,S04,1,Female,34,anonymized,Serial_Dependence_U,2023.2.3,Win32,59.52380952,,,,,,,,,,,,2019.5997,5.0,2019.6009,,,,2022.7499,2023.2489,2022.2328,2022.7498,2020.6179,37.0,2022.2326,2023.249,2023.7488,2023.7488,2029.7673,9999.0,2029.7687,0.0,2030.7654,5.0,27.0,177.0,19.0,1.0,1.6,0.7,Time
,,S04,1,Female,34,anonymized,Serial_Dependence_U,2023.2.3,Win32,59.52380952,,,,,,,,,,,,2030.7677,5.0,2030.769,,,,2033.7165,2034.2151,2033.1998,2033.7164,2031.783,93.0,2033.1996,2034.2151,2034.7152,2034.7153,2040.7322,9999.0,2040.7342,0.0,2041.7311,5.0,28.0,178.0,18.0,1.0,1.4,0.7,Time
,,S04,1,Female,34,anonymized,Serial_Dependence_U,2023.2.3,Win32,59.52380952,,,,,,,,,,,,2041.733,5.0,2041.7345,,,,2044.0828,2044.5813,2043.5653,2044.0826,2042.7493,57.0,2043.5652,2044.5813,2045.0811,2045.0812,2045.5314,82.90000004,2045.5321,1.0,2046.5311,5.0,29.0,179.0,15.0,1.0,0.8,0.7,Time
,,S04,1,Female,34,anonymized,Serial_Dependence_U,2023.2.3,Win32,59.52380952,,,,,,,,,,,,2046.5327,6.0,2053.7478,s,7.1407,,2056.2986,2056.798,2055.782,2056.2984,2054.7704,332.0,2055.7818,2056.798,2057.2975,2057.2976,2062.1308,3216.4,2062.1315,5.0,2063.131,6.0,0.0,180.0,21.0,1.0,1.0,0.3,Time
,,S04,1,Female,34,anonymized,Serial_Dependence_U,2023.2.3,Win32,59.52380952,,,,,,,,,,,,2063.1339,6.0,2063.1393,,,,2065.4829,2065.9809,2064.9653,2065.4827,2064.1486,218.0,2064.9651,2065.9809,2066.4807,2066.4808,2067.0972,596.3,2067.0986,2.0,2068.097,6.0,1.0,181.0,25.0,1.0,0.8,0.7,Time
,,S04,1,Female,34,anonymized,Serial_Dependence_U,2023.2.3,Win32,59.52380952,,,,,,,,,,,,2068.0981,6.0,2068.0994,,,,2071.036,2071.5332,2070.5193,2071.0359,2069.1155,123.0,2070.519,2071.5333,2072.2655,2072.2655,2075.186,1427.9,2075.1865,3.0,2076.1801,6.0,2.0,182.0,3.0,1.0,1.4,0.3,Time
,,S04,1,Female,34,anonymized,Serial_Dependence_U,2023.2.3,Win32,59.52380952,,,,,,,,,,,,2076.1823,6.0,2076.1845,,,,2078.9309,2079.4326,2078.4155,2078.9308,2077.1973,36.0,2078.4153,2079.4327,2079.9297,2079.93,2080.0463,93.30000001,2080.0472,1.0,2081.0511,6.0,3.0,183.0,27.0,1.0,1.2,0.7,Time
,,S04,1,Female,34,anonymized,Serial_Dependence_U,2023.2.3,Win32,59.52380952,,,,,,,,,,,,2081.053,6.0,2081.054,,,,2083.3693,2083.8679,2082.8654,2083.3692,2082.0526,141.0,2082.8653,2083.8681,2084.3669,2084.367,2088.6529,3683.6,2088.6534,5.0,2089.6464,6.0,4.0,184.0,5.0,1.0,0.8,0.7,Time
,,S04,1,Female,34,anonymized,Serial_Dependence_U,2023.2.3,Win32,59.52380952,,,,,,,,,,,,2089.6482,6.0,2089.6489,,,,2092.1985,2092.6979,2091.6866,2092.1983,2090.6694,90.0,2091.6863,2092.698,2093.1951,2093.1953,2093.3792,112.3,2093.3798,1.0,2094.3792,6.0,5.0,185.0,11.0,1.0,1.0,0.3,Time
,,S04,1,Female,34,anonymized,Serial_Dependence_U,2023.2.3,Win32,59.52380952,,,,,,,,,,,,2094.3812,6.0,2094.3825,,,,2096.9327,2097.429,2096.4129,2096.9326,2095.3966,323.0,2096.4128,2097.4291,2097.9294,2097.9296,2098.0548,1.200000048,2098.0554,1.0,2099.0504,6.0,6.0,186.0,26.0,1.0,1.0,0.7,Time
,,S04,1,Female,34,anonymized,Serial_Dependence_U,2023.2.3,Win32,59.52380952,,,,,,,,,,,,2099.0522,6.0,2099.0531,,,,2101.403,2101.9007,2100.8856,2101.4028,2100.0689,232.0,2100.8854,2101.9008,2102.4007,2102.4007,2108.4038,9999.0,2108.4045,0.0,2109.3982,6.0,7.0,187.0,0.0,1.0,0.8,0.3,Time
,,S04,1,Female,34,anonymized,Serial_Dependence_U,2023.2.3,Win32,59.52380952,,,,,,,,,,,,2109.4004,6.0,2109.4015,,,,2111.9351,2112.4319,2111.43,2111.9348,2110.4176,204.0,2111.4298,2112.4319,2112.9329,2112.9331,2114.5842,1110.9,2114.5848,4.0,2115.5775,6.0,8.0,188.0,6.0,1.0,1.0,0.7,Time
,,S04,1,Female,34,anonymized,Serial_Dependence_U,2023.2.3,Win32,59.52380952,,,,,,,,,,,,2115.5787,6.0,2115.5799,,,,2118.717,2119.2156,2118.213,2118.7168,2116.5956,149.0,2118.2128,2119.2156,2119.7149,2119.7152,2121.7523,1200.2,2121.7533,2.0,2122.7443,6.0,9.0,189.0,9.0,1.0,1.6,0.7,Time
,,S04,1,Female,34,anonymized,Serial_Dependence_U,2023.2.3,Win32,59.52380952,,,,,,,,,,,,2122.7466,6.0,2122.748,,,,2125.6831,2126.1826,2125.1673,2125.6828,2123.7657,345.0,2125.1672,2126.1826,2126.6835,2126.6837,2127.4168,233.4,2127.4173,1.0,2128.4105,6.0,10.0,190.0,28.0,1.0,1.4,0.7,Time
,,S04,1,Female,34,anonymized,Serial_Dependence_U,2023.2.3,Win32,59.52380952,,,,,,,,,,,,2128.4124,6.0,2128.4139,,,,2131.1501,2131.6473,2130.6331,2131.15,2129.4166,50.0,2130.633,2131.6475,2132.1491,2132.1492,2136.2776,2778.0,2136.2783,5.0,2137.2768,6.0,11.0,191.0,22.0,1.0,1.2,0.3,Time
,,S04,1,Female,34,anonymized,Serial_Dependence_U,2023.2.3,Win32,59.52380952,,,,,,,,,,,,2137.278,6.0,2137.2792,,,,2140.429,2140.9273,2139.9118,2140.4288,2138.295,158.0,2139.9117,2140.9274,2141.4267,2141.4267,2147.444,9999.0,2147.4447,0.0,2148.4427,6.0,12.0,192.0,19.0,1.0,1.6,0.7,Time
,,S04,1,Female,34,anonymized,Serial_Dependence_U,2023.2.3,Win32,59.52380952,,,,,,,,,,,,2148.4439,6.0,2148.4452,,,,2150.7829,2151.2767,2150.2662,2150.7828,2149.4618,199.0,2150.266,2151.277,2151.7811,2151.7811,2156.7661,4943.8,2156.7666,5.0,2157.7596,6.0,13.0,193.0,15.0,1.0,0.8,0.7,Time
,,S04,1,Female,34,anonymized,Serial_Dependence_U,2023.2.3,Win32,59.52380952,,,,,,,,,,,,2157.7609,6.0,2157.7614,,,,2160.9158,2161.4153,2160.399,2160.9157,2158.7825,3.0,2160.3989,2161.4153,2161.9099,2161.91,2164.8987,2832.7,2164.8994,5.0,2165.8972,6.0,14.0,194.0,24.0,1.0,1.6,0.3,Time
,,S04,1,Female,34,anonymized,Serial_Dependence_U,2023.2.3,Win32,59.52380952,,,,,,,,,,,,2165.8994,6.0,2165.9004,,,,2168.8451,2169.3421,2168.3318,2168.845,2166.9153,65.0,2168.3316,2169.3422,2169.8435,2169.8436,2170.4437,200.5,2170.4452,1.0,2171.4418,6.0,15.0,195.0,18.0,1.0,1.4,0.7,Time
,,S04,1,Female,34,anonymized,Serial_Dependence_U,2023.2.3,Win32,59.52380952,,,,,,,,,,,,2171.4429,6.0,2171.4439,,,,2173.9977,2174.497,2173.4838,2173.9976,2172.4644,298.0,2173.4837,2174.497,2174.9965,2174.9965,2180.6469,4532.6,2180.6475,5.0,2181.6425,6.0,16.0,196.0,1.0,1.0,1.0,0.3,Time
,,S04,1,Female,34,anonymized,Serial_Dependence_U,2023.2.3,Win32,59.52380952,,,,,,,,,,,,2181.6438,6.0,2181.6444,,,,2184.5976,2185.0913,2184.081,2184.5974,2182.6609,16.0,2184.0808,2185.0914,2185.5796,2185.5796,2186.0642,182.4,2186.0649,1.0,2187.0585,6.0,17.0,197.0,8.0,1.0,1.4,0.7,Time
,,S04,1,Female,34,anonymized,Serial_Dependence_U,2023.2.3,Win32,59.52380952,,,,,,,,,,,,2187.0613,6.0,2187.0624,,,,2190.0091,2190.508,2189.4924,2190.0089,2188.0762,342.0,2189.4923,2190.5081,2191.0081,2191.0083,2196.2477,5083.3,2196.2485,5.0,2197.2404,6.0,18.0,198.0,23.0,1.0,1.4,0.3,Time
,,S04,1,Female,34,anonymized,Serial_Dependence_U,2023.2.3,Win32,59.52380952,,,,,,,,,,,,2197.2416,6.0,2197.2426,,,,2199.9919,2200.491,2199.4758,2199.9918,2198.2587,246.0,2199.4757,2200.4911,2200.9911,2200.9913,2206.9967,9999.0,2206.9973,0.0,2207.9907,6.0,19.0,199.0,12.0,1.0,1.2,0.3,Time
,,S04,1,Female,34,anonymized,Serial_Dependence_U,2023.2.3,Win32,59.52380952,,,,,,,,,,,,2207.9921,6.0,2207.9929,,,,2210.7426,2211.2408,2210.2254,2210.7423,2209.0081,231.0,2210.2249,2211.2408,2211.7425,2211.7426,2213.363,1326.0,2213.3634,4.0,2214.3599,6.0,20.0,200.0,17.0,1.0,1.2,0.7,Time
,,S04,1,Female,34,anonymized,Serial_Dependence_U,2023.2.3,Win32,59.52380952,,,,,,,,,,,,2214.3619,6.0,2214.3625,,,,2216.8925,2217.3902,2216.3752,2216.8923,2215.3642,217.0,2216.3748,2217.3903,2217.89,2217.89,2218.7748,858.2,2218.7758,2.0,2219.7735,6.0,21.0,201.0,16.0,1.0,1.0,0.7,Time
,,S04,1,Female,34,anonymized,Serial_Dependence_U,2023.2.3,Win32,59.52380952,,,,,,,,,,,,2219.7753,6.0,2219.777,,,,2222.9254,2223.4227,2222.4077,2222.9253,2220.791,335.0,2222.4076,2223.4228,2223.9232,2223.9232,2225.6573,534.0,2225.6586,1.0,2226.6575,6.0,22.0,202.0,29.0,1.0,1.6,0.7,Time
,,S04,1,Female,34,anonymized,Serial_Dependence_U,2023.2.3,Win32,59.52380952,,,,,,,,,,,,2226.6597,6.0,2226.661,,,,2229.6074,2230.1059,2229.0908,2229.6073,2227.6752,87.0,2229.0906,2230.1059,2230.6059,2230.606,2231.4396,814.9,2231.4402,1.0,2232.4397,6.0,23.0,203.0,13.0,1.0,1.4,0.3,Time
,,S04,1,Female,34,anonymized,Serial_Dependence_U,2023.2.3,Win32,59.52380952,,,,,,,,,,,,2232.4419,6.0,2232.4436,,,,2235.163,2235.6614,2234.6578,2235.1628,2233.4458,258.0,2234.6575,2235.6614,2236.1603,2236.1603,2239.2783,2766.6,2239.2789,5.0,2240.2724,6.0,24.0,204.0,2.0,1.0,1.2,0.3,Time
,,S04,1,Female,34,anonymized,Serial_Dependence_U,2023.2.3,Win32,59.52380952,,,,,,,,,,,,2240.275,6.0,2240.2762,,,,2243.0122,2243.5114,2242.4959,2243.0121,2241.2909,9.0,2242.4957,2243.5114,2244.0087,2244.0089,2248.2293,3783.2,2248.2301,5.0,2249.227,6.0,25.0,205.0,7.0,1.0,1.2,0.7,Time
,,S04,1,Female,34,anonymized,Serial_Dependence_U,2023.2.3,Win32,59.52380952,,,,,,,,,,,,2249.2287,6.0,2249.2297,,,,2252.3783,2252.8784,2251.8611,2252.3781,2250.2446,58.0,2251.861,2252.8785,2253.3765,2253.3766,2254.6448,1245.1,2254.6454,2.0,2255.6423,6.0,26.0,206.0,4.0,1.0,1.6,0.3,Time
,,S04,1,Female,34,anonymized,Serial_Dependence_U,2023.2.3,Win32,59.52380952,,,,,,,,,,,,2255.6436,6.0,2255.6443,,,,2257.9948,2258.4943,2257.4782,2257.9947,2256.6606,121.0,2257.4781,2258.4945,2258.993,2258.9931,2265.0064,9999.0,2265.007,0.0,2266.0043,6.0,27.0,207.0,20.0,1.0,0.8,0.3,Time
,,S04,1,Female,34,anonymized,Serial_Dependence_U,2023.2.3,Win32,59.52380952,,,,,,,,,,,,2266.0053,6.0,2266.0061,,,,2269.1453,2269.6405,2268.6271,2269.1451,2267.0111,81.0,2268.6269,2269.6406,2270.1428,2270.1429,2271.4598,1123.7,2271.4602,2.0,2272.4591,6.0,28.0,208.0,14.0,1.0,1.6,0.3,Time
,,S04,1,Female,34,anonymized,Serial_Dependence_U,2023.2.3,Win32,59.52380952,,,,,,,,,,,,2272.4611,6.0,2272.4621,,,,2274.8103,2275.3092,2274.2943,2274.8102,2273.4732,111.0,2274.294,2275.3092,2275.8099,2275.81,2276.7099,880.8,2276.7104,4.0,2277.7042,6.0,29.0,209.0,10.0,1.0,0.8,0.3,Time
,,S04,1,Female,34,anonymized,Serial_Dependence_U,2023.2.3,Win32,59.52380952,,,,,,,,,,,,2277.7061,7.0,2331.9353,s,54.1579,,2334.4887,2334.9846,2333.9701,2334.4885,2332.9531,205.0,2333.9699,2334.9852,2335.4848,2335.4849,2335.7353,133.6,2335.7366,1.0,2336.7376,7.0,0.0,210.0,21.0,1.0,1.0,0.3,Time
,,S04,1,Female,34,anonymized,Serial_Dependence_U,2023.2.3,Win32,59.52380952,,,,,,,,,,,,2336.7388,7.0,2336.7427,,,,2339.6859,2340.1848,2339.1698,2339.6858,2337.7528,236.0,2339.1697,2340.1848,2340.6843,2340.6844,2342.1181,1412.6,2342.1189,3.0,2343.1179,7.0,1.0,211.0,23.0,1.0,1.4,0.3,Time
,,S04,1,Female,34,anonymized,Serial_Dependence_U,2023.2.3,Win32,59.52380952,,,,,,,,,,,,2343.1191,7.0,2343.1202,,,,2346.0691,2346.5677,2345.553,2346.069,2344.1366,149.0,2345.5529,2346.5677,2347.0674,2347.0674,2347.2844,197.8,2347.2851,1.0,2348.2842,7.0,2.0,212.0,3.0,1.0,1.4,0.3,Time
,,S04,1,Female,34,anonymized,Serial_Dependence_U,2023.2.3,Win32,59.52380952,,,,,,,,,,,,2348.2863,7.0,2348.2877,,,,2351.4356,2351.9339,2350.9198,2351.4355,2349.3019,62.0,2350.9197,2351.934,2352.4341,2352.4341,2352.4874,15.30000001,2352.4887,1.0,2353.4841,7.0,3.0,213.0,29.0,1.0,1.6,0.7,Time
,,S04,1,Female,34,anonymized,Serial_Dependence_U,2023.2.3,Win32,59.52380952,,,,,,,,,,,,2353.4852,7.0,2353.4864,,,,2356.4353,2356.9339,2355.9184,2356.4351,2354.5022,89.0,2355.9181,2356.934,2357.4339,2357.434,2357.7675,288.3,2357.7684,1.0,2358.7672,7.0,4.0,214.0,18.0,1.0,1.4,0.7,Time
,,S04,1,Female,34,anonymized,Serial_Dependence_U,2023.2.3,Win32,59.52380952,,,,,,,,,,,,2358.7695,7.0,2358.771,,,,2361.318,2361.8172,2360.8015,2361.3178,2359.7849,231.0,2360.8014,2361.8172,2362.3168,2362.317,2363.834,1469.9,2363.8349,5.0,2364.8336,7.0,5.0,215.0,6.0,1.0,1.0,0.7,Time
,,S04,1,Female,34,anonymized,Serial_Dependence_U,2023.2.3,Win32,59.52380952,,,,,,,,,,,,2364.8346,7.0,2364.8355,,,,2367.5845,2368.0833,2367.0679,2367.5843,2365.8516,253.0,2367.0679,2368.0833,2368.5831,2368.5831,2372.7505,4130.2,2372.7512,5.0,2373.7499,7.0,6.0,216.0,2.0,1.0,1.2,0.3,Time
,,S04,1,Female,34,anonymized,Serial_Dependence_U,2023.2.3,Win32,59.52380952,,,,,,,,,,,,2373.7518,7.0,2373.7532,,,,2376.5012,2376.9998,2375.9853,2376.5011,2374.7679,264.0,2375.9851,2376.9999,2377.4994,2377.4994,2383.517,9999.0,2383.5178,0.0,2384.5161,7.0,7.0,217.0,12.0,1.0,1.2,0.3,Time
,,S04,1,Female,34,anonymized,Serial_Dependence_U,2023.2.3,Win32,59.52380952,,,,,,,,,,,,2384.5171,7.0,2384.518,,,,2387.2672,2387.7659,2386.7506,2387.2671,2385.5348,262.0,2386.7505,2387.7659,2388.2659,2388.2662,2389.083,796.9,2389.0837,1.0,2390.0829,7.0,8.0,218.0,7.0,1.0,1.2,0.7,Time
,,S04,1,Female,34,anonymized,Serial_Dependence_U,2023.2.3,Win32,59.52380952,,,,,,,,,,,,2390.0868,7.0,2390.089,,,,2392.8336,2393.3322,2392.317,2392.8334,2391.1013,8.0,2392.3168,2393.3322,2393.832,2393.832,2399.8496,9999.0,2399.85,0.0,2400.8487,7.0,9.0,219.0,27.0,1.0,1.2,0.7,Time
,,S04,1,Female,34,anonymized,Serial_Dependence_U,2023.2.3,Win32,59.52380952,,,,,,,,,,,,2400.8505,7.0,2400.8521,,,,2403.3999,2403.8987,2402.8841,2403.3997,2401.8666,181.0,2402.8838,2403.8987,2404.3988,2404.399,2408.6321,4209.5,2408.6333,5.0,2409.6314,7.0,10.0,220.0,26.0,1.0,1.0,0.7,Time
,,S04,1,Female,34,anonymized,Serial_Dependence_U,2023.2.3,Win32,59.52380952,,,,,,,,,,,,2409.6333,7.0,2409.635,,,,2412.1827,2412.6813,2411.6668,2412.1825,2410.6494,173.0,2411.6665,2412.6814,2413.1818,2413.1818,2413.2324,31.79999995,2413.2335,1.0,2414.2318,7.0,11.0,221.0,16.0,1.0,1.0,0.7,Time
,,S04,1,Female,34,anonymized,Serial_Dependence_U,2023.2.3,Win32,59.52380952,,,,,,,,,,,,2414.2338,7.0,2414.2354,,,,2417.1659,2417.6642,2416.6529,2417.1656,2415.2491,319.0,2416.6526,2417.6643,2418.1645,2418.1646,2418.3322,120.5,2418.3331,1.0,2419.331,7.0,12.0,222.0,28.0,1.0,1.4,0.7,Time
,,S04,1,Female,34,anonymized,Serial_Dependence_U,2023.2.3,Win32,59.52380952,,,,,,,,,,,,2419.3325,7.0,2419.3336,,,,2422.0831,2422.5812,2421.5672,2422.0829,2420.3494,338.0,2421.567,2422.5813,2423.0808,2423.0808,2423.5982,67.30000001,2423.5997,1.0,2424.5981,7.0,13.0,223.0,22.0,1.0,1.2,0.3,Time
,,S04,1,Female,34,anonymized,Serial_Dependence_U,2023.2.3,Win32,59.52380952,,,,,,,,,,,,2424.6002,7.0,2424.6015,,,,2426.9496,2427.4475,2426.4323,2426.9494,2425.6178,267.0,2426.4321,2427.4477,2427.948,2427.948,2432.2317,4033.9,2432.2327,5.0,2433.2313,7.0,14.0,224.0,10.0,1.0,0.8,0.3,Time
,,S04,1,Female,34,anonymized,Serial_Dependence_U,2023.2.3,Win32,59.52380952,,,,,,,,,,,,2433.2331,7.0,2433.2341,,,,2435.7815,2436.2826,2435.2654,2435.7813,2434.2479,248.0,2435.2652,2436.2827,2436.7829,2436.783,2437.0524,248.0,2437.0532,1.0,2438.0512,7.0,15.0,225.0,11.0,1.0,1.0,0.3,Time
,,S04,1,Female,34,anonymized,Serial_Dependence_U,2023.2.3,Win32,59.52380952,,,,,,,,,,,,2438.053,7.0,2438.054,,,,2440.3885,2440.8803,2439.885,2440.3883,2439.0702,278.0,2439.8847,2440.8803,2441.3827,2441.3827,2445.9804,4231.4,2445.9816,5.0,2446.9801,7.0,16.0,226.0,20.0,1.0,0.8,0.3,Time
,,S04,1,Female,34,anonymized,Serial_Dependence_U,2023.2.3,Win32,59.52380952,,,,,,,,,,,,2446.9816,7.0,2446.9836,,,,2449.3311,2449.8299,2448.8146,2449.3309,2447.9991,291.0,2448.8143,2449.83,2450.3297,2450.3297,2452.7301,2362.1,2452.7313,5.0,2453.7299,7.0,17.0,227.0,5.0,1.0,0.8,0.7,Time
,,S04,1,Female,34,anonymized,Serial_Dependence_U,2023.2.3,Win32,59.52380952,,,,,,,,,,,,2453.7316,7.0,2453.7324,,,,2456.0832,2456.581,2455.5648,2456.0809,2454.7478,354.0,2455.5645,2456.5812,2457.0815,2457.0815,2493.703,9999.0,2493.7034,0.0,2494.4992,7.0,18.0,228.0,15.0,1.0,0.8,0.7,Time
,,S04,1,Female,34,anonymized,Serial_Dependence_U,2023.2.3,Win32,59.52380952,,,,,,,,,,,,2494.5002,7.0,2494.5009,,,,2496.8341,2497.3322,2496.3178,2496.834,2495.5132,98.0,2496.3177,2497.3323,2497.8273,2497.8274,2498.4683,292.2,2498.4689,1.0,2499.461,7.0,19.0,229.0,25.0,1.0,0.8,0.7,Time
,,S04,1,Female,34,anonymized,Serial_Dependence_U,2023.2.3,Win32,59.52380952,,,,,,,,,,,,2499.4627,7.0,2499.4635,,,,2502.5963,2503.0997,2502.0844,2502.5961,2500.479,190.0,2502.084,2503.0997,2503.5985,2503.5988,2506.8504,2957.6,2506.851,5.0,2507.8494,7.0,20.0,230.0,24.0,1.0,1.6,0.3,Time
,,S04,1,Female,34,anonymized,Serial_Dependence_U,2023.2.3,Win32,59.52380952,,,,,,,,,,,,2507.8513,7.0,2507.8522,,,,2510.1959,2510.6975,2509.6845,2510.1957,2508.8668,58.0,2509.6844,2510.6976,2511.1985,2511.1987,2511.5834,50.60000002,2511.5839,1.0,2512.5793,7.0,21.0,231.0,0.0,1.0,0.8,0.3,Time
,,S04,1,Female,34,anonymized,Serial_Dependence_U,2023.2.3,Win32,59.52380952,,,,,,,,,,,,2512.581,7.0,2512.5819,,,,2515.3334,2515.8296,2514.8168,2515.3333,2513.6002,191.0,2514.8167,2515.8297,2516.3321,2516.3321,2518.4665,2116.3,2518.4669,5.0,2519.4675,7.0,22.0,232.0,17.0,1.0,1.2,0.7,Time
,,S04,1,Female,34,anonymized,Serial_Dependence_U,2023.2.3,Win32,59.52380952,,,,,,,,,,,,2519.4692,7.0,2519.4703,,,,2522.6158,2523.115,2522.0953,2522.6157,2520.4827,34.0,2522.0952,2523.115,2523.6156,2523.6157,2526.2319,2597.2,2526.2324,5.0,2527.2318,7.0,23.0,233.0,19.0,1.0,1.6,0.7,Time
,,S04,1,Female,34,anonymized,Serial_Dependence_U,2023.2.3,Win32,59.52380952,,,,,,,,,,,,2527.2341,7.0,2527.2349,,,,2530.3823,2530.8764,2529.8653,2530.3822,2528.2491,336.0,2529.8651,2530.8765,2531.3801,2531.3802,2531.9481,144.7,2531.9486,1.0,2532.9426,7.0,24.0,234.0,9.0,1.0,1.6,0.7,Time
,,S04,1,Female,34,anonymized,Serial_Dependence_U,2023.2.3,Win32,59.52380952,,,,,,,,,,,,2532.9445,7.0,2532.9459,,,,2535.4937,2535.9928,2534.9782,2535.4935,2533.9602,97.0,2534.978,2535.9928,2536.4927,2536.4928,2542.4976,9999.0,2542.4983,0.0,2543.4922,7.0,25.0,235.0,1.0,1.0,1.0,0.3,Time
,,S04,1,Female,34,anonymized,Serial_Dependence_U,2023.2.3,Win32,59.52380952,,,,,,,,,,,,2543.4937,7.0,2543.4944,,,,2546.4493,2546.9425,2545.9317,2546.4491,2544.5145,24.0,2545.9315,2546.9426,2547.447,2547.4471,2549.3148,1616.3,2549.3153,4.0,2550.3133,7.0,26.0,236.0,13.0,1.0,1.4,0.3,Time
,,S04,1,Female,34,anonymized,Serial_Dependence_U,2023.2.3,Win32,59.52380952,,,,,,,,,,,,2550.3151,7.0,2550.3161,,,,2553.4425,2553.9414,2552.932,2553.4425,2551.3275,276.0,2552.9318,2553.9414,2554.4416,2554.4416,2556.1421,418.4,2556.1439,1.0,2557.1417,7.0,27.0,237.0,4.0,1.0,1.6,0.3,Time
,,S04,1,Female,34,anonymized,Serial_Dependence_U,2023.2.3,Win32,59.52380952,,,,,,,,,,,,2557.1433,7.0,2557.144,,,,2575.3923,2575.8907,2574.8754,2575.3922,2573.4635,67.0,2574.8751,2575.8907,2576.3907,2576.3908,2577.1244,715.2,2577.1254,1.0,2578.124,7.0,28.0,238.0,8.0,1.0,1.4,0.7,Time
,,S04,1,Female,34,anonymized,Serial_Dependence_U,2023.2.3,Win32,59.52380952,,,,,,,,,,,,2578.1266,7.0,2578.1282,,,,2581.2802,2581.7765,2580.7607,2581.2799,2579.1457,150.0,2580.7605,2581.7765,2582.2763,2582.2765,2582.4971,187.8,2582.4976,1.0,2583.4959,7.0,29.0,239.0,14.0,1.0,1.6,0.3,Time
,,S04,1,Female,34,anonymized,Serial_Dependence_U,2023.2.3,Win32,59.52380952,,,,,,,,,,,,2583.497,8.0,2585.5522,s,1.9992,0.0007,2588.6931,2589.1902,2588.1751,2588.693,2586.5584,282.0,2588.1748,2589.1903,2589.6904,2589.6904,2589.942,232.3,2589.9432,1.0,2590.9417,8.0,0.0,240.0,19.0,1.0,1.6,0.7,Time
,,S04,1,Female,34,anonymized,Serial_Dependence_U,2023.2.3,Win32,59.52380952,,,,,,,,,,,,2590.9438,8.0,2590.9499,,,,2593.6914,2594.1897,2593.1752,2593.6912,2591.9579,91.0,2593.1749,2594.1898,2594.69,2594.6901,2595.4904,762.6,2595.4916,1.0,2596.4739,8.0,1.0,241.0,17.0,1.0,1.2,0.7,Time
,,S04,1,Female,34,anonymized,Serial_Dependence_U,2023.2.3,Win32,59.52380952,,,,,,,,,,,,2596.4774,8.0,2596.4788,,,,2599.0244,2599.523,2598.5078,2599.0243,2597.4909,339.0,2598.5077,2599.5231,2602.3721,2602.3723,2608.381,9999.0,2608.3818,0.0,2609.373,8.0,2.0,242.0,1.0,1.0,1.0,0.3,Time
,,S04,1,Female,34,anonymized,Serial_Dependence_U,2023.2.3,Win32,59.52380952,,,,,,,,,,,,2609.3752,8.0,2609.3764,,,,2612.5247,2613.0227,2612.0074,2612.5246,2610.3909,22.0,2612.0072,2613.0227,2613.5225,2613.5225,2613.9393,101.0,2613.9405,1.0,2614.9409,8.0,3.0,243.0,4.0,1.0,1.6,0.3,Time
,,S04,1,Female,34,anonymized,Serial_Dependence_U,2023.2.3,Win32,59.52380952,,,,,,,,,,,,2614.942,8.0,2614.9427,,,,2617.8787,2618.372,2617.375,2617.8784,2615.9588,234.0,2617.3749,2618.3721,2618.8725,2618.8726,2619.3277,31.19999999,2619.3282,1.0,2620.326,8.0,4.0,244.0,28.0,1.0,1.4,0.7,Time
,,S04,1,Female,34,anonymized,Serial_Dependence_U,2023.2.3,Win32,59.52380952,,,,,,,,,,,,2620.3272,8.0,2620.3281,,,,2622.8733,2623.3731,2622.3569,2622.873,2621.3406,151.0,2622.3566,2623.3731,2623.8718,2623.8719,2624.0223,45.79999995,2624.0236,1.0,2625.022,8.0,5.0,245.0,26.0,1.0,1.0,0.7,Time
,,S04,1,Female,34,anonymized,Serial_Dependence_U,2023.2.3,Win32,59.52380952,,,,,,,,,,,,2625.0239,8.0,2625.0253,,,,2628.1736,2628.6721,2627.6569,2628.1734,2626.0394,264.0,2627.6567,2628.6722,2629.1718,2629.1719,2630.1894,223.4,2630.1907,1.0,2631.1879,8.0,6.0,246.0,24.0,1.0,1.6,0.3,Time
,,S04,1,Female,34,anonymized,Serial_Dependence_U,2023.2.3,Win32,59.52380952,,,,,,,,,,,,2631.1894,8.0,2631.1905,,,,2634.1401,2634.6389,2633.6244,2634.1398,2632.2066,114.0,2633.6243,2634.6389,2635.1385,2635.1386,2636.0387,637.2,2636.0399,1.0,2637.0386,8.0,7.0,247.0,18.0,1.0,1.4,0.7,Time
,,S04,1,Female,34,anonymized,Serial_Dependence_U,2023.2.3,Win32,59.52380952,,,,,,,,,,,,2637.04,8.0,2637.0411,,,,2639.5895,2640.089,2639.073,2639.5892,2638.0568,52.0,2639.0727,2640.0891,2640.5882,2640.5883,2640.8216,208.8,2640.8227,1.0,2641.8209,8.0,8.0,248.0,6.0,1.0,1.0,0.7,Time
,,S04,1,Female,34,anonymized,Serial_Dependence_U,2023.2.3,Win32,59.52380952,,,,,,,,,,,,2641.8222,8.0,2641.8235,,,,2644.9722,2645.4709,2644.4556,2644.9721,2642.8394,58.0,2644.4553,2645.4709,2645.9711,2645.9712,2649.1768,2915.9,2649.1774,5.0,2650.1709,8.0,9.0,249.0,14.0,1.0,1.6,0.3,Time
,,S04,1,Female,34,anonymized,Serial_Dependence_U,2023.2.3,Win32,59.52380952,,,,,,,,,,,,2650.1727,8.0,2650.1743,,,,2652.7059,2653.2042,2652.1936,2652.7057,2651.1769,96.0,2652.1934,2653.2043,2653.694,2653.6942,2659.7047,9999.0,2659.7057,0.0,2660.7041,8.0,10.0,250.0,16.0,1.0,1.0,0.7,Time
,,S04,1,Female,34,anonymized,Serial_Dependence_U,2023.2.3,Win32,59.52380952,,,,,,,,,,,,2660.7058,8.0,2660.7069,,,,2663.4582,2663.9532,2662.942,2663.458,2661.7219,218.0,2662.9415,2663.9533,2664.4532,2664.4533,2667.0702,2516.3,2667.0711,5.0,2668.07,8.0,11.0,251.0,2.0,1.0,1.2,0.3,Time
,,S04,1,Female,34,anonymized,Serial_Dependence_U,2023.2.3,Win32,59.52380952,,,,,,,,,,,,2668.0721,8.0,2668.0733,,,,2672.6216,2673.1216,2672.1091,2672.6215,2670.8938,295.0,2672.1089,2673.1217,2673.6201,2673.6202,2682.1436,9999.0,2682.1442,0.0,2682.9389,8.0,12.0,252.0,27.0,1.0,1.2,0.7,Time
,,S04,1,Female,34,anonymized,Serial_Dependence_U,2023.2.3,Win32,59.52380952,,,,,,,,,,,,2682.9414,8.0,2682.9423,,,,2685.6763,2686.1694,2685.1742,2685.6761,2683.9582,251.0,2685.1737,2686.1695,2686.6691,2686.6692,2686.7036,18.90000004,2686.7047,1.0,2687.7023,8.0,13.0,253.0,22.0,1.0,1.2,0.3,Time
,,S04,1,Female,34,anonymized,Serial_Dependence_U,2023.2.3,Win32,59.52380952,,,,,,,,,,,,2687.7037,8.0,2687.7047,,,,2690.2547,2690.7522,2689.7367,2690.2545,2688.7217,288.0,2689.7364,2690.7522,2691.2521,2691.2521,2691.636,79.39999998,2691.637,1.0,2692.6358,8.0,14.0,254.0,21.0,1.0,1.0,0.3,Time
,,S04,1,Female,34,anonymized,Serial_Dependence_U,2023.2.3,Win32,59.52380952,,,,,,,,,,,,2692.6374,8.0,2692.6384,,,,2695.3872,2695.8855,2694.8718,2695.3869,2693.6542,44.0,2694.8716,2695.8856,2696.3854,2696.3855,2697.3022,799.5,2697.3033,1.0,2698.302,8.0,15.0,255.0,7.0,1.0,1.2,0.7,Time
,,S04,1,Female,34,anonymized,Serial_Dependence_U,2023.2.3,Win32,59.52380952,,,,,,,,,,,,2698.3034,8.0,2698.3046,,,,2701.2536,2701.7521,2700.7378,2701.2534,2699.3195,250.0,2700.7374,2701.7522,2702.2535,2702.2535,2702.6364,15.39999998,2702.64,1.0,2703.6358,8.0,16.0,256.0,8.0,1.0,1.4,0.7,Time
,,S04,1,Female,34,anonymized,Serial_Dependence_U,2023.2.3,Win32,59.52380952,,,,,,,,,,,,2703.6379,8.0,2703.6391,,,,2705.9883,2706.4873,2705.473,2705.988,2704.6573,205.0,2705.4725,2706.4873,2706.9846,2706.9847,2708.191,716.9,2708.1919,2.0,2709.1851,8.0,17.0,257.0,10.0,1.0,0.8,0.3,Time
,,S04,1,Female,34,anonymized,Serial_Dependence_U,2023.2.3,Win32,59.52380952,,,,,,,,,,,,2709.1876,8.0,2709.189,,,,2711.5405,2712.0394,2711.0201,2711.5403,2710.2079,179.0,2711.0199,2712.0395,2712.5394,2712.5395,2713.2017,251.0,2713.2023,1.0,2714.201,8.0,18.0,258.0,5.0,1.0,0.8,0.7,Time
,,S04,1,Female,34,anonymized,Serial_Dependence_U,2023.2.3,Win32,59.52380952,,,,,,,,,,,,2714.2025,8.0,2714.2036,,,,2717.1404,2717.6354,2716.6242,2717.1403,2715.2072,220.0,2716.624,2717.6355,2718.1394,2718.1396,2718.5243,182.6,2718.5249,1.0,2719.5238,8.0,19.0,259.0,23.0,1.0,1.4,0.3,Time
,,S04,1,Female,34,anonymized,Serial_Dependence_U,2023.2.3,Win32,59.52380952,,,,,,,,,,,,2719.5254,8.0,2719.5263,,,,2722.6748,2723.1723,2722.1571,2722.6747,2720.542,319.0,2722.1569,2723.1723,2723.6724,2723.6725,2724.9428,863.8,2724.9436,1.0,2725.9398,8.0,20.0,260.0,29.0,1.0,1.6,0.7,Time
,,S04,1,Female,34,anonymized,Serial_Dependence_U,2023.2.3,Win32,59.52380952,,,,,,,,,,,,2725.9413,8.0,2725.9424,,,,2728.2903,2728.7882,2727.7738,2728.2901,2726.9569,302.0,2727.7738,2728.7882,2729.2906,2729.2907,2730.1007,783.1,2730.1019,3.0,2731.1054,8.0,21.0,261.0,0.0,1.0,0.8,0.3,Time
,,S04,1,Female,34,anonymized,Serial_Dependence_U,2023.2.3,Win32,59.52380952,,,,,,,,,,,,2731.1073,8.0,2731.1086,,,,2733.8524,2734.3508,2733.3367,2733.8522,2732.1185,147.0,2733.3363,2734.3509,2734.8504,2734.8504,2739.7837,4685.9,2739.7848,5.0,2740.7832,8.0,22.0,262.0,12.0,1.0,1.2,0.3,Time
,,S04,1,Female,34,anonymized,Serial_Dependence_U,2023.2.3,Win32,59.52380952,,,,,,,,,,,,2740.7852,8.0,2740.7861,,,,2743.3196,2743.8168,2742.8064,2743.3195,2741.8013,335.0,2742.8062,2743.8169,2744.3179,2744.3181,2749.3666,5027.2,2749.3676,5.0,2750.3667,8.0,23.0,263.0,11.0,1.0,1.0,0.3,Time
,,S04,1,Female,34,anonymized,Serial_Dependence_U,2023.2.3,Win32,59.52380952,,,,,,,,,,,,2750.3686,8.0,2750.37,,,,2752.718,2753.2164,2752.2016,2752.7177,2751.3844,237.0,2752.2009,2753.2165,2753.7167,2753.7168,2759.7201,9999.0,2759.721,0.0,2760.7157,8.0,24.0,264.0,25.0,1.0,0.8,0.7,Time
,,S04,1,Female,34,anonymized,Serial_Dependence_U,2023.2.3,Win32,59.52380952,,,,,,,,,,,,2760.7181,8.0,2760.7195,,,,2763.8564,2764.3489,2763.3382,2763.8563,2761.7209,145.0,2763.3381,2764.349,2764.8372,2764.8373,2766.7066,1474.9,2766.7073,2.0,2767.699,8.0,25.0,265.0,9.0,1.0,1.6,0.7,Time
,,S04,1,Female,34,anonymized,Serial_Dependence_U,2023.2.3,Win32,59.52380952,,,,,,,,,,,,2767.7007,8.0,2767.7023,,,,2770.6386,2771.1367,2770.1226,2770.6384,2768.7054,155.0,2770.1224,2771.1367,2771.6375,2771.6376,2772.1556,484.1,2772.1562,1.0,2773.1483,8.0,26.0,266.0,3.0,1.0,1.4,0.3,Time
,,S04,1,Female,34,anonymized,Serial_Dependence_U,2023.2.3,Win32,59.52380952,,,,,,,,,,,,2773.1496,8.0,2773.1513,,,,2775.4998,2776.0016,2774.9833,2775.4997,2774.1663,57.0,2774.9832,2776.0017,2776.4994,2776.4995,2777.14,615.4,2777.141,2.0,2778.1313,8.0,27.0,267.0,15.0,1.0,0.8,0.7,Time
,,S04,1,Female,34,anonymized,Serial_Dependence_U,2023.2.3,Win32,59.52380952,,,,,,,,,,,,2778.1335,8.0,2778.1345,,,,2780.4825,2780.9816,2779.967,2780.4824,2779.1494,278.0,2779.9668,2780.9816,2781.4818,2781.4818,2785.02,3298.4,2785.0208,5.0,2786.0143,8.0,28.0,268.0,20.0,1.0,0.8,0.3,Time
,,S04,1,Female,34,anonymized,Serial_Dependence_U,2023.2.3,Win32,59.52380952,,,,,,,,,,,,2786.0156,8.0,2786.0172,,,,2788.9654,2789.464,2788.4488,2788.9652,2787.0322,44.0,2788.4486,2789.4641,2789.9652,2789.9653,2794.2213,4133.8,2794.2218,5.0,2795.2185,8.0,29.0,269.0,13.0,1.0,1.4,0.3,Time
