Scale_setup.started,Scale_setup.stopped,participant,session,sex,age,date,expName,psychopyVersion,OS,frameRate,screen_scale_keys.started,screen_scale_keys.stopped,X Scale,Y Scale,rectangel_keys.started,rectangel_keys.stopped,Intro.started,Intro.stopped,key_resp_2.keys,key_resp_2.rt,key_resp_2.duration,block.started,Block_id,block.stopped,Block_resp_2.keys,Block_resp_2.rt,Block_resp_2.duration,ITI.started,ITI.stopped,Mask_2.started,Mask_2.stopped,M2.started,direction,M2.stopped,Cue.started,Cue.stopped,Response.started,Response.stopped,keyDuration,Feedback_Time.started,FeedbackID_T,Feedback_Time.stopped,trials.thisRepN,trials.thisTrialN,trials.thisN,trials.thisIndex,trials.ran,TimeDur,Coherence1,TrialType
0.0003,0.0005,S05,1,Male,26,anonymized,Serial_Dependence_U,2023.2.3,Win32,48.07692308,,,,,,,,,,,,,,,,,,,,,,,,,,,,,,,,,,,,,,,,
,,S05,1,Male,26,anonymized,Serial_Dependence_U,2023.2.3,Win32,48.07692308,0.0023,548.1811,0.0585,0.0581,548.1822,561.9287,561.9299,586.1661,space,24.1275,,,,,,,,,,,,,,,,,,,,,,,,,,,,,,
,,S05,1,Male,26,anonymized,Serial_Dependence_U,2023.2.3,Win32,48.07692308,,,,,,,,,,,,586.2025,0.0,589.0214,s,2.7697,,592.1736,592.6652,591.6538,592.1733,590.0295,325.0,591.6537,592.6662,593.168,593.1693,597.1953,2105.3,597.1973,5.0,598.1854,0.0,0.0,0.0,9.0,1.0,1.6,0.7,Time
,,S05,1,Male,26,anonymized,Serial_Dependence_U,2023.2.3,Win32,48.07692308,,,,,,,,,,,,598.1869,0.0,598.191,,,,601.1445,601.6426,600.6241,601.1443,599.208,320.0,600.624,601.6427,602.1428,602.1429,603.6015,768.3,603.6023,1.0,604.6012,0.0,1.0,1.0,28.0,1.0,1.4,0.7,Time
,,S05,1,Male,26,anonymized,Serial_Dependence_U,2023.2.3,Win32,48.07692308,,,,,,,,,,,,604.6025,0.0,604.6035,,,,607.7477,608.2459,607.2272,607.7475,605.6228,243.0,607.227,608.246,608.7462,608.7464,609.276,125.0,609.2764,1.0,610.2674,0.0,2.0,2.0,14.0,1.0,1.6,0.3,Time
,,S05,1,Male,26,anonymized,Serial_Dependence_U,2023.2.3,Win32,48.07692308,,,,,,,,,,,,610.2691,0.0,610.2701,,,,613.2149,613.7046,612.6918,613.214,611.2751,83.0,612.6917,613.7049,614.2075,614.2077,616.1915,1123.5,616.1919,2.0,617.1825,0.0,3.0,3.0,13.0,1.0,1.4,0.3,Time
,,S05,1,Male,26,anonymized,Serial_Dependence_U,2023.2.3,Win32,48.07692308,,,,,,,,,,,,617.1847,0.0,617.1854,,,,619.9201,620.4114,619.4168,619.9199,618.2112,60.0,619.4166,620.4115,620.9112,620.9112,622.524,947.4,622.5243,2.0,623.5158,0.0,4.0,4.0,7.0,1.0,1.2,0.7,Time
,,S05,1,Male,26,anonymized,Serial_Dependence_U,2023.2.3,Win32,48.07692308,,,,,,,,,,,,623.5177,0.0,623.5186,,,,626.4607,626.9523,625.9408,626.4604,624.5235,117.0,625.9402,626.9524,627.4534,627.4538,629.0245,1542.4,629.025,4.0,630.0152,0.0,5.0,5.0,23.0,1.0,1.4,0.3,Time
,,S05,1,Male,26,anonymized,Serial_Dependence_U,2023.2.3,Win32,48.07692308,,,,,,,,,,,,630.0168,0.0,630.0176,,,,632.5644,633.0562,632.043,632.5643,631.0227,153.0,632.0427,633.0563,633.5562,633.5563,635.2103,875.1,635.2107,2.0,636.2073,0.0,6.0,6.0,6.0,1.0,1.0,0.7,Time
,,S05,1,Male,26,anonymized,Serial_Dependence_U,2023.2.3,Win32,48.07692308,,,,,,,,,,,,636.2086,0.0,636.2096,,,,638.9175,639.4096,638.4147,638.9174,637.2089,29.0,638.4144,639.4097,639.9094,639.9096,641.751,1082.6,641.7513,2.0,642.7422,0.0,7.0,7.0,22.0,1.0,1.2,0.3,Time
,,S05,1,Male,26,anonymized,Serial_Dependence_U,2023.2.3,Win32,48.07692308,,,,,,,,,,,,642.7437,0.0,642.7442,,,,645.4795,645.9709,644.9586,645.4792,643.7473,138.0,644.9584,645.971,646.4715,646.4717,648.6472,1260.7,648.6476,4.0,649.6406,0.0,8.0,8.0,27.0,1.0,1.2,0.7,Time
,,S05,1,Male,26,anonymized,Serial_Dependence_U,2023.2.3,Win32,48.07692308,,,,,,,,,,,,649.642,0.0,649.6426,,,,651.9776,652.4705,651.4575,651.9774,650.6457,307.0,651.4573,652.4706,652.97,652.9702,654.3333,544.9,654.3337,1.0,655.3239,0.0,9.0,9.0,0.0,1.0,0.8,0.3,Time
,,S05,1,Male,26,anonymized,Serial_Dependence_U,2023.2.3,Win32,48.07692308,,,,,,,,,,,,655.3251,0.0,655.3257,,,,657.6446,658.1362,657.1378,657.6445,656.326,53.0,657.1377,658.1363,658.6365,658.6366,660.6241,824.2,660.6243,3.0,661.6147,0.0,10.0,10.0,25.0,1.0,0.8,0.7,Time
,,S05,1,Male,26,anonymized,Serial_Dependence_U,2023.2.3,Win32,48.07692308,,,,,,,,,,,,661.616,0.0,661.6165,,,,663.97,664.4689,663.4531,663.9699,662.6373,126.0,663.4495,664.469,664.969,664.9694,666.4902,707.5,666.4908,2.0,667.4893,0.0,11.0,11.0,20.0,1.0,0.8,0.3,Time
,,S05,1,Male,26,anonymized,Serial_Dependence_U,2023.2.3,Win32,48.07692308,,,,,,,,,,,,667.4904,0.0,667.4909,,,,670.0321,670.5307,669.5115,670.032,668.4933,3.0,669.5114,670.5308,671.0309,671.031,672.8434,1061.9,672.844,4.0,673.8426,0.0,12.0,12.0,26.0,1.0,1.0,0.7,Time
,,S05,1,Male,26,anonymized,Serial_Dependence_U,2023.2.3,Win32,48.07692308,,,,,,,,,,,,673.8436,0.0,673.8442,,,,676.1984,676.6965,675.6773,676.1983,674.8651,98.0,675.6772,676.6965,677.1965,677.1966,678.9266,707.5,678.927,2.0,679.9253,0.0,13.0,13.0,15.0,1.0,0.8,0.7,Time
,,S05,1,Male,26,anonymized,Serial_Dependence_U,2023.2.3,Win32,48.07692308,,,,,,,,,,,,679.9265,0.0,679.9271,,,,682.6766,683.1748,682.1557,682.6764,680.9471,320.0,682.1556,683.175,683.6746,683.6748,685.4051,1021.5,685.4055,2.0,686.4034,0.0,14.0,14.0,17.0,1.0,1.2,0.7,Time
,,S05,1,Male,26,anonymized,Serial_Dependence_U,2023.2.3,Win32,48.07692308,,,,,,,,,,,,686.4046,0.0,686.4053,,,,689.3629,689.8614,688.8421,689.3628,687.426,94.0,688.8419,689.8614,690.3615,690.3617,691.9044,1058.2,691.9048,2.0,692.9028,0.0,15.0,15.0,8.0,1.0,1.4,0.7,Time
,,S05,1,Male,26,anonymized,Serial_Dependence_U,2023.2.3,Win32,48.07692308,,,,,,,,,,,,692.9039,0.0,692.9044,,,,696.0294,696.5272,695.5084,696.0292,693.9044,116.0,695.5082,696.5274,697.0276,697.0277,699.0703,1292.7,699.0706,2.0,700.0689,0.0,16.0,16.0,19.0,1.0,1.6,0.7,Time
,,S05,1,Male,26,anonymized,Serial_Dependence_U,2023.2.3,Win32,48.07692308,,,,,,,,,,,,700.07,0.0,700.0706,,,,703.1952,703.6934,702.6809,703.1949,701.0781,59.0,702.6807,703.6935,704.1933,704.1935,706.285,1696.5,706.2853,4.0,707.2761,0.0,17.0,17.0,24.0,1.0,1.6,0.3,Time
,,S05,1,Male,26,anonymized,Serial_Dependence_U,2023.2.3,Win32,48.07692308,,,,,,,,,,,,707.2772,0.0,707.2777,,,,709.6111,710.1089,709.0902,709.6109,708.2779,236.0,709.09,710.109,710.6094,710.6096,711.9436,709.4,711.944,2.0,712.9422,0.0,18.0,18.0,5.0,1.0,0.8,0.7,Time
,,S05,1,Male,26,anonymized,Serial_Dependence_U,2023.2.3,Win32,48.07692308,,,,,,,,,,,,712.9434,0.0,712.9439,,,,715.902,716.4,715.3811,715.9019,713.9647,158.0,715.3809,716.4001,716.9002,716.9005,718.9635,1162.8,718.9638,2.0,719.962,0.0,19.0,19.0,18.0,1.0,1.4,0.7,Time
,,S05,1,Male,26,anonymized,Serial_Dependence_U,2023.2.3,Win32,48.07692308,,,,,,,,,,,,719.9632,0.0,719.9637,,,,722.5262,723.0243,722.0054,722.5261,720.9844,116.0,722.0051,723.0245,723.5243,723.5244,725.6503,1228.8,725.6508,4.0,726.6489,0.0,20.0,20.0,21.0,1.0,1.0,0.3,Time
,,S05,1,Male,26,anonymized,Serial_Dependence_U,2023.2.3,Win32,48.07692308,,,,,,,,,,,,726.6499,0.0,726.6505,,,,729.7958,730.2944,729.2754,729.7956,727.6715,51.0,729.275,730.2944,730.7944,730.7948,732.6705,1041.1,732.6709,1.0,733.6693,0.0,21.0,21.0,4.0,1.0,1.6,0.3,Time
,,S05,1,Male,26,anonymized,Serial_Dependence_U,2023.2.3,Win32,48.07692308,,,,,,,,,,,,733.6705,0.0,733.6712,,,,736.3996,736.898,735.8791,736.3994,734.6729,100.0,735.8789,736.8981,737.3984,737.3985,739.3569,1287.2,739.3572,4.0,740.3557,0.0,22.0,22.0,12.0,1.0,1.2,0.3,Time
,,S05,1,Male,26,anonymized,Serial_Dependence_U,2023.2.3,Win32,48.07692308,,,,,,,,,,,,740.3569,0.0,740.3578,,,,742.9196,743.4178,742.3989,742.9195,741.3769,258.0,742.3988,743.4178,743.9176,743.9178,745.5025,979.7,745.5029,3.0,746.5011,0.0,23.0,23.0,1.0,1.0,1.0,0.3,Time
,,S05,1,Male,26,anonymized,Serial_Dependence_U,2023.2.3,Win32,48.07692308,,,,,,,,,,,,746.5022,0.0,746.5028,,,,749.2314,749.7294,748.7105,749.2311,747.5024,142.0,748.7102,749.7295,750.2295,750.2296,752.0849,1082.3,752.0852,2.0,753.0837,0.0,24.0,24.0,2.0,1.0,1.2,0.3,Time
,,S05,1,Male,26,anonymized,Serial_Dependence_U,2023.2.3,Win32,48.07692308,,,,,,,,,,,,753.0852,0.0,753.0859,,,,755.6125,756.104,755.1094,755.6123,754.0911,61.0,755.1092,756.104,756.6042,756.6042,758.8623,1227.7,758.8625,4.0,759.8535,0.0,25.0,25.0,11.0,1.0,1.0,0.3,Time
,,S05,1,Male,26,anonymized,Serial_Dependence_U,2023.2.3,Win32,48.07692308,,,,,,,,,,,,759.8546,0.0,759.8552,,,,762.4174,762.9156,761.8965,762.4171,760.8759,287.0,761.8964,762.9158,763.4152,763.4154,764.9584,915.9,764.9588,2.0,765.9567,0.0,26.0,26.0,16.0,1.0,1.0,0.7,Time
,,S05,1,Male,26,anonymized,Serial_Dependence_U,2023.2.3,Win32,48.07692308,,,,,,,,,,,,765.958,0.0,765.9586,,,,769.09,769.5819,768.5833,769.0898,766.9624,331.0,768.5831,769.5821,770.0816,770.0817,771.9239,1252.9,771.9242,2.0,772.9153,0.0,27.0,27.0,29.0,1.0,1.6,0.7,Time
,,S05,1,Male,26,anonymized,Serial_Dependence_U,2023.2.3,Win32,48.07692308,,,,,,,,,,,,772.9171,0.0,772.918,,,,775.2553,775.7475,774.738,775.2552,773.9226,31.0,774.7348,775.7476,776.2477,776.2479,780.7561,1857.2,780.7564,5.0,781.7467,0.0,28.0,28.0,10.0,1.0,0.8,0.3,Time
,,S05,1,Male,26,anonymized,Serial_Dependence_U,2023.2.3,Win32,48.07692308,,,,,,,,,,,,781.7478,0.0,781.7484,,,,784.7058,785.2048,784.1851,784.7057,782.7691,282.0,784.1849,785.2048,785.7045,785.7046,788.9972,1700.0,788.9976,4.0,789.9956,0.0,29.0,29.0,3.0,1.0,1.4,0.3,Time
,,S05,1,Male,26,anonymized,Serial_Dependence_U,2023.2.3,Win32,48.07692308,,,,,,,,,,,,789.9966,1.0,795.3082,s,5.2775,,798.2675,798.7653,797.7466,798.2673,796.3301,139.0,797.7464,798.7654,799.2655,799.2656,800.996,1199.5,800.9965,2.0,801.9944,1.0,0.0,30.0,18.0,1.0,1.4,0.7,Time
,,S05,1,Male,26,anonymized,Serial_Dependence_U,2023.2.3,Win32,48.07692308,,,,,,,,,,,,801.9958,1.0,801.9985,,,,805.1268,805.6195,804.6061,805.1266,803.0027,13.0,804.6058,805.6198,806.1188,806.1189,808.0019,1368.3,808.0022,2.0,808.9944,1.0,1.0,31.0,29.0,1.0,1.6,0.7,Time
,,S05,1,Male,26,anonymized,Serial_Dependence_U,2023.2.3,Win32,48.07692308,,,,,,,,,,,,808.9966,1.0,808.9975,,,,812.1473,812.6392,811.6266,812.1471,810.002,264.0,811.6264,812.6392,813.1388,813.139,815.0228,1186.8,815.0234,2.0,816.014,1.0,2.0,32.0,14.0,1.0,1.6,0.3,Time
,,S05,1,Male,26,anonymized,Serial_Dependence_U,2023.2.3,Win32,48.07692308,,,,,,,,,,,,816.0155,1.0,816.0162,,,,818.376,818.868,817.8543,818.3758,817.0437,124.0,817.8541,818.8681,819.368,819.3682,821.2924,1252.7,821.2927,5.0,822.2839,1.0,3.0,33.0,25.0,1.0,0.8,0.7,Time
,,S05,1,Male,26,anonymized,Serial_Dependence_U,2023.2.3,Win32,48.07692308,,,,,,,,,,,,822.285,1.0,822.2855,,,,824.8268,825.3249,824.3059,824.8267,823.2856,359.0,824.3057,825.325,825.8247,825.8249,829.4923,1077.6,829.4927,4.0,830.4912,1.0,4.0,34.0,21.0,1.0,1.0,0.3,Time
,,S05,1,Male,26,anonymized,Serial_Dependence_U,2023.2.3,Win32,48.07692308,,,,,,,,,,,,830.4922,1.0,830.4928,,,,832.8464,833.3449,832.3258,832.8463,831.5135,266.0,832.3256,833.345,833.8448,833.8448,835.2002,882.6,835.2006,4.0,836.1985,1.0,5.0,35.0,5.0,1.0,0.8,0.7,Time
,,S05,1,Male,26,anonymized,Serial_Dependence_U,2023.2.3,Win32,48.07692308,,,,,,,,,,,,836.1997,1.0,836.2002,,,,839.1585,839.6565,838.6377,839.1583,837.2211,161.0,838.6375,839.6566,840.1566,840.1567,842.0327,1415.9,842.033,3.0,843.031,1.0,6.0,36.0,13.0,1.0,1.4,0.3,Time
,,S05,1,Male,26,anonymized,Serial_Dependence_U,2023.2.3,Win32,48.07692308,,,,,,,,,,,,843.0321,1.0,843.0327,,,,845.7822,846.2809,845.2618,845.7819,844.0538,259.0,845.2616,846.281,846.7809,846.781,848.5319,1140.7,848.5322,3.0,849.5309,1.0,7.0,37.0,12.0,1.0,1.2,0.3,Time
,,S05,1,Male,26,anonymized,Serial_Dependence_U,2023.2.3,Win32,48.07692308,,,,,,,,,,,,849.5322,1.0,849.5332,,,,852.282,852.7799,851.7613,852.2818,850.553,246.0,851.7611,852.7801,853.2798,853.2799,855.3436,1021.9,855.3441,2.0,856.342,1.0,8.0,38.0,7.0,1.0,1.2,0.7,Time
,,S05,1,Male,26,anonymized,Serial_Dependence_U,2023.2.3,Win32,48.07692308,,,,,,,,,,,,856.3432,1.0,856.3438,,,,859.2809,859.779,858.7597,859.2808,857.3438,266.0,858.7595,859.7791,860.2793,860.2794,862.6135,1290.1,862.6139,2.0,863.6123,1.0,9.0,39.0,23.0,1.0,1.4,0.3,Time
,,S05,1,Male,26,anonymized,Serial_Dependence_U,2023.2.3,Win32,48.07692308,,,,,,,,,,,,863.6133,1.0,863.6139,,,,866.572,867.0699,866.0508,866.5718,864.6342,65.0,866.0507,867.07,867.57,867.5703,870.3003,1402.3,870.3006,3.0,871.2992,1.0,10.0,40.0,8.0,1.0,1.4,0.7,Time
,,S05,1,Male,26,anonymized,Serial_Dependence_U,2023.2.3,Win32,48.07692308,,,,,,,,,,,,871.3003,1.0,871.3008,,,,873.8627,874.3608,873.3418,873.8626,872.3212,313.0,873.3418,874.3608,874.8607,874.8607,876.3619,630.4,876.3622,1.0,877.3606,1.0,11.0,41.0,1.0,1.0,1.0,0.3,Time
,,S05,1,Male,26,anonymized,Serial_Dependence_U,2023.2.3,Win32,48.07692308,,,,,,,,,,,,877.3617,1.0,877.3622,,,,880.5078,881.0068,879.9874,880.5077,878.3832,43.0,879.9873,881.007,881.5068,881.5068,883.7159,1123.2,883.7163,2.0,884.7139,1.0,12.0,42.0,24.0,1.0,1.6,0.3,Time
,,S05,1,Male,26,anonymized,Serial_Dependence_U,2023.2.3,Win32,48.07692308,,,,,,,,,,,,884.715,1.0,884.7157,,,,887.8407,888.3382,887.3195,887.8405,885.7155,43.0,887.3194,888.3383,888.8384,888.8385,891.4639,1623.2,891.4643,3.0,892.4629,1.0,13.0,43.0,4.0,1.0,1.6,0.3,Time
,,S05,1,Male,26,anonymized,Serial_Dependence_U,2023.2.3,Win32,48.07692308,,,,,,,,,,,,892.4641,1.0,892.4646,,,,895.2003,895.6923,894.6795,895.2001,893.4708,265.0,894.6792,895.6924,896.1925,896.1929,898.1793,1166.5,898.1798,3.0,899.1711,1.0,14.0,44.0,22.0,1.0,1.2,0.3,Time
,,S05,1,Male,26,anonymized,Serial_Dependence_U,2023.2.3,Win32,48.07692308,,,,,,,,,,,,899.1732,1.0,899.1738,,,,902.3455,902.837,901.8243,902.3454,900.2007,209.0,901.8242,902.837,903.3371,903.3372,905.8042,1607.7,905.8044,3.0,906.795,1.0,15.0,45.0,9.0,1.0,1.6,0.7,Time
,,S05,1,Male,26,anonymized,Serial_Dependence_U,2023.2.3,Win32,48.07692308,,,,,,,,,,,,906.7968,1.0,906.7974,,,,909.5674,910.065,909.053,909.5673,907.8246,128.0,909.0528,910.0651,910.5652,910.5653,912.7817,1374.3,912.782,4.0,913.773,1.0,16.0,46.0,27.0,1.0,1.2,0.7,Time
,,S05,1,Male,26,anonymized,Serial_Dependence_U,2023.2.3,Win32,48.07692308,,,,,,,,,,,,913.7742,1.0,913.7747,,,,916.5243,917.0223,916.0036,916.5242,914.7954,298.0,916.0035,917.0224,917.5227,917.5228,919.8778,1473.0,919.8781,4.0,920.8763,1.0,17.0,47.0,17.0,1.0,1.2,0.7,Time
,,S05,1,Male,26,anonymized,Serial_Dependence_U,2023.2.3,Win32,48.07692308,,,,,,,,,,,,920.8772,1.0,920.8778,,,,923.232,923.7299,922.7112,923.2319,921.8987,294.0,922.711,923.73,924.23,924.2301,927.002,1458.2,927.0024,5.0,928.0002,1.0,18.0,48.0,20.0,1.0,0.8,0.3,Time
,,S05,1,Male,26,anonymized,Serial_Dependence_U,2023.2.3,Win32,48.07692308,,,,,,,,,,,,928.0011,1.0,928.0014,,,,930.3565,930.8548,929.8354,930.3564,929.023,195.0,929.8353,930.8548,931.3549,931.355,932.3974,719.7,932.3978,2.0,933.3959,1.0,19.0,49.0,10.0,1.0,0.8,0.3,Time
,,S05,1,Male,26,anonymized,Serial_Dependence_U,2023.2.3,Win32,48.07692308,,,,,,,,,,,,933.3975,1.0,933.3982,,,,936.3554,936.8534,935.8346,936.3553,934.4183,24.0,935.8344,936.8534,937.3533,937.3533,939.0418,1187.4,939.0422,2.0,940.0409,1.0,20.0,50.0,3.0,1.0,1.4,0.3,Time
,,S05,1,Male,26,anonymized,Serial_Dependence_U,2023.2.3,Win32,48.07692308,,,,,,,,,,,,940.042,1.0,940.0426,,,,943.1669,943.6654,942.6462,943.1667,941.0423,123.0,942.646,943.6654,944.1655,944.1656,945.979,1477.1,945.9794,2.0,946.9775,1.0,21.0,51.0,19.0,1.0,1.6,0.7,Time
,,S05,1,Male,26,anonymized,Serial_Dependence_U,2023.2.3,Win32,48.07692308,,,,,,,,,,,,946.9785,1.0,946.979,,,,949.3123,949.8105,948.7915,949.3121,947.9794,185.0,948.7913,949.8107,950.3106,950.3106,951.7073,750.8,951.7078,2.0,952.7058,1.0,22.0,52.0,0.0,1.0,0.8,0.3,Time
,,S05,1,Male,26,anonymized,Serial_Dependence_U,2023.2.3,Win32,48.07692308,,,,,,,,,,,,952.707,1.0,952.7076,,,,955.2699,955.768,954.7491,955.2698,953.7284,145.0,954.7489,955.768,956.2684,956.2685,958.311,1313.6,958.3113,5.0,959.3092,1.0,23.0,53.0,26.0,1.0,1.0,0.7,Time
,,S05,1,Male,26,anonymized,Serial_Dependence_U,2023.2.3,Win32,48.07692308,,,,,,,,,,,,959.3103,1.0,959.3107,,,,961.8734,962.3713,961.3524,961.8733,960.3321,108.0,961.3523,962.3713,962.8713,962.8716,964.3517,894.8,964.3522,2.0,965.3503,1.0,24.0,54.0,6.0,1.0,1.0,0.7,Time
,,S05,1,Male,26,anonymized,Serial_Dependence_U,2023.2.3,Win32,48.07692308,,,,,,,,,,,,965.3516,1.0,965.3522,,,,968.2893,968.7875,967.7685,968.2891,966.352,278.0,967.7684,968.7875,969.2875,969.2876,970.851,1106.5,970.8514,2.0,971.8494,1.0,25.0,55.0,28.0,1.0,1.4,0.7,Time
,,S05,1,Male,26,anonymized,Serial_Dependence_U,2023.2.3,Win32,48.07692308,,,,,,,,,,,,971.8507,1.0,971.8513,,,,974.3927,974.8907,973.8718,974.3926,972.8513,50.0,973.8717,974.8907,975.3908,975.391,977.2466,1103.6,977.2469,4.0,978.2447,1.0,26.0,56.0,16.0,1.0,1.0,0.7,Time
,,S05,1,Male,26,anonymized,Serial_Dependence_U,2023.2.3,Win32,48.07692308,,,,,,,,,,,,978.246,1.0,978.2466,,,,980.8085,981.3071,980.2879,980.8084,979.2671,50.0,980.2877,981.3073,981.8068,981.8069,983.6204,1200.4,983.6208,4.0,984.6187,1.0,27.0,57.0,11.0,1.0,1.0,0.3,Time
,,S05,1,Male,26,anonymized,Serial_Dependence_U,2023.2.3,Win32,48.07692308,,,,,,,,,,,,984.6198,1.0,984.6204,,,,986.9745,987.4726,986.4535,986.9744,985.6412,338.0,986.4533,987.4727,987.9732,987.9733,989.224,742.3,989.2245,2.0,990.2225,1.0,28.0,58.0,15.0,1.0,0.8,0.7,Time
,,S05,1,Male,26,anonymized,Serial_Dependence_U,2023.2.3,Win32,48.07692308,,,,,,,,,,,,990.2234,1.0,990.2239,,,,992.9738,993.4719,992.4531,992.9737,991.2449,13.0,992.4529,993.4719,993.9723,993.9724,995.4732,950.6,995.4736,2.0,996.4718,1.0,29.0,59.0,2.0,1.0,1.2,0.3,Time
,,S05,1,Male,26,anonymized,Serial_Dependence_U,2023.2.3,Win32,48.07692308,,,,,,,,,,,,996.473,2.0,998.5968,s,2.0881,,1001.7436,1002.2417,1001.2227,1001.7434,999.6195,334.0,1001.2225,1002.2418,1002.7422,1002.7424,1003.452,249.5,1003.4525,1.0,1004.4499,2.0,0.0,60.0,14.0,1.0,1.6,0.3,Time
,,S05,1,Male,26,anonymized,Serial_Dependence_U,2023.2.3,Win32,48.07692308,,,,,,,,,,,,1004.4511,2.0,1004.4548,,,,1007.0141,1007.5121,1006.4931,1007.0139,1005.4719,78.0,1006.4928,1007.5121,1008.0122,1008.0123,1009.5337,998.8,1009.5341,3.0,1010.5325,2.0,1.0,61.0,6.0,1.0,1.0,0.7,Time
,,S05,1,Male,26,anonymized,Serial_Dependence_U,2023.2.3,Win32,48.07692308,,,,,,,,,,,,1010.5337,2.0,1010.5342,,,,1012.8881,1013.3866,1012.3675,1012.888,1011.5549,205.0,1012.3673,1013.3867,1013.8862,1013.8863,1015.4914,875.1,1015.4919,4.0,1016.4902,2.0,2.0,62.0,5.0,1.0,0.8,0.7,Time
,,S05,1,Male,26,anonymized,Serial_Dependence_U,2023.2.3,Win32,48.07692308,,,,,,,,,,,,1016.4913,2.0,1016.4917,,,,1019.4501,1019.9481,1018.9291,1019.45,1017.5126,60.0,1018.9288,1019.9481,1020.4486,1020.4487,1022.0948,920.9,1022.0951,1.0,1023.0935,2.0,3.0,63.0,18.0,1.0,1.4,0.7,Time
,,S05,1,Male,26,anonymized,Serial_Dependence_U,2023.2.3,Win32,48.07692308,,,,,,,,,,,,1023.0947,2.0,1023.0951,,,,1025.8451,1026.3432,1025.3243,1025.8449,1024.1157,199.0,1025.3242,1026.3434,1026.843,1026.8431,1028.615,873.3,1028.6154,2.0,1029.6138,2.0,4.0,64.0,2.0,1.0,1.2,0.3,Time
,,S05,1,Male,26,anonymized,Serial_Dependence_U,2023.2.3,Win32,48.07692308,,,,,,,,,,,,1029.6148,2.0,1029.6155,,,,1031.9692,1032.4671,1031.4487,1031.969,1030.6361,127.0,1031.4485,1032.4672,1032.9673,1032.9674,1034.7401,979.0,1034.7405,4.0,1035.7381,2.0,5.0,65.0,10.0,1.0,0.8,0.3,Time
,,S05,1,Male,26,anonymized,Serial_Dependence_U,2023.2.3,Win32,48.07692308,,,,,,,,,,,,1035.7393,2.0,1035.7398,,,,1038.8858,1039.3833,1038.3645,1038.8857,1036.76,336.0,1038.3642,1039.3834,1039.8836,1039.8838,1042.1755,1369.9,1042.176,2.0,1043.175,2.0,6.0,66.0,4.0,1.0,1.6,0.3,Time
,,S05,1,Male,26,anonymized,Serial_Dependence_U,2023.2.3,Win32,48.07692308,,,,,,,,,,,,1043.1765,2.0,1043.1774,,,,1045.9259,1046.4243,1045.4053,1045.9258,1044.1966,251.0,1045.4052,1046.4244,1046.9242,1046.9243,1048.8419,1190.0,1048.8423,3.0,1049.8405,2.0,7.0,67.0,17.0,1.0,1.2,0.7,Time
,,S05,1,Male,26,anonymized,Serial_Dependence_U,2023.2.3,Win32,48.07692308,,,,,,,,,,,,1049.8416,2.0,1049.8421,,,,1052.4045,1052.9027,1051.8835,1052.4043,1050.8631,352.0,1051.8833,1052.9027,1053.4025,1053.4027,1054.9455,1000.1,1054.9459,3.0,1055.9442,2.0,8.0,68.0,1.0,1.0,1.0,0.3,Time
,,S05,1,Male,26,anonymized,Serial_Dependence_U,2023.2.3,Win32,48.07692308,,,,,,,,,,,,1055.9452,2.0,1055.9457,,,,1058.9033,1059.4014,1058.382,1058.9032,1056.9645,162.0,1058.3819,1059.4014,1059.9019,1059.902,1061.8611,1169.9,1061.8619,2.0,1062.8598,2.0,9.0,69.0,3.0,1.0,1.4,0.3,Time
,,S05,1,Male,26,anonymized,Serial_Dependence_U,2023.2.3,Win32,48.07692308,,,,,,,,,,,,1062.8608,2.0,1062.8615,,,,1065.4239,1065.9221,1064.9028,1065.4237,1063.8823,304.0,1064.9027,1065.9222,1066.4224,1066.4226,1068.2156,1315.9,1068.2164,5.0,1069.2132,2.0,10.0,70.0,26.0,1.0,1.0,0.7,Time
,,S05,1,Male,26,anonymized,Serial_Dependence_U,2023.2.3,Win32,48.07692308,,,,,,,,,,,,1069.2142,2.0,1069.2148,,,,1071.9646,1072.4629,1071.4438,1071.9644,1070.2358,74.0,1071.4435,1072.463,1072.9635,1072.9636,1078.9849,9999.0,1078.9852,0.0,1079.983,2.0,11.0,71.0,12.0,1.0,1.2,0.3,Time
,,S05,1,Male,26,anonymized,Serial_Dependence_U,2023.2.3,Win32,48.07692308,,,,,,,,,,,,1079.9841,2.0,1079.9845,,,,1082.3384,1082.8366,1081.8176,1082.3381,1081.0055,200.0,1081.8175,1082.8366,1083.3367,1083.3368,1087.9416,869.0,1087.942,4.0,1088.9403,2.0,12.0,72.0,20.0,1.0,0.8,0.3,Time
,,S05,1,Male,26,anonymized,Serial_Dependence_U,2023.2.3,Win32,48.07692308,,,,,,,,,,,,1088.9414,2.0,1088.9419,,,,1092.0873,1092.5856,1091.5665,1092.0872,1089.9621,300.0,1091.5663,1092.5856,1093.0856,1093.0857,1094.3994,1227.4,1094.3998,2.0,1095.3979,2.0,13.0,73.0,29.0,1.0,1.6,0.7,Time
,,S05,1,Male,26,anonymized,Serial_Dependence_U,2023.2.3,Win32,48.07692308,,,,,,,,,,,,1095.399,2.0,1095.3996,,,,1098.5449,1099.0432,1098.0241,1098.5447,1096.4202,252.0,1098.024,1099.0432,1099.5431,1099.5433,1101.2525,1541.8,1101.2529,3.0,1102.2512,2.0,14.0,74.0,24.0,1.0,1.6,0.3,Time
,,S05,1,Male,26,anonymized,Serial_Dependence_U,2023.2.3,Win32,48.07692308,,,,,,,,,,,,1102.2522,2.0,1102.2528,,,,1104.8146,1105.3134,1104.2938,1104.8144,1103.2735,301.0,1104.2937,1105.3134,1105.8132,1105.8134,1107.5023,1054.7,1107.5026,4.0,1108.5003,2.0,15.0,75.0,16.0,1.0,1.0,0.7,Time
,,S05,1,Male,26,anonymized,Serial_Dependence_U,2023.2.3,Win32,48.07692308,,,,,,,,,,,,1108.5016,2.0,1108.5021,,,,1111.2517,1111.7502,1110.7309,1111.2516,1109.5229,345.0,1110.7306,1111.7502,1112.2499,1112.25,1113.6255,978.8,1113.6259,2.0,1114.6245,2.0,16.0,76.0,27.0,1.0,1.2,0.7,Time
,,S05,1,Male,26,anonymized,Serial_Dependence_U,2023.2.3,Win32,48.07692308,,,,,,,,,,,,1114.6258,2.0,1114.6263,,,,1117.7757,1118.2701,1117.2578,1117.7756,1115.6472,316.0,1117.2576,1118.2701,1118.7704,1118.7704,1120.466,1127.9,1120.4664,2.0,1121.4577,2.0,17.0,77.0,9.0,1.0,1.6,0.7,Time
,,S05,1,Male,26,anonymized,Serial_Dependence_U,2023.2.3,Win32,48.07692308,,,,,,,,,,,,1121.4598,2.0,1121.4605,,,,1124.4173,1124.9152,1123.8967,1124.4171,1122.4803,259.0,1123.8965,1124.9152,1125.4154,1125.4156,1127.3746,1393.4,1127.3749,3.0,1128.3729,2.0,18.0,78.0,23.0,1.0,1.4,0.3,Time
,,S05,1,Male,26,anonymized,Serial_Dependence_U,2023.2.3,Win32,48.07692308,,,,,,,,,,,,1128.3744,2.0,1128.3751,,,,1130.937,1131.4349,1130.4161,1130.9369,1129.395,273.0,1130.416,1131.4349,1131.9357,1131.9358,1133.9568,1249.1,1133.9571,4.0,1134.9555,2.0,19.0,79.0,21.0,1.0,1.0,0.3,Time
,,S05,1,Male,26,anonymized,Serial_Dependence_U,2023.2.3,Win32,48.07692308,,,,,,,,,,,,1134.9567,2.0,1134.9573,,,,1137.3114,1137.8094,1136.7902,1137.3112,1135.9777,54.0,1136.7901,1137.8094,1138.3092,1138.3094,1139.8106,1001.3,1139.811,4.0,1140.8089,2.0,20.0,80.0,15.0,1.0,0.8,0.7,Time
,,S05,1,Male,26,anonymized,Serial_Dependence_U,2023.2.3,Win32,48.07692308,,,,,,,,,,,,1140.8105,2.0,1140.8111,,,,1143.748,1144.2462,1143.2271,1143.7478,1141.8112,258.0,1143.2268,1144.2463,1144.7463,1144.7463,1146.4556,1139.5,1146.456,2.0,1147.4543,2.0,21.0,81.0,8.0,1.0,1.4,0.7,Time
,,S05,1,Male,26,anonymized,Serial_Dependence_U,2023.2.3,Win32,48.07692308,,,,,,,,,,,,1147.4554,2.0,1147.4559,,,,1149.8099,1150.308,1149.2889,1149.8098,1148.4766,0.0,1149.2886,1150.3081,1150.8077,1150.8079,1152.9965,1187.1,1152.997,5.0,1153.9951,2.0,22.0,82.0,25.0,1.0,0.8,0.7,Time
,,S05,1,Male,26,anonymized,Serial_Dependence_U,2023.2.3,Win32,48.07692308,,,,,,,,,,,,1153.9963,2.0,1153.9969,,,,1156.3299,1156.8279,1155.8092,1156.3297,1154.9967,266.0,1155.809,1156.8279,1157.3286,1157.3289,1159.558,1331.8,1159.5586,5.0,1160.5572,2.0,23.0,83.0,0.0,1.0,0.8,0.3,Time
,,S05,1,Male,26,anonymized,Serial_Dependence_U,2023.2.3,Win32,48.07692308,,,,,,,,,,,,1160.5583,2.0,1160.5588,,,,1163.5166,1164.0146,1162.9957,1163.5165,1161.5792,264.0,1162.9955,1164.0147,1164.5145,1164.5146,1166.1819,1172.3,1166.1823,2.0,1167.1819,2.0,24.0,84.0,28.0,1.0,1.4,0.7,Time
,,S05,1,Male,26,anonymized,Serial_Dependence_U,2023.2.3,Win32,48.07692308,,,,,,,,,,,,1167.183,2.0,1167.1836,,,,1169.9325,1170.4307,1169.4115,1169.9324,1168.2033,254.0,1169.4113,1170.4309,1170.9309,1170.9309,1173.1608,1451.4,1173.1613,4.0,1174.1596,2.0,25.0,85.0,7.0,1.0,1.2,0.7,Time
,,S05,1,Male,26,anonymized,Serial_Dependence_U,2023.2.3,Win32,48.07692308,,,,,,,,,,,,1174.1607,2.0,1174.1612,,,,1176.9108,1177.4095,1176.39,1176.9106,1175.1813,171.0,1176.3898,1177.4096,1177.9096,1177.9097,1179.5559,1184.0,1179.5563,3.0,1180.5547,2.0,26.0,86.0,22.0,1.0,1.2,0.3,Time
,,S05,1,Male,26,anonymized,Serial_Dependence_U,2023.2.3,Win32,48.07692308,,,,,,,,,,,,1180.5557,2.0,1180.5563,,,,1183.1186,1183.6164,1182.5976,1183.1182,1181.5764,261.0,1182.5974,1183.6165,1184.1163,1184.1166,1185.514,895.9,1185.5143,2.0,1186.5121,2.0,27.0,87.0,11.0,1.0,1.0,0.3,Time
,,S05,1,Male,26,anonymized,Serial_Dependence_U,2023.2.3,Win32,48.07692308,,,,,,,,,,,,1186.5132,2.0,1186.5139,,,,1189.6593,1190.1576,1189.1381,1189.6591,1187.5341,67.0,1189.1379,1190.1577,1190.6573,1190.6574,1192.4924,1608.5,1192.4928,3.0,1193.4905,2.0,28.0,88.0,19.0,1.0,1.6,0.7,Time
,,S05,1,Male,26,anonymized,Serial_Dependence_U,2023.2.3,Win32,48.07692308,,,,,,,,,,,,1193.4917,2.0,1193.4922,,,,1196.4513,1196.9489,1195.9356,1196.4511,1194.5128,168.0,1195.9354,1196.949,1197.4483,1197.4486,1199.27,1666.2,1199.2704,4.0,1200.2606,2.0,29.0,89.0,13.0,1.0,1.4,0.3,Time
,,S05,1,Male,26,anonymized,Serial_Dependence_U,2023.2.3,Win32,48.07692308,,,,,,,,,,,,1200.2617,3.0,1202.0736,s,1.7819,,1205.0327,1205.5309,1204.5118,1205.0325,1203.0952,346.0,1204.5117,1205.5311,1206.0309,1206.031,1207.532,1395.6,1207.5323,3.0,1208.5304,3.0,0.0,90.0,13.0,1.0,1.4,0.3,Time
,,S05,1,Male,26,anonymized,Serial_Dependence_U,2023.2.3,Win32,48.07692308,,,,,,,,,,,,1208.5315,3.0,1208.5349,,,,1211.2819,1211.7799,1210.7609,1211.2817,1209.5528,61.0,1210.7607,1211.78,1212.2797,1212.2799,1214.0933,1399.9,1214.0938,4.0,1215.0921,3.0,1.0,91.0,12.0,1.0,1.2,0.3,Time
,,S05,1,Male,26,anonymized,Serial_Dependence_U,2023.2.3,Win32,48.07692308,,,,,,,,,,,,1215.0935,3.0,1215.0942,,,,1217.6352,1218.1333,1217.1206,1217.635,1216.1007,88.0,1217.1204,1218.1334,1218.6339,1218.634,1220.6632,1269.7,1220.6635,4.0,1221.6541,3.0,2.0,92.0,11.0,1.0,1.0,0.3,Time
,,S05,1,Male,26,anonymized,Serial_Dependence_U,2023.2.3,Win32,48.07692308,,,,,,,,,,,,1221.6558,3.0,1221.6564,,,,1224.2039,1224.6956,1223.6824,1224.2036,1222.6623,52.0,1223.6822,1224.6957,1225.1954,1225.1956,1226.746,821.2,1226.7464,2.0,1227.7368,3.0,3.0,93.0,26.0,1.0,1.0,0.7,Time
,,S05,1,Male,26,anonymized,Serial_Dependence_U,2023.2.3,Win32,48.07692308,,,,,,,,,,,,1227.7379,3.0,1227.7387,,,,1230.0922,1230.5904,1229.5714,1230.0921,1228.7642,359.0,1229.5712,1230.5905,1231.0902,1231.0904,1232.8206,897.4,1232.8211,4.0,1233.8191,3.0,4.0,94.0,10.0,1.0,0.8,0.3,Time
,,S05,1,Male,26,anonymized,Serial_Dependence_U,2023.2.3,Win32,48.07692308,,,,,,,,,,,,1233.8203,3.0,1233.8207,,,,1236.5705,1237.0681,1236.0497,1236.5704,1234.8416,60.0,1236.0495,1237.0681,1237.5685,1237.5686,1239.1532,1167.8,1239.1536,3.0,1240.1519,3.0,5.0,95.0,27.0,1.0,1.2,0.7,Time
,,S05,1,Male,26,anonymized,Serial_Dependence_U,2023.2.3,Win32,48.07692308,,,,,,,,,,,,1240.1528,3.0,1240.1536,,,,1242.8825,1243.3803,1242.3615,1242.8823,1241.1536,315.0,1242.3614,1243.3804,1243.8805,1243.8806,1245.5478,1023.0,1245.5482,2.0,1246.5466,3.0,6.0,96.0,22.0,1.0,1.2,0.3,Time
,,S05,1,Male,26,anonymized,Serial_Dependence_U,2023.2.3,Win32,48.07692308,,,,,,,,,,,,1246.548,3.0,1246.5485,,,,1249.1107,1249.6088,1248.5899,1249.1105,1247.5687,5.0,1248.5897,1249.6089,1250.1087,1250.1088,1251.7974,934.1,1251.7978,2.0,1252.7959,3.0,7.0,97.0,6.0,1.0,1.0,0.7,Time
,,S05,1,Male,26,anonymized,Serial_Dependence_U,2023.2.3,Win32,48.07692308,,,,,,,,,,,,1252.797,3.0,1252.7975,,,,1255.1516,1255.6497,1254.6308,1255.1514,1253.8174,12.0,1254.6306,1255.6498,1256.15,1256.15,1257.4218,707.2,1257.4222,2.0,1258.4206,3.0,8.0,98.0,20.0,1.0,0.8,0.3,Time
,,S05,1,Male,26,anonymized,Serial_Dependence_U,2023.2.3,Win32,48.07692308,,,,,,,,,,,,1258.4217,3.0,1258.4221,,,,1261.3797,1261.8782,1260.8591,1261.3795,1259.4428,173.0,1260.8589,1261.8782,1262.3789,1262.379,1264.6293,1544.9,1264.6297,4.0,1265.6283,3.0,9.0,99.0,18.0,1.0,1.4,0.7,Time
,,S05,1,Male,26,anonymized,Serial_Dependence_U,2023.2.3,Win32,48.07692308,,,,,,,,,,,,1265.6296,3.0,1265.6302,,,,1268.3585,1268.8567,1267.8372,1268.3584,1266.6297,77.0,1267.8369,1268.8568,1269.3567,1269.3568,1270.6911,980.9,1270.6916,2.0,1271.6898,3.0,10.0,100.0,17.0,1.0,1.2,0.7,Time
,,S05,1,Male,26,anonymized,Serial_Dependence_U,2023.2.3,Win32,48.07692308,,,,,,,,,,,,1271.6908,3.0,1271.6914,,,,1274.0454,1274.5446,1273.5245,1274.0452,1272.7121,167.0,1273.5243,1274.5446,1275.0436,1275.0437,1276.1696,933.7,1276.1701,4.0,1277.1682,3.0,11.0,101.0,5.0,1.0,0.8,0.7,Time
,,S05,1,Male,26,anonymized,Serial_Dependence_U,2023.2.3,Win32,48.07692308,,,,,,,,,,,,1277.1693,3.0,1277.1698,,,,1279.5239,1280.0219,1279.003,1279.5237,1278.1906,107.0,1279.0028,1280.0219,1280.5218,1280.522,1281.9398,853.8,1281.9402,4.0,1282.9383,3.0,12.0,102.0,15.0,1.0,0.8,0.7,Time
,,S05,1,Male,26,anonymized,Serial_Dependence_U,2023.2.3,Win32,48.07692308,,,,,,,,,,,,1282.9394,3.0,1282.9399,,,,1285.8977,1286.3961,1285.3772,1285.8976,1283.9609,111.0,1285.377,1286.3962,1286.896,1286.8962,1288.6684,1125.9,1288.6688,2.0,1289.6666,3.0,13.0,103.0,3.0,1.0,1.4,0.3,Time
,,S05,1,Male,26,anonymized,Serial_Dependence_U,2023.2.3,Win32,48.07692308,,,,,,,,,,,,1289.6678,3.0,1289.6684,,,,1292.022,1292.5207,1291.501,1292.0219,1290.6886,242.0,1291.5008,1292.5207,1293.0204,1293.0204,1294.3546,832.3,1294.3551,3.0,1295.3541,3.0,14.0,104.0,0.0,1.0,0.8,0.3,Time
,,S05,1,Male,26,anonymized,Serial_Dependence_U,2023.2.3,Win32,48.07692308,,,,,,,,,,,,1295.3553,3.0,1295.3558,,,,1298.5008,1298.9988,1297.9803,1298.5007,1296.3761,34.0,1297.9802,1298.9988,1299.4989,1299.499,1301.3127,1103.7,1301.3131,1.0,1302.311,3.0,15.0,105.0,24.0,1.0,1.6,0.3,Time
,,S05,1,Male,26,anonymized,Serial_Dependence_U,2023.2.3,Win32,48.07692308,,,,,,,,,,,,1302.3123,3.0,1302.3131,,,,1305.2711,1305.7691,1304.7501,1305.2709,1303.3336,329.0,1304.75,1305.7692,1306.2691,1306.2692,1308.6242,1665.5,1308.6247,4.0,1309.623,3.0,16.0,106.0,8.0,1.0,1.4,0.7,Time
,,S05,1,Male,26,anonymized,Serial_Dependence_U,2023.2.3,Win32,48.07692308,,,,,,,,,,,,1309.6242,3.0,1309.6248,,,,1311.9573,1312.4556,1311.4367,1311.9571,1310.6244,340.0,1311.4365,1312.4558,1312.9556,1312.9557,1314.624,932.1,1314.6245,4.0,1315.622,3.0,17.0,107.0,25.0,1.0,0.8,0.7,Time
,,S05,1,Male,26,anonymized,Serial_Dependence_U,2023.2.3,Win32,48.07692308,,,,,,,,,,,,1315.6232,3.0,1315.6237,,,,1318.5817,1319.08,1318.0609,1318.5816,1316.6445,46.0,1318.0607,1319.0801,1319.5797,1319.5798,1321.2688,1208.5,1321.2691,2.0,1322.267,3.0,18.0,108.0,23.0,1.0,1.4,0.3,Time
,,S05,1,Male,26,anonymized,Serial_Dependence_U,2023.2.3,Win32,48.07692308,,,,,,,,,,,,1322.2682,3.0,1322.2688,,,,1324.8306,1325.3294,1324.3103,1324.8304,1323.2896,343.0,1324.3102,1325.3294,1325.8292,1325.8293,1327.5591,1107.9,1327.5595,4.0,1328.558,3.0,19.0,109.0,16.0,1.0,1.0,0.7,Time
,,S05,1,Male,26,anonymized,Serial_Dependence_U,2023.2.3,Win32,48.07692308,,,,,,,,,,,,1328.5592,3.0,1328.5597,,,,1331.1221,1331.6201,1330.6012,1331.122,1329.5806,202.0,1330.6011,1331.6202,1332.12,1332.1202,1333.4755,888.3,1333.4759,2.0,1334.4743,3.0,20.0,110.0,1.0,1.0,1.0,0.3,Time
,,S05,1,Male,26,anonymized,Serial_Dependence_U,2023.2.3,Win32,48.07692308,,,,,,,,,,,,1334.4754,3.0,1334.4759,,,,1337.2255,1337.7236,1336.7047,1337.2253,1335.4966,79.0,1336.7045,1337.7237,1338.2236,1338.2237,1339.9332,1063.2,1339.9336,2.0,1340.9319,3.0,21.0,111.0,7.0,1.0,1.2,0.7,Time
,,S05,1,Male,26,anonymized,Serial_Dependence_U,2023.2.3,Win32,48.07692308,,,,,,,,,,,,1340.9328,3.0,1340.9335,,,,1344.0789,1344.5769,1343.558,1344.0787,1341.9541,99.0,1343.5579,1344.5769,1345.0767,1345.077,1347.0361,1544.9,1347.0365,3.0,1348.0349,3.0,22.0,112.0,29.0,1.0,1.6,0.7,Time
,,S05,1,Male,26,anonymized,Serial_Dependence_U,2023.2.3,Win32,48.07692308,,,,,,,,,,,,1348.0359,3.0,1348.0365,,,,1350.5991,1351.0969,1350.0781,1350.5989,1349.0582,6.0,1350.0781,1351.0971,1351.597,1351.597,1353.4317,1042.0,1353.4321,3.0,1354.4305,3.0,23.0,113.0,21.0,1.0,1.0,0.3,Time
,,S05,1,Male,26,anonymized,Serial_Dependence_U,2023.2.3,Win32,48.07692308,,,,,,,,,,,,1354.4318,3.0,1354.4323,,,,1357.3898,1357.888,1356.8691,1357.3896,1355.4526,3.0,1356.869,1357.888,1358.3878,1358.3879,1360.6386,1456.2,1360.639,3.0,1361.6379,3.0,24.0,114.0,28.0,1.0,1.4,0.7,Time
,,S05,1,Male,26,anonymized,Serial_Dependence_U,2023.2.3,Win32,48.07692308,,,,,,,,,,,,1361.6392,3.0,1361.64,,,,1364.7643,1365.2621,1364.2432,1364.7641,1362.6393,198.0,1364.243,1365.2621,1365.7628,1365.763,1368.159,1438.8,1368.1595,2.0,1369.1575,3.0,25.0,115.0,4.0,1.0,1.6,0.3,Time
,,S05,1,Male,26,anonymized,Serial_Dependence_U,2023.2.3,Win32,48.07692308,,,,,,,,,,,,1369.1586,3.0,1369.1592,,,,1372.2902,1372.7825,1371.7636,1372.2901,1370.1594,323.0,1371.7634,1372.7826,1373.2829,1373.2831,1375.5822,1520.0,1375.5825,2.0,1376.5736,3.0,26.0,116.0,19.0,1.0,1.6,0.7,Time
,,S05,1,Male,26,anonymized,Serial_Dependence_U,2023.2.3,Win32,48.07692308,,,,,,,,,,,,1376.575,3.0,1376.5756,,,,1379.3078,1379.8021,1378.7898,1379.3077,1377.5826,103.0,1378.7896,1379.8022,1380.3026,1380.3026,1382.061,1062.0,1382.0612,2.0,1383.0517,3.0,27.0,117.0,2.0,1.0,1.2,0.3,Time
,,S05,1,Male,26,anonymized,Serial_Dependence_U,2023.2.3,Win32,48.07692308,,,,,,,,,,,,1383.0536,3.0,1383.0542,,,,1386.1844,1386.6765,1385.6643,1386.1842,1384.0573,293.0,1385.6641,1386.6765,1387.1767,1387.1768,1389.3306,1457.8,1389.3308,2.0,1390.3225,3.0,28.0,118.0,9.0,1.0,1.6,0.7,Time
,,S05,1,Male,26,anonymized,Serial_Dependence_U,2023.2.3,Win32,48.07692308,,,,,,,,,,,,1390.3243,3.0,1390.325,,,,1393.455,1393.9464,1392.9333,1393.4549,1391.3296,223.0,1392.9331,1393.9466,1394.4466,1394.4467,1396.8091,1603.6,1396.8094,3.0,1397.8002,3.0,29.0,119.0,14.0,1.0,1.6,0.3,Time
,,S05,1,Male,26,anonymized,Serial_Dependence_U,2023.2.3,Win32,48.07692308,,,,,,,,,,,,1397.8017,4.0,1399.8428,s,2.0099,,1402.6003,1403.0914,1402.0786,1402.6001,1400.8709,111.0,1402.0783,1403.0915,1403.5767,1403.5768,1405.3683,1227.2,1405.3685,3.0,1406.362,4.0,0.0,120.0,7.0,1.0,1.2,0.7,Time
,,S05,1,Male,26,anonymized,Serial_Dependence_U,2023.2.3,Win32,48.07692308,,,,,,,,,,,,1406.3632,4.0,1406.3666,,,,1408.703,1409.1946,1408.1792,1408.7028,1407.3698,79.0,1408.1791,1409.1946,1409.6946,1409.6946,1411.5998,1312.4,1411.6002,5.0,1412.5904,4.0,1.0,121.0,20.0,1.0,0.8,0.3,Time
,,S05,1,Male,26,anonymized,Serial_Dependence_U,2023.2.3,Win32,48.07692308,,,,,,,,,,,,1412.5918,4.0,1412.5923,,,,1415.3415,1415.8395,1414.8206,1415.3413,1413.6124,205.0,1414.8204,1415.8396,1416.3397,1416.3398,1418.1528,1422.6,1418.1532,4.0,1419.1519,4.0,2.0,122.0,22.0,1.0,1.2,0.3,Time
,,S05,1,Male,26,anonymized,Serial_Dependence_U,2023.2.3,Win32,48.07692308,,,,,,,,,,,,1419.153,4.0,1419.1536,,,,1422.1112,1422.6097,1421.5907,1422.1111,1420.1742,120.0,1421.5905,1422.6098,1423.1094,1423.1095,1425.0275,1309.0,1425.0279,2.0,1426.0262,4.0,3.0,123.0,3.0,1.0,1.4,0.3,Time
,,S05,1,Male,26,anonymized,Serial_Dependence_U,2023.2.3,Win32,48.07692308,,,,,,,,,,,,1426.0272,4.0,1426.0277,,,,1428.7774,1429.2754,1428.2564,1428.7772,1427.0484,18.0,1428.2561,1429.2755,1429.7753,1429.7755,1431.3392,1145.6,1431.3396,3.0,1432.3381,4.0,4.0,124.0,17.0,1.0,1.2,0.7,Time
,,S05,1,Male,26,anonymized,Serial_Dependence_U,2023.2.3,Win32,48.07692308,,,,,,,,,,,,1432.3392,4.0,1432.3397,,,,1434.9018,1435.4001,1434.3808,1434.9016,1433.3604,269.0,1434.3806,1435.4002,1435.8997,1435.8997,1437.4018,1085.8,1437.4021,4.0,1438.3999,4.0,5.0,125.0,21.0,1.0,1.0,0.3,Time
,,S05,1,Male,26,anonymized,Serial_Dependence_U,2023.2.3,Win32,48.07692308,,,,,,,,,,,,1438.4011,4.0,1438.4016,,,,1440.9636,1441.4626,1440.4419,1440.9634,1439.4221,190.0,1440.4418,1441.4626,1441.962,1441.9621,1443.9216,1208.5,1443.922,4.0,1444.92,4.0,6.0,126.0,16.0,1.0,1.0,0.7,Time
,,S05,1,Male,26,anonymized,Serial_Dependence_U,2023.2.3,Win32,48.07692308,,,,,,,,,,,,1444.9215,4.0,1444.9221,,,,1447.88,1448.378,1447.3587,1447.88,1445.9421,353.0,1447.3585,1448.378,1448.8782,1448.8784,1450.6704,1287.3,1450.6707,2.0,1451.6689,4.0,7.0,127.0,13.0,1.0,1.4,0.3,Time
,,S05,1,Male,26,anonymized,Serial_Dependence_U,2023.2.3,Win32,48.07692308,,,,,,,,,,,,1451.67,4.0,1451.6706,,,,1454.816,1455.3144,1454.2951,1454.8159,1452.6913,276.0,1454.2949,1455.3144,1455.8143,1455.8143,1458.5238,1874.6,1458.5241,4.0,1459.5219,4.0,8.0,128.0,9.0,1.0,1.6,0.7,Time
,,S05,1,Male,26,anonymized,Serial_Dependence_U,2023.2.3,Win32,48.07692308,,,,,,,,,,,,1459.523,4.0,1459.5234,,,,1462.0716,1462.5634,1461.5652,1462.0714,1460.5446,282.0,1461.5651,1462.5635,1463.0636,1463.0637,1464.9262,1062.2,1464.9265,4.0,1465.9172,4.0,9.0,129.0,6.0,1.0,1.0,0.7,Time
,,S05,1,Male,26,anonymized,Serial_Dependence_U,2023.2.3,Win32,48.07692308,,,,,,,,,,,,1465.9187,4.0,1465.9194,,,,1469.0501,1469.5419,1468.5297,1469.05,1466.926,143.0,1468.5295,1469.5419,1470.042,1470.0422,1472.3633,1750.2,1472.3636,4.0,1473.3542,4.0,10.0,130.0,29.0,1.0,1.6,0.7,Time
,,S05,1,Male,26,anonymized,Serial_Dependence_U,2023.2.3,Win32,48.07692308,,,,,,,,,,,,1473.3558,4.0,1473.3565,,,,1476.2927,1476.7909,1475.7773,1476.2926,1474.3621,170.0,1475.7772,1476.7909,1477.2914,1477.2914,1479.341,1238.3,1479.3414,2.0,1480.3321,4.0,11.0,131.0,23.0,1.0,1.4,0.3,Time
,,S05,1,Male,26,anonymized,Serial_Dependence_U,2023.2.3,Win32,48.07692308,,,,,,,,,,,,1480.3332,4.0,1480.3338,,,,1482.6878,1483.186,1482.1671,1482.6877,1481.353,282.0,1482.167,1483.186,1483.686,1483.6861,1485.1452,644.4,1485.1458,2.0,1486.1441,4.0,12.0,132.0,0.0,1.0,0.8,0.3,Time
,,S05,1,Male,26,anonymized,Serial_Dependence_U,2023.2.3,Win32,48.07692308,,,,,,,,,,,,1486.1452,4.0,1486.1457,,,,1488.7075,1489.2062,1488.1869,1488.7074,1487.1663,251.0,1488.1868,1489.2062,1489.7059,1489.7061,1491.6447,1355.1,1491.645,5.0,1492.6431,4.0,13.0,133.0,1.0,1.0,1.0,0.3,Time
,,S05,1,Male,26,anonymized,Serial_Dependence_U,2023.2.3,Win32,48.07692308,,,,,,,,,,,,1492.6441,4.0,1492.6447,,,,1495.3942,1495.8927,1494.8733,1495.3942,1493.6658,278.0,1494.8731,1495.8929,1496.3925,1496.3927,1498.2896,1187.4,1498.29,3.0,1499.2882,4.0,14.0,134.0,12.0,1.0,1.2,0.3,Time
,,S05,1,Male,26,anonymized,Serial_Dependence_U,2023.2.3,Win32,48.07692308,,,,,,,,,,,,1499.2891,4.0,1499.2897,,,,1502.2477,1502.7465,1501.7272,1502.2474,1500.3141,128.0,1501.727,1502.7466,1503.2459,1503.246,1505.1639,1187.4,1505.1643,2.0,1506.1627,4.0,15.0,135.0,18.0,1.0,1.4,0.7,Time
,,S05,1,Male,26,anonymized,Serial_Dependence_U,2023.2.3,Win32,48.07692308,,,,,,,,,,,,1506.1639,4.0,1506.1644,,,,1508.5179,1509.0163,1507.9971,1508.5177,1507.1935,122.0,1507.9968,1509.0164,1509.516,1509.5161,1511.2461,771.9,1511.2466,3.0,1512.2455,4.0,16.0,136.0,25.0,1.0,0.8,0.7,Time
,,S05,1,Male,26,anonymized,Serial_Dependence_U,2023.2.3,Win32,48.07692308,,,,,,,,,,,,1512.2468,4.0,1512.2473,,,,1514.7879,1515.2865,1514.2674,1514.7878,1513.2468,175.0,1514.2673,1515.2865,1515.7862,1515.7862,1517.1619,832.7,1517.1624,2.0,1518.1614,4.0,17.0,137.0,26.0,1.0,1.0,0.7,Time
,,S05,1,Male,26,anonymized,Serial_Dependence_U,2023.2.3,Win32,48.07692308,,,,,,,,,,,,1518.1627,4.0,1518.1633,,,,1521.1209,1521.6192,1520.6,1521.1207,1519.182,15.0,1520.5999,1521.6193,1522.1187,1522.1188,1524.0574,1227.2,1524.0579,2.0,1525.0562,4.0,18.0,138.0,8.0,1.0,1.4,0.7,Time
,,S05,1,Male,26,anonymized,Serial_Dependence_U,2023.2.3,Win32,48.07692308,,,,,,,,,,,,1525.0574,4.0,1525.0579,,,,1528.2035,1528.7013,1527.6825,1528.2032,1526.0785,62.0,1527.6824,1528.7014,1529.2014,1529.2015,1531.1196,1583.9,1531.12,3.0,1532.118,4.0,19.0,139.0,4.0,1.0,1.6,0.3,Time
,,S05,1,Male,26,anonymized,Serial_Dependence_U,2023.2.3,Win32,48.07692308,,,,,,,,,,,,1532.1191,4.0,1532.1196,,,,1534.8693,1535.3671,1534.3484,1534.8691,1533.1403,301.0,1534.3482,1535.3671,1535.8672,1535.8673,1537.3686,1187.2,1537.369,3.0,1538.3677,4.0,20.0,140.0,2.0,1.0,1.2,0.3,Time
,,S05,1,Male,26,anonymized,Serial_Dependence_U,2023.2.3,Win32,48.07692308,,,,,,,,,,,,1538.3688,4.0,1538.3694,,,,1540.7228,1541.2214,1540.202,1540.7226,1539.3901,318.0,1540.2018,1541.2215,1541.7215,1541.7216,1543.7848,1200.2,1543.7852,5.0,1544.7831,4.0,21.0,141.0,5.0,1.0,0.8,0.7,Time
,,S05,1,Male,26,anonymized,Serial_Dependence_U,2023.2.3,Win32,48.07692308,,,,,,,,,,,,1544.7842,4.0,1544.7847,,,,1547.7428,1548.2409,1547.2219,1547.7426,1545.8054,332.0,1547.2216,1548.2409,1548.7407,1548.7408,1550.7624,1333.9,1550.7629,3.0,1551.7616,4.0,22.0,142.0,28.0,1.0,1.4,0.7,Time
,,S05,1,Male,26,anonymized,Serial_Dependence_U,2023.2.3,Win32,48.07692308,,,,,,,,,,,,1551.7627,4.0,1551.7634,,,,1554.1024,1554.5946,1553.596,1554.1023,1552.7837,126.0,1553.5959,1554.5946,1555.095,1555.0952,1556.3537,938.4,1556.354,4.0,1557.3441,4.0,23.0,143.0,10.0,1.0,0.8,0.3,Time
,,S05,1,Male,26,anonymized,Serial_Dependence_U,2023.2.3,Win32,48.07692308,,,,,,,,,,,,1557.3453,4.0,1557.3458,,,,1559.908,1560.4065,1559.3872,1559.9078,1558.3665,312.0,1559.3869,1560.4066,1560.9061,1560.9063,1562.1156,893.9,1562.116,2.0,1563.1142,4.0,24.0,144.0,11.0,1.0,1.0,0.3,Time
,,S05,1,Male,26,anonymized,Serial_Dependence_U,2023.2.3,Win32,48.07692308,,,,,,,,,,,,1563.1155,4.0,1563.116,,,,1566.2609,1566.7594,1565.7408,1566.2608,1564.1361,19.0,1565.7405,1566.7595,1567.2593,1567.2594,1568.7817,1327.5,1568.782,2.0,1569.7798,4.0,25.0,145.0,14.0,1.0,1.6,0.3,Time
,,S05,1,Male,26,anonymized,Serial_Dependence_U,2023.2.3,Win32,48.07692308,,,,,,,,,,,,1569.7809,4.0,1569.7816,,,,1572.9272,1573.4257,1572.4063,1572.9271,1570.8025,353.0,1572.4061,1573.4258,1573.9253,1573.9255,1575.8426,1479.6,1575.8431,2.0,1576.842,4.0,26.0,146.0,24.0,1.0,1.6,0.3,Time
,,S05,1,Male,26,anonymized,Serial_Dependence_U,2023.2.3,Win32,48.07692308,,,,,,,,,,,,1576.8432,4.0,1576.8438,,,,1579.989,1580.4871,1579.4676,1579.9888,1577.8636,166.0,1579.4676,1580.4871,1580.987,1580.9871,1583.175,1729.8,1583.176,4.0,1584.1746,4.0,27.0,147.0,19.0,1.0,1.6,0.7,Time
,,S05,1,Male,26,anonymized,Serial_Dependence_U,2023.2.3,Win32,48.07692308,,,,,,,,,,,,1584.1758,4.0,1584.1764,,,,1586.9258,1587.4241,1586.4047,1586.9256,1585.1966,168.0,1586.4047,1587.4241,1587.924,1587.9241,1589.4664,1228.0,1589.4668,3.0,1590.4651,4.0,28.0,148.0,27.0,1.0,1.2,0.7,Time
,,S05,1,Male,26,anonymized,Serial_Dependence_U,2023.2.3,Win32,48.07692308,,,,,,,,,,,,1590.4662,4.0,1590.4667,,,,1592.8,1593.2984,1592.2791,1592.7998,1591.4669,109.0,1592.279,1593.2984,1593.7982,1593.7984,1595.528,1129.1,1595.5284,5.0,1596.5272,4.0,29.0,149.0,15.0,1.0,0.8,0.7,Time
,,S05,1,Male,26,anonymized,Serial_Dependence_U,2023.2.3,Win32,48.07692308,,,,,,,,,,,,1596.5286,5.0,1598.9033,s,2.3397,,1601.2442,1601.735,1600.7225,1601.2441,1599.91,234.0,1600.7224,1601.7351,1602.2348,1602.2349,1603.3266,1058.7,1603.3268,5.0,1604.3183,5.0,0.0,150.0,10.0,1.0,0.8,0.3,Time
,,S05,1,Male,26,anonymized,Serial_Dependence_U,2023.2.3,Win32,48.07692308,,,,,,,,,,,,1604.3201,5.0,1604.3239,,,,1606.6591,1607.151,1606.1386,1606.659,1605.3261,346.0,1606.1385,1607.1511,1607.6572,1607.6574,1608.8266,667.5,1608.8268,2.0,1609.8171,5.0,1.0,151.0,25.0,1.0,0.8,0.7,Time
,,S05,1,Male,26,anonymized,Serial_Dependence_U,2023.2.3,Win32,48.07692308,,,,,,,,,,,,1609.8183,5.0,1609.8189,,,,1612.5686,1613.0666,1612.0476,1612.5684,1610.8396,42.0,1612.0474,1613.0667,1613.5666,1613.5667,1615.1716,1186.1,1615.1721,3.0,1616.1705,5.0,2.0,152.0,17.0,1.0,1.2,0.7,Time
,,S05,1,Male,26,anonymized,Serial_Dependence_U,2023.2.3,Win32,48.07692308,,,,,,,,,,,,1616.1716,5.0,1616.1722,,,,1619.1303,1619.6283,1618.609,1619.1301,1617.1929,323.0,1618.6088,1619.6284,1620.1284,1620.1284,1621.7752,1253.6,1621.7756,2.0,1622.7739,5.0,3.0,153.0,3.0,1.0,1.4,0.3,Time
,,S05,1,Male,26,anonymized,Serial_Dependence_U,2023.2.3,Win32,48.07692308,,,,,,,,,,,,1622.775,5.0,1622.7755,,,,1625.5462,1626.0443,1625.0249,1625.5461,1623.8018,133.0,1625.0248,1626.0444,1626.5445,1626.5447,1628.296,1227.9,1628.2965,3.0,1629.2938,5.0,4.0,154.0,22.0,1.0,1.2,0.3,Time
,,S05,1,Male,26,anonymized,Serial_Dependence_U,2023.2.3,Win32,48.07692308,,,,,,,,,,,,1629.2949,5.0,1629.2954,,,,1632.4398,1632.9392,1631.9202,1632.4398,1630.3164,162.0,1631.9199,1632.9392,1633.4393,1633.4393,1635.5443,1665.9,1635.5447,3.0,1636.5432,5.0,5.0,155.0,29.0,1.0,1.6,0.7,Time
,,S05,1,Male,26,anonymized,Serial_Dependence_U,2023.2.3,Win32,48.07692308,,,,,,,,,,,,1636.5443,5.0,1636.5448,,,,1639.2738,1639.7724,1638.7534,1639.2737,1637.545,293.0,1638.7532,1639.7725,1640.2724,1640.2725,1642.0849,1212.0,1642.0854,3.0,1643.0842,5.0,6.0,156.0,7.0,1.0,1.2,0.7,Time
,,S05,1,Male,26,anonymized,Serial_Dependence_U,2023.2.3,Win32,48.07692308,,,,,,,,,,,,1643.0853,5.0,1643.086,,,,1646.0434,1646.5417,1645.523,1646.0432,1644.106,153.0,1645.5227,1646.5417,1647.0422,1647.0423,1648.9181,1312.1,1648.9186,2.0,1649.917,5.0,7.0,157.0,13.0,1.0,1.4,0.3,Time
,,S05,1,Male,26,anonymized,Serial_Dependence_U,2023.2.3,Win32,48.07692308,,,,,,,,,,,,1649.9181,5.0,1649.9186,,,,1653.0638,1653.5618,1652.5429,1653.0637,1650.9386,183.0,1652.5427,1653.5619,1654.0618,1654.0619,1656.7502,1892.9,1656.7507,4.0,1657.7493,5.0,8.0,158.0,9.0,1.0,1.6,0.7,Time
,,S05,1,Male,26,anonymized,Serial_Dependence_U,2023.2.3,Win32,48.07692308,,,,,,,,,,,,1657.7506,5.0,1657.7513,,,,1660.5004,1660.998,1659.9796,1660.5002,1658.7716,54.0,1659.9794,1660.998,1661.4986,1661.4987,1663.1871,1041.5,1663.1876,2.0,1664.1857,5.0,9.0,159.0,27.0,1.0,1.2,0.7,Time
,,S05,1,Male,26,anonymized,Serial_Dependence_U,2023.2.3,Win32,48.07692308,,,,,,,,,,,,1664.1868,5.0,1664.1874,,,,1667.1451,1667.6434,1666.6243,1667.1449,1665.2084,285.0,1666.624,1667.6435,1668.1436,1668.1438,1669.9363,1250.1,1669.9368,2.0,1670.9351,5.0,10.0,160.0,8.0,1.0,1.4,0.7,Time
,,S05,1,Male,26,anonymized,Serial_Dependence_U,2023.2.3,Win32,48.07692308,,,,,,,,,,,,1670.9362,5.0,1670.9367,,,,1673.2903,1673.7888,1672.7695,1673.2901,1671.9575,359.0,1672.7693,1673.7889,1674.2886,1674.2887,1675.8938,922.5,1675.8942,4.0,1676.8927,5.0,11.0,161.0,20.0,1.0,0.8,0.3,Time
,,S05,1,Male,26,anonymized,Serial_Dependence_U,2023.2.3,Win32,48.07692308,,,,,,,,,,,,1676.8938,5.0,1676.8944,,,,1679.4354,1679.9337,1678.915,1679.4353,1677.8944,243.0,1678.9149,1679.9337,1680.4344,1680.4345,1681.8513,817.3,1681.8518,2.0,1682.8502,5.0,12.0,162.0,1.0,1.0,1.0,0.3,Time
,,S05,1,Male,26,anonymized,Serial_Dependence_U,2023.2.3,Win32,48.07692308,,,,,,,,,,,,1682.8511,5.0,1682.8518,,,,1685.9976,1686.4955,1685.4767,1685.9974,1683.8728,285.0,1685.4765,1686.4956,1686.996,1686.9961,1688.7881,1230.3,1688.7885,2.0,1689.7872,5.0,13.0,163.0,14.0,1.0,1.6,0.3,Time
,,S05,1,Male,26,anonymized,Serial_Dependence_U,2023.2.3,Win32,48.07692308,,,,,,,,,,,,1689.7884,5.0,1689.7894,,,,1692.9345,1693.4322,1692.4131,1692.9343,1690.8097,323.0,1692.4129,1693.4323,1693.9323,1693.9325,1695.475,1104.9,1695.4754,1.0,1696.4737,5.0,14.0,164.0,24.0,1.0,1.6,0.3,Time
,,S05,1,Male,26,anonymized,Serial_Dependence_U,2023.2.3,Win32,48.07692308,,,,,,,,,,,,1696.4747,5.0,1696.4752,,,,1699.0379,1699.5357,1698.5166,1699.0378,1697.4961,262.0,1698.5165,1699.5358,1700.0358,1700.0359,1702.1613,1289.6,1702.1617,4.0,1703.1604,5.0,15.0,165.0,6.0,1.0,1.0,0.7,Time
,,S05,1,Male,26,anonymized,Serial_Dependence_U,2023.2.3,Win32,48.07692308,,,,,,,,,,,,1703.1616,5.0,1703.1621,,,,1705.4992,1705.9938,1704.9953,1705.499,1704.1829,312.0,1704.9951,1705.9939,1706.4942,1706.4943,1707.564,997.9,1707.5643,4.0,1708.5561,5.0,16.0,166.0,5.0,1.0,0.8,0.7,Time
,,S05,1,Male,26,anonymized,Serial_Dependence_U,2023.2.3,Win32,48.07692308,,,,,,,,,,,,1708.5579,5.0,1708.5585,,,,1710.8978,1711.3881,1710.3762,1710.8977,1709.5641,334.0,1710.3761,1711.3882,1711.8891,1711.8891,1713.0635,777.2,1713.0637,3.0,1714.0552,5.0,17.0,167.0,15.0,1.0,0.8,0.7,Time
,,S05,1,Male,26,anonymized,Serial_Dependence_U,2023.2.3,Win32,48.07692308,,,,,,,,,,,,1714.0561,5.0,1714.0567,,,,1716.3961,1716.8881,1715.8905,1716.396,1715.0775,31.0,1715.8903,1716.8882,1717.3882,1717.3884,1719.0847,1021.1,1719.085,4.0,1720.075,5.0,18.0,168.0,0.0,1.0,0.8,0.3,Time
,,S05,1,Male,26,anonymized,Serial_Dependence_U,2023.2.3,Win32,48.07692308,,,,,,,,,,,,1720.0762,5.0,1720.077,,,,1722.8265,1723.3245,1722.3056,1722.8263,1721.0976,198.0,1722.3056,1723.3245,1723.8245,1723.8247,1725.3258,1210.8,1725.3262,3.0,1726.3248,5.0,19.0,169.0,2.0,1.0,1.2,0.3,Time
,,S05,1,Male,26,anonymized,Serial_Dependence_U,2023.2.3,Win32,48.07692308,,,,,,,,,,,,1726.326,5.0,1726.3267,,,,1728.8883,1729.3863,1728.3674,1728.8882,1727.3468,267.0,1728.3673,1729.3864,1729.8863,1729.8864,1731.3666,1080.7,1731.3672,4.0,1732.3652,5.0,20.0,170.0,11.0,1.0,1.0,0.3,Time
,,S05,1,Male,26,anonymized,Serial_Dependence_U,2023.2.3,Win32,48.07692308,,,,,,,,,,,,1732.3664,5.0,1732.3669,,,,1735.3251,1735.8232,1734.8046,1735.325,1733.3878,213.0,1734.8044,1735.8233,1736.323,1736.3231,1737.949,1207.5,1737.9493,2.0,1738.9482,5.0,21.0,171.0,23.0,1.0,1.4,0.3,Time
,,S05,1,Male,26,anonymized,Serial_Dependence_U,2023.2.3,Win32,48.07692308,,,,,,,,,,,,1738.9496,5.0,1738.9502,,,,1742.0744,1742.5723,1741.5535,1742.0743,1739.9496,255.0,1741.5533,1742.5724,1743.0728,1743.0729,1745.2193,1603.8,1745.2197,3.0,1746.2177,5.0,22.0,172.0,19.0,1.0,1.6,0.7,Time
,,S05,1,Male,26,anonymized,Serial_Dependence_U,2023.2.3,Win32,48.07692308,,,,,,,,,,,,1746.219,5.0,1746.2195,,,,1748.968,1749.4677,1748.4486,1748.9679,1747.2404,36.0,1748.4483,1749.4678,1749.9675,1749.9677,1751.3852,955.9,1751.3856,2.0,1752.3837,5.0,23.0,173.0,12.0,1.0,1.2,0.3,Time
,,S05,1,Male,26,anonymized,Serial_Dependence_U,2023.2.3,Win32,48.07692308,,,,,,,,,,,,1752.3849,5.0,1752.3856,,,,1755.3434,1755.8418,1754.8244,1755.3432,1753.4064,326.0,1754.8243,1755.8419,1756.3415,1756.3416,1758.2803,1353.5,1758.2808,3.0,1759.2787,5.0,24.0,174.0,28.0,1.0,1.4,0.7,Time
,,S05,1,Male,26,anonymized,Serial_Dependence_U,2023.2.3,Win32,48.07692308,,,,,,,,,,,,1759.2796,5.0,1759.2803,,,,1761.8429,1762.3409,1761.3215,1761.8427,1760.3014,153.0,1761.3214,1762.341,1762.8413,1762.8415,1764.4044,995.3,1764.4047,3.0,1765.403,5.0,25.0,175.0,26.0,1.0,1.0,0.7,Time
,,S05,1,Male,26,anonymized,Serial_Dependence_U,2023.2.3,Win32,48.07692308,,,,,,,,,,,,1765.4045,5.0,1765.4051,,,,1768.3629,1768.8614,1767.8416,1768.3627,1766.4253,148.0,1767.8414,1768.8615,1769.361,1769.3611,1770.9033,1148.1,1770.9037,2.0,1771.9024,5.0,26.0,176.0,18.0,1.0,1.4,0.7,Time
,,S05,1,Male,26,anonymized,Serial_Dependence_U,2023.2.3,Win32,48.07692308,,,,,,,,,,,,1771.9034,5.0,1771.904,,,,1774.4662,1774.9648,1773.9455,1774.4661,1772.9249,265.0,1773.9454,1774.9649,1775.465,1775.4651,1776.7984,769.2,1776.7988,2.0,1777.7985,5.0,27.0,177.0,21.0,1.0,1.0,0.3,Time
,,S05,1,Male,26,anonymized,Serial_Dependence_U,2023.2.3,Win32,48.07692308,,,,,,,,,,,,1777.8001,5.0,1777.8013,,,,1780.3406,1780.8391,1779.8199,1780.3405,1778.7992,74.0,1779.8196,1780.8392,1781.3386,1781.3387,1783.069,1207.5,1783.0695,4.0,1784.0675,5.0,28.0,178.0,16.0,1.0,1.0,0.7,Time
,,S05,1,Male,26,anonymized,Serial_Dependence_U,2023.2.3,Win32,48.07692308,,,,,,,,,,,,1784.0686,5.0,1784.0691,,,,1787.2144,1787.7133,1786.694,1787.2142,1785.0899,81.0,1786.6939,1787.7133,1788.213,1788.2131,1789.8809,1247.6,1789.8812,2.0,1790.8793,5.0,29.0,179.0,4.0,1.0,1.6,0.3,Time
,,S05,1,Male,26,anonymized,Serial_Dependence_U,2023.2.3,Win32,48.07692308,,,,,,,,,,,,1790.8804,6.0,1792.8178,s,1.9009,,1795.1723,1795.6702,1794.6515,1795.1722,1793.839,147.0,1794.6513,1795.6703,1796.1704,1796.1705,1797.4424,1000.6,1797.4428,4.0,1798.4408,6.0,0.0,180.0,20.0,1.0,0.8,0.3,Time
,,S05,1,Male,26,anonymized,Serial_Dependence_U,2023.2.3,Win32,48.07692308,,,,,,,,,,,,1798.4418,6.0,1798.445,,,,1800.7967,1801.2947,1800.2757,1800.7965,1799.4642,44.0,1800.2756,1801.2949,1801.7951,1801.7953,1803.3999,1186.8,1803.4004,5.0,1804.3987,6.0,1.0,181.0,5.0,1.0,0.8,0.7,Time
,,S05,1,Male,26,anonymized,Serial_Dependence_U,2023.2.3,Win32,48.07692308,,,,,,,,,,,,1804.4,6.0,1804.4005,,,,1807.5458,1808.0439,1807.0254,1807.5457,1805.421,305.0,1807.0253,1808.0439,1808.5438,1808.5439,1810.482,1454.8,1810.4823,2.0,1811.4812,6.0,2.0,182.0,4.0,1.0,1.6,0.3,Time
,,S05,1,Male,26,anonymized,Serial_Dependence_U,2023.2.3,Win32,48.07692308,,,,,,,,,,,,1811.4823,6.0,1811.4828,,,,1814.045,1814.5432,1813.5237,1814.0449,1812.5033,144.0,1813.5236,1814.5432,1815.0431,1815.0432,1817.4622,1342.2,1817.4626,5.0,1818.4596,6.0,3.0,183.0,26.0,1.0,1.0,0.7,Time
,,S05,1,Male,26,anonymized,Serial_Dependence_U,2023.2.3,Win32,48.07692308,,,,,,,,,,,,1818.4607,6.0,1818.4612,,,,1821.0234,1821.522,1820.5021,1821.0233,1819.482,226.0,1820.5019,1821.522,1822.0217,1822.0218,1824.1687,1519.7,1824.1692,5.0,1825.1666,6.0,4.0,184.0,6.0,1.0,1.0,0.7,Time
,,S05,1,Male,26,anonymized,Serial_Dependence_U,2023.2.3,Win32,48.07692308,,,,,,,,,,,,1825.1672,6.0,1825.1676,,,,1827.5018,1827.9998,1826.9811,1827.5016,1826.1686,152.0,1826.9809,1827.9999,1828.5,1828.5,1830.2931,1081.0,1830.2934,5.0,1831.2911,6.0,5.0,185.0,10.0,1.0,0.8,0.3,Time
,,S05,1,Male,26,anonymized,Serial_Dependence_U,2023.2.3,Win32,48.07692308,,,,,,,,,,,,1831.2922,6.0,1831.2927,,,,1833.8552,1834.3532,1833.3342,1833.8551,1832.3138,171.0,1833.334,1834.3533,1834.8533,1834.8534,1836.5003,1083.4,1836.5007,4.0,1837.4995,6.0,6.0,186.0,1.0,1.0,1.0,0.3,Time
,,S05,1,Male,26,anonymized,Serial_Dependence_U,2023.2.3,Win32,48.07692308,,,,,,,,,,,,1837.501,6.0,1837.5017,,,,1840.4445,1840.9364,1839.9238,1840.4443,1838.5073,121.0,1839.9235,1840.9365,1841.4212,1841.4214,1843.55,1355.8,1843.5504,3.0,1844.5399,6.0,7.0,187.0,13.0,1.0,1.4,0.3,Time
,,S05,1,Male,26,anonymized,Serial_Dependence_U,2023.2.3,Win32,48.07692308,,,,,,,,,,,,1844.541,6.0,1844.5415,,,,1847.2915,1847.7894,1846.7703,1847.2913,1845.5622,66.0,1846.7702,1847.7895,1848.2887,1848.2888,1850.2905,1395.4,1850.2909,4.0,1851.2892,6.0,8.0,188.0,17.0,1.0,1.2,0.7,Time
,,S05,1,Male,26,anonymized,Serial_Dependence_U,2023.2.3,Win32,48.07692308,,,,,,,,,,,,1851.2903,6.0,1851.2908,,,,1854.4154,1854.9138,1853.8946,1854.4153,1852.2908,300.0,1853.8944,1854.9139,1855.4134,1855.4135,1857.0605,1186.9,1857.0609,2.0,1858.0589,6.0,9.0,189.0,19.0,1.0,1.6,0.7,Time
,,S05,1,Male,26,anonymized,Serial_Dependence_U,2023.2.3,Win32,48.07692308,,,,,,,,,,,,1858.0601,6.0,1858.0606,,,,1860.8106,1861.3089,1860.2896,1860.8104,1859.0814,240.0,1860.2894,1861.309,1861.8091,1861.8092,1863.5392,1249.6,1863.54,3.0,1864.5376,6.0,10.0,190.0,7.0,1.0,1.2,0.7,Time
,,S05,1,Male,26,anonymized,Serial_Dependence_U,2023.2.3,Win32,48.07692308,,,,,,,,,,,,1864.5386,6.0,1864.5392,,,,1867.6844,1868.1829,1867.1638,1867.6842,1865.5599,74.0,1867.1636,1868.183,1868.6826,1868.6828,1870.7667,1649.9,1870.7672,3.0,1871.7658,6.0,11.0,191.0,24.0,1.0,1.6,0.3,Time
,,S05,1,Male,26,anonymized,Serial_Dependence_U,2023.2.3,Win32,48.07692308,,,,,,,,,,,,1871.767,6.0,1871.7674,,,,1874.9198,1875.4115,1874.3978,1874.9196,1872.7883,71.0,1874.3976,1875.4116,1875.9114,1875.9115,1878.1415,1746.9,1878.1419,4.0,1879.1404,6.0,12.0,192.0,29.0,1.0,1.6,0.7,Time
,,S05,1,Male,26,anonymized,Serial_Dependence_U,2023.2.3,Win32,48.07692308,,,,,,,,,,,,1879.1414,6.0,1879.1419,,,,1882.0789,1882.577,1881.5575,1882.0787,1880.1417,108.0,1881.5574,1882.5771,1883.077,1883.0771,1884.7866,1247.7,1884.7871,2.0,1885.7854,6.0,13.0,193.0,23.0,1.0,1.4,0.3,Time
,,S05,1,Male,26,anonymized,Serial_Dependence_U,2023.2.3,Win32,48.07692308,,,,,,,,,,,,1885.7864,6.0,1885.7871,,,,1888.3297,1888.8268,1887.8264,1888.3294,1886.8075,28.0,1887.8263,1888.8268,1889.3268,1889.3269,1891.0982,1302.9,1891.0988,5.0,1892.0972,6.0,14.0,194.0,16.0,1.0,1.0,0.7,Time
,,S05,1,Male,26,anonymized,Serial_Dependence_U,2023.2.3,Win32,48.07692308,,,,,,,,,,,,1892.0988,6.0,1892.0995,,,,1894.8478,1895.3464,1894.3274,1894.8476,1893.1195,119.0,1894.3272,1895.3464,1895.8461,1895.8463,1897.4306,1208.4,1897.431,3.0,1898.4291,6.0,15.0,195.0,12.0,1.0,1.2,0.3,Time
,,S05,1,Male,26,anonymized,Serial_Dependence_U,2023.2.3,Win32,48.07692308,,,,,,,,,,,,1898.4303,6.0,1898.4308,,,,1901.3891,1901.8874,1900.868,1901.389,1899.4518,158.0,1900.8677,1901.8875,1902.3873,1902.3875,1904.242,1162.2,1904.2425,2.0,1905.2409,6.0,16.0,196.0,3.0,1.0,1.4,0.3,Time
,,S05,1,Male,26,anonymized,Serial_Dependence_U,2023.2.3,Win32,48.07692308,,,,,,,,,,,,1905.2424,6.0,1905.2432,,,,1908.1802,1908.6779,1907.659,1908.18,1906.2434,29.0,1907.6588,1908.678,1909.1779,1909.1781,1911.3041,1370.1,1911.3045,3.0,1912.3027,6.0,17.0,197.0,18.0,1.0,1.4,0.7,Time
,,S05,1,Male,26,anonymized,Serial_Dependence_U,2023.2.3,Win32,48.07692308,,,,,,,,,,,,1912.3038,6.0,1912.3043,,,,1915.262,1915.7604,1914.7426,1915.2619,1913.3253,70.0,1914.7425,1915.7605,1916.261,1916.2611,1917.9913,1457.8,1917.9917,3.0,1918.9894,6.0,18.0,198.0,8.0,1.0,1.4,0.7,Time
,,S05,1,Male,26,anonymized,Serial_Dependence_U,2023.2.3,Win32,48.07692308,,,,,,,,,,,,1918.9903,6.0,1918.9909,,,,1921.3309,1921.8225,1920.8102,1921.3307,1919.9948,28.0,1920.81,1921.8226,1922.3228,1922.3229,1923.6456,877.4,1923.6459,4.0,1924.6344,6.0,19.0,199.0,0.0,1.0,0.8,0.3,Time
,,S05,1,Male,26,anonymized,Serial_Dependence_U,2023.2.3,Win32,48.07692308,,,,,,,,,,,,1924.6356,6.0,1924.6361,,,,1926.9692,1927.4677,1926.4484,1926.969,1925.6367,121.0,1926.4481,1927.4678,1927.9677,1927.9678,1929.1358,999.9,1929.1361,4.0,1930.1342,6.0,20.0,200.0,25.0,1.0,0.8,0.7,Time
,,S05,1,Male,26,anonymized,Serial_Dependence_U,2023.2.3,Win32,48.07692308,,,,,,,,,,,,1930.1354,6.0,1930.1359,,,,1932.6979,1933.1963,1932.1771,1932.6977,1931.1565,356.0,1932.177,1933.1964,1933.696,1933.6961,1935.2805,1143.4,1935.2809,4.0,1936.2789,6.0,21.0,201.0,11.0,1.0,1.0,0.3,Time
,,S05,1,Male,26,anonymized,Serial_Dependence_U,2023.2.3,Win32,48.07692308,,,,,,,,,,,,1936.28,6.0,1936.2807,,,,1939.4262,1939.9246,1938.9054,1939.4261,1937.3015,329.0,1938.9054,1939.9248,1940.4247,1940.4248,1942.1336,1251.4,1942.1341,2.0,1943.1328,6.0,22.0,202.0,9.0,1.0,1.6,0.7,Time
,,S05,1,Male,26,anonymized,Serial_Dependence_U,2023.2.3,Win32,48.07692308,,,,,,,,,,,,1943.1339,6.0,1943.1344,,,,1945.4881,1945.9863,1944.968,1945.488,1944.1549,268.0,1944.9678,1945.9863,1946.4863,1946.4863,1947.8207,936.6,1947.8211,4.0,1948.8193,6.0,23.0,203.0,15.0,1.0,0.8,0.7,Time
,,S05,1,Male,26,anonymized,Serial_Dependence_U,2023.2.3,Win32,48.07692308,,,,,,,,,,,,1948.8205,6.0,1948.8211,,,,1951.5711,1952.0695,1951.0506,1951.5709,1949.8422,238.0,1951.0505,1952.0695,1952.5697,1952.5699,1954.4247,1433.5,1954.425,4.0,1955.4232,6.0,24.0,204.0,27.0,1.0,1.2,0.7,Time
,,S05,1,Male,26,anonymized,Serial_Dependence_U,2023.2.3,Win32,48.07692308,,,,,,,,,,,,1955.4248,6.0,1955.4257,,,,1958.3827,1958.8812,1957.8619,1958.3826,1956.4465,288.0,1957.8617,1958.8812,1959.3815,1959.3818,1961.4233,1519.0,1961.4238,4.0,1962.4224,6.0,25.0,205.0,28.0,1.0,1.4,0.7,Time
,,S05,1,Male,26,anonymized,Serial_Dependence_U,2023.2.3,Win32,48.07692308,,,,,,,,,,,,1962.4235,6.0,1962.424,,,,1964.9654,1965.4634,1964.444,1964.9653,1963.4425,99.0,1964.4437,1965.4635,1965.9636,1965.9637,1967.5687,1132.3,1967.5691,4.0,1968.5681,6.0,26.0,206.0,21.0,1.0,1.0,0.3,Time
,,S05,1,Male,26,anonymized,Serial_Dependence_U,2023.2.3,Win32,48.07692308,,,,,,,,,,,,1968.5699,6.0,1968.5708,,,,1971.319,1971.8172,1970.7993,1971.3188,1969.5898,323.0,1970.7991,1971.8173,1972.3177,1972.3178,1974.5264,1437.2,1974.5267,4.0,1975.5258,6.0,27.0,207.0,22.0,1.0,1.2,0.3,Time
,,S05,1,Male,26,anonymized,Serial_Dependence_U,2023.2.3,Win32,48.07692308,,,,,,,,,,,,1975.5273,6.0,1975.5282,,,,1978.6718,1979.1701,1978.1508,1978.6716,1976.5472,311.0,1978.1505,1979.1703,1979.6704,1979.6705,1981.5879,1517.1,1981.5883,2.0,1982.5864,6.0,28.0,208.0,14.0,1.0,1.6,0.3,Time
,,S05,1,Male,26,anonymized,Serial_Dependence_U,2023.2.3,Win32,48.07692308,,,,,,,,,,,,1982.5875,6.0,1982.5881,,,,1985.3371,1985.8356,1984.817,1985.3369,1983.6087,291.0,1984.8168,1985.8357,1986.3356,1986.3358,1987.8787,978.1,1987.8791,2.0,1988.877,6.0,29.0,209.0,2.0,1.0,1.2,0.3,Time
,,S05,1,Male,26,anonymized,Serial_Dependence_U,2023.2.3,Win32,48.07692308,,,,,,,,,,,,1988.8781,7.0,1990.544,s,1.6329,,1993.1077,1993.606,1992.5868,1993.1076,1991.5656,323.0,1992.5867,1993.6062,1994.1059,1994.106,1994.3155,165.0,1994.316,1.0,1995.3142,7.0,0.0,210.0,26.0,1.0,1.0,0.7,Time
,,S05,1,Male,26,anonymized,Serial_Dependence_U,2023.2.3,Win32,48.07692308,,,,,,,,,,,,1995.3156,7.0,1995.3187,,,,1997.6696,1998.1677,1997.1488,1997.6694,1996.3363,98.0,1997.1487,1998.1677,1998.6675,1998.6677,1999.8148,776.5,1999.815,3.0,2000.8135,7.0,1.0,211.0,0.0,1.0,0.8,0.3,Time
,,S05,1,Male,26,anonymized,Serial_Dependence_U,2023.2.3,Win32,48.07692308,,,,,,,,,,,,2000.8146,7.0,2000.8153,,,,2003.1482,2003.6461,2002.6272,2003.148,2001.8149,279.0,2002.6271,2003.6462,2004.146,2004.1462,2005.7099,1021.0,2005.7103,4.0,2006.7085,7.0,2.0,212.0,25.0,1.0,0.8,0.7,Time
,,S05,1,Male,26,anonymized,Serial_Dependence_U,2023.2.3,Win32,48.07692308,,,,,,,,,,,,2006.7095,7.0,2006.7101,,,,2009.8552,2010.3538,2009.3348,2009.8551,2007.7125,276.0,2009.3346,2010.3539,2010.8536,2010.8536,2012.8133,1419.3,2012.8136,2.0,2013.8116,7.0,3.0,213.0,9.0,1.0,1.6,0.7,Time
,,S05,1,Male,26,anonymized,Serial_Dependence_U,2023.2.3,Win32,48.07692308,,,,,,,,,,,,2013.813,7.0,2013.8136,,,,2016.7571,2017.2492,2016.2334,2016.7568,2014.8201,85.0,2016.2331,2017.2492,2017.7495,2017.7498,2019.717,1272.9,2019.7174,2.0,2020.7071,7.0,4.0,214.0,13.0,1.0,1.4,0.3,Time
,,S05,1,Male,26,anonymized,Serial_Dependence_U,2023.2.3,Win32,48.07692308,,,,,,,,,,,,2020.7089,7.0,2020.7098,,,,2023.4435,2023.9356,2022.9238,2023.4434,2021.7154,215.0,2022.9236,2023.9357,2024.4361,2024.4362,2026.1943,1145.1,2026.1946,3.0,2027.1852,7.0,5.0,215.0,17.0,1.0,1.2,0.7,Time
,,S05,1,Male,26,anonymized,Serial_Dependence_U,2023.2.3,Win32,48.07692308,,,,,,,,,,,,2027.1864,7.0,2027.187,,,,2029.5409,2030.039,2029.0198,2029.5408,2028.2078,26.0,2029.0196,2030.0391,2030.5388,2030.5389,2032.2901,959.3,2032.2906,4.0,2033.289,7.0,6.0,216.0,20.0,1.0,0.8,0.3,Time
,,S05,1,Male,26,anonymized,Serial_Dependence_U,2023.2.3,Win32,48.07692308,,,,,,,,,,,,2033.2901,7.0,2033.2906,,,,2035.6443,2036.1427,2035.123,2035.6442,2034.3111,26.0,2035.1228,2036.1428,2036.6426,2036.6427,2037.9353,955.9,2037.9356,4.0,2038.934,7.0,7.0,217.0,15.0,1.0,0.8,0.7,Time
,,S05,1,Male,26,anonymized,Serial_Dependence_U,2023.2.3,Win32,48.07692308,,,,,,,,,,,,2038.9351,7.0,2038.9356,,,,2041.6849,2042.1833,2041.1642,2041.6846,2039.9563,25.0,2041.164,2042.1833,2042.6836,2042.6836,2044.7339,1291.7,2044.7342,4.0,2045.725,7.0,8.0,218.0,12.0,1.0,1.2,0.3,Time
,,S05,1,Male,26,anonymized,Serial_Dependence_U,2023.2.3,Win32,48.07692308,,,,,,,,,,,,2045.7265,7.0,2045.727,,,,2048.2745,2048.7664,2047.7535,2048.2743,2046.7338,83.0,2047.7534,2048.7665,2049.2665,2049.2666,2051.6089,1333.3,2051.6093,5.0,2052.5988,7.0,9.0,219.0,16.0,1.0,1.0,0.7,Time
,,S05,1,Male,26,anonymized,Serial_Dependence_U,2023.2.3,Win32,48.07692308,,,,,,,,,,,,2052.5999,7.0,2052.6006,,,,2055.3504,2055.8484,2054.8296,2055.3503,2053.6218,13.0,2054.8294,2055.8485,2056.3483,2056.3484,2058.787,1227.6,2058.7874,3.0,2059.7857,7.0,10.0,220.0,2.0,1.0,1.2,0.3,Time
,,S05,1,Male,26,anonymized,Serial_Dependence_U,2023.2.3,Win32,48.07692308,,,,,,,,,,,,2059.7867,7.0,2059.7873,,,,2062.9329,2063.4315,2062.4121,2062.9328,2060.8081,263.0,2062.412,2063.4316,2063.9308,2063.931,2066.0153,1458.4,2066.0158,2.0,2067.0137,7.0,11.0,221.0,29.0,1.0,1.6,0.7,Time
,,S05,1,Male,26,anonymized,Serial_Dependence_U,2023.2.3,Win32,48.07692308,,,,,,,,,,,,2067.0148,7.0,2067.0153,,,,2069.5779,2070.0759,2069.0565,2069.5778,2068.0364,120.0,2069.0563,2070.0759,2070.5764,2070.5765,2073.0141,1381.0,2073.0147,5.0,2074.0137,7.0,12.0,222.0,21.0,1.0,1.0,0.3,Time
,,S05,1,Male,26,anonymized,Serial_Dependence_U,2023.2.3,Win32,48.07692308,,,,,,,,,,,,2074.0148,7.0,2074.0154,,,,2077.1603,2077.6584,2076.6394,2077.1602,2075.0356,102.0,2076.6393,2077.6585,2078.1585,2078.1586,2079.9922,1479.2,2079.9927,2.0,2080.9912,7.0,13.0,223.0,4.0,1.0,1.6,0.3,Time
,,S05,1,Male,26,anonymized,Serial_Dependence_U,2023.2.3,Win32,48.07692308,,,,,,,,,,,,2080.9925,7.0,2080.9931,,,,2084.1387,2084.6372,2083.6179,2084.1386,2082.0138,236.0,2083.6177,2084.6374,2085.1373,2085.1374,2086.7422,1249.9,2086.7426,2.0,2087.7406,7.0,14.0,224.0,19.0,1.0,1.6,0.7,Time
,,S05,1,Male,26,anonymized,Serial_Dependence_U,2023.2.3,Win32,48.07692308,,,,,,,,,,,,2087.7416,7.0,2087.7421,,,,2090.4713,2090.9694,2089.9506,2090.4712,2088.7423,271.0,2089.9504,2090.9695,2091.4691,2091.4693,2093.2624,1375.4,2093.2627,4.0,2094.2612,7.0,15.0,225.0,7.0,1.0,1.2,0.7,Time
,,S05,1,Male,26,anonymized,Serial_Dependence_U,2023.2.3,Win32,48.07692308,,,,,,,,,,,,2094.2622,7.0,2094.2628,,,,2097.0123,2097.5102,2096.4911,2097.0122,2095.2833,241.0,2096.4911,2097.5103,2098.0105,2098.0107,2100.053,1545.9,2100.0535,4.0,2101.0521,7.0,16.0,226.0,22.0,1.0,1.2,0.3,Time
,,S05,1,Male,26,anonymized,Serial_Dependence_U,2023.2.3,Win32,48.07692308,,,,,,,,,,,,2101.053,7.0,2101.0536,,,,2104.1846,2104.6764,2103.6641,2104.1844,2102.058,162.0,2103.6638,2104.6765,2105.1764,2105.1765,2107.164,1581.7,2107.1643,3.0,2108.1548,7.0,17.0,227.0,14.0,1.0,1.6,0.3,Time
,,S05,1,Male,26,anonymized,Serial_Dependence_U,2023.2.3,Win32,48.07692308,,,,,,,,,,,,2108.1561,7.0,2108.1566,,,,2110.5106,2111.0086,2109.9898,2110.5105,2109.1769,90.0,2109.9896,2111.0087,2111.5086,2111.5087,2112.8014,920.3,2112.8019,4.0,2113.8002,7.0,18.0,228.0,5.0,1.0,0.8,0.7,Time
,,S05,1,Male,26,anonymized,Serial_Dependence_U,2023.2.3,Win32,48.07692308,,,,,,,,,,,,2113.8014,7.0,2113.802,,,,2116.1558,2116.6539,2115.6347,2116.1557,2114.8226,68.0,2115.6344,2116.6539,2117.1542,2117.1544,2118.4258,877.5,2118.4261,4.0,2119.4246,7.0,19.0,229.0,10.0,1.0,0.8,0.3,Time
,,S05,1,Male,26,anonymized,Serial_Dependence_U,2023.2.3,Win32,48.07692308,,,,,,,,,,,,2119.4258,7.0,2119.4263,,,,2122.5716,2123.0696,2122.0509,2122.5715,2120.447,280.0,2122.0508,2123.0698,2123.5702,2123.5703,2125.3002,1287.9,2125.3006,2.0,2126.2985,7.0,20.0,230.0,24.0,1.0,1.6,0.3,Time
,,S05,1,Male,26,anonymized,Serial_Dependence_U,2023.2.3,Win32,48.07692308,,,,,,,,,,,,2126.2996,7.0,2126.3001,,,,2128.8621,2129.3613,2128.3418,2128.862,2127.3212,123.0,2128.3417,2129.3614,2129.8609,2129.861,2131.3828,1125.0,2131.3833,4.0,2132.3814,7.0,21.0,231.0,6.0,1.0,1.0,0.7,Time
,,S05,1,Male,26,anonymized,Serial_Dependence_U,2023.2.3,Win32,48.07692308,,,,,,,,,,,,2132.3824,7.0,2132.3829,,,,2135.3409,2135.8392,2134.8202,2135.3409,2133.4037,81.0,2134.82,2135.8393,2136.3393,2136.3394,2138.0906,1353.7,2138.0909,3.0,2139.0887,7.0,22.0,232.0,8.0,1.0,1.4,0.7,Time
,,S05,1,Male,26,anonymized,Serial_Dependence_U,2023.2.3,Win32,48.07692308,,,,,,,,,,,,2139.09,7.0,2139.0908,,,,2142.0486,2142.5472,2141.5279,2142.0485,2140.111,131.0,2141.5277,2142.5472,2143.0468,2143.0468,2144.5688,1124.9,2144.5692,2.0,2145.5671,7.0,23.0,233.0,23.0,1.0,1.4,0.3,Time
,,S05,1,Male,26,anonymized,Serial_Dependence_U,2023.2.3,Win32,48.07692308,,,,,,,,,,,,2145.5682,7.0,2145.5688,,,,2148.527,2149.0252,2148.0066,2148.5268,2146.5898,86.0,2148.0064,2149.0252,2149.5252,2149.5253,2151.2139,1388.6,2151.2144,3.0,2152.2121,7.0,24.0,234.0,28.0,1.0,1.4,0.7,Time
,,S05,1,Male,26,anonymized,Serial_Dependence_U,2023.2.3,Win32,48.07692308,,,,,,,,,,,,2152.2134,7.0,2152.2138,,,,2154.7763,2155.2743,2154.2555,2154.7762,2153.2349,273.0,2154.2552,2155.2743,2155.7742,2155.7743,2157.7967,1328.3,2157.797,5.0,2158.7948,7.0,25.0,235.0,1.0,1.0,1.0,0.3,Time
,,S05,1,Male,26,anonymized,Serial_Dependence_U,2023.2.3,Win32,48.07692308,,,,,,,,,,,,2158.7959,7.0,2158.7964,,,,2161.7544,2162.2527,2161.2344,2161.7543,2159.8175,114.0,2161.2342,2162.2528,2162.7526,2162.7527,2164.3995,1497.0,2164.4,4.0,2165.3985,7.0,26.0,236.0,3.0,1.0,1.4,0.3,Time
,,S05,1,Male,26,anonymized,Serial_Dependence_U,2023.2.3,Win32,48.07692308,,,,,,,,,,,,2165.3997,7.0,2165.4001,,,,2168.1497,2168.6477,2167.6289,2168.1495,2166.4207,48.0,2167.6287,2168.6478,2169.1481,2169.1482,2170.3575,1104.6,2170.3579,2.0,2171.3558,7.0,27.0,237.0,27.0,1.0,1.2,0.7,Time
,,S05,1,Male,26,anonymized,Serial_Dependence_U,2023.2.3,Win32,48.07692308,,,,,,,,,,,,2171.3568,7.0,2171.3574,,,,2174.2943,2174.7932,2173.7741,2174.2941,2172.3578,45.0,2173.7739,2174.7932,2175.293,2175.2932,2176.7317,995.6,2176.7321,2.0,2177.7302,7.0,28.0,238.0,18.0,1.0,1.4,0.7,Time
,,S05,1,Male,26,anonymized,Serial_Dependence_U,2023.2.3,Win32,48.07692308,,,,,,,,,,,,2177.7313,7.0,2177.7319,,,,2180.294,2180.7924,2179.7737,2180.2938,2178.7526,123.0,2179.7734,2180.7925,2181.2921,2181.2922,2182.9397,1354.0,2182.9399,5.0,2183.9378,7.0,29.0,239.0,11.0,1.0,1.0,0.3,Time
,,S05,1,Male,26,anonymized,Serial_Dependence_U,2023.2.3,Win32,48.07692308,,,,,,,,,,,,2183.9389,8.0,2185.8964,s,1.9235,,2188.8557,2189.3537,2188.3348,2188.8555,2186.9182,157.0,2188.3346,2189.3538,2189.8538,2189.8538,2191.5215,1320.2,2191.5219,2.0,2192.5204,8.0,0.0,240.0,18.0,1.0,1.4,0.7,Time
,,S05,1,Male,26,anonymized,Serial_Dependence_U,2023.2.3,Win32,48.07692308,,,,,,,,,,,,2192.5215,8.0,2192.5245,,,,2194.8758,2195.3744,2194.3553,2194.8756,2193.5425,305.0,2194.355,2195.3744,2195.875,2195.8751,2197.5212,790.6,2197.5218,3.0,2198.5195,8.0,1.0,241.0,0.0,1.0,0.8,0.3,Time
,,S05,1,Male,26,anonymized,Serial_Dependence_U,2023.2.3,Win32,48.07692308,,,,,,,,,,,,2198.5206,8.0,2198.5212,,,,2201.0834,2201.5816,2200.5625,2201.0833,2199.5418,167.0,2200.5623,2201.5817,2202.0819,2202.082,2204.0201,1226.0,2204.0206,4.0,2205.0187,8.0,2.0,242.0,26.0,1.0,1.0,0.7,Time
,,S05,1,Male,26,anonymized,Serial_Dependence_U,2023.2.3,Win32,48.07692308,,,,,,,,,,,,2205.02,8.0,2205.0205,,,,2207.9784,2208.4765,2207.4577,2207.9782,2206.041,311.0,2207.4575,2208.4765,2208.9764,2208.9765,2210.7897,1316.2,2210.7901,2.0,2211.7886,8.0,3.0,243.0,23.0,1.0,1.4,0.3,Time
,,S05,1,Male,26,anonymized,Serial_Dependence_U,2023.2.3,Win32,48.07692308,,,,,,,,,,,,2211.7897,8.0,2211.7901,,,,2214.3318,2214.8301,2213.8111,2214.3317,2212.7909,16.0,2213.8109,2214.8302,2215.3299,2215.33,2217.0187,1165.2,2217.019,4.0,2218.0172,8.0,4.0,244.0,21.0,1.0,1.0,0.3,Time
,,S05,1,Male,26,anonymized,Serial_Dependence_U,2023.2.3,Win32,48.07692308,,,,,,,,,,,,2218.0185,8.0,2218.019,,,,2220.3728,2220.8711,2219.8521,2220.3727,2219.0397,143.0,2219.8519,2220.8711,2221.371,2221.3711,2223.0182,1037.4,2223.0186,4.0,2224.0165,8.0,5.0,245.0,15.0,1.0,0.8,0.7,Time
,,S05,1,Male,26,anonymized,Serial_Dependence_U,2023.2.3,Win32,48.07692308,,,,,,,,,,,,2224.0176,8.0,2224.0181,,,,2226.5801,2227.0785,2226.0596,2226.58,2225.039,357.0,2226.0595,2227.0785,2227.5791,2227.5792,2229.2257,1082.6,2229.2261,4.0,2230.224,8.0,6.0,246.0,16.0,1.0,1.0,0.7,Time
,,S05,1,Male,26,anonymized,Serial_Dependence_U,2023.2.3,Win32,48.07692308,,,,,,,,,,,,2230.2253,8.0,2230.2258,,,,2232.9749,2233.4738,2232.4532,2232.9748,2231.2461,277.0,2232.4531,2233.4738,2233.974,2233.9741,2235.9121,1163.7,2235.9126,3.0,2236.9107,8.0,7.0,247.0,7.0,1.0,1.2,0.7,Time
,,S05,1,Male,26,anonymized,Serial_Dependence_U,2023.2.3,Win32,48.07692308,,,,,,,,,,,,2236.9118,8.0,2236.9124,,,,2239.6626,2240.1604,2239.1415,2239.6625,2237.9333,285.0,2239.1413,2240.1605,2240.6605,2240.6605,2242.2657,1035.2,2242.2661,2.0,2243.2645,8.0,8.0,248.0,22.0,1.0,1.2,0.3,Time
,,S05,1,Male,26,anonymized,Serial_Dependence_U,2023.2.3,Win32,48.07692308,,,,,,,,,,,,2243.2654,8.0,2243.2659,,,,2245.8284,2246.3262,2245.3074,2245.8283,2244.2868,357.0,2245.3072,2246.3263,2246.8264,2246.8265,2248.6608,1245.2,2248.6613,4.0,2249.6594,8.0,9.0,249.0,11.0,1.0,1.0,0.3,Time
,,S05,1,Male,26,anonymized,Serial_Dependence_U,2023.2.3,Win32,48.07692308,,,,,,,,,,,,2249.6607,8.0,2249.6613,,,,2252.7853,2253.2838,2252.2637,2252.7852,2250.661,165.0,2252.2637,2253.2838,2253.7838,2253.784,2256.0349,1701.4,2256.0355,4.0,2257.0334,8.0,10.0,250.0,24.0,1.0,1.6,0.3,Time
,,S05,1,Male,26,anonymized,Serial_Dependence_U,2023.2.3,Win32,48.07692308,,,,,,,,,,,,2257.0345,8.0,2257.0351,,,,2260.1803,2260.6789,2259.6599,2260.1802,2258.0559,174.0,2259.6597,2260.6789,2261.1787,2261.1788,2262.9507,1453.3,2262.9511,2.0,2263.9493,8.0,11.0,251.0,9.0,1.0,1.6,0.7,Time
,,S05,1,Male,26,anonymized,Serial_Dependence_U,2023.2.3,Win32,48.07692308,,,,,,,,,,,,2263.9503,8.0,2263.951,,,,2267.0965,2267.5945,2266.5757,2267.0964,2264.9717,100.0,2266.5755,2267.5946,2268.095,2268.0952,2270.2417,1747.2,2270.2421,4.0,2271.2403,8.0,12.0,252.0,4.0,1.0,1.6,0.3,Time
,,S05,1,Male,26,anonymized,Serial_Dependence_U,2023.2.3,Win32,48.07692308,,,,,,,,,,,,2271.2413,8.0,2271.2418,,,,2274.1999,2274.6979,2273.6791,2274.1998,2272.2625,37.0,2273.679,2274.698,2275.1978,2275.198,2276.866,1291.6,2276.8665,2.0,2277.8644,8.0,13.0,253.0,13.0,1.0,1.4,0.3,Time
,,S05,1,Male,26,anonymized,Serial_Dependence_U,2023.2.3,Win32,48.07692308,,,,,,,,,,,,2277.8657,8.0,2277.8662,,,,2280.6158,2281.1146,2280.0951,2280.6157,2278.887,177.0,2280.095,2281.1147,2281.6144,2281.6145,2283.594,1354.6,2283.5944,4.0,2284.5929,8.0,14.0,254.0,27.0,1.0,1.2,0.7,Time
,,S05,1,Male,26,anonymized,Serial_Dependence_U,2023.2.3,Win32,48.07692308,,,,,,,,,,,,2284.5943,8.0,2284.5948,,,,2287.74,2288.2389,2287.2195,2287.7399,2285.6162,303.0,2287.2193,2288.239,2288.7393,2288.7396,2290.5726,1478.0,2290.5731,2.0,2291.5709,8.0,15.0,255.0,29.0,1.0,1.6,0.7,Time
,,S05,1,Male,26,anonymized,Serial_Dependence_U,2023.2.3,Win32,48.07692308,,,,,,,,,,,,2291.5722,8.0,2291.5726,,,,2294.7184,2295.2167,2294.1979,2294.7182,2292.5939,38.0,2294.1977,2295.2168,2295.7163,2295.7164,2297.5514,1479.1,2297.5517,2.0,2298.5494,8.0,16.0,256.0,14.0,1.0,1.6,0.3,Time
,,S05,1,Male,26,anonymized,Serial_Dependence_U,2023.2.3,Win32,48.07692308,,,,,,,,,,,,2298.5504,8.0,2298.551,,,,2300.9052,2301.4031,2300.3844,2300.905,2299.5721,352.0,2300.3841,2301.4031,2301.9039,2301.9042,2303.3623,984.7,2303.3627,4.0,2304.3612,8.0,17.0,257.0,20.0,1.0,0.8,0.3,Time
,,S05,1,Male,26,anonymized,Serial_Dependence_U,2023.2.3,Win32,48.07692308,,,,,,,,,,,,2304.3623,8.0,2304.3628,,,,2306.9254,2307.4234,2306.4045,2306.9253,2305.3835,337.0,2306.4043,2307.4235,2307.9236,2307.9237,2310.0906,1105.5,2310.0911,4.0,2311.0898,8.0,18.0,258.0,1.0,1.0,1.0,0.3,Time
,,S05,1,Male,26,anonymized,Serial_Dependence_U,2023.2.3,Win32,48.07692308,,,,,,,,,,,,2311.0909,8.0,2311.0914,,,,2313.4453,2313.9435,2312.9246,2313.4452,2312.1122,52.0,2312.9243,2313.9435,2314.4437,2314.4438,2315.6948,796.6,2315.6952,3.0,2316.6932,8.0,19.0,259.0,10.0,1.0,0.8,0.3,Time
,,S05,1,Male,26,anonymized,Serial_Dependence_U,2023.2.3,Win32,48.07692308,,,,,,,,,,,,2316.6943,8.0,2316.6949,,,,2319.0488,2319.5475,2318.528,2319.0486,2317.7158,204.0,2318.5279,2319.5476,2320.047,2320.0472,2321.799,836.2,2321.7995,3.0,2322.7965,8.0,20.0,260.0,5.0,1.0,0.8,0.7,Time
,,S05,1,Male,26,anonymized,Serial_Dependence_U,2023.2.3,Win32,48.07692308,,,,,,,,,,,,2322.7974,8.0,2322.798,,,,2325.1522,2325.6502,2324.6314,2325.1521,2323.819,15.0,2324.6311,2325.6503,2326.1499,2326.1499,2328.0057,750.2,2328.0061,2.0,2329.0042,8.0,21.0,261.0,25.0,1.0,0.8,0.7,Time
,,S05,1,Male,26,anonymized,Serial_Dependence_U,2023.2.3,Win32,48.07692308,,,,,,,,,,,,2329.0054,8.0,2329.0059,,,,2331.964,2332.4626,2331.4443,2331.9639,2330.0264,317.0,2331.444,2332.4627,2332.9625,2332.9627,2335.0885,1311.8,2335.0888,2.0,2336.087,8.0,22.0,262.0,8.0,1.0,1.4,0.7,Time
,,S05,1,Male,26,anonymized,Serial_Dependence_U,2023.2.3,Win32,48.07692308,,,,,,,,,,,,2336.088,8.0,2336.0884,,,,2338.8384,2339.3362,2338.3175,2338.8383,2337.1093,35.0,2338.3173,2339.3363,2339.8369,2339.8369,2341.3169,1020.1,2341.3173,2.0,2342.3154,8.0,23.0,263.0,12.0,1.0,1.2,0.3,Time
,,S05,1,Male,26,anonymized,Serial_Dependence_U,2023.2.3,Win32,48.07692308,,,,,,,,,,,,2342.3163,8.0,2342.3169,,,,2345.4626,2345.9605,2344.9417,2345.4624,2343.3378,211.0,2344.9414,2345.9606,2346.4605,2346.4606,2348.4408,1522.8,2348.4412,3.0,2349.4395,8.0,24.0,264.0,19.0,1.0,1.6,0.7,Time
,,S05,1,Male,26,anonymized,Serial_Dependence_U,2023.2.3,Win32,48.07692308,,,,,,,,,,,,2349.4406,8.0,2349.4411,,,,2352.399,2352.8973,2351.8784,2352.3989,2350.4617,43.0,2351.8783,2352.8974,2353.3976,2353.3978,2355.586,1383.0,2355.5863,3.0,2356.5842,8.0,25.0,265.0,28.0,1.0,1.4,0.7,Time
,,S05,1,Male,26,anonymized,Serial_Dependence_U,2023.2.3,Win32,48.07692308,,,,,,,,,,,,2356.5855,8.0,2356.5862,,,,2359.336,2359.8342,2358.8149,2359.3359,2357.6069,126.0,2358.8148,2359.8343,2360.3339,2360.3341,2362.2934,1292.8,2362.2939,4.0,2363.2925,8.0,26.0,266.0,17.0,1.0,1.2,0.7,Time
,,S05,1,Male,26,anonymized,Serial_Dependence_U,2023.2.3,Win32,48.07692308,,,,,,,,,,,,2363.2935,8.0,2363.294,,,,2366.0226,2366.5206,2365.5019,2366.0225,2364.2929,232.0,2365.5017,2366.5206,2367.0212,2367.0214,2368.9593,1437.2,2368.9598,4.0,2369.9577,8.0,27.0,267.0,2.0,1.0,1.2,0.3,Time
,,S05,1,Male,26,anonymized,Serial_Dependence_U,2023.2.3,Win32,48.07692308,,,,,,,,,,,,2369.9589,8.0,2369.9594,,,,2372.5219,2373.0199,2372.0011,2372.5218,2370.9804,300.0,2372.0009,2373.02,2373.5203,2373.5205,2374.7086,1165.0,2374.709,4.0,2375.7071,8.0,28.0,268.0,6.0,1.0,1.0,0.7,Time
,,S05,1,Male,26,anonymized,Serial_Dependence_U,2023.2.3,Win32,48.07692308,,,,,,,,,,,,2375.7081,8.0,2375.7087,,,,2378.6671,2379.1649,2378.1461,2378.6669,2376.7298,243.0,2378.1458,2379.165,2379.6649,2379.665,2380.9574,1227.4,2380.9578,2.0,2381.9563,8.0,29.0,269.0,3.0,1.0,1.4,0.3,Time
