Scale_setup.started,Scale_setup.stopped,participant,session,sex,age,date,expName,psychopyVersion,OS,frameRate,screen_scale_keys.started,screen_scale_keys.stopped,X Scale,Y Scale,rectangel_keys.started,rectangel_keys.stopped,Intro.started,Intro.stopped,key_resp_2.keys,key_resp_2.rt,key_resp_2.duration,block.started,Block_id,block.stopped,Block_resp_2.keys,Block_resp_2.rt,Block_resp_2.duration,ITI.started,ITI.stopped,Mask_2.started,Mask_2.stopped,M2.started,direction,M2.stopped,Cue.started,Cue.stopped,Response.started,Response.stopped,keyDuration,Feedback_Time.started,FeedbackID_T,Feedback_Time.stopped,trials.thisRepN,trials.thisTrialN,trials.thisN,trials.thisIndex,trials.ran,TimeDur,Coherence1,TrialType
0.0002,0.0007,S06,1,Male,34,anonymized,Serial_Dependence_U,2023.2.3,Win32,60.24096386,,,,,,,,,,,,,,,,,,,,,,,,,,,,,,,,,,,,,,,,
,,S06,1,Male,34,anonymized,Serial_Dependence_U,2023.2.3,Win32,60.24096386,0.0032,30.0188,0.0526,0.0524,30.0191,46.3705,46.3716,92.5872,space,46.1114,,,,,,,,,,,,,,,,,,,,,,,,,,,,,,
,,S06,1,Male,34,anonymized,Serial_Dependence_U,2023.2.3,Win32,60.24096386,,,,,,,,,,,,92.6141,0.0,98.7205,s,6.0464,,101.4726,101.9696,100.9575,101.472,99.7398,214.0,100.9572,101.9699,102.4703,102.4729,108.4898,9999.0,108.4918,0.0,109.4869,0.0,0.0,0.0,22.0,1.0,1.2,0.3,Time
,,S06,1,Male,34,anonymized,Serial_Dependence_U,2023.2.3,Win32,60.24096386,,,,,,,,,,,,109.4888,0.0,109.4939,,,,112.4371,112.9364,111.9214,112.4369,110.506,345.0,111.921,112.9366,113.4361,113.4364,119.4545,9999.0,119.4551,0.0,120.4529,0.0,1.0,1.0,28.0,1.0,1.4,0.7,Time
,,S06,1,Male,34,anonymized,Serial_Dependence_U,2023.2.3,Win32,60.24096386,,,,,,,,,,,,120.4546,0.0,120.4555,,,,122.7911,123.2866,122.2721,122.7906,121.4583,168.0,122.2717,123.2869,123.7863,123.7866,129.8044,9999.0,129.8049,0.0,130.8031,0.0,2.0,2.0,15.0,1.0,0.8,0.7,Time
,,S06,1,Male,34,anonymized,Serial_Dependence_U,2023.2.3,Win32,60.24096386,,,,,,,,,,,,130.8047,0.0,130.8054,,,,133.5552,134.0532,133.0434,133.5549,131.8209,180.0,133.0431,134.0534,134.5535,134.5536,140.5732,9999.0,140.5741,0.0,141.5701,0.0,3.0,3.0,17.0,1.0,1.2,0.7,Time
,,S06,1,Male,34,anonymized,Serial_Dependence_U,2023.2.3,Win32,60.24096386,,,,,,,,,,,,141.5713,0.0,141.5721,,,,144.5052,145.0028,143.99,144.5051,142.5873,105.0,143.9898,145.0029,145.5045,145.5046,151.5216,9999.0,151.5223,0.0,152.5204,0.0,4.0,4.0,3.0,1.0,1.4,0.3,Time
,,S06,1,Male,34,anonymized,Serial_Dependence_U,2023.2.3,Win32,60.24096386,,,,,,,,,,,,152.5215,0.0,152.5222,,,,155.6722,156.1695,155.1548,155.6719,153.5384,264.0,155.1545,156.1698,156.6695,156.6698,162.6758,9999.0,162.6764,0.0,163.67,0.0,5.0,5.0,24.0,1.0,1.6,0.3,Time
,,S06,1,Male,34,anonymized,Serial_Dependence_U,2023.2.3,Win32,60.24096386,,,,,,,,,,,,163.6714,0.0,163.6725,,,,166.4043,166.9033,165.8885,166.4041,164.6741,185.0,165.8882,166.9034,167.4032,167.4035,173.4214,9999.0,173.422,0.0,174.4198,0.0,6.0,6.0,27.0,1.0,1.2,0.7,Time
,,S06,1,Male,34,anonymized,Serial_Dependence_U,2023.2.3,Win32,60.24096386,,,,,,,,,,,,174.4213,0.0,174.4226,,,,176.7561,177.2531,176.2402,176.7558,175.438,43.0,176.24,177.2532,177.7531,177.7533,183.7715,9999.0,183.7722,0.0,184.7699,0.0,7.0,7.0,10.0,1.0,0.8,0.3,Time
,,S06,1,Male,34,anonymized,Serial_Dependence_U,2023.2.3,Win32,60.24096386,,,,,,,,,,,,184.7707,0.0,184.7712,,,,187.9033,188.4032,187.3866,187.9032,185.7714,24.0,187.3864,188.4033,188.9031,188.9034,194.9254,9999.0,194.9267,0.0,195.9221,0.0,8.0,8.0,4.0,1.0,1.6,0.3,Time
,,S06,1,Male,34,anonymized,Serial_Dependence_U,2023.2.3,Win32,60.24096386,,,,,,,,,,,,195.9246,0.0,195.9265,,,,198.2409,198.7369,197.7369,198.2407,196.9243,59.0,197.7367,198.737,199.2383,199.2384,205.2587,9999.0,205.2599,0.0,206.2549,0.0,9.0,9.0,0.0,1.0,0.8,0.3,Time
,,S06,1,Male,34,anonymized,Serial_Dependence_U,2023.2.3,Win32,60.24096386,,,,,,,,,,,,206.2567,0.0,206.2573,,,,208.7882,209.2866,208.2745,208.788,207.2707,295.0,208.2743,209.2867,209.788,209.788,215.8042,9999.0,215.8046,0.0,216.8038,0.0,10.0,10.0,26.0,1.0,1.0,0.7,Time
,,S06,1,Male,34,anonymized,Serial_Dependence_U,2023.2.3,Win32,60.24096386,,,,,,,,,,,,216.8051,0.0,216.8058,,,,219.9548,220.454,219.4376,219.9546,217.8211,188.0,219.4373,220.4541,220.9531,220.9532,226.971,9999.0,226.9714,0.0,227.9706,0.0,11.0,11.0,9.0,1.0,1.6,0.7,Time
,,S06,1,Male,34,anonymized,Serial_Dependence_U,2023.2.3,Win32,60.24096386,,,,,,,,,,,,227.9718,0.0,227.9724,,,,231.1221,231.6206,230.6055,231.122,228.9881,206.0,230.6052,231.6207,232.1207,232.1207,238.1386,9999.0,238.1392,0.0,239.1373,0.0,12.0,12.0,14.0,1.0,1.6,0.3,Time
,,S06,1,Male,34,anonymized,Serial_Dependence_U,2023.2.3,Win32,60.24096386,,,,,,,,,,,,239.1385,0.0,239.1395,,,,242.092,242.5869,241.578,242.0917,240.1545,330.0,241.5778,242.5871,243.0873,243.0875,249.1044,9999.0,249.1048,0.0,250.1042,0.0,13.0,13.0,18.0,1.0,1.4,0.7,Time
,,S06,1,Male,34,anonymized,Serial_Dependence_U,2023.2.3,Win32,60.24096386,,,,,,,,,,,,250.1053,0.0,250.1063,,,,252.6607,253.1539,252.1382,252.6581,251.1212,235.0,252.1378,253.154,253.6558,253.656,259.6734,9999.0,259.6743,0.0,260.6709,0.0,14.0,14.0,11.0,1.0,1.0,0.3,Time
,,S06,1,Male,34,anonymized,Serial_Dependence_U,2023.2.3,Win32,60.24096386,,,,,,,,,,,,260.672,0.0,260.6726,,,,263.0232,263.5207,262.5053,263.0229,261.6915,169.0,262.5051,263.5208,264.021,264.0211,270.0389,9999.0,270.0395,0.0,271.0375,0.0,15.0,15.0,25.0,1.0,0.8,0.7,Time
,,S06,1,Male,34,anonymized,Serial_Dependence_U,2023.2.3,Win32,60.24096386,,,,,,,,,,,,271.0387,0.0,271.0393,,,,273.5902,274.0871,273.0732,273.59,272.0548,31.0,273.0729,274.0872,274.5869,274.5872,280.5904,9999.0,280.5915,0.0,281.5869,0.0,16.0,16.0,16.0,1.0,1.0,0.7,Time
,,S06,1,Male,34,anonymized,Serial_Dependence_U,2023.2.3,Win32,60.24096386,,,,,,,,,,,,281.5885,0.0,281.5892,,,,284.3257,284.8204,283.805,284.3255,282.59,173.0,283.8049,284.8206,285.3211,285.3213,291.3408,9999.0,291.3414,0.0,292.3368,0.0,17.0,17.0,12.0,1.0,1.2,0.3,Time
,,S06,1,Male,34,anonymized,Serial_Dependence_U,2023.2.3,Win32,60.24096386,,,,,,,,,,,,292.3381,0.0,292.3389,,,,295.4733,295.9703,294.9579,295.4731,293.3404,354.0,294.9576,295.9705,296.4706,296.4708,302.4888,9999.0,302.4893,0.0,303.4871,0.0,18.0,18.0,29.0,1.0,1.6,0.7,Time
,,S06,1,Male,34,anonymized,Serial_Dependence_U,2023.2.3,Win32,60.24096386,,,,,,,,,,,,303.4887,0.0,303.4893,,,,306.24,306.7373,305.722,306.2396,304.5049,263.0,305.7217,306.7373,307.2377,307.2379,313.2562,9999.0,313.2568,0.0,314.2543,0.0,19.0,19.0,2.0,1.0,1.2,0.3,Time
,,S06,1,Male,34,anonymized,Serial_Dependence_U,2023.2.3,Win32,60.24096386,,,,,,,,,,,,314.2557,0.0,314.2565,,,,316.8054,317.3039,316.2892,316.8051,315.2726,315.0,316.289,317.3039,317.8033,317.8034,323.821,9999.0,323.8213,0.0,324.8206,0.0,20.0,20.0,1.0,1.0,1.0,0.3,Time
,,S06,1,Male,34,anonymized,Serial_Dependence_U,2023.2.3,Win32,60.24096386,,,,,,,,,,,,324.8221,0.0,324.8228,,,,327.5714,328.0707,327.0551,327.5713,325.8379,207.0,327.055,328.0709,328.5699,328.57,334.5731,9999.0,334.5736,0.0,335.5706,0.0,21.0,21.0,7.0,1.0,1.2,0.7,Time
,,S06,1,Male,34,anonymized,Serial_Dependence_U,2023.2.3,Win32,60.24096386,,,,,,,,,,,,335.5722,0.0,335.5729,,,,338.5237,339.0212,338.006,338.5234,336.5894,250.0,338.0057,339.0213,339.5207,339.5209,345.538,9999.0,345.5384,0.0,346.5373,0.0,22.0,22.0,8.0,1.0,1.4,0.7,Time
,,S06,1,Male,34,anonymized,Serial_Dependence_U,2023.2.3,Win32,60.24096386,,,,,,,,,,,,346.5388,0.0,346.5394,,,,349.0906,349.5873,348.5728,349.0904,347.5551,331.0,348.5726,349.5873,350.0874,350.0875,356.106,9999.0,356.1064,0.0,357.1042,0.0,23.0,23.0,6.0,1.0,1.0,0.7,Time
,,S06,1,Male,34,anonymized,Serial_Dependence_U,2023.2.3,Win32,60.24096386,,,,,,,,,,,,357.1056,0.0,357.1063,,,,359.6576,360.154,359.1393,359.6574,358.1217,24.0,359.1391,360.1541,360.6542,360.6544,366.6576,9999.0,366.6581,0.0,367.6542,0.0,24.0,24.0,21.0,1.0,1.0,0.3,Time
,,S06,1,Male,34,anonymized,Serial_Dependence_U,2023.2.3,Win32,60.24096386,,,,,,,,,,,,367.6556,0.0,367.6564,,,,370.5909,371.0875,370.0739,370.5906,368.6586,285.0,370.0737,371.0876,371.5875,371.5877,377.6061,9999.0,377.6068,0.0,378.6048,0.0,25.0,25.0,13.0,1.0,1.4,0.3,Time
,,S06,1,Male,34,anonymized,Serial_Dependence_U,2023.2.3,Win32,60.24096386,,,,,,,,,,,,378.6059,0.0,378.6067,,,,380.9546,381.455,380.4375,380.9544,379.6216,45.0,380.4374,381.4552,381.9547,381.9548,387.9583,9999.0,387.9593,0.0,388.9548,0.0,26.0,26.0,20.0,1.0,0.8,0.3,Time
,,S06,1,Male,34,anonymized,Serial_Dependence_U,2023.2.3,Win32,60.24096386,,,,,,,,,,,,388.9561,0.0,388.9568,,,,392.0898,392.5881,391.573,392.0896,389.9609,305.0,391.5728,392.5882,393.0882,393.0883,399.0927,9999.0,399.0932,0.0,400.0883,0.0,27.0,27.0,19.0,1.0,1.6,0.7,Time
,,S06,1,Male,34,anonymized,Serial_Dependence_U,2023.2.3,Win32,60.24096386,,,,,,,,,,,,400.0894,0.0,400.09,,,,403.0234,403.521,402.5061,403.0232,401.0907,190.0,402.5059,403.5211,404.022,404.0222,410.0346,9999.0,410.0354,0.0,411.0379,0.0,28.0,28.0,23.0,1.0,1.4,0.3,Time
,,S06,1,Male,34,anonymized,Serial_Dependence_U,2023.2.3,Win32,60.24096386,,,,,,,,,,,,411.0393,0.0,411.0401,,,,413.3743,413.8711,412.8564,413.374,412.0408,104.0,412.8562,413.8713,414.3741,414.3741,420.3774,9999.0,420.3787,0.0,421.3711,0.0,29.0,29.0,5.0,1.0,0.8,0.7,Time
,,S06,1,Male,34,anonymized,Serial_Dependence_U,2023.2.3,Win32,60.24096386,,,,,,,,,,,,421.3733,1.0,429.6715,s,8.2743,,432.0098,432.5057,431.5063,432.0095,430.689,125.0,431.506,432.5057,433.0051,433.0052,439.0222,9999.0,439.0226,0.0,440.0223,1.0,0.0,30.0,20.0,1.0,0.8,0.3,Time
,,S06,1,Male,34,anonymized,Serial_Dependence_U,2023.2.3,Win32,60.24096386,,,,,,,,,,,,440.0245,1.0,440.0288,,,,442.9621,443.4543,442.4563,442.9618,441.0389,215.0,442.4561,443.4545,443.9545,443.9548,449.9723,9999.0,449.9732,0.0,450.9712,1.0,1.0,31.0,13.0,1.0,1.4,0.3,Time
,,S06,1,Male,34,anonymized,Serial_Dependence_U,2023.2.3,Win32,60.24096386,,,,,,,,,,,,450.9724,1.0,450.9732,,,,454.1233,454.6218,453.6065,454.1231,451.9898,348.0,453.6063,454.6219,455.122,455.1221,461.1391,9999.0,461.1395,0.0,462.1393,1.0,2.0,32.0,24.0,1.0,1.6,0.3,Time
,,S06,1,Male,34,anonymized,Serial_Dependence_U,2023.2.3,Win32,60.24096386,,,,,,,,,,,,462.1408,1.0,462.1411,,,,465.0897,465.588,464.5733,465.0895,463.1559,207.0,464.573,465.5881,466.088,466.0882,472.0912,9999.0,472.0918,0.0,473.088,1.0,3.0,33.0,28.0,1.0,1.4,0.7,Time
,,S06,1,Male,34,anonymized,Serial_Dependence_U,2023.2.3,Win32,60.24096386,,,,,,,,,,,,473.0895,1.0,473.0902,,,,475.8397,476.3381,475.3228,475.8395,474.1056,113.0,475.3226,476.3382,476.838,476.8382,482.8554,9999.0,482.8557,0.0,483.8549,1.0,4.0,34.0,27.0,1.0,1.2,0.7,Time
,,S06,1,Male,34,anonymized,Serial_Dependence_U,2023.2.3,Win32,60.24096386,,,,,,,,,,,,483.8565,1.0,483.8573,,,,487.0057,487.5049,486.4897,487.0056,484.8728,209.0,486.4895,487.505,488.0049,488.0051,494.0225,9999.0,494.0229,0.0,495.0222,1.0,5.0,35.0,29.0,1.0,1.6,0.7,Time
,,S06,1,Male,34,anonymized,Serial_Dependence_U,2023.2.3,Win32,60.24096386,,,,,,,,,,,,495.0233,1.0,495.024,,,,497.3565,497.8555,496.8514,497.3563,496.0417,182.0,496.851,497.8556,498.3554,498.3555,504.3724,9999.0,504.3729,0.0,505.3722,1.0,6.0,36.0,0.0,1.0,0.8,0.3,Time
,,S06,1,Male,34,anonymized,Serial_Dependence_U,2023.2.3,Win32,60.24096386,,,,,,,,,,,,505.3734,1.0,505.374,,,,508.3238,508.822,507.8068,508.3236,506.3897,115.0,507.8065,508.8223,509.322,509.3222,515.3399,9999.0,515.3405,0.0,516.3389,1.0,7.0,37.0,23.0,1.0,1.4,0.3,Time
,,S06,1,Male,34,anonymized,Serial_Dependence_U,2023.2.3,Win32,60.24096386,,,,,,,,,,,,516.3402,1.0,516.3408,,,,518.8772,519.3717,518.3737,518.8771,517.3571,290.0,518.3735,519.3718,519.8717,519.8719,525.8768,9999.0,525.8772,0.0,526.8717,1.0,8.0,38.0,16.0,1.0,1.0,0.7,Time
,,S06,1,Male,34,anonymized,Serial_Dependence_U,2023.2.3,Win32,60.24096386,,,,,,,,,,,,526.8731,1.0,526.8738,,,,529.8078,530.305,529.2919,529.8074,527.8899,72.0,529.2917,530.305,530.8051,530.8053,536.8085,9999.0,536.8093,0.0,537.8059,1.0,9.0,39.0,3.0,1.0,1.4,0.3,Time
,,S06,1,Male,34,anonymized,Serial_Dependence_U,2023.2.3,Win32,60.24096386,,,,,,,,,,,,537.807,1.0,537.8077,,,,540.5565,541.0557,540.0395,540.5563,538.823,194.0,540.0394,541.0558,541.5498,541.5501,547.5583,9999.0,547.5589,0.0,548.555,1.0,10.0,40.0,2.0,1.0,1.2,0.3,Time
,,S06,1,Male,34,anonymized,Serial_Dependence_U,2023.2.3,Win32,60.24096386,,,,,,,,,,,,548.5566,1.0,548.5575,,,,551.5068,552.0051,550.9894,551.5064,549.5745,330.0,550.9892,552.0052,552.5051,552.5053,558.5091,9999.0,558.5098,0.0,559.5055,1.0,11.0,41.0,18.0,1.0,1.4,0.7,Time
,,S06,1,Male,34,anonymized,Serial_Dependence_U,2023.2.3,Win32,60.24096386,,,,,,,,,,,,559.507,1.0,559.508,,,,562.0405,562.5384,561.5229,562.0403,560.5173,245.0,561.5227,562.5385,563.0386,563.0388,569.044,9999.0,569.0445,0.0,570.0382,1.0,12.0,42.0,6.0,1.0,1.0,0.7,Time
,,S06,1,Male,34,anonymized,Serial_Dependence_U,2023.2.3,Win32,60.24096386,,,,,,,,,,,,570.039,1.0,570.0393,,,,572.3749,572.872,571.8585,572.3748,571.0413,7.0,571.8583,572.872,573.372,573.3722,579.3748,9999.0,579.3753,0.0,580.3722,1.0,13.0,43.0,5.0,1.0,0.8,0.7,Time
,,S06,1,Male,34,anonymized,Serial_Dependence_U,2023.2.3,Win32,60.24096386,,,,,,,,,,,,580.3737,1.0,580.3746,,,,583.5124,584.0055,583.0069,583.5122,581.3905,283.0,583.0069,584.0055,584.5056,584.5056,590.519,9999.0,590.5194,0.0,591.5222,1.0,14.0,44.0,14.0,1.0,1.6,0.3,Time
,,S06,1,Male,34,anonymized,Serial_Dependence_U,2023.2.3,Win32,60.24096386,,,,,,,,,,,,591.5237,1.0,591.5245,,,,594.6585,595.1554,594.1403,594.6583,592.5294,249.0,594.1402,595.1555,595.6555,595.6557,601.673,9999.0,601.6733,0.0,602.6729,1.0,15.0,45.0,9.0,1.0,1.6,0.7,Time
,,S06,1,Male,34,anonymized,Serial_Dependence_U,2023.2.3,Win32,60.24096386,,,,,,,,,,,,602.6748,1.0,602.6757,,,,605.0235,605.5238,604.5066,605.0234,603.692,106.0,604.5065,605.5239,606.0227,606.0229,612.0284,9999.0,612.0288,0.0,613.0218,1.0,16.0,46.0,25.0,1.0,0.8,0.7,Time
,,S06,1,Male,34,anonymized,Serial_Dependence_U,2023.2.3,Win32,60.24096386,,,,,,,,,,,,613.0226,1.0,613.0229,,,,615.7588,616.2555,615.2419,615.7587,614.0274,48.0,615.2418,616.2556,616.7555,616.7557,622.7738,9999.0,622.7745,0.0,623.7723,1.0,17.0,47.0,12.0,1.0,1.2,0.3,Time
,,S06,1,Male,34,anonymized,Serial_Dependence_U,2023.2.3,Win32,60.24096386,,,,,,,,,,,,623.7739,1.0,623.7746,,,,626.3267,626.8231,625.8084,626.3264,624.7904,97.0,625.8083,626.8232,627.3229,627.323,633.3251,9999.0,633.3256,0.0,634.3225,1.0,18.0,48.0,11.0,1.0,1.0,0.3,Time
,,S06,1,Male,34,anonymized,Serial_Dependence_U,2023.2.3,Win32,60.24096386,,,,,,,,,,,,634.3239,1.0,634.3247,,,,637.4578,637.9585,636.9438,637.4575,635.3403,221.0,636.9435,637.9587,638.4563,638.4564,644.4743,9999.0,644.475,0.0,645.4731,1.0,19.0,49.0,19.0,1.0,1.6,0.7,Time
,,S06,1,Male,34,anonymized,Serial_Dependence_U,2023.2.3,Win32,60.24096386,,,,,,,,,,,,645.4744,1.0,645.475,,,,648.224,648.723,647.7067,648.2238,646.4909,265.0,647.7065,648.7231,649.2231,649.2231,655.2409,9999.0,655.2415,0.0,656.2398,1.0,20.0,50.0,22.0,1.0,1.2,0.3,Time
,,S06,1,Male,34,anonymized,Serial_Dependence_U,2023.2.3,Win32,60.24096386,,,,,,,,,,,,656.241,1.0,656.2416,,,,659.3922,659.8891,658.8747,659.392,657.2578,209.0,658.8744,659.8891,660.3893,660.3895,666.4066,9999.0,666.4076,0.0,667.4064,1.0,21.0,51.0,4.0,1.0,1.6,0.3,Time
,,S06,1,Male,34,anonymized,Serial_Dependence_U,2023.2.3,Win32,60.24096386,,,,,,,,,,,,667.4087,1.0,667.4097,,,,670.1427,670.6391,669.6271,670.1425,668.4243,165.0,669.6269,670.6392,671.1393,671.1395,677.1424,9999.0,677.1428,0.0,678.1392,1.0,22.0,52.0,7.0,1.0,1.2,0.7,Time
,,S06,1,Male,34,anonymized,Serial_Dependence_U,2023.2.3,Win32,60.24096386,,,,,,,,,,,,678.1408,1.0,678.1416,,,,680.4741,680.9728,679.9628,680.4739,679.156,148.0,679.9626,680.9729,681.4725,681.4727,687.4747,9999.0,687.4753,0.0,688.4734,1.0,23.0,53.0,15.0,1.0,0.8,0.7,Time
,,S06,1,Male,34,anonymized,Serial_Dependence_U,2023.2.3,Win32,60.24096386,,,,,,,,,,,,688.4747,1.0,688.4754,,,,691.0069,691.5066,690.5011,691.0068,689.4897,77.0,690.5007,691.5067,692.0073,692.0073,698.0165,9999.0,698.0169,0.0,699.0061,1.0,24.0,54.0,26.0,1.0,1.0,0.7,Time
,,S06,1,Male,34,anonymized,Serial_Dependence_U,2023.2.3,Win32,60.24096386,,,,,,,,,,,,699.008,1.0,699.0088,,,,701.7576,702.2567,701.2417,701.7574,700.0247,178.0,701.2414,702.2568,702.7571,702.7572,708.7761,9999.0,708.7765,0.0,709.7728,1.0,25.0,55.0,17.0,1.0,1.2,0.7,Time
,,S06,1,Male,34,anonymized,Serial_Dependence_U,2023.2.3,Win32,60.24096386,,,,,,,,,,,,709.7745,1.0,709.7753,,,,712.1262,712.6236,711.6083,712.1261,710.7903,45.0,711.6081,712.6237,713.1231,713.1233,719.1414,9999.0,719.1419,0.0,720.1396,1.0,26.0,56.0,10.0,1.0,0.8,0.3,Time
,,S06,1,Male,34,anonymized,Serial_Dependence_U,2023.2.3,Win32,60.24096386,,,,,,,,,,,,720.1411,1.0,720.1419,,,,722.6795,723.1728,722.1757,722.6792,721.158,157.0,722.1755,723.173,723.6729,723.673,729.6897,9999.0,729.69,0.0,730.6895,1.0,27.0,57.0,1.0,1.0,1.0,0.3,Time
,,S06,1,Male,34,anonymized,Serial_Dependence_U,2023.2.3,Win32,60.24096386,,,,,,,,,,,,730.6904,1.0,730.6908,,,,733.226,733.7225,732.7077,733.2259,731.6957,104.0,732.7075,733.7226,734.2246,734.2248,740.2415,9999.0,740.2421,0.0,741.2402,1.0,28.0,58.0,21.0,1.0,1.0,0.3,Time
,,S06,1,Male,34,anonymized,Serial_Dependence_U,2023.2.3,Win32,60.24096386,,,,,,,,,,,,741.2415,1.0,741.2421,,,,744.1913,744.6912,743.6792,744.1911,742.2586,21.0,743.6781,744.6913,745.1904,745.1905,751.2082,9999.0,751.2088,0.0,752.207,1.0,29.0,59.0,8.0,1.0,1.4,0.7,Time
,,S06,1,Male,34,anonymized,Serial_Dependence_U,2023.2.3,Win32,60.24096386,,,,,,,,,,,,752.2082,2.0,775.6407,s,23.3986,,778.7918,779.2904,778.2753,778.7916,776.6584,200.0,778.275,779.2906,779.7904,779.7906,785.8131,9999.0,785.8138,0.0,786.8076,2.0,0.0,60.0,4.0,1.0,1.6,0.3,Time
,,S06,1,Male,34,anonymized,Serial_Dependence_U,2023.2.3,Win32,60.24096386,,,,,,,,,,,,786.8097,2.0,786.8138,,,,789.5588,790.0573,789.0416,789.5586,787.825,99.0,789.0414,790.0574,790.5572,790.5573,796.5752,9999.0,796.5757,0.0,797.5741,2.0,1.0,61.0,22.0,1.0,1.2,0.3,Time
,,S06,1,Male,34,anonymized,Serial_Dependence_U,2023.2.3,Win32,60.24096386,,,,,,,,,,,,797.5752,2.0,797.5758,,,,800.728,801.2237,800.2086,800.7276,798.5919,168.0,800.2083,801.2237,801.7236,801.7238,807.7416,9999.0,807.742,0.0,808.74,2.0,2.0,62.0,29.0,1.0,1.6,0.7,Time
,,S06,1,Male,34,anonymized,Serial_Dependence_U,2023.2.3,Win32,60.24096386,,,,,,,,,,,,808.7416,2.0,808.7428,,,,811.0806,811.573,810.5759,811.0805,809.7611,287.0,810.5757,811.5731,812.074,812.0742,818.0923,9999.0,818.0933,0.0,819.0903,2.0,3.0,63.0,25.0,1.0,0.8,0.7,Time
,,S06,1,Male,34,anonymized,Serial_Dependence_U,2023.2.3,Win32,60.24096386,,,,,,,,,,,,819.0918,2.0,819.0925,,,,822.041,822.5407,821.5256,822.0408,820.1081,142.0,821.5253,822.5408,823.0408,823.0409,829.0577,9999.0,829.0581,0.0,830.0576,2.0,4.0,64.0,3.0,1.0,1.4,0.3,Time
,,S06,1,Male,34,anonymized,Serial_Dependence_U,2023.2.3,Win32,60.24096386,,,,,,,,,,,,830.0587,2.0,830.0593,,,,833.2078,833.7068,832.6929,833.2076,831.0757,313.0,832.6926,833.7068,834.2068,834.207,840.2111,9999.0,840.2117,0.0,841.2071,2.0,5.0,65.0,14.0,1.0,1.6,0.3,Time
,,S06,1,Male,34,anonymized,Serial_Dependence_U,2023.2.3,Win32,60.24096386,,,,,,,,,,,,841.2085,2.0,841.2095,,,,844.1424,844.6402,843.6271,844.1422,842.2098,104.0,843.6268,844.6402,845.1404,845.1405,851.1432,9999.0,851.1437,0.0,852.1403,2.0,6.0,66.0,8.0,1.0,1.4,0.7,Time
,,S06,1,Male,34,anonymized,Serial_Dependence_U,2023.2.3,Win32,60.24096386,,,,,,,,,,,,852.1418,2.0,852.1426,,,,855.0577,855.5575,854.5461,855.0574,853.1434,115.0,854.5459,855.5576,856.0568,856.057,862.0627,9999.0,862.0631,0.0,863.0575,2.0,7.0,67.0,23.0,1.0,1.4,0.3,Time
,,S06,1,Male,34,anonymized,Serial_Dependence_U,2023.2.3,Win32,60.24096386,,,,,,,,,,,,863.0599,2.0,863.0608,,,,865.5959,866.0909,865.0803,865.5952,864.0749,251.0,865.0798,866.091,866.5929,866.593,872.6078,9999.0,872.6082,0.0,873.6078,2.0,8.0,68.0,26.0,1.0,1.0,0.7,Time
,,S06,1,Male,34,anonymized,Serial_Dependence_U,2023.2.3,Win32,60.24096386,,,,,,,,,,,,873.609,2.0,873.6097,,,,876.1453,876.6402,875.6409,876.1451,874.6258,39.0,875.6408,876.6403,877.1404,877.1405,883.1456,9999.0,883.1467,0.0,884.1405,2.0,9.0,69.0,16.0,1.0,1.0,0.7,Time
,,S06,1,Male,34,anonymized,Serial_Dependence_U,2023.2.3,Win32,60.24096386,,,,,,,,,,,,884.143,2.0,884.144,,,,887.2752,887.7736,886.7609,887.275,885.1452,121.0,886.7608,887.7737,888.2738,888.274,894.2762,9999.0,894.2768,0.0,895.2741,2.0,10.0,70.0,24.0,1.0,1.6,0.3,Time
,,S06,1,Male,34,anonymized,Serial_Dependence_U,2023.2.3,Win32,60.24096386,,,,,,,,,,,,895.2754,2.0,895.2759,,,,898.4093,898.9082,897.8944,898.4092,896.2916,135.0,897.8941,898.9084,899.4079,899.408,905.4258,9999.0,905.4264,0.0,906.4246,2.0,11.0,71.0,9.0,1.0,1.6,0.7,Time
,,S06,1,Male,34,anonymized,Serial_Dependence_U,2023.2.3,Win32,60.24096386,,,,,,,,,,,,906.4257,2.0,906.4267,,,,908.777,909.2739,908.2617,908.7769,907.4415,254.0,908.2612,909.274,909.7741,909.7742,915.7794,9999.0,915.7802,0.0,916.7735,2.0,12.0,72.0,5.0,1.0,0.8,0.7,Time
,,S06,1,Male,34,anonymized,Serial_Dependence_U,2023.2.3,Win32,60.24096386,,,,,,,,,,,,916.7746,2.0,916.7751,,,,919.5243,920.0241,919.0082,919.5241,917.7909,288.0,919.0081,920.0241,920.5241,920.5243,926.5278,9999.0,926.5283,0.0,927.5239,2.0,13.0,73.0,2.0,1.0,1.2,0.3,Time
,,S06,1,Male,34,anonymized,Serial_Dependence_U,2023.2.3,Win32,60.24096386,,,,,,,,,,,,927.5252,2.0,927.5259,,,,930.4776,930.974,929.9632,930.4774,928.5438,265.0,929.963,930.9741,931.4738,931.4738,937.4924,9999.0,937.493,0.0,938.4914,2.0,14.0,74.0,18.0,1.0,1.4,0.7,Time
,,S06,1,Male,34,anonymized,Serial_Dependence_U,2023.2.3,Win32,60.24096386,,,,,,,,,,,,938.4926,2.0,938.4931,,,,941.2424,941.7413,940.7263,941.2423,939.5095,214.0,940.726,941.7414,942.2414,942.2415,948.2592,9999.0,948.26,0.0,949.2575,2.0,15.0,75.0,12.0,1.0,1.2,0.3,Time
,,S06,1,Male,34,anonymized,Serial_Dependence_U,2023.2.3,Win32,60.24096386,,,,,,,,,,,,949.2591,2.0,949.2598,,,,951.7924,952.2908,951.276,951.7922,950.2605,85.0,951.2759,952.2908,952.791,952.791,958.795,9999.0,958.7956,0.0,959.7908,2.0,16.0,76.0,21.0,1.0,1.0,0.3,Time
,,S06,1,Male,34,anonymized,Serial_Dependence_U,2023.2.3,Win32,60.24096386,,,,,,,,,,,,959.7926,2.0,959.7934,,,,962.3259,962.8248,961.81,962.3257,960.796,204.0,961.8097,962.8249,963.3249,963.325,969.3423,9999.0,969.3427,0.0,970.3407,2.0,17.0,77.0,6.0,1.0,1.0,0.7,Time
,,S06,1,Male,34,anonymized,Serial_Dependence_U,2023.2.3,Win32,60.24096386,,,,,,,,,,,,970.3415,2.0,970.342,,,,973.2955,973.7918,972.7773,973.2954,971.3594,351.0,972.7771,973.7919,974.2916,974.2917,980.3084,9999.0,980.3087,0.0,981.3083,2.0,18.0,78.0,28.0,1.0,1.4,0.7,Time
,,S06,1,Male,34,anonymized,Serial_Dependence_U,2023.2.3,Win32,60.24096386,,,,,,,,,,,,981.3096,2.0,981.3102,,,,983.6587,984.1582,983.1431,983.6585,982.3261,342.0,983.1429,984.1582,984.6585,984.6586,990.6618,9999.0,990.6624,0.0,991.6578,2.0,19.0,79.0,10.0,1.0,0.8,0.3,Time
,,S06,1,Male,34,anonymized,Serial_Dependence_U,2023.2.3,Win32,60.24096386,,,,,,,,,,,,991.6593,2.0,991.6601,,,,994.4091,994.9084,993.893,994.409,992.6754,254.0,993.8928,994.9084,995.4078,995.4079,1001.4254,9999.0,1001.4258,0.0,1002.4246,2.0,20.0,80.0,7.0,1.0,1.2,0.7,Time
,,S06,1,Male,34,anonymized,Serial_Dependence_U,2023.2.3,Win32,60.24096386,,,,,,,,,,,,1002.4262,2.0,1002.4269,,,,1004.776,1005.2751,1004.2594,1004.7758,1003.4433,288.0,1004.2592,1005.2752,1005.7764,1005.7765,1011.7927,9999.0,1011.7937,0.0,1012.7919,2.0,21.0,81.0,0.0,1.0,0.8,0.3,Time
,,S06,1,Male,34,anonymized,Serial_Dependence_U,2023.2.3,Win32,60.24096386,,,,,,,,,,,,1012.793,2.0,1012.7936,,,,1015.946,1016.4419,1015.4266,1015.9457,1013.81,246.0,1015.4263,1016.442,1016.9418,1016.9419,1022.9478,9999.0,1022.9483,0.0,1023.9421,2.0,22.0,82.0,19.0,1.0,1.6,0.7,Time
,,S06,1,Male,34,anonymized,Serial_Dependence_U,2023.2.3,Win32,60.24096386,,,,,,,,,,,,1023.9434,2.0,1023.9441,,,,1026.2776,1026.7747,1025.7613,1026.2774,1024.9516,147.0,1025.761,1026.7748,1027.275,1027.2751,1033.2808,9999.0,1033.2814,0.0,1034.2743,2.0,23.0,83.0,15.0,1.0,0.8,0.7,Time
,,S06,1,Male,34,anonymized,Serial_Dependence_U,2023.2.3,Win32,60.24096386,,,,,,,,,,,,1034.2753,2.0,1034.2759,,,,1037.0095,1037.5077,1036.5081,1037.0094,1035.2916,304.0,1036.5081,1037.5078,1038.0076,1038.0077,1044.0088,9999.0,1044.0092,0.0,1045.0096,2.0,24.0,84.0,27.0,1.0,1.2,0.7,Time
,,S06,1,Male,34,anonymized,Serial_Dependence_U,2023.2.3,Win32,60.24096386,,,,,,,,,,,,1045.0111,2.0,1045.0116,,,,1047.3434,1047.8415,1046.8278,1047.3433,1046.0151,147.0,1046.8277,1047.8417,1048.3415,1048.3416,1054.3594,9999.0,1054.3603,0.0,1055.359,2.0,25.0,85.0,20.0,1.0,0.8,0.3,Time
,,S06,1,Male,34,anonymized,Serial_Dependence_U,2023.2.3,Win32,60.24096386,,,,,,,,,,,,1055.3612,2.0,1055.3622,,,,1058.1116,1058.608,1057.5931,1058.1108,1056.3773,196.0,1057.5929,1058.608,1059.1085,1059.1086,1065.1252,9999.0,1065.1255,0.0,1066.1255,2.0,26.0,86.0,17.0,1.0,1.2,0.7,Time
,,S06,1,Male,34,anonymized,Serial_Dependence_U,2023.2.3,Win32,60.24096386,,,,,,,,,,,,1066.1268,2.0,1066.1278,,,,1069.0769,1069.5749,1068.5603,1069.0767,1067.1436,196.0,1068.5601,1069.5749,1070.0749,1070.075,1076.0929,9999.0,1076.0933,0.0,1077.0921,2.0,27.0,87.0,13.0,1.0,1.4,0.3,Time
,,S06,1,Male,34,anonymized,Serial_Dependence_U,2023.2.3,Win32,60.24096386,,,,,,,,,,,,1077.0933,2.0,1077.094,,,,1079.6268,1080.1254,1079.1095,1079.6265,1078.0972,296.0,1079.1094,1080.1255,1080.6256,1080.6257,1086.6428,9999.0,1086.6432,0.0,1087.6424,2.0,28.0,88.0,1.0,1.0,1.0,0.3,Time
,,S06,1,Male,34,anonymized,Serial_Dependence_U,2023.2.3,Win32,60.24096386,,,,,,,,,,,,1087.6437,2.0,1087.6444,,,,1090.192,1090.6911,1089.6752,1090.1919,1088.6587,118.0,1089.6751,1090.6912,1091.1912,1091.1914,1097.1929,9999.0,1097.1933,0.0,1098.1925,2.0,29.0,89.0,11.0,1.0,1.0,0.3,Time
,,S06,1,Male,34,anonymized,Serial_Dependence_U,2023.2.3,Win32,60.24096386,,,,,,,,,,,,1098.1936,3.0,1230.1771,s,131.952,,1233.3287,1233.8258,1232.8117,1233.3284,1231.1933,157.0,1232.8113,1233.8261,1234.326,1234.3262,1240.3447,9999.0,1240.3453,0.0,1241.3426,3.0,0.0,90.0,9.0,1.0,1.6,0.7,Time
,,S06,1,Male,34,anonymized,Serial_Dependence_U,2023.2.3,Win32,60.24096386,,,,,,,,,,,,1241.3442,3.0,1241.3484,,,,1243.8971,1244.3931,1243.379,1243.8969,1242.3613,87.0,1243.3787,1244.3932,1244.8944,1244.8946,1250.9001,9999.0,1250.9007,0.0,1251.8931,3.0,1.0,91.0,16.0,1.0,1.0,0.7,Time
,,S06,1,Male,34,anonymized,Serial_Dependence_U,2023.2.3,Win32,60.24096386,,,,,,,,,,,,1251.8943,3.0,1251.8951,,,,1254.2289,1254.7258,1253.7105,1254.2287,1252.8985,0.0,1253.7103,1254.7258,1255.2262,1255.2262,1261.2445,9999.0,1261.2451,0.0,1262.2434,3.0,2.0,92.0,25.0,1.0,0.8,0.7,Time
,,S06,1,Male,34,anonymized,Serial_Dependence_U,2023.2.3,Win32,60.24096386,,,,,,,,,,,,1262.2446,3.0,1262.2451,,,,1264.795,1265.2933,1264.2771,1264.7948,1263.2615,137.0,1264.2769,1265.2934,1265.7933,1265.7935,1271.8115,9999.0,1271.812,0.0,1272.8105,3.0,3.0,93.0,26.0,1.0,1.0,0.7,Time
,,S06,1,Male,34,anonymized,Serial_Dependence_U,2023.2.3,Win32,60.24096386,,,,,,,,,,,,1272.8116,3.0,1272.8123,,,,1275.5453,1276.0431,1275.0435,1275.5449,1273.8278,160.0,1275.0433,1276.0431,1276.5433,1276.5435,1282.5645,9999.0,1282.5652,0.0,1283.5595,3.0,4.0,94.0,12.0,1.0,1.2,0.3,Time
,,S06,1,Male,34,anonymized,Serial_Dependence_U,2023.2.3,Win32,60.24096386,,,,,,,,,,,,1283.5611,3.0,1283.5621,,,,1286.0946,1286.5932,1285.5785,1286.0944,1284.563,127.0,1285.5784,1286.5935,1287.0929,1287.093,1293.1114,9999.0,1293.1123,0.0,1294.1091,3.0,5.0,95.0,11.0,1.0,1.0,0.3,Time
,,S06,1,Male,34,anonymized,Serial_Dependence_U,2023.2.3,Win32,60.24096386,,,,,,,,,,,,1294.11,3.0,1294.1104,,,,1296.8466,1297.3429,1296.3445,1296.8464,1295.1296,186.0,1296.3443,1297.343,1297.843,1297.8431,1303.8615,9999.0,1303.8625,0.0,1304.8604,3.0,6.0,96.0,2.0,1.0,1.2,0.3,Time
,,S06,1,Male,34,anonymized,Serial_Dependence_U,2023.2.3,Win32,60.24096386,,,,,,,,,,,,1304.8615,3.0,1304.8625,,,,1307.4131,1307.9096,1306.8948,1307.4129,1305.878,227.0,1306.8946,1307.9098,1308.4092,1308.4093,1314.4116,9999.0,1314.4122,0.0,1315.4103,3.0,7.0,97.0,1.0,1.0,1.0,0.3,Time
,,S06,1,Male,34,anonymized,Serial_Dependence_U,2023.2.3,Win32,60.24096386,,,,,,,,,,,,1315.4115,3.0,1315.4127,,,,1318.5464,1319.043,1318.0325,1318.5462,1316.4132,35.0,1318.0322,1319.0431,1319.5432,1319.5433,1325.5612,9999.0,1325.5616,0.0,1326.5597,3.0,8.0,98.0,24.0,1.0,1.6,0.3,Time
,,S06,1,Male,34,anonymized,Serial_Dependence_U,2023.2.3,Win32,60.24096386,,,,,,,,,,,,1326.5612,3.0,1326.5619,,,,1328.8964,1329.3932,1328.3778,1328.8963,1327.563,67.0,1328.3776,1329.3933,1329.893,1329.893,1335.8967,9999.0,1335.8973,0.0,1336.8931,3.0,9.0,99.0,5.0,1.0,0.8,0.7,Time
,,S06,1,Male,34,anonymized,Serial_Dependence_U,2023.2.3,Win32,60.24096386,,,,,,,,,,,,1336.8947,3.0,1336.8955,,,,1339.2294,1339.7265,1338.7115,1339.2291,1337.8973,132.0,1338.7113,1339.7265,1340.2262,1340.2262,1346.2305,9999.0,1346.2311,0.0,1347.2266,3.0,10.0,100.0,10.0,1.0,0.8,0.3,Time
,,S06,1,Male,34,anonymized,Serial_Dependence_U,2023.2.3,Win32,60.24096386,,,,,,,,,,,,1347.2282,3.0,1347.229,,,,1350.1487,1350.6432,1349.6447,1350.148,1348.234,119.0,1349.6445,1350.6433,1351.1432,1351.1434,1357.1461,9999.0,1357.1468,0.0,1358.1432,3.0,11.0,101.0,8.0,1.0,1.4,0.7,Time
,,S06,1,Male,34,anonymized,Serial_Dependence_U,2023.2.3,Win32,60.24096386,,,,,,,,,,,,1358.1448,3.0,1358.1456,,,,1361.299,1361.7944,1360.778,1361.2987,1359.1607,127.0,1360.7779,1361.7945,1362.2936,1362.2936,1368.3127,9999.0,1368.3134,0.0,1369.3102,3.0,12.0,102.0,29.0,1.0,1.6,0.7,Time
,,S06,1,Male,34,anonymized,Serial_Dependence_U,2023.2.3,Win32,60.24096386,,,,,,,,,,,,1369.3116,3.0,1369.3124,,,,1371.6447,1372.1433,1371.1295,1371.6446,1370.3134,76.0,1371.1293,1372.1434,1372.6434,1372.6435,1378.6464,9999.0,1378.6468,0.0,1379.6434,3.0,13.0,103.0,15.0,1.0,0.8,0.7,Time
,,S06,1,Male,34,anonymized,Serial_Dependence_U,2023.2.3,Win32,60.24096386,,,,,,,,,,,,1379.645,3.0,1379.6458,,,,1382.5799,1383.0767,1382.0622,1382.5797,1380.6602,141.0,1382.062,1383.0767,1383.5767,1383.5769,1389.5941,9999.0,1389.5946,0.0,1390.5935,3.0,14.0,104.0,3.0,1.0,1.4,0.3,Time
,,S06,1,Male,34,anonymized,Serial_Dependence_U,2023.2.3,Win32,60.24096386,,,,,,,,,,,,1390.5952,3.0,1390.596,,,,1392.9277,1393.4266,1392.4109,1392.9276,1391.5965,341.0,1392.4108,1393.4266,1393.9288,1393.9289,1399.9356,9999.0,1399.9361,0.0,1400.9281,3.0,15.0,105.0,0.0,1.0,0.8,0.3,Time
,,S06,1,Male,34,anonymized,Serial_Dependence_U,2023.2.3,Win32,60.24096386,,,,,,,,,,,,1400.9294,3.0,1400.9303,,,,1403.8797,1404.3768,1403.362,1403.8795,1401.9448,216.0,1403.3618,1404.3768,1404.8766,1404.8768,1410.8799,9999.0,1410.8809,0.0,1411.878,3.0,16.0,106.0,18.0,1.0,1.4,0.7,Time
,,S06,1,Male,34,anonymized,Serial_Dependence_U,2023.2.3,Win32,60.24096386,,,,,,,,,,,,1411.8811,3.0,1411.8823,,,,1414.8115,1415.3101,1414.296,1414.8113,1412.8786,130.0,1414.2957,1415.3103,1415.8106,1415.8108,1421.816,9999.0,1421.8166,0.0,1422.8104,3.0,17.0,107.0,28.0,1.0,1.4,0.7,Time
,,S06,1,Male,34,anonymized,Serial_Dependence_U,2023.2.3,Win32,60.24096386,,,,,,,,,,,,1422.812,3.0,1422.8128,,,,1425.1451,1425.6446,1424.6302,1425.145,1423.8139,121.0,1424.63,1425.6446,1426.1443,1426.1444,1432.1631,9999.0,1432.1637,0.0,1433.1607,3.0,18.0,108.0,20.0,1.0,0.8,0.3,Time
,,S06,1,Male,34,anonymized,Serial_Dependence_U,2023.2.3,Win32,60.24096386,,,,,,,,,,,,1433.1622,3.0,1433.1632,,,,1435.9124,1436.4108,1435.3965,1435.9122,1434.1773,216.0,1435.3963,1436.411,1436.9111,1436.9111,1442.9289,9999.0,1442.9295,0.0,1443.9277,3.0,19.0,109.0,17.0,1.0,1.2,0.7,Time
,,S06,1,Male,34,anonymized,Serial_Dependence_U,2023.2.3,Win32,60.24096386,,,,,,,,,,,,1443.929,3.0,1443.9296,,,,1446.6621,1447.1609,1446.1484,1446.6618,1444.9448,286.0,1446.1482,1447.161,1447.6611,1447.6611,1453.6781,9999.0,1453.6785,0.0,1454.6776,3.0,20.0,110.0,22.0,1.0,1.2,0.3,Time
,,S06,1,Male,34,anonymized,Serial_Dependence_U,2023.2.3,Win32,60.24096386,,,,,,,,,,,,1454.679,3.0,1454.6798,,,,1457.407,1457.9106,1456.8956,1457.4068,1455.6828,302.0,1456.8953,1457.9106,1458.4105,1458.4105,1464.4289,9999.0,1464.4294,0.0,1465.4271,3.0,21.0,111.0,7.0,1.0,1.2,0.7,Time
,,S06,1,Male,34,anonymized,Serial_Dependence_U,2023.2.3,Win32,60.24096386,,,,,,,,,,,,1465.4285,3.0,1465.4292,,,,1467.9473,1468.4441,1467.445,1467.947,1466.4311,356.0,1467.4449,1468.4442,1468.9447,1468.945,1474.9615,9999.0,1474.9619,0.0,1475.9607,3.0,22.0,112.0,6.0,1.0,1.0,0.7,Time
,,S06,1,Male,34,anonymized,Serial_Dependence_U,2023.2.3,Win32,60.24096386,,,,,,,,,,,,1475.9622,3.0,1475.963,,,,1479.1008,1479.5939,1478.5852,1479.1005,1476.9659,192.0,1478.5849,1479.594,1480.0938,1480.0939,1486.1119,9999.0,1486.1128,0.0,1487.1102,3.0,23.0,113.0,4.0,1.0,1.6,0.3,Time
,,S06,1,Male,34,anonymized,Serial_Dependence_U,2023.2.3,Win32,60.24096386,,,,,,,,,,,,1487.1111,3.0,1487.1119,,,,1490.2618,1490.7604,1489.7447,1490.2617,1488.1277,228.0,1489.7446,1490.7606,1491.2603,1491.2603,1497.2615,9999.0,1497.2619,0.0,1498.2608,3.0,24.0,114.0,19.0,1.0,1.6,0.7,Time
,,S06,1,Male,34,anonymized,Serial_Dependence_U,2023.2.3,Win32,60.24096386,,,,,,,,,,,,1498.2623,3.0,1498.263,,,,1501.1997,1501.6941,1500.6825,1501.1995,1499.2642,39.0,1500.6824,1501.6941,1502.1942,1502.1943,1508.1983,9999.0,1508.1989,0.0,1509.1937,3.0,25.0,115.0,13.0,1.0,1.4,0.3,Time
,,S06,1,Male,34,anonymized,Serial_Dependence_U,2023.2.3,Win32,60.24096386,,,,,,,,,,,,1509.1945,3.0,1509.1948,,,,1512.3479,1512.8441,1511.8291,1512.3477,1510.2111,100.0,1511.829,1512.8441,1513.3442,1513.3443,1519.3628,9999.0,1519.3635,0.0,1520.3615,3.0,26.0,116.0,14.0,1.0,1.6,0.3,Time
,,S06,1,Male,34,anonymized,Serial_Dependence_U,2023.2.3,Win32,60.24096386,,,,,,,,,,,,1520.3627,3.0,1520.3637,,,,1522.9157,1523.4116,1522.3965,1522.9155,1521.379,125.0,1522.3962,1523.4117,1523.913,1523.9132,1529.9171,9999.0,1529.9179,0.0,1530.9171,3.0,27.0,117.0,21.0,1.0,1.0,0.3,Time
,,S06,1,Male,34,anonymized,Serial_Dependence_U,2023.2.3,Win32,60.24096386,,,,,,,,,,,,1530.9186,3.0,1530.9195,,,,1533.6461,1534.1442,1533.1282,1533.6458,1531.9151,324.0,1533.128,1534.1442,1534.6451,1534.6453,1540.6638,9999.0,1540.6643,0.0,1541.6609,3.0,28.0,118.0,27.0,1.0,1.2,0.7,Time
,,S06,1,Male,34,anonymized,Serial_Dependence_U,2023.2.3,Win32,60.24096386,,,,,,,,,,,,1541.6623,3.0,1541.6631,,,,1544.5965,1545.0949,1544.0825,1544.5962,1542.6784,66.0,1544.0822,1545.0949,1545.5951,1545.5951,1551.5978,9999.0,1551.5987,0.0,1552.5946,3.0,29.0,119.0,23.0,1.0,1.4,0.3,Time
,,S06,1,Male,34,anonymized,Serial_Dependence_U,2023.2.3,Win32,60.24096386,,,,,,,,,,,,1552.5961,4.0,1658.7624,s,106.1303,,1661.701,1662.195,1661.1815,1661.7009,1659.7798,6.0,1661.1814,1662.195,1662.6949,1662.695,1668.7003,9999.0,1668.7007,0.0,1669.6951,4.0,0.0,120.0,8.0,1.0,1.4,0.7,Time
,,S06,1,Male,34,anonymized,Serial_Dependence_U,2023.2.3,Win32,60.24096386,,,,,,,,,,,,1669.6967,4.0,1669.7021,,,,1672.0302,1672.5282,1671.5193,1672.03,1670.7136,100.0,1671.5181,1672.5282,1673.0284,1673.0285,1679.0349,9999.0,1679.0357,0.0,1680.0286,4.0,1.0,121.0,20.0,1.0,0.8,0.3,Time
,,S06,1,Male,34,anonymized,Serial_Dependence_U,2023.2.3,Win32,60.24096386,,,,,,,,,,,,1680.03,4.0,1680.0308,,,,1682.5647,1683.0619,1682.0475,1682.5645,1681.0302,293.0,1682.0473,1683.0621,1683.5618,1683.562,1689.5646,9999.0,1689.5652,0.0,1690.5618,4.0,2.0,122.0,21.0,1.0,1.0,0.3,Time
,,S06,1,Male,34,anonymized,Serial_Dependence_U,2023.2.3,Win32,60.24096386,,,,,,,,,,,,1690.5632,4.0,1690.5639,,,,1692.8984,1693.3953,1692.3963,1692.8982,1691.5799,102.0,1692.3961,1693.3954,1693.8953,1693.8955,1699.8995,9999.0,1699.9001,0.0,1700.8953,4.0,3.0,123.0,15.0,1.0,0.8,0.7,Time
,,S06,1,Male,34,anonymized,Serial_Dependence_U,2023.2.3,Win32,60.24096386,,,,,,,,,,,,1700.8969,4.0,1700.8977,,,,1703.63,1704.1291,1703.1147,1703.6298,1701.904,264.0,1703.1145,1704.1293,1704.6293,1704.6294,1710.6455,9999.0,1710.6459,0.0,1711.6459,4.0,4.0,124.0,7.0,1.0,1.2,0.7,Time
,,S06,1,Male,34,anonymized,Serial_Dependence_U,2023.2.3,Win32,60.24096386,,,,,,,,,,,,1711.6473,4.0,1711.648,,,,1713.9965,1714.4958,1713.4803,1713.9962,1712.6636,258.0,1713.4801,1714.496,1714.9962,1714.9962,1721.0167,9999.0,1721.0174,0.0,1722.0137,4.0,5.0,125.0,25.0,1.0,0.8,0.7,Time
,,S06,1,Male,34,anonymized,Serial_Dependence_U,2023.2.3,Win32,60.24096386,,,,,,,,,,,,1722.015,4.0,1722.0157,,,,1724.7524,1725.2454,1724.2473,1724.7522,1723.0348,308.0,1724.247,1725.2455,1725.7453,1725.7455,1731.7487,9999.0,1731.7492,0.0,1732.7456,4.0,6.0,126.0,22.0,1.0,1.2,0.3,Time
,,S06,1,Male,34,anonymized,Serial_Dependence_U,2023.2.3,Win32,60.24096386,,,,,,,,,,,,1732.747,4.0,1732.7479,,,,1735.6818,1736.1794,1735.1642,1735.6817,1733.7485,129.0,1735.164,1736.1795,1736.6795,1736.6796,1742.6832,9999.0,1742.684,0.0,1743.6795,4.0,7.0,127.0,28.0,1.0,1.4,0.7,Time
,,S06,1,Male,34,anonymized,Serial_Dependence_U,2023.2.3,Win32,60.24096386,,,,,,,,,,,,1743.6807,4.0,1743.6813,,,,1746.0159,1746.5125,1745.4991,1746.0156,1744.6827,104.0,1745.4988,1746.5125,1747.0123,1747.0123,1753.0296,9999.0,1753.03,0.0,1754.029,4.0,8.0,128.0,0.0,1.0,0.8,0.3,Time
,,S06,1,Male,34,anonymized,Serial_Dependence_U,2023.2.3,Win32,60.24096386,,,,,,,,,,,,1754.0308,4.0,1754.0318,,,,1756.9839,1757.4789,1756.4642,1756.9836,1755.0467,96.0,1756.464,1757.479,1757.9791,1757.9792,1763.9965,9999.0,1763.997,0.0,1764.9963,4.0,9.0,129.0,3.0,1.0,1.4,0.3,Time
,,S06,1,Male,34,anonymized,Serial_Dependence_U,2023.2.3,Win32,60.24096386,,,,,,,,,,,,1764.9974,4.0,1764.998,,,,1767.5322,1768.029,1767.0292,1767.532,1766.0135,175.0,1767.0291,1768.029,1768.5291,1768.5294,1774.5457,9999.0,1774.5459,0.0,1775.5499,4.0,10.0,130.0,26.0,1.0,1.0,0.7,Time
,,S06,1,Male,34,anonymized,Serial_Dependence_U,2023.2.3,Win32,60.24096386,,,,,,,,,,,,1775.5529,4.0,1775.5535,,,,1778.4974,1778.9958,1777.9796,1778.4972,1776.564,302.0,1777.9794,1778.996,1779.4957,1779.4959,1785.4997,9999.0,1785.5006,0.0,1786.4959,4.0,11.0,131.0,23.0,1.0,1.4,0.3,Time
,,S06,1,Male,34,anonymized,Serial_Dependence_U,2023.2.3,Win32,60.24096386,,,,,,,,,,,,1786.4972,4.0,1786.498,,,,1789.0167,1789.513,1788.5138,1789.0163,1787.5044,349.0,1788.5136,1789.5131,1790.0066,1790.0067,1796.0156,9999.0,1796.0161,0.0,1797.0124,4.0,12.0,132.0,16.0,1.0,1.0,0.7,Time
,,S06,1,Male,34,anonymized,Serial_Dependence_U,2023.2.3,Win32,60.24096386,,,,,,,,,,,,1797.0141,4.0,1797.0149,,,,1800.1499,1800.6458,1799.6325,1800.1497,1798.0155,304.0,1799.6322,1800.6459,1801.1459,1801.146,1807.1507,9999.0,1807.1511,0.0,1808.1466,4.0,13.0,133.0,14.0,1.0,1.6,0.3,Time
,,S06,1,Male,34,anonymized,Serial_Dependence_U,2023.2.3,Win32,60.24096386,,,,,,,,,,,,1808.1479,4.0,1808.1489,,,,1811.299,1811.7959,1810.7812,1811.2989,1809.1636,244.0,1810.781,1811.796,1812.296,1812.2962,1818.3135,9999.0,1818.3139,0.0,1819.3127,4.0,14.0,134.0,24.0,1.0,1.6,0.3,Time
,,S06,1,Male,34,anonymized,Serial_Dependence_U,2023.2.3,Win32,60.24096386,,,,,,,,,,,,1819.3144,4.0,1819.3152,,,,1822.4475,1822.9455,1821.9461,1822.4473,1820.3303,99.0,1821.9461,1822.9456,1823.4456,1823.4457,1829.4628,9999.0,1829.463,0.0,1830.4628,4.0,15.0,135.0,19.0,1.0,1.6,0.7,Time
,,S06,1,Male,34,anonymized,Serial_Dependence_U,2023.2.3,Win32,60.24096386,,,,,,,,,,,,1830.4645,4.0,1830.4653,,,,1833.5977,1834.0962,1833.0811,1833.5976,1831.4658,170.0,1833.0809,1834.0963,1834.5961,1834.5963,1840.5985,9999.0,1840.599,0.0,1841.5961,4.0,16.0,136.0,4.0,1.0,1.6,0.3,Time
,,S06,1,Male,34,anonymized,Serial_Dependence_U,2023.2.3,Win32,60.24096386,,,,,,,,,,,,1841.5977,4.0,1841.5984,,,,1844.3312,1844.8294,1843.8156,1844.331,1842.6136,89.0,1843.8154,1844.8295,1845.33,1845.3301,1851.3482,9999.0,1851.349,0.0,1852.3464,4.0,17.0,137.0,2.0,1.0,1.2,0.3,Time
,,S06,1,Male,34,anonymized,Serial_Dependence_U,2023.2.3,Win32,60.24096386,,,,,,,,,,,,1852.3478,4.0,1852.3487,,,,1855.0982,1855.5957,1854.5814,1855.098,1853.3643,187.0,1854.5811,1855.5958,1856.0963,1856.0966,1862.1136,9999.0,1862.114,0.0,1863.113,4.0,18.0,138.0,27.0,1.0,1.2,0.7,Time
,,S06,1,Male,34,anonymized,Serial_Dependence_U,2023.2.3,Win32,60.24096386,,,,,,,,,,,,1863.1144,4.0,1863.1152,,,,1865.6647,1866.1629,1865.1476,1865.6645,1864.1307,90.0,1865.1474,1866.1629,1866.6624,1866.6624,1872.6649,9999.0,1872.6657,0.0,1873.6636,4.0,19.0,139.0,6.0,1.0,1.0,0.7,Time
,,S06,1,Male,34,anonymized,Serial_Dependence_U,2023.2.3,Win32,60.24096386,,,,,,,,,,,,1873.665,4.0,1873.6656,,,,1876.3982,1876.8968,1875.8807,1876.3979,1874.6691,8.0,1875.8805,1876.897,1877.3969,1877.397,1883.415,9999.0,1883.4156,0.0,1884.4133,4.0,20.0,140.0,17.0,1.0,1.2,0.7,Time
,,S06,1,Male,34,anonymized,Serial_Dependence_U,2023.2.3,Win32,60.24096386,,,,,,,,,,,,1884.4146,4.0,1884.4157,,,,1887.5648,1888.0629,1887.0472,1887.5647,1885.4315,341.0,1887.0471,1888.0629,1888.5629,1888.5632,1894.5664,9999.0,1894.5668,0.0,1895.5632,4.0,21.0,141.0,29.0,1.0,1.6,0.7,Time
,,S06,1,Male,34,anonymized,Serial_Dependence_U,2023.2.3,Win32,60.24096386,,,,,,,,,,,,1895.5645,4.0,1895.5661,,,,1898.4978,1898.9964,1897.9917,1898.4975,1896.5803,314.0,1897.9914,1898.9964,1899.4965,1899.4966,1905.5004,9999.0,1905.5018,0.0,1906.4971,4.0,22.0,142.0,13.0,1.0,1.4,0.3,Time
,,S06,1,Male,34,anonymized,Serial_Dependence_U,2023.2.3,Win32,60.24096386,,,,,,,,,,,,1906.4994,4.0,1906.5003,,,,1908.8316,1909.3296,1908.318,1908.8314,1907.5006,1.0,1908.3179,1909.3297,1909.8297,1909.8299,1915.8485,9999.0,1915.8491,0.0,1916.8472,4.0,23.0,143.0,10.0,1.0,0.8,0.3,Time
,,S06,1,Male,34,anonymized,Serial_Dependence_U,2023.2.3,Win32,60.24096386,,,,,,,,,,,,1916.8483,4.0,1916.8489,,,,1919.198,1919.6972,1918.6814,1919.1978,1917.8658,106.0,1918.6812,1919.6972,1920.2016,1920.2016,1926.2152,9999.0,1926.2158,0.0,1927.2137,4.0,24.0,144.0,5.0,1.0,0.8,0.7,Time
,,S06,1,Male,34,anonymized,Serial_Dependence_U,2023.2.3,Win32,60.24096386,,,,,,,,,,,,1927.2152,4.0,1927.2158,,,,1930.172,1930.6631,1929.6487,1930.1717,1928.2315,166.0,1929.6484,1930.6631,1931.1632,1931.1634,1937.1804,9999.0,1937.1806,0.0,1938.18,4.0,25.0,145.0,18.0,1.0,1.4,0.7,Time
,,S06,1,Male,34,anonymized,Serial_Dependence_U,2023.2.3,Win32,60.24096386,,,,,,,,,,,,1938.1815,4.0,1938.1822,,,,1940.9182,1941.4134,1940.4007,1940.9179,1939.1838,101.0,1940.4004,1941.4134,1941.9139,1941.9139,1947.9365,9999.0,1947.937,0.0,1948.93,4.0,26.0,146.0,12.0,1.0,1.2,0.3,Time
,,S06,1,Male,34,anonymized,Serial_Dependence_U,2023.2.3,Win32,60.24096386,,,,,,,,,,,,1948.9317,4.0,1948.9324,,,,1951.4662,1951.9634,1950.9491,1951.466,1949.9353,10.0,1950.9489,1951.9635,1952.4634,1952.4636,1958.4673,9999.0,1958.4683,0.0,1959.464,4.0,27.0,147.0,1.0,1.0,1.0,0.3,Time
,,S06,1,Male,34,anonymized,Serial_Dependence_U,2023.2.3,Win32,60.24096386,,,,,,,,,,,,1959.4654,4.0,1959.466,,,,1962.5985,1963.097,1962.0825,1962.5984,1960.4713,312.0,1962.0823,1963.0972,1963.5968,1963.597,1969.6188,9999.0,1969.6192,0.0,1970.6142,4.0,28.0,148.0,9.0,1.0,1.6,0.7,Time
,,S06,1,Male,34,anonymized,Serial_Dependence_U,2023.2.3,Win32,60.24096386,,,,,,,,,,,,1970.6153,4.0,1970.6159,,,,1973.148,1973.6468,1972.6349,1973.1478,1971.6317,14.0,1972.6347,1973.6468,1974.1469,1974.1471,1980.1662,9999.0,1980.1667,0.0,1981.1636,4.0,29.0,149.0,11.0,1.0,1.0,0.3,Time
,,S06,1,Male,34,anonymized,Serial_Dependence_U,2023.2.3,Win32,60.24096386,,,,,,,,,,,,1981.165,5.0,2012.0979,s,30.9017,,2015.0493,2015.5515,2014.5323,2015.0492,2013.1156,342.0,2014.5321,2015.5516,2016.047,2016.047,2022.0513,9999.0,2022.0522,0.0,2023.0497,5.0,0.0,150.0,28.0,1.0,1.4,0.7,Time
,,S06,1,Male,34,anonymized,Serial_Dependence_U,2023.2.3,Win32,60.24096386,,,,,,,,,,,,2023.0517,5.0,2023.0563,,,,2025.9844,2026.4811,2025.4651,2025.9839,2024.0525,280.0,2025.4649,2026.4811,2026.981,2026.9811,2032.9847,9999.0,2032.9855,0.0,2033.981,5.0,1.0,151.0,3.0,1.0,1.4,0.3,Time
,,S06,1,Male,34,anonymized,Serial_Dependence_U,2023.2.3,Win32,60.24096386,,,,,,,,,,,,2033.9822,5.0,2033.9829,,,,2036.9343,2037.4308,2036.416,2036.934,2034.9985,44.0,2036.4157,2037.4309,2037.9316,2037.9316,2043.937,9999.0,2043.9378,0.0,2044.9308,5.0,2.0,152.0,8.0,1.0,1.4,0.7,Time
,,S06,1,Male,34,anonymized,Serial_Dependence_U,2023.2.3,Win32,60.24096386,,,,,,,,,,,,2044.9323,5.0,2044.9333,,,,2047.6652,2048.164,2047.1491,2047.6651,2045.9352,171.0,2047.1489,2048.164,2048.664,2048.6641,2054.6668,9999.0,2054.6674,0.0,2055.6642,5.0,3.0,153.0,12.0,1.0,1.2,0.3,Time
,,S06,1,Male,34,anonymized,Serial_Dependence_U,2023.2.3,Win32,60.24096386,,,,,,,,,,,,2055.6657,5.0,2055.6667,,,,2058.4158,2058.9144,2057.8984,2058.4156,2056.6854,336.0,2057.8982,2058.9146,2059.4151,2059.4152,2065.4193,9999.0,2065.4202,0.0,2066.4145,5.0,4.0,154.0,27.0,1.0,1.2,0.7,Time
,,S06,1,Male,34,anonymized,Serial_Dependence_U,2023.2.3,Win32,60.24096386,,,,,,,,,,,,2066.4157,5.0,2066.4165,,,,2069.5491,2070.0482,2069.0354,2069.5489,2067.4195,133.0,2069.035,2070.0482,2070.5478,2070.5479,2076.567,9999.0,2076.5674,0.0,2077.5643,5.0,5.0,155.0,9.0,1.0,1.6,0.7,Time
,,S06,1,Male,34,anonymized,Serial_Dependence_U,2023.2.3,Win32,60.24096386,,,,,,,,,,,,2077.5658,5.0,2077.5667,,,,2080.4998,2080.9974,2079.9829,2080.4996,2078.5671,16.0,2079.9827,2080.9974,2081.4974,2081.4976,2087.5176,9999.0,2087.5187,0.0,2088.5139,5.0,6.0,156.0,18.0,1.0,1.4,0.7,Time
,,S06,1,Male,34,anonymized,Serial_Dependence_U,2023.2.3,Win32,60.24096386,,,,,,,,,,,,2088.515,5.0,2088.5155,,,,2090.8658,2091.365,2090.3491,2090.8656,2089.5341,135.0,2090.3489,2091.365,2091.8653,2091.8653,2097.8827,9999.0,2097.8833,0.0,2098.8809,5.0,7.0,157.0,0.0,1.0,0.8,0.3,Time
,,S06,1,Male,34,anonymized,Serial_Dependence_U,2023.2.3,Win32,60.24096386,,,,,,,,,,,,2098.8825,5.0,2098.8832,,,,2102.0325,2102.531,2101.5173,2102.0324,2099.8991,237.0,2101.5171,2102.5311,2103.0309,2103.0311,2109.0484,9999.0,2109.0489,0.0,2110.0476,5.0,8.0,158.0,14.0,1.0,1.6,0.3,Time
,,S06,1,Male,34,anonymized,Serial_Dependence_U,2023.2.3,Win32,60.24096386,,,,,,,,,,,,2110.0494,5.0,2110.0501,,,,2113.1695,2113.6644,2112.6547,2113.1693,2111.049,116.0,2112.6545,2113.6645,2114.1643,2114.1645,2120.1675,9999.0,2120.1681,0.0,2121.1645,5.0,9.0,159.0,24.0,1.0,1.6,0.3,Time
,,S06,1,Male,34,anonymized,Serial_Dependence_U,2023.2.3,Win32,60.24096386,,,,,,,,,,,,2121.1661,5.0,2121.1668,,,,2124.3159,2124.8143,2123.7994,2124.3158,2122.1827,300.0,2123.7993,2124.8144,2125.3144,2125.3145,2131.3184,9999.0,2131.3193,0.0,2132.3145,5.0,10.0,160.0,29.0,1.0,1.6,0.7,Time
,,S06,1,Male,34,anonymized,Serial_Dependence_U,2023.2.3,Win32,60.24096386,,,,,,,,,,,,2132.316,5.0,2132.3168,,,,2134.8669,2135.3643,2134.3499,2134.8667,2133.3327,5.0,2134.3497,2135.3644,2135.8669,2135.867,2141.8853,9999.0,2141.8859,0.0,2142.881,5.0,11.0,161.0,6.0,1.0,1.0,0.7,Time
,,S06,1,Male,34,anonymized,Serial_Dependence_U,2023.2.3,Win32,60.24096386,,,,,,,,,,,,2142.8827,5.0,2142.8835,,,,2145.6344,2146.1313,2145.1163,2145.6342,2143.8986,104.0,2145.1161,2146.1314,2146.6312,2146.6312,2152.6507,9999.0,2152.6512,0.0,2153.648,5.0,12.0,162.0,17.0,1.0,1.2,0.7,Time
,,S06,1,Male,34,anonymized,Serial_Dependence_U,2023.2.3,Win32,60.24096386,,,,,,,,,,,,2153.6496,5.0,2153.6506,,,,2156.1829,2156.6816,2155.6664,2156.1827,2154.6511,254.0,2155.6662,2156.6816,2157.1812,2157.1813,2163.184,9999.0,2163.1845,0.0,2164.1813,5.0,13.0,163.0,11.0,1.0,1.0,0.3,Time
,,S06,1,Male,34,anonymized,Serial_Dependence_U,2023.2.3,Win32,60.24096386,,,,,,,,,,,,2164.1829,5.0,2164.1837,,,,2166.5332,2167.0331,2166.017,2166.5329,2165.2001,233.0,2166.0167,2167.0331,2167.5321,2167.5322,2173.5499,9999.0,2173.5506,0.0,2174.5489,5.0,14.0,164.0,5.0,1.0,0.8,0.7,Time
,,S06,1,Male,34,anonymized,Serial_Dependence_U,2023.2.3,Win32,60.24096386,,,,,,,,,,,,2174.55,5.0,2174.5508,,,,2177.0993,2177.5988,2176.5816,2177.0992,2175.5663,10.0,2176.5814,2177.5989,2178.0988,2178.0989,2184.1167,9999.0,2184.1173,0.0,2185.1154,5.0,15.0,165.0,16.0,1.0,1.0,0.7,Time
,,S06,1,Male,34,anonymized,Serial_Dependence_U,2023.2.3,Win32,60.24096386,,,,,,,,,,,,2185.1169,5.0,2185.1176,,,,2188.266,2188.7654,2187.75,2188.2657,2186.1335,196.0,2187.7497,2188.7655,2189.2651,2189.2655,2195.2834,9999.0,2195.2839,0.0,2196.2821,5.0,16.0,166.0,19.0,1.0,1.6,0.7,Time
,,S06,1,Male,34,anonymized,Serial_Dependence_U,2023.2.3,Win32,60.24096386,,,,,,,,,,,,2196.2833,5.0,2196.284,,,,2199.218,2199.7148,2198.7025,2199.2178,2197.2868,190.0,2198.7023,2199.7149,2200.2148,2200.2151,2206.2178,9999.0,2206.2184,0.0,2207.2149,5.0,17.0,167.0,13.0,1.0,1.4,0.3,Time
,,S06,1,Male,34,anonymized,Serial_Dependence_U,2023.2.3,Win32,60.24096386,,,,,,,,,,,,2207.2165,5.0,2207.2179,,,,2209.5666,2210.0648,2209.0493,2209.5664,2208.2343,121.0,2209.0491,2210.0649,2210.5649,2210.5651,2216.5681,9999.0,2216.5686,0.0,2217.5648,5.0,18.0,168.0,15.0,1.0,0.8,0.7,Time
,,S06,1,Male,34,anonymized,Serial_Dependence_U,2023.2.3,Win32,60.24096386,,,,,,,,,,,,2217.5664,5.0,2217.5671,,,,2220.0995,2220.5988,2219.5833,2220.0992,2218.5677,337.0,2219.583,2220.5989,2221.099,2221.099,2227.1159,9999.0,2227.1163,0.0,2228.1157,5.0,19.0,169.0,26.0,1.0,1.0,0.7,Time
,,S06,1,Male,34,anonymized,Serial_Dependence_U,2023.2.3,Win32,60.24096386,,,,,,,,,,,,2228.117,5.0,2228.1176,,,,2230.853,2231.3482,2230.3497,2230.8528,2229.1332,51.0,2230.3495,2231.3482,2231.8481,2231.8482,2237.8684,9999.0,2237.8691,0.0,2238.8654,5.0,20.0,170.0,22.0,1.0,1.2,0.3,Time
,,S06,1,Male,34,anonymized,Serial_Dependence_U,2023.2.3,Win32,60.24096386,,,,,,,,,,,,2238.8663,5.0,2238.8668,,,,2241.2159,2241.7152,2240.7033,2241.2158,2239.8857,272.0,2240.703,2241.7152,2242.2161,2242.2162,2248.2321,9999.0,2248.2324,0.0,2249.2315,5.0,21.0,171.0,25.0,1.0,0.8,0.7,Time
,,S06,1,Male,34,anonymized,Serial_Dependence_U,2023.2.3,Win32,60.24096386,,,,,,,,,,,,2249.2329,5.0,2249.2336,,,,2251.7707,2252.2653,2251.2657,2251.7705,2250.2487,39.0,2251.2657,2252.2653,2252.7651,2252.7652,2258.7835,9999.0,2258.7838,0.0,2259.7816,5.0,22.0,172.0,21.0,1.0,1.0,0.3,Time
,,S06,1,Male,34,anonymized,Serial_Dependence_U,2023.2.3,Win32,60.24096386,,,,,,,,,,,,2259.7824,5.0,2259.7828,,,,2262.9322,2263.4327,2262.4205,2262.9321,2260.7995,33.0,2262.4202,2263.4327,2263.9317,2263.9317,2269.9499,9999.0,2269.9502,0.0,2270.9485,5.0,23.0,173.0,4.0,1.0,1.6,0.3,Time
,,S06,1,Male,34,anonymized,Serial_Dependence_U,2023.2.3,Win32,60.24096386,,,,,,,,,,,,2270.9503,5.0,2270.9511,,,,2273.883,2274.3818,2273.3668,2273.8829,2271.9507,238.0,2273.3667,2274.3818,2274.8821,2274.8822,2280.8836,9999.0,2280.8841,0.0,2281.8841,5.0,24.0,174.0,23.0,1.0,1.4,0.3,Time
,,S06,1,Male,34,anonymized,Serial_Dependence_U,2023.2.3,Win32,60.24096386,,,,,,,,,,,,2281.8859,5.0,2281.8868,,,,2284.2326,2284.7324,2283.7166,2284.2326,2282.8994,209.0,2283.7165,2284.7325,2285.2329,2285.2329,2291.2496,9999.0,2291.2502,0.0,2292.2494,5.0,25.0,175.0,20.0,1.0,0.8,0.3,Time
,,S06,1,Male,34,anonymized,Serial_Dependence_U,2023.2.3,Win32,60.24096386,,,,,,,,,,,,2292.2503,5.0,2292.251,,,,2294.7992,2295.2993,2294.2843,2294.799,2293.2671,34.0,2294.2841,2295.2994,2295.7995,2295.7997,2301.817,9999.0,2301.8177,0.0,2302.8157,5.0,26.0,176.0,1.0,1.0,1.0,0.3,Time
,,S06,1,Male,34,anonymized,Serial_Dependence_U,2023.2.3,Win32,60.24096386,,,,,,,,,,,,2302.817,5.0,2302.8182,,,,2305.1699,2305.6657,2304.6495,2305.1697,2303.8333,275.0,2304.6493,2305.6658,2306.1665,2306.1666,2312.183,9999.0,2312.1834,0.0,2313.1821,5.0,27.0,177.0,10.0,1.0,0.8,0.3,Time
,,S06,1,Male,34,anonymized,Serial_Dependence_U,2023.2.3,Win32,60.24096386,,,,,,,,,,,,2313.1831,5.0,2313.1838,,,,2315.9325,2316.4322,2315.4162,2315.9324,2314.2002,225.0,2315.416,2316.4323,2316.9324,2316.9324,2322.9496,9999.0,2322.9499,0.0,2323.9382,5.0,28.0,178.0,2.0,1.0,1.2,0.3,Time
,,S06,1,Male,34,anonymized,Serial_Dependence_U,2023.2.3,Win32,60.24096386,,,,,,,,,,,,2323.9393,5.0,2323.9398,,,,2326.6837,2327.1821,2326.171,2326.6835,2324.951,164.0,2326.1704,2327.1821,2327.6823,2327.6824,2333.6891,9999.0,2333.6896,0.0,2334.6826,5.0,29.0,179.0,7.0,1.0,1.2,0.7,Time
,,S06,1,Male,34,anonymized,Serial_Dependence_U,2023.2.3,Win32,60.24096386,,,,,,,,,,,,2334.6839,6.0,2349.1001,s,14.3797,,2351.8508,2352.3468,2351.3343,2351.8506,2350.1174,302.0,2351.3341,2352.3468,2352.8499,2352.85,2358.8676,9999.0,2358.8681,0.0,2359.8663,6.0,0.0,180.0,17.0,1.0,1.2,0.7,Time
,,S06,1,Male,34,anonymized,Serial_Dependence_U,2023.2.3,Win32,60.24096386,,,,,,,,,,,,2359.868,6.0,2359.872,,,,2362.8174,2363.3159,2362.3033,2362.8172,2360.8842,134.0,2362.3031,2363.3159,2363.8158,2363.816,2369.8344,9999.0,2369.835,0.0,2370.8334,6.0,1.0,181.0,8.0,1.0,1.4,0.7,Time
,,S06,1,Male,34,anonymized,Serial_Dependence_U,2023.2.3,Win32,60.24096386,,,,,,,,,,,,2370.8345,6.0,2370.8351,,,,2373.9834,2374.4823,2373.468,2373.9833,2371.8509,32.0,2373.4677,2374.4824,2374.9821,2374.9821,2380.986,9999.0,2380.9864,0.0,2381.9826,6.0,2.0,182.0,29.0,1.0,1.6,0.7,Time
,,S06,1,Male,34,anonymized,Serial_Dependence_U,2023.2.3,Win32,60.24096386,,,,,,,,,,,,2381.9841,6.0,2381.9849,,,,2384.7049,2385.1993,2384.2008,2384.7048,2382.9879,132.0,2384.2006,2385.1993,2385.6992,2385.6994,2391.7022,9999.0,2391.7028,0.0,2392.7027,6.0,3.0,183.0,22.0,1.0,1.2,0.3,Time
,,S06,1,Male,34,anonymized,Serial_Dependence_U,2023.2.3,Win32,60.24096386,,,,,,,,,,,,2392.7037,6.0,2392.7043,,,,2395.0203,2395.5161,2394.5178,2395.0201,2393.7137,341.0,2394.5175,2395.5162,2396.0159,2396.0161,2402.0329,9999.0,2402.033,0.0,2403.0329,6.0,4.0,184.0,0.0,1.0,0.8,0.3,Time
,,S06,1,Male,34,anonymized,Serial_Dependence_U,2023.2.3,Win32,60.24096386,,,,,,,,,,,,2403.0344,6.0,2403.0351,,,,2405.7843,2406.2834,2405.268,2405.7842,2404.0506,53.0,2405.2678,2406.2834,2406.7834,2406.7835,2412.7865,9999.0,2412.7869,0.0,2413.7827,6.0,5.0,185.0,7.0,1.0,1.2,0.7,Time
,,S06,1,Male,34,anonymized,Serial_Dependence_U,2023.2.3,Win32,60.24096386,,,,,,,,,,,,2413.7844,6.0,2413.7852,,,,2416.7181,2417.216,2416.2045,2416.7179,2414.786,96.0,2416.2042,2417.2161,2417.7162,2417.7164,2423.7328,9999.0,2423.7331,0.0,2424.7327,6.0,6.0,186.0,13.0,1.0,1.4,0.3,Time
,,S06,1,Male,34,anonymized,Serial_Dependence_U,2023.2.3,Win32,60.24096386,,,,,,,,,,,,2424.7342,6.0,2424.7351,,,,2427.0512,2427.5493,2426.5496,2427.0511,2425.738,121.0,2426.5494,2427.5493,2428.0495,2428.0497,2434.0674,9999.0,2434.0679,0.0,2435.0662,6.0,7.0,187.0,15.0,1.0,0.8,0.7,Time
,,S06,1,Male,34,anonymized,Serial_Dependence_U,2023.2.3,Win32,60.24096386,,,,,,,,,,,,2435.0678,6.0,2435.0685,,,,2437.7873,2438.2829,2437.2843,2437.7872,2436.0693,101.0,2437.2842,2438.2829,2438.7833,2438.7834,2444.8001,9999.0,2444.8003,0.0,2445.8,6.0,8.0,188.0,2.0,1.0,1.2,0.3,Time
,,S06,1,Male,34,anonymized,Serial_Dependence_U,2023.2.3,Win32,60.24096386,,,,,,,,,,,,2445.801,6.0,2445.8015,,,,2448.7513,2449.2501,2448.2349,2448.751,2446.8186,44.0,2448.2347,2449.2501,2449.75,2449.7501,2455.7682,9999.0,2455.7688,0.0,2456.767,6.0,9.0,189.0,3.0,1.0,1.4,0.3,Time
,,S06,1,Male,34,anonymized,Serial_Dependence_U,2023.2.3,Win32,60.24096386,,,,,,,,,,,,2456.7681,6.0,2456.769,,,,2459.6898,2460.183,2459.1845,2459.6896,2457.7744,189.0,2459.1844,2460.183,2460.6835,2460.6836,2466.6881,9999.0,2466.6885,0.0,2467.6832,6.0,10.0,190.0,18.0,1.0,1.4,0.7,Time
,,S06,1,Male,34,anonymized,Serial_Dependence_U,2023.2.3,Win32,60.24096386,,,,,,,,,,,,2467.6845,6.0,2467.6852,,,,2470.2202,2470.7164,2469.7056,2470.22,2468.6881,44.0,2469.7053,2470.7165,2471.2165,2471.2166,2477.235,9999.0,2477.2356,0.0,2478.2337,6.0,11.0,191.0,16.0,1.0,1.0,0.7,Time
,,S06,1,Male,34,anonymized,Serial_Dependence_U,2023.2.3,Win32,60.24096386,,,,,,,,,,,,2478.2351,6.0,2478.2359,,,,2481.1677,2481.6664,2480.6504,2481.1676,2479.2448,351.0,2480.6503,2481.6665,2482.1665,2482.1667,2488.1694,9999.0,2488.1699,0.0,2489.1666,6.0,12.0,192.0,28.0,1.0,1.4,0.7,Time
,,S06,1,Male,34,anonymized,Serial_Dependence_U,2023.2.3,Win32,60.24096386,,,,,,,,,,,,2489.1682,6.0,2489.169,,,,2491.7174,2492.2166,2491.2013,2491.7173,2490.1877,164.0,2491.2011,2492.2166,2492.7162,2492.7163,2498.7351,9999.0,2498.7362,0.0,2499.7333,6.0,13.0,193.0,21.0,1.0,1.0,0.3,Time
,,S06,1,Male,34,anonymized,Serial_Dependence_U,2023.2.3,Win32,60.24096386,,,,,,,,,,,,2499.7349,6.0,2499.7356,,,,2502.4685,2502.9666,2501.9544,2502.4683,2500.7503,40.0,2501.9542,2502.9667,2503.4669,2503.467,2509.486,9999.0,2509.4865,0.0,2510.4833,6.0,14.0,194.0,12.0,1.0,1.2,0.3,Time
,,S06,1,Male,34,anonymized,Serial_Dependence_U,2023.2.3,Win32,60.24096386,,,,,,,,,,,,2510.4851,6.0,2510.4857,,,,2513.6181,2514.1167,2513.1031,2513.6179,2511.4863,161.0,2513.1028,2514.1168,2514.6167,2514.6169,2520.6194,9999.0,2520.62,0.0,2521.6168,6.0,15.0,195.0,4.0,1.0,1.6,0.3,Time
,,S06,1,Male,34,anonymized,Serial_Dependence_U,2023.2.3,Win32,60.24096386,,,,,,,,,,,,2521.6183,6.0,2521.6191,,,,2523.9505,2524.4502,2523.4383,2523.9505,2522.6229,8.0,2523.4381,2524.4504,2524.9502,2524.9504,2530.9621,9999.0,2530.9624,0.0,2531.9505,6.0,16.0,196.0,20.0,1.0,0.8,0.3,Time
,,S06,1,Male,34,anonymized,Serial_Dependence_U,2023.2.3,Win32,60.24096386,,,,,,,,,,,,2531.9541,6.0,2531.9556,,,,2535.0861,2535.5835,2534.5691,2535.0859,2532.9582,0.0,2534.5689,2535.5836,2536.0834,2536.0835,2542.0874,9999.0,2542.0879,0.0,2543.0832,6.0,17.0,197.0,9.0,1.0,1.6,0.7,Time
,,S06,1,Male,34,anonymized,Serial_Dependence_U,2023.2.3,Win32,60.24096386,,,,,,,,,,,,2543.0842,6.0,2543.0847,,,,2545.8355,2546.3336,2545.3198,2545.8352,2544.1015,83.0,2545.3195,2546.3338,2546.8335,2546.8337,2552.8381,9999.0,2552.8386,0.0,2553.8339,6.0,18.0,198.0,27.0,1.0,1.2,0.7,Time
,,S06,1,Male,34,anonymized,Serial_Dependence_U,2023.2.3,Win32,60.24096386,,,,,,,,,,,,2553.8353,6.0,2553.8361,,,,2556.7737,2557.2669,2556.2533,2556.7736,2554.8386,188.0,2556.253,2557.2671,2557.7676,2557.7678,2563.7869,9999.0,2563.7877,0.0,2564.7911,6.0,19.0,199.0,23.0,1.0,1.4,0.3,Time
,,S06,1,Male,34,anonymized,Serial_Dependence_U,2023.2.3,Win32,60.24096386,,,,,,,,,,,,2564.7929,6.0,2564.7934,,,,2567.3184,2567.8171,2566.8025,2567.3182,2565.7872,120.0,2566.8022,2567.8173,2568.3169,2568.317,2574.3201,9999.0,2574.3207,0.0,2575.3179,6.0,20.0,200.0,26.0,1.0,1.0,0.7,Time
,,S06,1,Male,34,anonymized,Serial_Dependence_U,2023.2.3,Win32,60.24096386,,,,,,,,,,,,2575.32,6.0,2575.3211,,,,2578.4531,2578.9502,2577.9388,2578.4529,2576.3351,106.0,2577.9385,2578.9503,2579.4504,2579.4506,2585.4549,9999.0,2585.4565,0.0,2586.4504,6.0,21.0,201.0,24.0,1.0,1.6,0.3,Time
,,S06,1,Male,34,anonymized,Serial_Dependence_U,2023.2.3,Win32,60.24096386,,,,,,,,,,,,2586.452,6.0,2586.4528,,,,2589.0014,2589.5007,2588.4899,2589.0012,2587.4685,176.0,2588.4896,2589.5009,2590.0005,2590.0007,2596.0173,9999.0,2596.0175,0.0,2597.0174,6.0,22.0,202.0,1.0,1.0,1.0,0.3,Time
,,S06,1,Male,34,anonymized,Serial_Dependence_U,2023.2.3,Win32,60.24096386,,,,,,,,,,,,2597.0189,6.0,2597.0195,,,,2599.3519,2599.8626,2598.8397,2599.3518,2598.035,12.0,2598.8395,2599.8626,2600.3505,2600.3508,2606.3532,9999.0,2606.3538,0.0,2607.3507,6.0,23.0,203.0,10.0,1.0,0.8,0.3,Time
,,S06,1,Male,34,anonymized,Serial_Dependence_U,2023.2.3,Win32,60.24096386,,,,,,,,,,,,2607.3523,6.0,2607.353,,,,2609.6857,2610.1839,2609.1688,2609.6856,2608.3548,11.0,2609.1686,2610.184,2610.6838,2610.6841,2616.7025,9999.0,2616.7031,0.0,2617.7011,6.0,24.0,204.0,5.0,1.0,0.8,0.7,Time
,,S06,1,Male,34,anonymized,Serial_Dependence_U,2023.2.3,Win32,60.24096386,,,,,,,,,,,,2617.7024,6.0,2617.7031,,,,2620.2522,2620.7509,2619.736,2620.2521,2618.719,335.0,2619.7357,2620.7513,2621.2514,2621.2517,2627.2692,9999.0,2627.2698,0.0,2628.2681,6.0,25.0,205.0,6.0,1.0,1.0,0.7,Time
,,S06,1,Male,34,anonymized,Serial_Dependence_U,2023.2.3,Win32,60.24096386,,,,,,,,,,,,2628.2693,6.0,2628.2699,,,,2630.6032,2631.1015,2630.1011,2630.6029,2629.285,229.0,2630.1009,2631.1017,2631.6013,2631.6015,2637.6189,9999.0,2637.6195,0.0,2638.62,6.0,26.0,206.0,25.0,1.0,0.8,0.7,Time
,,S06,1,Male,34,anonymized,Serial_Dependence_U,2023.2.3,Win32,60.24096386,,,,,,,,,,,,2638.6222,6.0,2638.6235,,,,2641.755,2642.2508,2641.2409,2641.7548,2639.6378,358.0,2641.2406,2642.2509,2642.7507,2642.7509,2648.7692,9999.0,2648.7698,0.0,2649.7677,6.0,27.0,207.0,19.0,1.0,1.6,0.7,Time
,,S06,1,Male,34,anonymized,Serial_Dependence_U,2023.2.3,Win32,60.24096386,,,,,,,,,,,,2649.7691,6.0,2649.7699,,,,2652.9025,2653.4008,2652.3895,2652.9023,2650.7855,304.0,2652.3893,2653.4009,2653.9008,2653.9009,2659.9218,9999.0,2659.9229,0.0,2660.9176,6.0,28.0,208.0,14.0,1.0,1.6,0.3,Time
,,S06,1,Male,34,anonymized,Serial_Dependence_U,2023.2.3,Win32,60.24096386,,,,,,,,,,,,2660.919,6.0,2660.9198,,,,2663.4524,2663.9507,2662.9374,2663.4522,2661.9349,222.0,2662.9372,2663.9508,2664.4509,2664.451,2670.4703,9999.0,2670.4709,0.0,2671.4678,6.0,29.0,209.0,11.0,1.0,1.0,0.3,Time
,,S06,1,Male,34,anonymized,Serial_Dependence_U,2023.2.3,Win32,60.24096386,,,,,,,,,,,,2671.4695,7.0,2806.2184,s,134.7193,,2808.9701,2809.4685,2808.4535,2808.9699,2807.2357,146.0,2808.4533,2809.4686,2809.9691,2809.9692,2815.9871,9999.0,2815.9877,0.0,2816.9857,7.0,0.0,210.0,2.0,1.0,1.2,0.3,Time
,,S06,1,Male,34,anonymized,Serial_Dependence_U,2023.2.3,Win32,60.24096386,,,,,,,,,,,,2816.9869,7.0,2816.9911,,,,2820.1364,2820.6358,2819.6201,2820.1362,2818.0031,343.0,2819.6198,2820.6358,2821.1358,2821.1358,2827.153,9999.0,2827.1535,0.0,2828.1525,7.0,1.0,211.0,24.0,1.0,1.6,0.3,Time
,,S06,1,Male,34,anonymized,Serial_Dependence_U,2023.2.3,Win32,60.24096386,,,,,,,,,,,,2828.1537,7.0,2828.1544,,,,2831.3037,2831.8025,2830.7905,2831.3035,2829.171,139.0,2830.7903,2831.8025,2832.3024,2832.3026,2838.3188,9999.0,2838.3191,0.0,2839.3192,7.0,2.0,212.0,19.0,1.0,1.6,0.7,Time
,,S06,1,Male,34,anonymized,Serial_Dependence_U,2023.2.3,Win32,60.24096386,,,,,,,,,,,,2839.3205,7.0,2839.3212,,,,2841.8721,2842.3685,2841.3546,2841.8719,2840.3375,182.0,2841.3544,2842.3686,2842.8686,2842.8686,2848.8865,9999.0,2848.8869,0.0,2849.8853,7.0,3.0,213.0,26.0,1.0,1.0,0.7,Time
,,S06,1,Male,34,anonymized,Serial_Dependence_U,2023.2.3,Win32,60.24096386,,,,,,,,,,,,2849.8868,7.0,2849.8877,,,,2853.0359,2853.5348,2852.5197,2853.0357,2850.9042,221.0,2852.5195,2853.5349,2854.035,2854.035,2860.0527,9999.0,2860.0531,0.0,2861.0515,7.0,4.0,214.0,9.0,1.0,1.6,0.7,Time
,,S06,1,Male,34,anonymized,Serial_Dependence_U,2023.2.3,Win32,60.24096386,,,,,,,,,,,,2861.0524,7.0,2861.0531,,,,2863.7913,2864.2854,2863.2876,2863.791,2862.0702,334.0,2863.2873,2864.2854,2864.7854,2864.7856,2870.7945,9999.0,2870.7948,0.0,2871.7861,7.0,5.0,215.0,17.0,1.0,1.2,0.7,Time
,,S06,1,Male,34,anonymized,Serial_Dependence_U,2023.2.3,Win32,60.24096386,,,,,,,,,,,,2871.7872,7.0,2871.7879,,,,2874.3372,2874.8355,2873.8208,2874.3371,2872.804,176.0,2873.8207,2874.8356,2875.337,2875.337,2881.3541,9999.0,2881.3546,0.0,2882.3527,7.0,6.0,216.0,16.0,1.0,1.0,0.7,Time
,,S06,1,Male,34,anonymized,Serial_Dependence_U,2023.2.3,Win32,60.24096386,,,,,,,,,,,,2882.3538,7.0,2882.3545,,,,2885.3038,2885.8023,2884.7865,2885.3036,2883.3705,183.0,2884.7863,2885.8024,2886.3028,2886.303,2892.3201,9999.0,2892.3204,0.0,2893.319,7.0,7.0,217.0,18.0,1.0,1.4,0.7,Time
,,S06,1,Male,34,anonymized,Serial_Dependence_U,2023.2.3,Win32,60.24096386,,,,,,,,,,,,2893.3205,7.0,2893.3212,,,,2896.0694,2896.5685,2895.5546,2896.0692,2894.3376,58.0,2895.5544,2896.5685,2897.0686,2897.0686,2903.0869,9999.0,2903.0875,0.0,2904.0863,7.0,8.0,218.0,22.0,1.0,1.2,0.3,Time
,,S06,1,Male,34,anonymized,Serial_Dependence_U,2023.2.3,Win32,60.24096386,,,,,,,,,,,,2904.0876,7.0,2904.0883,,,,2906.437,2906.9369,2905.9233,2906.4369,2905.1039,186.0,2905.9231,2906.9369,2907.4371,2907.4372,2913.4556,9999.0,2913.456,0.0,2914.4524,7.0,9.0,219.0,10.0,1.0,0.8,0.3,Time
,,S06,1,Male,34,anonymized,Serial_Dependence_U,2023.2.3,Win32,60.24096386,,,,,,,,,,,,2914.4539,7.0,2914.4546,,,,2916.804,2917.3029,2916.2906,2916.8038,2915.4695,186.0,2916.2902,2917.303,2917.8033,2917.8036,2923.8199,9999.0,2923.8203,0.0,2924.8199,7.0,10.0,220.0,25.0,1.0,0.8,0.7,Time
,,S06,1,Male,34,anonymized,Serial_Dependence_U,2023.2.3,Win32,60.24096386,,,,,,,,,,,,2924.8211,7.0,2924.8218,,,,2927.9597,2928.4537,2927.4543,2927.9596,2925.8379,193.0,2927.4542,2928.4537,2928.9539,2928.954,2934.9698,9999.0,2934.9702,0.0,2935.9688,7.0,11.0,221.0,14.0,1.0,1.6,0.3,Time
,,S06,1,Male,34,anonymized,Serial_Dependence_U,2023.2.3,Win32,60.24096386,,,,,,,,,,,,2935.9699,7.0,2935.9703,,,,2938.7042,2939.2027,2938.188,2938.7041,2936.9737,19.0,2938.1878,2939.2028,2939.7022,2939.7024,2945.7199,9999.0,2945.7203,0.0,2946.7186,7.0,12.0,222.0,12.0,1.0,1.2,0.3,Time
,,S06,1,Male,34,anonymized,Serial_Dependence_U,2023.2.3,Win32,60.24096386,,,,,,,,,,,,2946.7196,7.0,2946.72,,,,2949.0694,2949.5686,2948.5535,2949.0694,2947.7372,129.0,2948.5533,2949.5686,2950.0686,2950.0687,2956.086,9999.0,2956.0862,0.0,2957.0857,7.0,13.0,223.0,0.0,1.0,0.8,0.3,Time
,,S06,1,Male,34,anonymized,Serial_Dependence_U,2023.2.3,Win32,60.24096386,,,,,,,,,,,,2957.0872,7.0,2957.0879,,,,2959.8208,2960.3193,2959.3058,2959.8205,2958.0897,75.0,2959.3056,2960.3195,2960.8192,2960.8194,2966.8374,9999.0,2966.8378,0.0,2967.8366,7.0,14.0,224.0,7.0,1.0,1.2,0.7,Time
,,S06,1,Male,34,anonymized,Serial_Dependence_U,2023.2.3,Win32,60.24096386,,,,,,,,,,,,2967.838,7.0,2967.8388,,,,2970.7884,2971.286,2970.2713,2970.7881,2968.8541,266.0,2970.271,2971.286,2971.7866,2971.7866,2977.8029,9999.0,2977.8031,0.0,2978.8034,7.0,15.0,225.0,28.0,1.0,1.4,0.7,Time
,,S06,1,Male,34,anonymized,Serial_Dependence_U,2023.2.3,Win32,60.24096386,,,,,,,,,,,,2978.8046,7.0,2978.8051,,,,2981.955,2982.4529,2981.4371,2981.9547,2979.8198,314.0,2981.4368,2982.453,2982.9535,2982.9537,2988.9572,9999.0,2988.958,0.0,2989.9535,7.0,16.0,226.0,4.0,1.0,1.6,0.3,Time
,,S06,1,Male,34,anonymized,Serial_Dependence_U,2023.2.3,Win32,60.24096386,,,,,,,,,,,,2989.9548,7.0,2989.9555,,,,2992.3044,2992.8032,2991.7881,2992.3043,2990.9706,330.0,2991.7879,2992.8034,2993.3026,2993.3027,2999.3204,9999.0,2999.3208,0.0,3000.3196,7.0,17.0,227.0,5.0,1.0,0.8,0.7,Time
,,S06,1,Male,34,anonymized,Serial_Dependence_U,2023.2.3,Win32,60.24096386,,,,,,,,,,,,3000.321,7.0,3000.3215,,,,3002.871,3003.3701,3002.3548,3002.8709,3001.3382,240.0,3002.3546,3003.3701,3003.8697,3003.87,3009.8738,9999.0,3009.8747,0.0,3010.8702,7.0,18.0,228.0,21.0,1.0,1.0,0.3,Time
,,S06,1,Male,34,anonymized,Serial_Dependence_U,2023.2.3,Win32,60.24096386,,,,,,,,,,,,3010.8717,7.0,3010.8723,,,,3014.0043,3014.5034,3013.4868,3014.0041,3011.8743,15.0,3013.4867,3014.5035,3015.0035,3015.0037,3021.0206,9999.0,3021.021,0.0,3022.0201,7.0,19.0,229.0,29.0,1.0,1.6,0.7,Time
,,S06,1,Male,34,anonymized,Serial_Dependence_U,2023.2.3,Win32,60.24096386,,,,,,,,,,,,3022.0212,7.0,3022.0218,,,,3024.9734,3025.4696,3024.4553,3024.9731,3023.0376,102.0,3024.455,3025.4697,3025.9698,3025.9698,3031.9875,9999.0,3031.988,0.0,3032.987,7.0,20.0,230.0,3.0,1.0,1.4,0.3,Time
,,S06,1,Male,34,anonymized,Serial_Dependence_U,2023.2.3,Win32,60.24096386,,,,,,,,,,,,3032.9882,7.0,3032.9888,,,,3035.538,3036.0369,3035.0208,3035.5378,3034.0047,211.0,3035.0206,3036.037,3036.5373,3036.5374,3042.5548,9999.0,3042.5553,0.0,3043.5538,7.0,21.0,231.0,1.0,1.0,1.0,0.3,Time
,,S06,1,Male,34,anonymized,Serial_Dependence_U,2023.2.3,Win32,60.24096386,,,,,,,,,,,,3043.555,7.0,3043.5556,,,,3046.488,3046.9872,3045.9748,3046.4878,3044.5714,170.0,3045.9742,3046.9872,3047.4872,3047.4872,3053.5048,9999.0,3053.5054,0.0,3054.5036,7.0,22.0,232.0,13.0,1.0,1.4,0.3,Time
,,S06,1,Male,34,anonymized,Serial_Dependence_U,2023.2.3,Win32,60.24096386,,,,,,,,,,,,3054.5048,7.0,3054.5055,,,,3056.8548,3057.3538,3056.3389,3056.8546,3055.5212,247.0,3056.3387,3057.3538,3057.854,3057.854,3063.8716,9999.0,3063.8721,0.0,3064.8706,7.0,23.0,233.0,15.0,1.0,0.8,0.7,Time
,,S06,1,Male,34,anonymized,Serial_Dependence_U,2023.2.3,Win32,60.24096386,,,,,,,,,,,,3064.8718,7.0,3064.8723,,,,3067.6209,3068.12,3067.1057,3067.6207,3065.8881,348.0,3067.1055,3068.1201,3068.6201,3068.6202,3074.6226,9999.0,3074.6232,0.0,3075.6199,7.0,24.0,234.0,27.0,1.0,1.2,0.7,Time
,,S06,1,Male,34,anonymized,Serial_Dependence_U,2023.2.3,Win32,60.24096386,,,,,,,,,,,,3075.6214,7.0,3075.6222,,,,3077.9428,3078.4366,3077.428,3077.9426,3076.6242,156.0,3077.4278,3078.4367,3078.9368,3078.9369,3084.9427,9999.0,3084.9435,0.0,3085.9367,7.0,25.0,235.0,20.0,1.0,0.8,0.3,Time
,,S06,1,Male,34,anonymized,Serial_Dependence_U,2023.2.3,Win32,60.24096386,,,,,,,,,,,,3085.9384,7.0,3085.9392,,,,3088.8715,3089.37,3088.3561,3088.8714,3086.9406,75.0,3088.3559,3089.37,3089.87,3089.8701,3095.8891,9999.0,3095.8896,0.0,3096.8868,7.0,26.0,236.0,8.0,1.0,1.4,0.7,Time
,,S06,1,Male,34,anonymized,Serial_Dependence_U,2023.2.3,Win32,60.24096386,,,,,,,,,,,,3096.8883,7.0,3096.889,,,,3099.4403,3099.9369,3098.9251,3099.44,3097.9051,241.0,3098.9248,3099.9371,3100.4386,3100.4387,3106.4545,9999.0,3106.4549,0.0,3107.4554,7.0,27.0,237.0,11.0,1.0,1.0,0.3,Time
,,S06,1,Male,34,anonymized,Serial_Dependence_U,2023.2.3,Win32,60.24096386,,,,,,,,,,,,3107.4571,7.0,3107.4579,,,,3110.4044,3110.9035,3109.8876,3110.4042,3108.4716,9.0,3109.8875,3110.9035,3111.4036,3111.4037,3117.4212,9999.0,3117.4216,0.0,3118.4202,7.0,28.0,238.0,23.0,1.0,1.4,0.3,Time
,,S06,1,Male,34,anonymized,Serial_Dependence_U,2023.2.3,Win32,60.24096386,,,,,,,,,,,,3118.4218,7.0,3118.4227,,,,3120.9431,3121.4375,3120.4387,3120.9429,3119.4244,53.0,3120.4386,3121.4375,3121.9388,3121.9389,3127.9486,9999.0,3127.9492,0.0,3128.9372,7.0,29.0,239.0,6.0,1.0,1.0,0.7,Time
,,S06,1,Male,34,anonymized,Serial_Dependence_U,2023.2.3,Win32,60.24096386,,,,,,,,,,,,3128.9387,8.0,3136.0755,s,7.1026,,3138.8051,3139.3044,3138.2888,3138.8049,3137.0833,302.0,3138.2886,3139.3045,3139.8044,3139.8044,3145.8082,9999.0,3145.8089,0.0,3146.8038,8.0,0.0,240.0,2.0,1.0,1.2,0.3,Time
,,S06,1,Male,34,anonymized,Serial_Dependence_U,2023.2.3,Win32,60.24096386,,,,,,,,,,,,3146.8055,8.0,3146.8096,,,,3149.9573,3150.4537,3149.439,3149.9572,3147.822,288.0,3149.4388,3150.4538,3150.9537,3150.9539,3156.9714,9999.0,3156.9721,0.0,3157.9704,8.0,1.0,241.0,19.0,1.0,1.6,0.7,Time
,,S06,1,Male,34,anonymized,Serial_Dependence_U,2023.2.3,Win32,60.24096386,,,,,,,,,,,,3157.9726,8.0,3157.9737,,,,3160.5057,3161.0037,3159.9895,3160.5055,3158.9748,357.0,3159.9893,3161.0038,3161.504,3161.5041,3167.5213,9999.0,3167.5217,0.0,3168.5206,8.0,2.0,242.0,21.0,1.0,1.0,0.3,Time
,,S06,1,Male,34,anonymized,Serial_Dependence_U,2023.2.3,Win32,60.24096386,,,,,,,,,,,,3168.5222,8.0,3168.523,,,,3171.0593,3171.5538,3170.5559,3171.0589,3169.538,211.0,3170.5558,3171.5539,3172.0539,3172.0541,3178.0583,9999.0,3178.0594,0.0,3179.0545,8.0,3.0,243.0,11.0,1.0,1.0,0.3,Time
,,S06,1,Male,34,anonymized,Serial_Dependence_U,2023.2.3,Win32,60.24096386,,,,,,,,,,,,3179.0558,8.0,3179.0565,,,,3181.8067,3182.3047,3181.2883,3181.8064,3180.0722,305.0,3181.2881,3182.3047,3182.8044,3182.8046,3188.8223,9999.0,3188.8229,0.0,3189.8213,8.0,4.0,244.0,27.0,1.0,1.2,0.7,Time
,,S06,1,Male,34,anonymized,Serial_Dependence_U,2023.2.3,Win32,60.24096386,,,,,,,,,,,,3189.8225,8.0,3189.8231,,,,3192.5554,3193.0546,3192.0399,3192.5552,3190.8235,222.0,3192.0395,3193.0546,3193.5547,3193.5548,3199.5602,9999.0,3199.5607,0.0,3200.5605,8.0,5.0,245.0,22.0,1.0,1.2,0.3,Time
,,S06,1,Male,34,anonymized,Serial_Dependence_U,2023.2.3,Win32,60.24096386,,,,,,,,,,,,3200.5618,8.0,3200.5627,,,,3203.5076,3204.004,3202.9894,3203.5074,3201.5712,23.0,3202.9892,3204.004,3204.5039,3204.5039,3210.5223,9999.0,3210.5228,0.0,3211.5207,8.0,6.0,246.0,23.0,1.0,1.4,0.3,Time
,,S06,1,Male,34,anonymized,Serial_Dependence_U,2023.2.3,Win32,60.24096386,,,,,,,,,,,,3211.5223,8.0,3211.5231,,,,3214.2722,3214.7707,3213.7571,3214.2721,3212.539,150.0,3213.7569,3214.7708,3215.2708,3215.271,3221.2747,9999.0,3221.2752,0.0,3222.2709,8.0,7.0,247.0,7.0,1.0,1.2,0.7,Time
,,S06,1,Male,34,anonymized,Serial_Dependence_U,2023.2.3,Win32,60.24096386,,,,,,,,,,,,3222.2724,8.0,3222.2732,,,,3224.6237,3225.1208,3224.106,3224.6235,3223.2889,95.0,3224.1058,3225.1208,3225.621,3225.6211,3231.6403,9999.0,3231.6408,0.0,3232.6376,8.0,8.0,248.0,20.0,1.0,0.8,0.3,Time
,,S06,1,Male,34,anonymized,Serial_Dependence_U,2023.2.3,Win32,60.24096386,,,,,,,,,,,,3232.6393,8.0,3232.6399,,,,3235.1893,3235.6875,3234.6807,3235.1891,3233.657,239.0,3234.6805,3235.6875,3236.1875,3236.1878,3242.2055,9999.0,3242.206,0.0,3243.2043,8.0,9.0,249.0,26.0,1.0,1.0,0.7,Time
,,S06,1,Male,34,anonymized,Serial_Dependence_U,2023.2.3,Win32,60.24096386,,,,,,,,,,,,3243.2058,8.0,3243.2066,,,,3246.1395,3246.6382,3245.623,3246.1392,3244.2116,311.0,3245.6227,3246.6383,3247.138,3247.1383,3253.1552,9999.0,3253.1555,0.0,3254.1543,8.0,10.0,250.0,18.0,1.0,1.4,0.7,Time
,,S06,1,Male,34,anonymized,Serial_Dependence_U,2023.2.3,Win32,60.24096386,,,,,,,,,,,,3254.1566,8.0,3254.1577,,,,3256.5075,3257.0042,3255.9905,3256.5072,3255.1731,229.0,3255.9903,3257.0042,3257.5043,3257.5046,3263.5223,9999.0,3263.5227,0.0,3264.5211,8.0,11.0,251.0,15.0,1.0,0.8,0.7,Time
,,S06,1,Male,34,anonymized,Serial_Dependence_U,2023.2.3,Win32,60.24096386,,,,,,,,,,,,3264.5226,8.0,3264.5237,,,,3267.0546,3267.5543,3266.5395,3267.0545,3265.5249,358.0,3266.5393,3267.5545,3268.0545,3268.0547,3274.0738,9999.0,3274.0743,0.0,3275.0709,8.0,12.0,252.0,1.0,1.0,1.0,0.3,Time
,,S06,1,Male,34,anonymized,Serial_Dependence_U,2023.2.3,Win32,60.24096386,,,,,,,,,,,,3275.072,8.0,3275.0725,,,,3278.0219,3278.5211,3277.5065,3278.0218,3276.0894,282.0,3277.5064,3278.5212,3279.0213,3279.0214,3285.0398,9999.0,3285.0403,0.0,3286.0386,8.0,13.0,253.0,13.0,1.0,1.4,0.3,Time
,,S06,1,Male,34,anonymized,Serial_Dependence_U,2023.2.3,Win32,60.24096386,,,,,,,,,,,,3286.0397,8.0,3286.0403,,,,3288.7924,3289.2885,3288.2737,3288.7921,3287.0566,78.0,3288.2734,3289.2886,3289.7883,3289.7883,3295.806,9999.0,3295.8066,0.0,3296.8064,8.0,14.0,254.0,17.0,1.0,1.2,0.7,Time
,,S06,1,Male,34,anonymized,Serial_Dependence_U,2023.2.3,Win32,60.24096386,,,,,,,,,,,,3296.8083,8.0,3296.8092,,,,3299.9317,3300.4216,3299.4231,3299.9314,3297.8126,347.0,3299.4229,3300.4219,3300.9218,3300.9219,3306.9351,9999.0,3306.9358,0.0,3307.9395,8.0,15.0,255.0,14.0,1.0,1.6,0.3,Time
,,S06,1,Male,34,anonymized,Serial_Dependence_U,2023.2.3,Win32,60.24096386,,,,,,,,,,,,3307.9407,8.0,3307.9415,,,,3311.0887,3311.5886,3310.5718,3311.0885,3308.9554,98.0,3310.5716,3311.5887,3312.0888,3312.0889,3318.1055,9999.0,3318.106,0.0,3319.1054,8.0,16.0,256.0,9.0,1.0,1.6,0.7,Time
,,S06,1,Male,34,anonymized,Serial_Dependence_U,2023.2.3,Win32,60.24096386,,,,,,,,,,,,3319.1067,8.0,3319.1076,,,,3322.2569,3322.7557,3321.7402,3322.2567,3320.1229,201.0,3321.74,3322.7558,3323.2554,3323.2555,3329.2727,9999.0,3329.2731,0.0,3330.2721,8.0,17.0,257.0,4.0,1.0,1.6,0.3,Time
,,S06,1,Male,34,anonymized,Serial_Dependence_U,2023.2.3,Win32,60.24096386,,,,,,,,,,,,3330.2733,8.0,3330.2739,,,,3332.8237,3333.3221,3332.3061,3332.8236,3331.2891,129.0,3332.3059,3333.3221,3333.8222,3333.8223,3339.84,9999.0,3339.8406,0.0,3340.839,8.0,18.0,258.0,6.0,1.0,1.0,0.7,Time
,,S06,1,Male,34,anonymized,Serial_Dependence_U,2023.2.3,Win32,60.24096386,,,,,,,,,,,,3340.8401,8.0,3340.8408,,,,3343.7736,3344.2721,3343.2568,3343.7735,3341.8433,178.0,3343.2565,3344.2721,3344.7721,3344.7722,3350.7898,9999.0,3350.7903,0.0,3351.7885,8.0,19.0,259.0,3.0,1.0,1.4,0.3,Time
,,S06,1,Male,34,anonymized,Serial_Dependence_U,2023.2.3,Win32,60.24096386,,,,,,,,,,,,3351.79,8.0,3351.791,,,,3354.5406,3355.0382,3354.0281,3354.5405,3352.8065,84.0,3354.0277,3355.0384,3355.5383,3355.5384,3361.559,9999.0,3361.5591,0.0,3362.5555,8.0,20.0,260.0,12.0,1.0,1.2,0.3,Time
,,S06,1,Male,34,anonymized,Serial_Dependence_U,2023.2.3,Win32,60.24096386,,,,,,,,,,,,3362.5567,8.0,3362.5573,,,,3364.89,3365.3883,3364.3767,3364.8898,3363.5737,63.0,3364.3765,3365.3883,3365.8884,3365.8887,3371.9082,9999.0,3371.9096,0.0,3372.9054,8.0,21.0,261.0,10.0,1.0,0.8,0.3,Time
,,S06,1,Male,34,anonymized,Serial_Dependence_U,2023.2.3,Win32,60.24096386,,,,,,,,,,,,3372.9063,8.0,3372.9068,,,,3375.8411,3376.3384,3375.3236,3375.8409,3373.911,340.0,3375.3233,3376.3385,3376.8386,3376.8387,3382.858,9999.0,3382.8585,0.0,3383.8551,8.0,22.0,262.0,28.0,1.0,1.4,0.7,Time
,,S06,1,Male,34,anonymized,Serial_Dependence_U,2023.2.3,Win32,60.24096386,,,,,,,,,,,,3383.8565,8.0,3383.8571,,,,3386.1762,3386.6719,3385.6731,3386.1761,3384.8579,331.0,3385.6729,3386.6719,3387.1721,3387.1721,3393.1763,9999.0,3393.177,0.0,3394.1719,8.0,23.0,263.0,5.0,1.0,0.8,0.7,Time
,,S06,1,Male,34,anonymized,Serial_Dependence_U,2023.2.3,Win32,60.24096386,,,,,,,,,,,,3394.1736,8.0,3394.1745,,,,3396.7118,3397.2052,3396.2077,3396.7116,3395.1898,264.0,3396.2075,3397.2053,3397.7052,3397.7053,3403.7084,9999.0,3403.7088,0.0,3404.7051,8.0,24.0,264.0,16.0,1.0,1.0,0.7,Time
,,S06,1,Male,34,anonymized,Serial_Dependence_U,2023.2.3,Win32,60.24096386,,,,,,,,,,,,3404.7069,8.0,3404.7082,,,,3407.0394,3407.5386,3406.5237,3407.0393,3405.7094,329.0,3406.5235,3407.5386,3408.0385,3408.0387,3414.056,9999.0,3414.0564,0.0,3415.0553,8.0,25.0,265.0,0.0,1.0,0.8,0.3,Time
,,S06,1,Male,34,anonymized,Serial_Dependence_U,2023.2.3,Win32,60.24096386,,,,,,,,,,,,3415.0569,8.0,3415.0577,,,,3418.0063,3418.5058,3417.4897,3418.0062,3416.0732,6.0,3417.4895,3418.506,3419.0062,3419.0063,3425.0227,9999.0,3425.0231,0.0,3426.0238,8.0,26.0,266.0,8.0,1.0,1.4,0.7,Time
,,S06,1,Male,34,anonymized,Serial_Dependence_U,2023.2.3,Win32,60.24096386,,,,,,,,,,,,3426.0247,8.0,3426.025,,,,3429.1736,3429.6737,3428.6569,3429.1735,3427.0398,24.0,3428.6568,3429.6738,3430.1727,3430.1727,3436.1898,9999.0,3436.1902,0.0,3437.1897,8.0,27.0,267.0,24.0,1.0,1.6,0.3,Time
,,S06,1,Male,34,anonymized,Serial_Dependence_U,2023.2.3,Win32,60.24096386,,,,,,,,,,,,3437.191,8.0,3437.1917,,,,3440.3408,3440.8391,3439.8242,3440.3407,3438.2073,200.0,3439.8241,3440.8391,3441.3395,3441.3395,3447.3574,9999.0,3447.3579,0.0,3448.3564,8.0,28.0,268.0,29.0,1.0,1.6,0.7,Time
,,S06,1,Male,34,anonymized,Serial_Dependence_U,2023.2.3,Win32,60.24096386,,,,,,,,,,,,3448.3575,8.0,3448.3582,,,,3450.6914,3451.1891,3450.1897,3450.6912,3449.3737,214.0,3450.1895,3451.1892,3451.6887,3451.6889,3457.7074,9999.0,3457.708,0.0,3458.7062,8.0,29.0,269.0,25.0,1.0,0.8,0.7,Time
