Scale_setup.started,Scale_setup.stopped,participant,session,sex,age,date,expName,psychopyVersion,OS,frameRate,screen_scale_keys.started,screen_scale_keys.stopped,X Scale,Y Scale,rectangel_keys.started,rectangel_keys.stopped,Intro.started,Intro.stopped,key_resp_2.keys,key_resp_2.rt,key_resp_2.duration,block.started,Block_id,block.stopped,Block_resp_2.keys,Block_resp_2.rt,Block_resp_2.duration,ITI.started,ITI.stopped,Mask_2.started,Mask_2.stopped,M2.started,direction,M2.stopped,Cue.started,Cue.stopped,Response.started,Response.stopped,keyDuration,Feedback_Time.started,FeedbackID_T,Feedback_Time.stopped,trials.thisRepN,trials.thisTrialN,trials.thisN,trials.thisIndex,trials.ran,TimeDur,Coherence1,TrialType
0.0002,0.0004,S07,1,Female,27,anonymized,Serial_Dependence_U,2023.2.3,Win32,60.24096386,,,,,,,,,,,,,,,,,,,,,,,,,,,,,,,,,,,,,,,,
,,S07,1,Female,27,anonymized,Serial_Dependence_U,2023.2.3,Win32,60.24096386,0.0028,126.3411,0.0581,0.0581,126.3415,149.0568,149.0579,230.2026,space,81.0678,,,,,,,,,,,,,,,,,,,,,,,,,,,,,,
,,S07,1,Female,27,anonymized,Serial_Dependence_U,2023.2.3,Win32,60.24096386,,,,,,,,,,,,230.2257,0.0,234.7189,s,4.4443,,237.2526,237.7511,236.7358,237.2523,235.7295,144.0,236.7356,237.7517,238.2517,238.2528,243.8687,2100.0,243.8698,5.0,244.8675,0.0,0.0,0.0,6.0,1.0,1.0,0.7,Time
,,S07,1,Female,27,anonymized,Serial_Dependence_U,2023.2.3,Win32,60.24096386,,,,,,,,,,,,244.8688,0.0,244.8724,,,,247.8115,248.3008,247.2943,247.8113,245.8763,176.0,247.2942,248.3011,248.8009,248.8012,251.9119,466.5,251.9123,1.0,252.9008,0.0,1.0,1.0,3.0,1.0,1.4,0.3,Time
,,S07,1,Female,27,anonymized,Serial_Dependence_U,2023.2.3,Win32,60.24096386,,,,,,,,,,,,252.9028,0.0,252.9035,,,,255.4274,255.917,254.9112,255.4272,253.8947,276.0,254.9109,255.9171,256.4086,256.4087,256.4841,56.59999996,256.4848,1.0,257.4837,0.0,2.0,2.0,26.0,1.0,1.0,0.7,Time
,,S07,1,Female,27,anonymized,Serial_Dependence_U,2023.2.3,Win32,60.24096386,,,,,,,,,,,,257.4847,0.0,257.4855,,,,260.2345,260.7335,259.7183,260.2343,258.5012,190.0,259.7179,260.7335,261.2335,261.2336,261.5164,263.4,261.5166,1.0,262.5169,0.0,3.0,3.0,12.0,1.0,1.2,0.3,Time
,,S07,1,Female,27,anonymized,Serial_Dependence_U,2023.2.3,Win32,60.24096386,,,,,,,,,,,,262.5182,0.0,262.5188,,,,265.068,265.5666,264.5508,265.0677,263.5344,63.0,264.5506,265.5666,266.0667,266.0668,266.9674,667.8,266.9678,1.0,267.9668,0.0,4.0,4.0,16.0,1.0,1.0,0.7,Time
,,S07,1,Female,27,anonymized,Serial_Dependence_U,2023.2.3,Win32,60.24096386,,,,,,,,,,,,267.9679,0.0,267.9685,,,,270.718,271.2163,270.2009,270.7176,268.9845,2.0,270.2005,271.2163,271.7164,271.7165,273.6664,1133.3,273.6668,2.0,274.6736,0.0,5.0,5.0,17.0,1.0,1.2,0.7,Time
,,S07,1,Female,27,anonymized,Serial_Dependence_U,2023.2.3,Win32,60.24096386,,,,,,,,,,,,274.675,0.0,274.6757,,,,277.4165,277.9157,276.899,277.4163,275.6839,312.0,276.8989,277.9158,278.4158,278.416,280.2154,1353.4,280.2156,4.0,281.2156,0.0,6.0,6.0,2.0,1.0,1.2,0.3,Time
,,S07,1,Female,27,anonymized,Serial_Dependence_U,2023.2.3,Win32,60.24096386,,,,,,,,,,,,281.2172,0.0,281.2177,,,,283.5588,284.0486,283.0538,283.5585,282.2414,251.0,283.0537,284.0486,284.5491,284.5493,284.9157,249.1,284.9161,1.0,285.9154,0.0,7.0,7.0,15.0,1.0,0.8,0.7,Time
,,S07,1,Female,27,anonymized,Serial_Dependence_U,2023.2.3,Win32,60.24096386,,,,,,,,,,,,285.9164,0.0,285.9171,,,,289.0484,289.5485,288.5325,289.0483,286.9166,242.0,288.5324,289.5485,290.0486,290.0487,291.6819,1421.8,291.6822,2.0,292.6839,0.0,8.0,8.0,14.0,1.0,1.6,0.3,Time
,,S07,1,Female,27,anonymized,Serial_Dependence_U,2023.2.3,Win32,60.24096386,,,,,,,,,,,,292.6845,0.0,292.6848,,,,295.824,296.3151,295.3091,295.8238,293.7066,71.0,295.309,296.3153,296.8048,296.8049,297.0564,165.8,297.0566,1.0,298.0481,0.0,9.0,9.0,24.0,1.0,1.6,0.3,Time
,,S07,1,Female,27,anonymized,Serial_Dependence_U,2023.2.3,Win32,60.24096386,,,,,,,,,,,,298.0492,0.0,298.0498,,,,300.3917,300.8814,299.8751,300.3916,299.0571,314.0,299.8748,300.8815,301.3817,301.3819,301.7807,365.5,301.7809,1.0,302.7812,0.0,10.0,10.0,5.0,1.0,0.8,0.7,Time
,,S07,1,Female,27,anonymized,Serial_Dependence_U,2023.2.3,Win32,60.24096386,,,,,,,,,,,,302.7823,0.0,302.783,,,,305.9161,306.4142,305.3988,305.9159,303.7913,244.0,305.3985,306.4143,306.9141,306.9142,308.1143,1119.3,308.1148,1.0,309.1141,0.0,11.0,11.0,9.0,1.0,1.6,0.7,Time
,,S07,1,Female,27,anonymized,Serial_Dependence_U,2023.2.3,Win32,60.24096386,,,,,,,,,,,,309.1153,0.0,309.1158,,,,312.2486,312.7465,311.7473,312.2484,310.132,240.0,311.7472,312.7466,313.2479,313.248,313.3804,80.0,313.3806,1.0,314.3803,0.0,12.0,12.0,4.0,1.0,1.6,0.3,Time
,,S07,1,Female,27,anonymized,Serial_Dependence_U,2023.2.3,Win32,60.24096386,,,,,,,,,,,,314.3815,0.0,314.382,,,,317.3241,317.8138,316.8075,317.3239,315.3906,97.0,316.8073,317.8138,318.3214,318.3214,320.2805,1314.5,320.281,2.0,321.28,0.0,13.0,13.0,23.0,1.0,1.4,0.3,Time
,,S07,1,Female,27,anonymized,Serial_Dependence_U,2023.2.3,Win32,60.24096386,,,,,,,,,,,,321.281,0.0,321.2816,,,,323.622,324.1139,323.1051,323.6218,322.2905,228.0,323.1027,324.1141,324.621,324.6211,325.4385,746.3,325.4387,2.0,326.4378,0.0,14.0,14.0,20.0,1.0,0.8,0.3,Time
,,S07,1,Female,27,anonymized,Serial_Dependence_U,2023.2.3,Win32,60.24096386,,,,,,,,,,,,326.4389,0.0,326.4395,,,,329.1645,329.6624,328.6629,329.1644,327.4464,342.0,328.6628,329.6624,330.1631,330.1631,330.957,516.6,330.9575,1.0,331.9463,0.0,15.0,15.0,27.0,1.0,1.2,0.7,Time
,,S07,1,Female,27,anonymized,Serial_Dependence_U,2023.2.3,Win32,60.24096386,,,,,,,,,,,,331.9474,0.0,331.948,,,,334.8733,335.3631,334.364,334.8731,332.9569,73.0,334.3639,335.3632,335.8704,335.8705,338.9128,1367.2,338.9134,3.0,339.9126,0.0,16.0,16.0,18.0,1.0,1.4,0.7,Time
,,S07,1,Female,27,anonymized,Serial_Dependence_U,2023.2.3,Win32,60.24096386,,,,,,,,,,,,339.9137,0.0,339.9143,,,,342.4567,342.946,341.9394,342.4566,340.9221,99.0,341.9391,342.9461,343.453,343.4532,344.6226,683.9,344.6229,1.0,345.6123,0.0,17.0,17.0,1.0,1.0,1.0,0.3,Time
,,S07,1,Female,27,anonymized,Serial_Dependence_U,2023.2.3,Win32,60.24096386,,,,,,,,,,,,345.6133,0.0,345.6139,,,,348.5455,349.0452,348.0389,348.5454,346.6225,179.0,348.0387,349.0453,349.545,349.5451,353.3782,911.3,353.3783,1.0,354.3785,0.0,18.0,18.0,28.0,1.0,1.4,0.7,Time
,,S07,1,Female,27,anonymized,Serial_Dependence_U,2023.2.3,Win32,60.24096386,,,,,,,,,,,,354.3795,0.0,354.3802,,,,357.5063,357.9947,357.0033,357.5062,355.3874,147.0,357.0032,357.9948,358.4847,358.4848,360.2376,949.3,360.2378,1.0,361.2356,0.0,19.0,19.0,29.0,1.0,1.6,0.7,Time
,,S07,1,Female,27,anonymized,Serial_Dependence_U,2023.2.3,Win32,60.24096386,,,,,,,,,,,,361.2366,0.0,361.2374,,,,364.1694,364.6612,363.6475,364.1693,362.239,133.0,363.6474,364.6613,365.1617,365.162,367.2947,1549.6,367.295,4.0,368.2981,0.0,20.0,20.0,13.0,1.0,1.4,0.3,Time
,,S07,1,Female,27,anonymized,Serial_Dependence_U,2023.2.3,Win32,60.24096386,,,,,,,,,,,,368.2995,0.0,368.3004,,,,370.8123,371.3109,370.3049,370.8121,369.2982,113.0,370.3047,371.311,371.8108,371.811,372.8539,546.5,372.8541,1.0,373.8441,0.0,21.0,21.0,21.0,1.0,1.0,0.3,Time
,,S07,1,Female,27,anonymized,Serial_Dependence_U,2023.2.3,Win32,60.24096386,,,,,,,,,,,,373.8452,0.0,373.8458,,,,376.1868,376.6774,375.6636,376.1866,374.8546,145.0,375.6634,376.6774,377.1685,377.1686,377.8555,466.7,377.8559,1.0,378.8439,0.0,22.0,22.0,0.0,1.0,0.8,0.3,Time
,,S07,1,Female,27,anonymized,Serial_Dependence_U,2023.2.3,Win32,60.24096386,,,,,,,,,,,,378.8457,0.0,378.8462,,,,381.9862,382.477,381.471,381.986,379.8686,306.0,381.4707,382.4771,382.9839,382.984,388.9945,9999.0,388.9948,0.0,389.9933,0.0,23.0,23.0,19.0,1.0,1.6,0.7,Time
,,S07,1,Female,27,anonymized,Serial_Dependence_U,2023.2.3,Win32,60.24096386,,,,,,,,,,,,389.9944,0.0,389.9951,,,,392.343,392.8431,391.8264,392.3429,391.0129,329.0,391.8263,392.8432,393.3431,393.3431,395.2522,1615.7,395.2525,5.0,396.2433,0.0,24.0,24.0,25.0,1.0,0.8,0.7,Time
,,S07,1,Female,27,anonymized,Serial_Dependence_U,2023.2.3,Win32,60.24096386,,,,,,,,,,,,396.2452,0.0,396.2457,,,,398.976,399.4764,398.4606,398.976,397.2534,175.0,398.4604,399.4766,399.9763,399.9764,401.9764,983.3,401.9768,2.0,402.9758,0.0,25.0,25.0,7.0,1.0,1.2,0.7,Time
,,S07,1,Female,27,anonymized,Serial_Dependence_U,2023.2.3,Win32,60.24096386,,,,,,,,,,,,402.9773,0.0,402.978,,,,405.9182,406.4144,405.4006,405.9181,403.9844,357.0,405.4005,406.4145,406.9101,406.9104,409.0255,2019.2,409.0257,5.0,410.0258,0.0,26.0,26.0,8.0,1.0,1.4,0.7,Time
,,S07,1,Female,27,anonymized,Serial_Dependence_U,2023.2.3,Win32,60.24096386,,,,,,,,,,,,410.0271,0.0,410.0276,,,,412.5769,413.0758,412.0601,412.5766,411.0439,290.0,412.0599,413.0759,413.5757,413.5758,417.893,1699.2,417.8936,5.0,418.8917,0.0,27.0,27.0,11.0,1.0,1.0,0.3,Time
,,S07,1,Female,27,anonymized,Serial_Dependence_U,2023.2.3,Win32,60.24096386,,,,,,,,,,,,418.8932,0.0,418.8939,,,,421.6252,422.1252,421.1102,421.6249,419.9084,1.0,421.1099,422.1252,422.6251,422.6252,424.0178,1066.1,424.0181,2.0,425.009,0.0,28.0,28.0,22.0,1.0,1.2,0.3,Time
,,S07,1,Female,27,anonymized,Serial_Dependence_U,2023.2.3,Win32,60.24096386,,,,,,,,,,,,425.0107,0.0,425.0115,,,,427.3585,427.8579,426.8419,427.3583,426.0259,216.0,426.8418,427.8581,428.3579,428.3581,429.7409,731.4,429.7411,2.0,430.7406,0.0,29.0,29.0,10.0,1.0,0.8,0.3,Time
,,S07,1,Female,27,anonymized,Serial_Dependence_U,2023.2.3,Win32,60.24096386,,,,,,,,,,,,430.7414,1.0,438.9242,s,8.1602,,441.6752,442.1737,441.1578,441.6751,439.9418,51.0,441.1577,442.1739,442.6739,442.6739,444.6658,1382.7,444.666,4.0,445.6564,1.0,0.0,30.0,22.0,1.0,1.2,0.3,Time
,,S07,1,Female,27,anonymized,Serial_Dependence_U,2023.2.3,Win32,60.24096386,,,,,,,,,,,,445.6568,1.0,445.6596,,,,448.2077,448.7062,447.6905,448.2076,446.674,183.0,447.6904,448.7063,449.2069,449.207,451.4005,899.4,451.4008,2.0,452.3901,1.0,1.0,31.0,16.0,1.0,1.0,0.7,Time
,,S07,1,Female,27,anonymized,Serial_Dependence_U,2023.2.3,Win32,60.24096386,,,,,,,,,,,,452.3914,1.0,452.3922,,,,454.7325,455.2235,454.2167,454.7323,453.4065,1.0,454.2164,455.2236,455.7229,455.723,457.4495,898.9,457.4498,4.0,458.4397,1.0,2.0,32.0,0.0,1.0,0.8,0.3,Time
,,S07,1,Female,27,anonymized,Serial_Dependence_U,2023.2.3,Win32,60.24096386,,,,,,,,,,,,458.4409,1.0,458.4414,,,,461.3669,461.8565,460.8505,461.3667,459.4452,203.0,460.8504,461.8566,462.3474,462.3475,463.4893,861.0,463.4894,1.0,464.4895,1.0,3.0,33.0,23.0,1.0,1.4,0.3,Time
,,S07,1,Female,27,anonymized,Serial_Dependence_U,2023.2.3,Win32,60.24096386,,,,,,,,,,,,464.4906,1.0,464.4912,,,,467.4391,467.9391,466.9242,467.439,465.506,331.0,466.924,467.9393,468.4392,468.4393,469.4834,738.5,469.4838,1.0,470.4725,1.0,4.0,34.0,18.0,1.0,1.4,0.7,Time
,,S07,1,Female,27,anonymized,Serial_Dependence_U,2023.2.3,Win32,60.24096386,,,,,,,,,,,,470.4744,1.0,470.4749,,,,472.8222,473.3222,472.3055,472.8221,471.4889,188.0,472.3053,473.3224,473.8222,473.8224,475.8666,971.0,475.8671,4.0,476.8554,1.0,5.0,35.0,20.0,1.0,0.8,0.3,Time
,,S07,1,Female,27,anonymized,Serial_Dependence_U,2023.2.3,Win32,60.24096386,,,,,,,,,,,,476.8566,1.0,476.8572,,,,479.1988,479.6886,478.6822,479.1985,477.8655,296.0,478.6821,479.6887,480.1889,480.1892,481.456,865.2,481.4564,4.0,482.4553,1.0,6.0,36.0,25.0,1.0,0.8,0.7,Time
,,S07,1,Female,27,anonymized,Serial_Dependence_U,2023.2.3,Win32,60.24096386,,,,,,,,,,,,482.4562,1.0,482.4569,,,,485.5882,486.0879,485.0819,485.5882,483.4645,21.0,485.0818,486.0879,486.5883,486.5883,487.6046,999.4,487.6048,1.0,488.6054,1.0,7.0,37.0,4.0,1.0,1.6,0.3,Time
,,S07,1,Female,27,anonymized,Serial_Dependence_U,2023.2.3,Win32,60.24096386,,,,,,,,,,,,488.6071,1.0,488.6083,,,,491.7481,492.2382,491.2393,491.7479,489.623,228.0,491.239,492.2384,492.7278,492.7278,493.8821,1084.3,493.8823,1.0,494.8716,1.0,8.0,38.0,19.0,1.0,1.6,0.7,Time
,,S07,1,Female,27,anonymized,Serial_Dependence_U,2023.2.3,Win32,60.24096386,,,,,,,,,,,,494.8733,1.0,494.8739,,,,497.4148,497.911,496.9056,497.4144,495.8882,103.0,496.9055,497.9112,498.4075,498.4076,499.4972,750.2,499.4975,2.0,500.4875,1.0,9.0,39.0,21.0,1.0,1.0,0.3,Time
,,S07,1,Female,27,anonymized,Serial_Dependence_U,2023.2.3,Win32,60.24096386,,,,,,,,,,,,500.4886,1.0,500.4892,,,,503.6134,504.1036,503.1048,503.6133,501.498,231.0,503.1044,504.1037,504.604,504.6042,508.0877,1882.4,508.0879,4.0,509.087,1.0,10.0,40.0,29.0,1.0,1.6,0.7,Time
,,S07,1,Female,27,anonymized,Serial_Dependence_U,2023.2.3,Win32,60.24096386,,,,,,,,,,,,509.0882,1.0,509.0888,,,,511.6309,512.1206,511.1141,511.6307,510.0974,113.0,511.114,512.1207,512.6211,512.6214,514.521,899.9,514.5214,2.0,515.5202,1.0,11.0,41.0,1.0,1.0,1.0,0.3,Time
,,S07,1,Female,27,anonymized,Serial_Dependence_U,2023.2.3,Win32,60.24096386,,,,,,,,,,,,515.5212,1.0,515.5219,,,,518.2616,518.7611,517.747,518.2616,516.529,63.0,517.7468,518.7611,519.2538,519.2541,521.2643,1633.9,521.2647,5.0,522.2531,1.0,12.0,42.0,2.0,1.0,1.2,0.3,Time
,,S07,1,Female,27,anonymized,Serial_Dependence_U,2023.2.3,Win32,60.24096386,,,,,,,,,,,,522.2543,1.0,522.2548,,,,525.1779,525.6698,524.6708,525.1778,523.2621,151.0,524.6703,525.6699,526.1702,526.1705,528.9634,2034.3,528.9638,5.0,529.9529,1.0,13.0,43.0,3.0,1.0,1.4,0.3,Time
,,S07,1,Female,27,anonymized,Serial_Dependence_U,2023.2.3,Win32,60.24096386,,,,,,,,,,,,529.9548,1.0,529.9559,,,,532.8779,533.3695,532.37,532.8778,530.9525,33.0,532.3698,533.3696,533.8728,533.8729,535.6948,1432.0,535.695,3.0,536.6856,1.0,14.0,44.0,8.0,1.0,1.4,0.7,Time
,,S07,1,Female,27,anonymized,Serial_Dependence_U,2023.2.3,Win32,60.24096386,,,,,,,,,,,,536.6867,1.0,536.6874,,,,539.2129,539.7057,538.7106,539.2127,537.695,191.0,538.7104,539.7059,540.2026,540.2028,541.6963,1104.8,541.6967,4.0,542.6855,1.0,15.0,45.0,11.0,1.0,1.0,0.3,Time
,,S07,1,Female,27,anonymized,Serial_Dependence_U,2023.2.3,Win32,60.24096386,,,,,,,,,,,,542.6873,1.0,542.688,,,,545.2191,545.7186,544.7182,545.219,543.7018,183.0,544.7182,545.7186,546.2183,546.2184,547.979,1499.5,547.9793,5.0,548.9688,1.0,16.0,46.0,26.0,1.0,1.0,0.7,Time
,,S07,1,Female,27,anonymized,Serial_Dependence_U,2023.2.3,Win32,60.24096386,,,,,,,,,,,,548.9704,1.0,548.9709,,,,551.7021,552.2013,551.186,551.7019,549.9849,358.0,551.1858,552.2013,552.7007,552.7007,554.7515,1663.2,554.7518,5.0,555.7514,1.0,17.0,47.0,12.0,1.0,1.2,0.3,Time
,,S07,1,Female,27,anonymized,Serial_Dependence_U,2023.2.3,Win32,60.24096386,,,,,,,,,,,,555.7525,1.0,555.7532,,,,558.6844,559.1843,558.1693,558.6842,556.7677,186.0,558.1691,559.1843,559.6837,559.6838,562.0844,1630.5,562.0848,4.0,563.0843,1.0,18.0,48.0,28.0,1.0,1.4,0.7,Time
,,S07,1,Female,27,anonymized,Serial_Dependence_U,2023.2.3,Win32,60.24096386,,,,,,,,,,,,563.0855,1.0,563.086,,,,565.8173,566.3173,565.3113,565.8173,564.0944,73.0,565.311,566.3174,566.8174,566.8174,569.0513,1853.7,569.0518,5.0,570.0507,1.0,19.0,49.0,27.0,1.0,1.2,0.7,Time
,,S07,1,Female,27,anonymized,Serial_Dependence_U,2023.2.3,Win32,60.24096386,,,,,,,,,,,,570.0517,1.0,570.0524,,,,573.1852,573.6829,572.6685,573.1851,571.0672,35.0,572.6683,573.6829,574.1837,574.1838,576.0506,1692.8,576.0509,4.0,577.0507,1.0,20.0,50.0,24.0,1.0,1.6,0.3,Time
,,S07,1,Female,27,anonymized,Serial_Dependence_U,2023.2.3,Win32,60.24096386,,,,,,,,,,,,577.0522,1.0,577.0528,,,,580.0001,580.5001,579.4835,580.0,578.0681,30.0,579.4834,580.5001,581.0001,581.0001,583.2857,1805.7,583.286,4.0,584.2832,1.0,21.0,51.0,13.0,1.0,1.4,0.3,Time
,,S07,1,Female,27,anonymized,Serial_Dependence_U,2023.2.3,Win32,60.24096386,,,,,,,,,,,,584.2842,1.0,584.2848,,,,587.0095,587.4997,586.5031,587.0094,585.2969,320.0,586.5029,587.4998,588.0002,588.0005,590.1337,1535.4,590.134,4.0,591.133,1.0,22.0,52.0,7.0,1.0,1.2,0.7,Time
,,S07,1,Female,27,anonymized,Serial_Dependence_U,2023.2.3,Win32,60.24096386,,,,,,,,,,,,591.1341,1.0,591.1347,,,,593.6751,594.1663,593.1598,593.6749,592.1452,317.0,593.1596,594.1664,594.6572,594.6573,596.1597,1230.1,596.16,4.0,597.149,1.0,23.0,53.0,6.0,1.0,1.0,0.7,Time
,,S07,1,Female,27,anonymized,Serial_Dependence_U,2023.2.3,Win32,60.24096386,,,,,,,,,,,,597.1508,1.0,597.1515,,,,600.2749,600.7658,599.7723,600.2748,598.1685,98.0,599.772,600.766,601.2566,601.2567,603.5491,1835.0,603.5493,4.0,604.5488,1.0,24.0,54.0,14.0,1.0,1.6,0.3,Time
,,S07,1,Female,27,anonymized,Serial_Dependence_U,2023.2.3,Win32,60.24096386,,,,,,,,,,,,604.5501,1.0,604.5508,,,,606.876,607.3687,606.3669,606.8759,605.5653,228.0,606.3667,607.3687,607.8736,607.8737,609.5428,1252.1,609.5432,5.0,610.5319,1.0,25.0,55.0,5.0,1.0,0.8,0.7,Time
,,S07,1,Female,27,anonymized,Serial_Dependence_U,2023.2.3,Win32,60.24096386,,,,,,,,,,,,610.5329,1.0,610.5336,,,,612.8746,613.3653,612.3586,612.8744,611.5498,220.0,612.3584,613.3655,613.8655,613.8656,615.4822,1319.9,615.4827,5.0,616.4814,1.0,26.0,56.0,15.0,1.0,0.8,0.7,Time
,,S07,1,Female,27,anonymized,Serial_Dependence_U,2023.2.3,Win32,60.24096386,,,,,,,,,,,,616.4824,1.0,616.483,,,,618.792,619.2816,618.2885,618.7919,617.486,73.0,618.2884,619.2817,619.7732,619.7733,620.5482,756.2,620.5487,2.0,621.5483,1.0,27.0,57.0,10.0,1.0,0.8,0.3,Time
,,S07,1,Female,27,anonymized,Serial_Dependence_U,2023.2.3,Win32,60.24096386,,,,,,,,,,,,621.5502,1.0,621.5507,,,,624.2744,624.7646,623.7584,624.2742,622.5554,202.0,623.7583,624.7648,625.256,625.2562,626.448,817.4,626.4482,1.0,627.4475,1.0,28.0,58.0,17.0,1.0,1.2,0.7,Time
,,S07,1,Female,27,anonymized,Serial_Dependence_U,2023.2.3,Win32,60.24096386,,,,,,,,,,,,627.4486,1.0,627.4494,,,,630.5818,631.0806,630.0656,630.5816,628.4582,97.0,630.0652,631.0808,631.5809,631.581,633.481,1547.2,633.4815,3.0,634.4805,1.0,29.0,59.0,9.0,1.0,1.6,0.7,Time
,,S07,1,Female,27,anonymized,Serial_Dependence_U,2023.2.3,Win32,60.24096386,,,,,,,,,,,,634.4817,2.0,637.039,s,2.5323,,639.3636,639.8636,638.8573,639.3635,638.041,239.0,638.8571,639.8637,640.3636,640.3636,642.8246,792.3,642.8251,3.0,643.8138,2.0,0.0,60.0,10.0,1.0,0.8,0.3,Time
,,S07,1,Female,27,anonymized,Serial_Dependence_U,2023.2.3,Win32,60.24096386,,,,,,,,,,,,643.8157,2.0,643.8185,,,,646.1388,646.6374,645.6361,646.1387,644.8241,256.0,645.6358,646.6376,647.1372,647.1373,647.7904,596.8,647.7906,2.0,648.7799,2.0,1.0,61.0,0.0,1.0,0.8,0.3,Time
,,S07,1,Female,27,anonymized,Serial_Dependence_U,2023.2.3,Win32,60.24096386,,,,,,,,,,,,648.781,2.0,648.7816,,,,651.907,652.3965,651.4044,651.9068,649.7978,23.0,651.4042,652.3966,652.8967,652.8969,654.3465,1215.0,654.3468,2.0,655.3462,2.0,2.0,62.0,4.0,1.0,1.6,0.3,Time
,,S07,1,Female,27,anonymized,Serial_Dependence_U,2023.2.3,Win32,60.24096386,,,,,,,,,,,,655.3473,2.0,655.348,,,,657.6726,658.1629,657.1641,657.6724,656.3565,349.0,657.164,658.163,658.6526,658.6527,659.6402,597.9,659.6405,2.0,660.6296,2.0,3.0,63.0,15.0,1.0,0.8,0.7,Time
,,S07,1,Female,27,anonymized,Serial_Dependence_U,2023.2.3,Win32,60.24096386,,,,,,,,,,,,660.6312,2.0,660.6319,,,,663.1705,663.662,662.655,663.1703,661.6399,46.0,662.6548,663.662,664.1533,664.1534,665.3301,700.9,665.3305,2.0,666.329,2.0,4.0,64.0,26.0,1.0,1.0,0.7,Time
,,S07,1,Female,27,anonymized,Serial_Dependence_U,2023.2.3,Win32,60.24096386,,,,,,,,,,,,666.3301,2.0,666.3306,,,,669.2468,669.7454,668.7456,669.2466,667.3375,343.0,668.7455,669.7454,670.2454,670.2454,671.6394,833.2,671.6397,1.0,672.6285,2.0,5.0,65.0,23.0,1.0,1.4,0.3,Time
,,S07,1,Female,27,anonymized,Serial_Dependence_U,2023.2.3,Win32,60.24096386,,,,,,,,,,,,672.6298,2.0,672.6308,,,,675.7804,676.2783,675.2634,675.7802,673.6454,49.0,675.2631,676.2784,676.7778,676.7778,678.395,1198.7,678.3954,2.0,679.4027,2.0,6.0,66.0,29.0,1.0,1.6,0.7,Time
,,S07,1,Female,27,anonymized,Serial_Dependence_U,2023.2.3,Win32,60.24096386,,,,,,,,,,,,679.404,2.0,679.4045,,,,682.3295,682.8279,681.8175,682.3292,680.4127,285.0,681.8171,682.828,683.3274,683.3275,685.2385,1482.9,685.2389,4.0,686.2284,2.0,7.0,67.0,8.0,1.0,1.4,0.7,Time
,,S07,1,Female,27,anonymized,Serial_Dependence_U,2023.2.3,Win32,60.24096386,,,,,,,,,,,,686.23,2.0,686.2305,,,,689.1548,689.6509,688.6463,689.1545,687.2361,319.0,688.6459,689.6509,690.1448,690.145,691.9623,1335.8,691.9626,3.0,692.9611,2.0,8.0,68.0,28.0,1.0,1.4,0.7,Time
,,S07,1,Female,27,anonymized,Serial_Dependence_U,2023.2.3,Win32,60.24096386,,,,,,,,,,,,692.9622,2.0,692.9628,,,,695.8865,696.3772,695.3824,695.8864,693.97,93.0,695.3821,696.3774,696.8683,696.8684,698.8222,1283.5,698.8226,2.0,699.8106,2.0,9.0,69.0,13.0,1.0,1.4,0.3,Time
,,S07,1,Female,27,anonymized,Serial_Dependence_U,2023.2.3,Win32,60.24096386,,,,,,,,,,,,699.8117,2.0,699.8123,,,,702.7619,703.2604,702.2452,702.7617,700.8277,317.0,702.245,703.2605,703.7604,703.7604,705.4713,1256.7,705.4717,2.0,706.4603,2.0,10.0,70.0,18.0,1.0,1.4,0.7,Time
,,S07,1,Female,27,anonymized,Serial_Dependence_U,2023.2.3,Win32,60.24096386,,,,,,,,,,,,706.4622,2.0,706.4628,,,,709.1933,709.6933,708.678,709.1932,707.4766,88.0,708.6778,709.6933,710.1933,710.1934,711.9537,1316.1,711.954,4.0,712.9432,2.0,11.0,71.0,22.0,1.0,1.2,0.3,Time
,,S07,1,Female,27,anonymized,Serial_Dependence_U,2023.2.3,Win32,60.24096386,,,,,,,,,,,,712.9443,2.0,712.9454,,,,715.6679,716.1599,715.161,715.6678,713.9537,136.0,715.1609,716.16,716.6664,716.6665,718.3373,1485.4,718.3377,4.0,719.334,2.0,12.0,72.0,27.0,1.0,1.2,0.7,Time
,,S07,1,Female,27,anonymized,Serial_Dependence_U,2023.2.3,Win32,60.24096386,,,,,,,,,,,,719.3352,2.0,719.3358,,,,721.8444,722.3426,721.3426,721.8442,720.3364,165.0,721.3425,722.3427,722.8426,722.8427,724.2259,929.2,724.2262,2.0,725.227,2.0,13.0,73.0,16.0,1.0,1.0,0.7,Time
,,S07,1,Female,27,anonymized,Serial_Dependence_U,2023.2.3,Win32,60.24096386,,,,,,,,,,,,725.2282,2.0,725.2288,,,,728.1594,728.6591,727.6517,728.1593,726.2363,301.0,727.6514,728.6592,729.159,729.1591,731.1697,1115.9,731.1702,2.0,732.1596,2.0,14.0,74.0,3.0,1.0,1.4,0.3,Time
,,S07,1,Female,27,anonymized,Serial_Dependence_U,2023.2.3,Win32,60.24096386,,,,,,,,,,,,732.1612,2.0,732.1618,,,,734.8692,735.359,734.36,734.8689,733.1587,22.0,734.3599,735.359,735.8496,735.8497,736.9258,650.7,736.9262,1.0,737.9252,2.0,15.0,75.0,2.0,1.0,1.2,0.3,Time
,,S07,1,Female,27,anonymized,Serial_Dependence_U,2023.2.3,Win32,60.24096386,,,,,,,,,,,,737.9261,2.0,737.9266,,,,740.6671,741.1585,740.153,740.667,738.9347,340.0,740.1529,741.1586,741.6661,741.6662,744.0251,1496.2,744.0252,4.0,745.025,2.0,16.0,76.0,17.0,1.0,1.2,0.7,Time
,,S07,1,Female,27,anonymized,Serial_Dependence_U,2023.2.3,Win32,60.24096386,,,,,,,,,,,,745.0261,2.0,745.0268,,,,747.36,747.8584,746.8449,747.3595,746.0351,185.0,746.8445,747.8584,748.3657,748.3658,749.9996,1231.6,749.9997,5.0,750.9988,2.0,17.0,77.0,25.0,1.0,0.8,0.7,Time
,,S07,1,Female,27,anonymized,Serial_Dependence_U,2023.2.3,Win32,60.24096386,,,,,,,,,,,,751.0,2.0,751.0005,,,,753.3168,753.8082,752.8093,753.3166,752.0079,316.0,752.8091,753.8083,754.3079,754.308,755.6088,767.1,755.6094,3.0,756.6072,2.0,18.0,78.0,20.0,1.0,0.8,0.3,Time
,,S07,1,Female,27,anonymized,Serial_Dependence_U,2023.2.3,Win32,60.24096386,,,,,,,,,,,,756.6079,2.0,756.6085,,,,759.1586,759.657,758.6418,759.1584,757.6247,95.0,758.6416,759.6571,760.1576,760.1577,761.5411,798.7,761.5417,2.0,762.5406,2.0,19.0,79.0,21.0,1.0,1.0,0.3,Time
,,S07,1,Female,27,anonymized,Serial_Dependence_U,2023.2.3,Win32,60.24096386,,,,,,,,,,,,762.5418,2.0,762.5425,,,,765.2736,765.7735,764.7587,765.2736,763.5512,310.0,764.7586,765.7735,766.2738,766.2739,767.7848,1038.3,767.7851,2.0,768.7739,2.0,20.0,80.0,12.0,1.0,1.2,0.3,Time
,,S07,1,Female,27,anonymized,Serial_Dependence_U,2023.2.3,Win32,60.24096386,,,,,,,,,,,,768.7754,2.0,768.7759,,,,771.9008,772.3905,771.3987,771.9007,769.7823,141.0,771.3986,772.3906,772.8908,772.891,775.04,1730.0,775.0403,4.0,776.0404,2.0,21.0,81.0,19.0,1.0,1.6,0.7,Time
,,S07,1,Female,27,anonymized,Serial_Dependence_U,2023.2.3,Win32,60.24096386,,,,,,,,,,,,776.0421,2.0,776.0427,,,,778.5834,779.0735,778.0666,778.583,777.049,91.0,778.0664,779.0736,779.5809,779.581,781.1578,931.5,781.1584,2.0,782.1563,2.0,22.0,82.0,11.0,1.0,1.0,0.3,Time
,,S07,1,Female,27,anonymized,Serial_Dependence_U,2023.2.3,Win32,60.24096386,,,,,,,,,,,,782.1573,2.0,782.158,,,,785.29,785.7894,784.7732,785.2899,783.1665,357.0,784.7731,785.7894,786.2894,786.2895,787.689,917.0,787.6892,1.0,788.6889,2.0,23.0,83.0,9.0,1.0,1.6,0.7,Time
,,S07,1,Female,27,anonymized,Serial_Dependence_U,2023.2.3,Win32,60.24096386,,,,,,,,,,,,788.6903,2.0,788.6908,,,,791.4389,791.9391,790.9226,791.4389,789.7057,209.0,790.9226,791.9392,792.4392,792.4393,793.6974,831.8,793.6976,1.0,794.6896,2.0,24.0,84.0,7.0,1.0,1.2,0.7,Time
,,S07,1,Female,27,anonymized,Serial_Dependence_U,2023.2.3,Win32,60.24096386,,,,,,,,,,,,794.6913,2.0,794.6918,,,,797.8234,798.3221,797.322,797.8233,795.7054,324.0,797.3219,798.3222,798.8221,798.8221,799.8149,483.5,799.8152,1.0,800.8083,2.0,25.0,85.0,24.0,1.0,1.6,0.3,Time
,,S07,1,Female,27,anonymized,Serial_Dependence_U,2023.2.3,Win32,60.24096386,,,,,,,,,,,,800.8091,2.0,800.8095,,,,803.3487,803.8462,802.831,803.3486,801.8257,224.0,802.8308,803.8463,804.3388,804.3389,807.3558,1366.8,807.3562,5.0,808.355,2.0,26.0,86.0,1.0,1.0,1.0,0.3,Time
,,S07,1,Female,27,anonymized,Serial_Dependence_U,2023.2.3,Win32,60.24096386,,,,,,,,,,,,808.3561,2.0,808.3567,,,,810.6963,811.1884,810.1809,810.6962,809.3639,97.0,810.1808,811.1884,811.6886,811.6887,813.1488,584.7,813.1492,2.0,814.1383,2.0,27.0,87.0,5.0,1.0,0.8,0.7,Time
,,S07,1,Female,27,anonymized,Serial_Dependence_U,2023.2.3,Win32,60.24096386,,,,,,,,,,,,814.1403,2.0,814.1408,,,,817.2646,817.7544,816.7553,817.2644,815.1482,288.0,816.755,817.7545,818.2546,818.2547,818.9322,533.6,818.9326,1.0,819.9209,2.0,28.0,88.0,14.0,1.0,1.6,0.3,Time
,,S07,1,Female,27,anonymized,Serial_Dependence_U,2023.2.3,Win32,60.24096386,,,,,,,,,,,,819.922,2.0,819.9226,,,,822.4547,822.9541,821.939,822.4545,820.9221,163.0,821.9389,822.9542,823.4541,823.4541,825.0705,896.0,825.0707,2.0,826.061,2.0,29.0,89.0,6.0,1.0,1.0,0.7,Time
,,S07,1,Female,27,anonymized,Serial_Dependence_U,2023.2.3,Win32,60.24096386,,,,,,,,,,,,826.0618,3.0,829.5126,s,3.4336,,831.8457,832.3373,831.33,831.8456,830.5129,152.0,831.33,832.3375,832.8375,832.8376,833.92,513.7,833.9201,1.0,834.9203,3.0,0.0,90.0,10.0,1.0,0.8,0.3,Time
,,S07,1,Female,27,anonymized,Serial_Dependence_U,2023.2.3,Win32,60.24096386,,,,,,,,,,,,834.9214,3.0,834.9253,,,,837.271,837.77,836.7534,837.2709,835.9379,36.0,836.7532,837.7701,838.2701,838.2702,839.0638,583.9,839.0642,2.0,840.0531,3.0,1.0,91.0,0.0,1.0,0.8,0.3,Time
,,S07,1,Female,27,anonymized,Serial_Dependence_U,2023.2.3,Win32,60.24096386,,,,,,,,,,,,840.0541,3.0,840.0547,,,,842.5877,843.0864,842.0864,842.5876,841.0712,131.0,842.0862,843.0864,843.5864,843.5865,845.2294,1102.5,845.2298,4.0,846.22,3.0,2.0,92.0,26.0,1.0,1.0,0.7,Time
,,S07,1,Female,27,anonymized,Serial_Dependence_U,2023.2.3,Win32,60.24096386,,,,,,,,,,,,846.2217,3.0,846.2221,,,,848.7456,849.2364,848.2374,848.7455,847.2361,161.0,848.2373,849.2364,849.7386,849.7386,850.9794,650.3,850.9796,1.0,851.9695,3.0,3.0,93.0,21.0,1.0,1.0,0.3,Time
,,S07,1,Female,27,anonymized,Serial_Dependence_U,2023.2.3,Win32,60.24096386,,,,,,,,,,,,851.9712,3.0,851.9716,,,,854.5024,855.0025,853.9858,854.5024,852.9698,214.0,853.9856,855.0026,855.5025,855.5026,856.2951,698.4,856.2953,1.0,857.2862,3.0,4.0,94.0,1.0,1.0,1.0,0.3,Time
,,S07,1,Female,27,anonymized,Serial_Dependence_U,2023.2.3,Win32,60.24096386,,,,,,,,,,,,857.2879,3.0,857.2885,,,,859.8128,860.3021,859.3035,859.8126,858.3024,281.0,859.3034,860.3023,860.7933,860.7934,861.9684,698.1,861.9687,1.0,862.9689,3.0,5.0,95.0,6.0,1.0,1.0,0.7,Time
,,S07,1,Female,27,anonymized,Serial_Dependence_U,2023.2.3,Win32,60.24096386,,,,,,,,,,,,862.9703,3.0,862.9714,,,,865.9018,866.4018,865.3851,865.9018,863.9765,27.0,865.385,866.4019,866.9019,866.902,868.5459,1166.8,868.5463,2.0,869.5351,3.0,6.0,96.0,28.0,1.0,1.4,0.7,Time
,,S07,1,Female,27,anonymized,Serial_Dependence_U,2023.2.3,Win32,60.24096386,,,,,,,,,,,,869.5361,3.0,869.5367,,,,872.2695,872.768,871.7683,872.2693,870.5515,128.0,871.7682,872.7681,873.2682,873.2682,875.3684,1280.3,875.3689,4.0,876.3756,3.0,7.0,97.0,12.0,1.0,1.2,0.3,Time
,,S07,1,Female,27,anonymized,Serial_Dependence_U,2023.2.3,Win32,60.24096386,,,,,,,,,,,,876.3768,3.0,876.3775,,,,879.5037,880.0012,878.9937,879.5034,877.3787,177.0,878.9935,880.0013,880.4916,880.4916,882.2451,1166.7,882.2455,2.0,883.2344,3.0,8.0,98.0,29.0,1.0,1.6,0.7,Time
,,S07,1,Female,27,anonymized,Serial_Dependence_U,2023.2.3,Win32,60.24096386,,,,,,,,,,,,883.2356,3.0,883.2361,,,,886.3611,886.8503,885.852,886.3607,884.2447,119.0,885.8515,886.8504,887.3508,887.3508,889.1947,1349.6,889.195,2.0,890.1843,3.0,9.0,99.0,4.0,1.0,1.6,0.3,Time
,,S07,1,Female,27,anonymized,Serial_Dependence_U,2023.2.3,Win32,60.24096386,,,,,,,,,,,,890.1862,3.0,890.1866,,,,893.1111,893.6006,892.6054,893.111,891.1932,100.0,892.6052,893.6007,894.0904,894.0905,895.4777,1367.0,895.4782,3.0,896.4671,3.0,10.0,100.0,23.0,1.0,1.4,0.3,Time
,,S07,1,Female,27,anonymized,Serial_Dependence_U,2023.2.3,Win32,60.24096386,,,,,,,,,,,,896.4682,3.0,896.4688,,,,898.7926,899.2906,898.2773,898.7925,897.4754,182.0,898.2772,899.2907,899.7912,899.7913,901.0106,817.1,901.0109,3.0,902.0004,3.0,11.0,101.0,5.0,1.0,0.8,0.7,Time
,,S07,1,Female,27,anonymized,Serial_Dependence_U,2023.2.3,Win32,60.24096386,,,,,,,,,,,,902.0022,3.0,902.0028,,,,905.1331,905.6332,904.6182,905.133,903.0165,115.0,904.618,905.6334,906.1332,906.1333,908.2004,1699.9,908.2007,4.0,909.1997,3.0,12.0,102.0,9.0,1.0,1.6,0.7,Time
,,S07,1,Female,27,anonymized,Serial_Dependence_U,2023.2.3,Win32,60.24096386,,,,,,,,,,,,909.2009,3.0,909.2016,,,,911.9221,912.4166,911.4176,911.922,910.2162,358.0,911.4175,912.4169,912.9239,912.924,914.176,999.1,914.1762,2.0,915.1661,3.0,13.0,103.0,7.0,1.0,1.2,0.7,Time
,,S07,1,Female,27,anonymized,Serial_Dependence_U,2023.2.3,Win32,60.24096386,,,,,,,,,,,,915.1673,3.0,915.1678,,,,917.5005,917.9991,916.9925,917.5002,916.1765,322.0,916.9922,917.9993,918.4992,918.4993,919.4602,946.3,919.4606,4.0,920.4495,3.0,14.0,104.0,15.0,1.0,0.8,0.7,Time
,,S07,1,Female,27,anonymized,Serial_Dependence_U,2023.2.3,Win32,60.24096386,,,,,,,,,,,,920.4514,3.0,920.452,,,,923.5828,924.0821,923.0671,923.5827,921.4656,78.0,923.0669,924.0823,924.5821,924.5822,927.0325,1982.2,927.0329,4.0,928.0323,3.0,15.0,105.0,19.0,1.0,1.6,0.7,Time
,,S07,1,Female,27,anonymized,Serial_Dependence_U,2023.2.3,Win32,60.24096386,,,,,,,,,,,,928.0334,3.0,928.0341,,,,930.7833,931.282,930.2664,930.7831,929.0495,340.0,930.266,931.2821,931.7819,931.782,933.1153,884.4,933.1155,2.0,934.1151,3.0,16.0,106.0,27.0,1.0,1.2,0.7,Time
,,S07,1,Female,27,anonymized,Serial_Dependence_U,2023.2.3,Win32,60.24096386,,,,,,,,,,,,934.1161,3.0,934.1166,,,,936.4648,936.9642,935.9495,936.4648,935.1324,169.0,935.9494,936.9642,937.465,937.4651,938.0757,150.1,938.076,1.0,939.0648,3.0,17.0,107.0,25.0,1.0,0.8,0.7,Time
,,S07,1,Female,27,anonymized,Serial_Dependence_U,2023.2.3,Win32,60.24096386,,,,,,,,,,,,939.0659,3.0,939.0664,,,,942.1992,942.6979,941.6978,942.1991,940.0813,69.0,941.6977,942.6979,943.1978,943.1979,945.6568,1431.9,945.657,2.0,946.6504,3.0,18.0,108.0,14.0,1.0,1.6,0.3,Time
,,S07,1,Female,27,anonymized,Serial_Dependence_U,2023.2.3,Win32,60.24096386,,,,,,,,,,,,946.651,3.0,946.6513,,,,948.9747,949.4641,948.4727,948.9745,947.658,21.0,948.4725,949.4642,949.9556,949.9557,950.8415,866.1,950.8418,4.0,951.831,3.0,19.0,109.0,20.0,1.0,0.8,0.3,Time
,,S07,1,Female,27,anonymized,Serial_Dependence_U,2023.2.3,Win32,60.24096386,,,,,,,,,,,,951.832,3.0,951.8327,,,,954.7579,955.2476,954.2411,954.7577,952.8399,208.0,954.241,955.2477,955.7381,955.7382,957.341,1050.4,957.3412,2.0,958.3308,3.0,20.0,110.0,18.0,1.0,1.4,0.7,Time
,,S07,1,Female,27,anonymized,Serial_Dependence_U,2023.2.3,Win32,60.24096386,,,,,,,,,,,,958.3325,3.0,958.3331,,,,961.2635,961.7635,960.7482,961.2634,959.332,145.0,960.748,961.7636,962.2629,962.2629,963.631,900.4,963.6314,1.0,964.6302,3.0,21.0,111.0,13.0,1.0,1.4,0.3,Time
,,S07,1,Female,27,anonymized,Serial_Dependence_U,2023.2.3,Win32,60.24096386,,,,,,,,,,,,964.6314,3.0,964.632,,,,967.1666,967.6635,966.6544,967.1664,965.6361,36.0,966.6543,967.6636,968.1714,968.1715,969.3233,701.0,969.3236,2.0,970.3134,3.0,22.0,112.0,11.0,1.0,1.0,0.3,Time
,,S07,1,Female,27,anonymized,Serial_Dependence_U,2023.2.3,Win32,60.24096386,,,,,,,,,,,,970.3152,3.0,970.3158,,,,973.0647,973.563,972.5478,973.0644,971.3311,278.0,972.5475,973.563,974.0633,974.0634,975.9129,780.8,975.9134,1.0,976.9122,3.0,23.0,113.0,2.0,1.0,1.2,0.3,Time
,,S07,1,Female,27,anonymized,Serial_Dependence_U,2023.2.3,Win32,60.24096386,,,,,,,,,,,,976.9126,3.0,976.9128,,,,979.6404,980.1296,979.1389,979.6402,977.9225,63.0,979.1388,980.1297,980.6298,980.6299,982.8627,1798.0,982.8631,5.0,983.8705,3.0,24.0,114.0,17.0,1.0,1.2,0.7,Time
,,S07,1,Female,27,anonymized,Serial_Dependence_U,2023.2.3,Win32,60.24096386,,,,,,,,,,,,983.8717,3.0,983.8722,,,,986.4122,986.9122,985.8955,986.4121,984.879,151.0,985.8954,986.9124,987.4123,987.4123,988.5885,572.7,988.5888,1.0,989.579,3.0,25.0,115.0,16.0,1.0,1.0,0.7,Time
,,S07,1,Female,27,anonymized,Serial_Dependence_U,2023.2.3,Win32,60.24096386,,,,,,,,,,,,989.5801,3.0,989.5806,,,,992.3063,992.7956,991.789,992.3061,990.5804,283.0,991.7889,992.7957,993.2988,993.2989,994.6449,981.4,994.6452,2.0,995.6446,3.0,26.0,116.0,22.0,1.0,1.2,0.3,Time
,,S07,1,Female,27,anonymized,Serial_Dependence_U,2023.2.3,Win32,60.24096386,,,,,,,,,,,,995.645,3.0,995.6454,,,,998.7724,999.2624,998.2558,998.7722,996.651,273.0,998.2557,999.2627,999.7523,999.7523,1001.4392,1168.3,1001.4396,2.0,1002.4358,3.0,27.0,117.0,24.0,1.0,1.6,0.3,Time
,,S07,1,Female,27,anonymized,Serial_Dependence_U,2023.2.3,Win32,60.24096386,,,,,,,,,,,,1002.437,3.0,1002.4376,,,,1005.3704,1005.861,1004.8555,1005.3703,1003.4541,249.0,1004.8553,1005.8611,1006.3614,1006.3615,1007.7114,896.9,1007.7117,1.0,1008.7109,3.0,28.0,118.0,3.0,1.0,1.4,0.3,Time
,,S07,1,Female,27,anonymized,Serial_Dependence_U,2023.2.3,Win32,60.24096386,,,,,,,,,,,,1008.712,3.0,1008.7127,,,,1011.6622,1012.1608,1011.145,1011.662,1009.7276,138.0,1011.1448,1012.161,1012.6609,1012.661,1014.8874,1748.6,1014.8876,4.0,1015.8775,3.0,29.0,119.0,8.0,1.0,1.4,0.7,Time
,,S07,1,Female,27,anonymized,Serial_Dependence_U,2023.2.3,Win32,60.24096386,,,,,,,,,,,,1015.879,4.0,1018.0947,s,2.183,,1020.4208,1020.9183,1019.9042,1020.4207,1019.0877,14.0,1019.904,1020.9184,1021.4172,1021.4172,1021.8887,183.6,1021.889,1.0,1022.8771,4.0,0.0,120.0,10.0,1.0,0.8,0.3,Time
,,S07,1,Female,27,anonymized,Serial_Dependence_U,2023.2.3,Win32,60.24096386,,,,,,,,,,,,1022.8782,4.0,1022.8821,,,,1025.8283,1026.3268,1025.3113,1025.8281,1023.8943,189.0,1025.311,1026.3268,1026.827,1026.827,1029.0941,1432.3,1029.0946,3.0,1030.0934,4.0,1.0,121.0,8.0,1.0,1.4,0.7,Time
,,S07,1,Female,27,anonymized,Serial_Dependence_U,2023.2.3,Win32,60.24096386,,,,,,,,,,,,1030.0945,4.0,1030.0951,,,,1032.6267,1033.1264,1032.1161,1032.6266,1031.1042,119.0,1032.1159,1033.1265,1033.6266,1033.6267,1035.6107,1303.2,1035.611,5.0,1036.6098,4.0,2.0,122.0,26.0,1.0,1.0,0.7,Time
,,S07,1,Female,27,anonymized,Serial_Dependence_U,2023.2.3,Win32,60.24096386,,,,,,,,,,,,1036.6109,4.0,1036.6114,,,,1039.3435,1039.8428,1038.8266,1039.3434,1037.6213,278.0,1038.8265,1039.8429,1040.3429,1040.3429,1041.8209,966.9,1041.8214,2.0,1042.8094,4.0,3.0,123.0,17.0,1.0,1.2,0.7,Time
,,S07,1,Female,27,anonymized,Serial_Dependence_U,2023.2.3,Win32,60.24096386,,,,,,,,,,,,1042.8106,4.0,1042.8111,,,,1045.1272,1045.6261,1044.6259,1045.127,1043.8102,87.0,1044.6257,1045.6262,1046.1253,1046.1253,1047.9424,1312.4,1047.9427,5.0,1048.9424,4.0,4.0,124.0,25.0,1.0,0.8,0.7,Time
,,S07,1,Female,27,anonymized,Serial_Dependence_U,2023.2.3,Win32,60.24096386,,,,,,,,,,,,1048.9435,4.0,1048.9441,,,,1051.2859,1051.7759,1050.7691,1051.2857,1049.9518,209.0,1050.769,1051.7759,1052.2761,1052.2763,1054.109,963.3,1054.1093,4.0,1055.1082,4.0,5.0,125.0,5.0,1.0,0.8,0.7,Time
,,S07,1,Female,27,anonymized,Serial_Dependence_U,2023.2.3,Win32,60.24096386,,,,,,,,,,,,1055.1086,4.0,1055.1088,,,,1057.6599,1058.1585,1057.1432,1057.6597,1056.1261,298.0,1057.143,1058.1587,1058.6585,1058.6587,1060.869,1533.1,1060.8693,5.0,1061.866,4.0,6.0,126.0,11.0,1.0,1.0,0.3,Time
,,S07,1,Female,27,anonymized,Serial_Dependence_U,2023.2.3,Win32,60.24096386,,,,,,,,,,,,1061.8672,4.0,1061.8678,,,,1064.5996,1065.0985,1064.0849,1064.5995,1062.8675,190.0,1064.0847,1065.0985,1065.595,1065.5951,1066.9591,653.4,1066.9595,1.0,1067.9583,4.0,7.0,127.0,27.0,1.0,1.2,0.7,Time
,,S07,1,Female,27,anonymized,Serial_Dependence_U,2023.2.3,Win32,60.24096386,,,,,,,,,,,,1067.9593,4.0,1067.9599,,,,1071.0998,1071.6005,1070.5836,1071.0997,1068.9684,69.0,1070.5835,1071.6007,1072.0912,1072.0913,1073.852,1134.0,1073.8523,2.0,1074.8485,4.0,8.0,128.0,29.0,1.0,1.6,0.7,Time
,,S07,1,Female,27,anonymized,Serial_Dependence_U,2023.2.3,Win32,60.24096386,,,,,,,,,,,,1074.8498,4.0,1074.8504,,,,1077.1686,1077.6579,1076.6603,1077.1684,1075.8486,84.0,1076.6598,1077.658,1078.1633,1078.1635,1079.5685,800.7,1079.5688,3.0,1080.5579,4.0,9.0,129.0,0.0,1.0,0.8,0.3,Time
,,S07,1,Female,27,anonymized,Serial_Dependence_U,2023.2.3,Win32,60.24096386,,,,,,,,,,,,1080.5595,4.0,1080.5601,,,,1083.0755,1083.5741,1082.5591,1083.0753,1081.5514,203.0,1082.5588,1083.5742,1084.0743,1084.0745,1085.624,1098.7,1085.6244,4.0,1086.6239,4.0,10.0,130.0,1.0,1.0,1.0,0.3,Time
,,S07,1,Female,27,anonymized,Serial_Dependence_U,2023.2.3,Win32,60.24096386,,,,,,,,,,,,1086.6251,4.0,1086.6256,,,,1089.5662,1090.0572,1089.0509,1089.566,1087.6346,116.0,1089.0506,1090.0574,1090.5573,1090.5575,1092.2755,1085.3,1092.2759,2.0,1093.2648,4.0,11.0,131.0,13.0,1.0,1.4,0.3,Time
,,S07,1,Female,27,anonymized,Serial_Dependence_U,2023.2.3,Win32,60.24096386,,,,,,,,,,,,1093.2658,4.0,1093.2664,,,,1096.2079,1096.7066,1095.6953,1096.2077,1094.2828,146.0,1095.6951,1096.7066,1097.2066,1097.2067,1098.8672,1166.1,1098.8675,2.0,1099.8641,4.0,12.0,132.0,28.0,1.0,1.4,0.7,Time
,,S07,1,Female,27,anonymized,Serial_Dependence_U,2023.2.3,Win32,60.24096386,,,,,,,,,,,,1099.8652,4.0,1099.8657,,,,1102.7786,1103.2729,1102.2745,1102.7785,1100.873,329.0,1102.2744,1103.273,1103.7732,1103.7734,1105.7403,1634.5,1105.7405,4.0,1106.7395,4.0,13.0,133.0,23.0,1.0,1.4,0.3,Time
,,S07,1,Female,27,anonymized,Serial_Dependence_U,2023.2.3,Win32,60.24096386,,,,,,,,,,,,1106.7406,4.0,1106.7412,,,,1109.6724,1110.1726,1109.1559,1109.6724,1107.7504,100.0,1109.1557,1110.1726,1110.6725,1110.6726,1111.8656,1067.0,1111.8658,2.0,1112.8627,4.0,14.0,134.0,18.0,1.0,1.4,0.7,Time
,,S07,1,Female,27,anonymized,Serial_Dependence_U,2023.2.3,Win32,60.24096386,,,,,,,,,,,,1112.8639,4.0,1112.8644,,,,1115.4067,1115.905,1114.8918,1115.4064,1113.8735,358.0,1114.8914,1115.905,1116.4058,1116.4059,1117.623,832.4,1117.6235,2.0,1118.6224,4.0,15.0,135.0,6.0,1.0,1.0,0.7,Time
,,S07,1,Female,27,anonymized,Serial_Dependence_U,2023.2.3,Win32,60.24096386,,,,,,,,,,,,1118.6233,4.0,1118.624,,,,1121.7721,1122.272,1121.2555,1121.7719,1119.6387,282.0,1121.2554,1122.2721,1122.7717,1122.7717,1124.0728,1003.3,1124.0734,1.0,1125.0718,4.0,16.0,136.0,4.0,1.0,1.6,0.3,Time
,,S07,1,Female,27,anonymized,Serial_Dependence_U,2023.2.3,Win32,60.24096386,,,,,,,,,,,,1125.0728,4.0,1125.0735,,,,1128.199,1128.6886,1127.6934,1128.1988,1126.0789,167.0,1127.693,1128.6887,1129.1801,1129.1802,1129.2712,42.19999999,1129.2714,1.0,1130.2713,4.0,17.0,137.0,19.0,1.0,1.6,0.7,Time
,,S07,1,Female,27,anonymized,Serial_Dependence_U,2023.2.3,Win32,60.24096386,,,,,,,,,,,,1130.2725,4.0,1130.2732,,,,1132.9982,1133.4881,1132.4893,1132.9981,1131.2801,262.0,1132.4891,1133.4881,1133.9956,1133.9957,1136.188,1285.6,1136.1884,4.0,1137.1959,4.0,18.0,138.0,22.0,1.0,1.2,0.3,Time
,,S07,1,Female,27,anonymized,Serial_Dependence_U,2023.2.3,Win32,60.24096386,,,,,,,,,,,,1137.1971,4.0,1137.1977,,,,1139.5303,1140.0212,1139.0222,1139.5302,1138.2057,208.0,1139.0221,1140.0212,1140.529,1140.5291,1142.0982,1513.4,1142.0985,5.0,1143.0876,4.0,19.0,139.0,20.0,1.0,0.8,0.3,Time
,,S07,1,Female,27,anonymized,Serial_Dependence_U,2023.2.3,Win32,60.24096386,,,,,,,,,,,,1143.0886,4.0,1143.0892,,,,1145.4224,1145.9206,1144.9053,1145.4222,1144.0981,246.0,1144.905,1145.9208,1146.4208,1146.421,1148.654,798.7,1148.6544,3.0,1149.6539,4.0,20.0,140.0,15.0,1.0,0.8,0.7,Time
,,S07,1,Female,27,anonymized,Serial_Dependence_U,2023.2.3,Win32,60.24096386,,,,,,,,,,,,1149.655,4.0,1149.6555,,,,1152.3796,1152.878,1151.8621,1152.3794,1150.6585,2.0,1151.862,1152.878,1153.3783,1153.3785,1154.854,601.1,1154.8545,1.0,1155.8538,4.0,21.0,141.0,12.0,1.0,1.2,0.3,Time
,,S07,1,Female,27,anonymized,Serial_Dependence_U,2023.2.3,Win32,60.24096386,,,,,,,,,,,,1155.8547,4.0,1155.8554,,,,1158.4044,1158.9036,1157.8878,1158.4042,1156.8709,27.0,1157.8875,1158.9036,1159.4035,1159.4036,1160.9038,1098.5,1160.9042,4.0,1161.9033,4.0,22.0,142.0,21.0,1.0,1.0,0.3,Time
,,S07,1,Female,27,anonymized,Serial_Dependence_U,2023.2.3,Win32,60.24096386,,,,,,,,,,,,1161.9044,4.0,1161.905,,,,1164.6303,1165.1272,1164.1281,1164.6301,1162.9123,178.0,1164.128,1165.1273,1165.6203,1165.6206,1166.7531,1059.9,1166.7534,2.0,1167.7531,4.0,23.0,143.0,7.0,1.0,1.2,0.7,Time
,,S07,1,Female,27,anonymized,Serial_Dependence_U,2023.2.3,Win32,60.24096386,,,,,,,,,,,,1167.7545,4.0,1167.7554,,,,1170.703,1171.2028,1170.1874,1170.7029,1168.7694,192.0,1170.1872,1171.2028,1171.7025,1171.7027,1176.5527,2598.7,1176.5531,5.0,1177.5593,4.0,24.0,144.0,3.0,1.0,1.4,0.3,Time
,,S07,1,Female,27,anonymized,Serial_Dependence_U,2023.2.3,Win32,60.24096386,,,,,,,,,,,,1177.5606,4.0,1177.5611,,,,1180.0957,1180.5859,1179.5783,1180.0955,1178.5706,264.0,1179.5782,1180.586,1181.0857,1181.0858,1182.9961,1382.8,1182.9965,5.0,1183.9858,4.0,25.0,145.0,16.0,1.0,1.0,0.7,Time
,,S07,1,Female,27,anonymized,Serial_Dependence_U,2023.2.3,Win32,60.24096386,,,,,,,,,,,,1183.9878,4.0,1183.9884,,,,1187.1199,1187.6186,1186.6087,1187.1197,1184.9952,229.0,1186.6085,1187.6186,1188.1185,1188.1187,1189.3961,750.5,1189.3964,1.0,1190.3854,4.0,26.0,146.0,24.0,1.0,1.6,0.3,Time
,,S07,1,Female,27,anonymized,Serial_Dependence_U,2023.2.3,Win32,60.24096386,,,,,,,,,,,,1190.3872,4.0,1190.3878,,,,1193.5286,1194.026,1193.0195,1193.5284,1191.4025,359.0,1193.0193,1194.0261,1194.5261,1194.5262,1196.9344,1912.3,1196.9346,4.0,1197.9346,4.0,27.0,147.0,14.0,1.0,1.6,0.3,Time
,,S07,1,Female,27,anonymized,Serial_Dependence_U,2023.2.3,Win32,60.24096386,,,,,,,,,,,,1197.9357,4.0,1197.9363,,,,1200.6651,1201.1713,1200.1451,1200.6649,1198.939,301.0,1200.1449,1201.1713,1201.668,1201.6682,1201.9847,231.0,1201.9851,1.0,1202.9883,4.0,28.0,148.0,2.0,1.0,1.2,0.3,Time
,,S07,1,Female,27,anonymized,Serial_Dependence_U,2023.2.3,Win32,60.24096386,,,,,,,,,,,,1202.9894,4.0,1202.99,,,,1206.1112,1206.6009,1205.6065,1206.111,1203.9941,302.0,1205.6062,1206.601,1207.1084,1207.1085,1209.2095,1549.7,1209.2097,3.0,1210.2009,4.0,29.0,149.0,9.0,1.0,1.6,0.7,Time
,,S07,1,Female,27,anonymized,Serial_Dependence_U,2023.2.3,Win32,60.24096386,,,,,,,,,,,,1210.2021,5.0,1212.9526,s,2.7198,,1215.678,1216.1674,1215.1694,1215.6778,1213.9643,15.0,1215.1691,1216.1675,1216.6674,1216.6676,1218.9669,1484.4,1218.9671,4.0,1219.9669,5.0,0.0,150.0,7.0,1.0,1.2,0.7,Time
,,S07,1,Female,27,anonymized,Serial_Dependence_U,2023.2.3,Win32,60.24096386,,,,,,,,,,,,1219.9679,5.0,1219.9719,,,,1223.1002,1223.6,1222.584,1223.1001,1220.9769,323.0,1222.5838,1223.6001,1224.1,1224.1002,1226.2829,1466.5,1226.283,2.0,1227.2903,5.0,1.0,151.0,4.0,1.0,1.6,0.3,Time
,,S07,1,Female,27,anonymized,Serial_Dependence_U,2023.2.3,Win32,60.24096386,,,,,,,,,,,,1227.2914,5.0,1227.292,,,,1230.0179,1230.5164,1229.5164,1230.0177,1228.2997,211.0,1229.5164,1230.5164,1231.0162,1231.0163,1233.0271,1549.2,1233.0276,4.0,1234.0163,5.0,2.0,152.0,27.0,1.0,1.2,0.7,Time
,,S07,1,Female,27,anonymized,Serial_Dependence_U,2023.2.3,Win32,60.24096386,,,,,,,,,,,,1234.0174,5.0,1234.0179,,,,1236.943,1237.4325,1236.4267,1236.9428,1235.0202,59.0,1236.4266,1237.4326,1237.9235,1237.9236,1239.1833,1066.0,1239.1839,2.0,1240.1824,5.0,3.0,153.0,3.0,1.0,1.4,0.3,Time
,,S07,1,Female,27,anonymized,Serial_Dependence_U,2023.2.3,Win32,60.24096386,,,,,,,,,,,,1240.1834,5.0,1240.184,,,,1243.1156,1243.6157,1242.6001,1243.1155,1241.1839,303.0,1242.5998,1243.6157,1244.1158,1244.1158,1246.3266,1802.4,1246.327,4.0,1247.3155,5.0,4.0,154.0,23.0,1.0,1.4,0.3,Time
,,S07,1,Female,27,anonymized,Serial_Dependence_U,2023.2.3,Win32,60.24096386,,,,,,,,,,,,1247.3167,5.0,1247.3172,,,,1250.4425,1250.9323,1249.9335,1250.4425,1248.3161,86.0,1249.9334,1250.9324,1251.4236,1251.4236,1253.4493,1349.4,1253.4498,2.0,1254.4485,5.0,5.0,155.0,14.0,1.0,1.6,0.3,Time
,,S07,1,Female,27,anonymized,Serial_Dependence_U,2023.2.3,Win32,60.24096386,,,,,,,,,,,,1254.4497,5.0,1254.4503,,,,1256.7929,1257.2819,1256.2754,1256.7928,1255.4589,61.0,1256.2751,1257.282,1257.789,1257.7891,1259.2651,1114.6,1259.2654,5.0,1260.2551,5.0,6.0,156.0,15.0,1.0,0.8,0.7,Time
,,S07,1,Female,27,anonymized,Serial_Dependence_U,2023.2.3,Win32,60.24096386,,,,,,,,,,,,1260.2557,5.0,1260.2558,,,,1262.7995,1263.2979,1262.2824,1262.7993,1261.2661,306.0,1262.2824,1263.298,1263.7979,1263.798,1265.4588,965.8,1265.4591,3.0,1266.4478,5.0,7.0,157.0,11.0,1.0,1.0,0.3,Time
,,S07,1,Female,27,anonymized,Serial_Dependence_U,2023.2.3,Win32,60.24096386,,,,,,,,,,,,1266.4489,5.0,1266.4494,,,,1269.1906,1269.681,1268.6745,1269.1904,1267.4578,233.0,1268.6743,1269.6811,1270.1719,1270.1719,1271.331,717.0,1271.3313,1.0,1272.331,5.0,8.0,158.0,22.0,1.0,1.2,0.3,Time
,,S07,1,Female,27,anonymized,Serial_Dependence_U,2023.2.3,Win32,60.24096386,,,,,,,,,,,,1272.332,5.0,1272.3327,,,,1275.0653,1275.5639,1274.5573,1275.0651,1273.341,204.0,1274.5572,1275.564,1276.0639,1276.064,1278.5084,1483.4,1278.5088,4.0,1279.4972,5.0,9.0,159.0,17.0,1.0,1.2,0.7,Time
,,S07,1,Female,27,anonymized,Serial_Dependence_U,2023.2.3,Win32,60.24096386,,,,,,,,,,,,1279.4983,5.0,1279.499,,,,1282.0337,1282.53,1281.5316,1282.0333,1280.5153,23.0,1281.5315,1282.53,1283.0304,1283.0305,1285.1465,1095.9,1285.1467,4.0,1286.1468,5.0,10.0,160.0,21.0,1.0,1.0,0.3,Time
,,S07,1,Female,27,anonymized,Serial_Dependence_U,2023.2.3,Win32,60.24096386,,,,,,,,,,,,1286.148,5.0,1286.1486,,,,1288.8813,1289.3796,1288.3719,1288.881,1287.1633,252.0,1288.3719,1289.3797,1289.8797,1289.8798,1291.0385,684.8,1291.0387,1.0,1292.0367,5.0,11.0,161.0,12.0,1.0,1.2,0.3,Time
,,S07,1,Female,27,anonymized,Serial_Dependence_U,2023.2.3,Win32,60.24096386,,,,,,,,,,,,1292.0373,5.0,1292.0376,,,,1295.1717,1295.6627,1294.6504,1295.1717,1293.0385,282.0,1294.6504,1295.6628,1296.1528,1296.1529,1298.3397,1466.2,1298.3399,2.0,1299.3295,5.0,12.0,162.0,24.0,1.0,1.6,0.3,Time
,,S07,1,Female,27,anonymized,Serial_Dependence_U,2023.2.3,Win32,60.24096386,,,,,,,,,,,,1299.3307,5.0,1299.3312,,,,1302.2732,1302.7629,1301.7551,1302.2731,1300.3401,226.0,1301.7549,1302.763,1303.2629,1303.263,1305.2791,1548.7,1305.2794,4.0,1306.2793,5.0,13.0,163.0,13.0,1.0,1.4,0.3,Time
,,S07,1,Female,27,anonymized,Serial_Dependence_U,2023.2.3,Win32,60.24096386,,,,,,,,,,,,1306.2813,5.0,1306.2818,,,,1309.0227,1309.5125,1308.5057,1309.0225,1307.2863,82.0,1308.5054,1309.5126,1310.0193,1310.0194,1312.2627,1652.3,1312.263,5.0,1313.262,5.0,14.0,164.0,2.0,1.0,1.2,0.3,Time
,,S07,1,Female,27,anonymized,Serial_Dependence_U,2023.2.3,Win32,60.24096386,,,,,,,,,,,,1313.2632,5.0,1313.2637,,,,1315.6134,1316.1118,1315.0959,1315.6132,1314.2785,118.0,1315.0957,1316.1119,1316.6119,1316.612,1318.2399,966.6,1318.2403,4.0,1319.2288,5.0,15.0,165.0,10.0,1.0,0.8,0.3,Time
,,S07,1,Female,27,anonymized,Serial_Dependence_U,2023.2.3,Win32,60.24096386,,,,,,,,,,,,1319.2305,5.0,1319.231,,,,1322.3721,1322.8614,1321.8554,1322.3719,1320.2389,33.0,1321.8552,1322.8615,1323.3692,1323.3693,1325.0611,1624.8,1325.0612,3.0,1326.0502,5.0,16.0,166.0,29.0,1.0,1.6,0.7,Time
,,S07,1,Female,27,anonymized,Serial_Dependence_U,2023.2.3,Win32,60.24096386,,,,,,,,,,,,1326.0513,5.0,1326.0519,,,,1328.9821,1329.4778,1328.479,1328.982,1327.0618,261.0,1328.4789,1329.4779,1329.9847,1329.9848,1332.0951,1634.7,1332.0954,4.0,1333.1022,5.0,17.0,167.0,8.0,1.0,1.4,0.7,Time
,,S07,1,Female,27,anonymized,Serial_Dependence_U,2023.2.3,Win32,60.24096386,,,,,,,,,,,,1333.1033,5.0,1333.1038,,,,1336.2363,1336.7278,1335.7216,1336.2362,1334.1049,351.0,1335.7214,1336.7279,1337.2347,1337.2349,1339.661,1729.7,1339.6613,4.0,1340.6606,5.0,18.0,168.0,9.0,1.0,1.6,0.7,Time
,,S07,1,Female,27,anonymized,Serial_Dependence_U,2023.2.3,Win32,60.24096386,,,,,,,,,,,,1340.6617,5.0,1340.6625,,,,1343.1938,1343.6939,1342.677,1343.1937,1341.6713,77.0,1342.6769,1343.6939,1344.1939,1344.1939,1345.9877,949.7,1345.9881,2.0,1346.977,5.0,19.0,169.0,1.0,1.0,1.0,0.3,Time
,,S07,1,Female,27,anonymized,Serial_Dependence_U,2023.2.3,Win32,60.24096386,,,,,,,,,,,,1346.978,5.0,1346.9786,,,,1349.2945,1349.7938,1348.7864,1349.2942,1347.9799,138.0,1348.7861,1349.7939,1350.301,1350.301,1352.4781,1234.9,1352.4784,5.0,1353.4842,5.0,20.0,170.0,25.0,1.0,0.8,0.7,Time
,,S07,1,Female,27,anonymized,Serial_Dependence_U,2023.2.3,Win32,60.24096386,,,,,,,,,,,,1353.4855,5.0,1353.4861,,,,1356.0034,1356.5007,1355.4866,1356.0033,1354.481,145.0,1355.4864,1356.5007,1357.0008,1357.0009,1358.7042,1068.1,1358.7046,4.0,1359.693,5.0,21.0,171.0,16.0,1.0,1.0,0.7,Time
,,S07,1,Female,27,anonymized,Serial_Dependence_U,2023.2.3,Win32,60.24096386,,,,,,,,,,,,1359.6941,5.0,1359.6946,,,,1362.8311,1363.3265,1362.3199,1362.8309,1360.7017,59.0,1362.3197,1363.3267,1363.8337,1363.8337,1365.8934,1713.8,1365.8938,4.0,1366.8925,5.0,22.0,172.0,19.0,1.0,1.6,0.7,Time
,,S07,1,Female,27,anonymized,Serial_Dependence_U,2023.2.3,Win32,60.24096386,,,,,,,,,,,,1366.8935,5.0,1366.894,,,,1369.2424,1369.742,1368.727,1369.2424,1367.9105,220.0,1368.7269,1369.7421,1370.2424,1370.2425,1371.3369,566.2,1371.3373,2.0,1372.3257,5.0,23.0,173.0,20.0,1.0,0.8,0.3,Time
,,S07,1,Female,27,anonymized,Serial_Dependence_U,2023.2.3,Win32,60.24096386,,,,,,,,,,,,1372.3268,5.0,1372.3274,,,,1374.6669,1375.1591,1374.1463,1374.6668,1373.3364,88.0,1374.1462,1375.1592,1375.6591,1375.6593,1377.4422,847.7,1377.4427,4.0,1378.4424,5.0,24.0,174.0,0.0,1.0,0.8,0.3,Time
,,S07,1,Female,27,anonymized,Serial_Dependence_U,2023.2.3,Win32,60.24096386,,,,,,,,,,,,1378.4442,5.0,1378.4448,,,,1381.3844,1381.8749,1380.8671,1381.3844,1379.4524,257.0,1380.867,1381.875,1382.3747,1382.3748,1384.0752,1167.8,1384.0754,2.0,1385.0745,5.0,25.0,175.0,28.0,1.0,1.4,0.7,Time
,,S07,1,Female,27,anonymized,Serial_Dependence_U,2023.2.3,Win32,60.24096386,,,,,,,,,,,,1385.0751,5.0,1385.0755,,,,1387.6016,1388.0913,1387.0939,1387.6015,1386.0925,325.0,1387.0937,1388.0914,1388.5829,1388.583,1390.5751,1321.4,1390.5756,5.0,1391.5742,5.0,26.0,176.0,6.0,1.0,1.0,0.7,Time
,,S07,1,Female,27,anonymized,Serial_Dependence_U,2023.2.3,Win32,60.24096386,,,,,,,,,,,,1391.5748,5.0,1391.5752,,,,1393.925,1394.4246,1393.4078,1393.9248,1392.592,278.0,1393.4077,1394.4247,1394.9239,1394.9239,1397.0754,1081.6,1397.0764,5.0,1398.0746,5.0,27.0,177.0,5.0,1.0,0.8,0.7,Time
,,S07,1,Female,27,anonymized,Serial_Dependence_U,2023.2.3,Win32,60.24096386,,,,,,,,,,,,1398.0757,5.0,1398.0763,,,,1401.026,1401.5244,1400.5086,1401.0258,1399.0926,160.0,1400.5085,1401.5244,1402.0243,1402.0244,1403.4909,1053.5,1403.4913,2.0,1404.4915,5.0,28.0,178.0,18.0,1.0,1.4,0.7,Time
,,S07,1,Female,27,anonymized,Serial_Dependence_U,2023.2.3,Win32,60.24096386,,,,,,,,,,,,1404.4933,5.0,1404.494,,,,1407.0174,1407.5076,1406.5153,1407.0173,1405.5089,223.0,1406.5151,1407.5077,1407.9993,1407.9993,1409.7747,1283.6,1409.775,4.0,1410.7648,5.0,29.0,179.0,26.0,1.0,1.0,0.7,Time
,,S07,1,Female,27,anonymized,Serial_Dependence_U,2023.2.3,Win32,60.24096386,,,,,,,,,,,,1410.7659,6.0,1413.6729,s,2.8773,,1416.207,1416.706,1415.6913,1416.207,1414.69,321.0,1415.6912,1416.7061,1417.2067,1417.2068,1418.3661,1021.3,1418.3663,3.0,1419.3644,6.0,0.0,180.0,16.0,1.0,1.0,0.7,Time
,,S07,1,Female,27,anonymized,Serial_Dependence_U,2023.2.3,Win32,60.24096386,,,,,,,,,,,,1419.3655,6.0,1419.3684,,,,1422.4832,1422.9733,1421.9666,1422.483,1420.3611,62.0,1421.9664,1422.9734,1423.4641,1423.4643,1425.0065,1479.6,1425.0068,2.0,1426.0058,6.0,1.0,181.0,29.0,1.0,1.6,0.7,Time
,,S07,1,Female,27,anonymized,Serial_Dependence_U,2023.2.3,Win32,60.24096386,,,,,,,,,,,,1426.0067,6.0,1426.0071,,,,1428.9567,1429.4561,1428.4401,1428.9566,1427.0227,289.0,1428.4399,1429.4561,1429.9561,1429.9562,1432.4,1926.8,1432.4004,5.0,1433.3892,6.0,2.0,182.0,3.0,1.0,1.4,0.3,Time
,,S07,1,Female,27,anonymized,Serial_Dependence_U,2023.2.3,Win32,60.24096386,,,,,,,,,,,,1433.3904,6.0,1433.3909,,,,1435.7236,1436.2222,1435.2071,1435.7235,1434.4057,270.0,1435.207,1436.2222,1436.7223,1436.7224,1437.8733,665.8,1437.8736,2.0,1438.8723,6.0,3.0,183.0,5.0,1.0,0.8,0.7,Time
,,S07,1,Female,27,anonymized,Serial_Dependence_U,2023.2.3,Win32,60.24096386,,,,,,,,,,,,1438.8733,6.0,1438.8739,,,,1441.8159,1442.3052,1441.3066,1441.8158,1439.8901,246.0,1441.3064,1442.3053,1442.8055,1442.8056,1444.4722,1163.8,1444.4725,2.0,1445.4718,6.0,4.0,184.0,18.0,1.0,1.4,0.7,Time
,,S07,1,Female,27,anonymized,Serial_Dependence_U,2023.2.3,Win32,60.24096386,,,,,,,,,,,,1445.4729,6.0,1445.4734,,,,1447.9984,1448.4962,1447.4923,1447.9982,1446.4801,68.0,1447.4922,1448.4963,1448.9915,1448.9916,1450.9157,1432.8,1450.9161,5.0,1451.9048,6.0,5.0,185.0,26.0,1.0,1.0,0.7,Time
,,S07,1,Female,27,anonymized,Serial_Dependence_U,2023.2.3,Win32,60.24096386,,,,,,,,,,,,1451.906,6.0,1451.9065,,,,1454.638,1455.1379,1454.1221,1454.6379,1452.9125,115.0,1454.1219,1455.138,1455.6378,1455.6378,1456.9323,533.0,1456.9327,1.0,1457.9211,6.0,6.0,186.0,22.0,1.0,1.2,0.3,Time
,,S07,1,Female,27,anonymized,Serial_Dependence_U,2023.2.3,Win32,60.24096386,,,,,,,,,,,,1457.9223,6.0,1457.9229,,,,1460.4578,1460.9541,1459.9462,1460.4577,1458.9292,99.0,1459.9461,1460.9543,1461.4454,1461.4454,1462.7985,881.9,1462.7988,2.0,1463.7878,6.0,7.0,187.0,11.0,1.0,1.0,0.3,Time
,,S07,1,Female,27,anonymized,Serial_Dependence_U,2023.2.3,Win32,60.24096386,,,,,,,,,,,,1463.7887,6.0,1463.7893,,,,1466.5387,1467.0374,1466.0225,1466.5385,1464.8054,109.0,1466.0222,1467.0376,1467.5376,1467.5376,1468.5882,569.5,1468.5885,1.0,1469.5873,6.0,8.0,188.0,12.0,1.0,1.2,0.3,Time
,,S07,1,Female,27,anonymized,Serial_Dependence_U,2023.2.3,Win32,60.24096386,,,,,,,,,,,,1469.5885,6.0,1469.589,,,,1472.7089,1473.2038,1472.2053,1472.7089,1470.5928,92.0,1472.2049,1473.2038,1473.7071,1473.7072,1476.2368,763.3,1476.237,1.0,1477.2369,6.0,9.0,189.0,4.0,1.0,1.6,0.3,Time
,,S07,1,Female,27,anonymized,Serial_Dependence_U,2023.2.3,Win32,60.24096386,,,,,,,,,,,,1477.238,6.0,1477.2386,,,,1479.7867,1480.2866,1479.27,1479.7865,1478.2534,271.0,1479.2699,1480.2866,1480.7869,1480.787,1481.8143,650.4,1481.8146,1.0,1482.803,6.0,10.0,190.0,6.0,1.0,1.0,0.7,Time
,,S07,1,Female,27,anonymized,Serial_Dependence_U,2023.2.3,Win32,60.24096386,,,,,,,,,,,,1482.8047,6.0,1482.8053,,,,1485.937,1486.4364,1485.4302,1485.9369,1483.8124,213.0,1485.43,1486.4364,1486.9363,1486.9364,1489.2808,1783.9,1489.2812,4.0,1490.2696,6.0,11.0,191.0,9.0,1.0,1.6,0.7,Time
,,S07,1,Female,27,anonymized,Serial_Dependence_U,2023.2.3,Win32,60.24096386,,,,,,,,,,,,1490.2707,6.0,1490.2711,,,,1492.9965,1493.4861,1492.4883,1492.9964,1491.28,93.0,1492.4878,1493.4862,1493.9861,1493.9862,1496.0036,1822.1,1496.004,5.0,1497.0025,6.0,12.0,192.0,27.0,1.0,1.2,0.7,Time
,,S07,1,Female,27,anonymized,Serial_Dependence_U,2023.2.3,Win32,60.24096386,,,,,,,,,,,,1497.0036,6.0,1497.0042,,,,1499.7356,1500.2356,1499.2201,1499.7355,1498.0189,51.0,1499.2201,1500.2356,1500.7356,1500.7357,1504.0124,1765.6,1504.0126,5.0,1505.0098,6.0,13.0,193.0,2.0,1.0,1.2,0.3,Time
,,S07,1,Female,27,anonymized,Serial_Dependence_U,2023.2.3,Win32,60.24096386,,,,,,,,,,,,1505.0104,6.0,1505.0108,,,,1507.5534,1508.0521,1507.0365,1507.5531,1506.0196,34.0,1507.0362,1508.0522,1508.5521,1508.5522,1509.6683,415.2,1509.6686,1.0,1510.6679,6.0,14.0,194.0,1.0,1.0,1.0,0.3,Time
,,S07,1,Female,27,anonymized,Serial_Dependence_U,2023.2.3,Win32,60.24096386,,,,,,,,,,,,1510.6683,6.0,1510.6687,,,,1513.6192,1514.1183,1513.1032,1513.619,1511.6861,202.0,1513.1029,1514.1184,1514.618,1514.6184,1515.5692,416.4,1515.5697,1.0,1516.5683,6.0,15.0,195.0,13.0,1.0,1.4,0.3,Time
,,S07,1,Female,27,anonymized,Serial_Dependence_U,2023.2.3,Win32,60.24096386,,,,,,,,,,,,1516.5695,6.0,1516.5701,,,,1518.9125,1519.409,1518.3944,1518.9124,1517.5787,221.0,1518.3942,1519.4091,1519.9083,1519.9084,1521.8285,316.7,1521.8288,1.0,1522.8177,6.0,16.0,196.0,0.0,1.0,0.8,0.3,Time
,,S07,1,Female,27,anonymized,Serial_Dependence_U,2023.2.3,Win32,60.24096386,,,,,,,,,,,,1522.8196,6.0,1522.8201,,,,1525.9446,1526.4343,1525.4357,1525.9444,1523.8344,124.0,1525.4354,1526.4344,1526.9344,1526.9344,1528.9357,1435.1,1528.936,2.0,1529.9341,6.0,17.0,197.0,19.0,1.0,1.6,0.7,Time
,,S07,1,Female,27,anonymized,Serial_Dependence_U,2023.2.3,Win32,60.24096386,,,,,,,,,,,,1529.9354,6.0,1529.9359,,,,1532.8839,1533.3839,1532.3685,1532.8838,1530.9519,349.0,1532.3682,1533.3839,1533.8838,1533.884,1537.1443,2665.8,1537.1447,5.0,1538.1337,6.0,18.0,198.0,23.0,1.0,1.4,0.3,Time
,,S07,1,Female,27,anonymized,Serial_Dependence_U,2023.2.3,Win32,60.24096386,,,,,,,,,,,,1538.1349,6.0,1538.1354,,,,1540.6752,1541.167,1540.1589,1540.6751,1539.1441,138.0,1540.1588,1541.1671,1541.6669,1541.667,1542.5252,16.60000002,1542.5254,1.0,1543.5167,6.0,19.0,199.0,21.0,1.0,1.0,0.3,Time
,,S07,1,Female,27,anonymized,Serial_Dependence_U,2023.2.3,Win32,60.24096386,,,,,,,,,,,,1543.5179,6.0,1543.5184,,,,1545.8498,1546.3499,1545.3426,1545.8498,1544.5348,236.0,1545.3424,1546.35,1546.8495,1546.8496,1548.6506,1288.3,1548.6509,5.0,1549.6407,6.0,20.0,200.0,25.0,1.0,0.8,0.7,Time
,,S07,1,Female,27,anonymized,Serial_Dependence_U,2023.2.3,Win32,60.24096386,,,,,,,,,,,,1549.642,6.0,1549.6426,,,,1552.3679,1552.8664,1551.8582,1552.3677,1550.6427,125.0,1551.8581,1552.8665,1553.3665,1553.3666,1556.3497,1749.4,1556.35,5.0,1557.3496,6.0,21.0,201.0,7.0,1.0,1.2,0.7,Time
,,S07,1,Female,27,anonymized,Serial_Dependence_U,2023.2.3,Win32,60.24096386,,,,,,,,,,,,1557.3505,6.0,1557.3511,,,,1559.7009,1560.1992,1559.1839,1559.7006,1558.3673,335.0,1559.1837,1560.1993,1560.6993,1560.6994,1562.8501,1816.4,1562.8507,5.0,1563.8493,6.0,22.0,202.0,15.0,1.0,0.8,0.7,Time
,,S07,1,Female,27,anonymized,Serial_Dependence_U,2023.2.3,Win32,60.24096386,,,,,,,,,,,,1563.8508,6.0,1563.8519,,,,1566.2005,1566.699,1565.6837,1566.2003,1564.8778,180.0,1565.6833,1566.6991,1567.199,1567.1992,1569.5775,1383.1,1569.5779,5.0,1570.5732,6.0,23.0,203.0,20.0,1.0,0.8,0.3,Time
,,S07,1,Female,27,anonymized,Serial_Dependence_U,2023.2.3,Win32,60.24096386,,,,,,,,,,,,1570.574,6.0,1570.5744,,,,1573.7075,1574.2058,1573.1911,1573.7074,1571.5759,230.0,1573.1911,1574.2058,1574.7057,1574.7058,1575.6572,819.3,1575.6574,1.0,1576.6483,6.0,24.0,204.0,14.0,1.0,1.6,0.3,Time
,,S07,1,Female,27,anonymized,Serial_Dependence_U,2023.2.3,Win32,60.24096386,,,,,,,,,,,,1576.6496,6.0,1576.65,,,,1579.5995,1580.0981,1579.0818,1579.5994,1577.6656,202.0,1579.0816,1580.0982,1580.5981,1580.5983,1582.8254,1416.1,1582.8256,3.0,1583.8178,6.0,25.0,205.0,28.0,1.0,1.4,0.7,Time
,,S07,1,Female,27,anonymized,Serial_Dependence_U,2023.2.3,Win32,60.24096386,,,,,,,,,,,,1583.819,6.0,1583.8194,,,,1586.965,1587.4644,1586.4485,1586.9649,1584.8312,213.0,1586.4483,1587.4645,1587.9642,1587.9643,1589.9755,1332.7,1589.9759,2.0,1590.9721,6.0,26.0,206.0,24.0,1.0,1.6,0.3,Time
,,S07,1,Female,27,anonymized,Serial_Dependence_U,2023.2.3,Win32,60.24096386,,,,,,,,,,,,1590.9734,6.0,1590.974,,,,1593.915,1594.4141,1593.3981,1593.9149,1591.9825,247.0,1593.3979,1594.4141,1594.9141,1594.9141,1598.1403,1565.3,1598.1406,4.0,1599.1306,6.0,27.0,207.0,8.0,1.0,1.4,0.7,Time
,,S07,1,Female,27,anonymized,Serial_Dependence_U,2023.2.3,Win32,60.24096386,,,,,,,,,,,,1599.1325,6.0,1599.133,,,,1601.8636,1602.3637,1601.3577,1601.8635,1600.1411,338.0,1601.3575,1602.3637,1602.8636,1602.8637,1604.4576,1467.5,1604.4579,4.0,1605.4547,6.0,28.0,208.0,17.0,1.0,1.2,0.7,Time
,,S07,1,Female,27,anonymized,Serial_Dependence_U,2023.2.3,Win32,60.24096386,,,,,,,,,,,,1605.4559,6.0,1605.4564,,,,1607.7967,1608.296,1607.2799,1607.7966,1606.4634,20.0,1607.2798,1608.2961,1608.7961,1608.7962,1610.6635,1167.7,1610.6638,5.0,1611.6632,6.0,29.0,209.0,10.0,1.0,0.8,0.3,Time
,,S07,1,Female,27,anonymized,Serial_Dependence_U,2023.2.3,Win32,60.24096386,,,,,,,,,,,,1611.6643,7.0,1613.7987,s,2.1094,,1616.9401,1617.4297,1616.4227,1616.9398,1614.8065,72.0,1616.4225,1617.4297,1617.9206,1617.9207,1621.4131,1900.3,1621.4134,4.0,1622.4126,7.0,0.0,210.0,4.0,1.0,1.6,0.3,Time
,,S07,1,Female,27,anonymized,Serial_Dependence_U,2023.2.3,Win32,60.24096386,,,,,,,,,,,,1622.4138,7.0,1622.4182,,,,1625.1542,1625.6522,1624.6381,1625.1541,1623.4305,332.0,1624.6381,1625.6523,1626.1527,1626.1528,1629.0403,1583.1,1629.0408,5.0,1630.029,7.0,1.0,211.0,2.0,1.0,1.2,0.3,Time
,,S07,1,Female,27,anonymized,Serial_Dependence_U,2023.2.3,Win32,60.24096386,,,,,,,,,,,,1630.03,7.0,1630.0306,,,,1632.5636,1633.0622,1632.0559,1632.5634,1631.0394,329.0,1632.0556,1633.0623,1633.5622,1633.5623,1635.7118,1347.6,1635.7122,5.0,1636.712,7.0,2.0,212.0,21.0,1.0,1.0,0.3,Time
,,S07,1,Female,27,anonymized,Serial_Dependence_U,2023.2.3,Win32,60.24096386,,,,,,,,,,,,1636.7129,7.0,1636.7137,,,,1639.8632,1640.3619,1639.3463,1639.8629,1637.73,39.0,1639.346,1640.362,1640.8621,1640.8622,1644.5461,2382.7,1644.5466,5.0,1645.5451,7.0,3.0,213.0,24.0,1.0,1.6,0.3,Time
,,S07,1,Female,27,anonymized,Serial_Dependence_U,2023.2.3,Win32,60.24096386,,,,,,,,,,,,1645.5464,7.0,1645.547,,,,1648.6951,1649.195,1648.179,1648.6947,1646.5621,215.0,1648.1788,1649.1951,1649.695,1649.6951,1652.395,1547.3,1652.3954,3.0,1653.3948,7.0,4.0,214.0,19.0,1.0,1.6,0.7,Time
,,S07,1,Female,27,anonymized,Serial_Dependence_U,2023.2.3,Win32,60.24096386,,,,,,,,,,,,1653.3967,7.0,1653.3974,,,,1655.7379,1656.2279,1655.2305,1655.7378,1654.4202,126.0,1655.2298,1656.228,1656.7174,1656.7174,1658.2213,884.3,1658.2217,4.0,1659.2114,7.0,5.0,215.0,0.0,1.0,0.8,0.3,Time
,,S07,1,Female,27,anonymized,Serial_Dependence_U,2023.2.3,Win32,60.24096386,,,,,,,,,,,,1659.2131,7.0,1659.2137,,,,1662.1452,1662.6432,1661.6286,1662.1452,1660.2273,133.0,1661.6284,1662.6433,1663.1439,1663.1439,1665.2945,1150.0,1665.2949,2.0,1666.2937,7.0,6.0,216.0,18.0,1.0,1.4,0.7,Time
,,S07,1,Female,27,anonymized,Serial_Dependence_U,2023.2.3,Win32,60.24096386,,,,,,,,,,,,1666.2948,7.0,1666.2954,,,,1669.0283,1669.5269,1668.5147,1669.0281,1667.303,18.0,1668.5143,1669.527,1670.0269,1670.027,1671.6197,1339.5,1671.62,4.0,1672.6105,7.0,7.0,217.0,17.0,1.0,1.2,0.7,Time
,,S07,1,Female,27,anonymized,Serial_Dependence_U,2023.2.3,Win32,60.24096386,,,,,,,,,,,,1672.6123,7.0,1672.6128,,,,1674.9439,1675.4432,1674.4373,1674.9438,1673.6205,343.0,1674.4371,1675.4433,1675.9432,1675.9433,1677.7378,812.9,1677.7383,3.0,1678.7264,7.0,8.0,218.0,20.0,1.0,0.8,0.3,Time
,,S07,1,Female,27,anonymized,Serial_Dependence_U,2023.2.3,Win32,60.24096386,,,,,,,,,,,,1678.7276,7.0,1678.7281,,,,1681.0532,1681.5496,1680.5515,1681.053,1679.7347,248.0,1680.5514,1681.5496,1682.0433,1682.0435,1683.5433,1001.6,1683.5438,4.0,1684.5431,7.0,9.0,219.0,25.0,1.0,0.8,0.7,Time
,,S07,1,Female,27,anonymized,Serial_Dependence_U,2023.2.3,Win32,60.24096386,,,,,,,,,,,,1684.544,7.0,1684.5447,,,,1687.2777,1687.7762,1686.7763,1687.2775,1685.5596,258.0,1686.7759,1687.7763,1688.2763,1688.2763,1690.0261,1234.6,1690.0265,3.0,1691.0171,7.0,10.0,220.0,12.0,1.0,1.2,0.3,Time
,,S07,1,Female,27,anonymized,Serial_Dependence_U,2023.2.3,Win32,60.24096386,,,,,,,,,,,,1691.0182,7.0,1691.0189,,,,1693.9527,1694.4429,1693.4368,1693.9525,1692.0197,328.0,1693.4366,1694.443,1694.9334,1694.9335,1696.9759,1433.0,1696.9762,3.0,1697.9749,7.0,11.0,221.0,3.0,1.0,1.4,0.3,Time
,,S07,1,Female,27,anonymized,Serial_Dependence_U,2023.2.3,Win32,60.24096386,,,,,,,,,,,,1697.9755,7.0,1697.9758,,,,1700.9258,1701.4251,1700.4092,1700.9257,1698.992,18.0,1700.409,1701.4253,1701.9251,1701.9253,1703.4846,1433.6,1703.4848,3.0,1704.4759,7.0,12.0,222.0,28.0,1.0,1.4,0.7,Time
,,S07,1,Female,27,anonymized,Serial_Dependence_U,2023.2.3,Win32,60.24096386,,,,,,,,,,,,1704.4774,7.0,1704.4779,,,,1707.2188,1707.7087,1706.7097,1707.2186,1705.4932,316.0,1706.7095,1707.7088,1708.2086,1708.2089,1710.2252,1515.2,1710.2254,4.0,1711.2248,7.0,13.0,223.0,22.0,1.0,1.2,0.3,Time
,,S07,1,Female,27,anonymized,Serial_Dependence_U,2023.2.3,Win32,60.24096386,,,,,,,,,,,,1711.2259,7.0,1711.2264,,,,1714.3591,1714.858,1713.8424,1714.359,1712.2349,136.0,1713.8423,1714.8581,1715.3579,1715.358,1717.5339,1654.5,1717.5342,3.0,1718.5237,7.0,14.0,224.0,9.0,1.0,1.6,0.7,Time
,,S07,1,Female,27,anonymized,Serial_Dependence_U,2023.2.3,Win32,60.24096386,,,,,,,,,,,,1718.5241,7.0,1718.5243,,,,1720.8592,1721.3573,1720.3413,1720.859,1719.5253,203.0,1720.3412,1721.3573,1721.8568,1721.8568,1723.5083,1048.9,1723.5087,5.0,1724.5075,7.0,15.0,225.0,10.0,1.0,0.8,0.3,Time
,,S07,1,Female,27,anonymized,Serial_Dependence_U,2023.2.3,Win32,60.24096386,,,,,,,,,,,,1724.5086,7.0,1724.5091,,,,1727.4507,1727.9407,1726.934,1727.4505,1725.5177,299.0,1726.9338,1727.9408,1728.4482,1728.4482,1730.1671,1365.3,1730.1675,3.0,1731.1571,7.0,16.0,226.0,8.0,1.0,1.4,0.7,Time
,,S07,1,Female,27,anonymized,Serial_Dependence_U,2023.2.3,Win32,60.24096386,,,,,,,,,,,,1731.1582,7.0,1731.1589,,,,1734.1008,1734.5955,1733.5839,1734.1006,1732.1675,186.0,1733.5837,1734.5955,1735.0906,1735.0908,1737.1404,1597.3,1737.1407,4.0,1738.1405,7.0,17.0,227.0,23.0,1.0,1.4,0.3,Time
,,S07,1,Female,27,anonymized,Serial_Dependence_U,2023.2.3,Win32,60.24096386,,,,,,,,,,,,1738.1424,7.0,1738.143,,,,1740.8669,1741.3636,1740.3638,1740.8668,1739.1504,212.0,1740.3633,1741.3637,1741.8563,1741.8564,1742.9684,618.8,1742.9692,1.0,1743.9731,7.0,18.0,228.0,27.0,1.0,1.2,0.7,Time
,,S07,1,Female,27,anonymized,Serial_Dependence_U,2023.2.3,Win32,60.24096386,,,,,,,,,,,,1743.9742,7.0,1743.9749,,,,1746.5164,1747.0066,1746.0076,1746.5163,1744.9911,232.0,1746.0074,1747.0067,1747.5139,1747.514,1749.3908,1302.6,1749.3911,5.0,1750.3898,7.0,19.0,229.0,16.0,1.0,1.0,0.7,Time
,,S07,1,Female,27,anonymized,Serial_Dependence_U,2023.2.3,Win32,60.24096386,,,,,,,,,,,,1750.391,7.0,1750.3917,,,,1752.9254,1753.423,1752.412,1752.925,1751.3984,98.0,1752.4118,1753.4231,1753.9137,1753.9138,1756.8066,849.6,1756.807,2.0,1757.8057,7.0,20.0,230.0,11.0,1.0,1.0,0.3,Time
,,S07,1,Female,27,anonymized,Serial_Dependence_U,2023.2.3,Win32,60.24096386,,,,,,,,,,,,1757.8068,7.0,1757.8074,,,,1760.3388,1760.8385,1759.8222,1760.3387,1758.8064,206.0,1759.8221,1760.8386,1761.3385,1761.3386,1763.8311,1082.2,1763.8313,4.0,1764.8221,7.0,21.0,231.0,26.0,1.0,1.0,0.7,Time
,,S07,1,Female,27,anonymized,Serial_Dependence_U,2023.2.3,Win32,60.24096386,,,,,,,,,,,,1764.824,7.0,1764.8246,,,,1767.5557,1768.0547,1767.0392,1767.5556,1765.8384,302.0,1767.0391,1768.0548,1768.5554,1768.5556,1771.4718,1367.0,1771.4721,4.0,1772.4714,7.0,22.0,232.0,7.0,1.0,1.2,0.7,Time
,,S07,1,Female,27,anonymized,Serial_Dependence_U,2023.2.3,Win32,60.24096386,,,,,,,,,,,,1772.4726,7.0,1772.4731,,,,1774.823,1775.3283,1774.3075,1774.8227,1773.4965,2.0,1774.3069,1775.3284,1775.8217,1775.8219,1777.7224,701.2,1777.7228,2.0,1778.7211,7.0,23.0,233.0,5.0,1.0,0.8,0.7,Time
,,S07,1,Female,27,anonymized,Serial_Dependence_U,2023.2.3,Win32,60.24096386,,,,,,,,,,,,1778.7221,7.0,1778.7227,,,,1781.2647,1781.7548,1780.747,1781.2645,1779.7302,121.0,1780.7468,1781.7549,1782.2456,1782.2457,1783.838,1051.3,1783.8382,4.0,1784.8286,7.0,24.0,234.0,1.0,1.0,1.0,0.3,Time
,,S07,1,Female,27,anonymized,Serial_Dependence_U,2023.2.3,Win32,60.24096386,,,,,,,,,,,,1784.8298,7.0,1784.8303,,,,1787.3553,1787.8541,1786.8541,1787.3551,1785.8382,28.0,1786.854,1787.8542,1788.3542,1788.3543,1791.8043,1229.0,1791.8046,4.0,1792.804,7.0,25.0,235.0,6.0,1.0,1.0,0.7,Time
,,S07,1,Female,27,anonymized,Serial_Dependence_U,2023.2.3,Win32,60.24096386,,,,,,,,,,,,1792.8051,7.0,1792.8056,,,,1795.7299,1796.2281,1795.2261,1795.7298,1793.8141,203.0,1795.2259,1796.2282,1796.7208,1796.7211,1799.5212,1253.8,1799.5215,2.0,1800.5203,7.0,26.0,236.0,13.0,1.0,1.4,0.3,Time
,,S07,1,Female,27,anonymized,Serial_Dependence_U,2023.2.3,Win32,60.24096386,,,,,,,,,,,,1800.5214,7.0,1800.5221,,,,1803.6638,1804.1536,1803.1458,1803.6636,1801.5302,117.0,1803.1457,1804.1538,1804.6601,1804.6602,1807.8245,1559.7,1807.8247,3.0,1808.8193,7.0,27.0,237.0,29.0,1.0,1.6,0.7,Time
,,S07,1,Female,27,anonymized,Serial_Dependence_U,2023.2.3,Win32,60.24096386,,,,,,,,,,,,1808.8207,7.0,1808.8212,,,,1811.1709,1811.6695,1810.6546,1811.1708,1809.8366,331.0,1810.6544,1811.6695,1812.1695,1812.1695,1814.0457,749.0,1814.0459,2.0,1815.0361,7.0,28.0,238.0,15.0,1.0,0.8,0.7,Time
,,S07,1,Female,27,anonymized,Serial_Dependence_U,2023.2.3,Win32,60.24096386,,,,,,,,,,,,1815.0374,7.0,1815.0378,,,,1818.1799,1818.6726,1817.6607,1818.1797,1816.0463,222.0,1817.6605,1818.6726,1819.1696,1819.1698,1821.2698,1463.7,1821.2701,2.0,1822.2685,7.0,29.0,239.0,14.0,1.0,1.6,0.3,Time
,,S07,1,Female,27,anonymized,Serial_Dependence_U,2023.2.3,Win32,60.24096386,,,,,,,,,,,,1822.2691,8.0,1824.3859,s,2.1017,,1827.3198,1827.8186,1826.8185,1827.3196,1825.4026,148.0,1826.8185,1827.8186,1828.3186,1828.3187,1830.9294,1781.2,1830.9299,4.0,1831.9185,8.0,0.0,240.0,18.0,1.0,1.4,0.7,Time
,,S07,1,Female,27,anonymized,Serial_Dependence_U,2023.2.3,Win32,60.24096386,,,,,,,,,,,,1831.9197,8.0,1831.9234,,,,1834.6599,1835.1518,1834.1455,1834.6598,1832.9271,237.0,1834.1453,1835.1519,1835.6516,1835.6517,1837.8846,1261.1,1837.8848,4.0,1838.8848,8.0,1.0,241.0,12.0,1.0,1.2,0.3,Time
,,S07,1,Female,27,anonymized,Serial_Dependence_U,2023.2.3,Win32,60.24096386,,,,,,,,,,,,1838.886,8.0,1838.8865,,,,1842.0266,1842.518,1841.5099,1842.0266,1839.8949,311.0,1841.5097,1842.5182,1843.0181,1843.0183,1844.8102,1285.9,1844.8106,2.0,1845.8007,8.0,2.0,242.0,9.0,1.0,1.6,0.7,Time
,,S07,1,Female,27,anonymized,Serial_Dependence_U,2023.2.3,Win32,60.24096386,,,,,,,,,,,,1845.8018,8.0,1845.8025,,,,1848.1357,1848.6342,1847.6176,1848.1356,1846.8117,127.0,1847.6175,1848.6342,1849.1344,1849.1344,1850.0115,483.4,1850.0118,1.0,1851.0006,8.0,3.0,243.0,0.0,1.0,0.8,0.3,Time
,,S07,1,Female,27,anonymized,Serial_Dependence_U,2023.2.3,Win32,60.24096386,,,,,,,,,,,,1851.0018,8.0,1851.0023,,,,1854.128,1854.6173,1853.6262,1854.1277,1852.0113,241.0,1853.626,1854.6174,1855.108,1855.1081,1857.6106,1698.6,1857.6108,4.0,1858.6005,8.0,4.0,244.0,24.0,1.0,1.6,0.3,Time
,,S07,1,Female,27,anonymized,Serial_Dependence_U,2023.2.3,Win32,60.24096386,,,,,,,,,,,,1858.6016,8.0,1858.6023,,,,1861.543,1862.0332,1861.0383,1861.5429,1859.6272,156.0,1861.0383,1862.0334,1862.5337,1862.5338,1864.5441,1283.3,1864.5445,2.0,1865.5334,8.0,5.0,245.0,13.0,1.0,1.4,0.3,Time
,,S07,1,Female,27,anonymized,Serial_Dependence_U,2023.2.3,Win32,60.24096386,,,,,,,,,,,,1865.5345,8.0,1865.5351,,,,1868.2592,1868.7499,1867.743,1868.259,1866.5401,44.0,1867.7429,1868.7501,1869.2411,1869.2412,1871.0835,947.1,1871.0838,2.0,1872.0827,8.0,6.0,246.0,17.0,1.0,1.2,0.7,Time
,,S07,1,Female,27,anonymized,Serial_Dependence_U,2023.2.3,Win32,60.24096386,,,,,,,,,,,,1872.0833,8.0,1872.0837,,,,1874.8267,1875.3237,1874.3177,1874.8266,1873.1001,56.0,1874.3176,1875.3238,1875.8162,1875.8163,1877.4107,973.8,1877.411,2.0,1878.4028,8.0,7.0,247.0,7.0,1.0,1.2,0.7,Time
,,S07,1,Female,27,anonymized,Serial_Dependence_U,2023.2.3,Win32,60.24096386,,,,,,,,,,,,1878.404,8.0,1878.4046,,,,1880.7413,1881.2326,1880.227,1880.7411,1879.4099,326.0,1880.2269,1881.2327,1881.7326,1881.7327,1883.1108,883.5,1883.1111,4.0,1884.0992,8.0,8.0,248.0,5.0,1.0,0.8,0.7,Time
,,S07,1,Female,27,anonymized,Serial_Dependence_U,2023.2.3,Win32,60.24096386,,,,,,,,,,,,1884.1011,8.0,1884.1017,,,,1887.2431,1887.7324,1886.7252,1887.243,1885.1091,3.0,1886.7249,1887.7324,1888.2399,1888.2399,1889.316,997.7,1889.3161,1.0,1890.3185,8.0,9.0,249.0,14.0,1.0,1.6,0.3,Time
,,S07,1,Female,27,anonymized,Serial_Dependence_U,2023.2.3,Win32,60.24096386,,,,,,,,,,,,1890.3197,8.0,1890.3202,,,,1893.0394,1893.5395,1892.5334,1893.0393,1891.3319,350.0,1892.5332,1893.5396,1894.0316,1894.0318,1895.8421,1583.9,1895.8425,5.0,1896.8325,8.0,10.0,250.0,27.0,1.0,1.2,0.7,Time
,,S07,1,Female,27,anonymized,Serial_Dependence_U,2023.2.3,Win32,60.24096386,,,,,,,,,,,,1896.8343,8.0,1896.8351,,,,1899.7586,1900.2481,1899.2531,1899.7584,1897.8499,171.0,1899.253,1900.2483,1900.7504,1900.7505,1902.2327,1394.8,1902.2332,3.0,1903.2309,8.0,11.0,251.0,23.0,1.0,1.4,0.3,Time
,,S07,1,Female,27,anonymized,Serial_Dependence_U,2023.2.3,Win32,60.24096386,,,,,,,,,,,,1903.2315,8.0,1903.2318,,,,1905.7585,1906.248,1905.254,1905.7583,1904.2398,18.0,1905.2539,1906.2481,1906.7559,1906.756,1908.0149,763.9,1908.0152,2.0,1909.0145,8.0,12.0,252.0,16.0,1.0,1.0,0.7,Time
,,S07,1,Female,27,anonymized,Serial_Dependence_U,2023.2.3,Win32,60.24096386,,,,,,,,,,,,1909.0156,8.0,1909.0161,,,,1911.5658,1912.0642,1911.0491,1911.5656,1910.0319,12.0,1911.0488,1912.0643,1912.5643,1912.5644,1914.1422,1251.0,1914.1426,4.0,1915.1307,8.0,13.0,253.0,1.0,1.0,1.0,0.3,Time
,,S07,1,Female,27,anonymized,Serial_Dependence_U,2023.2.3,Win32,60.24096386,,,,,,,,,,,,1915.1319,8.0,1915.1324,,,,1917.4654,1917.964,1916.9479,1917.4653,1916.1409,330.0,1916.9477,1917.964,1918.464,1918.4641,1919.7239,917.1,1919.7242,4.0,1920.7139,8.0,14.0,254.0,10.0,1.0,0.8,0.3,Time
,,S07,1,Female,27,anonymized,Serial_Dependence_U,2023.2.3,Win32,60.24096386,,,,,,,,,,,,1920.716,8.0,1920.7166,,,,1923.8642,1924.3636,1923.3476,1923.8642,1921.7304,7.0,1923.3474,1924.3637,1924.8636,1924.8637,1927.1562,1731.8,1927.1564,4.0,1928.1472,8.0,15.0,255.0,4.0,1.0,1.6,0.3,Time
,,S07,1,Female,27,anonymized,Serial_Dependence_U,2023.2.3,Win32,60.24096386,,,,,,,,,,,,1928.149,8.0,1928.1494,,,,1930.6906,1931.1801,1930.1737,1930.6903,1929.1568,105.0,1930.1735,1931.1802,1931.6713,1931.6714,1933.1804,1031.3,1933.1808,3.0,1934.1798,8.0,16.0,256.0,21.0,1.0,1.0,0.3,Time
,,S07,1,Female,27,anonymized,Serial_Dependence_U,2023.2.3,Win32,60.24096386,,,,,,,,,,,,1934.181,8.0,1934.1815,,,,1936.688,1937.1876,1936.1861,1936.6879,1935.1831,130.0,1936.1858,1937.1877,1937.6791,1937.6793,1939.1072,983.7,1939.1076,3.0,1940.0962,8.0,17.0,257.0,26.0,1.0,1.0,0.7,Time
,,S07,1,Female,27,anonymized,Serial_Dependence_U,2023.2.3,Win32,60.24096386,,,,,,,,,,,,1940.098,8.0,1940.0985,,,,1942.4408,1942.937,1941.9225,1942.4407,1941.1143,357.0,1941.9224,1942.9371,1943.4295,1943.4296,1945.413,1517.8,1945.4132,5.0,1946.4125,8.0,18.0,258.0,15.0,1.0,0.8,0.7,Time
,,S07,1,Female,27,anonymized,Serial_Dependence_U,2023.2.3,Win32,60.24096386,,,,,,,,,,,,1946.4137,8.0,1946.4142,,,,1948.7384,1949.2291,1948.2227,1948.7384,1947.4212,26.0,1948.2226,1949.2292,1949.7313,1949.7314,1950.5901,568.1,1950.5904,2.0,1951.5869,8.0,19.0,259.0,20.0,1.0,0.8,0.3,Time
,,S07,1,Female,27,anonymized,Serial_Dependence_U,2023.2.3,Win32,60.24096386,,,,,,,,,,,,1951.5879,8.0,1951.5884,,,,1954.1287,1954.6287,1953.612,1954.1286,1952.5955,358.0,1953.612,1954.6288,1955.1285,1955.1285,1956.8209,1082.0,1956.8211,4.0,1957.8196,8.0,20.0,260.0,6.0,1.0,1.0,0.7,Time
,,S07,1,Female,27,anonymized,Serial_Dependence_U,2023.2.3,Win32,60.24096386,,,,,,,,,,,,1957.8207,8.0,1957.8211,,,,1960.745,1961.245,1960.2391,1960.7449,1958.8221,248.0,1960.2389,1961.2451,1961.7451,1961.7452,1964.2893,1433.2,1964.2896,3.0,1965.2864,8.0,21.0,261.0,28.0,1.0,1.4,0.7,Time
,,S07,1,Female,27,anonymized,Serial_Dependence_U,2023.2.3,Win32,60.24096386,,,,,,,,,,,,1965.2875,8.0,1965.2882,,,,1967.6219,1968.1114,1967.1041,1967.6217,1966.2884,346.0,1967.1039,1968.1116,1968.6119,1968.6122,1970.8282,1264.8,1970.8285,5.0,1971.8188,8.0,22.0,262.0,25.0,1.0,0.8,0.7,Time
,,S07,1,Female,27,anonymized,Serial_Dependence_U,2023.2.3,Win32,60.24096386,,,,,,,,,,,,1971.82,8.0,1971.8206,,,,1974.9476,1975.4441,1974.437,1974.9472,1972.8218,273.0,1974.4368,1975.4442,1975.9445,1975.9446,1978.2286,1403.8,1978.2291,2.0,1979.2275,8.0,23.0,263.0,19.0,1.0,1.6,0.7,Time
,,S07,1,Female,27,anonymized,Serial_Dependence_U,2023.2.3,Win32,60.24096386,,,,,,,,,,,,1979.2287,8.0,1979.2292,,,,1982.3544,1982.8441,1981.8471,1982.3542,1980.2355,283.0,1981.8466,1982.8441,1983.3356,1983.3357,1985.5269,1228.7,1985.5271,2.0,1986.5271,8.0,24.0,264.0,29.0,1.0,1.6,0.7,Time
,,S07,1,Female,27,anonymized,Serial_Dependence_U,2023.2.3,Win32,60.24096386,,,,,,,,,,,,1986.5282,8.0,1986.5288,,,,1989.0523,1989.5438,1988.5475,1989.0521,1987.5369,16.0,1988.5468,1989.5439,1990.0437,1990.0438,1992.3559,765.8,1992.3563,2.0,1993.3603,8.0,25.0,265.0,11.0,1.0,1.0,0.3,Time
,,S07,1,Female,27,anonymized,Serial_Dependence_U,2023.2.3,Win32,60.24096386,,,,,,,,,,,,1993.3622,8.0,1993.3628,,,,1996.2948,1996.7931,1995.7931,1996.2946,1994.3775,52.0,1995.7931,1996.7932,1997.2932,1997.2933,1999.1538,1251.8,1999.1542,2.0,2000.1434,8.0,26.0,266.0,8.0,1.0,1.4,0.7,Time
,,S07,1,Female,27,anonymized,Serial_Dependence_U,2023.2.3,Win32,60.24096386,,,,,,,,,,,,2000.1452,8.0,2000.1458,,,,2002.8845,2003.3764,2002.3688,2002.8845,2001.1534,50.0,2002.3686,2003.3765,2003.8798,2003.8799,2005.8261,1184.1,2005.8264,3.0,2006.8262,8.0,27.0,267.0,22.0,1.0,1.2,0.3,Time
,,S07,1,Female,27,anonymized,Serial_Dependence_U,2023.2.3,Win32,60.24096386,,,,,,,,,,,,2006.8281,8.0,2006.8288,,,,2009.5591,2010.0591,2009.0432,2009.5591,2007.8259,23.0,2009.0429,2010.0592,2010.5592,2010.5593,2013.0034,1511.4,2013.0038,4.0,2013.9927,8.0,28.0,268.0,2.0,1.0,1.2,0.3,Time
,,S07,1,Female,27,anonymized,Serial_Dependence_U,2023.2.3,Win32,60.24096386,,,,,,,,,,,,2013.9938,8.0,2013.9947,,,,2016.9351,2017.4256,2016.4195,2016.935,2015.0025,212.0,2016.4193,2017.4257,2017.917,2017.9172,2019.7922,1403.7,2019.7925,3.0,2020.7833,8.0,29.0,269.0,3.0,1.0,1.4,0.3,Time
