Scale_setup.started,Scale_setup.stopped,participant,expid,session,sex,age,date,expName,psychopyVersion,OS,frameRate,Intro.started,Intro.stopped,key_resp_2.keys,key_resp_2.rt,key_resp_2.duration,block.started,direction,Block_id,block.stopped,trial_direction,Block_resp_2.keys,Block_resp_2.rt,Block_resp_2.duration,ITI.started,ITI.stopped,Mask_2.started,Mask_2.stopped,encoding.started,encoding.stopped,Cue.started,Cue.stopped,Response.started,Response.stopped,keyDuration,Feedback_Time.started,FeedbackID_T,Feedback_Time.stopped,trials.thisRepN,trials.thisTrialN,trials.thisN,trials.thisIndex,trials.ran,TimeDur,Coherence1,TrialType
0.0002,0.0003,328537,328537,1,ÄÐ,21,2025-06-04_14h55.23.145,Serial_Dependence_U,2023.2.3,Win32,163.9344262,,,,,,,,,,,,,,,,,,,,,,,,,,,,,,,,,,,
,,328537,328537,1,ÄÐ,21,2025-06-04_14h55.23.145,Serial_Dependence_U,2023.2.3,Win32,163.9344262,4.9271,7.4659,space,2.5194,,,,,,,,,,,,,,,,,,,,,,,,,,,,,,,
,,328537,328537,1,ÄÐ,21,2025-06-04_14h55.23.145,Serial_Dependence_U,2023.2.3,Win32,163.9344262,,,,,,7.4694,301.0,0.0,9.8594,301.0,s,2.3752,,14.0289,14.5255,13.526,14.0288,10.8599,13.526,14.5256,15.0224,15.0226,16.986,1576.0,16.9862,3.0,17.9858,0.0,0.0,0.0,24.0,1.0,1.6,0.3,Time
,,328537,328537,1,ÄÐ,21,2025-06-04_14h55.23.145,Serial_Dependence_U,2023.2.3,Win32,163.9344262,,,,,,17.9862,339.0,0.0,17.9876,339.0,,,,21.3553,21.8518,20.8526,21.3552,18.9919,20.8525,21.8518,22.3487,22.3488,24.488,1607.0,24.4881,5.0,25.4878,0.0,1.0,1.0,0.0,1.0,0.8,0.3,Time
,,328537,328537,1,ÄÐ,21,2025-06-04_14h55.23.145,Serial_Dependence_U,2023.2.3,Win32,163.9344262,,,,,,25.488,215.0,0.0,25.4881,215.0,,,,28.8575,29.3544,28.3544,28.8574,26.4879,28.3544,29.3544,29.8509,29.8509,31.0207,915.0,31.0207,4.0,32.0204,0.0,2.0,2.0,10.0,1.0,0.8,0.3,Time
,,328537,328537,1,ÄÐ,21,2025-06-04_14h55.23.145,Serial_Dependence_U,2023.2.3,Win32,163.9344262,,,,,,32.0208,186.0,0.0,32.0209,186.0,,,,36.1899,36.6864,35.6869,36.1898,33.0205,35.6868,36.6864,37.1834,37.1834,39.4197,1860.0,39.4197,4.0,40.4194,0.0,3.0,3.0,14.0,1.0,1.6,0.3,Time
,,328537,328537,1,ÄÐ,21,2025-06-04_14h55.23.145,Serial_Dependence_U,2023.2.3,Win32,163.9344262,,,,,,40.4196,162.0,0.0,40.4198,162.0,,,,44.3585,44.8552,43.8556,44.3585,41.4195,43.8555,44.8552,45.3521,45.3521,51.9334,1495.0,51.9334,4.0,52.9331,0.0,4.0,4.0,8.0,1.0,1.4,0.7,Time
,,328537,328537,1,ÄÐ,21,2025-06-04_14h55.23.145,Serial_Dependence_U,2023.2.3,Win32,163.9344262,,,,,,52.9334,17.0,0.0,52.9335,17.0,,,,57.0723,57.5688,56.5692,57.0722,53.9332,56.5692,57.5689,58.0658,58.0658,104.1998,1008.0,104.1998,1.0,105.1995,0.0,5.0,5.0,29.0,1.0,1.6,0.7,Time
,,328537,328537,1,ÄÐ,21,2025-06-04_14h55.23.145,Serial_Dependence_U,2023.2.3,Win32,163.9344262,,,,,,105.1997,337.0,0.0,105.1999,337.0,,,,108.963,109.4596,108.4601,108.963,106.1996,108.4601,109.4597,109.9566,109.9567,111.4898,1117.0,111.4899,2.0,112.4896,0.0,6.0,6.0,12.0,1.0,1.2,0.3,Time
,,328537,328537,1,ÄÐ,21,2025-06-04_14h55.23.145,Serial_Dependence_U,2023.2.3,Win32,163.9344262,,,,,,112.4898,300.0,0.0,112.4899,300.0,,,,116.0591,116.5558,115.5562,116.059,113.4901,115.5561,116.5558,117.0527,117.0527,118.3255,908.0,118.3255,2.0,119.3251,0.0,7.0,7.0,1.0,1.0,1.0,0.3,Time
,,328537,328537,1,ÄÐ,21,2025-06-04_14h55.23.145,Serial_Dependence_U,2023.2.3,Win32,163.9344262,,,,,,119.3254,207.0,0.0,119.3255,207.0,,,,122.8643,123.361,122.3614,122.8643,120.3252,122.3614,123.361,123.8579,123.858,125.5608,1377.0,125.5609,5.0,126.5607,0.0,8.0,8.0,16.0,1.0,1.0,0.7,Time
,,328537,328537,1,ÄÐ,21,2025-06-04_14h55.23.145,Serial_Dependence_U,2023.2.3,Win32,163.9344262,,,,,,126.5608,302.0,0.0,126.5609,302.0,,,,129.8999,130.3966,129.3969,129.8998,127.5608,129.3969,130.3966,130.8934,130.8936,131.9784,806.0,131.9785,3.0,132.978,0.0,9.0,9.0,5.0,1.0,0.8,0.7,Time
,,328537,328537,1,ÄÐ,21,2025-06-04_14h55.23.145,Serial_Dependence_U,2023.2.3,Win32,163.9344262,,,,,,132.9783,300.0,0.0,132.9784,300.0,,,,136.7174,137.2139,136.2114,136.7173,133.9782,136.2114,137.2139,137.7109,137.7109,139.2503,1126.0,139.2503,2.0,140.25,0.0,10.0,10.0,7.0,1.0,1.2,0.7,Time
,,328537,328537,1,ÄÐ,21,2025-06-04_14h55.23.145,Serial_Dependence_U,2023.2.3,Win32,163.9344262,,,,,,140.2502,206.0,0.0,140.2503,206.0,,,,144.389,144.8857,143.8861,144.389,141.2501,143.886,144.8858,145.3827,145.3827,147.7825,1842.0,147.7825,4.0,148.7823,0.0,11.0,11.0,9.0,1.0,1.6,0.7,Time
,,328537,328537,1,ÄÐ,21,2025-06-04_14h55.23.145,Serial_Dependence_U,2023.2.3,Win32,163.9344262,,,,,,148.7825,207.0,0.0,148.7826,207.0,,,,152.3215,152.8181,151.8186,152.3214,149.7824,151.8185,152.8181,153.315,153.3151,154.3818,732.0,154.3818,2.0,155.3815,0.0,12.0,12.0,26.0,1.0,1.0,0.7,Time
,,328537,328537,1,ÄÐ,21,2025-06-04_14h55.23.145,Serial_Dependence_U,2023.2.3,Win32,163.9344262,,,,,,155.3817,167.0,0.0,155.3818,167.0,,,,159.351,159.8475,158.848,159.351,156.3816,158.848,159.8476,160.3445,160.3446,161.8718,1224.0,161.8718,2.0,162.8714,0.0,13.0,13.0,13.0,1.0,1.4,0.3,Time
,,328537,328537,1,ÄÐ,21,2025-06-04_14h55.23.145,Serial_Dependence_U,2023.2.3,Win32,163.9344262,,,,,,162.8717,303.0,0.0,162.8718,303.0,,,,166.6106,167.1073,166.1077,166.6106,163.8715,166.1076,167.1073,167.6043,167.6043,168.9376,1087.0,168.9376,2.0,169.9373,0.0,14.0,14.0,27.0,1.0,1.2,0.7,Time
,,328537,328537,1,ÄÐ,21,2025-06-04_14h55.23.145,Serial_Dependence_U,2023.2.3,Win32,163.9344262,,,,,,169.9376,111.0,0.0,169.9377,111.0,,,,173.7007,174.1974,173.1978,173.7007,170.9374,173.1978,174.1975,174.6943,174.6943,176.2883,1333.0,176.2884,4.0,177.288,0.0,15.0,15.0,2.0,1.0,1.2,0.3,Time
,,328537,328537,1,ÄÐ,21,2025-06-04_14h55.23.145,Serial_Dependence_U,2023.2.3,Win32,163.9344262,,,,,,177.2882,252.0,0.0,177.2883,252.0,,,,181.2576,181.754,180.7545,181.2575,178.2881,180.7544,181.7541,182.251,182.251,183.9176,1376.0,183.9176,3.0,184.9173,0.0,16.0,16.0,3.0,1.0,1.4,0.3,Time
,,328537,328537,1,ÄÐ,21,2025-06-04_14h55.23.145,Serial_Dependence_U,2023.2.3,Win32,163.9344262,,,,,,184.9175,11.0,0.0,184.9176,11.0,,,,188.4808,188.9774,187.9779,188.4808,185.9175,187.9778,188.9775,189.4744,189.4744,190.9713,1254.0,190.9714,4.0,191.9711,0.0,17.0,17.0,21.0,1.0,1.0,0.3,Time
,,328537,328537,1,ÄÐ,21,2025-06-04_14h55.23.145,Serial_Dependence_U,2023.2.3,Win32,163.9344262,,,,,,191.9714,147.0,0.0,191.9716,147.0,,,,195.9102,196.4069,195.4072,195.9102,192.9712,195.4072,196.4069,196.9038,196.9039,198.5947,1393.0,198.5948,3.0,199.5944,0.0,18.0,18.0,28.0,1.0,1.4,0.7,Time
,,328537,328537,1,ÄÐ,21,2025-06-04_14h55.23.145,Serial_Dependence_U,2023.2.3,Win32,163.9344262,,,,,,199.5946,168.0,0.0,199.5947,168.0,,,,202.9579,203.4545,202.455,202.9579,200.5945,202.455,203.4545,203.9515,203.9515,205.2545,1066.0,205.2545,5.0,206.2543,0.0,19.0,19.0,20.0,1.0,0.8,0.3,Time
,,328537,328537,1,ÄÐ,21,2025-06-04_14h55.23.145,Serial_Dependence_U,2023.2.3,Win32,163.9344262,,,,,,206.2545,124.0,0.0,206.2546,124.0,,,,209.8238,210.3204,209.3208,209.8238,207.2543,209.3208,210.3204,210.8174,210.8174,212.1142,1062.0,212.1142,4.0,213.1141,0.0,20.0,20.0,11.0,1.0,1.0,0.3,Time
,,328537,328537,1,ÄÐ,21,2025-06-04_14h55.23.145,Serial_Dependence_U,2023.2.3,Win32,163.9344262,,,,,,213.1143,114.0,0.0,213.1144,114.0,,,,216.4532,216.9499,215.9502,216.4532,214.1141,215.9502,216.9499,217.4468,217.4468,219.0651,1121.0,219.0651,5.0,220.0647,0.0,21.0,21.0,15.0,1.0,0.8,0.7,Time
,,328537,328537,1,ÄÐ,21,2025-06-04_14h55.23.145,Serial_Dependence_U,2023.2.3,Win32,163.9344262,,,,,,220.0651,301.0,0.0,220.0652,301.0,,,,223.8343,224.3308,223.3313,223.8343,221.0648,223.3313,224.3308,224.8277,224.8277,225.9126,939.0,225.9127,2.0,226.9124,0.0,22.0,22.0,22.0,1.0,1.2,0.3,Time
,,328537,328537,1,ÄÐ,21,2025-06-04_14h55.23.145,Serial_Dependence_U,2023.2.3,Win32,163.9344262,,,,,,226.9128,259.0,0.0,226.9128,259.0,,,,230.6516,231.1483,230.1486,230.6516,227.9125,230.1485,231.1483,231.6451,231.6452,233.4937,1483.0,233.4938,4.0,234.4932,0.0,23.0,23.0,17.0,1.0,1.2,0.7,Time
,,328537,328537,1,ÄÐ,21,2025-06-04_14h55.23.145,Serial_Dependence_U,2023.2.3,Win32,163.9344262,,,,,,234.4934,287.0,0.0,234.4936,287.0,,,,238.4325,238.929,237.9296,238.4324,235.4934,237.9295,238.9291,239.4261,239.4261,241.4987,1757.0,241.4987,4.0,242.4985,0.0,24.0,24.0,18.0,1.0,1.4,0.7,Time
,,328537,328537,1,ÄÐ,21,2025-06-04_14h55.23.145,Serial_Dependence_U,2023.2.3,Win32,163.9344262,,,,,,242.4988,204.0,0.0,242.4989,204.0,,,,246.0377,246.5343,245.5346,246.0376,243.4985,245.5346,246.5343,247.0311,247.0312,248.322,958.0,248.3221,3.0,249.3218,0.0,25.0,25.0,6.0,1.0,1.0,0.7,Time
,,328537,328537,1,ÄÐ,21,2025-06-04_14h55.23.145,Serial_Dependence_U,2023.2.3,Win32,163.9344262,,,,,,249.3221,125.0,0.0,249.3221,125.0,,,,252.6611,253.1577,252.1581,252.661,250.322,252.1581,253.1577,253.6547,253.6547,254.7154,825.0,254.7154,3.0,255.715,0.0,26.0,26.0,25.0,1.0,0.8,0.7,Time
,,328537,328537,1,ÄÐ,21,2025-06-04_14h55.23.145,Serial_Dependence_U,2023.2.3,Win32,163.9344262,,,,,,255.7152,28.0,0.0,255.7153,28.0,,,,259.8543,260.3508,259.3512,259.8542,256.7152,259.3511,260.3508,260.8477,260.8478,262.6658,1299.0,262.6658,2.0,263.6656,0.0,27.0,27.0,19.0,1.0,1.6,0.7,Time
,,328537,328537,1,ÄÐ,21,2025-06-04_14h55.23.145,Serial_Dependence_U,2023.2.3,Win32,163.9344262,,,,,,263.6657,304.0,0.0,263.6659,304.0,,,,267.6351,268.1317,267.1321,267.6351,264.6657,267.1321,268.1317,268.6286,268.6286,270.2589,1265.0,270.2589,2.0,271.2586,0.0,28.0,28.0,23.0,1.0,1.4,0.3,Time
,,328537,328537,1,ÄÐ,21,2025-06-04_14h55.23.145,Serial_Dependence_U,2023.2.3,Win32,163.9344262,,,,,,271.2588,37.0,0.0,271.259,37.0,,,,275.4281,275.9247,274.9251,275.428,272.2587,274.9251,275.9247,276.4217,276.4217,278.2822,1448.0,278.2822,2.0,279.2819,0.0,29.0,29.0,4.0,1.0,1.6,0.3,Time
,,328537,328537,1,ÄÐ,21,2025-06-04_14h55.23.145,Serial_Dependence_U,2023.2.3,Win32,163.9344262,,,,,,279.2821,112.0,1.0,330.0881,112.0,s,50.7968,,333.6272,334.1239,333.1243,333.6272,331.0883,333.1242,334.1239,334.6209,334.6209,336.1546,1230.0,336.1546,4.0,336.1588,1.0,0.0,30.0,6.0,1.0,1.0,0.7,Time
,,328537,328537,1,ÄÐ,21,2025-06-04_14h55.23.145,Serial_Dependence_U,2023.2.3,Win32,163.9344262,,,,,,336.1589,302.0,1.0,336.1594,302.0,,,,340.0992,340.5959,339.5963,340.0991,337.1607,339.5962,340.5959,341.0928,341.0928,342.9352,1569.0,342.9352,4.0,342.9391,1.0,1.0,31.0,28.0,1.0,1.4,0.7,Time
,,328537,328537,1,ÄÐ,21,2025-06-04_14h55.23.145,Serial_Dependence_U,2023.2.3,Win32,163.9344262,,,,,,342.9393,261.0,1.0,342.9394,261.0,,,,346.7106,347.2072,346.2075,346.7105,343.9412,346.2075,347.2072,347.7041,347.7041,349.195,1218.0,349.195,3.0,349.199,1.0,2.0,32.0,2.0,1.0,1.2,0.3,Time
,,328537,328537,1,ÄÐ,21,2025-06-04_14h55.23.145,Serial_Dependence_U,2023.2.3,Win32,163.9344262,,,,,,349.1992,72.0,1.0,349.1992,72.0,,,,352.7403,353.2367,352.2372,352.7402,350.201,352.2372,353.2367,353.7336,353.7336,355.1519,1170.0,355.1519,4.0,355.156,1.0,3.0,33.0,16.0,1.0,1.0,0.7,Time
,,328537,328537,1,ÄÐ,21,2025-06-04_14h55.23.145,Serial_Dependence_U,2023.2.3,Win32,163.9344262,,,,,,355.1562,230.0,1.0,355.1562,230.0,,,,359.2911,359.7874,358.7892,359.291,356.1579,358.7892,359.7875,360.2844,360.2844,362.4601,1532.0,362.4601,3.0,362.4643,1.0,4.0,34.0,19.0,1.0,1.6,0.7,Time
,,328537,328537,1,ÄÐ,21,2025-06-04_14h55.23.145,Serial_Dependence_U,2023.2.3,Win32,163.9344262,,,,,,362.4644,152.0,1.0,362.4646,152.0,,,,366.0355,366.5321,365.5326,366.0355,363.4662,365.5326,366.5321,367.029,367.029,368.6896,1078.0,368.6896,4.0,368.6935,1.0,5.0,35.0,21.0,1.0,1.0,0.3,Time
,,328537,328537,1,ÄÐ,21,2025-06-04_14h55.23.145,Serial_Dependence_U,2023.2.3,Win32,163.9344262,,,,,,368.6936,358.0,1.0,368.6937,358.0,,,,372.4651,372.9617,371.9621,372.465,369.6956,371.962,372.9617,373.4586,373.4586,385.1805,982.0,385.1805,2.0,385.1848,1.0,6.0,36.0,22.0,1.0,1.2,0.3,Time
,,328537,328537,1,ÄÐ,21,2025-06-04_14h55.23.145,Serial_Dependence_U,2023.2.3,Win32,163.9344262,,,,,,385.1849,268.0,1.0,385.1849,268.0,,,,389.354,389.8506,388.851,389.3539,386.1846,388.851,389.8506,390.3475,390.3475,392.1597,1339.0,392.1597,2.0,392.1639,1.0,7.0,37.0,24.0,1.0,1.6,0.3,Time
,,328537,328537,1,ÄÐ,21,2025-06-04_14h55.23.145,Serial_Dependence_U,2023.2.3,Win32,163.9344262,,,,,,392.1641,195.0,1.0,392.1641,195.0,,,,395.5269,396.0256,395.026,395.5269,393.1656,395.026,396.0256,396.5225,396.5225,398.0255,1194.0,398.0256,5.0,398.0294,1.0,8.0,38.0,20.0,1.0,0.8,0.3,Time
,,328537,328537,1,ÄÐ,21,2025-06-04_14h55.23.145,Serial_Dependence_U,2023.2.3,Win32,163.9344262,,,,,,398.0296,220.0,1.0,398.0296,220.0,,,,401.5707,402.0673,401.0678,401.5707,399.0315,401.0677,402.0673,402.5643,402.5643,403.8128,1151.0,403.8128,4.0,403.817,1.0,9.0,39.0,26.0,1.0,1.0,0.7,Time
,,328537,328537,1,ÄÐ,21,2025-06-04_14h55.23.145,Serial_Dependence_U,2023.2.3,Win32,163.9344262,,,,,,403.8171,73.0,1.0,403.8172,73.0,,,,407.5519,408.0485,407.0497,407.5519,404.8188,407.0496,408.0485,408.5455,408.5455,410.4909,1648.0,410.4909,5.0,410.4958,1.0,10.0,40.0,7.0,1.0,1.2,0.7,Time
,,328537,328537,1,ÄÐ,21,2025-06-04_14h55.23.145,Serial_Dependence_U,2023.2.3,Win32,163.9344262,,,,,,410.496,138.0,1.0,410.4961,138.0,,,,414.6661,415.1627,414.1631,414.6661,411.4968,414.1631,415.1627,415.6597,415.6597,417.6111,1600.0,417.6111,3.0,417.6155,1.0,11.0,41.0,14.0,1.0,1.6,0.3,Time
,,328537,328537,1,ÄÐ,21,2025-06-04_14h55.23.145,Serial_Dependence_U,2023.2.3,Win32,163.9344262,,,,,,417.6156,237.0,1.0,417.6157,237.0,,,,420.9502,421.4474,420.448,420.9501,418.6171,420.448,421.4474,421.9499,421.9499,423.3802,1169.0,423.3802,5.0,423.3844,1.0,12.0,42.0,25.0,1.0,0.8,0.7,Time
,,328537,328537,1,ÄÐ,21,2025-06-04_14h55.23.145,Serial_Dependence_U,2023.2.3,Win32,163.9344262,,,,,,423.3845,11.0,1.0,423.3846,11.0,,,,426.7252,427.2219,426.2224,426.7252,424.3862,426.2224,427.2219,427.719,427.719,429.2765,1273.0,429.2765,5.0,429.2806,1.0,13.0,43.0,5.0,1.0,0.8,0.7,Time
,,328537,328537,1,ÄÐ,21,2025-06-04_14h55.23.145,Serial_Dependence_U,2023.2.3,Win32,163.9344262,,,,,,429.2808,250.0,1.0,429.2809,250.0,,,,433.0519,433.5484,432.5488,433.0518,430.2824,432.5488,433.5484,434.0453,434.0454,435.6333,1291.0,435.6333,4.0,435.6376,1.0,14.0,44.0,12.0,1.0,1.2,0.3,Time
,,328537,328537,1,ÄÐ,21,2025-06-04_14h55.23.145,Serial_Dependence_U,2023.2.3,Win32,163.9344262,,,,,,435.6378,222.0,1.0,435.6378,222.0,,,,439.0087,439.5053,438.5058,439.0086,436.6393,438.5057,439.5053,440.0023,440.0023,441.4932,1277.0,441.4932,5.0,441.4973,1.0,15.0,45.0,10.0,1.0,0.8,0.3,Time
,,328537,328537,1,ÄÐ,21,2025-06-04_14h55.23.145,Serial_Dependence_U,2023.2.3,Win32,163.9344262,,,,,,441.4975,268.0,1.0,441.4975,268.0,,,,445.4383,445.9348,444.9353,445.4382,442.4991,444.9353,445.9348,446.4317,446.4317,448.153,1478.0,448.153,4.0,448.1571,1.0,16.0,46.0,18.0,1.0,1.4,0.7,Time
,,328537,328537,1,ÄÐ,21,2025-06-04_14h55.23.145,Serial_Dependence_U,2023.2.3,Win32,163.9344262,,,,,,448.1573,160.0,1.0,448.1574,160.0,,,,451.5223,452.0189,451.0194,451.5222,449.1589,451.0194,452.019,452.5098,452.5098,453.7825,998.0,453.7825,4.0,453.7867,1.0,17.0,47.0,0.0,1.0,0.8,0.3,Time
,,328537,328537,1,ÄÐ,21,2025-06-04_14h55.23.145,Serial_Dependence_U,2023.2.3,Win32,163.9344262,,,,,,453.7869,260.0,1.0,453.7869,260.0,,,,457.1278,457.6244,456.6248,457.1277,454.7886,456.6247,457.6244,458.1212,458.1213,460.2547,1093.0,460.2548,5.0,460.2589,1.0,18.0,48.0,15.0,1.0,0.8,0.7,Time
,,328537,328537,1,ÄÐ,21,2025-06-04_14h55.23.145,Serial_Dependence_U,2023.2.3,Win32,163.9344262,,,,,,460.2591,302.0,1.0,460.2591,302.0,,,,464.2299,464.7266,463.727,464.2299,461.2606,463.727,464.7266,465.2235,465.2235,467.1447,1617.0,467.1447,4.0,467.1487,1.0,19.0,49.0,13.0,1.0,1.4,0.3,Time
,,328537,328537,1,ÄÐ,21,2025-06-04_14h55.23.145,Serial_Dependence_U,2023.2.3,Win32,163.9344262,,,,,,467.1488,46.0,1.0,467.1489,46.0,,,,470.8898,471.3863,470.3868,470.8897,468.1507,470.3868,471.3863,471.8832,471.8833,473.7438,1501.0,473.7439,4.0,473.7479,1.0,20.0,50.0,17.0,1.0,1.2,0.7,Time
,,328537,328537,1,ÄÐ,21,2025-06-04_14h55.23.145,Serial_Dependence_U,2023.2.3,Win32,163.9344262,,,,,,473.7481,54.0,1.0,473.7482,54.0,,,,477.889,478.3856,477.3859,477.8889,474.7499,477.3859,478.3856,478.8825,478.8826,481.0582,1818.0,481.0583,4.0,481.0625,1.0,21.0,51.0,9.0,1.0,1.6,0.7,Time
,,328537,328537,1,ÄÐ,21,2025-06-04_14h55.23.145,Serial_Dependence_U,2023.2.3,Win32,163.9344262,,,,,,481.0627,261.0,1.0,481.0628,261.0,,,,484.6275,485.1241,484.1258,484.6274,482.0642,484.1257,485.1241,485.6211,485.6211,487.2392,1285.0,487.2393,4.0,487.2431,1.0,22.0,52.0,1.0,1.0,1.0,0.3,Time
,,328537,328537,1,ÄÐ,21,2025-06-04_14h55.23.145,Serial_Dependence_U,2023.2.3,Win32,163.9344262,,,,,,487.2434,191.0,1.0,487.2434,191.0,,,,491.3842,491.8809,490.8814,491.3842,488.2452,490.8813,491.8809,492.3778,492.3778,495.208,2121.0,495.208,5.0,495.2122,1.0,23.0,53.0,29.0,1.0,1.6,0.7,Time
,,328537,328537,1,ÄÐ,21,2025-06-04_14h55.23.145,Serial_Dependence_U,2023.2.3,Win32,163.9344262,,,,,,495.2124,107.0,1.0,495.2125,107.0,,,,498.7833,499.2801,498.2805,498.7833,496.214,498.2804,499.2801,499.7769,499.7769,506.655,1031.0,506.6551,3.0,506.6591,1.0,24.0,54.0,11.0,1.0,1.0,0.3,Time
,,328537,328537,1,ÄÐ,21,2025-06-04_14h55.23.145,Serial_Dependence_U,2023.2.3,Win32,163.9344262,,,,,,506.6593,139.0,1.0,506.6593,139.0,,,,510.6305,511.1332,510.1275,510.6304,507.6611,510.1275,511.1332,511.6301,511.6302,513.8664,1666.0,513.8664,4.0,513.8705,1.0,25.0,55.0,3.0,1.0,1.4,0.3,Time
,,328537,328537,1,ÄÐ,21,2025-06-04_14h55.23.145,Serial_Dependence_U,2023.2.3,Win32,163.9344262,,,,,,513.8707,337.0,1.0,513.8708,337.0,,,,517.8417,518.3383,517.3388,517.8417,514.8723,517.3387,518.3384,518.8353,518.8353,521.2472,1771.0,521.2473,4.0,521.2513,1.0,26.0,56.0,23.0,1.0,1.4,0.3,Time
,,328537,328537,1,ÄÐ,21,2025-06-04_14h55.23.145,Serial_Dependence_U,2023.2.3,Win32,163.9344262,,,,,,521.2516,242.0,1.0,521.2516,242.0,,,,524.9924,525.4891,524.4894,524.9924,522.2533,524.4893,525.4891,525.986,525.986,528.3495,2077.0,528.3495,5.0,528.3538,1.0,27.0,57.0,27.0,1.0,1.2,0.7,Time
,,328537,328537,1,ÄÐ,21,2025-06-04_14h55.23.145,Serial_Dependence_U,2023.2.3,Win32,163.9344262,,,,,,528.354,208.0,1.0,528.3541,208.0,,,,532.2946,532.7912,531.7916,532.2945,529.3555,531.7915,532.7912,533.2881,533.2881,535.5002,1836.0,535.5003,5.0,535.5044,1.0,28.0,58.0,8.0,1.0,1.4,0.7,Time
,,328537,328537,1,ÄÐ,21,2025-06-04_14h55.23.145,Serial_Dependence_U,2023.2.3,Win32,163.9344262,,,,,,535.5046,320.0,1.0,535.5047,320.0,,,,539.6755,540.1721,539.1726,539.6754,536.5062,539.1725,540.1722,540.6691,540.6691,542.7418,1703.0,542.7418,4.0,542.746,1.0,29.0,59.0,4.0,1.0,1.6,0.3,Time
,,328537,328537,1,ÄÐ,21,2025-06-04_14h55.23.145,Serial_Dependence_U,2023.2.3,Win32,163.9344262,,,,,,542.7462,132.0,2.0,619.0823,132.0,s,76.3231,,623.0233,623.5198,622.5202,623.0232,620.0842,622.5202,623.5198,624.0167,624.0167,626.3585,1867.0,626.3585,5.0,626.3626,2.0,0.0,60.0,18.0,1.0,1.4,0.7,Time
,,328537,328537,1,ÄÐ,21,2025-06-04_14h55.23.145,Serial_Dependence_U,2023.2.3,Win32,163.9344262,,,,,,626.3628,46.0,2.0,626.3634,46.0,,,,630.5072,631.0039,630.0042,630.5071,627.3681,630.0041,631.0039,631.5006,631.5007,633.7188,1814.0,633.7188,4.0,633.7228,2.0,1.0,61.0,9.0,1.0,1.6,0.7,Time
,,328537,328537,1,ÄÐ,21,2025-06-04_14h55.23.145,Serial_Dependence_U,2023.2.3,Win32,163.9344262,,,,,,633.723,189.0,2.0,633.7231,189.0,,,,637.8638,638.3605,637.361,637.8638,634.7249,637.361,638.3605,638.8574,638.8575,652.6863,1946.0,652.6863,4.0,652.6906,2.0,2.0,62.0,29.0,1.0,1.6,0.7,Time
,,328537,328537,1,ÄÐ,21,2025-06-04_14h55.23.145,Serial_Dependence_U,2023.2.3,Win32,163.9344262,,,,,,652.6908,208.0,2.0,652.6909,208.0,,,,656.6556,657.1521,656.1526,656.6556,653.6922,656.1526,657.1522,657.6431,657.6431,659.6915,1721.0,659.6915,4.0,659.6959,2.0,3.0,63.0,13.0,1.0,1.4,0.3,Time
,,328537,328537,1,ÄÐ,21,2025-06-04_14h55.23.145,Serial_Dependence_U,2023.2.3,Win32,163.9344262,,,,,,659.6961,124.0,2.0,659.6962,124.0,,,,663.2671,663.7636,662.7641,663.267,660.6975,662.7641,663.7636,664.2604,664.2605,665.7998,1253.0,665.7999,4.0,665.804,2.0,4.0,64.0,21.0,1.0,1.0,0.3,Time
,,328537,328537,1,ÄÐ,21,2025-06-04_14h55.23.145,Serial_Dependence_U,2023.2.3,Win32,163.9344262,,,,,,665.8042,51.0,2.0,665.8043,51.0,,,,669.745,670.2415,669.242,669.7449,666.8058,669.2419,670.2415,670.7386,670.7386,675.0369,1864.0,675.0369,5.0,675.0413,2.0,5.0,65.0,8.0,1.0,1.4,0.7,Time
,,328537,328537,1,ÄÐ,21,2025-06-04_14h55.23.145,Serial_Dependence_U,2023.2.3,Win32,163.9344262,,,,,,675.0415,279.0,2.0,675.0415,279.0,,,,678.5802,679.0768,678.0772,678.5802,676.041,678.0772,679.0768,679.5738,679.5738,681.5798,1630.0,681.5798,5.0,681.5838,2.0,6.0,66.0,6.0,1.0,1.0,0.7,Time
,,328537,328537,1,ÄÐ,21,2025-06-04_14h55.23.145,Serial_Dependence_U,2023.2.3,Win32,163.9344262,,,,,,681.584,12.0,2.0,681.584,12.0,,,,685.7553,686.2518,685.2522,685.7552,682.5859,685.2521,686.2518,686.7487,686.7487,688.8335,1819.0,688.8335,4.0,688.8376,2.0,7.0,67.0,24.0,1.0,1.6,0.3,Time
,,328537,328537,1,ÄÐ,21,2025-06-04_14h55.23.145,Serial_Dependence_U,2023.2.3,Win32,163.9344262,,,,,,688.8377,187.0,2.0,688.8378,187.0,,,,692.5786,693.0752,692.0756,692.5786,689.8395,692.0756,693.0752,693.5721,693.5721,695.6752,1836.0,695.6752,5.0,695.6792,2.0,8.0,68.0,27.0,1.0,1.2,0.7,Time
,,328537,328537,1,ÄÐ,21,2025-06-04_14h55.23.145,Serial_Dependence_U,2023.2.3,Win32,163.9344262,,,,,,695.6794,237.0,2.0,695.6795,237.0,,,,699.8505,700.3471,699.3474,699.8505,696.6812,699.3474,700.3471,700.844,700.844,703.0984,2012.0,703.0984,4.0,703.1027,2.0,9.0,69.0,14.0,1.0,1.6,0.3,Time
,,328537,328537,1,ÄÐ,21,2025-06-04_14h55.23.145,Serial_Dependence_U,2023.2.3,Win32,163.9344262,,,,,,703.1029,33.0,2.0,703.103,33.0,,,,706.8738,707.3705,706.371,706.8738,704.1054,706.3709,707.3705,707.8675,707.8675,709.7644,1685.0,709.7644,5.0,709.7684,2.0,10.0,70.0,2.0,1.0,1.2,0.3,Time
,,328537,328537,1,ÄÐ,21,2025-06-04_14h55.23.145,Serial_Dependence_U,2023.2.3,Win32,163.9344262,,,,,,709.7686,223.0,2.0,709.7687,223.0,,,,713.5095,714.0061,713.0065,713.5094,710.7703,713.0064,714.0061,714.503,714.503,716.8248,2009.0,716.8248,5.0,716.8289,2.0,11.0,71.0,17.0,1.0,1.2,0.7,Time
,,328537,328537,1,ÄÐ,21,2025-06-04_14h55.23.145,Serial_Dependence_U,2023.2.3,Win32,163.9344262,,,,,,716.8291,317.0,2.0,716.8292,317.0,,,,721.0001,721.496,720.4965,721.0,717.83,720.4965,721.496,721.9931,721.9931,723.9686,1777.0,723.9686,4.0,723.9726,2.0,12.0,72.0,4.0,1.0,1.6,0.3,Time
,,328537,328537,1,ÄÐ,21,2025-06-04_14h55.23.145,Serial_Dependence_U,2023.2.3,Win32,163.9344262,,,,,,723.9727,249.0,2.0,723.9728,249.0,,,,727.3138,727.8105,726.8109,727.3138,724.9747,726.8108,727.8105,728.3074,728.3074,730.3679,957.0,730.3679,4.0,730.372,2.0,13.0,73.0,15.0,1.0,0.8,0.7,Time
,,328537,328537,1,ÄÐ,21,2025-06-04_14h55.23.145,Serial_Dependence_U,2023.2.3,Win32,163.9344262,,,,,,730.3721,354.0,2.0,730.3722,354.0,,,,733.7374,734.2339,733.2344,733.7373,731.3739,733.2343,734.2339,734.7309,734.7309,735.9005,1111.0,735.9006,5.0,735.9045,2.0,14.0,74.0,20.0,1.0,0.8,0.3,Time
,,328537,328537,1,ÄÐ,21,2025-06-04_14h55.23.145,Serial_Dependence_U,2023.2.3,Win32,163.9344262,,,,,,735.9047,53.0,2.0,735.9047,53.0,,,,739.876,740.3726,739.373,739.876,736.9066,739.373,740.3726,740.8696,740.8696,742.5605,1485.0,742.5605,4.0,742.5648,2.0,15.0,75.0,3.0,1.0,1.4,0.3,Time
,,328537,328537,1,ÄÐ,21,2025-06-04_14h55.23.145,Serial_Dependence_U,2023.2.3,Win32,163.9344262,,,,,,742.565,207.0,2.0,742.5651,207.0,,,,745.9298,746.4265,745.4269,745.9298,743.5665,745.4269,746.4265,746.9233,746.9233,748.4143,1121.0,748.4143,5.0,748.4181,2.0,16.0,76.0,0.0,1.0,0.8,0.3,Time
,,328537,328537,1,ÄÐ,21,2025-06-04_14h55.23.145,Serial_Dependence_U,2023.2.3,Win32,163.9344262,,,,,,748.4183,356.0,2.0,748.4184,356.0,,,,752.1898,752.6863,751.6867,752.1898,749.4203,751.6867,752.6864,753.1832,753.1833,755.0559,1550.0,755.0559,4.0,755.0602,2.0,17.0,77.0,12.0,1.0,1.2,0.3,Time
,,328537,328537,1,ÄÐ,21,2025-06-04_14h55.23.145,Serial_Dependence_U,2023.2.3,Win32,163.9344262,,,,,,755.0603,142.0,2.0,755.0604,142.0,,,,758.801,759.2977,758.298,758.801,756.0619,758.2979,759.2977,759.7945,759.7945,761.431,1382.0,761.431,4.0,761.4352,2.0,18.0,78.0,7.0,1.0,1.2,0.7,Time
,,328537,328537,1,ÄÐ,21,2025-06-04_14h55.23.145,Serial_Dependence_U,2023.2.3,Win32,163.9344262,,,,,,761.4353,114.0,2.0,761.4354,114.0,,,,765.5759,766.0726,765.073,765.5758,762.437,765.0729,766.0726,766.5695,766.5696,771.2721,1501.0,771.2721,2.0,771.2762,2.0,19.0,79.0,19.0,1.0,1.6,0.7,Time
,,328537,328537,1,ÄÐ,21,2025-06-04_14h55.23.145,Serial_Dependence_U,2023.2.3,Win32,163.9344262,,,,,,771.2763,250.0,2.0,771.2764,250.0,,,,774.8476,775.3442,774.3447,774.8476,772.2782,774.3447,775.3443,775.8411,775.8412,777.4956,1442.0,777.4956,5.0,777.4998,2.0,20.0,80.0,11.0,1.0,1.0,0.3,Time
,,328537,328537,1,ÄÐ,21,2025-06-04_14h55.23.145,Serial_Dependence_U,2023.2.3,Win32,163.9344262,,,,,,777.5,54.0,2.0,777.5,54.0,,,,780.8408,781.3375,780.3379,780.8408,778.5017,780.3379,781.3375,781.8344,781.8344,783.2646,1364.0,783.2646,5.0,783.2685,2.0,21.0,81.0,25.0,1.0,0.8,0.7,Time
,,328537,328537,1,ÄÐ,21,2025-06-04_14h55.23.145,Serial_Dependence_U,2023.2.3,Win32,163.9344262,,,,,,783.2687,206.0,2.0,783.2687,206.0,,,,786.6404,787.1367,786.1372,786.6403,784.2708,786.1372,787.1368,787.6337,787.6337,788.9064,1079.0,788.9065,5.0,788.9102,2.0,22.0,82.0,10.0,1.0,0.8,0.3,Time
,,328537,328537,1,ÄÐ,21,2025-06-04_14h55.23.145,Serial_Dependence_U,2023.2.3,Win32,163.9344262,,,,,,788.9104,100.0,2.0,788.9105,100.0,,,,792.8764,793.3723,792.3728,792.8764,789.9064,792.3727,793.3724,793.8693,793.8693,795.9422,1784.0,795.9422,4.0,795.9461,2.0,23.0,83.0,23.0,1.0,1.4,0.3,Time
,,328537,328537,1,ÄÐ,21,2025-06-04_14h55.23.145,Serial_Dependence_U,2023.2.3,Win32,163.9344262,,,,,,795.9462,256.0,2.0,795.9463,256.0,,,,799.8871,800.3837,799.384,799.887,796.9479,799.384,800.3837,800.8806,800.8807,802.6684,1546.0,802.6684,4.0,802.6723,2.0,24.0,84.0,28.0,1.0,1.4,0.7,Time
,,328537,328537,1,ÄÐ,21,2025-06-04_14h55.23.145,Serial_Dependence_U,2023.2.3,Win32,163.9344262,,,,,,802.6725,114.0,2.0,802.6725,114.0,,,,806.2378,806.7344,805.7349,806.2377,803.6745,805.7348,806.7344,807.2313,807.2313,808.8313,1229.0,808.8314,4.0,808.8353,2.0,25.0,85.0,1.0,1.0,1.0,0.3,Time
,,328537,328537,1,ÄÐ,21,2025-06-04_14h55.23.145,Serial_Dependence_U,2023.2.3,Win32,163.9344262,,,,,,808.8355,322.0,2.0,808.8355,322.0,,,,812.6068,813.1033,812.1038,812.6068,809.8374,812.1037,813.1033,813.6003,813.6003,815.1458,1297.0,815.1458,4.0,815.15,2.0,26.0,86.0,22.0,1.0,1.2,0.3,Time
,,328537,328537,1,ÄÐ,21,2025-06-04_14h55.23.145,Serial_Dependence_U,2023.2.3,Win32,163.9344262,,,,,,815.1502,272.0,2.0,815.1503,272.0,,,,818.4909,818.9875,817.9879,818.4908,816.1518,817.9879,818.9875,819.4845,819.4845,820.9026,1182.0,820.9026,5.0,820.9066,2.0,27.0,87.0,5.0,1.0,0.8,0.7,Time
,,328537,328537,1,ÄÐ,21,2025-06-04_14h55.23.145,Serial_Dependence_U,2023.2.3,Win32,163.9344262,,,,,,820.9067,357.0,2.0,820.9068,357.0,,,,824.4478,824.9443,823.9448,824.4478,821.9086,823.9448,824.9444,825.4413,825.4413,826.8474,1207.0,826.8475,4.0,826.8515,2.0,28.0,88.0,26.0,1.0,1.0,0.7,Time
,,328537,328537,1,ÄÐ,21,2025-06-04_14h55.23.145,Serial_Dependence_U,2023.2.3,Win32,163.9344262,,,,,,826.8517,203.0,2.0,826.8518,203.0,,,,830.3926,830.8892,829.8896,830.3926,827.8534,829.8896,830.8892,831.386,831.386,832.9619,1351.0,832.9619,5.0,832.9661,2.0,29.0,89.0,16.0,1.0,1.0,0.7,Time
,,328537,328537,1,ÄÐ,21,2025-06-04_14h55.23.145,Serial_Dependence_U,2023.2.3,Win32,163.9344262,,,,,,832.9662,303.0,3.0,992.8257,303.0,s,159.8484,,996.1971,996.6938,995.6941,996.197,993.8277,995.6941,996.6938,997.1907,997.1907,998.5542,993.0,998.5542,4.0,998.5581,3.0,0.0,90.0,10.0,1.0,0.8,0.3,Time
,,328537,328537,1,ÄÐ,21,2025-06-04_14h55.23.145,Serial_Dependence_U,2023.2.3,Win32,163.9344262,,,,,,998.5583,216.0,3.0,998.5593,216.0,,,,1002.7297,1003.2263,1002.2267,1002.7296,999.5603,1002.2267,1003.2263,1003.7232,1003.7233,1005.9473,1836.0,1005.9474,4.0,1005.9515,3.0,1.0,91.0,14.0,1.0,1.6,0.3,Time
,,328537,328537,1,ÄÐ,21,2025-06-04_14h55.23.145,Serial_Dependence_U,2023.2.3,Win32,163.9344262,,,,,,1005.9517,218.0,3.0,1005.9517,218.0,,,,1009.5227,1010.0194,1009.0199,1009.5227,1006.9534,1009.0199,1010.0194,1010.5164,1010.5164,1012.1648,1327.0,1012.1649,5.0,1012.1689,3.0,2.0,92.0,11.0,1.0,1.0,0.3,Time
,,328537,328537,1,ÄÐ,21,2025-06-04_14h55.23.145,Serial_Dependence_U,2023.2.3,Win32,163.9344262,,,,,,1012.1691,260.0,3.0,1012.1691,260.0,,,,1015.9341,1016.4308,1015.432,1015.934,1013.1708,1015.432,1016.4308,1016.9277,1016.9277,1036.0407,1170.0,1036.0408,3.0,1036.0448,3.0,3.0,93.0,12.0,1.0,1.2,0.3,Time
,,328537,328537,1,ÄÐ,21,2025-06-04_14h55.23.145,Serial_Dependence_U,2023.2.3,Win32,163.9344262,,,,,,1036.045,325.0,3.0,1036.045,325.0,,,,1040.0161,1040.5128,1039.5132,1040.0161,1037.0468,1039.5131,1040.5128,1041.0097,1041.0097,1042.4339,1230.0,1042.4339,2.0,1042.438,3.0,4.0,94.0,13.0,1.0,1.4,0.3,Time
,,328537,328537,1,ÄÐ,21,2025-06-04_14h55.23.145,Serial_Dependence_U,2023.2.3,Win32,163.9344262,,,,,,1042.4381,336.0,3.0,1042.4382,336.0,,,,1046.6093,1047.106,1046.1064,1046.6092,1043.4399,1046.1063,1047.106,1047.6029,1047.6029,1049.4392,1582.0,1049.4393,3.0,1049.4433,3.0,5.0,95.0,24.0,1.0,1.6,0.3,Time
,,328537,328537,1,ÄÐ,21,2025-06-04_14h55.23.145,Serial_Dependence_U,2023.2.3,Win32,163.9344262,,,,,,1049.4434,111.0,3.0,1049.4435,111.0,,,,1053.5842,1054.0809,1053.0813,1053.5842,1050.4451,1053.0812,1054.0809,1054.5778,1054.5778,1056.7534,1849.0,1056.7535,4.0,1056.7577,3.0,6.0,96.0,29.0,1.0,1.6,0.7,Time
,,328537,328537,1,ÄÐ,21,2025-06-04_14h55.23.145,Serial_Dependence_U,2023.2.3,Win32,163.9344262,,,,,,1056.7579,138.0,3.0,1056.758,138.0,,,,1060.4985,1060.9951,1059.9956,1060.4985,1057.7595,1059.9956,1060.9951,1061.492,1061.492,1063.7708,1752.0,1063.7708,5.0,1063.7751,3.0,7.0,97.0,7.0,1.0,1.2,0.7,Time
,,328537,328537,1,ÄÐ,21,2025-06-04_14h55.23.145,Serial_Dependence_U,2023.2.3,Win32,163.9344262,,,,,,1063.7753,26.0,3.0,1063.7753,26.0,,,,1067.916,1068.4125,1067.4129,1067.9158,1064.7768,1067.4129,1068.4125,1068.9094,1068.9094,1071.2063,1964.0,1071.2063,4.0,1071.2104,3.0,8.0,98.0,19.0,1.0,1.6,0.7,Time
,,328537,328537,1,ÄÐ,21,2025-06-04_14h55.23.145,Serial_Dependence_U,2023.2.3,Win32,163.9344262,,,,,,1071.2107,357.0,3.0,1071.2107,357.0,,,,1075.1816,1075.6782,1074.6787,1075.1815,1072.2123,1074.6787,1075.6782,1076.1753,1076.1753,1078.1994,1684.0,1078.1994,4.0,1078.2036,3.0,9.0,99.0,3.0,1.0,1.4,0.3,Time
,,328537,328537,1,ÄÐ,21,2025-06-04_14h55.23.145,Serial_Dependence_U,2023.2.3,Win32,163.9344262,,,,,,1078.2037,262.0,3.0,1078.2038,262.0,,,,1081.5748,1082.0715,1081.0719,1081.5748,1079.2054,1081.0718,1082.0715,1082.5684,1082.5684,1084.3442,1478.0,1084.3442,5.0,1084.3482,3.0,10.0,100.0,20.0,1.0,0.8,0.3,Time
,,328537,328537,1,ÄÐ,21,2025-06-04_14h55.23.145,Serial_Dependence_U,2023.2.3,Win32,163.9344262,,,,,,1084.3483,243.0,3.0,1084.3484,243.0,,,,1088.1194,1088.6161,1087.6166,1088.1194,1085.3501,1087.6165,1088.6161,1089.1131,1089.1131,1091.0161,1552.0,1091.0161,4.0,1091.0202,3.0,11.0,101.0,2.0,1.0,1.2,0.3,Time
,,328537,328537,1,ÄÐ,21,2025-06-04_14h55.23.145,Serial_Dependence_U,2023.2.3,Win32,163.9344262,,,,,,1091.0203,298.0,3.0,1091.0204,298.0,,,,1094.5612,1095.0578,1094.0582,1094.5612,1092.022,1094.0582,1095.0578,1095.5547,1095.5547,1097.6698,1782.0,1097.6699,5.0,1097.6738,3.0,12.0,102.0,16.0,1.0,1.0,0.7,Time
,,328537,328537,1,ÄÐ,21,2025-06-04_14h55.23.145,Serial_Dependence_U,2023.2.3,Win32,163.9344262,,,,,,1097.674,295.0,3.0,1097.6741,295.0,,,,1101.4148,1101.9115,1100.9119,1101.4148,1098.6764,1100.9119,1101.9115,1102.4085,1102.4085,1104.2084,1545.0,1104.2084,4.0,1104.2125,3.0,13.0,103.0,27.0,1.0,1.2,0.7,Time
,,328537,328537,1,ÄÐ,21,2025-06-04_14h55.23.145,Serial_Dependence_U,2023.2.3,Win32,163.9344262,,,,,,1104.2126,294.0,3.0,1104.2126,294.0,,,,1108.1535,1108.6502,1107.6506,1108.1534,1105.2145,1107.6505,1108.6502,1109.147,1109.147,1110.8197,1353.0,1110.8197,3.0,1110.8235,3.0,14.0,104.0,28.0,1.0,1.4,0.7,Time
,,328537,328537,1,ÄÐ,21,2025-06-04_14h55.23.145,Serial_Dependence_U,2023.2.3,Win32,163.9344262,,,,,,1110.8237,335.0,3.0,1110.8238,335.0,,,,1114.1952,1114.6918,1113.6922,1114.1951,1111.8257,1113.6922,1114.6919,1115.1888,1115.1888,1116.3343,908.0,1116.3343,4.0,1116.3383,3.0,15.0,105.0,0.0,1.0,0.8,0.3,Time
,,328537,328537,1,ÄÐ,21,2025-06-04_14h55.23.145,Serial_Dependence_U,2023.2.3,Win32,163.9344262,,,,,,1116.3385,27.0,3.0,1116.3385,27.0,,,,1120.0794,1120.576,1119.5764,1120.0794,1117.3404,1119.5763,1120.576,1121.0729,1121.0729,1122.7819,1427.0,1122.7819,4.0,1122.7858,3.0,16.0,106.0,17.0,1.0,1.2,0.7,Time
,,328537,328537,1,ÄÐ,21,2025-06-04_14h55.23.145,Serial_Dependence_U,2023.2.3,Win32,163.9344262,,,,,,1122.7859,295.0,3.0,1122.786,295.0,,,,1126.9573,1127.454,1126.4544,1126.9573,1123.788,1126.4544,1127.454,1127.9509,1127.9509,1129.9206,1672.0,1129.9207,3.0,1129.9248,3.0,17.0,107.0,4.0,1.0,1.6,0.3,Time
,,328537,328537,1,ÄÐ,21,2025-06-04_14h55.23.145,Serial_Dependence_U,2023.2.3,Win32,163.9344262,,,,,,1129.925,246.0,3.0,1129.9251,246.0,,,,1133.4959,1133.9926,1132.993,1133.4959,1130.9266,1132.993,1133.9926,1134.4894,1134.4895,1136.3258,1429.0,1136.3258,5.0,1136.3297,3.0,18.0,108.0,1.0,1.0,1.0,0.3,Time
,,328537,328537,1,ÄÐ,21,2025-06-04_14h55.23.145,Serial_Dependence_U,2023.2.3,Win32,163.9344262,,,,,,1136.3298,243.0,3.0,1136.3298,243.0,,,,1140.4708,1140.9675,1139.968,1140.4708,1137.3319,1139.9679,1140.9675,1141.4644,1141.4645,1144.2097,2153.0,1144.2098,5.0,1144.2138,3.0,19.0,109.0,9.0,1.0,1.6,0.7,Time
,,328537,328537,1,ÄÐ,21,2025-06-04_14h55.23.145,Serial_Dependence_U,2023.2.3,Win32,163.9344262,,,,,,1144.2139,127.0,3.0,1144.214,127.0,,,,1148.179,1148.6756,1147.6778,1148.179,1145.2157,1147.6777,1148.6757,1149.1726,1149.1726,1151.5846,1945.0,1151.5848,5.0,1151.589,3.0,20.0,110.0,23.0,1.0,1.4,0.3,Time
,,328537,328537,1,ÄÐ,21,2025-06-04_14h55.23.145,Serial_Dependence_U,2023.2.3,Win32,163.9344262,,,,,,1151.5891,22.0,3.0,1151.5892,22.0,,,,1155.1297,1155.6264,1154.6267,1155.1297,1152.5906,1154.6267,1155.6264,1156.1233,1156.1233,1157.905,1470.0,1157.9051,5.0,1157.9089,3.0,21.0,111.0,26.0,1.0,1.0,0.7,Time
,,328537,328537,1,ÄÐ,21,2025-06-04_14h55.23.145,Serial_Dependence_U,2023.2.3,Win32,163.9344262,,,,,,1157.9091,321.0,3.0,1157.9092,321.0,,,,1161.8502,1162.3468,1161.3473,1161.8502,1158.911,1161.3473,1162.3468,1162.8437,1162.8437,1165.068,1891.0,1165.0681,5.0,1165.0725,3.0,22.0,112.0,8.0,1.0,1.4,0.7,Time
,,328537,328537,1,ÄÐ,21,2025-06-04_14h55.23.145,Serial_Dependence_U,2023.2.3,Win32,163.9344262,,,,,,1165.0725,12.0,3.0,1165.0726,12.0,,,,1168.8433,1169.3398,1168.3402,1168.8433,1166.074,1168.3402,1169.3399,1169.8368,1169.8368,1172.2792,1959.0,1172.2793,5.0,1172.2832,3.0,23.0,113.0,22.0,1.0,1.2,0.3,Time
,,328537,328537,1,ÄÐ,21,2025-06-04_14h55.23.145,Serial_Dependence_U,2023.2.3,Win32,163.9344262,,,,,,1172.2834,187.0,3.0,1172.2835,187.0,,,,1175.6243,1176.1209,1175.1213,1175.6242,1173.2851,1175.1212,1176.1209,1176.6178,1176.6179,1178.1026,1042.0,1178.1028,5.0,1178.1067,3.0,24.0,114.0,15.0,1.0,0.8,0.7,Time
,,328537,328537,1,ÄÐ,21,2025-06-04_14h55.23.145,Serial_Dependence_U,2023.2.3,Win32,163.9344262,,,,,,1178.1069,59.0,3.0,1178.1069,59.0,,,,1182.0478,1182.5444,1181.5448,1182.0478,1179.1087,1181.5448,1182.5444,1183.0412,1183.0413,1185.448,1600.0,1185.4481,4.0,1185.4522,3.0,25.0,115.0,18.0,1.0,1.4,0.7,Time
,,328537,328537,1,ÄÐ,21,2025-06-04_14h55.23.145,Serial_Dependence_U,2023.2.3,Win32,163.9344262,,,,,,1185.4523,300.0,3.0,1185.4525,300.0,,,,1188.9927,1189.4891,1188.4894,1188.9925,1186.4534,1188.4894,1189.4891,1189.986,1189.986,1192.6953,1264.0,1192.6954,4.0,1192.6995,3.0,26.0,116.0,6.0,1.0,1.0,0.7,Time
,,328537,328537,1,ÄÐ,21,2025-06-04_14h55.23.145,Serial_Dependence_U,2023.2.3,Win32,163.9344262,,,,,,1192.6996,38.0,3.0,1192.6997,38.0,,,,1196.0401,1196.5367,1195.537,1196.04,1193.701,1195.537,1196.5367,1197.0336,1197.0336,1199.5305,1460.0,1199.5306,5.0,1199.5347,3.0,27.0,117.0,5.0,1.0,0.8,0.7,Time
,,328537,328537,1,ÄÐ,21,2025-06-04_14h55.23.145,Serial_Dependence_U,2023.2.3,Win32,163.9344262,,,,,,1199.5349,193.0,3.0,1199.535,193.0,,,,1203.1059,1203.6025,1202.6029,1203.1059,1200.5364,1202.6028,1203.6025,1204.0994,1204.0994,1205.5782,1178.0,1205.5782,4.0,1205.582,3.0,28.0,118.0,21.0,1.0,1.0,0.3,Time
,,328537,328537,1,ÄÐ,21,2025-06-04_14h55.23.145,Serial_Dependence_U,2023.2.3,Win32,163.9344262,,,,,,1205.5822,302.0,3.0,1205.5823,302.0,,,,1208.9235,1209.42,1208.4204,1208.9235,1206.5843,1208.4203,1209.42,1209.9169,1209.9169,1211.3292,1098.0,1211.3293,5.0,1211.3333,3.0,29.0,119.0,25.0,1.0,0.8,0.7,Time
,,328537,328537,1,ÄÐ,21,2025-06-04_14h55.23.145,Serial_Dependence_U,2023.2.3,Win32,163.9344262,,,,,,1211.3334,1.0,4.0,1295.0625,1.0,s,83.7187,,1299.0036,1299.5002,1298.5008,1299.0036,1296.0645,1298.5007,1299.5002,1299.9972,1299.9973,1303.5,1673.0,1303.5,4.0,1303.5042,4.0,0.0,120.0,8.0,1.0,1.4,0.7,Time
,,328537,328537,1,ÄÐ,21,2025-06-04_14h55.23.145,Serial_Dependence_U,2023.2.3,Win32,163.9344262,,,,,,1303.5044,11.0,4.0,1303.505,11.0,,,,1307.2451,1307.7416,1306.7422,1307.2451,1304.5059,1306.7421,1307.7416,1308.2386,1308.2386,1310.4446,1736.0,1310.4447,5.0,1310.4487,4.0,1.0,121.0,7.0,1.0,1.2,0.7,Time
,,328537,328537,1,ÄÐ,21,2025-06-04_14h55.23.145,Serial_Dependence_U,2023.2.3,Win32,163.9344262,,,,,,1310.4489,291.0,4.0,1310.449,291.0,,,,1314.0201,1314.5166,1313.5179,1314.02,1311.4506,1313.5178,1314.5166,1315.0136,1315.0137,1316.2378,933.0,1316.2378,2.0,1316.2418,4.0,2.0,122.0,21.0,1.0,1.0,0.3,Time
,,328537,328537,1,ÄÐ,21,2025-06-04_14h55.23.145,Serial_Dependence_U,2023.2.3,Win32,163.9344262,,,,,,1316.242,149.0,4.0,1316.242,149.0,,,,1320.0133,1320.5098,1319.5104,1320.0133,1317.2439,1319.5103,1320.5098,1321.0067,1321.0067,1322.7947,1410.0,1322.7948,4.0,1322.7989,4.0,3.0,123.0,12.0,1.0,1.2,0.3,Time
,,328537,328537,1,ÄÐ,21,2025-06-04_14h55.23.145,Serial_Dependence_U,2023.2.3,Win32,163.9344262,,,,,,1322.7992,338.0,4.0,1322.7993,338.0,,,,1326.97,1327.4666,1326.4671,1326.97,1323.8006,1326.467,1327.4666,1327.9635,1327.9635,1330.0907,1846.0,1330.0907,4.0,1330.0951,4.0,4.0,124.0,4.0,1.0,1.6,0.3,Time
,,328537,328537,1,ÄÐ,21,2025-06-04_14h55.23.145,Serial_Dependence_U,2023.2.3,Win32,163.9344262,,,,,,1330.0952,326.0,4.0,1330.0953,326.0,,,,1334.2358,1334.7325,1333.7328,1334.2358,1331.0966,1333.7327,1334.7325,1335.2293,1335.2293,1337.7746,1983.0,1337.7747,4.0,1337.7789,4.0,5.0,125.0,19.0,1.0,1.6,0.7,Time
,,328537,328537,1,ÄÐ,21,2025-06-04_14h55.23.145,Serial_Dependence_U,2023.2.3,Win32,163.9344262,,,,,,1337.7791,201.0,4.0,1337.7791,201.0,,,,1341.3199,1341.8166,1340.8169,1341.3198,1338.7808,1340.8168,1341.8166,1342.3133,1342.3134,1343.9436,1311.0,1343.9436,5.0,1343.9476,4.0,6.0,126.0,6.0,1.0,1.0,0.7,Time
,,328537,328537,1,ÄÐ,21,2025-06-04_14h55.23.145,Serial_Dependence_U,2023.2.3,Win32,163.9344262,,,,,,1343.9478,51.0,4.0,1343.9478,51.0,,,,1347.2889,1347.7854,1346.7858,1347.2889,1344.95,1346.7858,1347.7854,1348.2823,1348.2823,1350.5675,1396.0,1350.5675,5.0,1350.5716,4.0,7.0,127.0,5.0,1.0,0.8,0.7,Time
,,328537,328537,1,ÄÐ,21,2025-06-04_14h55.23.145,Serial_Dependence_U,2023.2.3,Win32,163.9344262,,,,,,1350.5717,164.0,4.0,1350.5718,164.0,,,,1354.7425,1355.239,1354.2395,1354.7424,1351.5731,1354.2395,1355.239,1355.736,1355.736,1357.8999,1803.0,1357.8999,4.0,1357.9039,4.0,8.0,128.0,14.0,1.0,1.6,0.3,Time
,,328537,328537,1,ÄÐ,21,2025-06-04_14h55.23.145,Serial_Dependence_U,2023.2.3,Win32,163.9344262,,,,,,1357.9041,358.0,4.0,1357.9041,358.0,,,,1362.0749,1362.5716,1361.5719,1362.0749,1358.9056,1361.5719,1362.5716,1363.0686,1363.0686,1403.7608,1083.0,1403.7608,1.0,1403.7653,4.0,9.0,129.0,24.0,1.0,1.6,0.3,Time
,,328537,328537,1,ÄÐ,21,2025-06-04_14h55.23.145,Serial_Dependence_U,2023.2.3,Win32,163.9344262,,,,,,1403.7655,81.0,4.0,1403.7655,81.0,,,,1407.7361,1408.2328,1407.2333,1407.7361,1404.7667,1407.2332,1408.2328,1408.7297,1408.7297,1410.9782,1780.0,1410.9782,4.0,1410.9825,4.0,10.0,130.0,23.0,1.0,1.4,0.3,Time
,,328537,328537,1,ÄÐ,21,2025-06-04_14h55.23.145,Serial_Dependence_U,2023.2.3,Win32,163.9344262,,,,,,1410.9826,0.0,4.0,1410.9828,0.0,,,,1414.5474,1415.044,1414.0445,1414.5473,1411.9841,1414.0445,1415.044,1415.541,1415.541,1417.3471,1485.0,1417.3471,5.0,1417.351,4.0,11.0,131.0,11.0,1.0,1.0,0.3,Time
,,328537,328537,1,ÄÐ,21,2025-06-04_14h55.23.145,Serial_Dependence_U,2023.2.3,Win32,163.9344262,,,,,,1417.3512,201.0,4.0,1417.3512,201.0,,,,1421.0921,1421.5887,1420.5891,1421.0921,1418.3531,1420.5891,1421.5887,1422.0857,1422.0857,1424.1947,1776.0,1424.1947,5.0,1424.1988,4.0,12.0,132.0,17.0,1.0,1.2,0.7,Time
,,328537,328537,1,ÄÐ,21,2025-06-04_14h55.23.145,Serial_Dependence_U,2023.2.3,Win32,163.9344262,,,,,,1424.199,72.0,4.0,1424.1991,72.0,,,,1427.7397,1428.2365,1427.2369,1427.7397,1425.2007,1427.2368,1428.2365,1428.7333,1428.7334,1430.3576,1602.0,1430.3576,5.0,1430.3614,4.0,13.0,133.0,26.0,1.0,1.0,0.7,Time
,,328537,328537,1,ÄÐ,21,2025-06-04_14h55.23.145,Serial_Dependence_U,2023.2.3,Win32,163.9344262,,,,,,1430.3616,20.0,4.0,1430.3616,20.0,,,,1434.133,1434.6296,1433.63,1434.133,1431.3635,1433.63,1434.6296,1435.1266,1435.1266,1437.2114,1763.0,1437.2114,5.0,1437.2154,4.0,14.0,134.0,22.0,1.0,1.2,0.3,Time
,,328537,328537,1,ÄÐ,21,2025-06-04_14h55.23.145,Serial_Dependence_U,2023.2.3,Win32,163.9344262,,,,,,1437.2157,26.0,4.0,1437.2157,26.0,,,,1441.3563,1441.8529,1440.8534,1441.3563,1438.2174,1440.8533,1441.853,1442.35,1442.35,1444.5377,1809.0,1444.5378,4.0,1444.5416,4.0,15.0,135.0,29.0,1.0,1.6,0.7,Time
,,328537,328537,1,ÄÐ,21,2025-06-04_14h55.23.145,Serial_Dependence_U,2023.2.3,Win32,163.9344262,,,,,,1444.5419,233.0,4.0,1444.5419,233.0,,,,1447.8828,1448.3796,1447.3799,1447.8828,1445.5438,1447.3799,1448.3796,1448.8765,1448.8765,1450.0522,956.0,1450.0522,4.0,1450.0563,4.0,16.0,136.0,15.0,1.0,0.8,0.7,Time
,,328537,328537,1,ÄÐ,21,2025-06-04_14h55.23.145,Serial_Dependence_U,2023.2.3,Win32,163.9344262,,,,,,1450.0565,17.0,4.0,1450.0565,17.0,,,,1453.5974,1454.094,1453.0944,1453.5974,1451.0582,1453.0943,1454.094,1454.5909,1454.5909,1455.9364,1058.0,1455.9364,4.0,1455.9405,4.0,17.0,137.0,16.0,1.0,1.0,0.7,Time
,,328537,328537,1,ÄÐ,21,2025-06-04_14h55.23.145,Serial_Dependence_U,2023.2.3,Win32,163.9344262,,,,,,1455.9407,243.0,4.0,1455.9408,243.0,,,,1459.8815,1460.378,1459.3786,1459.8815,1456.9424,1459.3785,1460.3781,1460.8749,1460.875,1462.5174,1425.0,1462.5175,3.0,1462.5214,4.0,18.0,138.0,18.0,1.0,1.4,0.7,Time
,,328537,328537,1,ÄÐ,21,2025-06-04_14h55.23.145,Serial_Dependence_U,2023.2.3,Win32,163.9344262,,,,,,1462.5216,218.0,4.0,1462.5216,218.0,,,,1466.4625,1466.9591,1465.9595,1466.4624,1463.5235,1465.9594,1466.9591,1467.4561,1467.4561,1469.3468,1518.0,1469.3468,4.0,1469.3509,4.0,19.0,139.0,28.0,1.0,1.4,0.7,Time
,,328537,328537,1,ÄÐ,21,2025-06-04_14h55.23.145,Serial_Dependence_U,2023.2.3,Win32,163.9344262,,,,,,1469.3511,208.0,4.0,1469.3512,208.0,,,,1473.092,1473.5886,1472.5892,1473.0919,1470.353,1472.5891,1473.5886,1474.0856,1474.0856,1475.831,1488.0,1475.831,4.0,1475.8349,4.0,20.0,140.0,27.0,1.0,1.2,0.7,Time
,,328537,328537,1,ÄÐ,21,2025-06-04_14h55.23.145,Serial_Dependence_U,2023.2.3,Win32,163.9344262,,,,,,1475.835,238.0,4.0,1475.8351,238.0,,,,1479.2004,1479.6971,1478.6974,1479.2004,1476.837,1478.6974,1479.6971,1480.1939,1480.1939,1481.6182,1031.0,1481.6182,4.0,1481.6222,4.0,21.0,141.0,20.0,1.0,0.8,0.3,Time
,,328537,328537,1,ÄÐ,21,2025-06-04_14h55.23.145,Serial_Dependence_U,2023.2.3,Win32,163.9344262,,,,,,1481.6224,286.0,4.0,1481.6225,286.0,,,,1485.5936,1486.0902,1485.0906,1485.5935,1482.6242,1485.0906,1486.0902,1486.5871,1486.5872,1488.9142,1751.0,1488.9143,4.0,1488.9183,4.0,22.0,142.0,3.0,1.0,1.4,0.3,Time
,,328537,328537,1,ÄÐ,21,2025-06-04_14h55.23.145,Serial_Dependence_U,2023.2.3,Win32,163.9344262,,,,,,1488.9185,216.0,4.0,1488.9186,216.0,,,,1493.0594,1493.556,1492.5564,1493.0593,1489.9203,1492.5563,1493.556,1494.0529,1494.053,1496.0891,1800.0,1496.0891,4.0,1496.093,4.0,23.0,143.0,9.0,1.0,1.6,0.7,Time
,,328537,328537,1,ÄÐ,21,2025-06-04_14h55.23.145,Serial_Dependence_U,2023.2.3,Win32,163.9344262,,,,,,1496.0932,158.0,4.0,1496.0932,158.0,,,,1499.8646,1500.3612,1499.3616,1499.8646,1497.096,1499.3616,1500.3612,1500.8581,1500.8581,1502.7067,1512.0,1502.7067,4.0,1502.7106,4.0,24.0,144.0,2.0,1.0,1.2,0.3,Time
,,328537,328537,1,ÄÐ,21,2025-06-04_14h55.23.145,Serial_Dependence_U,2023.2.3,Win32,163.9344262,,,,,,1502.7107,137.0,4.0,1502.7108,137.0,,,,1506.0821,1506.5786,1505.5791,1506.0821,1503.7127,1505.5791,1506.5786,1507.0756,1507.0756,1508.4756,1040.0,1508.4756,5.0,1508.4796,4.0,25.0,145.0,0.0,1.0,0.8,0.3,Time
,,328537,328537,1,ÄÐ,21,2025-06-04_14h55.23.145,Serial_Dependence_U,2023.2.3,Win32,163.9344262,,,,,,1508.4798,291.0,4.0,1508.4799,291.0,,,,1511.845,1512.3417,1511.3421,1511.8449,1509.4816,1511.342,1512.3417,1512.8385,1512.8385,1514.2507,1178.0,1514.2508,5.0,1514.2546,4.0,26.0,146.0,10.0,1.0,0.8,0.3,Time
,,328537,328537,1,ÄÐ,21,2025-06-04_14h55.23.145,Serial_Dependence_U,2023.2.3,Win32,163.9344262,,,,,,1514.2547,210.0,4.0,1514.2548,210.0,,,,1518.226,1518.7227,1517.7231,1518.226,1515.2568,1517.7231,1518.7227,1519.2196,1519.2196,1520.9287,1463.0,1520.9287,3.0,1520.9328,4.0,27.0,147.0,13.0,1.0,1.4,0.3,Time
,,328537,328537,1,ÄÐ,21,2025-06-04_14h55.23.145,Serial_Dependence_U,2023.2.3,Win32,163.9344262,,,,,,1520.9329,286.0,4.0,1520.933,286.0,,,,1524.2738,1524.7705,1523.7708,1524.2738,1521.9347,1523.7708,1524.7705,1525.2674,1525.2674,1526.528,963.0,1526.528,4.0,1526.532,4.0,28.0,148.0,25.0,1.0,0.8,0.7,Time
,,328537,328537,1,ÄÐ,21,2025-06-04_14h55.23.145,Serial_Dependence_U,2023.2.3,Win32,163.9344262,,,,,,1526.5322,314.0,4.0,1526.5322,314.0,,,,1530.1035,1530.6,1529.6005,1530.1034,1527.534,1529.6005,1530.6,1531.0969,1531.0969,1532.7273,1382.0,1532.7273,5.0,1532.7314,4.0,29.0,149.0,1.0,1.0,1.0,0.3,Time
,,328537,328537,1,ÄÐ,21,2025-06-04_14h55.23.145,Serial_Dependence_U,2023.2.3,Win32,163.9344262,,,,,,1532.7315,76.0,5.0,1614.1035,76.0,s,81.3587,,1618.2445,1618.7411,1617.7421,1618.2444,1615.1054,1617.7421,1618.7411,1619.2381,1619.2381,1621.547,1868.0,1621.547,4.0,1621.5509,5.0,0.0,150.0,29.0,1.0,1.6,0.7,Time
,,328537,328537,1,ÄÐ,21,2025-06-04_14h55.23.145,Serial_Dependence_U,2023.2.3,Win32,163.9344262,,,,,,1621.5511,200.0,5.0,1621.5517,200.0,,,,1624.8923,1625.3888,1624.3891,1624.8922,1622.5531,1624.3891,1625.3888,1625.8857,1625.8857,1627.4191,1219.0,1627.4192,5.0,1627.4231,5.0,1.0,151.0,25.0,1.0,0.8,0.7,Time
,,328537,328537,1,ÄÐ,21,2025-06-04_14h55.23.145,Serial_Dependence_U,2023.2.3,Win32,163.9344262,,,,,,1627.4232,6.0,5.0,1627.4233,6.0,,,,1630.9641,1631.4607,1630.4613,1630.964,1628.4251,1630.4613,1631.4608,1631.9577,1631.9577,1633.6971,1418.0,1633.6971,5.0,1633.7011,5.0,2.0,152.0,6.0,1.0,1.0,0.7,Time
,,328537,328537,1,ÄÐ,21,2025-06-04_14h55.23.145,Serial_Dependence_U,2023.2.3,Win32,163.9344262,,,,,,1633.7013,239.0,5.0,1633.7014,239.0,,,,1637.6421,1638.1388,1637.1392,1637.642,1634.7031,1637.1392,1638.1388,1638.6357,1638.6357,1640.5811,1632.0,1640.5811,4.0,1640.5852,5.0,3.0,153.0,18.0,1.0,1.4,0.7,Time
,,328537,328537,1,ÄÐ,21,2025-06-04_14h55.23.145,Serial_Dependence_U,2023.2.3,Win32,163.9344262,,,,,,1640.5853,66.0,5.0,1640.5854,66.0,,,,1644.3263,1644.8229,1643.8233,1644.3262,1641.5871,1643.8233,1644.8229,1645.3198,1645.3198,1647.2046,1546.0,1647.2046,4.0,1647.2087,5.0,4.0,154.0,27.0,1.0,1.2,0.7,Time
,,328537,328537,1,ÄÐ,21,2025-06-04_14h55.23.145,Serial_Dependence_U,2023.2.3,Win32,163.9344262,,,,,,1647.2089,148.0,5.0,1647.209,148.0,,,,1650.9799,1651.4767,1650.4772,1650.9799,1648.2106,1650.4771,1651.4767,1651.9735,1651.9735,1653.7189,1478.0,1653.719,4.0,1653.7227,5.0,5.0,155.0,12.0,1.0,1.2,0.3,Time
,,328537,328537,1,ÄÐ,21,2025-06-04_14h55.23.145,Serial_Dependence_U,2023.2.3,Win32,163.9344262,,,,,,1653.7229,84.0,5.0,1653.7229,84.0,,,,1657.0641,1657.5607,1656.5611,1657.0641,1654.725,1656.5611,1657.5607,1658.0577,1658.0577,1659.7546,1454.0,1659.7546,5.0,1659.7587,5.0,6.0,156.0,15.0,1.0,0.8,0.7,Time
,,328537,328537,1,ÄÐ,21,2025-06-04_14h55.23.145,Serial_Dependence_U,2023.2.3,Win32,163.9344262,,,,,,1659.7588,164.0,5.0,1659.7589,164.0,,,,1663.4998,1663.9963,1662.9967,1663.4997,1660.761,1662.9967,1663.9963,1664.4932,1664.4932,1666.4387,1688.0,1666.4387,5.0,1666.4429,5.0,7.0,157.0,7.0,1.0,1.2,0.7,Time
,,328537,328537,1,ÄÐ,21,2025-06-04_14h55.23.145,Serial_Dependence_U,2023.2.3,Win32,163.9344262,,,,,,1666.4431,123.0,5.0,1666.4431,123.0,,,,1670.414,1670.9107,1669.9112,1670.414,1667.4447,1669.9111,1670.9107,1671.4077,1671.4077,1673.5045,1807.0,1673.5045,4.0,1673.5087,5.0,8.0,158.0,23.0,1.0,1.4,0.3,Time
,,328537,328537,1,ÄÐ,21,2025-06-04_14h55.23.145,Serial_Dependence_U,2023.2.3,Win32,163.9344262,,,,,,1673.5089,330.0,5.0,1673.509,330.0,,,,1677.4798,1677.9765,1676.977,1677.4798,1674.5105,1676.9769,1677.9765,1678.4734,1678.4735,1680.5707,1788.0,1680.5707,4.0,1680.5752,5.0,9.0,159.0,13.0,1.0,1.4,0.3,Time
,,328537,328537,1,ÄÐ,21,2025-06-04_14h55.23.145,Serial_Dependence_U,2023.2.3,Win32,163.9344262,,,,,,1680.5753,209.0,5.0,1680.5754,209.0,,,,1683.9397,1684.4363,1683.4368,1683.9397,1681.5763,1683.4368,1684.4363,1684.9332,1684.9332,1687.7512,1439.0,1687.7513,5.0,1687.7555,5.0,10.0,160.0,0.0,1.0,0.8,0.3,Time
,,328537,328537,1,ÄÐ,21,2025-06-04_14h55.23.145,Serial_Dependence_U,2023.2.3,Win32,163.9344262,,,,,,1687.7556,46.0,5.0,1687.7557,46.0,,,,1691.9266,1692.4232,1691.4237,1691.9266,1688.7573,1691.4236,1692.4232,1692.9202,1692.9202,1695.0595,1755.0,1695.0595,4.0,1695.064,5.0,11.0,161.0,24.0,1.0,1.6,0.3,Time
,,328537,328537,1,ÄÐ,21,2025-06-04_14h55.23.145,Serial_Dependence_U,2023.2.3,Win32,163.9344262,,,,,,1695.0642,191.0,5.0,1695.0643,191.0,,,,1698.4048,1698.9012,1697.9018,1698.4047,1696.0655,1697.9017,1698.9013,1699.3982,1699.3982,1701.0292,1277.0,1701.0293,5.0,1701.0337,5.0,12.0,162.0,5.0,1.0,0.8,0.7,Time
,,328537,328537,1,ÄÐ,21,2025-06-04_14h55.23.145,Serial_Dependence_U,2023.2.3,Win32,163.9344262,,,,,,1701.0339,230.0,5.0,1701.0339,230.0,,,,1705.1736,1705.6703,1704.6706,1705.1736,1702.0346,1704.6706,1705.6703,1706.1671,1706.1672,1708.4216,1866.0,1708.4216,4.0,1708.4259,5.0,13.0,163.0,9.0,1.0,1.6,0.7,Time
,,328537,328537,1,ÄÐ,21,2025-06-04_14h55.23.145,Serial_Dependence_U,2023.2.3,Win32,163.9344262,,,,,,1708.4261,6.0,5.0,1708.4261,6.0,,,,1712.1665,1712.6634,1711.6637,1712.1665,1709.4275,1711.6636,1712.6634,1713.1602,1713.1602,1715.1297,1710.0,1715.1298,5.0,1715.1337,5.0,14.0,164.0,17.0,1.0,1.2,0.7,Time
,,328537,328537,1,ÄÐ,21,2025-06-04_14h55.23.145,Serial_Dependence_U,2023.2.3,Win32,163.9344262,,,,,,1715.1338,162.0,5.0,1715.1339,162.0,,,,1719.1052,1719.6018,1718.6023,1719.1052,1716.1359,1718.6023,1719.6019,1720.0988,1720.0988,1722.0685,1594.0,1722.0685,4.0,1722.0729,5.0,15.0,165.0,3.0,1.0,1.4,0.3,Time
,,328537,328537,1,ÄÐ,21,2025-06-04_14h55.23.145,Serial_Dependence_U,2023.2.3,Win32,163.9344262,,,,,,1722.073,241.0,5.0,1722.0731,241.0,,,,1726.2136,1726.7101,1725.7106,1726.2135,1723.0743,1725.7104,1726.7101,1727.207,1727.207,1729.1161,1542.0,1729.1161,3.0,1729.1205,5.0,16.0,166.0,19.0,1.0,1.6,0.7,Time
,,328537,328537,1,ÄÐ,21,2025-06-04_14h55.23.145,Serial_Dependence_U,2023.2.3,Win32,163.9344262,,,,,,1729.1206,86.0,5.0,1729.1208,86.0,,,,1732.6915,1733.1881,1732.1886,1732.6914,1730.1221,1732.1886,1733.1881,1733.685,1733.685,1736.9029,1360.0,1736.9029,5.0,1736.9074,5.0,17.0,167.0,1.0,1.0,1.0,0.3,Time
,,328537,328537,1,ÄÐ,21,2025-06-04_14h55.23.145,Serial_Dependence_U,2023.2.3,Win32,163.9344262,,,,,,1736.9075,114.0,5.0,1736.9076,114.0,,,,1741.0784,1741.575,1740.5754,1741.0784,1737.909,1740.5754,1741.575,1742.0719,1742.072,1744.0476,1529.0,1744.0476,3.0,1744.0518,5.0,18.0,168.0,14.0,1.0,1.6,0.3,Time
,,328537,328537,1,ÄÐ,21,2025-06-04_14h55.23.145,Serial_Dependence_U,2023.2.3,Win32,163.9344262,,,,,,1744.052,135.0,5.0,1744.0521,135.0,,,,1747.5927,1748.0894,1747.0897,1747.5927,1745.0537,1747.0897,1748.0894,1748.5863,1748.5863,1750.4469,1576.0,1750.447,5.0,1750.4512,5.0,19.0,169.0,26.0,1.0,1.0,0.7,Time
,,328537,328537,1,ÄÐ,21,2025-06-04_14h55.23.145,Serial_Dependence_U,2023.2.3,Win32,163.9344262,,,,,,1750.4514,91.0,5.0,1750.4515,91.0,,,,1754.0223,1754.5189,1753.5193,1754.0222,1751.4529,1753.5192,1754.519,1755.0158,1755.0158,1761.1183,1536.0,1761.1183,5.0,1761.1224,5.0,20.0,170.0,21.0,1.0,1.0,0.3,Time
,,328537,328537,1,ÄÐ,21,2025-06-04_14h55.23.145,Serial_Dependence_U,2023.2.3,Win32,163.9344262,,,,,,1761.1226,152.0,5.0,1761.1226,152.0,,,,1764.4937,1764.9904,1763.9908,1764.4937,1762.1244,1763.9908,1764.9904,1765.4874,1765.4875,1766.863,1057.0,1766.8631,5.0,1766.8672,5.0,21.0,171.0,10.0,1.0,0.8,0.3,Time
,,328537,328537,1,ÄÐ,21,2025-06-04_14h55.23.145,Serial_Dependence_U,2023.2.3,Win32,163.9344262,,,,,,1766.8674,101.0,5.0,1766.8674,101.0,,,,1770.4083,1770.9048,1769.9053,1770.4082,1767.8692,1769.9053,1770.9048,1771.4018,1771.4018,1773.0382,1282.0,1773.0382,4.0,1773.0422,5.0,22.0,172.0,16.0,1.0,1.0,0.7,Time
,,328537,328537,1,ÄÐ,21,2025-06-04_14h55.23.145,Serial_Dependence_U,2023.2.3,Win32,163.9344262,,,,,,1773.0423,115.0,5.0,1773.0425,115.0,,,,1776.4137,1776.9102,1775.9106,1776.4137,1774.0444,1775.9105,1776.9102,1777.4072,1777.4072,1780.2191,1308.0,1780.2192,5.0,1780.2234,5.0,23.0,173.0,20.0,1.0,0.8,0.3,Time
,,328537,328537,1,ÄÐ,21,2025-06-04_14h55.23.145,Serial_Dependence_U,2023.2.3,Win32,163.9344262,,,,,,1780.2235,143.0,5.0,1780.2236,143.0,,,,1783.9946,1784.4912,1783.4915,1783.9946,1781.2251,1783.4915,1784.4912,1784.988,1784.988,1786.8608,1315.0,1786.8608,4.0,1786.8647,5.0,24.0,174.0,22.0,1.0,1.2,0.3,Time
,,328537,328537,1,ÄÐ,21,2025-06-04_14h55.23.145,Serial_Dependence_U,2023.2.3,Win32,163.9344262,,,,,,1786.8649,39.0,5.0,1786.865,39.0,,,,1790.8058,1791.3024,1790.3029,1790.8058,1787.8668,1790.3028,1791.3024,1791.7993,1791.7993,1793.8356,1528.0,1793.8356,4.0,1793.8397,5.0,25.0,175.0,8.0,1.0,1.4,0.7,Time
,,328537,328537,1,ÄÐ,21,2025-06-04_14h55.23.145,Serial_Dependence_U,2023.2.3,Win32,163.9344262,,,,,,1793.8398,25.0,5.0,1793.8399,25.0,,,,1797.7807,1798.2774,1797.2778,1797.7807,1794.8417,1797.2778,1798.2774,1798.7742,1798.7743,1801.0226,1572.0,1801.0227,4.0,1801.0267,5.0,26.0,176.0,28.0,1.0,1.4,0.7,Time
,,328537,328537,1,ÄÐ,21,2025-06-04_14h55.23.145,Serial_Dependence_U,2023.2.3,Win32,163.9344262,,,,,,1801.0269,38.0,5.0,1801.0269,38.0,,,,1805.198,1805.6948,1804.6953,1805.198,1802.0287,1804.6953,1805.6948,1806.1915,1806.1915,1822.8201,1757.0,1822.8201,4.0,1822.8245,5.0,27.0,177.0,4.0,1.0,1.6,0.3,Time
,,328537,328537,1,ÄÐ,21,2025-06-04_14h55.23.145,Serial_Dependence_U,2023.2.3,Win32,163.9344262,,,,,,1822.8248,232.0,5.0,1822.8248,232.0,,,,1826.3955,1826.8921,1825.8926,1826.3955,1823.8262,1825.8926,1826.8922,1827.3891,1827.3891,1829.1042,1297.0,1829.1042,4.0,1829.1087,5.0,28.0,178.0,11.0,1.0,1.0,0.3,Time
,,328537,328537,1,ÄÐ,21,2025-06-04_14h55.23.145,Serial_Dependence_U,2023.2.3,Win32,163.9344262,,,,,,1829.1089,147.0,5.0,1829.109,147.0,,,,1832.8796,1833.3762,1832.3766,1832.8796,1830.1103,1832.3766,1833.3762,1833.8732,1833.8732,1835.867,1613.0,1835.867,5.0,1835.8711,5.0,29.0,179.0,2.0,1.0,1.2,0.3,Time
,,328537,328537,1,ÄÐ,21,2025-06-04_14h55.23.145,Serial_Dependence_U,2023.2.3,Win32,163.9344262,,,,,,1835.8714,32.0,6.0,1837.7818,32.0,s,1.9016,,1841.9513,1842.4536,1841.4482,1841.9513,1838.7819,1841.4482,1842.4536,1842.9509,1842.9509,1845.1325,1475.0,1845.1325,2.0,1845.1367,6.0,0.0,180.0,24.0,1.0,1.6,0.3,Time
,,328537,328537,1,ÄÐ,21,2025-06-04_14h55.23.145,Serial_Dependence_U,2023.2.3,Win32,163.9344262,,,,,,1845.1369,238.0,6.0,1845.1375,238.0,,,,1848.908,1849.4046,1848.405,1848.9079,1846.1399,1848.405,1849.4046,1849.9015,1849.9015,1852.3862,1554.0,1852.3862,4.0,1852.3901,6.0,1.0,181.0,22.0,1.0,1.2,0.3,Time
,,328537,328537,1,ÄÐ,21,2025-06-04_14h55.23.145,Serial_Dependence_U,2023.2.3,Win32,163.9344262,,,,,,1852.3903,334.0,6.0,1852.3903,334.0,,,,1855.7557,1856.2523,1855.2528,1855.7556,1853.3923,1855.2528,1856.2523,1856.7492,1856.7492,1858.6462,1195.0,1858.6462,5.0,1858.6502,6.0,2.0,182.0,0.0,1.0,0.8,0.3,Time
,,328537,328537,1,ÄÐ,21,2025-06-04_14h55.23.145,Serial_Dependence_U,2023.2.3,Win32,163.9344262,,,,,,1858.6503,21.0,6.0,1858.6505,21.0,,,,1862.1912,1862.6879,1861.6884,1862.1912,1859.6522,1861.6883,1862.688,1863.1848,1863.1848,1865.8089,1650.0,1865.8089,5.0,1865.813,6.0,3.0,183.0,16.0,1.0,1.0,0.7,Time
,,328537,328537,1,ÄÐ,21,2025-06-04_14h55.23.145,Serial_Dependence_U,2023.2.3,Win32,163.9344262,,,,,,1865.8131,111.0,6.0,1865.8132,111.0,,,,1869.754,1870.2506,1869.2511,1869.754,1866.8149,1869.2511,1870.2506,1870.7476,1870.7476,1872.596,1639.0,1872.596,4.0,1872.5998,6.0,4.0,184.0,28.0,1.0,1.4,0.7,Time
,,328537,328537,1,ÄÐ,21,2025-06-04_14h55.23.145,Serial_Dependence_U,2023.2.3,Win32,163.9344262,,,,,,1872.5999,335.0,6.0,1872.6,335.0,,,,1875.9654,1876.4621,1875.4624,1875.9653,1873.602,1875.4624,1876.4621,1876.959,1876.959,1878.1106,871.0,1878.1106,4.0,1878.1145,6.0,5.0,185.0,10.0,1.0,0.8,0.3,Time
,,328537,328537,1,ÄÐ,21,2025-06-04_14h55.23.145,Serial_Dependence_U,2023.2.3,Win32,163.9344262,,,,,,1878.1148,114.0,6.0,1878.1148,114.0,,,,1881.8557,1882.3522,1881.3527,1881.8556,1879.1165,1881.3527,1882.3523,1882.8491,1882.8491,1885.1218,1680.0,1885.1219,5.0,1885.126,6.0,6.0,186.0,27.0,1.0,1.2,0.7,Time
,,328537,328537,1,ÄÐ,21,2025-06-04_14h55.23.145,Serial_Dependence_U,2023.2.3,Win32,163.9344262,,,,,,1885.1262,63.0,6.0,1885.1263,63.0,,,,1888.8974,1889.3938,1888.3942,1888.8974,1886.1278,1888.3942,1889.3938,1889.8907,1889.8907,1926.5229,1312.0,1926.523,4.0,1926.5272,6.0,7.0,187.0,2.0,1.0,1.2,0.3,Time
,,328537,328537,1,ÄÐ,21,2025-06-04_14h55.23.145,Serial_Dependence_U,2023.2.3,Win32,163.9344262,,,,,,1926.5274,330.0,6.0,1926.5275,330.0,,,,1930.668,1931.1646,1930.165,1930.6679,1927.529,1930.165,1931.1646,1931.6615,1931.6615,1934.0614,1916.0,1934.0615,4.0,1934.0657,6.0,8.0,188.0,19.0,1.0,1.6,0.7,Time
,,328537,328537,1,ÄÐ,21,2025-06-04_14h55.23.145,Serial_Dependence_U,2023.2.3,Win32,163.9344262,,,,,,1934.0658,99.0,6.0,1934.0659,99.0,,,,1938.0368,1938.5335,1937.5338,1938.0368,1935.0675,1937.5338,1938.5335,1939.0304,1939.0304,1941.0243,1678.0,1941.0244,4.0,1941.0284,6.0,9.0,189.0,23.0,1.0,1.4,0.3,Time
,,328537,328537,1,ÄÐ,21,2025-06-04_14h55.23.145,Serial_Dependence_U,2023.2.3,Win32,163.9344262,,,,,,1941.0286,77.0,6.0,1941.0287,77.0,,,,1945.1996,1945.6962,1944.6967,1945.1996,1942.0302,1944.6966,1945.6962,1946.1931,1946.1931,1948.3869,1896.0,1948.387,4.0,1948.391,6.0,10.0,190.0,14.0,1.0,1.6,0.3,Time
,,328537,328537,1,ÄÐ,21,2025-06-04_14h55.23.145,Serial_Dependence_U,2023.2.3,Win32,163.9344262,,,,,,1948.3911,120.0,6.0,1948.3913,120.0,,,,1951.9383,1952.4348,1951.4321,1951.9383,1949.3931,1951.4321,1952.4348,1952.9317,1952.9318,1954.9014,1601.0,1954.9014,5.0,1954.9054,6.0,11.0,191.0,26.0,1.0,1.0,0.7,Time
,,328537,328537,1,ÄÐ,21,2025-06-04_14h55.23.145,Serial_Dependence_U,2023.2.3,Win32,163.9344262,,,,,,1954.9056,289.0,6.0,1954.9057,289.0,,,,1958.2466,1958.7431,1957.7435,1958.2465,1955.9074,1957.7435,1958.7431,1959.24,1959.24,1960.525,998.0,1960.525,4.0,1960.529,6.0,12.0,192.0,15.0,1.0,0.8,0.7,Time
,,328537,328537,1,ÄÐ,21,2025-06-04_14h55.23.145,Serial_Dependence_U,2023.2.3,Win32,163.9344262,,,,,,1960.5291,64.0,6.0,1960.5292,64.0,,,,1964.6639,1965.1605,1964.161,1964.6639,1961.525,1964.161,1965.1605,1965.6575,1965.6575,1967.9665,1964.0,1967.9666,4.0,1967.9707,6.0,13.0,193.0,29.0,1.0,1.6,0.7,Time
,,328537,328537,1,ÄÐ,21,2025-06-04_14h55.23.145,Serial_Dependence_U,2023.2.3,Win32,163.9344262,,,,,,1967.9708,299.0,6.0,1967.9709,299.0,,,,1972.1115,1972.6081,1971.6086,1972.1115,1968.9725,1971.6085,1972.6081,1973.1051,1973.1051,1975.3717,1884.0,1975.3717,4.0,1975.3757,6.0,14.0,194.0,9.0,1.0,1.6,0.7,Time
,,328537,328537,1,ÄÐ,21,2025-06-04_14h55.23.145,Serial_Dependence_U,2023.2.3,Win32,163.9344262,,,,,,1975.3759,291.0,6.0,1975.3759,291.0,,,,1979.341,1979.8378,1978.8385,1979.341,1976.3777,1978.8384,1979.8378,1980.3345,1980.3345,1982.4558,2073.0,1982.4559,5.0,1982.4598,6.0,15.0,195.0,13.0,1.0,1.4,0.3,Time
,,328537,328537,1,ÄÐ,21,2025-06-04_14h55.23.145,Serial_Dependence_U,2023.2.3,Win32,163.9344262,,,,,,1982.46,328.0,6.0,1982.4601,328.0,,,,1986.031,1986.5278,1985.5283,1986.031,1983.4617,1985.5282,1986.5278,1987.0247,1987.0247,1989.0065,1532.0,1989.0066,5.0,1989.0106,6.0,16.0,196.0,11.0,1.0,1.0,0.3,Time
,,328537,328537,1,ÄÐ,21,2025-06-04_14h55.23.145,Serial_Dependence_U,2023.2.3,Win32,163.9344262,,,,,,1989.0108,98.0,6.0,1989.0109,98.0,,,,1992.9818,1993.4785,1992.4788,1992.9818,1990.0125,1992.4788,1993.4785,1993.9757,1993.9758,1995.8299,1574.0,1995.83,4.0,1995.8341,6.0,17.0,197.0,3.0,1.0,1.4,0.3,Time
,,328537,328537,1,ÄÐ,21,2025-06-04_14h55.23.145,Serial_Dependence_U,2023.2.3,Win32,163.9344262,,,,,,1995.8343,238.0,6.0,1995.8344,238.0,,,,1999.6053,2000.1019,1999.1024,1999.6052,1996.8359,1999.1023,2000.1019,2000.5988,2000.5988,2002.0776,1225.0,2002.0776,3.0,2002.0816,6.0,18.0,198.0,12.0,1.0,1.2,0.3,Time
,,328537,328537,1,ÄÐ,21,2025-06-04_14h55.23.145,Serial_Dependence_U,2023.2.3,Win32,163.9344262,,,,,,2002.0818,254.0,6.0,2002.0819,254.0,,,,2005.6531,2006.1496,2005.1501,2005.653,2003.0836,2005.15,2006.1496,2006.6465,2006.6465,2008.5193,1561.0,2008.5193,5.0,2008.5234,6.0,19.0,199.0,21.0,1.0,1.0,0.3,Time
,,328537,328537,1,ÄÐ,21,2025-06-04_14h55.23.145,Serial_Dependence_U,2023.2.3,Win32,163.9344262,,,,,,2008.5236,231.0,6.0,2008.5236,231.0,,,,2011.8643,2012.3611,2011.3615,2011.8643,2009.5253,2011.3614,2012.3611,2012.858,2012.858,2014.4217,1303.0,2014.4217,5.0,2014.4259,6.0,20.0,200.0,5.0,1.0,0.8,0.7,Time
,,328537,328537,1,ÄÐ,21,2025-06-04_14h55.23.145,Serial_Dependence_U,2023.2.3,Win32,163.9344262,,,,,,2014.4261,293.0,6.0,2014.4262,293.0,,,,2017.991,2018.4876,2017.4881,2017.991,2015.4275,2017.4881,2018.4876,2018.9845,2018.9845,2020.7846,1442.0,2020.7846,5.0,2020.7885,6.0,21.0,201.0,1.0,1.0,1.0,0.3,Time
,,328537,328537,1,ÄÐ,21,2025-06-04_14h55.23.145,Serial_Dependence_U,2023.2.3,Win32,163.9344262,,,,,,2020.7887,153.0,6.0,2020.7887,153.0,,,,2024.1599,2024.6567,2023.6571,2024.1598,2021.7905,2023.6571,2024.6568,2025.1534,2025.1534,2026.8504,1335.0,2026.8504,5.0,2026.8545,6.0,22.0,202.0,20.0,1.0,0.8,0.3,Time
,,328537,328537,1,ÄÐ,21,2025-06-04_14h55.23.145,Serial_Dependence_U,2023.2.3,Win32,163.9344262,,,,,,2026.8547,139.0,6.0,2026.8547,139.0,,,,2030.7955,2031.2921,2030.2925,2030.7954,2027.8564,2030.2925,2031.2922,2031.7891,2031.7891,2033.789,1571.0,2033.789,4.0,2033.7932,6.0,23.0,203.0,18.0,1.0,1.4,0.7,Time
,,328537,328537,1,ÄÐ,21,2025-06-04_14h55.23.145,Serial_Dependence_U,2023.2.3,Win32,163.9344262,,,,,,2033.7934,211.0,6.0,2033.7934,211.0,,,,2037.5341,2038.0307,2037.0312,2037.5341,2034.795,2037.0311,2038.0308,2038.5276,2038.5277,2040.6185,1666.0,2040.6185,5.0,2040.6225,6.0,24.0,204.0,17.0,1.0,1.2,0.7,Time
,,328537,328537,1,ÄÐ,21,2025-06-04_14h55.23.145,Serial_Dependence_U,2023.2.3,Win32,163.9344262,,,,,,2040.6227,230.0,6.0,2040.6228,230.0,,,,2044.1636,2044.6603,2043.6607,2044.1635,2041.6245,2043.6606,2044.6603,2045.1571,2045.1572,2047.8237,1363.0,2047.8237,5.0,2047.8278,6.0,25.0,205.0,6.0,1.0,1.0,0.7,Time
,,328537,328537,1,ÄÐ,21,2025-06-04_14h55.23.145,Serial_Dependence_U,2023.2.3,Win32,163.9344262,,,,,,2047.8279,174.0,6.0,2047.828,174.0,,,,2051.9991,2052.4956,2051.4961,2051.999,2048.8298,2051.496,2052.4957,2052.9879,2052.9879,2054.7623,1458.0,2054.7623,2.0,2054.7662,6.0,26.0,206.0,4.0,1.0,1.6,0.3,Time
,,328537,328537,1,ÄÐ,21,2025-06-04_14h55.23.145,Serial_Dependence_U,2023.2.3,Win32,163.9344262,,,,,,2054.7663,255.0,6.0,2054.7664,255.0,,,,2058.5073,2059.0039,2058.0044,2058.5072,2055.7683,2058.0043,2059.0039,2059.5009,2059.5009,2061.6221,1637.0,2061.6222,5.0,2061.6262,6.0,27.0,207.0,7.0,1.0,1.2,0.7,Time
,,328537,328537,1,ÄÐ,21,2025-06-04_14h55.23.145,Serial_Dependence_U,2023.2.3,Win32,163.9344262,,,,,,2061.6264,100.0,6.0,2061.6265,100.0,,,,2065.5671,2066.0638,2065.0642,2065.5671,2062.6281,2065.0641,2066.0639,2066.5606,2066.5606,2070.0635,1777.0,2070.0635,4.0,2070.0677,6.0,28.0,208.0,8.0,1.0,1.4,0.7,Time
,,328537,328537,1,ÄÐ,21,2025-06-04_14h55.23.145,Serial_Dependence_U,2023.2.3,Win32,163.9344262,,,,,,2070.0679,305.0,6.0,2070.0679,305.0,,,,2073.4086,2073.9053,2072.9056,2073.4085,2071.0695,2072.9055,2073.9053,2074.4021,2074.4021,2076.1779,1524.0,2076.1779,5.0,2076.1817,6.0,29.0,209.0,25.0,1.0,0.8,0.7,Time
,,328537,328537,1,ÄÐ,21,2025-06-04_14h55.23.145,Serial_Dependence_U,2023.2.3,Win32,163.9344262,,,,,,2076.1818,353.0,7.0,2100.1935,353.0,s,24.0064,,2103.7566,2104.2532,2103.2536,2103.7565,2101.1932,2103.2536,2104.2532,2104.7501,2104.7501,2106.6834,1381.0,2106.6834,5.0,2106.6877,7.0,0.0,210.0,11.0,1.0,1.0,0.3,Time
,,328537,328537,1,ÄÐ,21,2025-06-04_14h55.23.145,Serial_Dependence_U,2023.2.3,Win32,163.9344262,,,,,,2106.6879,201.0,7.0,2106.6886,201.0,,,,2110.2587,2110.7554,2109.7559,2110.2587,2107.6894,2109.7558,2110.7554,2111.2523,2111.2523,2112.925,1323.0,2112.9251,5.0,2112.9291,7.0,1.0,211.0,21.0,1.0,1.0,0.3,Time
,,328537,328537,1,ÄÐ,21,2025-06-04_14h55.23.145,Serial_Dependence_U,2023.2.3,Win32,163.9344262,,,,,,2112.9292,117.0,7.0,2112.9293,117.0,,,,2116.3005,2116.7971,2115.7975,2116.3004,2113.9311,2115.7975,2116.7971,2117.294,2117.294,2118.9631,1284.0,2118.9631,5.0,2118.967,7.0,2.0,212.0,10.0,1.0,0.8,0.3,Time
,,328537,328537,1,ÄÐ,21,2025-06-04_14h55.23.145,Serial_Dependence_U,2023.2.3,Win32,163.9344262,,,,,,2118.9672,308.0,7.0,2118.9673,308.0,,,,2122.53,2123.0267,2122.0271,2122.53,2119.9667,2122.027,2123.0267,2123.5235,2123.5236,2151.0902,1363.0,2151.0903,5.0,2151.0944,7.0,3.0,213.0,1.0,1.0,1.0,0.3,Time
,,328537,328537,1,ÄÐ,21,2025-06-04_14h55.23.145,Serial_Dependence_U,2023.2.3,Win32,163.9344262,,,,,,2151.0945,305.0,7.0,2151.0946,305.0,,,,2155.2353,2155.7318,2154.7323,2155.2353,2152.0963,2154.7323,2155.7318,2156.2288,2156.2288,2170.0818,1381.0,2170.0819,2.0,2170.0863,7.0,4.0,214.0,29.0,1.0,1.6,0.7,Time
,,328537,328537,1,ÄÐ,21,2025-06-04_14h55.23.145,Serial_Dependence_U,2023.2.3,Win32,163.9344262,,,,,,2170.0864,317.0,7.0,2170.0865,317.0,,,,2174.0271,2174.5244,2173.524,2174.027,2171.0879,2173.524,2174.5244,2175.0205,2175.0205,2177.1841,1654.0,2177.1842,4.0,2177.1886,7.0,5.0,215.0,18.0,1.0,1.4,0.7,Time
,,328537,328537,1,ÄÐ,21,2025-06-04_14h55.23.145,Serial_Dependence_U,2023.2.3,Win32,163.9344262,,,,,,2177.1889,168.0,7.0,2177.1889,168.0,,,,2181.3594,2181.8561,2180.8564,2181.3594,2178.19,2180.8564,2181.8561,2182.3529,2182.3529,2184.3226,1637.0,2184.3226,3.0,2184.3268,7.0,6.0,216.0,14.0,1.0,1.6,0.3,Time
,,328537,328537,1,ÄÐ,21,2025-06-04_14h55.23.145,Serial_Dependence_U,2023.2.3,Win32,163.9344262,,,,,,2184.327,349.0,7.0,2184.327,349.0,,,,2187.6677,2188.1643,2187.1648,2187.6677,2185.3286,2187.1648,2188.1643,2188.6614,2188.6614,2189.728,970.0,2189.7281,4.0,2189.7325,7.0,7.0,217.0,15.0,1.0,0.8,0.7,Time
,,328537,328537,1,ÄÐ,21,2025-06-04_14h55.23.145,Serial_Dependence_U,2023.2.3,Win32,163.9344262,,,,,,2189.7327,187.0,7.0,2189.7327,187.0,,,,2193.5035,2194.0001,2193.0005,2193.5034,2190.7341,2193.0004,2194.0001,2194.497,2194.497,2196.4302,1663.0,2196.4302,5.0,2196.4342,7.0,8.0,218.0,22.0,1.0,1.2,0.3,Time
,,328537,328537,1,ÄÐ,21,2025-06-04_14h55.23.145,Serial_Dependence_U,2023.2.3,Win32,163.9344262,,,,,,2196.4344,123.0,7.0,2196.4345,123.0,,,,2200.2058,2200.7023,2199.7027,2200.2057,2197.4362,2199.7026,2200.7023,2201.1992,2201.1992,2203.1204,1623.0,2203.1204,5.0,2203.1244,7.0,9.0,219.0,12.0,1.0,1.2,0.3,Time
,,328537,328537,1,ÄÐ,21,2025-06-04_14h55.23.145,Serial_Dependence_U,2023.2.3,Win32,163.9344262,,,,,,2203.1246,216.0,7.0,2203.1247,216.0,,,,2206.4655,2206.9624,2205.9626,2206.4654,2204.1264,2205.9626,2206.9624,2207.459,2207.4591,2209.1076,1261.0,2209.1077,5.0,2209.1119,7.0,10.0,220.0,5.0,1.0,0.8,0.7,Time
,,328537,328537,1,ÄÐ,21,2025-06-04_14h55.23.145,Serial_Dependence_U,2023.2.3,Win32,163.9344262,,,,,,2209.112,306.0,7.0,2209.1121,306.0,,,,2212.8526,2213.3493,2212.3497,2212.8526,2210.1135,2212.3496,2213.3494,2213.8461,2213.8462,2215.5068,1418.0,2215.5069,4.0,2215.5111,7.0,11.0,221.0,7.0,1.0,1.2,0.7,Time
,,328537,328537,1,ÄÐ,21,2025-06-04_14h55.23.145,Serial_Dependence_U,2023.2.3,Win32,163.9344262,,,,,,2215.5113,268.0,7.0,2215.5113,268.0,,,,2219.2762,2219.7728,2218.7732,2219.2762,2216.5128,2218.7731,2219.7728,2220.2697,2220.2698,2222.0154,1458.0,2222.0154,4.0,2222.0196,7.0,12.0,222.0,2.0,1.0,1.2,0.3,Time
,,328537,328537,1,ÄÐ,21,2025-06-04_14h55.23.145,Serial_Dependence_U,2023.2.3,Win32,163.9344262,,,,,,2222.0197,194.0,7.0,2222.0198,194.0,,,,2225.3846,2225.8812,2224.8815,2225.3845,2223.0211,2224.8815,2225.8812,2226.378,2226.378,2227.6811,914.0,2227.6811,4.0,2227.6856,7.0,13.0,223.0,20.0,1.0,0.8,0.3,Time
,,328537,328537,1,ÄÐ,21,2025-06-04_14h55.23.145,Serial_Dependence_U,2023.2.3,Win32,163.9344262,,,,,,2227.6858,124.0,7.0,2227.6858,124.0,,,,2231.4262,2231.9228,2230.9233,2231.4262,2228.6872,2230.9232,2231.9228,2232.4198,2232.4198,2233.7534,1094.0,2233.7534,2.0,2233.7577,7.0,14.0,224.0,17.0,1.0,1.2,0.7,Time
,,328537,328537,1,ÄÐ,21,2025-06-04_14h55.23.145,Serial_Dependence_U,2023.2.3,Win32,163.9344262,,,,,,2233.7578,324.0,7.0,2233.7579,324.0,,,,2237.4982,2237.9949,2236.9953,2237.4982,2234.7592,2236.9953,2237.9949,2238.4918,2238.4918,2240.2311,1462.0,2240.2312,4.0,2240.2352,7.0,15.0,225.0,27.0,1.0,1.2,0.7,Time
,,328537,328537,1,ÄÐ,21,2025-06-04_14h55.23.145,Serial_Dependence_U,2023.2.3,Win32,163.9344262,,,,,,2240.2355,236.0,7.0,2240.2355,236.0,,,,2243.7762,2244.2729,2243.2734,2243.7762,2241.2372,2243.2733,2244.2729,2244.7698,2244.7699,2246.6425,1535.0,2246.6426,5.0,2246.6468,7.0,16.0,226.0,16.0,1.0,1.0,0.7,Time
,,328537,328537,1,ÄÐ,21,2025-06-04_14h55.23.145,Serial_Dependence_U,2023.2.3,Win32,163.9344262,,,,,,2246.6469,108.0,7.0,2246.647,108.0,,,,2250.1876,2250.6843,2249.6846,2250.1875,2247.6485,2249.6846,2250.6843,2251.1812,2251.1812,2253.5629,1829.0,2253.5629,5.0,2253.5673,7.0,17.0,227.0,6.0,1.0,1.0,0.7,Time
,,328537,328537,1,ÄÐ,21,2025-06-04_14h55.23.145,Serial_Dependence_U,2023.2.3,Win32,163.9344262,,,,,,2253.5674,254.0,7.0,2253.5675,254.0,,,,2257.5383,2258.0349,2257.0354,2257.5382,2254.5689,2257.0353,2258.0349,2258.5318,2258.5318,2260.2046,1345.0,2260.2046,3.0,2260.2089,7.0,18.0,228.0,13.0,1.0,1.4,0.3,Time
,,328537,328537,1,ÄÐ,21,2025-06-04_14h55.23.145,Serial_Dependence_U,2023.2.3,Win32,163.9344262,,,,,,2260.2091,272.0,7.0,2260.2092,272.0,,,,2264.3495,2264.8462,2263.8466,2264.3495,2261.2104,2263.8466,2264.8462,2265.3432,2265.3432,2267.5976,1776.0,2267.5976,4.0,2267.6018,7.0,19.0,229.0,9.0,1.0,1.6,0.7,Time
,,328537,328537,1,ÄÐ,21,2025-06-04_14h55.23.145,Serial_Dependence_U,2023.2.3,Win32,163.9344262,,,,,,2267.602,138.0,7.0,2267.602,138.0,,,,2271.7729,2272.2695,2271.27,2271.7729,2268.6035,2271.2699,2272.2695,2272.7665,2272.7665,2275.2452,2104.0,2275.2452,5.0,2275.2495,7.0,20.0,230.0,24.0,1.0,1.6,0.3,Time
,,328537,328537,1,ÄÐ,21,2025-06-04_14h55.23.145,Serial_Dependence_U,2023.2.3,Win32,163.9344262,,,,,,2275.2497,109.0,7.0,2275.2498,109.0,,,,2278.7905,2279.2869,2278.2873,2278.7904,2276.2512,2278.2873,2279.2869,2279.7838,2279.7838,2282.0626,1832.0,2282.0626,5.0,2282.0669,7.0,21.0,231.0,26.0,1.0,1.0,0.7,Time
,,328537,328537,1,ÄÐ,21,2025-06-04_14h55.23.145,Serial_Dependence_U,2023.2.3,Win32,163.9344262,,,,,,2282.067,354.0,7.0,2282.0671,354.0,,,,2286.038,2286.5358,2285.535,2286.0379,2283.0685,2285.5349,2286.5358,2287.0315,2287.0315,2288.783,1434.0,2288.783,3.0,2288.7875,7.0,22.0,232.0,3.0,1.0,1.4,0.3,Time
,,328537,328537,1,ÄÐ,21,2025-06-04_14h55.23.145,Serial_Dependence_U,2023.2.3,Win32,163.9344262,,,,,,2288.7877,315.0,7.0,2288.7877,315.0,,,,2292.9279,2293.4247,2292.4251,2292.9279,2289.789,2292.425,2293.4247,2293.9217,2293.9217,2296.0306,1893.0,2296.0306,4.0,2296.0348,7.0,23.0,233.0,19.0,1.0,1.6,0.7,Time
,,328537,328537,1,ÄÐ,21,2025-06-04_14h55.23.145,Serial_Dependence_U,2023.2.3,Win32,163.9344262,,,,,,2296.0349,125.0,7.0,2296.035,125.0,,,,2299.9757,2300.4723,2299.4727,2299.9756,2297.0366,2299.4727,2300.4723,2300.9693,2300.9693,2303.2479,1836.0,2303.2479,5.0,2303.252,7.0,24.0,234.0,8.0,1.0,1.4,0.7,Time
,,328537,328537,1,ÄÐ,21,2025-06-04_14h55.23.145,Serial_Dependence_U,2023.2.3,Win32,163.9344262,,,,,,2303.2522,161.0,7.0,2303.2523,161.0,,,,2307.2233,2307.7199,2306.7203,2307.2232,2304.254,2306.7202,2307.72,2308.2168,2308.2168,2310.1017,1582.0,2310.1017,4.0,2310.1057,7.0,25.0,235.0,23.0,1.0,1.4,0.3,Time
,,328537,328537,1,ÄÐ,21,2025-06-04_14h55.23.145,Serial_Dependence_U,2023.2.3,Win32,163.9344262,,,,,,2310.1059,190.0,7.0,2310.1059,190.0,,,,2313.4711,2313.9676,2312.9681,2313.471,2311.1075,2312.9681,2313.9677,2314.4646,2314.4646,2316.0829,1597.0,2316.083,5.0,2316.0867,7.0,26.0,236.0,0.0,1.0,0.8,0.3,Time
,,328537,328537,1,ÄÐ,21,2025-06-04_14h55.23.145,Serial_Dependence_U,2023.2.3,Win32,163.9344262,,,,,,2316.087,155.0,7.0,2316.087,155.0,,,,2319.4279,2319.9245,2318.9249,2319.4278,2317.0888,2318.9249,2319.9245,2320.4215,2320.4215,2324.8272,974.0,2324.8272,4.0,2324.8314,7.0,27.0,237.0,25.0,1.0,0.8,0.7,Time
,,328537,328537,1,ÄÐ,21,2025-06-04_14h55.23.145,Serial_Dependence_U,2023.2.3,Win32,163.9344262,,,,,,2324.8315,319.0,7.0,2324.8316,319.0,,,,2329.0025,2329.4992,2328.4995,2329.0025,2325.8332,2328.4994,2329.4992,2329.9961,2329.9961,2332.0385,1721.0,2332.0385,4.0,2332.0425,7.0,28.0,238.0,4.0,1.0,1.6,0.3,Time
,,328537,328537,1,ÄÐ,21,2025-06-04_14h55.23.145,Serial_Dependence_U,2023.2.3,Win32,163.9344262,,,,,,2332.0427,137.0,7.0,2332.0427,137.0,,,,2335.9835,2336.4801,2335.4806,2335.9834,2333.0445,2335.4806,2336.4801,2336.977,2336.977,2339.1951,1548.0,2339.1951,4.0,2339.1991,7.0,29.0,239.0,28.0,1.0,1.4,0.7,Time
,,328537,328537,1,ÄÐ,21,2025-06-04_14h55.23.145,Serial_Dependence_U,2023.2.3,Win32,163.9344262,,,,,,2339.1993,175.0,8.0,2592.5148,175.0,s,253.3057,,2595.8869,2596.3826,2595.383,2595.8868,2593.5166,2595.383,2596.3826,2596.8796,2596.8796,2598.4008,1146.0,2598.4009,5.0,2598.405,8.0,0.0,240.0,20.0,1.0,0.8,0.3,Time
,,328537,328537,1,ÄÐ,21,2025-06-04_14h55.23.145,Serial_Dependence_U,2023.2.3,Win32,163.9344262,,,,,,2598.4051,148.0,8.0,2598.4062,148.0,,,,2602.1458,2602.6425,2601.6429,2602.1458,2599.4068,2601.6428,2602.6425,2603.1394,2603.1394,2605.2545,1542.0,2605.2545,4.0,2605.2585,8.0,1.0,241.0,17.0,1.0,1.2,0.7,Time
,,328537,328537,1,ÄÐ,21,2025-06-04_14h55.23.145,Serial_Dependence_U,2023.2.3,Win32,163.9344262,,,,,,2605.2588,167.0,8.0,2605.2588,167.0,,,,2609.4298,2609.9264,2608.9269,2609.4298,2606.2605,2608.9268,2609.9264,2610.4233,2610.4234,2613.1263,1770.0,2613.1263,4.0,2613.1305,8.0,2.0,242.0,4.0,1.0,1.6,0.3,Time
,,328537,328537,1,ÄÐ,21,2025-06-04_14h55.23.145,Serial_Dependence_U,2023.2.3,Win32,163.9344262,,,,,,2613.1307,110.0,8.0,2613.1308,110.0,,,,2616.6713,2617.168,2616.1684,2616.6713,2614.1323,2616.1684,2617.168,2617.6649,2617.6649,2619.5618,1338.0,2619.562,5.0,2619.5659,8.0,3.0,243.0,6.0,1.0,1.0,0.7,Time
,,328537,328537,1,ÄÐ,21,2025-06-04_14h55.23.145,Serial_Dependence_U,2023.2.3,Win32,163.9344262,,,,,,2619.566,35.0,8.0,2619.5661,35.0,,,,2623.507,2624.0035,2623.004,2623.5069,2620.5678,2623.0039,2624.0035,2624.5005,2624.5005,2626.7065,1772.0,2626.7065,4.0,2626.7107,8.0,4.0,244.0,28.0,1.0,1.4,0.7,Time
,,328537,328537,1,ÄÐ,21,2025-06-04_14h55.23.145,Serial_Dependence_U,2023.2.3,Win32,163.9344262,,,,,,2626.7108,94.0,8.0,2626.711,94.0,,,,2630.6758,2631.1724,2630.1729,2630.6757,2627.7067,2630.1728,2631.1724,2631.6694,2631.6694,2633.7787,1710.0,2633.7787,4.0,2633.7826,8.0,5.0,245.0,13.0,1.0,1.4,0.3,Time
,,328537,328537,1,ÄÐ,21,2025-06-04_14h55.23.145,Serial_Dependence_U,2023.2.3,Win32,163.9344262,,,,,,2633.7827,247.0,8.0,2633.7828,247.0,,,,2637.1235,2637.6201,2636.6205,2637.1234,2634.7844,2636.6205,2637.6201,2638.117,2638.1171,2639.608,1138.0,2639.608,5.0,2639.612,8.0,6.0,246.0,25.0,1.0,0.8,0.7,Time
,,328537,328537,1,ÄÐ,21,2025-06-04_14h55.23.145,Serial_Dependence_U,2023.2.3,Win32,163.9344262,,,,,,2639.6122,146.0,8.0,2639.6122,146.0,,,,2642.9781,2643.474,2642.4744,2642.978,2640.614,2642.4744,2643.474,2643.9709,2643.9709,2645.4255,1212.0,2645.4255,5.0,2645.4295,8.0,7.0,247.0,10.0,1.0,0.8,0.3,Time
,,328537,328537,1,ÄÐ,21,2025-06-04_14h55.23.145,Serial_Dependence_U,2023.2.3,Win32,163.9344262,,,,,,2645.4297,185.0,8.0,2645.4297,185.0,,,,2649.2009,2649.6974,2648.6979,2649.2009,2646.4314,2648.6979,2649.6974,2650.1944,2650.1945,2652.1398,1496.0,2652.1399,4.0,2652.1439,8.0,8.0,248.0,12.0,1.0,1.2,0.3,Time
,,328537,328537,1,ÄÐ,21,2025-06-04_14h55.23.145,Serial_Dependence_U,2023.2.3,Win32,163.9344262,,,,,,2652.1441,107.0,8.0,2652.1442,107.0,,,,2655.4849,2655.9816,2654.982,2655.4849,2653.1458,2654.9819,2655.9817,2656.4785,2656.4785,2657.8725,1103.0,2657.8726,5.0,2657.8765,8.0,9.0,249.0,5.0,1.0,0.8,0.7,Time
,,328537,328537,1,ÄÐ,21,2025-06-04_14h55.23.145,Serial_Dependence_U,2023.2.3,Win32,163.9344262,,,,,,2657.8767,191.0,8.0,2657.8768,191.0,,,,2661.4418,2661.9384,2660.939,2661.4417,2658.8784,2660.9389,2661.9384,2662.4354,2662.4354,2664.1327,1345.0,2664.1327,5.0,2664.1368,8.0,10.0,250.0,11.0,1.0,1.0,0.3,Time
,,328537,328537,1,ÄÐ,21,2025-06-04_14h55.23.145,Serial_Dependence_U,2023.2.3,Win32,163.9344262,,,,,,2664.1369,72.0,8.0,2664.137,72.0,,,,2667.9077,2668.4043,2667.4047,2667.9077,2665.1383,2667.4047,2668.4043,2668.9013,2668.9013,2670.5315,1395.0,2670.5316,4.0,2670.5355,8.0,11.0,251.0,2.0,1.0,1.2,0.3,Time
,,328537,328537,1,ÄÐ,21,2025-06-04_14h55.23.145,Serial_Dependence_U,2023.2.3,Win32,163.9344262,,,,,,2670.5356,46.0,8.0,2670.5356,46.0,,,,2674.2767,2674.7733,2673.7735,2674.2767,2671.5375,2673.7735,2674.7733,2675.2702,2675.2702,2677.1732,1491.0,2677.1733,4.0,2677.1773,8.0,12.0,252.0,27.0,1.0,1.2,0.7,Time
,,328537,328537,1,ÄÐ,21,2025-06-04_14h55.23.145,Serial_Dependence_U,2023.2.3,Win32,163.9344262,,,,,,2677.1775,223.0,8.0,2677.1776,223.0,,,,2680.9426,2681.4392,2680.4396,2680.9425,2678.1791,2680.4395,2681.4392,2681.9361,2681.9361,2683.7239,1441.0,2683.724,4.0,2683.7281,8.0,13.0,253.0,22.0,1.0,1.2,0.3,Time
,,328537,328537,1,ÄÐ,21,2025-06-04_14h55.23.145,Serial_Dependence_U,2023.2.3,Win32,163.9344262,,,,,,2683.7283,99.0,8.0,2683.7283,99.0,,,,2687.6994,2688.1959,2687.1963,2687.6993,2684.7299,2687.1963,2688.1959,2688.6928,2688.6928,2690.4505,1456.0,2690.4505,3.0,2690.4544,8.0,14.0,254.0,3.0,1.0,1.4,0.3,Time
,,328537,328537,1,ÄÐ,21,2025-06-04_14h55.23.145,Serial_Dependence_U,2023.2.3,Win32,163.9344262,,,,,,2690.4546,181.0,8.0,2690.4546,181.0,,,,2693.9955,2694.4922,2693.4926,2693.9954,2691.4564,2693.4926,2694.4922,2694.9891,2694.9891,2696.9648,1463.0,2696.9648,5.0,2696.9688,8.0,15.0,255.0,16.0,1.0,1.0,0.7,Time
,,328537,328537,1,ÄÐ,21,2025-06-04_14h55.23.145,Serial_Dependence_U,2023.2.3,Win32,163.9344262,,,,,,2696.9691,154.0,8.0,2696.9692,154.0,,,,2700.51,2701.0066,2700.0069,2700.5099,2697.9708,2700.0069,2701.0066,2701.5036,2701.5036,2703.6791,1470.0,2703.6792,5.0,2703.6833,8.0,16.0,256.0,26.0,1.0,1.0,0.7,Time
,,328537,328537,1,ÄÐ,21,2025-06-04_14h55.23.145,Serial_Dependence_U,2023.2.3,Win32,163.9344262,,,,,,2703.6835,98.0,8.0,2703.6836,98.0,,,,2707.6243,2708.1208,2707.1212,2707.6242,2704.6853,2707.1211,2708.1208,2708.6178,2708.6178,2710.8238,1750.0,2710.8238,4.0,2710.828,8.0,17.0,257.0,18.0,1.0,1.4,0.7,Time
,,328537,328537,1,ÄÐ,21,2025-06-04_14h55.23.145,Serial_Dependence_U,2023.2.3,Win32,163.9344262,,,,,,2710.8282,80.0,8.0,2710.8282,80.0,,,,2714.3991,2714.8958,2713.8963,2714.399,2711.8298,2713.8962,2714.8958,2715.3928,2715.3928,2717.3321,1514.0,2717.3322,5.0,2717.336,8.0,18.0,258.0,1.0,1.0,1.0,0.3,Time
,,328537,328537,1,ÄÐ,21,2025-06-04_14h55.23.145,Serial_Dependence_U,2023.2.3,Win32,163.9344262,,,,,,2717.3363,227.0,8.0,2717.3363,227.0,,,,2721.2712,2721.7676,2720.7686,2721.2711,2718.3381,2720.7686,2721.7677,2722.2646,2722.2647,2724.2342,1650.0,2724.2343,4.0,2724.2381,8.0,19.0,259.0,8.0,1.0,1.4,0.7,Time
,,328537,328537,1,ÄÐ,21,2025-06-04_14h55.23.145,Serial_Dependence_U,2023.2.3,Win32,163.9344262,,,,,,2724.2382,33.0,8.0,2724.2383,33.0,,,,2728.4097,2728.9062,2727.9068,2728.4096,2725.2404,2727.9067,2728.9062,2729.4031,2729.4032,2731.1426,1726.0,2731.1426,4.0,2731.1468,8.0,20.0,260.0,14.0,1.0,1.6,0.3,Time
,,328537,328537,1,ÄÐ,21,2025-06-04_14h55.23.145,Serial_Dependence_U,2023.2.3,Win32,163.9344262,,,,,,2731.147,57.0,8.0,2731.1471,57.0,,,,2735.3178,2735.8145,2734.8149,2735.3178,2732.1486,2734.8149,2735.8145,2736.3114,2736.3114,2738.4326,1719.0,2738.4326,4.0,2738.4366,8.0,21.0,261.0,24.0,1.0,1.6,0.3,Time
,,328537,328537,1,ÄÐ,21,2025-06-04_14h55.23.145,Serial_Dependence_U,2023.2.3,Win32,163.9344262,,,,,,2738.4367,325.0,8.0,2738.4368,325.0,,,,2741.808,2742.3047,2741.3051,2741.8079,2739.4386,2741.3051,2742.3047,2742.8016,2742.8017,2744.6197,1274.0,2744.6197,5.0,2744.624,8.0,22.0,262.0,0.0,1.0,0.8,0.3,Time
,,328537,328537,1,ÄÐ,21,2025-06-04_14h55.23.145,Serial_Dependence_U,2023.2.3,Win32,163.9344262,,,,,,2744.6241,272.0,8.0,2744.6242,272.0,,,,2748.3648,2748.8614,2747.8619,2748.3648,2745.6258,2747.8619,2748.8615,2749.3584,2749.3584,2751.213,1315.0,2751.213,4.0,2751.2169,8.0,23.0,263.0,7.0,1.0,1.2,0.7,Time
,,328537,328537,1,ÄÐ,21,2025-06-04_14h55.23.145,Serial_Dependence_U,2023.2.3,Win32,163.9344262,,,,,,2751.217,127.0,8.0,2751.2171,127.0,,,,2755.3578,2755.8546,2754.855,2755.3578,2752.2189,2754.855,2755.8546,2756.3515,2756.3515,2758.7757,1784.0,2758.7757,4.0,2758.7799,8.0,24.0,264.0,9.0,1.0,1.6,0.7,Time
,,328537,328537,1,ÄÐ,21,2025-06-04_14h55.23.145,Serial_Dependence_U,2023.2.3,Win32,163.9344262,,,,,,2758.7802,224.0,8.0,2758.7802,224.0,,,,2762.9207,2763.4173,2762.4177,2762.9207,2759.7816,2762.4176,2763.4173,2763.9143,2763.9143,2766.1928,1814.0,2766.1929,4.0,2766.1968,8.0,25.0,265.0,19.0,1.0,1.6,0.7,Time
,,328537,328537,1,ÄÐ,21,2025-06-04_14h55.23.145,Serial_Dependence_U,2023.2.3,Win32,163.9344262,,,,,,2766.1969,101.0,8.0,2766.197,101.0,,,,2769.7623,2770.2589,2769.2594,2769.7623,2767.1989,2769.2594,2770.2589,2770.7558,2770.7558,2773.386,1915.0,2773.386,5.0,2773.3903,8.0,26.0,266.0,21.0,1.0,1.0,0.3,Time
,,328537,328537,1,ÄÐ,21,2025-06-04_14h55.23.145,Serial_Dependence_U,2023.2.3,Win32,163.9344262,,,,,,2773.3904,253.0,8.0,2773.3905,253.0,,,,2776.7311,2777.2277,2776.2282,2776.7311,2774.392,2776.2281,2777.2277,2777.7247,2777.7247,2779.9186,1570.0,2779.9187,5.0,2779.9226,8.0,27.0,267.0,15.0,1.0,0.8,0.7,Time
,,328537,328537,1,ÄÐ,21,2025-06-04_14h55.23.145,Serial_Dependence_U,2023.2.3,Win32,163.9344262,,,,,,2779.9228,200.0,8.0,2779.9228,200.0,,,,2783.894,2784.3905,2783.391,2783.894,2780.9246,2783.3909,2784.3905,2784.8876,2784.8876,2787.1481,1833.0,2787.1481,5.0,2787.1521,8.0,28.0,268.0,23.0,1.0,1.4,0.3,Time
,,328537,328537,1,ÄÐ,21,2025-06-04_14h55.23.145,Serial_Dependence_U,2023.2.3,Win32,163.9344262,,,,,,2787.1523,306.0,8.0,2787.1524,306.0,,,,2791.2931,2791.7897,2790.7901,2791.293,2788.1541,2790.7901,2791.7897,2792.2866,2792.2867,2794.7047,2000.0,2794.7047,4.0,2794.7089,8.0,29.0,269.0,29.0,1.0,1.6,0.7,Time
