Scale_setup.started,Scale_setup.stopped,participant,session,sex,age,date,expName,psychopyVersion,OS,frameRate,screen_scale_keys.started,screen_scale_keys.stopped,X Scale,Y Scale,rectangel_keys.started,rectangel_keys.stopped,Intro.started,Intro.stopped,key_resp_2.keys,key_resp_2.rt,key_resp_2.duration,block.started,Block_id,block.stopped,Block_resp_2.keys,Block_resp_2.rt,Block_resp_2.duration,ITI.started,ITI.stopped,Mask_2.started,Mask_2.stopped,M2.started,direction,M2.stopped,Cue.started,Cue.stopped,Response.started,Response.stopped,keyDuration,Feedback_Time.started,FeedbackID_T,Feedback_Time.stopped,trials.thisRepN,trials.thisTrialN,trials.thisN,trials.thisIndex,trials.ran,TimeDur,Coherence1,TrialType
0.0003,0.0008,S08,1,Female,20,anonymized,Serial_Dependence_U,2023.2.3,Win32,120.4819277,,,,,,,,,,,,,,,,,,,,,,,,,,,,,,,,,,,,,,,,
,,S08,1,Female,20,anonymized,Serial_Dependence_U,2023.2.3,Win32,120.4819277,0.0056,68.8367,0.0574,0.0575,68.8368,86.801,86.8016,122.4223,space,35.5842,,,,,,,,,,,,,,,,,,,,,,,,,,,,,,
,,S08,1,Female,20,anonymized,Serial_Dependence_U,2023.2.3,Win32,120.4819277,,,,,,,,,,,,122.4318,0.0,126.9364,s,4.4856,,129.6601,130.1593,129.1522,129.66,127.9454,117.0,129.1521,130.1595,130.6591,130.6594,136.6648,9999.0,136.6657,0.0,137.6634,0.0,0.0,0.0,12.0,1.0,1.2,0.3,Time
,,S08,1,Female,20,anonymized,Serial_Dependence_U,2023.2.3,Win32,120.4819277,,,,,,,,,,,,137.6643,0.0,137.6663,,,,140.5869,141.0862,140.0789,140.5868,138.6719,280.0,140.0789,141.0863,141.5859,141.586,145.513,1502.6,145.5132,4.0,146.5082,0.0,1.0,1.0,28.0,1.0,1.4,0.7,Time
,,S08,1,Female,20,anonymized,Serial_Dependence_U,2023.2.3,Win32,120.4819277,,,,,,,,,,,,146.5088,0.0,146.5093,,,,149.0324,149.5314,148.5245,149.0321,147.5164,284.0,148.5243,149.5314,150.0313,150.0313,151.8223,982.8,151.8229,3.0,152.8212,0.0,2.0,2.0,1.0,1.0,1.0,0.3,Time
,,S08,1,Female,20,anonymized,Serial_Dependence_U,2023.2.3,Win32,120.4819277,,,,,,,,,,,,152.8218,0.0,152.8223,,,,155.1459,155.6446,154.6379,155.1457,153.8299,355.0,154.6375,155.6448,156.1443,156.1444,158.256,925.2,158.2562,4.0,159.2509,0.0,3.0,3.0,5.0,1.0,0.8,0.7,Time
,,S08,1,Female,20,anonymized,Serial_Dependence_U,2023.2.3,Win32,120.4819277,,,,,,,,,,,,159.2512,0.0,159.2514,,,,162.3751,162.8738,161.8704,162.3749,160.2595,273.0,161.8703,162.8738,163.3736,163.3736,165.2147,1167.3,165.2148,2.0,166.2137,0.0,4.0,4.0,4.0,1.0,1.6,0.3,Time
,,S08,1,Female,20,anonymized,Serial_Dependence_U,2023.2.3,Win32,120.4819277,,,,,,,,,,,,166.2141,0.0,166.2143,,,,168.7319,169.2285,168.2298,168.7319,167.2218,234.0,168.2295,169.2286,169.7283,169.7283,171.3315,1008.7,171.3316,3.0,172.3267,0.0,5.0,5.0,6.0,1.0,1.0,0.7,Time
,,S08,1,Female,20,anonymized,Serial_Dependence_U,2023.2.3,Win32,120.4819277,,,,,,,,,,,,172.327,0.0,172.3273,,,,174.8508,175.3499,174.3483,174.8505,173.335,16.0,174.3426,175.35,175.8498,175.8499,176.8356,856.8,176.8357,2.0,177.832,0.0,6.0,6.0,16.0,1.0,1.0,0.7,Time
,,S08,1,Female,20,anonymized,Serial_Dependence_U,2023.2.3,Win32,120.4819277,,,,,,,,,,,,177.8324,0.0,177.8326,,,,180.7477,181.2466,180.2419,180.7474,178.841,329.0,180.2418,181.2467,181.7464,181.7465,183.6581,758.4,183.6583,1.0,184.6529,0.0,7.0,7.0,13.0,1.0,1.4,0.3,Time
,,S08,1,Female,20,anonymized,Serial_Dependence_U,2023.2.3,Win32,120.4819277,,,,,,,,,,,,184.6532,0.0,184.6535,,,,187.5768,188.0761,187.0689,187.5768,185.6617,177.0,187.0687,188.0761,188.5757,188.5758,190.0838,912.3,190.0841,1.0,191.0826,0.0,8.0,8.0,8.0,1.0,1.4,0.7,Time
,,S08,1,Female,20,anonymized,Serial_Dependence_U,2023.2.3,Win32,120.4819277,,,,,,,,,,,,191.083,0.0,191.0834,,,,193.3989,193.8978,192.8908,193.3986,192.0854,131.0,192.8906,193.8979,194.3975,194.3976,196.2923,1256.4,196.2925,5.0,197.2874,0.0,9.0,9.0,0.0,1.0,0.8,0.3,Time
,,S08,1,Female,20,anonymized,Serial_Dependence_U,2023.2.3,Win32,120.4819277,,,,,,,,,,,,197.2878,0.0,197.288,,,,200.4115,200.9104,199.9031,200.4113,198.2957,41.0,199.903,200.9104,201.4101,201.4101,203.3219,1622.4,203.322,3.0,204.3167,0.0,10.0,10.0,24.0,1.0,1.6,0.3,Time
,,S08,1,Female,20,anonymized,Serial_Dependence_U,2023.2.3,Win32,120.4819277,,,,,,,,,,,,204.3171,0.0,204.3176,,,,207.4348,207.9313,206.9331,207.4347,205.3255,218.0,206.9327,207.9314,208.4312,208.4312,210.6716,1763.4,210.6718,4.0,211.6709,0.0,11.0,11.0,9.0,1.0,1.6,0.7,Time
,,S08,1,Female,20,anonymized,Serial_Dependence_U,2023.2.3,Win32,120.4819277,,,,,,,,,,,,211.6712,0.0,211.6716,,,,213.9955,214.4943,213.4874,213.9953,212.6797,203.0,213.4872,214.4943,214.9941,214.9941,216.9281,1571.1,216.9283,5.0,217.9257,0.0,12.0,12.0,10.0,1.0,0.8,0.3,Time
,,S08,1,Female,20,anonymized,Serial_Dependence_U,2023.2.3,Win32,120.4819277,,,,,,,,,,,,217.9262,0.0,217.9265,,,,220.65,221.1488,220.142,220.6497,218.9342,116.0,220.1418,221.1488,221.6487,221.6487,223.4767,928.2,223.4769,2.0,224.472,0.0,13.0,13.0,7.0,1.0,1.2,0.7,Time
,,S08,1,Female,20,anonymized,Serial_Dependence_U,2023.2.3,Win32,120.4819277,,,,,,,,,,,,224.4723,0.0,224.4726,,,,227.5956,228.0948,227.0879,227.5954,225.4805,276.0,227.0876,228.0948,228.5945,228.5946,230.6146,1378.4,230.6148,2.0,231.6095,0.0,14.0,14.0,29.0,1.0,1.6,0.7,Time
,,S08,1,Female,20,anonymized,Serial_Dependence_U,2023.2.3,Win32,120.4819277,,,,,,,,,,,,231.6099,0.0,231.6102,,,,234.5339,235.0325,234.0252,234.5337,232.6177,217.0,234.0251,235.0325,235.5323,235.5323,235.9072,40.1,235.9073,1.0,236.9065,0.0,15.0,15.0,18.0,1.0,1.4,0.7,Time
,,S08,1,Female,20,anonymized,Serial_Dependence_U,2023.2.3,Win32,120.4819277,,,,,,,,,,,,236.9067,0.0,236.9068,,,,239.4305,239.9297,238.9224,239.4305,237.915,222.0,238.9223,239.9298,240.4294,240.4296,242.1162,1563.6,242.1163,5.0,243.1113,0.0,16.0,16.0,11.0,1.0,1.0,0.3,Time
,,S08,1,Female,20,anonymized,Serial_Dependence_U,2023.2.3,Win32,120.4819277,,,,,,,,,,,,243.1116,0.0,243.1117,,,,245.4355,245.9347,244.9276,245.4354,244.1202,97.0,244.9274,245.9347,246.4344,246.4344,247.5289,796.0,247.5291,3.0,248.5248,0.0,17.0,17.0,15.0,1.0,0.8,0.7,Time
,,S08,1,Female,20,anonymized,Serial_Dependence_U,2023.2.3,Win32,120.4819277,,,,,,,,,,,,248.5251,0.0,248.5252,,,,251.0492,251.5481,250.541,251.0489,249.5334,123.0,250.5407,251.5481,252.0479,252.0479,253.0265,950.6,253.0267,3.0,254.0216,0.0,18.0,18.0,21.0,1.0,1.0,0.3,Time
,,S08,1,Female,20,anonymized,Serial_Dependence_U,2023.2.3,Win32,120.4819277,,,,,,,,,,,,254.022,0.0,254.0224,,,,256.937,257.4364,256.4291,256.937,255.0239,202.0,256.429,257.4364,257.9362,257.9362,259.4551,1248.6,259.4552,2.0,260.4512,0.0,19.0,19.0,3.0,1.0,1.4,0.3,Time
,,S08,1,Female,20,anonymized,Serial_Dependence_U,2023.2.3,Win32,120.4819277,,,,,,,,,,,,260.4515,0.0,260.4516,,,,263.1704,263.6662,262.6623,263.1703,261.4598,133.0,262.6622,263.6662,264.1659,264.1659,266.3316,1668.5,266.3319,5.0,267.3307,0.0,20.0,20.0,22.0,1.0,1.2,0.3,Time
,,S08,1,Female,20,anonymized,Serial_Dependence_U,2023.2.3,Win32,120.4819277,,,,,,,,,,,,267.331,0.0,267.3313,,,,270.4547,270.9537,269.947,270.4544,268.3416,280.0,269.9467,270.9537,271.4534,271.4536,273.4627,1708.0,273.4628,4.0,274.4599,0.0,21.0,21.0,19.0,1.0,1.6,0.7,Time
,,S08,1,Female,20,anonymized,Serial_Dependence_U,2023.2.3,Win32,120.4819277,,,,,,,,,,,,274.4603,0.0,274.4605,,,,276.9842,277.4831,276.4761,276.984,275.4686,332.0,276.4759,277.4832,277.9829,277.983,279.6946,1340.9,279.6947,5.0,280.6898,0.0,22.0,22.0,26.0,1.0,1.0,0.7,Time
,,S08,1,Female,20,anonymized,Serial_Dependence_U,2023.2.3,Win32,120.4819277,,,,,,,,,,,,280.69,0.0,280.6902,,,,283.4143,283.913,282.9062,283.4141,281.6982,70.0,282.9059,283.913,284.4127,284.4127,285.6739,898.9,285.6741,2.0,286.6696,0.0,23.0,23.0,27.0,1.0,1.2,0.7,Time
,,S08,1,Female,20,anonymized,Serial_Dependence_U,2023.2.3,Win32,120.4819277,,,,,,,,,,,,286.67,0.0,286.6702,,,,289.4023,289.9012,288.8939,289.402,287.6782,165.0,288.8881,289.9013,290.4009,290.4009,292.0709,1164.2,292.071,3.0,293.066,0.0,24.0,24.0,2.0,1.0,1.2,0.3,Time
,,S08,1,Female,20,anonymized,Serial_Dependence_U,2023.2.3,Win32,120.4819277,,,,,,,,,,,,293.0664,0.0,293.0665,,,,295.9902,296.4891,295.4821,295.9899,294.0747,15.0,295.4817,296.4891,296.9889,296.9889,298.1636,1159.0,298.164,2.0,299.1626,0.0,25.0,25.0,23.0,1.0,1.4,0.3,Time
,,S08,1,Female,20,anonymized,Serial_Dependence_U,2023.2.3,Win32,120.4819277,,,,,,,,,,,,299.1629,0.0,299.1633,,,,301.4871,301.9859,300.9792,301.4866,300.1715,52.0,300.979,301.986,302.4857,302.4858,303.6867,872.1,303.6871,4.0,304.6844,0.0,26.0,26.0,25.0,1.0,0.8,0.7,Time
,,S08,1,Female,20,anonymized,Serial_Dependence_U,2023.2.3,Win32,120.4819277,,,,,,,,,,,,304.6848,0.0,304.6849,,,,307.4086,307.9076,306.9007,307.4083,305.6925,242.0,306.9004,307.9076,308.4073,308.4073,309.8067,1049.5,309.8068,2.0,310.8059,0.0,27.0,27.0,17.0,1.0,1.2,0.7,Time
,,S08,1,Female,20,anonymized,Serial_Dependence_U,2023.2.3,Win32,120.4819277,,,,,,,,,,,,310.8061,0.0,310.8063,,,,313.1304,313.6292,312.6223,313.1302,311.8147,175.0,312.622,313.6292,314.1289,314.1291,315.4536,1288.6,315.454,5.0,316.4526,0.0,28.0,28.0,20.0,1.0,0.8,0.3,Time
,,S08,1,Female,20,anonymized,Serial_Dependence_U,2023.2.3,Win32,120.4819277,,,,,,,,,,,,316.4529,0.0,316.4531,,,,319.5767,320.0756,319.0687,319.5765,317.4608,179.0,319.0683,320.0756,320.5752,320.5753,322.5164,1619.8,322.5169,3.0,323.5152,0.0,29.0,29.0,14.0,1.0,1.6,0.3,Time
,,S08,1,Female,20,anonymized,Serial_Dependence_U,2023.2.3,Win32,120.4819277,,,,,,,,,,,,323.5156,1.0,462.8528,s,139.3226,,465.5761,466.0753,465.0681,465.576,463.8605,300.0,465.068,466.0754,466.5751,466.5751,468.2615,1328.6,468.2616,4.0,469.257,1.0,0.0,30.0,7.0,1.0,1.2,0.7,Time
,,S08,1,Female,20,anonymized,Serial_Dependence_U,2023.2.3,Win32,120.4819277,,,,,,,,,,,,469.2574,1.0,469.2596,,,,471.781,472.2801,471.2728,471.7808,470.2652,196.0,471.2727,472.2802,472.7799,472.7799,473.9295,883.0,473.9296,2.0,474.9288,1.0,1.0,31.0,21.0,1.0,1.0,0.3,Time
,,S08,1,Female,20,anonymized,Serial_Dependence_U,2023.2.3,Win32,120.4819277,,,,,,,,,,,,474.9295,1.0,474.93,,,,477.8467,478.3434,477.3446,477.8466,475.9374,272.0,477.3443,478.3434,478.8433,478.8433,478.9224,33.3,478.9226,1.0,479.9175,1.0,2.0,32.0,23.0,1.0,1.4,0.3,Time
,,S08,1,Female,20,anonymized,Serial_Dependence_U,2023.2.3,Win32,120.4819277,,,,,,,,,,,,479.9178,1.0,479.918,,,,482.6415,483.1407,482.1332,482.6413,480.9256,50.0,482.1331,483.1407,483.6403,483.6404,485.6769,1300.2,485.6771,4.0,486.6719,1.0,3.0,33.0,27.0,1.0,1.2,0.7,Time
,,S08,1,Female,20,anonymized,Serial_Dependence_U,2023.2.3,Win32,120.4819277,,,,,,,,,,,,486.6722,1.0,486.6724,,,,488.9964,489.4953,488.4884,488.9961,487.6802,129.0,488.4881,489.4953,489.995,489.9951,492.2565,1588.4,492.2568,5.0,493.2515,1.0,4.0,34.0,20.0,1.0,0.8,0.3,Time
,,S08,1,Female,20,anonymized,Serial_Dependence_U,2023.2.3,Win32,120.4819277,,,,,,,,,,,,493.2518,1.0,493.2519,,,,495.9674,496.4664,495.4594,495.9671,494.2541,336.0,495.4591,496.4664,496.9661,496.9662,498.2825,1007.3,498.283,2.0,499.2814,1.0,5.0,35.0,12.0,1.0,1.2,0.3,Time
,,S08,1,Female,20,anonymized,Serial_Dependence_U,2023.2.3,Win32,120.4819277,,,,,,,,,,,,499.2818,1.0,499.2819,,,,501.6096,502.1049,501.0977,501.6095,500.29,206.0,501.0974,502.105,502.6045,502.6047,503.0656,439.7,503.0657,1.0,504.062,1.0,6.0,36.0,25.0,1.0,0.8,0.7,Time
,,S08,1,Female,20,anonymized,Serial_Dependence_U,2023.2.3,Win32,120.4819277,,,,,,,,,,,,504.0624,1.0,504.0628,,,,506.5865,507.0854,506.0783,506.5863,505.0704,163.0,506.0781,507.0854,507.585,507.585,509.1454,1172.1,509.1456,4.0,510.142,1.0,7.0,37.0,6.0,1.0,1.0,0.7,Time
,,S08,1,Female,20,anonymized,Serial_Dependence_U,2023.2.3,Win32,120.4819277,,,,,,,,,,,,510.1428,1.0,510.1432,,,,513.0525,513.5482,512.5497,513.0524,511.1456,132.0,512.5495,513.5483,514.048,514.0481,514.8563,781.9,514.8564,1.0,515.8553,1.0,8.0,38.0,8.0,1.0,1.4,0.7,Time
,,S08,1,Female,20,anonymized,Serial_Dependence_U,2023.2.3,Win32,120.4819277,,,,,,,,,,,,515.8559,1.0,515.8561,,,,518.3713,518.8703,517.8656,518.371,516.8637,235.0,517.8656,518.8703,519.3698,519.3698,520.8558,1102.1,520.8559,4.0,521.8518,1.0,9.0,39.0,26.0,1.0,1.0,0.7,Time
,,S08,1,Female,20,anonymized,Serial_Dependence_U,2023.2.3,Win32,120.4819277,,,,,,,,,,,,521.8522,1.0,521.8523,,,,524.5676,525.0668,524.0628,524.5673,522.8551,252.0,524.0628,525.0668,525.5664,525.5665,526.6252,1037.3,526.6255,2.0,527.6235,1.0,10.0,40.0,22.0,1.0,1.2,0.3,Time
,,S08,1,Female,20,anonymized,Serial_Dependence_U,2023.2.3,Win32,120.4819277,,,,,,,,,,,,527.6238,1.0,527.6241,,,,530.7394,531.2381,530.2334,530.7392,528.6324,211.0,530.2333,531.2382,531.7381,531.7381,533.3333,1020.8,533.3335,1.0,534.3279,1.0,11.0,41.0,19.0,1.0,1.6,0.7,Time
,,S08,1,Female,20,anonymized,Serial_Dependence_U,2023.2.3,Win32,120.4819277,,,,,,,,,,,,534.3283,1.0,534.3285,,,,537.2522,537.7511,536.7443,537.2521,535.3362,146.0,536.744,537.7511,538.2509,538.2509,540.3677,1787.2,540.3679,4.0,541.3656,1.0,12.0,42.0,13.0,1.0,1.4,0.3,Time
,,S08,1,Female,20,anonymized,Serial_Dependence_U,2023.2.3,Win32,120.4819277,,,,,,,,,,,,541.366,1.0,541.3661,,,,543.6934,544.189,543.1816,543.6933,542.374,5.0,543.1815,544.189,544.6888,544.6888,550.6896,9999.0,550.6897,0.0,551.6848,1.0,13.0,43.0,5.0,1.0,0.8,0.7,Time
,,S08,1,Female,20,anonymized,Serial_Dependence_U,2023.2.3,Win32,120.4819277,,,,,,,,,,,,551.6851,1.0,551.6855,,,,554.8037,555.2993,554.3011,554.8036,552.6933,214.0,554.3009,555.2993,555.7992,555.7992,560.9303,1204.3,560.9306,2.0,561.929,1.0,14.0,44.0,4.0,1.0,1.6,0.3,Time
,,S08,1,Female,20,anonymized,Serial_Dependence_U,2023.2.3,Win32,120.4819277,,,,,,,,,,,,561.9296,1.0,561.9299,,,,564.2482,564.744,563.7453,564.2482,562.9373,227.0,563.7449,564.744,565.2437,565.2438,567.1873,1379.5,567.1874,5.0,568.1837,1.0,15.0,45.0,10.0,1.0,0.8,0.3,Time
,,S08,1,Female,20,anonymized,Serial_Dependence_U,2023.2.3,Win32,120.4819277,,,,,,,,,,,,568.184,1.0,568.1841,,,,571.2991,571.7983,570.7938,571.299,569.1923,58.0,570.7936,571.7984,572.298,572.2981,573.718,1401.1,573.7182,2.0,574.7134,1.0,16.0,46.0,14.0,1.0,1.6,0.3,Time
,,S08,1,Female,20,anonymized,Serial_Dependence_U,2023.2.3,Win32,120.4819277,,,,,,,,,,,,574.7136,1.0,574.7138,,,,577.038,577.5366,576.5296,577.0378,575.7215,103.0,576.5293,577.5366,578.0364,578.0365,580.1937,926.3,580.1941,4.0,581.1929,1.0,17.0,47.0,15.0,1.0,0.8,0.7,Time
,,S08,1,Female,20,anonymized,Serial_Dependence_U,2023.2.3,Win32,120.4819277,,,,,,,,,,,,581.1932,1.0,581.1933,,,,583.7088,584.2079,583.2008,583.7086,582.1969,349.0,583.2005,584.2079,584.7075,584.7076,586.0599,737.8,586.06,2.0,587.0561,1.0,18.0,48.0,11.0,1.0,1.0,0.3,Time
,,S08,1,Female,20,anonymized,Serial_Dependence_U,2023.2.3,Win32,120.4819277,,,,,,,,,,,,587.0565,1.0,587.0566,,,,589.5803,590.0795,589.0721,589.5801,588.0677,217.0,589.072,590.0795,590.5792,590.5792,592.745,1413.4,592.7454,5.0,593.7441,1.0,19.0,49.0,1.0,1.0,1.0,0.3,Time
,,S08,1,Female,20,anonymized,Serial_Dependence_U,2023.2.3,Win32,120.4819277,,,,,,,,,,,,593.7446,1.0,593.7447,,,,596.4684,596.9672,595.9601,596.4682,594.7527,181.0,595.9599,596.9672,597.467,597.467,598.625,1101.3,598.6254,2.0,599.624,1.0,20.0,50.0,17.0,1.0,1.2,0.7,Time
,,S08,1,Female,20,anonymized,Serial_Dependence_U,2023.2.3,Win32,120.4819277,,,,,,,,,,,,599.6243,1.0,599.6244,,,,602.54,603.0388,602.0318,602.5398,600.6277,71.0,602.0315,603.0388,603.5385,603.5385,604.8796,1083.8,604.8797,2.0,605.8787,1.0,21.0,51.0,3.0,1.0,1.4,0.3,Time
,,S08,1,Female,20,anonymized,Serial_Dependence_U,2023.2.3,Win32,120.4819277,,,,,,,,,,,,605.8791,1.0,605.8793,,,,608.603,609.102,608.095,608.6027,606.8871,330.0,608.0947,609.102,609.6017,609.6017,610.8637,958.7,610.8639,2.0,611.8586,1.0,22.0,52.0,2.0,1.0,1.2,0.3,Time
,,S08,1,Female,20,anonymized,Serial_Dependence_U,2023.2.3,Win32,120.4819277,,,,,,,,,,,,611.8591,1.0,611.8595,,,,614.7851,615.2818,614.2747,614.7849,612.867,157.0,614.2744,615.2818,615.7814,615.7815,617.4766,1317.0,617.4768,2.0,618.4716,1.0,23.0,53.0,18.0,1.0,1.4,0.7,Time
,,S08,1,Female,20,anonymized,Serial_Dependence_U,2023.2.3,Win32,120.4819277,,,,,,,,,,,,618.4721,1.0,618.4726,,,,621.5981,622.0945,621.0899,621.598,619.4834,21.0,621.0898,622.0945,622.5942,622.5943,624.2061,1322.4,624.2062,2.0,625.201,1.0,24.0,54.0,29.0,1.0,1.6,0.7,Time
,,S08,1,Female,20,anonymized,Serial_Dependence_U,2023.2.3,Win32,120.4819277,,,,,,,,,,,,625.2017,1.0,625.202,,,,628.325,628.8239,627.8172,628.3247,626.2092,71.0,627.8168,628.8239,629.3238,629.3239,630.8526,1507.9,630.8528,2.0,631.8473,1.0,25.0,55.0,24.0,1.0,1.6,0.3,Time
,,S08,1,Female,20,anonymized,Serial_Dependence_U,2023.2.3,Win32,120.4819277,,,,,,,,,,,,631.848,1.0,631.8483,,,,634.1672,634.6623,633.6637,634.1671,632.8593,6.0,633.6635,634.6624,635.162,635.162,637.1281,1558.8,637.1286,5.0,638.1271,1.0,26.0,56.0,0.0,1.0,0.8,0.3,Time
,,S08,1,Female,20,anonymized,Serial_Dependence_U,2023.2.3,Win32,120.4819277,,,,,,,,,,,,638.128,1.0,638.1285,,,,641.2511,641.7499,640.7428,641.2507,639.1352,172.0,640.7426,641.7499,642.2497,642.2497,644.4738,1790.3,644.4743,4.0,645.4728,1.0,27.0,57.0,9.0,1.0,1.6,0.7,Time
,,S08,1,Female,20,anonymized,Serial_Dependence_U,2023.2.3,Win32,120.4819277,,,,,,,,,,,,645.4731,1.0,645.4732,,,,647.997,648.4959,647.4891,647.9967,646.4817,308.0,647.4888,648.4959,648.9957,648.9958,650.6142,1304.3,650.6144,5.0,651.6109,1.0,28.0,58.0,16.0,1.0,1.0,0.7,Time
,,S08,1,Female,20,anonymized,Serial_Dependence_U,2023.2.3,Win32,120.4819277,,,,,,,,,,,,651.6113,1.0,651.6114,,,,654.5269,655.0257,654.0218,654.5267,652.6196,348.0,654.0216,655.0257,655.5253,655.5253,657.1788,1582.6,657.179,4.0,658.1738,1.0,29.0,59.0,28.0,1.0,1.4,0.7,Time
,,S08,1,Female,20,anonymized,Serial_Dependence_U,2023.2.3,Win32,120.4819277,,,,,,,,,,,,658.1741,2.0,885.6862,s,227.5031,,888.2129,888.7086,887.7017,888.2128,886.6943,38.0,887.7014,888.7087,889.2084,889.2085,890.436,1096.7,890.4363,4.0,891.4321,2.0,0.0,60.0,26.0,1.0,1.0,0.7,Time
,,S08,1,Female,20,anonymized,Serial_Dependence_U,2023.2.3,Win32,120.4819277,,,,,,,,,,,,891.4325,2.0,891.4348,,,,894.148,894.647,893.6397,894.1479,892.4356,222.0,893.6395,894.647,895.1467,895.1467,896.7501,1338.5,896.7502,4.0,897.7451,2.0,1.0,61.0,7.0,1.0,1.2,0.7,Time
,,S08,1,Female,20,anonymized,Serial_Dependence_U,2023.2.3,Win32,120.4819277,,,,,,,,,,,,897.7455,2.0,897.7459,,,,900.8692,901.3681,900.3611,900.8689,898.7534,60.0,900.361,901.3681,901.8679,901.8679,903.3269,1437.3,903.3272,2.0,904.3248,2.0,2.0,62.0,29.0,1.0,1.6,0.7,Time
,,S08,1,Female,20,anonymized,Serial_Dependence_U,2023.2.3,Win32,120.4819277,,,,,,,,,,,,904.325,2.0,904.3253,,,,907.0514,907.5479,906.5411,907.0514,905.3329,47.0,906.5407,907.5479,908.0477,908.0477,909.1762,1019.7,909.1764,2.0,910.1714,2.0,3.0,63.0,17.0,1.0,1.2,0.7,Time
,,S08,1,Female,20,anonymized,Serial_Dependence_U,2023.2.3,Win32,120.4819277,,,,,,,,,,,,910.1717,2.0,910.1721,,,,912.8956,913.3946,912.3874,912.8955,911.1801,139.0,912.3871,913.3946,913.8943,913.8944,915.9019,1654.4,915.9023,5.0,916.9009,2.0,4.0,64.0,27.0,1.0,1.2,0.7,Time
,,S08,1,Female,20,anonymized,Serial_Dependence_U,2023.2.3,Win32,120.4819277,,,,,,,,,,,,916.9012,2.0,916.9013,,,,919.4282,919.9241,918.9173,919.4282,917.9091,348.0,918.917,919.9241,920.424,920.424,922.1018,1216.5,922.102,4.0,923.0973,2.0,5.0,65.0,11.0,1.0,1.0,0.3,Time
,,S08,1,Female,20,anonymized,Serial_Dependence_U,2023.2.3,Win32,120.4819277,,,,,,,,,,,,923.0976,2.0,923.0978,,,,926.0248,926.5204,925.5136,926.0247,924.1059,226.0,925.5133,926.5204,927.0202,927.0202,928.3449,1291.7,928.3454,2.0,929.3439,2.0,6.0,66.0,18.0,1.0,1.4,0.7,Time
,,S08,1,Female,20,anonymized,Serial_Dependence_U,2023.2.3,Win32,120.4819277,,,,,,,,,,,,929.3442,2.0,929.3443,,,,931.6707,932.1671,931.1601,931.6706,930.3519,145.0,931.1599,932.1671,932.6669,932.6669,934.2871,1242.0,934.2871,5.0,935.2821,2.0,7.0,67.0,0.0,1.0,0.8,0.3,Time
,,S08,1,Female,20,anonymized,Serial_Dependence_U,2023.2.3,Win32,120.4819277,,,,,,,,,,,,935.2823,2.0,935.2824,,,,938.2001,938.6967,937.6981,938.2,936.2903,130.0,937.6979,938.6967,939.1964,939.1964,941.066,1580.8,941.0662,4.0,942.0615,2.0,8.0,68.0,13.0,1.0,1.4,0.3,Time
,,S08,1,Female,20,anonymized,Serial_Dependence_U,2023.2.3,Win32,120.4819277,,,,,,,,,,,,942.0618,2.0,942.062,,,,944.9857,945.4846,944.4775,944.9854,943.0696,274.0,944.4773,945.4846,945.9844,945.9844,947.369,1362.8,947.3693,3.0,948.3663,2.0,9.0,69.0,8.0,1.0,1.4,0.7,Time
,,S08,1,Female,20,anonymized,Serial_Dependence_U,2023.2.3,Win32,120.4819277,,,,,,,,,,,,948.3667,2.0,948.3668,,,,951.4926,951.9892,950.9844,951.4925,949.377,41.0,950.9844,951.9893,952.489,952.489,953.6844,1165.2,953.6846,2.0,954.6792,2.0,10.0,70.0,9.0,1.0,1.6,0.7,Time
,,S08,1,Female,20,anonymized,Serial_Dependence_U,2023.2.3,Win32,120.4819277,,,,,,,,,,,,954.6794,2.0,954.6796,,,,957.0039,957.5026,956.4953,957.0038,955.6909,279.0,956.4952,957.5027,958.0024,958.0024,960.0847,1883.2,960.0851,5.0,961.0839,2.0,11.0,71.0,10.0,1.0,0.8,0.3,Time
,,S08,1,Female,20,anonymized,Serial_Dependence_U,2023.2.3,Win32,120.4819277,,,,,,,,,,,,961.0843,2.0,961.0845,,,,963.8083,964.3072,963.3001,963.8081,962.0947,359.0,963.2999,964.3072,964.8069,964.807,966.2773,1425.6,966.2774,4.0,967.272,2.0,12.0,72.0,22.0,1.0,1.2,0.3,Time
,,S08,1,Female,20,anonymized,Serial_Dependence_U,2023.2.3,Win32,120.4819277,,,,,,,,,,,,967.2724,2.0,967.2725,,,,969.588,970.0871,969.0833,969.5877,968.2802,228.0,969.0832,970.0871,970.587,970.587,972.4159,1805.1,972.4161,5.0,973.4103,2.0,13.0,73.0,15.0,1.0,0.8,0.7,Time
,,S08,1,Female,20,anonymized,Serial_Dependence_U,2023.2.3,Win32,120.4819277,,,,,,,,,,,,973.4107,2.0,973.4109,,,,976.5206,977.0165,976.0185,976.5205,974.4118,242.0,976.0183,977.0165,977.5161,977.5162,979.8192,1922.2,979.8195,4.0,980.8144,2.0,14.0,74.0,19.0,1.0,1.6,0.7,Time
,,S08,1,Female,20,anonymized,Serial_Dependence_U,2023.2.3,Win32,120.4819277,,,,,,,,,,,,980.8151,2.0,980.8155,,,,983.9338,984.4291,983.4304,983.9336,981.8227,17.0,983.4301,984.4291,984.9289,984.9289,987.4191,2106.7,987.4194,5.0,988.4183,2.0,15.0,75.0,14.0,1.0,1.6,0.3,Time
,,S08,1,Female,20,anonymized,Serial_Dependence_U,2023.2.3,Win32,120.4819277,,,,,,,,,,,,988.4186,2.0,988.4187,,,,990.9459,991.4417,990.4349,990.9458,989.4268,106.0,990.4346,991.4417,991.9414,991.9414,993.5782,1283.4,993.5784,4.0,994.5731,2.0,16.0,76.0,6.0,1.0,1.0,0.7,Time
,,S08,1,Female,20,anonymized,Serial_Dependence_U,2023.2.3,Win32,120.4819277,,,,,,,,,,,,994.5734,2.0,994.5736,,,,997.0972,997.5964,996.5925,997.097,995.5814,269.0,996.5924,997.5964,998.0962,998.0963,998.6824,477.1,998.6825,1.0,999.6785,2.0,17.0,77.0,21.0,1.0,1.0,0.3,Time
,,S08,1,Female,20,anonymized,Serial_Dependence_U,2023.2.3,Win32,120.4819277,,,,,,,,,,,,999.6788,2.0,999.6789,,,,1001.9944,1002.4936,1001.4867,1001.9941,1000.6817,99.0,1001.4864,1002.4936,1002.9933,1002.9933,1005.0214,1706.0,1005.0215,5.0,1006.0165,2.0,18.0,78.0,5.0,1.0,0.8,0.7,Time
,,S08,1,Female,20,anonymized,Serial_Dependence_U,2023.2.3,Win32,120.4819277,,,,,,,,,,,,1006.0169,2.0,1006.017,,,,1008.3413,1008.84,1007.833,1008.3411,1007.025,330.0,1007.8328,1008.84,1009.3397,1009.3398,1010.0978,730.2,1010.0982,2.0,1011.097,2.0,19.0,79.0,20.0,1.0,0.8,0.3,Time
,,S08,1,Female,20,anonymized,Serial_Dependence_U,2023.2.3,Win32,120.4819277,,,,,,,,,,,,1011.0972,2.0,1011.0975,,,,1013.6215,1014.1203,1013.113,1013.6213,1012.1087,30.0,1013.1128,1014.1204,1014.62,1014.6201,1015.3366,692.7,1015.337,1.0,1016.3357,2.0,20.0,80.0,16.0,1.0,1.0,0.7,Time
,,S08,1,Female,20,anonymized,Serial_Dependence_U,2023.2.3,Win32,120.4819277,,,,,,,,,,,,1016.336,2.0,1016.3361,,,,1019.2599,1019.7587,1018.754,1019.2597,1017.3381,157.0,1018.754,1019.7587,1020.2584,1020.2585,1021.6705,1375.3,1021.6707,3.0,1022.6654,2.0,21.0,81.0,28.0,1.0,1.4,0.7,Time
,,S08,1,Female,20,anonymized,Serial_Dependence_U,2023.2.3,Win32,120.4819277,,,,,,,,,,,,1022.6657,2.0,1022.6659,,,,1025.5894,1026.0884,1025.0813,1025.5892,1023.6741,125.0,1025.0811,1026.0884,1026.5883,1026.5883,1028.3333,1682.3,1028.3335,4.0,1029.3282,2.0,22.0,82.0,3.0,1.0,1.4,0.3,Time
,,S08,1,Female,20,anonymized,Serial_Dependence_U,2023.2.3,Win32,120.4819277,,,,,,,,,,,,1029.3285,2.0,1029.3286,,,,1032.0527,1032.5514,1031.5442,1032.0526,1030.3368,94.0,1031.544,1032.5515,1033.0512,1033.0513,1034.5047,1410.2,1034.5049,4.0,1035.4997,2.0,23.0,83.0,12.0,1.0,1.2,0.3,Time
,,S08,1,Female,20,anonymized,Serial_Dependence_U,2023.2.3,Win32,120.4819277,,,,,,,,,,,,1035.5,2.0,1035.5005,,,,1037.8244,1038.3231,1037.3161,1037.8242,1036.5082,207.0,1037.3157,1038.3231,1038.8228,1038.8229,1039.6976,846.6,1039.698,4.0,1040.6967,2.0,24.0,84.0,25.0,1.0,0.8,0.7,Time
,,S08,1,Female,20,anonymized,Serial_Dependence_U,2023.2.3,Win32,120.4819277,,,,,,,,,,,,1040.6971,2.0,1040.6975,,,,1043.8147,1044.3114,1043.3068,1043.8147,1041.7054,71.0,1043.3067,1044.3114,1044.8111,1044.8112,1045.8474,987.9,1045.8476,1.0,1046.8433,2.0,25.0,85.0,4.0,1.0,1.6,0.3,Time
,,S08,1,Female,20,anonymized,Serial_Dependence_U,2023.2.3,Win32,120.4819277,,,,,,,,,,,,1046.8437,2.0,1046.8439,,,,1049.5614,1050.058,1049.0535,1049.5613,1047.8518,307.0,1049.0534,1050.0581,1050.5578,1050.5579,1051.6023,846.5,1051.6024,2.0,1052.5983,2.0,26.0,86.0,2.0,1.0,1.2,0.3,Time
,,S08,1,Female,20,anonymized,Serial_Dependence_U,2023.2.3,Win32,120.4819277,,,,,,,,,,,,1052.5986,2.0,1052.5987,,,,1055.5255,1056.0212,1055.0145,1055.5254,1053.6101,99.0,1055.0143,1056.0212,1056.521,1056.521,1058.8699,1992.3,1058.8702,5.0,1059.8691,2.0,27.0,87.0,23.0,1.0,1.4,0.3,Time
,,S08,1,Female,20,anonymized,Serial_Dependence_U,2023.2.3,Win32,120.4819277,,,,,,,,,,,,1059.8694,2.0,1059.8696,,,,1062.9965,1063.492,1062.4853,1062.9965,1060.8777,286.0,1062.485,1063.492,1063.9918,1063.9918,1065.7774,1706.4,1065.7775,4.0,1066.7735,2.0,28.0,88.0,24.0,1.0,1.6,0.3,Time
,,S08,1,Female,20,anonymized,Serial_Dependence_U,2023.2.3,Win32,120.4819277,,,,,,,,,,,,1066.7738,2.0,1066.774,,,,1069.2891,1069.7885,1068.7809,1069.2889,1067.777,314.0,1068.7808,1069.7885,1070.2882,1070.2882,1071.9834,1316.0,1071.9835,5.0,1072.9783,2.0,29.0,89.0,1.0,1.0,1.0,0.3,Time
,,S08,1,Female,20,anonymized,Serial_Dependence_U,2023.2.3,Win32,120.4819277,,,,,,,,,,,,1072.9786,3.0,1074.6773,s,1.6889,,1077.2041,1077.7006,1076.702,1077.2039,1075.6854,310.0,1076.7018,1077.7008,1078.2004,1078.2005,1079.5198,1281.3,1079.52,4.0,1080.5156,3.0,0.0,90.0,16.0,1.0,1.0,0.7,Time
,,S08,1,Female,20,anonymized,Serial_Dependence_U,2023.2.3,Win32,120.4819277,,,,,,,,,,,,1080.5159,3.0,1080.517,,,,1082.8401,1083.3389,1082.3321,1082.84,1081.5241,296.0,1082.3318,1083.339,1083.8388,1083.8389,1085.5339,1591.0,1085.534,5.0,1086.5288,3.0,1.0,91.0,25.0,1.0,0.8,0.7,Time
,,S08,1,Female,20,anonymized,Serial_Dependence_U,2023.2.3,Win32,120.4819277,,,,,,,,,,,,1086.5292,3.0,1086.5294,,,,1089.248,1089.7436,1088.7448,1089.2478,1087.5373,292.0,1088.7445,1089.7437,1090.2435,1090.2436,1091.1516,884.2,1091.1519,2.0,1092.1506,3.0,2.0,92.0,7.0,1.0,1.2,0.7,Time
,,S08,1,Female,20,anonymized,Serial_Dependence_U,2023.2.3,Win32,120.4819277,,,,,,,,,,,,1092.151,3.0,1092.1512,,,,1095.2746,1095.7737,1094.7667,1095.2744,1093.1594,91.0,1094.7664,1095.7737,1096.2735,1096.2736,1097.1272,805.1,1097.1274,1.0,1098.1223,3.0,3.0,93.0,19.0,1.0,1.6,0.7,Time
,,S08,1,Female,20,anonymized,Serial_Dependence_U,2023.2.3,Win32,120.4819277,,,,,,,,,,,,1098.1225,3.0,1098.1227,,,,1101.038,1101.537,1100.5325,1101.0377,1099.1309,110.0,1100.5324,1101.537,1102.0367,1102.0368,1104.3107,2089.6,1104.3109,5.0,1105.3098,3.0,4.0,94.0,8.0,1.0,1.4,0.7,Time
,,S08,1,Female,20,anonymized,Serial_Dependence_U,2023.2.3,Win32,120.4819277,,,,,,,,,,,,1105.3102,3.0,1105.3106,,,,1108.4373,1108.9329,1107.9257,1108.4373,1106.3214,60.0,1107.9254,1108.9329,1109.4325,1109.4326,1112.0479,2558.5,1112.0483,5.0,1113.047,3.0,5.0,95.0,29.0,1.0,1.6,0.7,Time
,,S08,1,Female,20,anonymized,Serial_Dependence_U,2023.2.3,Win32,120.4819277,,,,,,,,,,,,1113.0473,3.0,1113.0478,,,,1115.3655,1115.8621,1114.8635,1115.3654,1114.0557,286.0,1114.8633,1115.8621,1116.3621,1116.3621,1118.354,1571.5,1118.3542,5.0,1119.3518,3.0,6.0,96.0,20.0,1.0,0.8,0.3,Time
,,S08,1,Female,20,anonymized,Serial_Dependence_U,2023.2.3,Win32,120.4819277,,,,,,,,,,,,1119.3522,3.0,1119.3526,,,,1122.4673,1122.9664,1121.9592,1122.467,1120.3551,267.0,1121.9589,1122.9664,1123.466,1123.466,1124.7354,998.9,1124.7357,1.0,1125.7315,3.0,7.0,97.0,24.0,1.0,1.6,0.3,Time
,,S08,1,Female,20,anonymized,Serial_Dependence_U,2023.2.3,Win32,120.4819277,,,,,,,,,,,,1125.7319,3.0,1125.732,,,,1128.4557,1128.9546,1127.9474,1128.4555,1126.7401,58.0,1127.9471,1128.9546,1129.4544,1129.4545,1131.037,1520.8,1131.0374,4.0,1132.0362,3.0,8.0,98.0,17.0,1.0,1.2,0.7,Time
,,S08,1,Female,20,anonymized,Serial_Dependence_U,2023.2.3,Win32,120.4819277,,,,,,,,,,,,1132.0365,3.0,1132.0366,,,,1134.7636,1135.2593,1134.2524,1134.7635,1133.0448,294.0,1134.2522,1135.2593,1135.759,1135.7591,1136.9796,1155.5,1136.9798,3.0,1137.9744,3.0,9.0,99.0,12.0,1.0,1.2,0.3,Time
,,S08,1,Female,20,anonymized,Serial_Dependence_U,2023.2.3,Win32,120.4819277,,,,,,,,,,,,1137.9748,3.0,1137.9749,,,,1140.2989,1140.7978,1139.7906,1140.2987,1138.9827,90.0,1139.7903,1140.7978,1141.2975,1141.2975,1143.0091,1470.7,1143.0093,5.0,1144.0043,3.0,10.0,100.0,10.0,1.0,0.8,0.3,Time
,,S08,1,Female,20,anonymized,Serial_Dependence_U,2023.2.3,Win32,120.4819277,,,,,,,,,,,,1144.0046,3.0,1144.0048,,,,1146.714,1147.2109,1146.2121,1146.7139,1145.0068,251.0,1146.2119,1147.2109,1147.7106,1147.7106,1149.2888,1305.2,1149.289,4.0,1150.2841,3.0,11.0,101.0,2.0,1.0,1.2,0.3,Time
,,S08,1,Female,20,anonymized,Serial_Dependence_U,2023.2.3,Win32,120.4819277,,,,,,,,,,,,1150.2844,3.0,1150.2846,,,,1152.8082,1153.3073,1152.3004,1152.808,1151.2927,1.0,1152.3001,1153.3073,1153.8071,1153.8071,1154.4531,575.2,1154.4532,1.0,1155.4479,3.0,12.0,102.0,11.0,1.0,1.0,0.3,Time
,,S08,1,Female,20,anonymized,Serial_Dependence_U,2023.2.3,Win32,120.4819277,,,,,,,,,,,,1155.4482,3.0,1155.4484,,,,1158.3719,1158.871,1157.8672,1158.3717,1156.4562,211.0,1157.8671,1158.871,1159.3707,1159.3707,1160.4747,1082.0,1160.4748,2.0,1161.4692,3.0,13.0,103.0,13.0,1.0,1.4,0.3,Time
,,S08,1,Female,20,anonymized,Serial_Dependence_U,2023.2.3,Win32,120.4819277,,,,,,,,,,,,1161.4696,3.0,1161.4697,,,,1163.7858,1164.2844,1163.2775,1163.7855,1162.472,9.0,1163.2773,1164.2845,1164.7841,1164.7842,1166.0449,1238.5,1166.0451,5.0,1167.0411,3.0,14.0,104.0,15.0,1.0,0.8,0.7,Time
,,S08,1,Female,20,anonymized,Serial_Dependence_U,2023.2.3,Win32,120.4819277,,,,,,,,,,,,1167.0415,3.0,1167.0417,,,,1169.3574,1169.8563,1168.8493,1169.3572,1168.0446,86.0,1168.849,1169.8563,1170.3558,1170.3558,1171.3904,760.3,1171.3906,3.0,1172.3881,3.0,15.0,105.0,5.0,1.0,0.8,0.7,Time
,,S08,1,Female,20,anonymized,Serial_Dependence_U,2023.2.3,Win32,120.4819277,,,,,,,,,,,,1172.3884,3.0,1172.3886,,,,1175.3118,1175.8111,1174.804,1175.3117,1173.3965,228.0,1174.8037,1175.8112,1176.311,1176.311,1177.5479,899.8,1177.5481,1.0,1178.5428,3.0,16.0,106.0,28.0,1.0,1.4,0.7,Time
,,S08,1,Female,20,anonymized,Serial_Dependence_U,2023.2.3,Win32,120.4819277,,,,,,,,,,,,1178.5431,3.0,1178.5433,,,,1181.4588,1181.9577,1180.9508,1181.4586,1179.5456,66.0,1180.9503,1181.9577,1182.4574,1182.4574,1184.4099,1440.1,1184.4101,3.0,1185.4056,3.0,17.0,107.0,3.0,1.0,1.4,0.3,Time
,,S08,1,Female,20,anonymized,Serial_Dependence_U,2023.2.3,Win32,120.4819277,,,,,,,,,,,,1185.406,3.0,1185.4061,,,,1187.7301,1188.2289,1187.2219,1187.7299,1186.4144,343.0,1187.2216,1188.229,1188.7288,1188.7289,1190.2819,1191.0,1190.2821,5.0,1191.2773,3.0,18.0,108.0,0.0,1.0,0.8,0.3,Time
,,S08,1,Female,20,anonymized,Serial_Dependence_U,2023.2.3,Win32,120.4819277,,,,,,,,,,,,1191.2776,3.0,1191.2777,,,,1194.3961,1194.892,1193.8932,1194.396,1192.2859,52.0,1193.893,1194.892,1195.3916,1195.3917,1196.5944,899.5,1196.5946,1.0,1197.5903,3.0,19.0,109.0,4.0,1.0,1.6,0.3,Time
,,S08,1,Female,20,anonymized,Serial_Dependence_U,2023.2.3,Win32,120.4819277,,,,,,,,,,,,1197.5908,3.0,1197.5911,,,,1200.1145,1200.6136,1199.6065,1200.1143,1198.599,26.0,1199.6062,1200.6136,1201.1133,1201.1133,1202.9166,1539.4,1202.9168,5.0,1203.9118,3.0,20.0,110.0,6.0,1.0,1.0,0.7,Time
,,S08,1,Female,20,anonymized,Serial_Dependence_U,2023.2.3,Win32,120.4819277,,,,,,,,,,,,1203.9122,3.0,1203.9123,,,,1206.436,1206.935,1205.9279,1206.4359,1204.9198,328.0,1205.9278,1206.935,1207.4347,1207.4347,1208.701,1041.8,1208.7011,3.0,1209.7,3.0,21.0,111.0,1.0,1.0,1.0,0.3,Time
,,S08,1,Female,20,anonymized,Serial_Dependence_U,2023.2.3,Win32,120.4819277,,,,,,,,,,,,1209.7005,3.0,1209.7007,,,,1212.824,1213.3229,1212.3161,1212.8237,1210.7091,225.0,1212.3159,1213.3229,1213.8227,1213.8228,1215.5387,1132.2,1215.5391,2.0,1216.538,3.0,22.0,112.0,14.0,1.0,1.6,0.3,Time
,,S08,1,Female,20,anonymized,Serial_Dependence_U,2023.2.3,Win32,120.4819277,,,,,,,,,,,,1216.5388,3.0,1216.5392,,,,1219.2623,1219.7609,1218.7538,1219.2621,1217.5464,23.0,1218.7535,1219.761,1220.2607,1220.2608,1221.656,1203.6,1221.656,3.0,1222.6509,3.0,23.0,113.0,27.0,1.0,1.2,0.7,Time
,,S08,1,Female,20,anonymized,Serial_Dependence_U,2023.2.3,Win32,120.4819277,,,,,,,,,,,,1222.6513,3.0,1222.6513,,,,1225.7688,1226.2655,1225.2668,1225.7688,1223.6594,73.0,1225.2666,1226.2655,1226.7653,1226.7654,1227.7941,664.9,1227.7942,1.0,1228.7891,3.0,24.0,114.0,9.0,1.0,1.6,0.7,Time
,,S08,1,Female,20,anonymized,Serial_Dependence_U,2023.2.3,Win32,120.4819277,,,,,,,,,,,,1228.7895,3.0,1228.7897,,,,1231.3133,1231.8125,1230.8055,1231.3133,1229.7977,223.0,1230.8052,1231.8125,1232.3122,1232.3122,1233.9699,1109.8,1233.9701,4.0,1234.969,3.0,25.0,115.0,21.0,1.0,1.0,0.3,Time
,,S08,1,Female,20,anonymized,Serial_Dependence_U,2023.2.3,Win32,120.4819277,,,,,,,,,,,,1234.9692,3.0,1234.9693,,,,1237.8931,1238.3921,1237.3848,1237.8929,1235.9798,284.0,1237.3846,1238.3921,1238.8917,1238.8917,1240.3757,1271.2,1240.3759,2.0,1241.3737,3.0,26.0,116.0,23.0,1.0,1.4,0.3,Time
,,S08,1,Female,20,anonymized,Serial_Dependence_U,2023.2.3,Win32,120.4819277,,,,,,,,,,,,1241.3739,3.0,1241.3741,,,,1244.0977,1244.5968,1243.5899,1244.0974,1242.3824,245.0,1243.5896,1244.5968,1245.0964,1245.0965,1246.4658,1107.7,1246.466,2.0,1247.4618,3.0,27.0,117.0,22.0,1.0,1.2,0.3,Time
,,S08,1,Female,20,anonymized,Serial_Dependence_U,2023.2.3,Win32,120.4819277,,,,,,,,,,,,1247.4622,3.0,1247.4626,,,,1250.3776,1250.8765,1249.8696,1250.3774,1248.4651,73.0,1249.8693,1250.8765,1251.3762,1251.3763,1253.1455,1422.1,1253.1457,3.0,1254.1414,3.0,28.0,118.0,18.0,1.0,1.4,0.7,Time
,,S08,1,Female,20,anonymized,Serial_Dependence_U,2023.2.3,Win32,120.4819277,,,,,,,,,,,,1254.1417,3.0,1254.1418,,,,1256.6656,1257.1647,1256.1576,1256.6653,1255.1498,220.0,1256.1573,1257.1647,1257.6644,1257.6644,1259.0349,983.7,1259.0351,3.0,1260.0297,3.0,29.0,119.0,26.0,1.0,1.0,0.7,Time
,,S08,1,Female,20,anonymized,Serial_Dependence_U,2023.2.3,Win32,120.4819277,,,,,,,,,,,,1260.03,4.0,1262.0036,s,1.9589,,1264.7279,1265.2266,1264.2198,1264.7276,1263.0122,75.0,1264.2195,1265.2267,1265.7263,1265.7264,1267.0759,1225.6,1267.0763,3.0,1268.0751,4.0,0.0,120.0,12.0,1.0,1.2,0.3,Time
,,S08,1,Female,20,anonymized,Serial_Dependence_U,2023.2.3,Win32,120.4819277,,,,,,,,,,,,1268.0756,4.0,1268.0775,,,,1270.9991,1271.498,1270.4912,1270.9989,1269.0831,273.0,1270.491,1271.498,1271.9977,1271.9978,1273.5346,1227.6,1273.5348,2.0,1274.5297,4.0,1.0,121.0,8.0,1.0,1.4,0.7,Time
,,S08,1,Female,20,anonymized,Serial_Dependence_U,2023.2.3,Win32,120.4819277,,,,,,,,,,,,1274.53,4.0,1274.5302,,,,1277.2541,1277.7528,1276.7459,1277.2539,1275.5378,88.0,1276.7457,1277.7528,1278.2525,1278.2526,1279.3479,737.6,1279.3481,1.0,1280.343,4.0,2.0,122.0,27.0,1.0,1.2,0.7,Time
,,S08,1,Female,20,anonymized,Serial_Dependence_U,2023.2.3,Win32,120.4819277,,,,,,,,,,,,1280.3434,4.0,1280.3436,,,,1283.067,1283.5662,1282.559,1283.0668,1281.3515,293.0,1282.5588,1283.5662,1284.0659,1284.0659,1285.8111,1300.0,1285.8113,4.0,1286.806,4.0,3.0,123.0,17.0,1.0,1.2,0.7,Time
,,S08,1,Female,20,anonymized,Serial_Dependence_U,2023.2.3,Win32,120.4819277,,,,,,,,,,,,1286.8063,4.0,1286.8065,,,,1289.9299,1290.4289,1289.4219,1289.9295,1287.817,157.0,1289.4217,1290.4289,1290.9287,1290.9287,1292.0988,881.2,1292.099,1.0,1293.094,4.0,4.0,124.0,29.0,1.0,1.6,0.7,Time
,,S08,1,Female,20,anonymized,Serial_Dependence_U,2023.2.3,Win32,120.4819277,,,,,,,,,,,,1293.0944,4.0,1293.0945,,,,1295.4185,1295.9174,1294.9102,1295.4183,1294.1026,158.0,1294.9099,1295.9175,1296.4171,1296.4171,1298.0017,1238.5,1298.0019,5.0,1298.9991,4.0,5.0,125.0,5.0,1.0,0.8,0.7,Time
,,S08,1,Female,20,anonymized,Serial_Dependence_U,2023.2.3,Win32,120.4819277,,,,,,,,,,,,1298.9993,4.0,1298.9994,,,,1301.5236,1302.0222,1301.0148,1301.5234,1300.0072,237.0,1301.0147,1302.0223,1302.522,1302.5221,1303.7548,1218.4,1303.7552,4.0,1304.754,4.0,6.0,126.0,1.0,1.0,1.0,0.3,Time
,,S08,1,Female,20,anonymized,Serial_Dependence_U,2023.2.3,Win32,120.4819277,,,,,,,,,,,,1304.7544,4.0,1304.7545,,,,1307.0781,1307.5775,1306.5705,1307.078,1305.7622,305.0,1306.5701,1307.5775,1308.0772,1308.0773,1309.1684,724.8,1309.1686,2.0,1310.1676,4.0,7.0,127.0,15.0,1.0,0.8,0.7,Time
,,S08,1,Female,20,anonymized,Serial_Dependence_U,2023.2.3,Win32,120.4819277,,,,,,,,,,,,1310.1679,4.0,1310.1682,,,,1313.0834,1313.5823,1312.5775,1313.0832,1311.1702,241.0,1312.5774,1313.5823,1314.0821,1314.0821,1315.8856,1458.0,1315.8858,3.0,1316.8805,4.0,8.0,128.0,18.0,1.0,1.4,0.7,Time
,,S08,1,Female,20,anonymized,Serial_Dependence_U,2023.2.3,Win32,120.4819277,,,,,,,,,,,,1316.8808,4.0,1316.8809,,,,1319.2047,1319.704,1318.6966,1319.2045,1317.8912,161.0,1318.6963,1319.704,1320.2036,1320.2037,1321.4738,1215.8,1321.474,5.0,1322.4689,4.0,9.0,129.0,10.0,1.0,0.8,0.3,Time
,,S08,1,Female,20,anonymized,Serial_Dependence_U,2023.2.3,Win32,120.4819277,,,,,,,,,,,,1322.4692,4.0,1322.4694,,,,1324.7935,1325.2923,1324.2851,1324.7933,1323.4775,334.0,1324.2849,1325.2923,1325.7921,1325.7921,1326.5588,399.7,1326.5591,1.0,1327.5576,4.0,10.0,130.0,20.0,1.0,0.8,0.3,Time
,,S08,1,Female,20,anonymized,Serial_Dependence_U,2023.2.3,Win32,120.4819277,,,,,,,,,,,,1327.558,4.0,1327.5582,,,,1330.4816,1330.9808,1329.977,1330.4813,1328.5685,209.0,1329.9769,1330.9809,1331.4805,1331.4805,1333.3088,1430.1,1333.3089,3.0,1334.3039,4.0,11.0,131.0,28.0,1.0,1.4,0.7,Time
,,S08,1,Female,20,anonymized,Serial_Dependence_U,2023.2.3,Win32,120.4819277,,,,,,,,,,,,1334.3042,4.0,1334.3044,,,,1337.4282,1337.9267,1336.9196,1337.4279,1335.3126,22.0,1336.9193,1337.9268,1338.4266,1338.4266,1341.1125,2291.5,1341.1127,5.0,1342.1076,4.0,12.0,132.0,14.0,1.0,1.6,0.3,Time
,,S08,1,Female,20,anonymized,Serial_Dependence_U,2023.2.3,Win32,120.4819277,,,,,,,,,,,,1342.108,4.0,1342.1081,,,,1344.6319,1345.1309,1344.1236,1344.6318,1343.116,272.0,1344.1235,1345.1309,1345.6307,1345.6308,1347.1635,1247.9,1347.1637,4.0,1348.1626,4.0,13.0,133.0,21.0,1.0,1.0,0.3,Time
,,S08,1,Female,20,anonymized,Serial_Dependence_U,2023.2.3,Win32,120.4819277,,,,,,,,,,,,1348.1629,4.0,1348.1631,,,,1351.2864,1351.7854,1350.7784,1351.2862,1349.1707,171.0,1350.7781,1351.7855,1352.2851,1352.2852,1353.4781,897.1,1353.4783,1.0,1354.4756,4.0,14.0,134.0,19.0,1.0,1.6,0.7,Time
,,S08,1,Female,20,anonymized,Serial_Dependence_U,2023.2.3,Win32,120.4819277,,,,,,,,,,,,1354.4759,4.0,1354.476,,,,1357.3999,1357.8988,1356.8917,1357.3997,1355.4844,84.0,1356.8914,1357.8988,1358.3984,1358.3984,1360.2176,1705.2,1360.2177,4.0,1361.2134,4.0,15.0,135.0,13.0,1.0,1.4,0.3,Time
,,S08,1,Female,20,anonymized,Serial_Dependence_U,2023.2.3,Win32,120.4819277,,,,,,,,,,,,1361.2138,4.0,1361.2139,,,,1364.1316,1364.6281,1363.6294,1364.1315,1362.2221,134.0,1363.6291,1364.6281,1365.1278,1365.1279,1366.94,1541.2,1366.9402,4.0,1367.9347,4.0,16.0,136.0,23.0,1.0,1.4,0.3,Time
,,S08,1,Female,20,anonymized,Serial_Dependence_U,2023.2.3,Win32,120.4819277,,,,,,,,,,,,1367.9351,4.0,1367.9358,,,,1370.2505,1370.7496,1369.7424,1370.2502,1368.9371,262.0,1369.7421,1370.7496,1371.2494,1371.2494,1373.1859,1574.0,1373.186,5.0,1374.1809,4.0,17.0,137.0,0.0,1.0,0.8,0.3,Time
,,S08,1,Female,20,anonymized,Serial_Dependence_U,2023.2.3,Win32,120.4819277,,,,,,,,,,,,1374.1813,4.0,1374.1815,,,,1376.7053,1377.2042,1376.1973,1376.7051,1375.1894,182.0,1376.197,1377.2042,1377.7041,1377.7041,1380.2058,2056.1,1380.206,5.0,1381.202,4.0,18.0,138.0,6.0,1.0,1.0,0.7,Time
,,S08,1,Female,20,anonymized,Serial_Dependence_U,2023.2.3,Win32,120.4819277,,,,,,,,,,,,1381.2023,4.0,1381.2027,,,,1383.9203,1384.4169,1383.4178,1383.9202,1382.2103,9.0,1383.4176,1384.4169,1384.9166,1384.9167,1386.8494,1592.9,1386.8499,5.0,1387.8482,4.0,19.0,139.0,2.0,1.0,1.2,0.3,Time
,,S08,1,Female,20,anonymized,Serial_Dependence_U,2023.2.3,Win32,120.4819277,,,,,,,,,,,,1387.8488,4.0,1387.8492,,,,1390.3725,1390.8715,1389.8644,1390.3722,1388.8567,102.0,1389.8641,1390.8715,1391.3713,1391.3713,1392.9788,1339.8,1392.9792,5.0,1393.978,4.0,20.0,140.0,26.0,1.0,1.0,0.7,Time
,,S08,1,Female,20,anonymized,Serial_Dependence_U,2023.2.3,Win32,120.4819277,,,,,,,,,,,,1393.9785,4.0,1393.9788,,,,1396.9018,1397.4011,1396.3939,1396.9016,1394.9867,211.0,1396.3936,1397.4011,1397.9007,1397.9007,1399.3836,1057.9,1399.3841,2.0,1400.3828,4.0,21.0,141.0,3.0,1.0,1.4,0.3,Time
,,S08,1,Female,20,anonymized,Serial_Dependence_U,2023.2.3,Win32,120.4819277,,,,,,,,,,,,1400.3831,4.0,1400.3834,,,,1402.9074,1403.4059,1402.3988,1402.9072,1401.391,343.0,1402.3985,1403.4059,1403.9056,1403.9057,1405.8839,1263.8,1405.884,4.0,1406.8789,4.0,22.0,142.0,16.0,1.0,1.0,0.7,Time
,,S08,1,Female,20,anonymized,Serial_Dependence_U,2023.2.3,Win32,120.4819277,,,,,,,,,,,,1406.8792,4.0,1406.8794,,,,1409.6033,1410.1022,1409.0951,1409.603,1407.8896,224.0,1409.0948,1410.1023,1410.6019,1410.6019,1411.6865,754.5,1411.6867,1.0,1412.684,4.0,23.0,143.0,22.0,1.0,1.2,0.3,Time
,,S08,1,Female,20,anonymized,Serial_Dependence_U,2023.2.3,Win32,120.4819277,,,,,,,,,,,,1412.6844,4.0,1412.6845,,,,1415.0084,1415.5074,1414.5003,1415.0081,1413.6957,271.0,1414.4999,1415.5075,1416.0072,1416.0073,1418.0354,1650.2,1418.0355,5.0,1419.0304,4.0,24.0,144.0,25.0,1.0,0.8,0.7,Time
,,S08,1,Female,20,anonymized,Serial_Dependence_U,2023.2.3,Win32,120.4819277,,,,,,,,,,,,1419.0308,4.0,1419.031,,,,1421.7574,1422.2534,1421.2465,1421.7573,1420.0389,351.0,1421.2462,1422.2534,1422.7532,1422.7532,1423.7155,661.5,1423.7157,1.0,1424.7104,4.0,25.0,145.0,7.0,1.0,1.2,0.7,Time
,,S08,1,Female,20,anonymized,Serial_Dependence_U,2023.2.3,Win32,120.4819277,,,,,,,,,,,,1424.7107,4.0,1424.7108,,,,1427.8261,1428.325,1427.318,1427.8259,1425.714,150.0,1427.3178,1428.3251,1428.8247,1428.8247,1430.6201,1249.7,1430.6203,2.0,1431.6148,4.0,26.0,146.0,4.0,1.0,1.6,0.3,Time
,,S08,1,Female,20,anonymized,Serial_Dependence_U,2023.2.3,Win32,120.4819277,,,,,,,,,,,,1431.615,4.0,1431.6152,,,,1434.1392,1434.6381,1433.6311,1434.139,1432.6229,134.0,1433.6308,1434.6381,1435.1379,1435.1379,1436.4415,1007.8,1436.4416,3.0,1437.4364,4.0,27.0,147.0,11.0,1.0,1.0,0.3,Time
,,S08,1,Female,20,anonymized,Serial_Dependence_U,2023.2.3,Win32,120.4819277,,,,,,,,,,,,1437.4368,4.0,1437.4369,,,,1440.5552,1441.0511,1440.0525,1440.5552,1438.4446,178.0,1440.0522,1441.0511,1441.5509,1441.5509,1443.3461,1412.2,1443.3463,2.0,1444.3409,4.0,28.0,148.0,9.0,1.0,1.6,0.7,Time
,,S08,1,Female,20,anonymized,Serial_Dependence_U,2023.2.3,Win32,120.4819277,,,,,,,,,,,,1444.3411,4.0,1444.3413,,,,1447.467,1447.9638,1446.9563,1447.467,1445.3494,258.0,1446.9562,1447.9638,1448.4636,1448.4636,1450.091,1360.0,1450.0911,2.0,1451.087,4.0,29.0,149.0,24.0,1.0,1.6,0.3,Time
,,S08,1,Female,20,anonymized,Serial_Dependence_U,2023.2.3,Win32,120.4819277,,,,,,,,,,,,1451.0873,5.0,1453.2359,s,2.1327,,1456.3597,1456.8588,1455.8517,1456.3595,1454.2447,116.0,1455.8514,1456.8588,1457.3584,1457.3584,1459.4576,1798.9,1459.4577,4.0,1460.4567,5.0,0.0,150.0,14.0,1.0,1.6,0.3,Time
,,S08,1,Female,20,anonymized,Serial_Dependence_U,2023.2.3,Win32,120.4819277,,,,,,,,,,,,1460.457,5.0,1460.4583,,,,1462.7811,1463.2799,1462.2731,1462.7808,1461.465,121.0,1462.2729,1463.28,1463.7797,1463.7797,1464.4882,382.7,1464.4886,1.0,1465.4871,5.0,1.0,151.0,5.0,1.0,0.8,0.7,Time
,,S08,1,Female,20,anonymized,Serial_Dependence_U,2023.2.3,Win32,120.4819277,,,,,,,,,,,,1465.4875,5.0,1465.4879,,,,1468.2115,1468.7103,1467.7033,1468.2113,1466.4955,75.0,1467.703,1468.7103,1469.21,1469.2101,1470.4968,931.6,1470.4969,2.0,1471.492,5.0,2.0,152.0,22.0,1.0,1.2,0.3,Time
,,S08,1,Female,20,anonymized,Serial_Dependence_U,2023.2.3,Win32,120.4819277,,,,,,,,,,,,1471.4924,5.0,1471.4926,,,,1474.0163,1474.5153,1473.5081,1474.0159,1472.5009,62.0,1473.508,1474.5154,1475.015,1475.015,1476.4759,1123.6,1476.4761,4.0,1477.4719,5.0,3.0,153.0,1.0,1.0,1.0,0.3,Time
,,S08,1,Female,20,anonymized,Serial_Dependence_U,2023.2.3,Win32,120.4819277,,,,,,,,,,,,1477.4723,5.0,1477.4724,,,,1479.7968,1480.2954,1479.2886,1479.7965,1478.4801,69.0,1479.2883,1480.2954,1480.7951,1480.7951,1482.6059,1437.4,1482.6061,5.0,1483.6018,5.0,4.0,154.0,0.0,1.0,0.8,0.3,Time
,,S08,1,Female,20,anonymized,Serial_Dependence_U,2023.2.3,Win32,120.4819277,,,,,,,,,,,,1483.6022,5.0,1483.6023,,,,1486.5258,1487.0247,1486.0182,1486.5256,1484.6103,197.0,1486.0179,1487.0247,1487.5246,1487.5246,1489.7162,1995.6,1489.7166,5.0,1490.7144,5.0,5.0,155.0,3.0,1.0,1.4,0.3,Time
,,S08,1,Female,20,anonymized,Serial_Dependence_U,2023.2.3,Win32,120.4819277,,,,,,,,,,,,1490.7148,5.0,1490.7153,,,,1493.6385,1494.1374,1493.1302,1493.6382,1491.7227,64.0,1493.13,1494.1374,1494.637,1494.637,1497.4638,2422.5,1497.464,5.0,1498.4599,5.0,6.0,156.0,23.0,1.0,1.4,0.3,Time
,,S08,1,Female,20,anonymized,Serial_Dependence_U,2023.2.3,Win32,120.4819277,,,,,,,,,,,,1498.4603,5.0,1498.4607,,,,1500.7841,1501.2834,1500.2762,1500.7838,1499.4688,234.0,1500.2758,1501.2834,1501.7829,1501.783,1503.5076,1397.5,1503.508,5.0,1504.5067,5.0,7.0,157.0,10.0,1.0,0.8,0.3,Time
,,S08,1,Female,20,anonymized,Serial_Dependence_U,2023.2.3,Win32,120.4819277,,,,,,,,,,,,1504.5075,5.0,1504.5079,,,,1507.0304,1507.5297,1506.5225,1507.0304,1505.5147,300.0,1506.5224,1507.5297,1508.0294,1508.0294,1509.0541,1010.0,1509.0543,3.0,1510.0533,5.0,8.0,158.0,26.0,1.0,1.0,0.7,Time
,,S08,1,Female,20,anonymized,Serial_Dependence_U,2023.2.3,Win32,120.4819277,,,,,,,,,,,,1510.0537,5.0,1510.0538,,,,1512.5778,1513.0765,1512.0697,1512.5776,1511.0616,130.0,1512.0693,1513.0765,1513.5764,1513.5764,1515.7103,1966.0,1515.7106,5.0,1516.7078,5.0,9.0,159.0,11.0,1.0,1.0,0.3,Time
,,S08,1,Female,20,anonymized,Serial_Dependence_U,2023.2.3,Win32,120.4819277,,,,,,,,,,,,1516.7081,5.0,1516.7083,,,,1519.0238,1519.5229,1518.5161,1519.0235,1517.7102,88.0,1518.5157,1519.5229,1520.0227,1520.0227,1521.5259,1207.5,1521.526,5.0,1522.5212,5.0,10.0,160.0,25.0,1.0,0.8,0.7,Time
,,S08,1,Female,20,anonymized,Serial_Dependence_U,2023.2.3,Win32,120.4819277,,,,,,,,,,,,1522.5219,5.0,1522.5224,,,,1525.4452,1525.9442,1524.9371,1525.445,1523.5299,191.0,1524.9368,1525.9443,1526.4438,1526.4438,1527.81,1017.6,1527.8101,2.0,1528.8094,5.0,11.0,161.0,8.0,1.0,1.4,0.7,Time
,,S08,1,Female,20,anonymized,Serial_Dependence_U,2023.2.3,Win32,120.4819277,,,,,,,,,,,,1528.8097,5.0,1528.8098,,,,1531.7274,1532.2239,1531.2171,1531.7272,1529.8126,92.0,1531.2168,1532.2239,1532.7238,1532.7238,1534.6228,1550.6,1534.6231,4.0,1535.622,5.0,12.0,162.0,18.0,1.0,1.4,0.7,Time
,,S08,1,Female,20,anonymized,Serial_Dependence_U,2023.2.3,Win32,120.4819277,,,,,,,,,,,,1535.6225,5.0,1535.6226,,,,1538.5493,1539.0451,1538.0377,1538.5492,1536.6302,239.0,1538.0375,1539.0451,1539.5448,1539.5448,1542.1968,2028.7,1542.1969,5.0,1543.1926,5.0,13.0,163.0,13.0,1.0,1.4,0.3,Time
,,S08,1,Female,20,anonymized,Serial_Dependence_U,2023.2.3,Win32,120.4819277,,,,,,,,,,,,1543.193,5.0,1543.1931,,,,1545.917,1546.4159,1545.4086,1545.9169,1544.2014,50.0,1545.4084,1546.4159,1546.9155,1546.9156,1548.5942,1319.4,1548.5943,4.0,1549.589,5.0,14.0,164.0,7.0,1.0,1.2,0.7,Time
,,S08,1,Female,20,anonymized,Serial_Dependence_U,2023.2.3,Win32,120.4819277,,,,,,,,,,,,1549.5893,5.0,1549.5895,,,,1552.7129,1553.2119,1552.2049,1552.7127,1550.5977,19.0,1552.2046,1553.212,1553.7117,1553.7118,1555.1944,1118.2,1555.1948,1.0,1556.1936,5.0,15.0,165.0,29.0,1.0,1.6,0.7,Time
,,S08,1,Female,20,anonymized,Serial_Dependence_U,2023.2.3,Win32,120.4819277,,,,,,,,,,,,1556.1939,5.0,1556.1941,,,,1559.3174,1559.8164,1558.8095,1559.3171,1557.2023,277.0,1558.8092,1559.8164,1560.3162,1560.3162,1562.5333,1916.4,1562.5334,4.0,1563.531,5.0,16.0,166.0,4.0,1.0,1.6,0.3,Time
,,S08,1,Female,20,anonymized,Serial_Dependence_U,2023.2.3,Win32,120.4819277,,,,,,,,,,,,1563.5313,5.0,1563.5314,,,,1566.2554,1566.7542,1565.747,1566.2552,1564.5394,344.0,1565.7467,1566.7543,1567.254,1567.254,1569.1321,1516.6,1569.1322,4.0,1570.1272,5.0,17.0,167.0,17.0,1.0,1.2,0.7,Time
,,S08,1,Female,20,anonymized,Serial_Dependence_U,2023.2.3,Win32,120.4819277,,,,,,,,,,,,1570.1276,5.0,1570.1279,,,,1573.2513,1573.7502,1572.7431,1573.251,1571.136,187.0,1572.7429,1573.7502,1574.2499,1574.25,1576.2073,1671.1,1576.2077,3.0,1577.2065,5.0,18.0,168.0,19.0,1.0,1.6,0.7,Time
,,S08,1,Female,20,anonymized,Serial_Dependence_U,2023.2.3,Win32,120.4819277,,,,,,,,,,,,1577.2068,5.0,1577.207,,,,1579.523,1580.0216,1579.0147,1579.5228,1578.2077,199.0,1579.0144,1580.0216,1580.5213,1580.5213,1582.0583,1424.7,1582.0584,5.0,1583.0533,5.0,19.0,169.0,20.0,1.0,0.8,0.3,Time
,,S08,1,Female,20,anonymized,Serial_Dependence_U,2023.2.3,Win32,120.4819277,,,,,,,,,,,,1583.0536,5.0,1583.054,,,,1585.7721,1586.268,1585.2691,1585.772,1584.0617,231.0,1585.2688,1586.268,1586.7677,1586.7678,1589.0167,1908.7,1589.0172,5.0,1590.0159,5.0,20.0,170.0,12.0,1.0,1.2,0.3,Time
,,S08,1,Female,20,anonymized,Serial_Dependence_U,2023.2.3,Win32,120.4819277,,,,,,,,,,,,1590.0164,5.0,1590.0168,,,,1592.5318,1593.0308,1592.0271,1592.5315,1591.0244,208.0,1592.0271,1593.0308,1593.5304,1593.5305,1595.359,1339.5,1595.3591,5.0,1596.3539,5.0,21.0,171.0,6.0,1.0,1.0,0.7,Time
,,S08,1,Female,20,anonymized,Serial_Dependence_U,2023.2.3,Win32,120.4819277,,,,,,,,,,,,1596.3543,5.0,1596.3547,,,,1599.2697,1599.7686,1598.7615,1599.2695,1597.3574,102.0,1598.7612,1599.7686,1600.2684,1600.2684,1602.3967,1853.2,1602.3968,5.0,1603.3916,5.0,22.0,172.0,28.0,1.0,1.4,0.7,Time
,,S08,1,Female,20,anonymized,Serial_Dependence_U,2023.2.3,Win32,120.4819277,,,,,,,,,,,,1603.392,5.0,1603.3923,,,,1606.5158,1607.0145,1606.0074,1606.5156,1604.4002,332.0,1606.0071,1607.0146,1607.5142,1607.5143,1609.4721,1657.8,1609.4725,3.0,1610.4709,5.0,23.0,173.0,9.0,1.0,1.6,0.7,Time
,,S08,1,Female,20,anonymized,Serial_Dependence_U,2023.2.3,Win32,120.4819277,,,,,,,,,,,,1610.4715,5.0,1610.4718,,,,1612.9952,1613.4941,1612.4873,1612.9949,1611.4791,246.0,1612.487,1613.4941,1613.9938,1613.9939,1616.0678,1911.0,1616.0681,5.0,1617.0671,5.0,24.0,174.0,21.0,1.0,1.0,0.3,Time
,,S08,1,Female,20,anonymized,Serial_Dependence_U,2023.2.3,Win32,120.4819277,,,,,,,,,,,,1617.0675,5.0,1617.0677,,,,1619.5862,1620.0829,1619.0747,1619.5861,1618.0695,272.0,1619.0745,1620.083,1620.5817,1620.5817,1621.8688,991.4,1621.8689,3.0,1622.8637,5.0,25.0,175.0,16.0,1.0,1.0,0.7,Time
,,S08,1,Female,20,anonymized,Serial_Dependence_U,2023.2.3,Win32,120.4819277,,,,,,,,,,,,1622.8641,5.0,1622.8642,,,,1625.1797,1625.6788,1624.6717,1625.1795,1623.8673,44.0,1624.6715,1625.6789,1626.1787,1626.1787,1627.5117,966.2,1627.5121,4.0,1628.5105,5.0,26.0,176.0,15.0,1.0,0.8,0.7,Time
,,S08,1,Female,20,anonymized,Serial_Dependence_U,2023.2.3,Win32,120.4819277,,,,,,,,,,,,1628.5108,5.0,1628.511,,,,1631.2347,1631.7337,1630.7262,1631.2345,1629.5186,276.0,1630.726,1631.7337,1632.2334,1632.2334,1633.3199,699.6,1633.3201,1.0,1634.3155,5.0,27.0,177.0,2.0,1.0,1.2,0.3,Time
,,S08,1,Female,20,anonymized,Serial_Dependence_U,2023.2.3,Win32,120.4819277,,,,,,,,,,,,1634.3158,5.0,1634.3159,,,,1637.4419,1637.9386,1636.9315,1637.4418,1635.324,45.0,1636.9312,1637.9386,1638.4382,1638.4382,1640.1479,1347.7,1640.148,2.0,1641.145,5.0,28.0,178.0,24.0,1.0,1.6,0.3,Time
,,S08,1,Female,20,anonymized,Serial_Dependence_U,2023.2.3,Win32,120.4819277,,,,,,,,,,,,1641.1453,5.0,1641.1454,,,,1643.8691,1644.3682,1643.3612,1643.8688,1642.1566,355.0,1643.3609,1644.3682,1644.8678,1644.8679,1646.8002,1535.3,1646.8007,4.0,1647.7995,5.0,29.0,179.0,27.0,1.0,1.2,0.7,Time
,,S08,1,Female,20,anonymized,Serial_Dependence_U,2023.2.3,Win32,120.4819277,,,,,,,,,,,,1647.7999,6.0,1649.6902,s,1.8813,0.0005,1652.2147,1652.7134,1651.7064,1652.2145,1650.6982,193.0,1651.7061,1652.7134,1653.2131,1653.2131,1654.6977,1359.5,1654.6979,5.0,1655.6949,6.0,0.0,180.0,6.0,1.0,1.0,0.7,Time
,,S08,1,Female,20,anonymized,Serial_Dependence_U,2023.2.3,Win32,120.4819277,,,,,,,,,,,,1655.6952,6.0,1655.6965,,,,1658.8193,1659.318,1658.3109,1658.8191,1656.7038,30.0,1658.3107,1659.318,1659.8177,1659.8178,1662.2044,2021.6,1662.2045,4.0,1663.199,6.0,1.0,181.0,4.0,1.0,1.6,0.3,Time
,,S08,1,Female,20,anonymized,Serial_Dependence_U,2023.2.3,Win32,120.4819277,,,,,,,,,,,,1663.1993,6.0,1663.1995,,,,1665.5233,1666.0223,1665.0151,1665.523,1664.2079,306.0,1665.0149,1666.0223,1666.5223,1666.5224,1667.8083,1273.4,1667.8085,5.0,1668.8042,6.0,2.0,182.0,10.0,1.0,0.8,0.3,Time
,,S08,1,Female,20,anonymized,Serial_Dependence_U,2023.2.3,Win32,120.4819277,,,,,,,,,,,,1668.8048,6.0,1668.8053,,,,1671.72,1672.219,1671.2119,1671.7198,1669.807,209.0,1671.2116,1672.219,1672.7187,1672.7187,1673.9014,1096.8,1673.9017,2.0,1674.9006,6.0,3.0,183.0,3.0,1.0,1.4,0.3,Time
,,S08,1,Female,20,anonymized,Serial_Dependence_U,2023.2.3,Win32,120.4819277,,,,,,,,,,,,1674.9009,6.0,1674.9011,,,,1677.6245,1678.1238,1677.1165,1677.6245,1675.9088,216.0,1677.1164,1678.1238,1678.6235,1678.6235,1681.1307,2149.7,1681.1311,5.0,1682.1298,6.0,4.0,184.0,7.0,1.0,1.2,0.7,Time
,,S08,1,Female,20,anonymized,Serial_Dependence_U,2023.2.3,Win32,120.4819277,,,,,,,,,,,,1682.1301,6.0,1682.1303,,,,1684.4545,1684.9533,1683.946,1684.4543,1683.1382,319.0,1683.9458,1684.9533,1685.453,1685.453,1686.6029,1092.6,1686.6032,5.0,1687.6018,6.0,5.0,185.0,15.0,1.0,0.8,0.7,Time
,,S08,1,Female,20,anonymized,Serial_Dependence_U,2023.2.3,Win32,120.4819277,,,,,,,,,,,,1687.6022,6.0,1687.6023,,,,1690.5256,1691.0248,1690.0174,1690.5254,1688.6101,163.0,1690.0173,1691.0248,1691.5245,1691.5245,1694.9646,3078.5,1694.9649,5.0,1695.9637,6.0,6.0,186.0,23.0,1.0,1.4,0.3,Time
,,S08,1,Female,20,anonymized,Serial_Dependence_U,2023.2.3,Win32,120.4819277,,,,,,,,,,,,1695.9641,6.0,1695.9643,,,,1698.6876,1699.1869,1698.1794,1698.6875,1696.9718,123.0,1698.1793,1699.1869,1699.6866,1699.6867,1701.2195,1070.4,1701.2196,2.0,1702.2183,6.0,7.0,187.0,27.0,1.0,1.2,0.7,Time
,,S08,1,Female,20,anonymized,Serial_Dependence_U,2023.2.3,Win32,120.4819277,,,,,,,,,,,,1702.2188,6.0,1702.2189,,,,1704.5426,1705.0419,1704.0346,1704.5424,1703.2269,217.0,1704.0343,1705.0419,1705.5416,1705.5416,1707.084,978.5,1707.0842,4.0,1708.0818,6.0,8.0,188.0,20.0,1.0,0.8,0.3,Time
,,S08,1,Female,20,anonymized,Serial_Dependence_U,2023.2.3,Win32,120.4819277,,,,,,,,,,,,1708.0821,6.0,1708.0823,,,,1710.401,1710.8967,1709.8981,1710.4009,1709.0902,81.0,1709.8978,1710.8967,1711.3966,1711.3966,1712.367,505.3,1712.3673,1.0,1713.362,6.0,9.0,189.0,5.0,1.0,0.8,0.7,Time
,,S08,1,Female,20,anonymized,Serial_Dependence_U,2023.2.3,Win32,120.4819277,,,,,,,,,,,,1713.3624,6.0,1713.3625,,,,1715.8859,1716.3852,1715.378,1715.8859,1714.372,219.0,1715.3778,1716.3853,1716.8851,1716.8851,1718.501,1256.9,1718.5012,4.0,1719.5002,6.0,10.0,190.0,11.0,1.0,1.0,0.3,Time
,,S08,1,Female,20,anonymized,Serial_Dependence_U,2023.2.3,Win32,120.4819277,,,,,,,,,,,,1719.5006,6.0,1719.5007,,,,1722.4243,1722.9232,1721.9164,1722.424,1720.5084,344.0,1721.916,1722.9232,1723.4229,1723.4229,1725.0056,1190.5,1725.0058,2.0,1726.0048,6.0,11.0,191.0,13.0,1.0,1.4,0.3,Time
,,S08,1,Female,20,anonymized,Serial_Dependence_U,2023.2.3,Win32,120.4819277,,,,,,,,,,,,1726.0051,6.0,1726.0053,,,,1728.729,1729.2279,1728.2211,1728.7287,1727.0133,299.0,1728.2208,1729.228,1729.7278,1729.7279,1732.2888,2223.6,1732.2889,5.0,1733.284,6.0,12.0,192.0,17.0,1.0,1.2,0.7,Time
,,S08,1,Female,20,anonymized,Serial_Dependence_U,2023.2.3,Win32,120.4819277,,,,,,,,,,,,1733.2843,6.0,1733.2845,,,,1735.8003,1736.299,1735.2919,1735.8,1734.2864,352.0,1735.2916,1736.299,1736.7987,1736.7987,1738.2983,1429.2,1738.2988,5.0,1739.2972,6.0,13.0,193.0,16.0,1.0,1.0,0.7,Time
,,S08,1,Female,20,anonymized,Serial_Dependence_U,2023.2.3,Win32,120.4819277,,,,,,,,,,,,1739.2978,6.0,1739.2982,,,,1742.4214,1742.9201,1741.9132,1742.4211,1740.3058,285.0,1741.9129,1742.9201,1743.4198,1743.4198,1744.9693,1197.4,1744.9695,2.0,1745.9683,6.0,14.0,194.0,19.0,1.0,1.6,0.7,Time
,,S08,1,Female,20,anonymized,Serial_Dependence_U,2023.2.3,Win32,120.4819277,,,,,,,,,,,,1745.9686,6.0,1745.9687,,,,1748.6924,1749.1915,1748.1842,1748.6923,1746.9768,318.0,1748.184,1749.1915,1749.6911,1749.6911,1752.386,2344.2,1752.3862,5.0,1753.3808,6.0,15.0,195.0,22.0,1.0,1.2,0.3,Time
,,S08,1,Female,20,anonymized,Serial_Dependence_U,2023.2.3,Win32,120.4819277,,,,,,,,,,,,1753.3811,6.0,1753.3811,,,,1756.2966,1756.7956,1755.7883,1756.2964,1754.3835,166.0,1755.7881,1756.7956,1757.2951,1757.2952,1757.9815,385.3,1757.9816,1.0,1758.9776,6.0,16.0,196.0,8.0,1.0,1.4,0.7,Time
,,S08,1,Female,20,anonymized,Serial_Dependence_U,2023.2.3,Win32,120.4819277,,,,,,,,,,,,1758.9779,6.0,1758.978,,,,1762.1019,1762.6006,1761.5935,1762.1016,1759.9861,3.0,1761.5932,1762.6006,1763.1003,1763.1004,1765.0535,1913.1,1765.0536,4.0,1766.0485,6.0,17.0,197.0,24.0,1.0,1.6,0.3,Time
,,S08,1,Female,20,anonymized,Serial_Dependence_U,2023.2.3,Win32,120.4819277,,,,,,,,,,,,1766.0488,6.0,1766.049,,,,1769.1725,1769.6714,1768.6645,1769.1723,1767.0568,125.0,1768.6643,1769.6714,1770.1711,1770.1712,1774.3448,3360.8,1774.3452,5.0,1775.3432,6.0,18.0,198.0,14.0,1.0,1.6,0.3,Time
,,S08,1,Female,20,anonymized,Serial_Dependence_U,2023.2.3,Win32,120.4819277,,,,,,,,,,,,1775.3435,6.0,1775.3436,,,,1778.0704,1778.5664,1777.5599,1778.0703,1776.3514,339.0,1777.5596,1778.5665,1779.0662,1779.0663,1781.5981,1545.6,1781.5983,4.0,1782.5974,6.0,19.0,199.0,2.0,1.0,1.2,0.3,Time
,,S08,1,Female,20,anonymized,Serial_Dependence_U,2023.2.3,Win32,120.4819277,,,,,,,,,,,,1782.5978,6.0,1782.5979,,,,1785.5217,1786.0205,1785.0138,1785.5216,1783.6058,333.0,1785.0135,1786.0205,1786.5203,1786.5204,1786.6789,105.2,1786.679,1.0,1787.6779,6.0,20.0,200.0,18.0,1.0,1.4,0.7,Time
,,S08,1,Female,20,anonymized,Serial_Dependence_U,2023.2.3,Win32,120.4819277,,,,,,,,,,,,1787.6781,6.0,1787.6782,,,,1790.8017,1791.3007,1790.2935,1790.8015,1788.6862,56.0,1790.2932,1791.3007,1791.8005,1791.8006,1794.536,2269.7,1794.5362,5.0,1795.5316,6.0,21.0,201.0,9.0,1.0,1.6,0.7,Time
,,S08,1,Female,20,anonymized,Serial_Dependence_U,2023.2.3,Win32,120.4819277,,,,,,,,,,,,1795.532,6.0,1795.5321,,,,1798.056,1798.5549,1797.5479,1798.0557,1796.5399,38.0,1797.5476,1798.555,1799.0546,1799.0546,1801.6704,2230.7,1801.6708,5.0,1802.6693,6.0,22.0,202.0,1.0,1.0,1.0,0.3,Time
,,S08,1,Female,20,anonymized,Serial_Dependence_U,2023.2.3,Win32,120.4819277,,,,,,,,,,,,1802.6696,6.0,1802.67,,,,1804.9968,1805.4927,1804.4859,1804.9967,1803.6804,13.0,1804.4858,1805.4927,1805.9923,1805.9923,1809.0367,2546.3,1809.037,5.0,1810.0317,6.0,23.0,203.0,25.0,1.0,0.8,0.7,Time
,,S08,1,Female,20,anonymized,Serial_Dependence_U,2023.2.3,Win32,120.4819277,,,,,,,,,,,,1810.0321,6.0,1810.0325,,,,1812.5562,1813.055,1812.048,1812.5559,1811.0403,58.0,1812.0477,1813.055,1813.5547,1813.5547,1815.6707,1765.6,1815.6711,5.0,1816.6697,6.0,24.0,204.0,21.0,1.0,1.0,0.3,Time
,,S08,1,Female,20,anonymized,Serial_Dependence_U,2023.2.3,Win32,120.4819277,,,,,,,,,,,,1816.6702,6.0,1816.6705,,,,1819.1942,1819.6928,1818.6856,1819.194,1817.6782,231.0,1818.6854,1819.6928,1820.1926,1820.1926,1822.4169,1901.4,1822.4173,5.0,1823.4157,6.0,25.0,205.0,26.0,1.0,1.0,0.7,Time
,,S08,1,Female,20,anonymized,Serial_Dependence_U,2023.2.3,Win32,120.4819277,,,,,,,,,,,,1823.4161,6.0,1823.4166,,,,1826.5421,1827.0387,1826.0314,1826.542,1824.4242,160.0,1826.0312,1827.0387,1827.5384,1827.5384,1830.1127,2176.0,1830.1131,5.0,1831.1113,6.0,26.0,206.0,29.0,1.0,1.6,0.7,Time
,,S08,1,Female,20,anonymized,Serial_Dependence_U,2023.2.3,Win32,120.4819277,,,,,,,,,,,,1831.112,6.0,1831.1124,,,,1833.8351,1834.3344,1833.3277,1833.8349,1832.1197,160.0,1833.3272,1834.3344,1834.8342,1834.8342,1836.4961,1281.2,1836.4962,4.0,1837.491,6.0,27.0,207.0,12.0,1.0,1.2,0.3,Time
,,S08,1,Female,20,anonymized,Serial_Dependence_U,2023.2.3,Win32,120.4819277,,,,,,,,,,,,1837.4913,6.0,1837.4914,,,,1840.4148,1840.914,1839.9072,1840.4146,1838.4996,77.0,1839.9069,1840.9141,1841.4137,1841.4137,1843.0485,1062.2,1843.0486,2.0,1844.0455,6.0,28.0,208.0,28.0,1.0,1.4,0.7,Time
,,S08,1,Female,20,anonymized,Serial_Dependence_U,2023.2.3,Win32,120.4819277,,,,,,,,,,,,1844.0459,6.0,1844.0459,,,,1846.364,1846.8606,1845.8617,1846.3638,1845.0541,48.0,1845.8615,1846.8607,1847.3605,1847.3605,1848.8888,1042.1,1848.889,5.0,1849.8839,6.0,29.0,209.0,0.0,1.0,0.8,0.3,Time
,,S08,1,Female,20,anonymized,Serial_Dependence_U,2023.2.3,Win32,120.4819277,,,,,,,,,,,,1849.8841,7.0,1851.9078,s,2.0098,0.0002,1854.2322,1854.7312,1853.7243,1854.232,1852.916,217.0,1853.724,1854.7313,1855.231,1855.231,1856.5928,939.2,1856.5929,4.0,1857.5879,7.0,0.0,210.0,0.0,1.0,0.8,0.3,Time
,,S08,1,Female,20,anonymized,Serial_Dependence_U,2023.2.3,Win32,120.4819277,,,,,,,,,,,,1857.5882,7.0,1857.5893,,,,1860.1122,1860.611,1859.604,1860.1119,1858.5962,108.0,1859.6037,1860.611,1861.1108,1861.1108,1862.7059,1245.4,1862.7061,4.0,1863.701,7.0,1.0,211.0,26.0,1.0,1.0,0.7,Time
,,S08,1,Female,20,anonymized,Serial_Dependence_U,2023.2.3,Win32,120.4819277,,,,,,,,,,,,1863.7015,7.0,1863.7018,,,,1866.8253,1867.3239,1866.3166,1866.8251,1864.7097,106.0,1866.3165,1867.3239,1867.8237,1867.8237,1869.5729,1269.7,1869.5733,2.0,1870.5721,7.0,2.0,212.0,19.0,1.0,1.6,0.7,Time
,,S08,1,Female,20,anonymized,Serial_Dependence_U,2023.2.3,Win32,120.4819277,,,,,,,,,,,,1870.5724,7.0,1870.5726,,,,1873.4963,1873.9952,1872.9881,1873.4961,1871.5808,179.0,1872.9878,1873.9952,1874.4949,1874.495,1876.0859,1267.9,1876.0863,2.0,1877.085,7.0,3.0,213.0,23.0,1.0,1.4,0.3,Time
,,S08,1,Female,20,anonymized,Serial_Dependence_U,2023.2.3,Win32,120.4819277,,,,,,,,,,,,1877.0854,7.0,1877.0855,,,,1879.6092,1880.1082,1879.1012,1879.6089,1878.0936,70.0,1879.1009,1880.1082,1880.6081,1880.6082,1882.9779,1881.1,1882.9781,5.0,1883.9728,7.0,4.0,214.0,6.0,1.0,1.0,0.7,Time
,,S08,1,Female,20,anonymized,Serial_Dependence_U,2023.2.3,Win32,120.4819277,,,,,,,,,,,,1883.973,7.0,1883.9732,,,,1886.2972,1886.7961,1885.7891,1886.2969,1884.9812,26.0,1885.7889,1886.7961,1887.2959,1887.2959,1888.2788,368.9,1888.2792,1.0,1889.2782,7.0,5.0,215.0,10.0,1.0,0.8,0.3,Time
,,S08,1,Female,20,anonymized,Serial_Dependence_U,2023.2.3,Win32,120.4819277,,,,,,,,,,,,1889.2785,7.0,1889.2786,,,,1892.4017,1892.901,1891.8937,1892.4017,1890.2862,359.0,1891.8937,1892.901,1893.4007,1893.4008,1895.2585,1500.3,1895.2587,2.0,1896.2576,7.0,6.0,216.0,4.0,1.0,1.6,0.3,Time
,,S08,1,Female,20,anonymized,Serial_Dependence_U,2023.2.3,Win32,120.4819277,,,,,,,,,,,,1896.2584,7.0,1896.2587,,,,1899.1817,1899.6805,1898.6758,1899.1815,1897.2661,45.0,1898.6758,1899.6805,1900.1801,1900.1801,1902.2002,1747.6,1902.2004,4.0,1903.195,7.0,7.0,217.0,13.0,1.0,1.4,0.3,Time
,,S08,1,Female,20,anonymized,Serial_Dependence_U,2023.2.3,Win32,120.4819277,,,,,,,,,,,,1903.1954,7.0,1903.1955,,,,1905.5113,1906.0101,1905.0029,1905.511,1904.1977,66.0,1905.0027,1906.0102,1906.5099,1906.5099,1907.5387,625.4,1907.5388,2.0,1908.5337,7.0,8.0,218.0,15.0,1.0,0.8,0.7,Time
,,S08,1,Female,20,anonymized,Serial_Dependence_U,2023.2.3,Win32,120.4819277,,,,,,,,,,,,1908.534,7.0,1908.5342,,,,1910.8582,1911.3572,1910.3501,1910.858,1909.5421,53.0,1910.3498,1911.3572,1911.8568,1911.8568,1914.7834,2530.4,1914.7836,5.0,1915.7796,7.0,9.0,219.0,25.0,1.0,0.8,0.7,Time
,,S08,1,Female,20,anonymized,Serial_Dependence_U,2023.2.3,Win32,120.4819277,,,,,,,,,,,,1915.7799,7.0,1915.78,,,,1918.4894,1918.9861,1917.9876,1918.4893,1916.782,147.0,1917.9873,1918.9861,1919.4857,1919.4858,1922.7595,2551.3,1922.7599,5.0,1923.7584,7.0,10.0,220.0,17.0,1.0,1.2,0.7,Time
,,S08,1,Female,20,anonymized,Serial_Dependence_U,2023.2.3,Win32,120.4819277,,,,,,,,,,,,1923.7591,7.0,1923.7595,,,,1926.4822,1926.9814,1925.9744,1926.4822,1924.7693,336.0,1925.9742,1926.9815,1927.4812,1927.4812,1931.1716,3255.4,1931.172,5.0,1932.1702,7.0,11.0,221.0,12.0,1.0,1.2,0.3,Time
,,S08,1,Female,20,anonymized,Serial_Dependence_U,2023.2.3,Win32,120.4819277,,,,,,,,,,,,1932.1708,7.0,1932.1711,,,,1935.286,1935.7847,1934.7778,1935.2858,1933.1726,102.0,1934.7776,1935.7847,1936.2845,1936.2846,1937.9795,1350.4,1937.9797,2.0,1938.9745,7.0,12.0,222.0,9.0,1.0,1.6,0.7,Time
,,S08,1,Female,20,anonymized,Serial_Dependence_U,2023.2.3,Win32,120.4819277,,,,,,,,,,,,1938.9749,7.0,1938.975,,,,1941.6928,1942.1894,1941.1904,1941.6927,1939.9863,253.0,1941.1903,1942.1894,1942.6892,1942.6892,1944.2302,1189.3,1944.2307,3.0,1945.2294,7.0,13.0,223.0,7.0,1.0,1.2,0.7,Time
,,S08,1,Female,20,anonymized,Serial_Dependence_U,2023.2.3,Win32,120.4819277,,,,,,,,,,,,1945.2296,7.0,1945.2297,,,,1948.1493,1948.6442,1947.6455,1948.1493,1946.2409,137.0,1947.6453,1948.6442,1949.1438,1949.1438,1951.1596,1608.3,1951.1601,4.0,1952.1587,7.0,14.0,224.0,3.0,1.0,1.4,0.3,Time
,,S08,1,Female,20,anonymized,Serial_Dependence_U,2023.2.3,Win32,120.4819277,,,,,,,,,,,,1952.159,7.0,1952.1593,,,,1954.4831,1954.9821,1953.975,1954.4829,1953.1672,344.0,1953.9746,1954.9822,1955.4818,1955.4819,1957.3064,1710.0,1957.3065,5.0,1958.3052,7.0,15.0,225.0,20.0,1.0,0.8,0.3,Time
,,S08,1,Female,20,anonymized,Serial_Dependence_U,2023.2.3,Win32,120.4819277,,,,,,,,,,,,1958.3059,7.0,1958.3062,,,,1960.8295,1961.3286,1960.3217,1960.8292,1959.314,345.0,1960.3215,1961.3286,1961.8283,1961.8283,1963.0983,867.0,1963.0985,2.0,1964.0938,7.0,16.0,226.0,1.0,1.0,1.0,0.3,Time
,,S08,1,Female,20,anonymized,Serial_Dependence_U,2023.2.3,Win32,120.4819277,,,,,,,,,,,,1964.0941,7.0,1964.0942,,,,1966.8127,1967.3083,1966.3015,1966.8127,1965.0999,266.0,1966.3013,1967.3084,1967.8082,1967.8082,1969.6869,1304.0,1969.6871,4.0,1970.6814,7.0,17.0,227.0,22.0,1.0,1.2,0.3,Time
,,S08,1,Female,20,anonymized,Serial_Dependence_U,2023.2.3,Win32,120.4819277,,,,,,,,,,,,1970.6818,7.0,1970.682,,,,1973.8055,1974.3044,1973.2973,1973.8052,1971.6899,77.0,1973.297,1974.3044,1974.8041,1974.8041,1976.8373,1665.1,1976.8377,3.0,1977.8357,7.0,18.0,228.0,29.0,1.0,1.6,0.7,Time
,,S08,1,Female,20,anonymized,Serial_Dependence_U,2023.2.3,Win32,120.4819277,,,,,,,,,,,,1977.836,7.0,1977.8362,,,,1980.7599,1981.2588,1980.252,1980.7597,1978.8441,66.0,1980.2518,1981.2588,1981.7584,1981.7584,1983.9158,1549.2,1983.916,4.0,1984.915,7.0,19.0,229.0,18.0,1.0,1.4,0.7,Time
,,S08,1,Female,20,anonymized,Serial_Dependence_U,2023.2.3,Win32,120.4819277,,,,,,,,,,,,1984.9153,7.0,1984.9155,,,,1987.8395,1988.3382,1987.3308,1987.8392,1985.9237,43.0,1987.3306,1988.3382,1988.8378,1988.8378,1990.2707,1084.8,1990.2711,2.0,1991.2697,7.0,20.0,230.0,28.0,1.0,1.4,0.7,Time
,,S08,1,Female,20,anonymized,Serial_Dependence_U,2023.2.3,Win32,120.4819277,,,,,,,,,,,,1991.27,7.0,1991.2701,,,,1993.9936,1994.4929,1993.4858,1993.9934,1992.2808,160.0,1993.4855,1994.4929,1994.9926,1994.9926,1997.1167,1683.9,1997.1172,5.0,1998.1158,7.0,21.0,231.0,2.0,1.0,1.2,0.3,Time
,,S08,1,Female,20,anonymized,Serial_Dependence_U,2023.2.3,Win32,120.4819277,,,,,,,,,,,,1998.1161,7.0,1998.1163,,,,2001.2398,2001.7388,2000.7315,2001.2396,1999.1243,359.0,2000.7313,2001.7388,2002.2384,2002.2384,2003.7984,1169.0,2003.7986,2.0,2004.7952,7.0,22.0,232.0,24.0,1.0,1.6,0.3,Time
,,S08,1,Female,20,anonymized,Serial_Dependence_U,2023.2.3,Win32,120.4819277,,,,,,,,,,,,2004.7957,7.0,2004.7958,,,,2007.9109,2008.4098,2007.4051,2007.9106,2005.8041,51.0,2007.405,2008.4098,2008.9098,2008.9098,2010.9462,1575.3,2010.9464,3.0,2011.9413,7.0,23.0,233.0,14.0,1.0,1.6,0.3,Time
,,S08,1,Female,20,anonymized,Serial_Dependence_U,2023.2.3,Win32,120.4819277,,,,,,,,,,,,2011.9416,7.0,2011.9419,,,,2014.4654,2014.9644,2013.9576,2014.4652,2012.9499,119.0,2013.9573,2014.9644,2015.4642,2015.4642,2018.1163,2146.6,2018.1164,5.0,2019.1121,7.0,24.0,234.0,16.0,1.0,1.0,0.7,Time
,,S08,1,Female,20,anonymized,Serial_Dependence_U,2023.2.3,Win32,120.4819277,,,,,,,,,,,,2019.1124,7.0,2019.1126,,,,2021.4366,2021.9354,2020.9284,2021.4363,2020.1207,122.0,2020.9281,2021.9354,2022.4352,2022.4352,2023.9794,775.5,2023.9796,3.0,2024.9756,7.0,25.0,235.0,5.0,1.0,0.8,0.7,Time
,,S08,1,Female,20,anonymized,Serial_Dependence_U,2023.2.3,Win32,120.4819277,,,,,,,,,,,,2024.9763,7.0,2024.9766,,,,2027.702,2028.1987,2027.1919,2027.702,2025.9836,352.0,2027.1916,2028.1987,2028.6983,2028.6984,2030.3479,1112.2,2030.3482,2.0,2031.3468,7.0,26.0,236.0,27.0,1.0,1.2,0.7,Time
,,S08,1,Female,20,anonymized,Serial_Dependence_U,2023.2.3,Win32,120.4819277,,,,,,,,,,,,2031.3472,7.0,2031.3473,,,,2033.8713,2034.37,2033.3664,2033.8711,2032.3552,194.0,2033.3662,2034.37,2034.8698,2034.8698,2036.3563,1119.3,2036.3564,4.0,2037.3517,7.0,27.0,237.0,11.0,1.0,1.0,0.3,Time
,,S08,1,Female,20,anonymized,Serial_Dependence_U,2023.2.3,Win32,120.4819277,,,,,,,,,,,,2037.352,7.0,2037.3521,,,,2039.8675,2040.3666,2039.3597,2039.8672,2038.355,44.0,2039.3595,2040.3666,2040.8664,2040.8664,2043.3028,2106.3,2043.3029,5.0,2044.2978,7.0,28.0,238.0,21.0,1.0,1.0,0.3,Time
,,S08,1,Female,20,anonymized,Serial_Dependence_U,2023.2.3,Win32,120.4819277,,,,,,,,,,,,2044.2984,7.0,2044.2988,,,,2047.2219,2047.7207,2046.7137,2047.2217,2045.3064,15.0,2046.7133,2047.7207,2048.2204,2048.2205,2051.0026,2364.5,2051.003,5.0,2052.0017,7.0,29.0,239.0,8.0,1.0,1.4,0.7,Time
,,S08,1,Female,20,anonymized,Serial_Dependence_U,2023.2.3,Win32,120.4819277,,,,,,,,,,,,2052.0022,8.0,2053.984,s,1.969,0.0006,2057.0995,2057.5985,2056.5916,2057.0993,2054.9864,126.0,2056.5913,2057.5985,2058.0982,2058.0982,2061.5729,2860.2,2061.5733,5.0,2062.5707,8.0,0.0,240.0,19.0,1.0,1.6,0.7,Time
,,S08,1,Female,20,anonymized,Serial_Dependence_U,2023.2.3,Win32,120.4819277,,,,,,,,,,,,2062.5712,8.0,2062.573,,,,2065.4945,2065.9937,2064.9892,2065.4942,2063.5793,114.0,2064.9891,2065.9937,2066.4933,2066.4934,2069.1621,2270.3,2069.1623,5.0,2070.158,8.0,1.0,241.0,13.0,1.0,1.4,0.3,Time
,,S08,1,Female,20,anonymized,Serial_Dependence_U,2023.2.3,Win32,120.4819277,,,,,,,,,,,,2070.1585,8.0,2070.1588,,,,2072.4743,2072.9729,2071.9661,2072.4741,2071.1587,328.0,2071.9659,2072.9729,2073.4728,2073.4728,2075.34,1221.3,2075.3403,5.0,2076.3378,8.0,2.0,242.0,15.0,1.0,0.8,0.7,Time
,,S08,1,Female,20,anonymized,Serial_Dependence_U,2023.2.3,Win32,120.4819277,,,,,,,,,,,,2076.3385,8.0,2076.3388,,,,2078.8645,2079.361,2078.354,2078.8644,2077.3462,0.0,2078.3538,2079.361,2079.8607,2079.8608,2081.1552,865.5,2081.1553,2.0,2082.1511,8.0,3.0,243.0,16.0,1.0,1.0,0.7,Time
,,S08,1,Female,20,anonymized,Serial_Dependence_U,2023.2.3,Win32,120.4819277,,,,,,,,,,,,2082.1514,8.0,2082.1516,,,,2084.8691,2085.3658,2084.3674,2084.8691,2083.1596,189.0,2084.3672,2085.3659,2085.8656,2085.8657,2088.3606,2087.5,2088.3608,5.0,2089.3552,8.0,4.0,244.0,17.0,1.0,1.2,0.7,Time
,,S08,1,Female,20,anonymized,Serial_Dependence_U,2023.2.3,Win32,120.4819277,,,,,,,,,,,,2089.3556,8.0,2089.3558,,,,2092.0711,2092.5701,2091.5632,2092.0709,2090.3586,35.0,2091.563,2092.5701,2093.0698,2093.0698,2094.8314,1340.8,2094.8316,4.0,2095.8267,8.0,5.0,245.0,7.0,1.0,1.2,0.7,Time
,,S08,1,Female,20,anonymized,Serial_Dependence_U,2023.2.3,Win32,120.4819277,,,,,,,,,,,,2095.8271,8.0,2095.8273,,,,2098.9446,2099.4412,2098.4424,2098.9445,2096.8352,222.0,2098.4422,2099.4412,2099.941,2099.941,2101.5836,1263.9,2101.5839,2.0,2102.5811,8.0,6.0,246.0,14.0,1.0,1.6,0.3,Time
,,S08,1,Female,20,anonymized,Serial_Dependence_U,2023.2.3,Win32,120.4819277,,,,,,,,,,,,2102.5814,8.0,2102.5815,,,,2104.9056,2105.4045,2104.3972,2104.9053,2103.5893,115.0,2104.3971,2105.4045,2105.9041,2105.9042,2107.8703,1512.0,2107.8707,5.0,2108.8692,8.0,7.0,247.0,25.0,1.0,0.8,0.7,Time
,,S08,1,Female,20,anonymized,Serial_Dependence_U,2023.2.3,Win32,120.4819277,,,,,,,,,,,,2108.8694,8.0,2108.8695,,,,2111.1935,2111.6924,2110.6855,2111.1932,2109.8778,279.0,2110.6852,2111.6924,2112.1923,2112.1923,2113.3585,335.3,2113.3589,1.0,2114.3577,8.0,8.0,248.0,5.0,1.0,0.8,0.7,Time
,,S08,1,Female,20,anonymized,Serial_Dependence_U,2023.2.3,Win32,120.4819277,,,,,,,,,,,,2114.3581,8.0,2114.3582,,,,2117.4814,2117.9806,2116.9735,2117.4813,2115.3659,358.0,2116.9734,2117.9806,2118.4802,2118.4803,2120.0381,866.1,2120.0382,1.0,2121.0371,8.0,9.0,249.0,24.0,1.0,1.6,0.3,Time
,,S08,1,Female,20,anonymized,Serial_Dependence_U,2023.2.3,Win32,120.4819277,,,,,,,,,,,,2121.0376,8.0,2121.0377,,,,2123.5613,2124.0604,2123.0532,2123.5612,2122.0455,333.0,2123.0531,2124.0605,2124.5601,2124.5602,2126.6593,1604.9,2126.6594,5.0,2127.6583,8.0,10.0,250.0,21.0,1.0,1.0,0.3,Time
,,S08,1,Female,20,anonymized,Serial_Dependence_U,2023.2.3,Win32,120.4819277,,,,,,,,,,,,2127.6587,8.0,2127.6587,,,,2130.5822,2131.0814,2130.0745,2130.582,2128.667,186.0,2130.0742,2131.0814,2131.5812,2131.5812,2133.182,1140.9,2133.1822,2.0,2134.1795,8.0,11.0,251.0,8.0,1.0,1.4,0.7,Time
,,S08,1,Female,20,anonymized,Serial_Dependence_U,2023.2.3,Win32,120.4819277,,,,,,,,,,,,2134.18,8.0,2134.1801,,,,2136.5044,2137.0031,2135.9962,2136.5042,2135.1883,146.0,2135.996,2137.0031,2137.5028,2137.5028,2139.2975,1260.5,2139.2976,5.0,2140.2928,8.0,12.0,252.0,10.0,1.0,0.8,0.3,Time
,,S08,1,Female,20,anonymized,Serial_Dependence_U,2023.2.3,Win32,120.4819277,,,,,,,,,,,,2140.2931,8.0,2140.2932,,,,2142.8123,2143.3077,2142.309,2142.8122,2141.3015,288.0,2142.3087,2143.3077,2143.8075,2143.8075,2145.9749,1785.0,2145.9751,5.0,2146.9723,8.0,13.0,253.0,1.0,1.0,1.0,0.3,Time
,,S08,1,Female,20,anonymized,Serial_Dependence_U,2023.2.3,Win32,120.4819277,,,,,,,,,,,,2146.9729,8.0,2146.9734,,,,2149.8911,2150.3871,2149.3883,2149.891,2147.981,8.0,2149.388,2150.3871,2150.8868,2150.8868,2152.3476,1031.7,2152.3477,2.0,2153.3438,8.0,14.0,254.0,28.0,1.0,1.4,0.7,Time
,,S08,1,Female,20,anonymized,Serial_Dependence_U,2023.2.3,Win32,120.4819277,,,,,,,,,,,,2153.3442,8.0,2153.3443,,,,2156.0678,2156.5668,2155.5599,2156.0676,2154.3523,263.0,2155.5596,2156.5668,2157.0666,2157.0667,2159.4687,2023.8,2159.4688,5.0,2160.4646,8.0,15.0,255.0,2.0,1.0,1.2,0.3,Time
,,S08,1,Female,20,anonymized,Serial_Dependence_U,2023.2.3,Win32,120.4819277,,,,,,,,,,,,2160.4649,8.0,2160.4651,,,,2163.3884,2163.8877,2162.883,2163.3883,2161.4761,238.0,2162.8829,2163.8877,2164.3874,2164.3875,2166.4298,1927.4,2166.43,5.0,2167.4274,8.0,16.0,256.0,18.0,1.0,1.4,0.7,Time
,,S08,1,Female,20,anonymized,Serial_Dependence_U,2023.2.3,Win32,120.4819277,,,,,,,,,,,,2167.428,8.0,2167.4284,,,,2170.5453,2171.0419,2170.0434,2170.5451,2168.4358,192.0,2170.0432,2171.0419,2171.5416,2171.5417,2174.4609,2824.2,2174.461,5.0,2175.4561,8.0,17.0,257.0,4.0,1.0,1.6,0.3,Time
,,S08,1,Female,20,anonymized,Serial_Dependence_U,2023.2.3,Win32,120.4819277,,,,,,,,,,,,2175.4565,8.0,2175.4568,,,,2178.1717,2178.6709,2177.6643,2178.1716,2176.4587,234.0,2177.6641,2178.671,2179.1706,2179.1706,2181.1285,1375.7,2181.1289,4.0,2182.1273,8.0,18.0,258.0,22.0,1.0,1.2,0.3,Time
,,S08,1,Female,20,anonymized,Serial_Dependence_U,2023.2.3,Win32,120.4819277,,,,,,,,,,,,2182.1277,8.0,2182.1279,,,,2184.6468,2185.1421,2184.1431,2184.6468,2183.1357,233.0,2184.143,2185.1421,2185.6418,2185.6418,2187.3623,1292.0,2187.3624,4.0,2188.357,8.0,19.0,259.0,11.0,1.0,1.0,0.3,Time
,,S08,1,Female,20,anonymized,Serial_Dependence_U,2023.2.3,Win32,120.4819277,,,,,,,,,,,,2188.3574,8.0,2188.3578,,,,2191.4832,2191.9798,2190.9752,2191.4832,2189.3654,307.0,2190.9752,2191.9798,2192.4797,2192.4797,2193.7709,900.9,2193.7712,1.0,2194.77,8.0,20.0,260.0,29.0,1.0,1.6,0.7,Time
,,S08,1,Female,20,anonymized,Serial_Dependence_U,2023.2.3,Win32,120.4819277,,,,,,,,,,,,2194.7704,8.0,2194.7705,,,,2197.4944,2197.9932,2196.9861,2197.4942,2195.7782,314.0,2196.9858,2197.9932,2198.4928,2198.4928,2200.1672,1273.8,2200.1676,4.0,2201.1663,8.0,21.0,261.0,12.0,1.0,1.2,0.3,Time
,,S08,1,Female,20,anonymized,Serial_Dependence_U,2023.2.3,Win32,120.4819277,,,,,,,,,,,,2201.1667,8.0,2201.1668,,,,2203.6904,2204.1897,2203.1828,2203.6902,2202.1747,292.0,2203.1825,2204.1897,2204.6894,2204.6894,2206.9152,1288.2,2206.9154,4.0,2207.9125,8.0,22.0,262.0,26.0,1.0,1.0,0.7,Time
,,S08,1,Female,20,anonymized,Serial_Dependence_U,2023.2.3,Win32,120.4819277,,,,,,,,,,,,2207.9131,8.0,2207.9134,,,,2211.0361,2211.5353,2210.5285,2211.036,2208.9207,319.0,2210.5283,2211.5354,2212.0352,2212.0352,2213.8509,1289.8,2213.8513,2.0,2214.8501,8.0,23.0,263.0,9.0,1.0,1.6,0.7,Time
,,S08,1,Female,20,anonymized,Serial_Dependence_U,2023.2.3,Win32,120.4819277,,,,,,,,,,,,2214.8504,8.0,2214.8506,,,,2217.7775,2218.2733,2217.2659,2217.7773,2215.8588,169.0,2217.2657,2218.2733,2218.7729,2218.773,2221.0804,1956.8,2221.0808,5.0,2222.0794,8.0,24.0,264.0,3.0,1.0,1.4,0.3,Time
,,S08,1,Female,20,anonymized,Serial_Dependence_U,2023.2.3,Win32,120.4819277,,,,,,,,,,,,2222.0797,8.0,2222.0798,,,,2224.8037,2225.3025,2224.2954,2224.8034,2223.0904,78.0,2224.2951,2225.3025,2225.8022,2225.8023,2227.3388,782.8,2227.339,1.0,2228.3341,8.0,25.0,265.0,27.0,1.0,1.2,0.7,Time
,,S08,1,Female,20,anonymized,Serial_Dependence_U,2023.2.3,Win32,120.4819277,,,,,,,,,,,,2228.3344,8.0,2228.3345,,,,2231.2501,2231.7488,2230.7441,2231.2499,2229.3424,64.0,2230.7441,2231.7488,2232.2485,2232.2486,2234.7017,1682.6,2234.7018,4.0,2235.6966,8.0,26.0,266.0,23.0,1.0,1.4,0.3,Time
,,S08,1,Female,20,anonymized,Serial_Dependence_U,2023.2.3,Win32,120.4819277,,,,,,,,,,,,2235.6969,8.0,2235.6971,,,,2238.2127,2238.7116,2237.7047,2238.2125,2236.6999,175.0,2237.7045,2238.7116,2239.2112,2239.2112,2241.1872,1577.9,2241.1874,5.0,2242.1845,8.0,27.0,267.0,6.0,1.0,1.0,0.7,Time
,,S08,1,Female,20,anonymized,Serial_Dependence_U,2023.2.3,Win32,120.4819277,,,,,,,,,,,,2242.1848,8.0,2242.185,,,,2244.5089,2245.008,2244.0007,2244.5088,2243.1957,349.0,2244.0004,2245.008,2245.5076,2245.5076,2247.4817,1291.3,2247.4821,5.0,2248.481,8.0,28.0,268.0,0.0,1.0,0.8,0.3,Time
,,S08,1,Female,20,anonymized,Serial_Dependence_U,2023.2.3,Win32,120.4819277,,,,,,,,,,,,2248.4815,8.0,2248.4819,,,,2250.8053,2251.3044,2250.2973,2250.805,2249.4919,183.0,2250.297,2251.3045,2251.804,2251.8041,2253.1901,632.1,2253.1902,2.0,2254.1859,8.0,29.0,269.0,20.0,1.0,0.8,0.3,Time
