Scale_setup.started,Scale_setup.stopped,participant,expid,session,sex,age,date,expName,psychopyVersion,OS,frameRate,Intro.started,Intro.stopped,key_resp_2.keys,key_resp_2.rt,key_resp_2.duration,block.started,direction,Block_id,block.stopped,trial_direction,Block_resp_2.keys,Block_resp_2.rt,Block_resp_2.duration,ITI.started,ITI.stopped,Mask_2.started,Mask_2.stopped,encoding.started,encoding.stopped,Cue.started,Cue.stopped,Response.started,Response.stopped,keyDuration,Feedback_Time.started,FeedbackID_T,Feedback_Time.stopped,trials.thisRepN,trials.thisTrialN,trials.thisN,trials.thisIndex,trials.ran,TimeDur,Coherence1,TrialType
0.0002999999523165,0.0004999999999988,S08,349889,1,女,21,anonymized,Serial_Dependence_U,2023.2.3,Win32,59.880239520962,,,,,,,,,,,,,,,,,,,,,,,,,,,,,,,,,,,
,,S08,349889,1,女,21,anonymized,Serial_Dependence_U,2023.2.3,Win32,59.880239520962,173.1629000000954,319.87890000009537,space,146.6705,,,,,,,,,,,,,,,,,,,,,,,,,,,,,,,
,,S08,349889,1,女,21,anonymized,Serial_Dependence_U,2023.2.3,Win32,59.880239520962,,,,,,319.8954000000954,117.0,0.0,324.37870000004773,117.0,s,4.466600000143046,,328.1327000000477,328.6277000000477,327.6175,328.13259999990464,325.384,327.6172999999523,328.6282000000477,329.1302000000477,329.1304000000954,330.4665,816.0,330.4669000000954,1.0,331.46459999990464,0.0,0.0,0.0,7.0,1.0,1.2,0.7,Time
,,S08,349889,1,女,21,anonymized,Serial_Dependence_U,2023.2.3,Win32,59.880239520962,,,,,,331.4650999999046,298.0,0.0,331.46609999990466,298.0,,,,335.01590000009537,335.5112000000477,334.49940000009536,335.01590000009537,332.4664000000954,334.49940000009536,335.5112999999523,336.0107999999523,336.011,337.55,1143.0,337.55009999990466,4.0,338.546,0.0,1.0,1.0,6.0,1.0,1.0,0.7,Time
,,S08,349889,1,女,21,anonymized,Serial_Dependence_U,2023.2.3,Win32,59.880239520962,,,,,,338.54629999995234,65.0,0.0,338.54650000000004,65.0,,,,342.6987000000477,343.19779999995234,342.1822999999523,342.6985999999047,339.5492000000477,342.1822000000477,343.19779999995234,343.6937000000477,343.694,345.6155,1417.0,345.61559999990465,2.0,346.6102000000477,0.0,2.0,2.0,29.0,1.0,1.6,0.7,Time
,,S08,349889,1,女,21,anonymized,Serial_Dependence_U,2023.2.3,Win32,59.880239520962,,,,,,346.61129999995234,199.0,0.0,346.6114000000954,199.0,,,,349.9985999999046,350.49350000000004,349.4819000000954,349.9985999999046,347.6152999999524,349.4819000000954,350.49359999990463,350.99329999995234,350.99350000000004,351.71540000009537,566.0,351.71540000009537,2.0,352.7144000000954,0.0,3.0,3.0,10.0,1.0,0.8,0.3,Time
,,S08,349889,1,女,21,anonymized,Serial_Dependence_U,2023.2.3,Win32,59.880239520962,,,,,,352.71459999990464,181.0,0.0,352.71479999995233,181.0,,,,356.6982999999523,357.19300000000004,356.1814000000954,356.6982000000477,353.7149000000954,356.1814000000954,357.1932000000477,357.69709999990465,357.69709999990465,358.99809999990464,817.0,358.9982000000477,1.0,359.9932000000477,0.0,4.0,4.0,23.0,1.0,1.4,0.3,Time
,,S08,349889,1,女,21,anonymized,Serial_Dependence_U,2023.2.3,Win32,59.880239520962,,,,,,359.994,175.0,0.0,359.9940999999047,175.0,,,,364.1477000000477,364.6429000000954,363.6310999999047,364.1477000000477,360.9982000000477,363.6309000000954,364.643,365.1429000000954,365.1430999999047,367.48129999995234,2217.0,367.48129999995234,5.0,368.4759000000954,0.0,5.0,5.0,19.0,1.0,1.6,0.7,Time
,,S08,349889,1,女,21,anonymized,Serial_Dependence_U,2023.2.3,Win32,59.880239520962,,,,,,368.4767000000477,116.0,0.0,368.4769000000954,116.0,,,,372.66409999990464,373.1632999999524,372.1477000000477,372.66409999990464,369.4807999999524,372.1475999999046,373.1632999999524,373.6589000000954,373.65909999990464,374.4975999999047,800.0,374.4975999999047,1.0,375.492,0.0,6.0,6.0,24.0,1.0,1.6,0.3,Time
,,S08,349889,1,女,21,anonymized,Serial_Dependence_U,2023.2.3,Win32,59.880239520962,,,,,,375.493,125.0,0.0,375.4932000000477,125.0,,,,379.0804000000954,379.5765999999047,378.5635999999046,379.08029999995233,376.49690000009537,378.5635,379.5765999999047,380.0754000000954,380.0755,381.7305999999047,1266.0,381.7305999999047,4.0,382.7249000000954,0.0,7.0,7.0,21.0,1.0,1.0,0.3,Time
,,S08,349889,1,女,21,anonymized,Serial_Dependence_U,2023.2.3,Win32,59.880239520962,,,,,,382.726,163.0,0.0,382.7262000000477,163.0,,,,386.4795999999046,386.975,385.96340000009536,386.4795,383.7300999999047,385.96340000009536,386.9750999999047,387.47929999995233,387.4794000000954,388.6800999999047,1183.0,388.6800999999047,3.0,389.67490000009536,0.0,8.0,8.0,17.0,1.0,1.2,0.7,Time
,,S08,349889,1,女,21,anonymized,Serial_Dependence_U,2023.2.3,Win32,59.880239520962,,,,,,389.6757999999524,182.0,0.0,389.6759000000954,182.0,,,,393.02959999990463,393.52479999995234,392.5135,393.0295,390.67990000009536,392.5134000000954,393.5249000000954,394.02479999995234,394.0250999999046,395.3645,651.0,395.3645999999047,2.0,396.358,0.0,9.0,9.0,25.0,1.0,0.8,0.7,Time
,,S08,349889,1,女,21,anonymized,Serial_Dependence_U,2023.2.3,Win32,59.880239520962,,,,,,396.35909999990463,34.0,0.0,396.3592999999523,34.0,,,,400.3125999999047,400.8074000000954,399.796,400.3125,397.3625999999047,399.7959000000954,400.8075,401.3072000000477,401.3074000000954,403.47929999995233,1683.0,403.4794000000954,4.0,404.476,0.0,10.0,10.0,18.0,1.0,1.4,0.7,Time
,,S08,349889,1,女,21,anonymized,Serial_Dependence_U,2023.2.3,Win32,59.880239520962,,,,,,404.4764000000954,303.0,0.0,404.4765,303.0,,,,408.2760999999047,408.7739000000954,407.7622999999524,408.276,405.4949000000954,407.7622999999524,408.7739000000954,409.274,409.2742000000477,410.12890000009537,366.0,410.129,1.0,411.1235,0.0,11.0,11.0,2.0,1.0,1.2,0.3,Time
,,S08,349889,1,女,21,anonymized,Serial_Dependence_U,2023.2.3,Win32,59.880239520962,,,,,,411.1245,225.0,0.0,411.1247000000477,225.0,,,,414.7117999999524,415.2065999999047,414.19509999990464,414.7117999999524,412.12890000009537,414.195,415.2067999999524,415.7107000000477,415.7107000000477,417.6119000000954,1317.0,417.6119000000954,5.0,418.6064000000954,0.0,12.0,12.0,1.0,1.0,1.0,0.3,Time
,,S08,349889,1,女,21,anonymized,Serial_Dependence_U,2023.2.3,Win32,59.880239520962,,,,,,418.6072999999523,258.0,0.0,418.6075,258.0,,,,422.39479999995234,422.8935999999047,421.8787000000477,422.3947000000477,419.6115,421.8785,422.8937000000477,423.3895,423.3895999999047,424.7447999999523,917.0,424.7449000000954,2.0,425.7414000000954,0.0,13.0,13.0,12.0,1.0,1.2,0.3,Time
,,S08,349889,1,女,21,anonymized,Serial_Dependence_U,2023.2.3,Win32,59.880239520962,,,,,,425.7415999999046,47.0,0.0,425.7417999999523,47.0,,,,429.09429999995234,429.589,428.5779000000954,429.09429999995234,426.7445999999047,428.5779000000954,429.589,430.0905999999047,430.0905999999047,431.22790000009536,967.0,431.22790000009536,4.0,432.2225,0.0,14.0,14.0,5.0,1.0,0.8,0.7,Time
,,S08,349889,1,女,21,anonymized,Serial_Dependence_U,2023.2.3,Win32,59.880239520962,,,,,,432.2234000000954,15.0,0.0,432.2235,15.0,,,,436.211,436.7055999999047,435.69390000009537,436.21090000009536,433.2277000000477,435.69390000009537,436.7057000000477,437.2057999999523,437.20590000009537,438.8894000000954,1322.0,438.8895999999047,2.0,439.8885999999047,0.0,15.0,15.0,13.0,1.0,1.4,0.3,Time
,,S08,349889,1,女,21,anonymized,Serial_Dependence_U,2023.2.3,Win32,59.880239520962,,,,,,439.8897000000477,315.0,0.0,439.8899000000954,315.0,,,,443.277,443.7717999999524,442.761,443.2769000000954,440.8937999999523,442.7609000000954,443.772,444.2719000000954,444.2722000000477,445.1605,800.0,445.1605,3.0,446.1550999999047,0.0,16.0,16.0,0.0,1.0,0.8,0.3,Time
,,S08,349889,1,女,21,anonymized,Serial_Dependence_U,2023.2.3,Win32,59.880239520962,,,,,,446.15590000009536,322.0,0.0,446.1562000000477,322.0,,,,449.51,450.005,448.99329999995234,449.5097999999524,447.1587999999524,448.9932000000477,450.00509999990464,450.5047000000477,450.5049000000954,451.5102000000477,967.0,451.5102000000477,4.0,452.505,0.0,17.0,17.0,15.0,1.0,0.8,0.7,Time
,,S08,349889,1,女,21,anonymized,Serial_Dependence_U,2023.2.3,Win32,59.880239520962,,,,,,452.5057000000477,319.0,0.0,452.506,319.0,,,,456.0595,456.5545,455.5430999999047,456.05940000009537,453.5112000000477,455.543,456.5545,457.055,457.0550999999047,458.8095999999047,883.0,458.8097000000477,2.0,459.8047000000477,0.0,18.0,18.0,16.0,1.0,1.0,0.7,Time
,,S08,349889,1,女,21,anonymized,Serial_Dependence_U,2023.2.3,Win32,59.880239520962,,,,,,459.8054000000954,170.0,0.0,459.80559999990464,170.0,,,,463.9925,464.4880999999047,463.4760999999047,463.9922999999523,460.8097999999524,463.4760999999047,464.48859999990464,464.9875,464.9877999999524,467.02590000009536,1516.0,467.026,2.0,468.0210999999047,0.0,19.0,19.0,4.0,1.0,1.6,0.3,Time
,,S08,349889,1,女,21,anonymized,Serial_Dependence_U,2023.2.3,Win32,59.880239520962,,,,,,468.02209999990464,28.0,0.0,468.0224000000954,28.0,,,,472.2092999999524,472.70529999995233,471.6922000000477,472.2092000000477,469.0257000000477,471.6922000000477,472.7054000000954,473.2077000000477,473.2077000000477,474.84209999990463,1600.0,474.8422000000477,3.0,475.8367000000477,0.0,20.0,20.0,14.0,1.0,1.6,0.3,Time
,,S08,349889,1,女,21,anonymized,Serial_Dependence_U,2023.2.3,Win32,59.880239520962,,,,,,475.8377000000477,132.0,0.0,475.8379000000954,132.0,,,,479.2252999999523,479.72,478.7092999999524,479.2252000000477,476.8417000000477,478.7092000000477,479.7200999999047,480.2200999999047,480.2202999999523,481.8919000000954,1166.0,481.8919000000954,5.0,482.8865,0.0,21.0,21.0,20.0,1.0,0.8,0.3,Time
,,S08,349889,1,女,21,anonymized,Serial_Dependence_U,2023.2.3,Win32,59.880239520962,,,,,,482.8875000000001,87.0,0.0,482.88759999990464,87.0,,,,486.8749000000954,487.3695999999047,486.3585,486.8747999999524,483.8915,486.3585,487.3697000000477,487.8699000000954,487.87,490.09159999990464,1616.0,490.09159999990464,4.0,491.086,0.0,22.0,22.0,3.0,1.0,1.4,0.3,Time
,,S08,349889,1,女,21,anonymized,Serial_Dependence_U,2023.2.3,Win32,59.880239520962,,,,,,491.08729999995234,232.0,0.0,491.0875,232.0,,,,494.8410999999047,495.3357999999523,494.3244000000954,494.8410999999047,492.091,494.3242999999524,495.336,495.8357000000477,495.8357000000477,497.0744000000954,717.0,497.0745,1.0,498.0697000000477,0.0,23.0,23.0,27.0,1.0,1.2,0.7,Time
,,S08,349889,1,女,21,anonymized,Serial_Dependence_U,2023.2.3,Win32,59.880239520962,,,,,,498.0702000000477,350.0,0.0,498.0704000000954,350.0,,,,501.6577999999523,502.1524000000954,501.1407999999523,501.6574000000954,499.0744000000954,501.1407000000477,502.1524000000954,502.6520999999046,502.6522999999523,504.1572999999523,1100.0,504.1574000000954,4.0,505.1554999999999,0.0,24.0,24.0,11.0,1.0,1.0,0.3,Time
,,S08,349889,1,女,21,anonymized,Serial_Dependence_U,2023.2.3,Win32,59.880239520962,,,,,,505.1557999999523,94.0,0.0,505.1559000000953,94.0,,,,509.1072000000476,509.6017999999522,508.59059999990455,509.1070999999046,506.1547000000476,508.59059999990455,509.6019000000953,510.1017000000476,510.1019999999999,511.4724999999999,1216.0,511.4724999999999,2.0,512.4682000000475,0.0,25.0,25.0,28.0,1.0,1.4,0.7,Time
,,S08,349889,1,女,21,anonymized,Serial_Dependence_U,2023.2.3,Win32,59.880239520962,,,,,,512.4690999999045,288.0,0.0,512.4694000000952,288.0,,,,516.2567000000475,516.7514000000953,515.7402999999522,516.2565999999046,513.4734000000952,515.7402000000476,516.7515999999046,517.2524999999999,517.2525999999045,518.3902999999523,950.0,518.3902999999523,2.0,519.3845999999045,0.0,26.0,26.0,22.0,1.0,1.2,0.3,Time
,,S08,349889,1,女,21,anonymized,Serial_Dependence_U,2023.2.3,Win32,59.880239520962,,,,,,519.3855999999046,36.0,0.0,519.3857999999523,36.0,,,,523.5562000000476,524.0509999999999,523.0397000000476,523.5559999999999,520.4064000000952,523.0395999999046,524.0509999999999,524.5510999999045,524.5512999999522,526.6234000000952,1617.0,526.6235999999045,3.0,527.6177999999522,0.0,27.0,27.0,9.0,1.0,1.6,0.7,Time
,,S08,349889,1,女,21,anonymized,Serial_Dependence_U,2023.2.3,Win32,59.880239520962,,,,,,527.6185999999045,135.0,0.0,527.6187999999522,135.0,,,,531.5890999999045,532.0842999999522,531.0724999999999,531.5890999999045,528.6392999999522,531.0724000000953,532.0844000000952,532.5837000000475,532.5837999999522,534.0725999999046,1050.0,534.0725999999046,2.0,535.0670999999045,0.0,28.0,28.0,8.0,1.0,1.4,0.7,Time
,,S08,349889,1,女,21,anonymized,Serial_Dependence_U,2023.2.3,Win32,59.880239520962,,,,,,535.0680999999046,24.0,0.0,535.0682999999523,24.0,,,,538.6220999999045,539.1172000000475,538.1054999999999,538.6219000000953,536.0697000000475,538.1054000000953,539.1172999999523,539.6170999999046,539.6172999999523,541.1225999999045,1100.0,541.1225999999045,4.0,542.1169999999998,0.0,29.0,29.0,26.0,1.0,1.0,0.7,Time
,,S08,349889,1,女,21,anonymized,Serial_Dependence_U,2023.2.3,Win32,59.880239520962,,,,,,542.1177000000475,290.0,1.0,546.5789000000952,290.0,s,4.433099999904584,,550.7385999999045,551.2329000000952,550.2215999999046,550.7385999999045,547.5889000000952,550.2214999999999,551.2329000000952,551.7360999999046,551.7362000000476,553.7047999999522,1367.0,553.7049000000952,2.0,553.7122999999522,1.0,0.0,30.0,9.0,1.0,1.6,0.7,Time
,,S08,349889,1,女,21,anonymized,Serial_Dependence_U,2023.2.3,Win32,59.880239520962,,,,,,553.7125999999046,222.0,1.0,553.7137999999522,222.0,,,,557.3212000000476,557.8174999999999,556.8044999999998,557.3212000000476,554.7377999999522,556.8044000000953,557.8174999999999,558.3162999999522,558.3162999999522,559.9047999999523,850.0,559.9047999999523,2.0,559.9129999999999,1.0,1.0,31.0,1.0,1.0,1.0,0.3,Time
,,S08,349889,1,女,21,anonymized,Serial_Dependence_U,2023.2.3,Win32,59.880239520962,,,,,,559.9134000000953,96.0,1.0,559.9134999999999,96.0,,,,563.8707999999522,564.3660999999046,563.3542000000476,563.8707000000476,560.9212000000476,563.3540999999045,564.3662999999523,564.8657000000476,564.8659000000953,567.0875999999046,1600.0,567.0875999999046,4.0,567.0957999999522,1.0,2.0,32.0,28.0,1.0,1.4,0.7,Time
,,S08,349889,1,女,21,anonymized,Serial_Dependence_U,2023.2.3,Win32,59.880239520962,,,,,,567.0960999999045,48.0,1.0,567.0960999999045,48.0,,,,571.2534999999999,571.7484999999999,570.7372000000476,571.2534999999999,568.1037999999522,570.7372000000476,571.7485999999045,572.2500999999046,572.2502000000476,573.6537000000476,583.0,573.6537000000476,1.0,573.6607999999522,1.0,3.0,33.0,29.0,1.0,1.6,0.7,Time
,,S08,349889,1,女,21,anonymized,Serial_Dependence_U,2023.2.3,Win32,59.880239520962,,,,,,573.661,157.0,1.0,573.6612000000476,157.0,,,,577.2169000000953,577.7149999999999,576.7034999999998,577.2164999999999,574.6702999999522,576.7034999999998,577.7150999999045,578.2149000000953,578.2150999999045,579.4872000000476,832.0,579.4872000000476,2.0,579.4947000000476,1.0,4.0,34.0,16.0,1.0,1.0,0.7,Time
,,S08,349889,1,女,21,anonymized,Serial_Dependence_U,2023.2.3,Win32,59.880239520962,,,,,,579.4949000000953,11.0,1.0,579.4949999999999,11.0,,,,582.8524000000953,583.348,582.3362999999522,582.8524000000953,580.5030999999045,582.3362000000476,583.3480999999045,583.8477000000476,583.8477999999523,584.8702999999522,617.0,584.8702999999522,2.0,584.8774999999999,1.0,5.0,35.0,15.0,1.0,0.8,0.7,Time
,,S08,349889,1,女,21,anonymized,Serial_Dependence_U,2023.2.3,Win32,59.880239520962,,,,,,584.8777999999522,353.0,1.0,584.8779000000952,353.0,,,,588.2354000000953,588.7309000000953,587.7194999999999,588.2352999999522,585.8860999999046,587.7194000000952,588.7309999999999,589.2307999999522,589.2309000000953,590.4367999999522,717.0,590.4369000000953,2.0,590.4460999999045,1.0,6.0,36.0,25.0,1.0,0.8,0.7,Time
,,S08,349889,1,女,21,anonymized,Serial_Dependence_U,2023.2.3,Win32,59.880239520962,,,,,,590.4464000000953,243.0,1.0,590.4464000000953,243.0,,,,593.8359999999999,594.3307000000476,593.3195,593.8359999999999,591.4532000000476,593.3195,594.3309000000953,594.8305999999045,594.8307000000476,596.1689999999999,967.0,596.1690999999046,4.0,596.1772000000476,1.0,7.0,37.0,20.0,1.0,0.8,0.3,Time
,,S08,349889,1,女,21,anonymized,Serial_Dependence_U,2023.2.3,Win32,59.880239520962,,,,,,596.1775999999045,9.0,1.0,596.1777000000476,9.0,,,,600.3687999999522,600.8639000000953,599.8524000000953,600.3687000000476,597.1857999999522,599.8524000000953,600.8639999999999,601.3637999999522,601.3639999999999,603.3195999999045,1351.0,603.3195999999045,2.0,603.3282999999523,1.0,8.0,38.0,24.0,1.0,1.6,0.3,Time
,,S08,349889,1,女,21,anonymized,Serial_Dependence_U,2023.2.3,Win32,59.880239520962,,,,,,603.3284999999998,347.0,1.0,603.3287000000475,347.0,,,,606.9182999999522,607.4129999999999,606.4025999999045,606.9182999999522,604.3355999999045,606.4024999999999,607.4130999999045,607.9134000000953,607.9134999999999,609.3854999999999,1100.0,609.3854999999999,4.0,609.3942999999522,1.0,9.0,39.0,21.0,1.0,1.0,0.3,Time
,,S08,349889,1,女,21,anonymized,Serial_Dependence_U,2023.2.3,Win32,59.880239520962,,,,,,609.3945999999046,126.0,1.0,609.3947000000476,126.0,,,,613.1682999999522,613.6629999999999,612.6517999999522,613.1682999999522,610.3849000000953,612.6517000000476,613.6632000000476,614.1629999999999,614.1632999999522,615.7182999999523,1183.0,615.7182999999523,3.0,615.7254000000953,1.0,10.0,40.0,22.0,1.0,1.2,0.3,Time
,,S08,349889,1,女,21,anonymized,Serial_Dependence_U,2023.2.3,Win32,59.880239520962,,,,,,615.7257000000476,225.0,1.0,615.7257999999522,225.0,,,,619.7302000000476,620.2322000000476,619.2180999999046,619.7302000000476,616.7514000000953,619.2179999999998,620.2322000000476,620.7294000000953,620.7294000000953,622.5847000000476,1417.0,622.5847999999522,3.0,622.5929999999998,1.0,11.0,41.0,3.0,1.0,1.4,0.3,Time
,,S08,349889,1,女,21,anonymized,Serial_Dependence_U,2023.2.3,Win32,59.880239520962,,,,,,622.5932999999523,84.0,1.0,622.5935,84.0,,,,626.1347000000476,626.6289999999999,625.6175,626.1345999999045,623.5844999999999,625.6175,626.6290999999045,627.1289000000953,627.1289000000953,628.5509999999999,1233.0,628.5510999999045,4.0,628.5577999999522,1.0,12.0,42.0,6.0,1.0,1.0,0.7,Time
,,S08,349889,1,女,21,anonymized,Serial_Dependence_U,2023.2.3,Win32,59.880239520962,,,,,,628.5580999999046,140.0,1.0,628.5580999999046,140.0,,,,631.9509999999999,632.4470999999045,631.4342999999523,631.9509000000953,629.5675999999046,631.4340999999046,632.4470999999045,632.9455999999045,632.9457999999522,634.4340999999046,1083.0,634.4340999999046,5.0,634.4409999999999,1.0,13.0,43.0,10.0,1.0,0.8,0.3,Time
,,S08,349889,1,女,21,anonymized,Serial_Dependence_U,2023.2.3,Win32,59.880239520962,,,,,,634.4412999999522,210.0,1.0,634.4414000000953,210.0,,,,638.0334999999999,638.5282000000476,637.5169999999999,638.0334000000953,635.4505999999045,637.5169999999999,638.5282999999522,639.0287999999522,639.0289000000953,640.7004999999999,1183.0,640.7005999999045,4.0,640.7090999999045,1.0,14.0,44.0,11.0,1.0,1.0,0.3,Time
,,S08,349889,1,女,21,anonymized,Serial_Dependence_U,2023.2.3,Win32,59.880239520962,,,,,,640.7094000000952,331.0,1.0,640.7094999999999,331.0,,,,644.2667000000475,644.7617999999522,643.7502000000476,644.2665999999045,641.7157999999522,643.7502000000476,644.7619000000952,645.2654000000953,645.2654000000953,646.8832999999522,1600.0,646.8832999999522,5.0,646.8925999999045,1.0,15.0,45.0,26.0,1.0,1.0,0.7,Time
,,S08,349889,1,女,21,anonymized,Serial_Dependence_U,2023.2.3,Win32,59.880239520962,,,,,,646.8927999999522,140.0,1.0,646.8929999999999,140.0,,,,650.2495999999045,650.7445999999045,649.733,650.2494999999999,647.8999000000953,649.7329000000952,650.7447999999522,651.2442999999522,651.2444000000953,651.5164000000952,233.0,651.5164000000952,1.0,651.5247999999522,1.0,16.0,46.0,5.0,1.0,0.8,0.7,Time
,,S08,349889,1,女,21,anonymized,Serial_Dependence_U,2023.2.3,Win32,59.880239520962,,,,,,651.5250999999046,99.0,1.0,651.5252000000476,99.0,,,,655.7159999999999,656.2124000000953,655.1994000000952,655.7159000000953,652.5329000000953,655.1992999999522,656.2124000000953,656.7105999999045,656.7107999999522,658.1995,700.0,658.1995,1.0,658.2077000000476,1.0,17.0,47.0,14.0,1.0,1.6,0.3,Time
,,S08,349889,1,女,21,anonymized,Serial_Dependence_U,2023.2.3,Win32,59.880239520962,,,,,,658.2080999999046,219.0,1.0,658.2080999999046,219.0,,,,661.9655999999045,662.4605999999045,661.449,661.9654999999999,659.2159999999999,661.4489000000953,662.4607000000476,662.9604999999999,662.9605999999045,666.0972999999523,2015.0,666.0974000000953,5.0,666.1049999999999,1.0,18.0,48.0,7.0,1.0,1.2,0.7,Time
,,S08,349889,1,女,21,anonymized,Serial_Dependence_U,2023.2.3,Win32,59.880239520962,,,,,,666.1054000000953,246.0,1.0,666.1054999999999,246.0,,,,670.2822000000476,670.7769000000952,669.7654999999999,670.2820999999045,667.0987999999522,669.7654000000953,670.7770999999045,671.281,671.281,673.4824000000953,1783.0,673.4825,4.0,673.4907999999522,1.0,19.0,49.0,4.0,1.0,1.6,0.3,Time
,,S08,349889,1,女,21,anonymized,Serial_Dependence_U,2023.2.3,Win32,59.880239520962,,,,,,673.4912000000476,336.0,1.0,673.4912999999523,336.0,,,,677.4775999999046,677.9762000000476,676.9652000000476,677.4772999999523,674.4984999999999,676.9650999999045,677.9764000000953,678.4794000000953,678.4794000000953,680.6982000000476,1683.0,680.6982000000476,4.0,680.7055999999045,1.0,20.0,50.0,23.0,1.0,1.4,0.3,Time
,,S08,349889,1,女,21,anonymized,Serial_Dependence_U,2023.2.3,Win32,59.880239520962,,,,,,680.7059000000953,80.0,1.0,680.7059999999999,80.0,,,,684.4667000000476,684.9597999999522,683.9477999999522,684.4664999999999,681.7144999999999,683.9477999999522,684.9599999999999,685.459,685.4592000000475,687.4144999999999,1283.0,687.4144999999999,4.0,687.4215999999045,1.0,21.0,51.0,17.0,1.0,1.2,0.7,Time
,,S08,349889,1,女,21,anonymized,Serial_Dependence_U,2023.2.3,Win32,59.880239520962,,,,,,687.4219000000953,251.0,1.0,687.4220999999045,251.0,,,,691.3807999999523,691.8755999999046,690.8642000000476,691.3805999999046,688.4309999999999,690.8642000000476,691.8757000000476,692.3754999999999,692.3755999999046,694.3644000000953,1567.0,694.3645999999045,4.0,694.3722999999522,1.0,22.0,52.0,8.0,1.0,1.4,0.7,Time
,,S08,349889,1,女,21,anonymized,Serial_Dependence_U,2023.2.3,Win32,59.880239520962,,,,,,694.3725999999045,139.0,1.0,694.3727000000476,139.0,,,,698.1645999999046,698.6585999999045,697.6495999999046,698.1645999999046,695.3804999999999,697.6494000000953,698.6587999999522,699.1584999999999,699.1584999999999,701.1802999999522,1350.0,701.1802999999522,4.0,701.1877000000476,1.0,23.0,53.0,12.0,1.0,1.2,0.3,Time
,,S08,349889,1,女,21,anonymized,Serial_Dependence_U,2023.2.3,Win32,59.880239520962,,,,,,701.1879999999999,152.0,1.0,701.1880999999046,152.0,,,,705.1800999999045,705.6749000000952,704.6634000000953,705.1799000000952,702.1969000000953,704.6632999999522,705.6749000000952,706.1747999999523,706.175,708.4307000000476,1616.0,708.4307999999522,4.0,708.4380999999046,1.0,24.0,54.0,13.0,1.0,1.4,0.3,Time
,,S08,349889,1,女,21,anonymized,Serial_Dependence_U,2023.2.3,Win32,59.880239520962,,,,,,708.4384999999999,9.0,1.0,708.4384999999999,9.0,,,,712.5962000000476,713.0912000000476,712.0795999999045,712.5962000000476,709.4464000000953,712.0794999999999,713.0912000000476,713.5912000000476,713.5914000000953,715.6299999999999,1716.0,715.6299999999999,4.0,715.6384999999999,1.0,25.0,55.0,19.0,1.0,1.6,0.7,Time
,,S08,349889,1,女,21,anonymized,Serial_Dependence_U,2023.2.3,Win32,59.880239520962,,,,,,715.6389000000953,233.0,1.0,715.6390999999045,233.0,,,,719.0294000000953,719.5282000000476,718.5125999999045,719.0292999999522,716.6462000000475,718.5125999999045,719.5282000000476,720.0244000000953,720.0247000000476,721.7295999999045,1066.0,721.7295999999045,5.0,721.7362999999522,1.0,26.0,56.0,0.0,1.0,0.8,0.3,Time
,,S08,349889,1,女,21,anonymized,Serial_Dependence_U,2023.2.3,Win32,59.880239520962,,,,,,721.7364999999999,52.0,1.0,721.7367000000476,52.0,,,,725.6797000000475,726.1739000000953,725.1627000000476,725.6795999999046,722.7290999999045,725.1625999999045,726.1739000000953,726.6737999999522,726.6739999999999,728.4127000000476,1533.0,728.4129000000953,4.0,728.4197999999523,1.0,27.0,57.0,18.0,1.0,1.4,0.7,Time
,,S08,349889,1,女,21,anonymized,Serial_Dependence_U,2023.2.3,Win32,59.880239520962,,,,,,728.4200999999046,181.0,1.0,728.4202000000475,181.0,,,,732.1762000000476,732.6737000000476,731.6622000000476,732.1760999999045,729.4290999999046,731.6620999999045,732.6739000000953,733.1737000000476,733.1739000000953,734.8454999999999,1083.0,734.8454999999999,2.0,734.8547999999522,1.0,28.0,58.0,27.0,1.0,1.2,0.7,Time
,,S08,349889,1,女,21,anonymized,Serial_Dependence_U,2023.2.3,Win32,59.880239520962,,,,,,734.8552000000476,10.0,1.0,734.8552999999522,10.0,,,,738.6295999999045,739.1234999999999,738.1285999999045,738.6294999999999,735.8617999999523,738.1284999999999,739.1234999999999,739.6229999999999,739.6230999999045,741.4620999999046,1284.0,741.4620999999046,4.0,741.4712999999522,1.0,29.0,59.0,2.0,1.0,1.2,0.3,Time
,,S08,349889,1,女,21,anonymized,Serial_Dependence_U,2023.2.3,Win32,59.880239520962,,,,,,741.4717000000476,149.0,2.0,764.3130999999046,149.0,s,22.81870000004767,,768.0924999999999,768.5924000000953,767.5769999999999,768.0924000000953,765.3102999999522,767.5769000000953,768.5924999999999,769.0885999999045,769.0887999999522,771.4942999999522,1317.0,771.4942999999522,4.0,771.5027999999522,2.0,0.0,60.0,2.0,1.0,1.2,0.3,Time
,,S08,349889,1,女,21,anonymized,Serial_Dependence_U,2023.2.3,Win32,59.880239520962,,,,,,771.5032000000476,31.0,2.0,771.5044000000953,31.0,,,,775.2462999999523,775.7380999999045,774.7267000000476,775.2462000000476,772.4930999999045,774.7267000000476,775.7382000000476,776.2379999999999,776.2379999999999,777.5932999999523,1333.0,777.5932999999523,4.0,777.6004999999999,2.0,1.0,61.0,27.0,1.0,1.2,0.7,Time
,,S08,349889,1,女,21,anonymized,Serial_Dependence_U,2023.2.3,Win32,59.880239520962,,,,,,777.6007000000476,88.0,2.0,777.6009000000953,88.0,,,,780.9930999999045,781.4875999999045,780.4762999999522,780.9930999999045,778.6097999999522,780.4762999999522,781.4875999999045,781.9877000000475,781.9879000000952,783.7097000000476,1283.0,783.7097000000476,5.0,783.7175999999046,2.0,2.0,62.0,20.0,1.0,0.8,0.3,Time
,,S08,349889,1,女,21,anonymized,Serial_Dependence_U,2023.2.3,Win32,59.880239520962,,,,,,783.7179000000953,352.0,2.0,783.7179999999998,352.0,,,,787.0767999999522,787.5710999999045,786.5592999999523,787.0765999999045,784.7252000000476,786.5592000000476,787.5712000000476,788.0712000000476,788.0712999999522,789.3927000000476,650.0,789.3927000000476,2.0,789.4005999999046,2.0,3.0,63.0,25.0,1.0,0.8,0.7,Time
,,S08,349889,1,女,21,anonymized,Serial_Dependence_U,2023.2.3,Win32,59.880239520962,,,,,,789.401,40.0,2.0,789.4012000000475,40.0,,,,793.5589000000953,794.0535999999046,793.0420999999045,793.5589000000953,790.4092000000476,793.0419999999999,794.0535999999046,794.5537999999523,794.5539000000953,797.1257999999522,1833.0,797.1257999999522,4.0,797.1339000000953,2.0,4.0,64.0,19.0,1.0,1.6,0.7,Time
,,S08,349889,1,女,21,anonymized,Serial_Dependence_U,2023.2.3,Win32,59.880239520962,,,,,,797.1342000000476,153.0,2.0,797.1342999999522,153.0,,,,801.1250999999046,801.6199999999999,800.6085999999045,801.1249999999999,798.1394000000953,800.6084999999999,801.6199999999999,802.1199999999999,802.1202000000476,803.7920999999045,1251.0,803.7920999999045,2.0,803.7997000000476,2.0,5.0,65.0,3.0,1.0,1.4,0.3,Time
,,S08,349889,1,女,21,anonymized,Serial_Dependence_U,2023.2.3,Win32,59.880239520962,,,,,,803.8,36.0,2.0,803.8000999999045,36.0,,,,807.5914000000953,808.0864999999999,807.0749000000952,807.5912999999522,804.8082000000476,807.0749000000952,808.0865999999046,808.5867000000476,808.5869000000953,810.0417999999522,983.0,810.0419000000953,2.0,810.0504000000952,2.0,6.0,66.0,12.0,1.0,1.2,0.3,Time
,,S08,349889,1,女,21,anonymized,Serial_Dependence_U,2023.2.3,Win32,59.880239520962,,,,,,810.0507999999522,295.0,2.0,810.0509000000952,295.0,,,,813.8077000000476,814.3029000000953,813.2910999999045,813.8077000000476,811.0582000000476,813.2909999999999,814.3029999999999,814.8025999999045,814.8027000000476,816.8749000000953,1500.0,816.8749000000953,4.0,816.8824000000952,2.0,7.0,67.0,17.0,1.0,1.2,0.7,Time
,,S08,349889,1,女,21,anonymized,Serial_Dependence_U,2023.2.3,Win32,59.880239520962,,,,,,816.8827000000476,224.0,2.0,816.8829000000952,224.0,,,,820.4409999999999,820.9372000000476,819.9242999999523,820.4409000000953,817.8914000000952,819.9242000000476,820.9372999999522,821.4355999999045,821.4359000000952,823.0577999999522,1183.0,823.0577999999522,4.0,823.0667000000476,2.0,8.0,68.0,26.0,1.0,1.0,0.7,Time
,,S08,349889,1,女,21,anonymized,Serial_Dependence_U,2023.2.3,Win32,59.880239520962,,,,,,823.0672999999522,314.0,2.0,823.0674999999999,314.0,,,,826.4239000000953,826.9200999999046,825.9077999999522,826.4239000000953,824.074,825.9077999999522,826.9200999999046,827.4194000000953,827.4194999999999,829.2574000000952,1284.0,829.2574000000952,5.0,829.2650999999046,2.0,9.0,69.0,15.0,1.0,0.8,0.7,Time
,,S08,349889,1,女,21,anonymized,Serial_Dependence_U,2023.2.3,Win32,59.880239520962,,,,,,829.2654000000953,227.0,2.0,829.2654999999999,227.0,,,,833.4234999999999,833.9180999999045,832.9064999999999,833.4234000000953,830.2735999999045,832.9064999999999,833.9180999999045,834.4184999999999,834.4187000000476,836.8074000000953,1767.0,836.8074999999999,4.0,836.8162999999522,2.0,10.0,70.0,9.0,1.0,1.6,0.7,Time
,,S08,349889,1,女,21,anonymized,Serial_Dependence_U,2023.2.3,Win32,59.880239520962,,,,,,836.8165999999045,77.0,2.0,836.8167000000476,77.0,,,,840.1729999999999,840.6680999999045,839.6564999999999,840.1729999999999,837.8232000000476,839.6564999999999,840.6682000000476,841.1679000000953,841.1680999999045,843.0899000000953,1216.0,843.0899000000953,5.0,843.0984000000952,2.0,11.0,71.0,5.0,1.0,0.8,0.7,Time
,,S08,349889,1,女,21,anonymized,Serial_Dependence_U,2023.2.3,Win32,59.880239520962,,,,,,843.0987000000476,194.0,2.0,843.0987000000476,194.0,,,,846.4874000000952,846.9885999999045,845.9727999999523,846.4872000000476,844.1062000000476,845.9727000000476,846.9885999999045,847.4842000000476,847.4842999999522,848.4894999999999,566.0,848.4894999999999,2.0,848.4967000000476,2.0,12.0,72.0,10.0,1.0,0.8,0.3,Time
,,S08,349889,1,女,21,anonymized,Serial_Dependence_U,2023.2.3,Win32,59.880239520962,,,,,,848.497,150.0,2.0,848.4970999999045,150.0,,,,852.0892000000476,852.5839000000952,851.5725999999046,852.0892000000476,849.5064000000953,851.5724999999999,852.584,853.0839000000952,853.0840999999045,854.4395,917.0,854.4395999999045,2.0,854.4469000000953,2.0,13.0,73.0,1.0,1.0,1.0,0.3,Time
,,S08,349889,1,女,21,anonymized,Serial_Dependence_U,2023.2.3,Win32,59.880239520962,,,,,,854.4472000000476,238.0,2.0,854.4472999999522,238.0,,,,858.2054000000953,858.7004999999999,857.6889999999999,858.2054000000953,855.4557000000476,857.6889999999999,858.7005999999045,859.2004000000952,859.2005999999045,861.1057999999522,1267.0,861.1059000000953,4.0,861.1147999999522,2.0,14.0,74.0,7.0,1.0,1.2,0.7,Time
,,S08,349889,1,女,21,anonymized,Serial_Dependence_U,2023.2.3,Win32,59.880239520962,,,,,,861.1150999999045,303.0,2.0,861.1152999999522,303.0,,,,864.7054000000953,865.2000999999045,864.1887999999523,864.7052999999522,862.1222999999522,864.1887999999523,865.2000999999045,865.6999999999999,865.7002999999522,867.1384000000953,1066.0,867.1384999999999,4.0,867.1452999999523,2.0,15.0,75.0,21.0,1.0,1.0,0.3,Time
,,S08,349889,1,女,21,anonymized,Serial_Dependence_U,2023.2.3,Win32,59.880239520962,,,,,,867.1457000000476,343.0,2.0,867.1457000000476,343.0,,,,870.5215999999045,871.0167999999522,870.0049999999999,870.5215,868.1389000000953,870.0049000000953,871.0169000000952,871.5162999999523,871.5165,873.2052000000476,1100.0,873.2052000000476,5.0,873.2142000000476,2.0,16.0,76.0,0.0,1.0,0.8,0.3,Time
,,S08,349889,1,女,21,anonymized,Serial_Dependence_U,2023.2.3,Win32,59.880239520962,,,,,,873.2144999999999,305.0,2.0,873.2145999999045,305.0,,,,877.4047999999523,877.9007999999523,876.8884000000953,877.4047999999523,874.2219999999999,876.8884000000953,877.9007999999523,878.3994000000953,878.3995999999046,880.5215,1466.0,880.5215,2.0,880.5302999999523,2.0,17.0,77.0,4.0,1.0,1.6,0.3,Time
,,S08,349889,1,女,21,anonymized,Serial_Dependence_U,2023.2.3,Win32,59.880239520962,,,,,,880.5307000000475,128.0,2.0,880.5307000000475,128.0,,,,884.0877000000476,884.5842000000475,883.5712000000476,884.0875999999046,881.5377000000476,883.5712000000476,884.5842000000475,885.0869000000953,885.0869000000953,886.2044999999999,1083.0,886.2044999999999,4.0,886.2135,2.0,18.0,78.0,6.0,1.0,1.0,0.7,Time
,,S08,349889,1,女,21,anonymized,Serial_Dependence_U,2023.2.3,Win32,59.880239520962,,,,,,886.2139000000952,247.0,2.0,886.2139999999999,247.0,,,,890.0039999999999,890.4994999999999,889.4899999999999,890.0039000000953,887.2207000000476,889.4899000000953,890.4997000000476,890.9985999999045,890.9987000000476,892.3709999999999,983.0,892.3709999999999,2.0,892.3794999999999,2.0,19.0,79.0,22.0,1.0,1.2,0.3,Time
,,S08,349889,1,女,21,anonymized,Serial_Dependence_U,2023.2.3,Win32,59.880239520962,,,,,,892.3799000000953,209.0,2.0,892.3799999999999,209.0,,,,896.3364000000953,896.8315999999045,895.8205999999045,896.3362999999522,893.3872000000476,895.8205999999045,896.8317000000476,897.3357000000476,897.3357000000476,899.0869999999999,1633.0,899.0870999999046,4.0,899.0957999999522,2.0,20.0,80.0,8.0,1.0,1.4,0.7,Time
,,S08,349889,1,女,21,anonymized,Serial_Dependence_U,2023.2.3,Win32,59.880239520962,,,,,,899.0959000000953,85.0,2.0,899.0960999999045,85.0,,,,903.0532999999522,903.5477999999522,902.537,903.0532000000476,900.1032000000475,902.537,903.5479000000952,904.0477000000476,904.0479000000952,906.0540999999046,1484.0,906.0542000000476,4.0,906.062,2.0,21.0,81.0,28.0,1.0,1.4,0.7,Time
,,S08,349889,1,女,21,anonymized,Serial_Dependence_U,2023.2.3,Win32,59.880239520962,,,,,,906.0622999999522,168.0,2.0,906.0624000000952,168.0,,,,910.2527000000476,910.7475999999044,909.7362000000476,910.2525999999044,907.0699000000952,909.7362000000476,910.7475999999044,911.2477999999522,911.2479000000952,914.1535999999044,2450.0,914.1537000000476,5.0,914.1627999999522,2.0,22.0,82.0,24.0,1.0,1.6,0.3,Time
,,S08,349889,1,女,21,anonymized,Serial_Dependence_U,2023.2.3,Win32,59.880239520962,,,,,,914.1632999999522,6.0,2.0,914.1634000000952,6.0,,,,918.1034000000952,918.5972999999524,917.6022999999524,918.1032000000477,915.1694000000952,917.6022000000476,918.5974000000951,919.0970999999046,919.0972000000476,921.5864000000952,1667.0,921.5865,4.0,921.595,2.0,23.0,83.0,18.0,1.0,1.4,0.7,Time
,,S08,349889,1,女,21,anonymized,Serial_Dependence_U,2023.2.3,Win32,59.880239520962,,,,,,921.5952999999522,183.0,2.0,921.5954000000952,183.0,,,,925.5852999999522,926.0800999999044,925.0687000000476,925.5852999999522,922.6022999999524,925.0685999999046,926.0800999999044,926.5802000000476,926.5802999999522,928.6522999999522,1600.0,928.6522999999522,4.0,928.6604000000953,2.0,24.0,84.0,13.0,1.0,1.4,0.3,Time
,,S08,349889,1,女,21,anonymized,Serial_Dependence_U,2023.2.3,Win32,59.880239520962,,,,,,928.6607000000477,354.0,2.0,928.6607999999522,354.0,,,,932.6350999999046,933.1300999999046,932.1185,932.635,929.6517999999522,932.1185,933.1300999999046,933.6312000000476,933.6312000000476,936.351,2199.0,936.351,5.0,936.3594000000952,2.0,25.0,85.0,23.0,1.0,1.4,0.3,Time
,,S08,349889,1,女,21,anonymized,Serial_Dependence_U,2023.2.3,Win32,59.880239520962,,,,,,936.3597999999522,34.0,2.0,936.36,34.0,,,,939.9515,940.4465999999044,939.4345999999044,939.9515,937.3675,939.4345,940.4467999999522,940.9464000000952,940.9465,943.1849000000952,1733.0,943.1849000000952,5.0,943.1942000000475,2.0,26.0,86.0,11.0,1.0,1.0,0.3,Time
,,S08,349889,1,女,21,anonymized,Serial_Dependence_U,2023.2.3,Win32,59.880239520962,,,,,,943.1945,302.0,2.0,943.1945999999044,302.0,,,,947.3515,947.8467000000476,946.8342000000476,947.3514000000952,944.2010999999044,946.8342000000476,947.8467000000476,948.3495999999044,948.3497000000476,950.6679000000952,2249.0,950.6679000000952,5.0,950.6774000000952,2.0,27.0,87.0,29.0,1.0,1.6,0.7,Time
,,S08,349889,1,女,21,anonymized,Serial_Dependence_U,2023.2.3,Win32,59.880239520962,,,,,,950.6777000000476,172.0,2.0,950.6779000000952,172.0,,,,954.2337999999522,954.7287000000476,953.7174000000952,954.2337999999522,951.684,953.7172999999524,954.7289000000952,955.2287000000476,955.2289000000952,957.1844000000953,1367.0,957.1844000000953,5.0,957.1927999999522,2.0,28.0,88.0,16.0,1.0,1.0,0.7,Time
,,S08,349889,1,女,21,anonymized,Serial_Dependence_U,2023.2.3,Win32,59.880239520962,,,,,,957.1930999999046,187.0,2.0,957.1932000000476,187.0,,,,961.3837999999522,961.8782000000476,960.8669000000953,961.3837000000476,958.2007000000476,960.8667999999524,961.8782999999522,962.3784000000952,962.3785,964.4505999999044,1467.0,964.4507000000476,2.0,964.459,2.0,29.0,89.0,14.0,1.0,1.6,0.3,Time
,,S08,349889,1,女,21,anonymized,Serial_Dependence_U,2023.2.3,Win32,59.880239520962,,,,,,964.4592999999522,323.0,3.0,967.2039000000952,323.0,s,2.7292000000476264,,971.3665,971.861,970.8502000000476,971.3664000000952,968.2167000000476,970.8500999999044,971.8610999999046,972.3614000000952,972.3614000000952,974.4829000000952,1666.0,974.483,3.0,974.4904000000952,3.0,0.0,90.0,9.0,1.0,1.6,0.7,Time
,,S08,349889,1,女,21,anonymized,Serial_Dependence_U,2023.2.3,Win32,59.880239520962,,,,,,974.4907000000476,248.0,3.0,974.4915,248.0,,,,978.6492000000476,979.1484000000952,978.1327999999522,978.6492000000476,975.4992999999522,978.1327000000476,979.1484000000952,979.6445999999046,979.6447999999522,981.966,1666.0,981.966,3.0,981.9750999999044,3.0,1.0,91.0,29.0,1.0,1.6,0.7,Time
,,S08,349889,1,女,21,anonymized,Serial_Dependence_U,2023.2.3,Win32,59.880239520962,,,,,,981.9755,249.0,3.0,981.9755999999044,249.0,,,,985.7495999999044,986.2479000000952,985.249,985.7495,982.9825,985.2489000000952,986.2479000000952,986.7435999999044,986.7435999999044,989.0325,1617.0,989.0325,5.0,989.0412999999522,3.0,2.0,92.0,2.0,1.0,1.2,0.3,Time
,,S08,349889,1,女,21,anonymized,Serial_Dependence_U,2023.2.3,Win32,59.880239520962,,,,,,989.0417000000476,206.0,3.0,989.0417999999522,206.0,,,,993.0315,993.5267000000476,992.5154000000952,993.0314000000952,990.0485,992.5154000000952,993.5267999999522,994.0267000000476,994.0269000000952,995.5152999999524,883.0,995.5152999999524,1.0,995.5225999999044,3.0,3.0,93.0,23.0,1.0,1.4,0.3,Time
,,S08,349889,1,女,21,anonymized,Serial_Dependence_U,2023.2.3,Win32,59.880239520962,,,,,,995.5229000000952,32.0,3.0,995.5230999999044,32.0,,,,998.9149000000951,999.4099000000951,998.3982999999522,998.9149000000951,996.5317000000476,998.3982000000476,999.4100999999046,999.9100999999046,999.9102999999524,1001.8487000000476,1083.0,1001.8487999999522,5.0,1001.8570999999046,3.0,4.0,94.0,10.0,1.0,0.8,0.3,Time
,,S08,349889,1,女,21,anonymized,Serial_Dependence_U,2023.2.3,Win32,59.880239520962,,,,,,1001.8575,122.0,3.0,1001.8575999999046,122.0,,,,1005.2145,1005.7095999999044,1004.6979000000952,1005.2144000000952,1002.8647000000476,1004.6979000000952,1005.7097000000476,1006.2137000000477,1006.2137000000477,1008.2985999999046,1133.0,1008.2987000000476,5.0,1008.3057000000476,3.0,5.0,95.0,15.0,1.0,0.8,0.7,Time
,,S08,349889,1,女,21,anonymized,Serial_Dependence_U,2023.2.3,Win32,59.880239520962,,,,,,1008.306,99.0,3.0,1008.3062000000476,99.0,,,,1012.4975999999044,1012.9922999999524,1011.9812999999522,1012.4975,1009.3145,1011.9812000000476,1012.9924000000952,1013.4947999999522,1013.4949000000952,1015.4975999999044,1200.0,1015.4977000000476,2.0,1015.5065999999044,3.0,6.0,96.0,24.0,1.0,1.6,0.3,Time
,,S08,349889,1,女,21,anonymized,Serial_Dependence_U,2023.2.3,Win32,59.880239520962,,,,,,1015.5069000000954,353.0,3.0,1015.5069999999998,353.0,,,,1018.8639000000952,1019.359,1018.3477999999524,1018.863799999952,1016.5137000000476,1018.3475999999046,1019.3590999999046,1019.8584000000952,1019.8584999999998,1021.4975,883.0,1021.4975999999044,4.0,1021.5055999999043,3.0,7.0,97.0,5.0,1.0,0.8,0.7,Time
,,S08,349889,1,女,21,anonymized,Serial_Dependence_U,2023.2.3,Win32,59.880239520962,,,,,,1021.5059000000954,124.0,3.0,1021.5059000000954,124.0,,,,1025.2967999999523,1025.7917000000475,1024.7807000000475,1025.2967999999523,1022.5142000000476,1024.7807000000475,1025.7917999999522,1026.2917000000475,1026.2919000000952,1028.3139000000954,1300.0,1028.314,4.0,1028.3225999999045,3.0,8.0,98.0,22.0,1.0,1.2,0.3,Time
,,S08,349889,1,女,21,anonymized,Serial_Dependence_U,2023.2.3,Win32,59.880239520962,,,,,,1028.3229000000952,135.0,3.0,1028.323,135.0,,,,1032.5132000000476,1033.0082000000475,1031.9965,1032.5132000000476,1029.3299000000952,1031.9964000000953,1033.0082999999522,1033.5084000000952,1033.5085,1034.9472000000476,900.0,1034.9472999999523,1.0,1034.9557000000475,3.0,9.0,99.0,4.0,1.0,1.6,0.3,Time
,,S08,349889,1,女,21,anonymized,Serial_Dependence_U,2023.2.3,Win32,59.880239520962,,,,,,1034.956,81.0,3.0,1034.9562000000476,81.0,,,,1038.7132000000477,1039.2077999999522,1038.1960999999046,1038.713,1035.9630999999044,1038.196,1039.208,1039.7085,1039.7085999999044,1041.2467000000477,1250.0,1041.2469000000954,3.0,1041.2555,3.0,10.0,100.0,7.0,1.0,1.2,0.7,Time
,,S08,349889,1,女,21,anonymized,Serial_Dependence_U,2023.2.3,Win32,59.880239520962,,,,,,1041.2557999999522,330.0,3.0,1041.2559000000954,330.0,,,,1045.0125999999043,1045.5074000000952,1044.4962000000476,1045.0124999999998,1042.263,1044.4960999999046,1045.5075,1046.0070999999043,1046.0072000000475,1047.5794999999998,1150.0,1047.5794999999998,3.0,1047.5887000000475,3.0,11.0,101.0,27.0,1.0,1.2,0.7,Time
,,S08,349889,1,女,21,anonymized,Serial_Dependence_U,2023.2.3,Win32,59.880239520962,,,,,,1047.589,79.0,3.0,1047.5890999999046,79.0,,,,1051.1459000000953,1051.6405,1050.6295,1051.1457000000476,1048.5959000000953,1050.6294000000953,1051.6405,1052.1404000000953,1052.1405999999045,1053.7627999999522,1067.0,1053.7627999999522,4.0,1053.7715999999043,3.0,12.0,102.0,6.0,1.0,1.0,0.7,Time
,,S08,349889,1,女,21,anonymized,Serial_Dependence_U,2023.2.3,Win32,59.880239520962,,,,,,1053.772,242.0,3.0,1053.7720999999046,242.0,,,,1057.362,1057.8567999999525,1056.8452000000475,1057.362,1054.7745999999045,1056.8450999999045,1057.8569000000953,1058.3569000000953,1058.357,1060.5624000000953,1383.0,1060.5624000000953,5.0,1060.571,3.0,13.0,103.0,1.0,1.0,1.0,0.3,Time
,,S08,349889,1,女,21,anonymized,Serial_Dependence_U,2023.2.3,Win32,59.880239520962,,,,,,1060.5714000000953,146.0,3.0,1060.5715,146.0,,,,1064.3455999999046,1064.8394999999998,1063.844900000095,1064.3454000000952,1061.5784000000954,1063.8447999999523,1064.8394999999998,1065.3400999999046,1065.3402000000476,1067.262,1367.0,1067.262,4.0,1067.2690999999045,3.0,14.0,104.0,12.0,1.0,1.2,0.3,Time
,,S08,349889,1,女,21,anonymized,Serial_Dependence_U,2023.2.3,Win32,59.880239520962,,,,,,1067.2695,171.0,3.0,1067.2695999999046,171.0,,,,1071.227799999952,1071.7225999999046,1070.7112999999522,1071.2277000000477,1068.277900000095,1070.7112999999522,1071.7225999999046,1072.2225999999046,1072.2225999999046,1074.0952999999522,1334.0,1074.0954000000952,3.0,1074.1039999999998,3.0,15.0,105.0,28.0,1.0,1.4,0.7,Time
,,S08,349889,1,女,21,anonymized,Serial_Dependence_U,2023.2.3,Win32,59.880239520962,,,,,,1074.1042999999522,61.0,3.0,1074.1044000000952,61.0,,,,1078.0610999999046,1078.5589000000953,1077.5442000000476,1078.0610999999046,1075.1109000000952,1077.5442000000476,1078.559,1079.0559999999998,1079.0560999999043,1081.3445,1650.0,1081.3445,4.0,1081.3517999999522,3.0,16.0,106.0,8.0,1.0,1.4,0.7,Time
,,S08,349889,1,女,21,anonymized,Serial_Dependence_U,2023.2.3,Win32,59.880239520962,,,,,,1081.3520999999046,231.0,3.0,1081.3522000000476,231.0,,,,1085.5395999999046,1086.0417000000475,1085.0275,1085.5392999999522,1082.3607999999522,1085.0274000000952,1086.0417000000475,1086.5390999999045,1086.5392000000477,1088.8274000000952,1866.0,1088.8275,4.0,1088.8367999999523,3.0,17.0,107.0,14.0,1.0,1.6,0.3,Time
,,S08,349889,1,女,21,anonymized,Serial_Dependence_U,2023.2.3,Win32,59.880239520962,,,,,,1088.8370999999045,352.0,3.0,1088.8372000000477,352.0,,,,1092.8269000000953,1093.3215,1092.3110999999046,1092.8267999999523,1089.843799999952,1092.311,1093.3217000000477,1093.8232999999525,1093.8232999999525,1096.310299999952,1950.0,1096.3104000000951,5.0,1096.3187999999525,3.0,18.0,108.0,13.0,1.0,1.4,0.3,Time
,,S08,349889,1,女,21,anonymized,Serial_Dependence_U,2023.2.3,Win32,59.880239520962,,,,,,1096.3190999999044,186.0,3.0,1096.3192000000477,186.0,,,,1100.0765,1100.5712000000476,1099.5597000000475,1100.0762999999522,1097.3264000000952,1099.5595999999043,1100.5714000000953,1101.0727000000477,1101.0727000000477,1103.0767999999523,1250.0,1103.0767999999523,3.0,1103.0857000000476,3.0,19.0,109.0,17.0,1.0,1.2,0.7,Time
,,S08,349889,1,女,21,anonymized,Serial_Dependence_U,2023.2.3,Win32,59.880239520962,,,,,,1103.0860999999045,257.0,3.0,1103.0860999999045,257.0,,,,1107.0427999999522,1107.5372999999522,1106.5262000000475,1107.0427999999522,1104.0927000000477,1106.5260999999043,1107.5372999999522,1108.042,1108.042,1110.1904000000952,1414.0,1110.1904000000952,3.0,1110.2000999999043,3.0,20.0,110.0,18.0,1.0,1.4,0.7,Time
,,S08,349889,1,女,21,anonymized,Serial_Dependence_U,2023.2.3,Win32,59.880239520962,,,,,,1110.2005,59.0,3.0,1110.2005999999046,59.0,,,,1113.7924000000953,1114.2875999999046,1113.2757000000477,1113.7924000000953,1111.2090999999043,1113.2757000000477,1114.2877000000476,1114.7869999999998,1114.7872000000475,1116.5925999999045,1133.0,1116.5927000000477,4.0,1116.6007000000477,3.0,21.0,111.0,11.0,1.0,1.0,0.3,Time
,,S08,349889,1,女,21,anonymized,Serial_Dependence_U,2023.2.3,Win32,59.880239520962,,,,,,1116.601,310.0,3.0,1116.6010999999046,310.0,,,,1119.9920999999044,1120.4867000000477,1119.4755,1119.992,1117.6087000000475,1119.4755,1120.4867000000477,1120.9867999999522,1120.9869000000954,1123.3754000000952,1050.0,1123.3754000000952,5.0,1123.3825,3.0,22.0,112.0,0.0,1.0,0.8,0.3,Time
,,S08,349889,1,女,21,anonymized,Serial_Dependence_U,2023.2.3,Win32,59.880239520962,,,,,,1123.382799999952,15.0,3.0,1123.382900000095,15.0,,,,1127.5417000000475,1128.0364000000952,1127.025,1127.5417000000475,1124.3914000000952,1127.0249000000952,1128.0364000000952,1128.5367000000476,1128.536900000095,1130.292,1183.0,1130.292,2.0,1130.3009000000952,3.0,23.0,113.0,19.0,1.0,1.6,0.7,Time
,,S08,349889,1,女,21,anonymized,Serial_Dependence_U,2023.2.3,Win32,59.880239520962,,,,,,1130.3010999999046,298.0,3.0,1130.3012000000476,298.0,,,,1134.291400000095,1134.7859999999998,1133.7745999999045,1134.291299999952,1131.3082000000477,1133.7745999999045,1134.7859999999998,1135.2860999999043,1135.2860999999043,1137.775,1484.0,1137.775,4.0,1137.7845,3.0,24.0,114.0,3.0,1.0,1.4,0.3,Time
,,S08,349889,1,女,21,anonymized,Serial_Dependence_U,2023.2.3,Win32,59.880239520962,,,,,,1137.7849000000954,297.0,3.0,1137.7850999999046,297.0,,,,1141.3407999999522,1141.8357000000476,1140.8242999999522,1141.3407999999522,1138.791,1140.8242000000475,1141.8357999999523,1142.3357000000476,1142.3359000000953,1143.9247999999525,1150.0,1143.9249000000952,4.0,1143.9337000000476,3.0,25.0,115.0,26.0,1.0,1.0,0.7,Time
,,S08,349889,1,女,21,anonymized,Serial_Dependence_U,2023.2.3,Win32,59.880239520962,,,,,,1143.934,147.0,3.0,1143.9340999999044,147.0,,,,1147.2907000000475,1147.7895,1146.774,1147.2905999999043,1144.9407999999523,1146.7739000000952,1147.7895,1148.2895999999046,1148.2897000000476,1150.0244000000953,1233.0,1150.0244000000953,5.0,1150.0332000000476,3.0,26.0,116.0,25.0,1.0,0.8,0.7,Time
,,S08,349889,1,女,21,anonymized,Serial_Dependence_U,2023.2.3,Win32,59.880239520962,,,,,,1150.0334000000953,301.0,3.0,1150.0335999999045,301.0,,,,1153.4237000000476,1153.9184000000953,1152.9072000000476,1153.4237000000476,1151.0395999999046,1152.9070999999046,1153.9184000000953,1154.419,1154.4192000000476,1155.4064999999998,515.0,1155.4065999999043,1.0,1155.4135999999046,3.0,27.0,117.0,20.0,1.0,0.8,0.3,Time
,,S08,349889,1,女,21,anonymized,Serial_Dependence_U,2023.2.3,Win32,59.880239520962,,,,,,1155.4139000000953,330.0,3.0,1155.4140999999045,330.0,,,,1158.973299999952,1159.4697000000476,1158.457,1158.9732000000477,1156.4222999999522,1158.4569000000952,1159.4697000000476,1159.9682000000475,1159.9684000000952,1161.7734000000953,1116.0,1161.7734000000953,4.0,1161.7817000000475,3.0,28.0,118.0,16.0,1.0,1.0,0.7,Time
,,S08,349889,1,女,21,anonymized,Serial_Dependence_U,2023.2.3,Win32,59.880239520962,,,,,,1161.782,151.0,3.0,1161.7820999999046,151.0,,,,1165.372799999952,1165.8679000000952,1164.8562999999522,1165.3727000000476,1162.7897999999525,1164.8562999999522,1165.868,1166.368,1166.3682000000476,1168.1562000000476,1183.0,1168.156299999952,4.0,1168.1637999999523,3.0,29.0,119.0,21.0,1.0,1.0,0.3,Time
,,S08,349889,1,女,21,anonymized,Serial_Dependence_U,2023.2.3,Win32,59.880239520962,,,,,,1168.1642000000477,192.0,4.0,1172.2462000000476,192.0,s,4.066100000143024,,1175.9892000000475,1176.4837999999522,1175.4725,1175.9892000000475,1173.2389999999998,1175.4724000000954,1176.484,1176.984,1176.9842000000476,1178.9559000000952,1317.0,1178.9559000000952,4.0,1178.9634999999998,4.0,0.0,120.0,17.0,1.0,1.2,0.7,Time
,,S08,349889,1,女,21,anonymized,Serial_Dependence_U,2023.2.3,Win32,59.880239520962,,,,,,1178.9639000000952,86.0,4.0,1178.9649000000952,86.0,,,,1182.3222000000476,1182.8167000000476,1181.8052999999522,1182.3220999999046,1179.9722999999522,1181.8052999999522,1182.8167999999523,1183.3209000000952,1183.321,1184.7059000000952,783.0,1184.706,3.0,1184.7145999999043,4.0,1.0,121.0,25.0,1.0,0.8,0.7,Time
,,S08,349889,1,女,21,anonymized,Serial_Dependence_U,2023.2.3,Win32,59.880239520962,,,,,,1184.7149000000952,246.0,4.0,1184.7150999999046,246.0,,,,1188.5049000000952,1188.9995999999046,1187.988900000095,1188.5049000000952,1185.7215999999046,1187.988799999952,1188.9997000000476,1189.5032000000476,1189.5032000000476,1191.5550999999043,1516.0,1191.5552000000475,4.0,1191.5622999999523,4.0,2.0,122.0,2.0,1.0,1.2,0.3,Time
,,S08,349889,1,女,21,anonymized,Serial_Dependence_U,2023.2.3,Win32,59.880239520962,,,,,,1191.5625999999045,88.0,4.0,1191.5627000000477,88.0,,,,1195.7215999999046,1196.2195,1195.2047999999522,1195.7215,1192.5719000000952,1195.2047000000475,1196.2195,1196.7162000000476,1196.7162999999523,1199.0087000000476,1668.0,1199.0087999999523,3.0,1199.0235999999045,4.0,3.0,123.0,29.0,1.0,1.6,0.7,Time
,,S08,349889,1,女,21,anonymized,Serial_Dependence_U,2023.2.3,Win32,59.880239520962,,,,,,1199.0239000000952,347.0,4.0,1199.0239000000952,347.0,,,,1202.7714000000954,1203.2697999999525,1202.2547999999522,1202.771299999952,1200.0210999999044,1202.2547000000477,1203.2697999999525,1203.7659999999998,1203.7665999999044,1205.9547000000475,1416.0,1205.9547000000475,4.0,1205.9629000000953,4.0,4.0,124.0,7.0,1.0,1.2,0.7,Time
,,S08,349889,1,女,21,anonymized,Serial_Dependence_U,2023.2.3,Win32,59.880239520962,,,,,,1205.9632000000477,256.0,4.0,1205.963299999952,256.0,,,,1210.1207999999522,1210.6155,1209.603900000095,1210.1207999999522,1206.9707000000476,1209.603900000095,1210.6155999999046,1211.1195999999045,1211.1195999999045,1213.4540999999044,1800.0,1213.4542000000476,4.0,1213.4639000000952,4.0,5.0,125.0,9.0,1.0,1.6,0.7,Time
,,S08,349889,1,女,21,anonymized,Serial_Dependence_U,2023.2.3,Win32,59.880239520962,,,,,,1213.464299999952,0.0,4.0,1213.4644999999998,0.0,,,,1217.4537000000475,1217.9482000000476,1216.9372999999523,1217.4537000000475,1214.4705999999046,1216.937,1217.9484000000953,1218.4489999999998,1218.4490999999043,1220.3372999999522,1350.0,1220.3374000000952,3.0,1220.3449999999998,4.0,6.0,126.0,13.0,1.0,1.4,0.3,Time
,,S08,349889,1,女,21,anonymized,Serial_Dependence_U,2023.2.3,Win32,59.880239520962,,,,,,1220.3454000000952,194.0,4.0,1220.3455,194.0,,,,1223.9034000000952,1224.3982000000476,1223.3867000000475,1223.9032999999522,1221.3532000000475,1223.3865999999043,1224.3984000000953,1224.8982000000476,1224.8982999999523,1226.786799999952,1500.0,1226.786799999952,5.0,1226.7944000000953,4.0,7.0,127.0,6.0,1.0,1.0,0.7,Time
,,S08,349889,1,女,21,anonymized,Serial_Dependence_U,2023.2.3,Win32,59.880239520962,,,,,,1226.7947000000477,349.0,4.0,1226.7949000000954,349.0,,,,1230.386299999952,1230.881,1229.8699000000952,1230.386299999952,1227.8045999999044,1229.8699000000952,1230.881,1231.3825999999046,1231.3825999999046,1232.7010999999045,1114.0,1232.7012000000475,4.0,1232.708799999952,4.0,8.0,128.0,11.0,1.0,1.0,0.3,Time
,,S08,349889,1,女,21,anonymized,Serial_Dependence_U,2023.2.3,Win32,59.880239520962,,,,,,1232.7090999999043,13.0,4.0,1232.7092000000475,13.0,,,,1236.0527000000477,1236.5475999999046,1235.5364000000952,1236.0525999999045,1233.7027000000476,1235.5364000000952,1236.5477000000476,1237.0474000000952,1237.0474000000952,1238.4034000000952,933.0,1238.4035,4.0,1238.4127999999523,4.0,9.0,129.0,15.0,1.0,0.8,0.7,Time
,,S08,349889,1,女,21,anonymized,Serial_Dependence_U,2023.2.3,Win32,59.880239520962,,,,,,1238.4130999999045,28.0,4.0,1238.4132999999522,28.0,,,,1242.2027000000476,1242.6972999999523,1241.6857000000475,1242.2025999999046,1239.4192000000476,1241.6855999999043,1242.6974000000953,1243.1970999999046,1243.1972999999523,1244.8025999999045,1018.0,1244.8025999999045,2.0,1244.8112999999523,4.0,10.0,130.0,12.0,1.0,1.2,0.3,Time
,,S08,349889,1,女,21,anonymized,Serial_Dependence_U,2023.2.3,Win32,59.880239520962,,,,,,1244.8117000000475,146.0,4.0,1244.8117999999522,146.0,,,,1248.3692000000476,1248.8635,1247.8524000000953,1248.3690999999046,1245.8185,1247.8524000000953,1248.8635,1249.3635999999046,1249.3637000000476,1250.8355,1350.0,1250.8355999999046,5.0,1250.8429000000954,4.0,11.0,131.0,26.0,1.0,1.0,0.7,Time
,,S08,349889,1,女,21,anonymized,Serial_Dependence_U,2023.2.3,Win32,59.880239520962,,,,,,1250.8430999999046,321.0,4.0,1250.8432000000475,321.0,,,,1254.6350999999045,1255.1312999999525,1254.1184999999998,1254.635,1251.8517000000477,1254.118400000095,1255.1312999999525,1255.6299000000952,1255.63,1257.102,1316.0,1257.102,4.0,1257.1099000000952,4.0,12.0,132.0,22.0,1.0,1.2,0.3,Time
,,S08,349889,1,女,21,anonymized,Serial_Dependence_U,2023.2.3,Win32,59.880239520962,,,,,,1257.1102000000476,5.0,4.0,1257.1102999999523,5.0,,,,1260.5172999999522,1261.0132000000476,1260.0015,1260.5172999999522,1258.1350999999045,1260.0015,1261.0132000000476,1261.5142000000476,1261.5142999999523,1262.9195,1133.0,1262.9195999999044,5.0,1262.9285999999045,4.0,13.0,133.0,0.0,1.0,0.8,0.3,Time
,,S08,349889,1,女,21,anonymized,Serial_Dependence_U,2023.2.3,Win32,59.880239520962,,,,,,1262.9290999999046,107.0,4.0,1262.9294000000953,107.0,,,,1267.1179000000952,1267.6125,1266.6012999999523,1267.1177999999522,1263.9340999999044,1266.6010999999046,1267.6125,1268.1139999999998,1268.1140999999045,1270.2015,1567.0,1270.2015999999046,3.0,1270.209900000095,4.0,14.0,134.0,24.0,1.0,1.6,0.3,Time
,,S08,349889,1,女,21,anonymized,Serial_Dependence_U,2023.2.3,Win32,59.880239520962,,,,,,1270.2102000000475,341.0,4.0,1270.2104000000952,341.0,,,,1273.9515,1274.4455999999043,1273.4505999999046,1273.9515,1271.2174000000953,1273.4505999999046,1274.4457999999522,1274.9454999999998,1274.9457000000475,1276.8182999999522,1433.0,1276.8184000000954,4.0,1276.8267999999523,4.0,15.0,135.0,27.0,1.0,1.2,0.7,Time
,,S08,349889,1,女,21,anonymized,Serial_Dependence_U,2023.2.3,Win32,59.880239520962,,,,,,1276.8270999999045,357.0,4.0,1276.8272000000477,357.0,,,,1280.2167999999522,1280.7117000000476,1279.7002000000475,1280.2167000000477,1277.8337000000477,1279.7002000000475,1280.7117999999523,1281.2119000000953,1281.2119000000953,1282.5342999999525,1267.0,1282.5342999999525,5.0,1282.5427000000475,4.0,16.0,136.0,20.0,1.0,0.8,0.3,Time
,,S08,349889,1,女,21,anonymized,Serial_Dependence_U,2023.2.3,Win32,59.880239520962,,,,,,1282.543,100.0,4.0,1282.5430999999046,100.0,,,,1285.9504000000952,1286.4447999999522,1285.4334000000952,1285.9504000000952,1283.5667999999523,1285.4334000000952,1286.4449000000952,1286.9450999999046,1286.945299999952,1288.9002999999525,1199.0,1288.9002999999525,5.0,1288.9077999999522,4.0,17.0,137.0,10.0,1.0,0.8,0.3,Time
,,S08,349889,1,女,21,anonymized,Serial_Dependence_U,2023.2.3,Win32,59.880239520962,,,,,,1288.9080999999046,285.0,4.0,1288.9082000000476,285.0,,,,1292.8497999999522,1293.3442999999522,1292.3330999999046,1292.8497000000475,1289.8999000000952,1292.3330999999046,1293.3444000000952,1293.8485999999043,1293.8485999999043,1295.9167999999522,1567.0,1295.9169000000952,4.0,1295.9247999999525,4.0,18.0,138.0,28.0,1.0,1.4,0.7,Time
,,S08,349889,1,女,21,anonymized,Serial_Dependence_U,2023.2.3,Win32,59.880239520962,,,,,,1295.9250999999044,278.0,4.0,1295.9252000000477,278.0,,,,1300.1159000000953,1300.6105999999045,1299.5994999999998,1300.1157999999523,1296.9305999999046,1299.5994999999998,1300.6107000000477,1301.1107000000477,1301.1109000000952,1303.8162999999522,1733.0,1303.8164000000952,4.0,1303.8245999999046,4.0,19.0,139.0,4.0,1.0,1.6,0.3,Time
,,S08,349889,1,女,21,anonymized,Serial_Dependence_U,2023.2.3,Win32,59.880239520962,,,,,,1303.824799999952,102.0,4.0,1303.824900000095,102.0,,,,1307.782400000095,1308.2772999999522,1307.2662000000475,1307.7822999999523,1304.8324000000953,1307.2660999999046,1308.2775,1308.7769999999998,1308.7770999999043,1310.3657000000476,1483.0,1310.3657000000476,4.0,1310.3732999999522,4.0,20.0,140.0,18.0,1.0,1.4,0.7,Time
,,S08,349889,1,女,21,anonymized,Serial_Dependence_U,2023.2.3,Win32,59.880239520962,,,,,,1310.3737000000476,207.0,4.0,1310.3737999999523,207.0,,,,1314.5317999999522,1315.026799999952,1314.0152999999525,1314.5317000000475,1311.3822000000475,1314.0152999999525,1315.026900000095,1315.526900000095,1315.526900000095,1317.915299999952,1600.0,1317.9154000000954,3.0,1317.9227000000476,4.0,21.0,141.0,19.0,1.0,1.6,0.7,Time
,,S08,349889,1,女,21,anonymized,Serial_Dependence_U,2023.2.3,Win32,59.880239520962,,,,,,1317.923,212.0,4.0,1317.9230999999045,212.0,,,,1322.1147000000476,1322.6097000000475,1321.5984000000954,1322.1147000000476,1318.9315999999046,1321.5982000000477,1322.6097999999522,1323.1095999999045,1323.1097000000475,1325.5984000000954,1733.0,1325.5985999999043,4.0,1325.6072000000477,4.0,22.0,142.0,14.0,1.0,1.6,0.3,Time
,,S08,349889,1,女,21,anonymized,Serial_Dependence_U,2023.2.3,Win32,59.880239520962,,,,,,1325.6074999999998,43.0,4.0,1325.6077000000475,43.0,,,,1329.1979000000952,1329.6955999999043,1328.6810999999043,1329.1977999999522,1326.615,1328.6809999999998,1329.6955999999043,1330.1925,1330.1925999999046,1331.4815,333.0,1331.4815,1.0,1331.4885,4.0,23.0,143.0,21.0,1.0,1.0,0.3,Time
,,S08,349889,1,女,21,anonymized,Serial_Dependence_U,2023.2.3,Win32,59.880239520962,,,,,,1331.488799999952,30.0,4.0,1331.488900000095,30.0,,,,1335.0475,1335.5462999999522,1334.5309000000952,1335.0475,1332.4979999999998,1334.5307999999525,1335.5464000000952,1336.0422999999523,1336.0424999999998,1337.7312999999522,1083.0,1337.7312999999522,4.0,1337.7397000000476,4.0,24.0,144.0,16.0,1.0,1.0,0.7,Time
,,S08,349889,1,女,21,anonymized,Serial_Dependence_U,2023.2.3,Win32,59.880239520962,,,,,,1337.74,255.0,4.0,1337.7400999999045,255.0,,,,1341.3307999999522,1341.8252999999522,1340.814,1341.3307999999522,1338.7472999999522,1340.814,1341.8254000000952,1342.329,1342.3290999999044,1344.4137999999523,850.0,1344.4139000000953,2.0,1344.4222999999522,4.0,25.0,145.0,1.0,1.0,1.0,0.3,Time
,,S08,349889,1,女,21,anonymized,Serial_Dependence_U,2023.2.3,Win32,59.880239520962,,,,,,1344.4225999999046,270.0,4.0,1344.4227000000476,270.0,,,,1348.3800999999046,1348.8754000000952,1347.863799999952,1348.38,1345.4302999999522,1347.8637000000476,1348.8755,1349.375,1349.3750999999045,1351.9804000000952,2033.0,1351.9805,5.0,1351.9897000000476,4.0,26.0,146.0,8.0,1.0,1.4,0.7,Time
,,S08,349889,1,女,21,anonymized,Serial_Dependence_U,2023.2.3,Win32,59.880239520962,,,,,,1351.99,309.0,4.0,1351.9902000000477,309.0,,,,1355.9634999999998,1356.4577999999522,1355.4630999999044,1355.9634000000954,1352.9972000000475,1355.463,1356.4577999999522,1356.9584000000953,1356.9585,1360.1635999999046,1983.0,1360.1635999999046,5.0,1360.1720999999045,4.0,27.0,147.0,3.0,1.0,1.4,0.3,Time
,,S08,349889,1,女,21,anonymized,Serial_Dependence_U,2023.2.3,Win32,59.880239520962,,,,,,1360.1725,231.0,4.0,1360.1725,231.0,,,,1363.5295,1364.0265,1363.0127999999522,1363.5295,1361.1799000000954,1363.0127999999522,1364.0265999999046,1364.525799999952,1364.5259000000954,1366.7292999999522,1533.0,1366.7294000000952,5.0,1366.7364000000953,4.0,28.0,148.0,5.0,1.0,0.8,0.7,Time
,,S08,349889,1,女,21,anonymized,Serial_Dependence_U,2023.2.3,Win32,59.880239520962,,,,,,1366.7367999999522,185.0,4.0,1366.7369000000954,185.0,,,,1370.744,1371.2444000000953,1370.2290999999043,1370.7439000000952,1367.762400000095,1370.2290999999043,1371.2444000000953,1371.7409000000953,1371.741,1373.4459000000952,1217.0,1373.4459000000952,2.0,1373.4534000000954,4.0,29.0,149.0,23.0,1.0,1.4,0.3,Time
,,S08,349889,1,女,21,anonymized,Serial_Dependence_U,2023.2.3,Win32,59.880239520962,,,,,,1373.4535999999046,4.0,5.0,1402.0145999999045,4.0,s,28.53429999995251,,1405.9944000000953,1406.488799999952,1405.4772999999525,1405.9942999999523,1403.0105999999046,1405.4772000000476,1406.488799999952,1406.9885,1406.9887000000476,1409.3107999999522,1633.0,1409.3107999999522,4.0,1409.3179000000953,5.0,0.0,150.0,13.0,1.0,1.4,0.3,Time
,,S08,349889,1,女,21,anonymized,Serial_Dependence_U,2023.2.3,Win32,59.880239520962,,,,,,1409.3180999999045,154.0,5.0,1409.319,154.0,,,,1413.1102999999523,1413.6069000000953,1412.5935999999044,1413.1102000000476,1410.3267999999523,1412.5935999999044,1413.607,1414.1050999999045,1414.1052999999522,1415.394,783.0,1415.3942000000477,1.0,1415.402900000095,5.0,1.0,151.0,12.0,1.0,1.2,0.3,Time
,,S08,349889,1,女,21,anonymized,Serial_Dependence_U,2023.2.3,Win32,59.880239520962,,,,,,1415.4032000000475,10.0,5.0,1415.4032999999522,10.0,,,,1418.993400000095,1419.4879999999998,1418.4765,1418.993299999952,1416.4102000000476,1418.4764000000953,1419.4880999999043,1419.9879000000954,1419.9879999999998,1421.6602000000476,1100.0,1421.6602000000476,4.0,1421.6685999999045,5.0,2.0,152.0,21.0,1.0,1.0,0.3,Time
,,S08,349889,1,女,21,anonymized,Serial_Dependence_U,2023.2.3,Win32,59.880239520962,,,,,,1421.669,301.0,5.0,1421.6690999999046,301.0,,,,1425.6427999999523,1426.1409000000954,1425.1415,1425.6427999999523,1422.6765999999045,1425.1412999999525,1426.1409000000954,1426.6377999999522,1426.6379000000952,1428.5114999999998,1251.0,1428.5115999999043,2.0,1428.5230999999046,5.0,3.0,153.0,23.0,1.0,1.4,0.3,Time
,,S08,349889,1,女,21,anonymized,Serial_Dependence_U,2023.2.3,Win32,59.880239520962,,,,,,1428.5234000000953,326.0,5.0,1428.5235,326.0,,,,1432.108299999952,1432.6040999999043,1431.5927000000477,1432.1082000000476,1429.5260999999043,1431.5927000000477,1432.6042000000475,1433.1042000000475,1433.1044000000952,1434.6930999999045,1233.0,1434.6930999999045,4.0,1434.7022000000477,5.0,4.0,154.0,11.0,1.0,1.0,0.3,Time
,,S08,349889,1,女,21,anonymized,Serial_Dependence_U,2023.2.3,Win32,59.880239520962,,,,,,1434.7025999999046,217.0,5.0,1434.7027000000476,217.0,,,,1438.4765999999045,1438.9702999999522,1437.9755999999045,1438.4762999999523,1435.7089999999998,1437.9755,1438.9704000000952,1439.4702999999522,1439.4705,1441.392900000095,1083.0,1441.392900000095,2.0,1441.4015,5.0,5.0,155.0,2.0,1.0,1.2,0.3,Time
,,S08,349889,1,女,21,anonymized,Serial_Dependence_U,2023.2.3,Win32,59.880239520962,,,,,,1441.401900000095,302.0,5.0,1441.4019999999998,302.0,,,,1445.3917000000476,1445.8864999999998,1444.8752999999522,1445.3917000000476,1442.4089000000952,1444.8752000000477,1445.8865999999043,1446.3889000000952,1446.389,1448.7757000000477,1633.0,1448.775799999952,4.0,1448.7842000000476,5.0,6.0,156.0,3.0,1.0,1.4,0.3,Time
,,S08,349889,1,女,21,anonymized,Serial_Dependence_U,2023.2.3,Win32,59.880239520962,,,,,,1448.7845999999045,316.0,5.0,1448.7847000000477,316.0,,,,1452.7415999999046,1453.2362000000476,1452.2252999999523,1452.7415999999046,1449.7919000000952,1452.2252000000476,1453.2362000000476,1453.7365999999045,1453.7367000000477,1455.4747999999522,1383.0,1455.4749000000952,3.0,1455.4817999999525,5.0,7.0,157.0,8.0,1.0,1.4,0.7,Time
,,S08,349889,1,女,21,anonymized,Serial_Dependence_U,2023.2.3,Win32,59.880239520962,,,,,,1455.4820999999044,94.0,5.0,1455.4822000000477,94.0,,,,1459.4407000000476,1459.9362000000476,1458.9247000000476,1459.4405999999046,1456.4912999999522,1458.9245999999046,1459.9362000000476,1460.4365999999045,1460.4367000000475,1462.908,1767.0,1462.9080999999046,4.0,1462.9155999999043,5.0,8.0,158.0,18.0,1.0,1.4,0.7,Time
,,S08,349889,1,女,21,anonymized,Serial_Dependence_U,2023.2.3,Win32,59.880239520962,,,,,,1462.9157999999522,72.0,5.0,1462.9159000000952,72.0,,,,1466.6740999999045,1467.1687999999522,1466.1572999999523,1466.674,1463.9242000000477,1466.1572000000476,1467.1687999999522,1467.6700999999046,1467.6702000000475,1469.8222000000476,1331.0,1469.8222999999523,4.0,1469.8307999999522,5.0,9.0,159.0,17.0,1.0,1.2,0.7,Time
,,S08,349889,1,女,21,anonymized,Serial_Dependence_U,2023.2.3,Win32,59.880239520962,,,,,,1469.8312000000476,349.0,5.0,1469.8312999999523,349.0,,,,1473.1729000000953,1473.6684000000953,1472.657,1473.1727999999523,1470.8239999999998,1472.657,1473.6685,1474.1709000000951,1474.1709000000951,1476.2075,1334.0,1476.2075999999045,5.0,1476.2145999999043,5.0,10.0,160.0,5.0,1.0,0.8,0.7,Time
,,S08,349889,1,女,21,anonymized,Serial_Dependence_U,2023.2.3,Win32,59.880239520962,,,,,,1476.2149000000952,358.0,5.0,1476.2150999999046,358.0,,,,1479.9737999999522,1480.4682000000475,1479.4567999999522,1479.9737000000475,1477.2239000000952,1479.4567000000477,1480.4682000000475,1480.9682000000475,1480.9684000000952,1482.8402000000476,1100.0,1482.8402999999523,2.0,1482.8487999999522,5.0,11.0,161.0,27.0,1.0,1.2,0.7,Time
,,S08,349889,1,女,21,anonymized,Serial_Dependence_U,2023.2.3,Win32,59.880239520962,,,,,,1482.8492000000476,343.0,5.0,1482.849299999952,343.0,,,,1486.6062999999522,1487.1009000000952,1486.0900999999046,1486.6062000000477,1483.8567000000476,1486.09,1487.1009000000952,1487.6022999999525,1487.6022999999525,1489.6572999999523,1234.0,1489.657400000095,3.0,1489.6647000000476,5.0,12.0,162.0,7.0,1.0,1.2,0.7,Time
,,S08,349889,1,女,21,anonymized,Serial_Dependence_U,2023.2.3,Win32,59.880239520962,,,,,,1489.665,176.0,5.0,1489.665,176.0,,,,1493.2225999999046,1493.7175,1492.706,1493.2225,1490.6734000000952,1492.7059000000952,1493.7175,1494.217799999952,1494.2179999999998,1496.189799999952,1317.0,1496.189799999952,5.0,1496.1964000000953,5.0,13.0,163.0,26.0,1.0,1.0,0.7,Time
,,S08,349889,1,女,21,anonymized,Serial_Dependence_U,2023.2.3,Win32,59.880239520962,,,,,,1496.1967000000477,165.0,5.0,1496.1967999999522,165.0,,,,1500.389,1500.8837999999523,1499.8724000000952,1500.3889000000952,1497.2057000000475,1499.8724000000952,1500.8837999999523,1501.3835999999046,1501.3837999999523,1503.8727000000476,1316.0,1503.8727000000476,2.0,1503.8807000000477,5.0,14.0,164.0,24.0,1.0,1.6,0.3,Time
,,S08,349889,1,女,21,anonymized,Serial_Dependence_U,2023.2.3,Win32,59.880239520962,,,,,,1503.881,233.0,5.0,1503.8810999999046,233.0,,,,1507.2554000000953,1507.7500999999045,1506.7390999999045,1507.2552999999525,1504.8719000000954,1506.7390999999045,1507.7500999999045,1508.2500999999045,1508.2502999999522,1509.9390999999046,1300.0,1509.9390999999046,5.0,1509.9460999999046,5.0,15.0,165.0,0.0,1.0,0.8,0.3,Time
,,S08,349889,1,女,21,anonymized,Serial_Dependence_U,2023.2.3,Win32,59.880239520962,,,,,,1509.9464000000953,95.0,5.0,1509.9465,95.0,,,,1514.1385999999045,1514.6332999999522,1513.6215999999044,1514.1384999999998,1510.9537000000475,1513.6215999999044,1514.6332999999522,1515.1330999999043,1515.1330999999043,1517.5887999999522,1633.0,1517.5887999999522,3.0,1517.5962999999522,5.0,16.0,166.0,14.0,1.0,1.6,0.3,Time
,,S08,349889,1,女,21,anonymized,Serial_Dependence_U,2023.2.3,Win32,59.880239520962,,,,,,1517.5965999999046,240.0,5.0,1517.5967000000476,240.0,,,,1520.9377999999522,1521.4329000000953,1520.4214000000952,1520.9377999999522,1518.588,1520.4212999999522,1521.433,1521.9367999999522,1521.9369000000952,1523.7045999999043,1200.0,1523.7047000000475,5.0,1523.7127999999525,5.0,17.0,167.0,15.0,1.0,0.8,0.7,Time
,,S08,349889,1,女,21,anonymized,Serial_Dependence_U,2023.2.3,Win32,59.880239520962,,,,,,1523.7130999999044,277.0,5.0,1523.7132000000477,277.0,,,,1527.8722999999522,1528.3657999999523,1527.3707999999522,1527.8722999999522,1524.7052999999523,1527.3707999999522,1528.3659000000953,1528.8655,1528.8655999999046,1531.9047000000476,2416.0,1531.9047999999525,5.0,1531.911900000095,5.0,18.0,168.0,4.0,1.0,1.6,0.3,Time
,,S08,349889,1,女,21,anonymized,Serial_Dependence_U,2023.2.3,Win32,59.880239520962,,,,,,1531.9120999999045,212.0,5.0,1531.9122999999522,212.0,,,,1535.5039000000952,1535.9985,1534.9874000000952,1535.5039000000952,1532.9207000000476,1534.9874000000952,1535.9985999999046,1536.4999000000953,1536.5,1539.0044000000953,1583.0,1539.0045999999045,5.0,1539.014,5.0,19.0,169.0,1.0,1.0,1.0,0.3,Time
,,S08,349889,1,女,21,anonymized,Serial_Dependence_U,2023.2.3,Win32,59.880239520962,,,,,,1539.0142999999523,100.0,5.0,1539.0144000000953,100.0,,,,1542.4005999999044,1542.8997999999522,1541.8869000000952,1542.4005,1540.0202999999522,1541.8869000000952,1542.8999000000952,1543.4022000000475,1543.4022000000475,1545.437,1216.0,1545.437,5.0,1545.4457000000475,5.0,20.0,170.0,10.0,1.0,0.8,0.3,Time
,,S08,349889,1,女,21,anonymized,Serial_Dependence_U,2023.2.3,Win32,59.880239520962,,,,,,1545.4460999999046,253.0,5.0,1545.4462000000476,253.0,,,,1549.6029000000954,1550.098,1549.0862999999522,1549.6029000000954,1546.4532999999522,1549.0862000000477,1550.0982000000477,1550.5977000000476,1550.5977999999525,1552.4032999999522,1633.0,1552.4032999999522,3.0,1552.4120999999045,5.0,21.0,171.0,29.0,1.0,1.6,0.7,Time
,,S08,349889,1,女,21,anonymized,Serial_Dependence_U,2023.2.3,Win32,59.880239520962,,,,,,1552.4125999999046,241.0,5.0,1552.4125999999046,241.0,,,,1556.5694000000954,1557.065900000095,1556.0530999999046,1556.569299999952,1553.4195,1556.053,1557.065900000095,1557.5672000000477,1557.5672000000477,1561.1360999999044,2716.0,1561.1362000000477,5.0,1561.1444000000952,5.0,22.0,172.0,19.0,1.0,1.6,0.7,Time
,,S08,349889,1,女,21,anonymized,Serial_Dependence_U,2023.2.3,Win32,59.880239520962,,,,,,1561.1445999999046,156.0,5.0,1561.1447000000476,156.0,,,,1564.698,1565.2009999999998,1564.1859000000952,1564.6977999999522,1562.1527999999523,1564.1859000000952,1565.2009999999998,1565.6970999999046,1565.6972000000476,1567.469900000095,1017.0,1567.4699999999998,3.0,1567.4782000000475,5.0,23.0,173.0,16.0,1.0,1.0,0.7,Time
,,S08,349889,1,女,21,anonymized,Serial_Dependence_U,2023.2.3,Win32,59.880239520962,,,,,,1567.4785999999046,152.0,5.0,1567.4785999999046,152.0,,,,1571.6352000000477,1572.13,1571.1177000000475,1571.6352000000477,1568.4854000000953,1571.1175999999043,1572.1300999999046,1572.6302999999525,1572.6305,1575.2357000000477,1633.0,1575.2357999999522,3.0,1575.2430999999046,5.0,24.0,174.0,9.0,1.0,1.6,0.7,Time
,,S08,349889,1,女,21,anonymized,Serial_Dependence_U,2023.2.3,Win32,59.880239520962,,,,,,1575.243299999952,159.0,5.0,1575.243400000095,159.0,,,,1579.2015,1579.6962000000476,1578.6850999999044,1579.2014000000952,1576.252,1578.6850999999044,1579.6962000000476,1580.1962999999523,1580.1965,1583.3687999999522,1684.0,1583.3687999999522,4.0,1583.3765999999046,5.0,25.0,175.0,28.0,1.0,1.4,0.7,Time
,,S08,349889,1,女,21,anonymized,Serial_Dependence_U,2023.2.3,Win32,59.880239520962,,,,,,1583.3769000000952,279.0,5.0,1583.3770999999044,279.0,,,,1586.9352000000476,1587.4302000000475,1586.4345999999043,1586.9352000000476,1584.4012999999522,1586.4345999999043,1587.4302000000475,1587.9295,1587.9295999999044,1589.8345999999046,1167.0,1589.8345999999046,4.0,1589.8420999999046,5.0,26.0,176.0,6.0,1.0,1.0,0.7,Time
,,S08,349889,1,女,21,anonymized,Serial_Dependence_U,2023.2.3,Win32,59.880239520962,,,,,,1589.8424000000953,312.0,5.0,1589.8424000000953,312.0,,,,1593.6344000000952,1594.129,1593.1180999999046,1593.6342999999522,1590.851,1593.118,1594.129,1594.6285999999045,1594.6287000000475,1596.9675999999045,1500.0,1596.9675999999045,4.0,1596.9755999999045,5.0,27.0,177.0,22.0,1.0,1.2,0.3,Time
,,S08,349889,1,女,21,anonymized,Serial_Dependence_U,2023.2.3,Win32,59.880239520962,,,,,,1596.976,260.0,5.0,1596.976,260.0,,,,1600.3325,1600.8284000000954,1599.8172000000477,1600.3324000000953,1597.9842000000476,1599.8170999999045,1600.8284999999998,1601.3287999999525,1601.3289000000952,1603.2012999999522,1217.0,1603.2014000000952,5.0,1603.2092000000475,5.0,28.0,178.0,25.0,1.0,0.8,0.7,Time
,,S08,349889,1,女,21,anonymized,Serial_Dependence_U,2023.2.3,Win32,59.880239520962,,,,,,1603.2095,230.0,5.0,1603.2095999999046,230.0,,,,1606.6000999999046,1607.094900000095,1606.0835,1606.6000999999046,1604.217,1606.0835,1607.094900000095,1607.5825,1607.5825,1609.6172000000477,1283.0,1609.6172000000477,5.0,1609.6249000000953,5.0,29.0,179.0,20.0,1.0,0.8,0.3,Time
,,S08,349889,1,女,21,anonymized,Serial_Dependence_U,2023.2.3,Win32,59.880239520962,,,,,,1609.6252999999522,210.0,6.0,1633.9189000000952,210.0,s,24.2645,,1638.0614999999998,1638.5600999999044,1637.5487999999525,1638.061400000095,1634.9154000000954,1637.5487000000476,1638.560299999952,1639.0599000000952,1639.06,1641.8322999999525,1833.0,1641.8322999999525,4.0,1641.8407999999522,6.0,0.0,180.0,29.0,1.0,1.6,0.7,Time
,,S08,349889,1,女,21,anonymized,Serial_Dependence_U,2023.2.3,Win32,59.880239520962,,,,,,1641.8412000000476,44.0,6.0,1641.8425999999045,44.0,,,,1645.4312999999522,1645.9275999999045,1644.915,1645.4312999999522,1642.8482000000477,1644.915,1645.9277000000477,1646.4265999999045,1646.4265999999045,1648.7655,1300.0,1648.7655999999045,5.0,1648.7737999999522,6.0,1.0,181.0,11.0,1.0,1.0,0.3,Time
,,S08,349889,1,女,21,anonymized,Serial_Dependence_U,2023.2.3,Win32,59.880239520962,,,,,,1648.774,132.0,6.0,1648.7742000000476,132.0,,,,1652.3310999999046,1652.8302000000476,1651.8142000000475,1652.3310999999046,1649.7812000000476,1651.8142000000475,1652.8302000000476,1653.325900000095,1653.3259999999998,1655.448799999952,1300.0,1655.4489000000954,5.0,1655.4565,6.0,2.0,182.0,16.0,1.0,1.0,0.7,Time
,,S08,349889,1,女,21,anonymized,Serial_Dependence_U,2023.2.3,Win32,59.880239520962,,,,,,1655.4567000000477,194.0,6.0,1655.4569000000952,194.0,,,,1658.8474000000954,1659.3422000000476,1658.3307999999522,1658.8472999999522,1656.4642000000476,1658.3307999999522,1659.3424000000953,1659.8422000000476,1659.8424000000953,1661.180799999952,1149.0,1661.180799999952,5.0,1661.1885,6.0,3.0,183.0,10.0,1.0,0.8,0.3,Time
,,S08,349889,1,女,21,anonymized,Serial_Dependence_U,2023.2.3,Win32,59.880239520962,,,,,,1661.1887000000477,277.0,6.0,1661.1889000000954,277.0,,,,1665.3312999999523,1665.8249999999998,1664.8309000000952,1665.3312000000476,1662.1974000000953,1664.8307999999522,1665.8250999999043,1666.3252999999522,1666.3254000000952,1668.5815,1617.0,1668.5815999999045,3.0,1668.589400000095,6.0,4.0,184.0,9.0,1.0,1.6,0.7,Time
,,S08,349889,1,女,21,anonymized,Serial_Dependence_U,2023.2.3,Win32,59.880239520962,,,,,,1668.5897999999522,199.0,6.0,1668.5897999999522,199.0,,,,1672.3804000000953,1672.8747000000476,1671.8635,1672.3802999999525,1669.597,1671.8634000000952,1672.8747999999523,1673.379,1673.379,1675.1805,1200.0,1675.1805,3.0,1675.1879000000952,6.0,5.0,185.0,22.0,1.0,1.2,0.3,Time
,,S08,349889,1,女,21,anonymized,Serial_Dependence_U,2023.2.3,Win32,59.880239520962,,,,,,1675.1882000000476,86.0,6.0,1675.1882999999525,86.0,,,,1678.9797000000476,1679.4747999999522,1678.4634999999998,1678.9797000000476,1676.1964000000953,1678.4634999999998,1679.475,1679.9754000000953,1679.9755999999045,1682.0969000000953,1233.0,1682.0969000000953,3.0,1682.1055,6.0,6.0,186.0,12.0,1.0,1.2,0.3,Time
,,S08,349889,1,女,21,anonymized,Serial_Dependence_U,2023.2.3,Win32,59.880239520962,,,,,,1682.1057999999523,120.0,6.0,1682.1059000000953,120.0,,,,1685.4627999999525,1685.9617000000476,1684.9477000000477,1685.4627999999525,1683.112799999952,1684.9475,1685.9617000000476,1686.4577000000477,1686.4577999999522,1687.9964000000953,883.0,1687.9965,4.0,1688.0049000000952,6.0,7.0,187.0,5.0,1.0,0.8,0.7,Time
,,S08,349889,1,女,21,anonymized,Serial_Dependence_U,2023.2.3,Win32,59.880239520962,,,,,,1688.0052999999525,33.0,6.0,1688.0055,33.0,,,,1692.1954999999998,1692.6905,1691.679,1692.1954999999998,1689.012400000095,1691.679,1692.6905,1693.1782999999523,1693.1782999999523,1695.3129000000952,1400.0,1695.313,2.0,1695.3207000000475,6.0,8.0,188.0,14.0,1.0,1.6,0.3,Time
,,S08,349889,1,女,21,anonymized,Serial_Dependence_U,2023.2.3,Win32,59.880239520962,,,,,,1695.3209000000952,246.0,6.0,1695.3210999999046,246.0,,,,1698.7130999999044,1699.2105999999046,1698.1954999999998,1698.713,1696.328,1698.195400000095,1699.2105999999046,1699.711,1699.711,1701.946,1150.0,1701.946,5.0,1701.9537999999525,6.0,9.0,189.0,0.0,1.0,0.8,0.3,Time
,,S08,349889,1,女,21,anonymized,Serial_Dependence_U,2023.2.3,Win32,59.880239520962,,,,,,1701.9542000000476,169.0,6.0,1701.954299999952,169.0,,,,1705.8952999999522,1706.3899000000952,1705.3785999999045,1705.8952000000477,1702.945299999952,1705.3785999999045,1706.3899000000952,1706.8897999999522,1706.8899000000952,1709.1954999999998,1450.0,1709.1955999999043,3.0,1709.2047999999522,6.0,10.0,190.0,8.0,1.0,1.4,0.7,Time
,,S08,349889,1,女,21,anonymized,Serial_Dependence_U,2023.2.3,Win32,59.880239520962,,,,,,1709.2050999999046,304.0,6.0,1709.2052000000476,304.0,,,,1712.794799999952,1713.2894000000954,1712.2779999999998,1712.794799999952,1710.2112999999522,1712.277900000095,1713.2895,1713.7897000000476,1713.7897999999525,1715.7455999999045,1233.0,1715.7455999999045,4.0,1715.7537000000475,6.0,11.0,191.0,21.0,1.0,1.0,0.3,Time
,,S08,349889,1,女,21,anonymized,Serial_Dependence_U,2023.2.3,Win32,59.880239520962,,,,,,1715.754,168.0,6.0,1715.7540999999046,168.0,,,,1719.3447000000476,1719.8424000000953,1718.8279000000953,1719.3447000000476,1716.7639000000952,1718.8277999999525,1719.8424000000953,1720.339,1720.339,1722.2454000000953,1116.0,1722.2454000000953,4.0,1722.2535999999045,6.0,12.0,192.0,1.0,1.0,1.0,0.3,Time
,,S08,349889,1,女,21,anonymized,Serial_Dependence_U,2023.2.3,Win32,59.880239520962,,,,,,1722.2539000000952,190.0,6.0,1722.254,190.0,,,,1726.2439000000952,1726.7422000000477,1725.7275,1726.2439000000952,1723.2597000000476,1725.7274000000953,1726.7422000000477,1727.2387000000476,1727.238900000095,1729.461,1367.0,1729.4610999999045,3.0,1729.4684000000952,6.0,13.0,193.0,13.0,1.0,1.4,0.3,Time
,,S08,349889,1,女,21,anonymized,Serial_Dependence_U,2023.2.3,Win32,59.880239520962,,,,,,1729.4687000000476,232.0,6.0,1729.4687000000476,232.0,,,,1732.8600999999046,1733.3549000000953,1732.3439000000951,1732.86,1730.4772000000476,1732.3437000000476,1733.3549999999998,1733.8549000000953,1733.8549999999998,1735.8939000000953,1301.0,1735.894,5.0,1735.9010999999043,6.0,14.0,194.0,20.0,1.0,0.8,0.3,Time
,,S08,349889,1,女,21,anonymized,Serial_Dependence_U,2023.2.3,Win32,59.880239520962,,,,,,1735.9015,255.0,6.0,1735.9015999999046,255.0,,,,1739.8602000000476,1740.357299999952,1739.3434000000952,1739.8600999999046,1736.91,1739.3434000000952,1740.357299999952,1740.8587000000475,1740.8587999999522,1743.5940999999043,1900.0,1743.5942000000475,5.0,1743.6017999999522,6.0,15.0,195.0,18.0,1.0,1.4,0.7,Time
,,S08,349889,1,女,21,anonymized,Serial_Dependence_U,2023.2.3,Win32,59.880239520962,,,,,,1743.6020999999046,35.0,6.0,1743.6020999999046,35.0,,,,1747.1594000000953,1747.6545,1746.6427999999523,1747.1594000000953,1744.6099000000952,1746.6427000000476,1747.6545999999046,1748.154,1748.154,1749.943,1650.0,1749.943,5.0,1749.9519000000953,6.0,16.0,196.0,26.0,1.0,1.0,0.7,Time
,,S08,349889,1,女,21,anonymized,Serial_Dependence_U,2023.2.3,Win32,59.880239520962,,,,,,1749.9522000000477,131.0,6.0,1749.9522999999522,131.0,,,,1754.1259000000953,1754.6205999999045,1753.6090999999046,1754.1257999999525,1750.976,1753.6090999999046,1754.6207000000477,1755.1232999999522,1755.1234000000952,1757.5762999999522,1900.0,1757.5762999999522,4.0,1757.5849999999998,6.0,17.0,197.0,19.0,1.0,1.6,0.7,Time
,,S08,349889,1,女,21,anonymized,Serial_Dependence_U,2023.2.3,Win32,59.880239520962,,,,,,1757.5852999999522,265.0,6.0,1757.5855,265.0,,,,1761.5424000000953,1762.0374000000952,1761.0257000000477,1761.5422999999523,1758.5922000000476,1761.0255999999044,1762.0375,1762.5372999999522,1762.5375,1765.3762000000477,1683.0,1765.3762999999522,4.0,1765.3845,6.0,18.0,198.0,28.0,1.0,1.4,0.7,Time
,,S08,349889,1,女,21,anonymized,Serial_Dependence_U,2023.2.3,Win32,59.880239520962,,,,,,1765.3847999999523,172.0,6.0,1765.385,172.0,,,,1769.1557999999525,1769.6532000000475,1768.641799999952,1769.1557999999525,1766.3752000000477,1768.6417000000476,1769.6535,1770.1564000000951,1770.1564000000951,1772.208799999952,1250.0,1772.2089000000954,3.0,1772.2165999999045,6.0,19.0,199.0,2.0,1.0,1.2,0.3,Time
,,S08,349889,1,女,21,anonymized,Serial_Dependence_U,2023.2.3,Win32,59.880239520962,,,,,,1772.2169000000952,20.0,6.0,1772.2170999999046,20.0,,,,1776.3914000000952,1776.8860999999044,1775.875,1776.3912999999525,1773.2085,1775.8749000000953,1776.8862000000477,1777.3862000000477,1777.3864000000954,1779.9917000000476,1823.0,1779.9917999999525,4.0,1780.0004000000952,6.0,20.0,200.0,4.0,1.0,1.6,0.3,Time
,,S08,349889,1,女,21,anonymized,Serial_Dependence_U,2023.2.3,Win32,59.880239520962,,,,,,1780.0007999999525,132.0,6.0,1780.0007999999525,132.0,,,,1783.742299999952,1784.2367999999522,1783.2410999999045,1783.7422000000477,1781.0077000000476,1783.241,1784.2367999999522,1784.7359000000952,1784.736,1786.4077999999522,1433.0,1786.4077999999522,4.0,1786.4154999999998,6.0,21.0,201.0,17.0,1.0,1.2,0.7,Time
,,S08,349889,1,女,21,anonymized,Serial_Dependence_U,2023.2.3,Win32,59.880239520962,,,,,,1786.4159000000952,104.0,6.0,1786.416,104.0,,,,1789.757900000095,1790.2520999999044,1789.2412000000477,1789.757799999952,1787.4074999999998,1789.2410999999045,1790.2520999999044,1790.752,1790.7520999999044,1792.6409000000954,917.0,1792.6409000000954,4.0,1792.6477999999522,6.0,22.0,202.0,15.0,1.0,0.8,0.7,Time
,,S08,349889,1,女,21,anonymized,Serial_Dependence_U,2023.2.3,Win32,59.880239520962,,,,,,1792.6480999999046,286.0,6.0,1792.6482000000476,286.0,,,,1796.3897000000477,1796.8850999999045,1795.8737000000476,1796.3895999999045,1793.6404000000953,1795.8735999999046,1796.8850999999045,1797.3852999999522,1797.3855999999046,1799.4572999999525,1316.0,1799.4575,4.0,1799.4660999999046,6.0,23.0,203.0,7.0,1.0,1.2,0.7,Time
,,S08,349889,1,女,21,anonymized,Serial_Dependence_U,2023.2.3,Win32,59.880239520962,,,,,,1799.4664000000953,50.0,6.0,1799.4665,50.0,,,,1803.023200000048,1803.518,1802.506799999952,1803.023200000048,1800.473299999952,1802.506700000048,1803.5180999999045,1804.018,1804.0182000000475,1806.0899000000952,1483.0,1806.09,5.0,1806.0979000000957,6.0,24.0,204.0,6.0,1.0,1.0,0.7,Time
,,S08,349889,1,女,21,anonymized,Serial_Dependence_U,2023.2.3,Win32,59.880239520962,,,,,,1806.098299999952,10.0,6.0,1806.0984000000956,10.0,,,,1809.4565,1809.952700000048,1808.9395999999044,1809.4564000000955,1807.1064000000952,1808.9395999999044,1809.9527999999525,1810.4512000000475,1810.4514000000952,1812.3567999999525,1100.0,1812.3569000000955,5.0,1812.365,6.0,25.0,205.0,25.0,1.0,0.8,0.7,Time
,,S08,349889,1,女,21,anonymized,Serial_Dependence_U,2023.2.3,Win32,59.880239520962,,,,,,1812.365299999952,274.0,6.0,1812.3654000000952,274.0,,,,1816.5560999999043,1817.0507000000475,1816.0394000000956,1816.556,1813.372799999952,1816.0394000000956,1817.050799999952,1817.5540999999048,1817.5540999999048,1820.0900999999049,1734.0,1820.090200000048,4.0,1820.0990999999049,6.0,26.0,206.0,24.0,1.0,1.6,0.3,Time
,,S08,349889,1,女,21,anonymized,Serial_Dependence_U,2023.2.3,Win32,59.880239520962,,,,,,1820.0995999999045,270.0,6.0,1820.099799999952,270.0,,,,1824.0889000000952,1824.583700000048,1823.5722999999523,1824.0889000000952,1821.1055999999048,1823.5722999999523,1824.583799999952,1825.0870999999045,1825.0870999999045,1827.922700000048,1867.0,1827.922700000048,5.0,1827.9325,6.0,27.0,207.0,23.0,1.0,1.4,0.3,Time
,,S08,349889,1,女,21,anonymized,Serial_Dependence_U,2023.2.3,Win32,59.880239520962,,,,,,1827.9327999999523,37.0,6.0,1827.933,37.0,,,,1831.6884000000955,1832.1885999999045,1831.1719000000955,1831.6884000000955,1828.9390999999048,1831.1717999999523,1832.1885999999045,1832.6874000000955,1832.6875,1834.6050999999045,1550.0,1834.6050999999045,4.0,1834.6135,6.0,28.0,208.0,27.0,1.0,1.2,0.7,Time
,,S08,349889,1,女,21,anonymized,Serial_Dependence_U,2023.2.3,Win32,59.880239520962,,,,,,1834.613799999952,27.0,6.0,1834.6139000000956,27.0,,,,1838.6069000000955,1839.0994000000956,1838.0915999999045,1838.6064000000952,1835.6215,1838.0895999999043,1839.0994000000956,1839.5999000000952,1839.6,1841.555299999952,767.0,1841.555299999952,1.0,1841.5632999999525,6.0,29.0,209.0,3.0,1.0,1.4,0.3,Time
,,S08,349889,1,女,21,anonymized,Serial_Dependence_U,2023.2.3,Win32,59.880239520962,,,,,,1841.563700000048,317.0,7.0,1844.8075,317.0,s,3.216000000000122,,1848.3709000000952,1848.8657999999523,1847.854299999952,1848.370799999952,1845.821,1847.8542000000475,1848.866,1849.369200000048,1849.369200000048,1851.2215,967.0,1851.2215,3.0,1851.228799999952,7.0,0.0,210.0,26.0,1.0,1.0,0.7,Time
,,S08,349889,1,女,21,anonymized,Serial_Dependence_U,2023.2.3,Win32,59.880239520962,,,,,,1851.229,8.0,7.0,1851.2299000000955,8.0,,,,1854.987200000048,1855.4820999999044,1854.471,1854.9870999999048,1852.2375,1854.471,1855.482200000048,1855.9820999999044,1855.982200000048,1858.3712999999525,1617.0,1858.3712999999525,5.0,1858.3795999999045,7.0,1.0,211.0,17.0,1.0,1.2,0.7,Time
,,S08,349889,1,女,21,anonymized,Serial_Dependence_U,2023.2.3,Win32,59.880239520962,,,,,,1858.379799999952,85.0,7.0,1858.38,85.0,,,,1862.570299999952,1863.0649000000956,1862.0534000000955,1862.570200000048,1859.3870999999049,1862.0532999999523,1863.0649000000956,1863.5665999999048,1863.5665999999048,1865.2542999999523,717.0,1865.2544000000955,1.0,1865.2630999999049,7.0,2.0,212.0,24.0,1.0,1.6,0.3,Time
,,S08,349889,1,女,21,anonymized,Serial_Dependence_U,2023.2.3,Win32,59.880239520962,,,,,,1865.2635,284.0,7.0,1865.2637000000475,284.0,,,,1869.0505999999043,1869.5520999999048,1868.5365999999049,1869.0505,1866.2705999999048,1868.5364000000952,1869.5520999999048,1870.0484000000952,1870.0485999999048,1871.7705,967.0,1871.7705,2.0,1871.778299999952,7.0,3.0,213.0,22.0,1.0,1.2,0.3,Time
,,S08,349889,1,女,21,anonymized,Serial_Dependence_U,2023.2.3,Win32,59.880239520962,,,,,,1871.7785999999048,295.0,7.0,1871.778700000048,295.0,,,,1875.369799999952,1875.864299999952,1874.852799999952,1875.369799999952,1872.7862000000475,1874.852700000048,1875.864299999952,1876.364299999952,1876.364299999952,1878.770700000048,1133.0,1878.770700000048,4.0,1878.78,7.0,4.0,214.0,11.0,1.0,1.0,0.3,Time
,,S08,349889,1,女,21,anonymized,Serial_Dependence_U,2023.2.3,Win32,59.880239520962,,,,,,1878.780299999952,255.0,7.0,1878.7805999999048,255.0,,,,1882.736,1883.230700000048,1882.2192000000475,1882.736,1879.7860999999043,1882.2190999999043,1883.230700000048,1883.7305999999048,1883.730700000048,1886.4195999999044,1650.0,1886.4195999999044,4.0,1886.4264000000956,7.0,5.0,215.0,8.0,1.0,1.4,0.7,Time
,,S08,349889,1,女,21,anonymized,Serial_Dependence_U,2023.2.3,Win32,59.880239520962,,,,,,1886.4267000000475,97.0,7.0,1886.426799999952,97.0,,,,1889.8189000000957,1890.3135,1889.3022999999523,1889.8187999999525,1887.4355999999043,1889.302200000048,1890.3135999999045,1890.8139000000956,1890.814,1892.4527999999525,800.0,1892.4527999999525,3.0,1892.46,7.0,6.0,216.0,20.0,1.0,0.8,0.3,Time
,,S08,349889,1,女,21,anonymized,Serial_Dependence_U,2023.2.3,Win32,59.880239520962,,,,,,1892.460299999952,178.0,7.0,1892.4605,178.0,,,,1896.0017000000475,1896.4964000000955,1895.4854000000955,1896.0017000000475,1893.4520999999045,1895.4854000000955,1896.4964000000955,1896.9964000000955,1896.9964000000955,1898.7194000000952,1017.0,1898.7195,3.0,1898.727,7.0,7.0,217.0,16.0,1.0,1.0,0.7,Time
,,S08,349889,1,女,21,anonymized,Serial_Dependence_U,2023.2.3,Win32,59.880239520962,,,,,,1898.7274000000957,168.0,7.0,1898.7275,168.0,,,,1902.5017000000475,1902.9965999999044,1901.9849000000952,1902.5015999999048,1899.7182000000475,1901.984799999952,1902.996700000048,1903.4962999999525,1903.4965,1906.135200000048,1750.0,1906.135200000048,5.0,1906.1427999999523,7.0,8.0,218.0,2.0,1.0,1.2,0.3,Time
,,S08,349889,1,女,21,anonymized,Serial_Dependence_U,2023.2.3,Win32,59.880239520962,,,,,,1906.1430999999045,73.0,7.0,1906.1432000000475,73.0,,,,1910.1175999999043,1910.6129000000956,1909.601200000048,1910.1175,1907.1679000000952,1909.601200000048,1910.6129000000956,1911.1125,1911.1125999999044,1913.8514000000955,1883.0,1913.8515,5.0,1913.860200000048,7.0,9.0,219.0,18.0,1.0,1.4,0.7,Time
,,S08,349889,1,女,21,anonymized,Serial_Dependence_U,2023.2.3,Win32,59.880239520962,,,,,,1913.8605,289.0,7.0,1913.860700000048,289.0,,,,1917.650700000048,1918.1455999999048,1917.134299999952,1917.6505999999044,1914.8674000000956,1917.1342000000477,1918.1457999999525,1918.6455999999048,1918.6457999999525,1921.1350999999045,1700.0,1921.135200000048,5.0,1921.1425,7.0,10.0,220.0,12.0,1.0,1.2,0.3,Time
,,S08,349889,1,女,21,anonymized,Serial_Dependence_U,2023.2.3,Win32,59.880239520962,,,,,,1921.1427999999523,136.0,7.0,1921.1429000000956,136.0,,,,1925.1180999999049,1925.611700000048,1924.617,1925.118,1922.1505,1924.617,1925.6119000000956,1926.1115999999045,1926.111700000048,1927.7175999999045,1067.0,1927.717700000048,2.0,1927.7265,7.0,11.0,221.0,13.0,1.0,1.4,0.3,Time
,,S08,349889,1,女,21,anonymized,Serial_Dependence_U,2023.2.3,Win32,59.880239520962,,,,,,1927.727,318.0,7.0,1927.7270999999048,318.0,,,,1931.116700000048,1931.6114000000955,1930.6,1931.116700000048,1928.7335,1930.5999000000952,1931.6115,1932.1129000000956,1932.113,1933.934,1050.0,1933.9340999999044,5.0,1933.942700000048,7.0,12.0,222.0,0.0,1.0,0.8,0.3,Time
,,S08,349889,1,女,21,anonymized,Serial_Dependence_U,2023.2.3,Win32,59.880239520962,,,,,,1933.9430999999045,338.0,7.0,1933.943200000048,338.0,,,,1938.0995,1938.594700000048,1937.583799999952,1938.0994000000956,1934.9502000000475,1937.583700000048,1938.5949000000955,1939.0945999999049,1939.0947999999523,1941.3499000000952,1817.0,1941.35,4.0,1941.357799999952,7.0,13.0,223.0,9.0,1.0,1.6,0.7,Time
,,S08,349889,1,女,21,anonymized,Serial_Dependence_U,2023.2.3,Win32,59.880239520962,,,,,,1941.3580999999044,260.0,7.0,1941.358200000048,260.0,,,,1944.949299999952,1945.4440999999044,1944.4325999999048,1944.9492000000475,1942.366,1944.4325,1945.444200000048,1945.944299999952,1945.9444000000956,1947.6160999999045,950.0,1947.6160999999045,2.0,1947.6232000000475,7.0,14.0,224.0,21.0,1.0,1.0,0.3,Time
,,S08,349889,1,女,21,anonymized,Serial_Dependence_U,2023.2.3,Win32,59.880239520962,,,,,,1947.6235999999049,169.0,7.0,1947.623700000048,169.0,,,,1951.3825,1951.877,1950.8655999999048,1951.3824000000952,1948.6325999999049,1950.8655999999048,1951.8770999999044,1952.3770999999044,1952.377299999952,1955.334299999952,1666.0,1955.334299999952,5.0,1955.345,7.0,15.0,225.0,27.0,1.0,1.2,0.7,Time
,,S08,349889,1,女,21,anonymized,Serial_Dependence_U,2023.2.3,Win32,59.880239520962,,,,,,1955.3454000000952,243.0,7.0,1955.3455,243.0,,,,1959.5154000000955,1960.0134000000955,1958.998700000048,1959.5152999999525,1956.3655,1958.9985999999049,1960.0135,1960.5104000000952,1960.5105,1962.5665999999048,1484.0,1962.566700000048,2.0,1962.5742000000475,7.0,16.0,226.0,19.0,1.0,1.6,0.7,Time
,,S08,349889,1,女,21,anonymized,Serial_Dependence_U,2023.2.3,Win32,59.880239520962,,,,,,1962.5745999999049,86.0,7.0,1962.574799999952,86.0,,,,1966.7654000000955,1967.2595999999048,1966.2482000000475,1966.7652999999525,1963.581799999952,1966.2480999999043,1967.259700000048,1967.7595999999048,1967.7599000000955,1970.2814000000956,1233.0,1970.2814000000956,2.0,1970.290299999952,7.0,17.0,227.0,4.0,1.0,1.6,0.3,Time
,,S08,349889,1,女,21,anonymized,Serial_Dependence_U,2023.2.3,Win32,59.880239520962,,,,,,1970.290799999952,86.0,7.0,1970.290799999952,86.0,,,,1974.2644000000955,1974.759299999952,1973.747799999952,1974.2644000000955,1971.281299999952,1973.747700000048,1974.7595,1975.259299999952,1975.2594000000952,1978.6645999999048,2033.0,1978.664700000048,5.0,1978.672700000048,7.0,18.0,228.0,3.0,1.0,1.4,0.3,Time
,,S08,349889,1,女,21,anonymized,Serial_Dependence_U,2023.2.3,Win32,59.880239520962,,,,,,1978.673,71.0,7.0,1978.6730999999045,71.0,,,,1982.2642999999523,1982.7592000000477,1981.747700000048,1982.264200000048,1979.676799999952,1981.7475999999044,1982.7594000000952,1983.2589000000955,1983.2590999999045,1985.7815999999043,1167.0,1985.7817000000475,4.0,1985.7897999999525,7.0,19.0,229.0,1.0,1.0,1.0,0.3,Time
,,S08,349889,1,女,21,anonymized,Serial_Dependence_U,2023.2.3,Win32,59.880239520962,,,,,,1985.790200000048,207.0,7.0,1985.790200000048,207.0,,,,1989.5467999999523,1990.0417000000475,1989.0305999999048,1989.546700000048,1986.797299999952,1989.0305,1990.041799999952,1990.542,1990.5420999999048,1992.714,1250.0,1992.714200000048,3.0,1992.7237000000475,7.0,20.0,230.0,7.0,1.0,1.2,0.7,Time
,,S08,349889,1,女,21,anonymized,Serial_Dependence_U,2023.2.3,Win32,59.880239520962,,,,,,1992.724,297.0,7.0,1992.724,297.0,,,,1996.08,1996.5752000000475,1995.5635,1996.08,1993.7302000000475,1995.5634000000955,1996.575299999952,1997.079,1997.079,1999.330799999952,1200.0,1999.3309000000952,5.0,1999.3404000000955,7.0,21.0,231.0,5.0,1.0,0.8,0.7,Time
,,S08,349889,1,女,21,anonymized,Serial_Dependence_U,2023.2.3,Win32,59.880239520962,,,,,,1999.340799999952,168.0,7.0,1999.3410999999048,168.0,,,,2003.280299999952,2003.774799999952,2002.779700000048,2003.280200000048,2000.3465999999048,2002.7795999999048,2003.7749000000952,2004.2759000000956,2004.2759000000956,2007.2469000000956,1600.0,2007.2470999999043,4.0,2007.2550999999048,7.0,22.0,232.0,28.0,1.0,1.4,0.7,Time
,,S08,349889,1,女,21,anonymized,Serial_Dependence_U,2023.2.3,Win32,59.880239520962,,,,,,2007.2555,228.0,7.0,2007.255799999952,228.0,,,,2010.8084000000952,2011.3105999999043,2010.2977999999523,2010.808299999952,2008.262299999952,2010.297700000048,2011.3105999999043,2011.8070999999045,2011.8072000000475,2013.5129000000952,1000.0,2013.513,3.0,2013.52,7.0,23.0,233.0,6.0,1.0,1.0,0.7,Time
,,S08,349889,1,女,21,anonymized,Serial_Dependence_U,2023.2.3,Win32,59.880239520962,,,,,,2013.520200000048,112.0,7.0,2013.5204000000956,112.0,,,,2016.8624000000952,2017.3574000000956,2016.3459000000955,2016.862200000048,2014.512299999952,2016.3459000000955,2017.3575999999048,2017.8569000000955,2017.8569000000955,2019.2795999999048,450.0,2019.2795999999048,1.0,2019.287,7.0,24.0,234.0,15.0,1.0,0.8,0.7,Time
,,S08,349889,1,女,21,anonymized,Serial_Dependence_U,2023.2.3,Win32,59.880239520962,,,,,,2019.287299999952,160.0,7.0,2019.2874000000952,160.0,,,,2023.429,2023.923299999952,2022.9285999999045,2023.429,2020.295700000048,2022.9285,2023.9234000000952,2024.423299999952,2024.4235999999048,2025.7795999999048,567.0,2025.779700000048,1.0,2025.7889000000955,7.0,25.0,235.0,29.0,1.0,1.6,0.7,Time
,,S08,349889,1,女,21,anonymized,Serial_Dependence_U,2023.2.3,Win32,59.880239520962,,,,,,2025.789200000048,25.0,7.0,2025.789299999952,25.0,,,,2029.1450999999045,2029.639700000048,2028.6285999999045,2029.1450999999045,2026.795299999952,2028.6285999999045,2029.6399000000952,2030.1395999999045,2030.139700000048,2031.5622999999523,900.0,2031.5624000000955,4.0,2031.570799999952,7.0,26.0,236.0,25.0,1.0,0.8,0.7,Time
,,S08,349889,1,女,21,anonymized,Serial_Dependence_U,2023.2.3,Win32,59.880239520962,,,,,,2031.5710999999048,140.0,7.0,2031.5712999999523,140.0,,,,2035.5612999999523,2036.056,2035.045,2035.561200000048,2032.578,2035.044799999952,2036.056,2036.5434000000955,2036.5434000000955,2039.0119000000952,1600.0,2039.012,4.0,2039.0209000000957,7.0,27.0,237.0,23.0,1.0,1.4,0.3,Time
,,S08,349889,1,女,21,anonymized,Serial_Dependence_U,2023.2.3,Win32,59.880239520962,,,,,,2039.0212999999524,57.0,7.0,2039.0214000000956,57.0,,,,2042.4112000000475,2042.9059000000957,2041.894900000095,2042.4112000000475,2040.0279000000955,2041.894799999952,2042.9059000000957,2043.406,2043.4060999999044,2044.595,717.0,2044.595200000048,2.0,2044.6032000000475,7.0,28.0,238.0,10.0,1.0,0.8,0.3,Time
,,S08,349889,1,女,21,anonymized,Serial_Dependence_U,2023.2.3,Win32,59.880239520962,,,,,,2044.6035,209.0,7.0,2044.6035,209.0,,,,2048.7937999999526,2049.2889000000955,2048.2779000000955,2048.793700000048,2045.6095,2048.2777999999525,2049.289,2049.789,2049.789200000048,2052.094799999953,1532.0,2052.0949000000955,3.0,2052.103599999905,7.0,29.0,239.0,14.0,1.0,1.6,0.3,Time
,,S08,349889,1,女,21,anonymized,Serial_Dependence_U,2023.2.3,Win32,59.880239520962,,,,,,2052.103900000096,105.0,8.0,2100.4602999999524,105.0,s,48.33489999985704,,2104.407900000096,2104.902400000095,2103.891099999905,2104.4077999999527,2101.457700000048,2103.891,2104.902400000095,2105.4049000000955,2105.405,2106.958700000048,1483.0,2106.958900000096,4.0,2106.9667999999524,8.0,0.0,240.0,28.0,1.0,1.4,0.7,Time
,,S08,349889,1,女,21,anonymized,Serial_Dependence_U,2023.2.3,Win32,59.880239520962,,,,,,2106.967200000048,206.0,8.0,2106.9682999999523,206.0,,,,2110.757700000048,2111.2555,2110.2410999999047,2110.757700000048,2107.974200000048,2110.241,2111.255599999905,2111.752200000048,2111.752400000096,2113.907700000048,1286.0,2113.9077999999527,4.0,2113.9152999999524,8.0,1.0,241.0,2.0,1.0,1.2,0.3,Time
,,S08,349889,1,女,21,anonymized,Serial_Dependence_U,2023.2.3,Win32,59.880239520962,,,,,,2113.9155999999048,169.0,8.0,2113.915700000048,169.0,,,,2117.273700000048,2117.771799999952,2116.756900000096,2117.273599999905,2114.923700000048,2116.7567999999524,2117.771799999952,2118.2684000000954,2118.2685,2120.9017999999523,1287.0,2120.901900000096,5.0,2120.9097999999526,8.0,2.0,242.0,15.0,1.0,0.8,0.7,Time
,,S08,349889,1,女,21,anonymized,Serial_Dependence_U,2023.2.3,Win32,59.880239520962,,,,,,2120.9100000000003,110.0,8.0,2120.910200000048,110.0,,,,2124.6520999999047,2125.151299999952,2124.135400000096,2124.652,2121.9020999999047,2124.135200000048,2125.151299999952,2125.651400000096,2125.651400000096,2127.985099999905,1598.0,2127.9852999999525,5.0,2127.9945,8.0,3.0,243.0,7.0,1.0,1.2,0.7,Time
,,S08,349889,1,女,21,anonymized,Serial_Dependence_U,2023.2.3,Win32,59.880239520962,,,,,,2127.9947999999526,102.0,8.0,2127.9947999999526,102.0,,,,2131.935,2132.4342999999526,2131.419400000096,2131.934900000096,2128.985099999905,2131.4190999999046,2132.4342999999526,2132.9342999999526,2132.9342999999526,2135.884599999905,1992.0,2135.884599999905,5.0,2135.893200000048,8.0,4.0,244.0,18.0,1.0,1.4,0.7,Time
,,S08,349889,1,女,21,anonymized,Serial_Dependence_U,2023.2.3,Win32,59.880239520962,,,,,,2135.893599999905,144.0,8.0,2135.893700000048,144.0,,,,2139.834900000096,2140.3340000000003,2139.318,2139.8347999999523,2136.884599999905,2139.3179000000955,2140.3340999999045,2140.8340000000003,2140.8340000000003,2143.334200000048,1719.0,2143.334200000048,4.0,2143.3422999999525,8.0,5.0,245.0,8.0,1.0,1.4,0.7,Time
,,S08,349889,1,女,21,anonymized,Serial_Dependence_U,2023.2.3,Win32,59.880239520962,,,,,,2143.342599999905,228.0,8.0,2143.342700000048,228.0,,,,2146.917400000096,2147.4172999999523,2146.401200000048,2146.9172999999523,2144.334299999952,2146.4010000000003,2147.4172999999523,2147.916900000096,2147.916900000096,2150.1839000000955,1350.0,2150.1839000000955,5.0,2150.193099999905,8.0,6.0,246.0,21.0,1.0,1.0,0.3,Time
,,S08,349889,1,女,21,anonymized,Serial_Dependence_U,2023.2.3,Win32,59.880239520962,,,,,,2150.1935000000003,86.0,8.0,2150.193599999905,86.0,,,,2153.9505999999046,2154.449900000096,2153.434200000048,2153.950400000096,2151.2005999999046,2153.434099999905,2154.449900000096,2154.9500000000003,2154.9500000000003,2157.5832999999525,1843.0,2157.5834000000955,5.0,2157.590900000096,8.0,7.0,247.0,17.0,1.0,1.2,0.7,Time
,,S08,349889,1,女,21,anonymized,Serial_Dependence_U,2023.2.3,Win32,59.880239520962,,,,,,2157.591200000048,265.0,8.0,2157.5912999999523,265.0,,,,2161.766700000048,2162.266200000048,2161.2502999999524,2161.7665,2158.583599999905,2161.2500999999047,2162.266200000048,2162.7670000000003,2162.767099999905,2164.85,1467.0,2164.850200000048,2.0,2164.858400000096,8.0,8.0,248.0,14.0,1.0,1.6,0.3,Time
,,S08,349889,1,女,21,anonymized,Serial_Dependence_U,2023.2.3,Win32,59.880239520962,,,,,,2164.858700000048,7.0,8.0,2164.858799999952,7.0,,,,2168.999700000048,2169.499099999905,2168.483,2168.9995999999046,2165.8509000000954,2168.4829000000955,2169.499099999905,2169.9999000000957,2170.0,2172.566099999905,1768.0,2172.566200000048,4.0,2172.572900000096,8.0,9.0,249.0,29.0,1.0,1.6,0.7,Time
,,S08,349889,1,女,21,anonymized,Serial_Dependence_U,2023.2.3,Win32,59.880239520962,,,,,,2172.573200000048,341.0,8.0,2172.573200000048,341.0,,,,2175.916200000048,2176.415400000096,2175.3990999999046,2175.916,2173.5660000000003,2175.3990999999046,2176.415400000096,2176.9152999999524,2176.9152999999524,2179.0824000000957,1185.0,2179.0824000000957,5.0,2179.0914000000957,8.0,10.0,250.0,25.0,1.0,0.8,0.7,Time
