Scale_setup.started,Scale_setup.stopped,participant,expid,session,sex,age,date,expName,psychopyVersion,OS,frameRate,Intro.started,Intro.stopped,key_resp_2.keys,key_resp_2.rt,key_resp_2.duration,block.started,direction,Block_id,block.stopped,trial_direction,Block_resp_2.keys,Block_resp_2.rt,Block_resp_2.duration,ITI.started,ITI.stopped,Mask_2.started,Mask_2.stopped,encoding.started,encoding.stopped,Cue.started,Cue.stopped,Response.started,Response.stopped,keyDuration,Feedback_Time.started,FeedbackID_T,Feedback_Time.stopped,trials.thisRepN,trials.thisTrialN,trials.thisN,trials.thisIndex,trials.ran,TimeDur,Coherence1,TrialType
0.0004999999999881,0.0007000002861445,S10,658375,1,女,21,anonymized,Serial_Dependence_U,2023.2.3,Win32,59.88023952091634,,,,,,,,,,,,,,,,,,,,,,,,,,,,,,,,,,,
,,S10,658375,1,女,21,anonymized,Serial_Dependence_U,2023.2.3,Win32,59.88023952091634,1.29200000000003,1.4584000000953663,space,0.1002999997138545,,,,,,,,,,,,,,,,,,,,,,,,,,,,,,,
,,S10,658375,1,女,21,anonymized,Serial_Dependence_U,2023.2.3,Win32,59.88023952091634,,,,,,1.4784000000954052,190.0,0.0,3.474400000095386,190.0,s,1.9562000002861168,,6.879700000286107,7.374000000000024,6.374500000000012,6.879500000000007,4.488900000095384,6.373900000095375,7.374500000000012,7.87459999990466,7.875099999904648,9.025099999904626,554.0,9.02620000028611,1.0,10.024300000190747,0.0,0.0,0.0,10.0,1.0,0.8,0.3,Time
,,S10,658375,1,女,21,anonymized,Serial_Dependence_U,2023.2.3,Win32,59.88023952091634,,,,,,10.025300000190724,209.0,0.0,10.028599999904657,209.0,,,,14.009700000286102,14.507700000286093,13.490300000190755,14.009400000095413,11.040800000190757,13.48990000009536,14.50780000019074,15.007300000190751,15.007300000190751,16.882099999904653,1400.0,16.882200000286105,3.0,17.873599999904627,0.0,1.0,1.0,28.0,1.0,1.4,0.7,Time
,,S10,658375,1,女,21,anonymized,Serial_Dependence_U,2023.2.3,Win32,59.88023952091634,,,,,,17.874099999904672,121.0,0.0,17.87430000019077,121.0,,,,22.064599999904654,22.55740000009536,21.54430000019073,22.06430000019077,18.89070000028613,21.54400000000004,22.557500000000005,23.057099999904665,23.05720000028612,25.071000000000023,1457.0,25.07140000009537,2.0,26.07409999990466,0.0,2.0,2.0,19.0,1.0,1.6,0.7,Time
,,S10,658375,1,女,21,anonymized,Serial_Dependence_U,2023.2.3,Win32,59.88023952091634,,,,,,26.0749000000954,182.0,0.0,26.075400000095385,182.0,,,,29.672599999904666,30.163800000190747,29.16090000009541,29.672200000286125,27.083400000095367,29.160700000286116,30.1639000000954,30.664400000095384,30.664500000000032,32.21909999990464,1107.0,32.21950000000004,4.0,33.2235,0.0,3.0,3.0,1.0,1.0,1.0,0.3,Time
,,S10,658375,1,女,21,anonymized,Serial_Dependence_U,2023.2.3,Win32,59.88023952091634,,,,,,33.22409999990464,54.0,0.0,33.22430000019074,54.0,,,,36.5774000000954,37.07390000009536,36.06670000028612,36.5772000002861,34.22580000019076,36.06650000000002,37.07390000009536,37.57420000028611,37.57420000028611,39.23480000019077,1182.0,39.23509999990466,5.0,40.22430000019074,0.0,4.0,4.0,25.0,1.0,0.8,0.7,Time
,,S10,658375,1,女,21,anonymized,Serial_Dependence_U,2023.2.3,Win32,59.88023952091634,,,,,,40.22540000009536,11.0,0.0,40.22570000028611,11.0,,,,43.7889000000954,44.29059999990466,43.28649999999999,43.7887000002861,41.2355,43.2862000002861,44.29070000028611,44.79050000000001,44.79050000000001,46.50980000019075,1226.0,46.51009999990464,4.0,47.50690000009536,0.0,5.0,5.0,16.0,1.0,1.0,0.7,Time
,,S10,658375,1,女,21,anonymized,Serial_Dependence_U,2023.2.3,Win32,59.88023952091634,,,,,,47.50780000019074,206.0,0.0,47.508700000286126,206.0,,,,51.46000000000004,51.9569000000954,50.95759999990463,51.45980000019074,48.525300000190725,50.95730000019074,51.957,52.4569000000954,52.4569000000954,54.06430000019077,1143.0,54.06470000028611,2.0,55.05670000028613,0.0,6.0,6.0,8.0,1.0,1.4,0.7,Time
,,S10,658375,1,女,21,anonymized,Serial_Dependence_U,2023.2.3,Win32,59.88023952091634,,,,,,55.057500000000005,254.0,0.0,55.05799999999999,254.0,,,,58.64240000009539,59.135900000095376,58.12640000009537,58.64209999990464,56.06159999990467,58.12609999990463,59.135900000095376,59.64009999990464,59.64020000028614,60.790900000095405,790.0,60.79140000009539,2.0,61.79030000019077,0.0,7.0,7.0,21.0,1.0,1.0,0.3,Time
,,S10,658375,1,女,21,anonymized,Serial_Dependence_U,2023.2.3,Win32,59.88023952091634,,,,,,61.791099999904645,54.0,0.0,61.79150000000004,54.0,,,,65.58280000019073,66.07290000009539,65.07980000019074,65.58259999990463,62.7984000000954,65.07930000019076,66.07300000000004,66.57320000028614,66.57330000019073,68.59459999990463,1111.0,68.59530000019078,2.0,69.58980000019073,0.0,8.0,8.0,2.0,1.0,1.2,0.3,Time
,,S10,658375,1,女,21,anonymized,Serial_Dependence_U,2023.2.3,Win32,59.88023952091634,,,,,,69.59050000000002,59.0,0.0,69.59090000009536,59.0,,,,73.36780000019075,73.85650000000004,72.85290000009536,73.36759999990466,70.61009999990466,72.85270000028612,73.85650000000004,74.35640000009539,74.35650000000004,75.9642000002861,1215.0,75.96459999990464,3.0,76.95640000009536,0.0,9.0,9.0,17.0,1.0,1.2,0.7,Time
,,S10,658375,1,女,21,anonymized,Serial_Dependence_U,2023.2.3,Win32,59.88023952091634,,,,,,76.9572000002861,289.0,0.0,76.95759999990463,289.0,,,,80.93170000028613,81.42980000019077,80.42630000019074,80.93159999990468,77.97340000009541,80.42609999990464,81.43,81.92680000019072,81.92690000009537,83.9015,1350.0,83.90180000019075,3.0,84.8899000000954,0.0,10.0,10.0,18.0,1.0,1.4,0.7,Time
,,S10,658375,1,女,21,anonymized,Serial_Dependence_U,2023.2.3,Win32,59.88023952091634,,,,,,84.89070000028613,140.0,0.0,84.89100000000002,140.0,,,,88.88340000009538,89.3727000002861,88.36940000009537,88.88309999990463,85.892,88.36909999990468,89.37280000019075,89.87880000019078,89.87880000019078,90.9854000000954,718.0,90.9857000002861,1.0,91.98950000000002,0.0,11.0,11.0,23.0,1.0,1.4,0.3,Time
,,S10,658375,1,女,21,anonymized,Serial_Dependence_U,2023.2.3,Win32,59.88023952091634,,,,,,91.99009999990466,175.0,0.0,91.9905,175.0,,,,96.17009999990466,96.673,95.66809999990464,96.16990000009535,92.9984000000954,95.66770000028612,96.673,97.17309999990464,97.17330000019076,98.83080000019078,1220.0,98.83100000000002,2.0,99.82259999990464,0.0,12.0,12.0,24.0,1.0,1.6,0.3,Time
,,S10,658375,1,女,21,anonymized,Serial_Dependence_U,2023.2.3,Win32,59.88023952091634,,,,,,99.82330000019071,53.0,0.0,99.82359999990469,53.0,,,,103.61759999990466,104.11430000019072,103.10220000028612,103.61730000019077,100.82600000000002,103.10180000019074,104.11430000019072,104.613,104.61309999990463,106.39259999990465,1192.0,106.39290000009538,3.0,107.373,0.0,13.0,13.0,22.0,1.0,1.2,0.3,Time
,,S10,658375,1,女,21,anonymized,Serial_Dependence_U,2023.2.3,Win32,59.88023952091634,,,,,,107.37420000028612,49.0,0.0,107.3749000000954,49.0,,,,111.58020000028614,112.0724000000954,111.06409999990468,111.58009999990465,108.39750000000004,111.06400000000002,112.0725,112.57230000019076,112.57230000019076,114.78470000028614,1715.0,114.78500000000004,4.0,115.78900000000004,0.0,14.0,14.0,14.0,1.0,1.6,0.3,Time
,,S10,658375,1,女,21,anonymized,Serial_Dependence_U,2023.2.3,Win32,59.88023952091634,,,,,,115.78970000028612,299.0,0.0,115.79009999990468,299.0,,,,119.79870000028616,120.28859999990463,119.28520000028612,119.79859999990464,116.79270000028612,119.28470000028614,120.28859999990463,120.7887000002861,120.78880000019076,122.43259999990464,1203.0,122.433,2.0,123.4225,0.0,15.0,15.0,3.0,1.0,1.4,0.3,Time
,,S10,658375,1,女,21,anonymized,Serial_Dependence_U,2023.2.3,Win32,59.88023952091634,,,,,,123.4234000000954,19.0,0.0,123.42380000019074,19.0,,,,126.79659999990464,127.28909999990464,126.27790000009536,126.7964000000954,124.42509999990466,126.27759999990462,127.28909999990464,127.78900000000004,127.78920000028614,129.71740000009538,1563.0,129.71780000019078,5.0,130.72180000019074,0.0,16.0,16.0,15.0,1.0,0.8,0.7,Time
,,S10,658375,1,女,21,anonymized,Serial_Dependence_U,2023.2.3,Win32,59.88023952091634,,,,,,130.72259999990467,247.0,0.0,130.723,247.0,,,,134.90040000009537,135.38880000019077,134.38930000019076,134.90030000019073,131.71500000000003,134.38909999990466,135.38890000009536,135.87909999990467,135.87930000019077,137.88030000019074,1501.0,137.88050000000004,2.0,138.87209999990466,0.0,17.0,17.0,4.0,1.0,1.6,0.3,Time
,,S10,658375,1,女,21,anonymized,Serial_Dependence_U,2023.2.3,Win32,59.88023952091634,,,,,,138.8729000000954,319.0,0.0,138.87330000019074,319.0,,,,143.02909999990464,143.5217000002861,142.5147000002861,143.029,139.8752000002861,142.5142000002861,143.5219000000954,144.01120000028612,144.01120000028612,145.97530000019077,1626.0,145.9757000002861,3.0,146.9712000002861,0.0,18.0,18.0,9.0,1.0,1.6,0.7,Time
,,S10,658375,1,女,21,anonymized,Serial_Dependence_U,2023.2.3,Win32,59.88023952091634,,,,,,146.9717000002861,294.0,0.0,146.9719000000954,294.0,,,,150.96309999990467,151.45500000000004,150.45850000000002,150.96280000019073,147.9929000000954,150.45809999990468,151.45500000000004,151.94590000009538,151.94590000009538,154.67309999990465,1001.0,154.6735,2.0,155.67150000000004,0.0,19.0,19.0,13.0,1.0,1.4,0.3,Time
,,S10,658375,1,女,21,anonymized,Serial_Dependence_U,2023.2.3,Win32,59.88023952091634,,,,,,155.67230000019077,254.0,0.0,155.6727000002861,254.0,,,,159.47309999990466,159.97159999990464,158.95530000019073,159.47290000009536,156.6852000002861,158.95509999990463,159.9717000002861,160.4714000000954,160.4715,163.4232000002861,1457.0,163.42359999990464,4.0,164.42150000000004,0.0,20.0,20.0,12.0,1.0,1.2,0.3,Time
,,S10,658375,1,女,21,anonymized,Serial_Dependence_U,2023.2.3,Win32,59.88023952091634,,,,,,164.42230000019077,23.0,0.0,164.4227000002861,23.0,,,,168.17630000019074,168.6714000000954,167.6739000000954,168.17609999990464,165.43200000000002,167.67359999990464,168.6714000000954,169.17159999990463,169.17159999990463,171.2979000000954,1656.0,171.2982000002861,5.0,172.288,0.0,21.0,21.0,7.0,1.0,1.2,0.7,Time
,,S10,658375,1,女,21,anonymized,Serial_Dependence_U,2023.2.3,Win32,59.88023952091634,,,,,,172.2887000002861,24.0,0.0,172.28909999990464,24.0,,,,175.884,176.38770000028617,175.36459999990467,175.88390000009537,173.29259999990467,175.36440000009537,176.38770000028617,176.887,176.88709999990465,178.3292000002861,1014.0,178.32959999990464,3.0,179.32109999990467,0.0,22.0,22.0,11.0,1.0,1.0,0.3,Time
,,S10,658375,1,女,21,anonymized,Serial_Dependence_U,2023.2.3,Win32,59.88023952091634,,,,,,179.3217000002861,292.0,0.0,179.32209999990465,292.0,,,,182.9039000000954,183.4038000001907,182.38890000009536,182.9035999999046,180.33590000009536,182.3885,183.4038000001907,183.9045,183.9045999999047,185.70000000000005,1386.0,185.70040000009533,5.0,186.70450000000005,0.0,23.0,23.0,26.0,1.0,1.0,0.7,Time
,,S10,658375,1,女,21,anonymized,Serial_Dependence_U,2023.2.3,Win32,59.88023952091634,,,,,,186.7052000002861,17.0,0.0,186.70559999990465,17.0,,,,190.07470000028616,190.57809999990468,189.5575999999046,190.07450000000009,187.7078000001908,189.5573000001907,190.57809999990468,191.07100000000003,191.07100000000003,192.48930000019072,1077.0,192.4897000002861,5.0,193.48770000028617,0.0,24.0,24.0,5.0,1.0,0.8,0.7,Time
,,S10,658375,1,女,21,anonymized,Serial_Dependence_U,2023.2.3,Win32,59.88023952091634,,,,,,193.48850000000004,318.0,0.0,193.48890000009533,318.0,,,,197.25359999990465,197.75390000009543,196.7410999999047,197.25340000009544,194.49240000009536,196.7407000002861,197.75390000009543,198.25370000028613,198.25370000028613,200.14750000000004,1499.0,200.148,4.0,201.13709999990465,0.0,25.0,25.0,27.0,1.0,1.2,0.7,Time
,,S10,658375,1,女,21,anonymized,Serial_Dependence_U,2023.2.3,Win32,59.88023952091634,,,,,,201.13780000019077,315.0,0.0,201.13809999990465,315.0,,,,204.70580000019072,205.2040000000001,204.1920999999046,204.70559999990465,202.14990000009536,204.1917000002861,205.20409999990463,205.7037000002861,205.7037000002861,206.79659999990463,702.0,206.79680000019076,2.0,207.78740000009543,0.0,26.0,26.0,6.0,1.0,1.0,0.7,Time
,,S10,658375,1,女,21,anonymized,Serial_Dependence_U,2023.2.3,Win32,59.88023952091634,,,,,,207.7882000002861,228.0,0.0,207.7885999999047,228.0,,,,211.18909999990467,211.6870999999046,210.67159999990463,211.18890000009537,208.8023000001907,210.67150000000004,211.6872000002861,212.1874000000954,212.1875,213.7209000000954,849.0,213.7214000000954,4.0,214.7205,0.0,27.0,27.0,0.0,1.0,0.8,0.3,Time
,,S10,658375,1,女,21,anonymized,Serial_Dependence_U,2023.2.3,Win32,59.88023952091634,,,,,,214.7212000002861,118.0,0.0,214.7215999999047,118.0,,,,218.88709999990465,219.3937000002861,218.3748000001907,218.88700000000009,215.7252000002861,218.3745,219.3938000001907,219.8868000001908,219.88690000009532,222.4060000000001,1622.0,222.40630000019075,3.0,223.4037000002861,0.0,28.0,28.0,29.0,1.0,1.6,0.7,Time
,,S10,658375,1,女,21,anonymized,Serial_Dependence_U,2023.2.3,Win32,59.88023952091634,,,,,,223.4044000000954,256.0,0.0,223.40470000028608,256.0,,,,226.7985,227.2939000000954,226.29420000028608,226.7983000001908,224.42470000028607,226.2937000002861,227.294,227.7938000001908,227.7939000000954,229.33859999990463,982.0,229.33890000009532,4.0,230.3365,0.0,29.0,29.0,20.0,1.0,0.8,0.3,Time
,,S10,658375,1,女,21,anonymized,Serial_Dependence_U,2023.2.3,Win32,59.88023952091634,,,,,,230.3370999999047,69.0,1.0,232.0535,69.0,s,1.6885999999046817,,236.015,236.50330000019076,235.49850000000004,236.0140999999046,233.05940000009537,235.49830000019077,236.50350000000003,237.00250000000003,237.00250000000003,238.83390000009533,1218.0,238.83430000019075,2.0,238.86209999990467,1.0,0.0,30.0,8.0,1.0,1.4,0.7,Time
,,S10,658375,1,女,21,anonymized,Serial_Dependence_U,2023.2.3,Win32,59.88023952091634,,,,,,238.8628000001908,133.0,1.0,238.8663000001908,133.0,,,,242.22880000019077,242.7197000002861,241.7268000001908,242.22859999990465,239.8815999999047,241.7265,242.7197000002861,243.21930000019077,243.21930000019077,244.2798000001908,789.0,244.28020000028607,3.0,244.3073000001907,1.0,1.0,31.0,15.0,1.0,0.8,0.7,Time
,,S10,658375,1,女,21,anonymized,Serial_Dependence_U,2023.2.3,Win32,59.88023952091634,,,,,,244.3080999999047,11.0,1.0,244.3083000001908,11.0,,,,248.487,248.9857000002861,247.9812000002861,248.48670000028608,245.31440000009536,247.9809000000954,248.9857000002861,249.4868000001908,249.4868000001908,250.9203000001908,1222.0,250.92070000028616,2.0,250.94840000009535,1.0,2.0,32.0,14.0,1.0,1.6,0.3,Time
,,S10,658375,1,女,21,anonymized,Serial_Dependence_U,2023.2.3,Win32,59.88023952091634,,,,,,250.94920000028617,261.0,1.0,250.94940000009532,261.0,,,,254.73450000000005,255.2357000002861,254.22870000028612,254.73430000019076,251.9617000002861,254.22840000009532,255.2358000001908,255.7364000000954,255.7364000000954,257.745,1184.0,257.7454000000954,3.0,257.7733000001907,1.0,3.0,33.0,22.0,1.0,1.2,0.3,Time
,,S10,658375,1,女,21,anonymized,Serial_Dependence_U,2023.2.3,Win32,59.88023952091634,,,,,,257.774,215.0,1.0,257.7744000000954,215.0,,,,261.3339000000953,261.8362000002861,260.8274000000954,261.33359999990466,258.78190000009533,260.8273000001908,261.8363000001907,262.3360999999046,262.3362000002861,264.11270000028617,1368.0,264.1129000000953,5.0,264.12850000000003,1.0,4.0,34.0,6.0,1.0,1.0,0.7,Time
,,S10,658375,1,女,21,anonymized,Serial_Dependence_U,2023.2.3,Win32,59.88023952091634,,,,,,264.1289000000954,227.0,1.0,264.1290999999046,227.0,,,,268.3167000002861,268.81970000028616,267.81009999990465,268.3165,265.1303000001908,267.8098000001908,268.81970000028616,269.31940000009536,269.31950000000006,270.63230000019075,851.0,270.63259999990464,1.0,270.6575,1.0,5.0,35.0,4.0,1.0,1.6,0.3,Time
,,S10,658375,1,女,21,anonymized,Serial_Dependence_U,2023.2.3,Win32,59.88023952091634,,,,,,270.6582000002861,230.0,1.0,270.6584000000954,230.0,,,,274.22880000019074,274.7192000002861,273.71430000019075,274.22850000000005,271.6685999999047,273.71400000000006,274.7192000002861,275.21930000019074,275.21930000019074,277.573,1219.0,277.5734000000954,4.0,277.59790000009536,1.0,6.0,36.0,16.0,1.0,1.0,0.7,Time
,,S10,658375,1,女,21,anonymized,Serial_Dependence_U,2023.2.3,Win32,59.88023952091634,,,,,,277.5984000000953,112.0,1.0,277.59880000019075,112.0,,,,281.18940000009536,281.68550000000005,280.6785999999047,281.18920000028606,278.60720000028607,280.6782000002861,281.68559999990464,282.18520000028616,282.18530000019075,283.567,963.0,283.5673000001907,3.0,283.59470000028614,1.0,7.0,37.0,11.0,1.0,1.0,0.3,Time
,,S10,658375,1,女,21,anonymized,Serial_Dependence_U,2023.2.3,Win32,59.88023952091634,,,,,,283.5955,211.0,1.0,283.5958000001907,211.0,,,,287.75840000009543,288.25190000009536,287.2408000001908,287.75820000028614,284.5908000001907,287.2407000002861,288.25200000000007,288.7524000000953,288.75250000000005,289.9560999999046,784.0,289.9565,1.0,289.98390000009533,1.0,8.0,38.0,9.0,1.0,1.6,0.7,Time
,,S10,658375,1,女,21,anonymized,Serial_Dependence_U,2023.2.3,Win32,59.88023952091634,,,,,,289.9847000002861,140.0,1.0,289.9852000002861,140.0,,,,293.5342000002861,294.0349000000954,293.0249000000954,293.5339000000954,290.9869000000954,293.0245999999047,294.035,294.53550000000007,294.53559999990466,296.1988000001908,1246.0,296.19920000028617,4.0,296.22790000009536,1.0,9.0,39.0,26.0,1.0,1.0,0.7,Time
,,S10,658375,1,女,21,anonymized,Serial_Dependence_U,2023.2.3,Win32,59.88023952091634,,,,,,296.22859999990465,314.0,1.0,296.22900000000004,314.0,,,,300.20990000009533,300.7018000001907,299.69920000028617,300.20970000028615,297.2210999999046,299.6988000001908,300.7019000000954,301.20909999990465,301.20920000028616,302.6487000002861,1080.0,302.6490999999046,2.0,302.6773000001907,1.0,10.0,40.0,13.0,1.0,1.4,0.3,Time
,,S10,658375,1,女,21,anonymized,Serial_Dependence_U,2023.2.3,Win32,59.88023952091634,,,,,,302.6780999999047,213.0,1.0,302.6784000000954,213.0,,,,306.8309000000954,307.31870000028607,306.3235,306.8308000001907,303.68559999990464,306.3232000002861,307.31870000028607,307.81870000028607,307.8188000001908,308.1958000001908,1.0,308.1969000000954,1.0,308.23300000000006,1.0,11.0,41.0,19.0,1.0,1.6,0.7,Time
,,S10,658375,1,女,21,anonymized,Serial_Dependence_U,2023.2.3,Win32,59.88023952091634,,,,,,308.2348000001907,306.0,1.0,308.2358000001908,306.0,,,,312.01209999990465,312.50190000009536,311.49309999990464,312.01200000000006,309.2443000001907,311.49290000009535,312.50190000009536,313.00190000009536,313.00190000009536,314.3425999999047,944.0,314.343,2.0,314.3712000002861,1.0,12.0,42.0,7.0,1.0,1.2,0.7,Time
,,S10,658375,1,女,21,anonymized,Serial_Dependence_U,2023.2.3,Win32,59.88023952091634,,,,,,314.37190000009537,44.0,1.0,314.37220000028617,44.0,,,,318.3560999999047,318.8515999999047,317.851,318.3559000000954,315.37750000000005,317.8505,318.8517000002861,319.35900000000004,319.35909999990463,320.7713000001908,1077.0,320.77190000009534,2.0,320.80130000019074,1.0,13.0,43.0,3.0,1.0,1.4,0.3,Time
,,S10,658375,1,女,21,anonymized,Serial_Dependence_U,2023.2.3,Win32,59.88023952091634,,,,,,320.8020999999046,323.0,1.0,320.8025,323.0,,,,324.2077000002861,324.7015,323.6875999999047,324.2075,321.8177000002861,323.6873000001907,324.7015999999046,325.2020999999047,325.2022000002861,326.38720000028616,774.0,326.38759999990464,3.0,326.4149000000954,1.0,14.0,44.0,0.0,1.0,0.8,0.3,Time
,,S10,658375,1,女,21,anonymized,Serial_Dependence_U,2023.2.3,Win32,59.88023952091634,,,,,,326.41559999990466,160.0,1.0,326.41590000009535,160.0,,,,330.0094000000954,330.5087000002861,329.50200000000007,330.0093000001907,327.43040000009535,329.50170000028606,330.5087000002861,331.009,331.009,331.9678000001908,595.0,331.96840000009536,1.0,331.9959000000954,1.0,15.0,45.0,21.0,1.0,1.0,0.3,Time
,,S10,658375,1,女,21,anonymized,Serial_Dependence_U,2023.2.3,Win32,59.88023952091634,,,,,,331.9965999999047,98.0,1.0,331.99700000000007,98.0,,,,335.73390000009533,336.23440000009543,335.22970000028613,335.73359999990464,332.99309999990464,335.22940000009544,336.23440000009543,336.735,336.7350999999046,338.14700000000005,1007.0,338.14740000009533,2.0,338.17500000000007,1.0,16.0,46.0,27.0,1.0,1.2,0.7,Time
,,S10,658375,1,女,21,anonymized,Serial_Dependence_U,2023.2.3,Win32,59.88023952091634,,,,,,338.17590000009534,252.0,1.0,338.17620000028614,252.0,,,,341.5327000002861,342.034,341.023,341.5325,339.1768000001907,341.02270000028614,342.0340999999047,342.5343000001908,342.5344000000954,343.9014000000953,1032.0,343.90180000019075,4.0,343.9264000000953,1.0,17.0,47.0,25.0,1.0,0.8,0.7,Time
,,S10,658375,1,女,21,anonymized,Serial_Dependence_U,2023.2.3,Win32,59.88023952091634,,,,,,343.927,282.0,1.0,343.9273000001907,282.0,,,,348.1,348.6005999999046,347.5915999999047,348.0998000001907,344.9363000001907,347.5910999999046,348.6005999999046,349.101,349.1010999999047,350.95920000028616,1442.0,350.95950000000005,2.0,350.96970000028614,1.0,18.0,48.0,29.0,1.0,1.6,0.7,Time
,,S10,658375,1,女,21,anonymized,Serial_Dependence_U,2023.2.3,Win32,59.88023952091634,,,,,,350.97,30.0,1.0,350.9700999999046,30.0,,,,354.72470000028613,355.22440000009533,354.2127000002861,354.72400000000005,351.9710999999046,354.2125999999047,355.22450000000003,355.72440000009533,355.7245999999046,378.4379000000954,1043.0,378.4382000002861,2.0,378.46340000009536,1.0,19.0,49.0,17.0,1.0,1.2,0.7,Time
,,S10,658375,1,女,21,anonymized,Serial_Dependence_U,2023.2.3,Win32,59.88023952091634,,,,,,378.4640999999047,124.0,1.0,378.4643000001908,124.0,,,,382.44059999990463,382.934,381.9285999999047,382.44040000009534,379.4844000000954,381.9284000000954,382.934,383.4245999999047,383.42470000028607,385.2013000001907,1223.0,385.2019000000954,2.0,385.2307000002861,1.0,20.0,50.0,28.0,1.0,1.4,0.7,Time
,,S10,658375,1,女,21,anonymized,Serial_Dependence_U,2023.2.3,Win32,59.88023952091634,,,,,,385.2314000000954,328.0,1.0,385.2318000001908,328.0,,,,388.8165999999046,389.3173000001907,388.3150999999047,388.8165,386.24690000009537,388.3148000001908,389.3174000000954,389.8172000002861,389.8173000001907,391.3762000002861,634.0,391.3765,1.0,391.4008000001908,1.0,21.0,51.0,1.0,1.0,1.0,0.3,Time
,,S10,658375,1,女,21,anonymized,Serial_Dependence_U,2023.2.3,Win32,59.88023952091634,,,,,,391.40150000000006,69.0,1.0,391.4018000001908,69.0,,,,395.3560999999047,395.8500999999046,394.8508000001907,395.3558000001907,392.41550000000007,394.8505,395.8502000002861,396.3500999999046,396.3500999999046,398.22409999990464,1406.0,398.2244000000953,3.0,398.25200000000007,1.0,22.0,52.0,18.0,1.0,1.4,0.7,Time
,,S10,658375,1,女,21,anonymized,Serial_Dependence_U,2023.2.3,Win32,59.88023952091634,,,,,,398.25270000028615,218.0,1.0,398.25309999990463,218.0,,,,402.02570000028607,402.5168000001908,401.5145999999047,402.0255,399.251,401.5143000001907,402.51690000009535,403.0165999999047,403.0165999999047,404.0838000001908,749.0,404.08440000009534,1.0,404.11,1.0,23.0,53.0,2.0,1.0,1.2,0.3,Time
,,S10,658375,1,女,21,anonymized,Serial_Dependence_U,2023.2.3,Win32,59.88023952091634,,,,,,404.1107000002861,126.0,1.0,404.111,126.0,,,,407.89140000009536,408.38309999990463,407.3760999999047,407.8913000001908,405.1115999999047,407.3759000000954,408.38309999990463,408.88330000019073,408.8834000000954,410.70030000019074,1166.0,410.7005999999046,3.0,410.71890000009535,1.0,24.0,54.0,12.0,1.0,1.2,0.3,Time
,,S10,658375,1,女,21,anonymized,Serial_Dependence_U,2023.2.3,Win32,59.88023952091634,,,,,,410.7194000000953,19.0,1.0,410.7197000002861,19.0,,,,414.0858000001907,414.5830999999047,413.5772000002861,414.0855999999046,411.7360999999047,413.5768000001907,414.5830999999047,415.08340000009537,415.08340000009537,416.8370999999047,1170.0,416.8375999999047,5.0,416.8665999999047,1.0,25.0,55.0,5.0,1.0,0.8,0.7,Time
,,S10,658375,1,女,21,anonymized,Serial_Dependence_U,2023.2.3,Win32,59.88023952091634,,,,,,416.8673000001908,267.0,1.0,416.86770000028616,267.0,,,,420.8610999999047,421.35,420.3565999999047,420.861,417.8712000002861,420.3563000001908,421.35,421.8564000000954,421.8565,424.8610999999047,1349.0,424.8615,3.0,424.8884000000954,1.0,26.0,56.0,23.0,1.0,1.4,0.3,Time
,,S10,658375,1,女,21,anonymized,Serial_Dependence_U,2023.2.3,Win32,59.88023952091634,,,,,,424.889,138.0,1.0,424.8893000001907,138.0,,,,428.3025999999046,428.79970000028607,427.7835,428.3024000000954,425.90090000009536,427.7833000001907,428.7998000001908,429.2995999999047,429.29970000028607,430.81040000009534,1041.0,430.81080000019074,5.0,430.8383000001908,1.0,27.0,57.0,20.0,1.0,0.8,0.3,Time
,,S10,658375,1,女,21,anonymized,Serial_Dependence_U,2023.2.3,Win32,59.88023952091634,,,,,,430.8390999999047,135.0,1.0,430.8395,135.0,,,,435.02670000028616,435.5228000001907,434.5195999999047,435.02650000000006,431.8373000001908,434.5193000001907,435.5228000001907,436.0235,436.0235999999046,437.5385,743.0,437.5388000001908,1.0,437.5659000000954,1.0,28.0,58.0,24.0,1.0,1.6,0.3,Time
,,S10,658375,1,女,21,anonymized,Serial_Dependence_U,2023.2.3,Win32,59.88023952091634,,,,,,437.5667000002861,214.0,1.0,437.5669000000954,214.0,,,,440.9770999999047,441.4658000001907,440.45870000028617,440.9762000002861,438.57980000019074,440.4585000000001,441.4658000001907,441.9662000002861,441.9663000001907,442.9005999999047,818.0,442.9010999999047,3.0,442.92940000009537,1.0,29.0,59.0,10.0,1.0,0.8,0.3,Time
,,S10,658375,1,女,21,anonymized,Serial_Dependence_U,2023.2.3,Win32,59.88023952091634,,,,,,442.9300999999047,347.0,2.0,632.9248000001908,347.0,s,189.9365,,636.3135,636.8125,635.8010999999046,636.3133000001908,633.9348000001908,635.8009000000953,636.8125999999047,637.3125999999047,637.3127000002861,638.0542000002861,357.0,638.0547000002862,1.0,638.0809000000954,2.0,0.0,60.0,10.0,1.0,0.8,0.3,Time
,,S10,658375,1,女,21,anonymized,Serial_Dependence_U,2023.2.3,Win32,59.88023952091634,,,,,,638.0815,49.0,2.0,638.0858000001907,49.0,,,,641.4435999999047,641.9457000002861,640.9239000000954,641.4435,639.0799000000953,640.9235999999047,641.9458000001907,642.4450999999046,642.4450999999046,644.1790999999047,1124.0,644.1797000002862,5.0,644.2103000001907,2.0,1.0,61.0,15.0,1.0,0.8,0.7,Time
,,S10,658375,1,女,21,anonymized,Serial_Dependence_U,2023.2.3,Win32,59.88023952091634,,,,,,644.211,268.0,2.0,644.2113000001907,268.0,,,,647.7993000001908,648.2949000000954,647.2925,647.7990999999047,645.2232000002862,647.2922000002861,648.2949000000954,648.7953000001908,648.7954000000954,651.2205999999046,1092.0,651.221,4.0,651.2470999999047,2.0,2.0,62.0,11.0,1.0,1.0,0.3,Time
,,S10,658375,1,女,21,anonymized,Serial_Dependence_U,2023.2.3,Win32,59.88023952091634,,,,,,651.2478000001908,356.0,2.0,651.248,356.0,,,,654.6435999999046,655.1454000000954,654.1229000000953,654.6435,652.2562000002861,654.1225999999047,655.1454000000954,655.6454000000954,655.6455,691.466,580.0,691.4665,2.0,691.4919000000954,2.0,3.0,63.0,20.0,1.0,0.8,0.3,Time
,,S10,658375,1,女,21,anonymized,Serial_Dependence_U,2023.2.3,Win32,59.88023952091634,,,,,,691.4925000000001,75.0,2.0,691.4928000001908,75.0,,,,695.6729000000953,696.1605999999047,695.1565,695.6725999999046,692.504,695.156,696.1605999999047,696.661200000286,696.6613000001907,698.2899000000955,1115.0,698.2900999999047,1.0,698.3003000001906,2.0,4.0,64.0,19.0,1.0,1.6,0.7,Time
,,S10,658375,1,女,21,anonymized,Serial_Dependence_U,2023.2.3,Win32,59.88023952091634,,,,,,698.3005999999048,180.0,2.0,698.300700000286,180.0,,,,702.0862000002862,702.5770999999047,701.5694000000954,702.0859000000953,699.3035999999047,701.5690999999047,702.5772000002862,703.0777000002861,703.0778000001908,705.1138000001908,955.0,705.1143000001907,2.0,705.146,2.0,5.0,65.0,12.0,1.0,1.2,0.3,Time
,,S10,658375,1,女,21,anonymized,Serial_Dependence_U,2023.2.3,Win32,59.88023952091634,,,,,,705.1468000001908,247.0,2.0,705.1470999999046,247.0,,,,708.921,709.4109000000954,708.402,708.9208000001906,706.1545999999046,708.4019000000953,709.4109000000954,709.9110999999045,709.911200000286,711.5775999999046,1245.0,711.5779000000955,3.0,711.6030999999045,2.0,6.0,66.0,27.0,1.0,1.2,0.7,Time
,,S10,658375,1,女,21,anonymized,Serial_Dependence_U,2023.2.3,Win32,59.88023952091634,,,,,,711.6037000002862,155.0,2.0,711.6039000000953,155.0,,,,715.1613000001907,715.6610000000001,714.6413000001908,715.1610000000001,712.598700000286,714.6409000000954,715.6610000000001,716.1609000000954,716.1609000000954,717.7115999999046,1464.0,717.7119000000953,5.0,717.7359000000954,2.0,7.0,67.0,26.0,1.0,1.0,0.7,Time
,,S10,658375,1,女,21,anonymized,Serial_Dependence_U,2023.2.3,Win32,59.88023952091634,,,,,,717.7365999999047,281.0,2.0,717.7369000000954,281.0,,,,721.2995000000001,721.7940999999046,720.7890999999047,721.2993000001907,718.7448000001907,720.7888000001908,721.7942000002861,722.2844000000953,722.2845,724.1585,1202.0,724.1589000000954,4.0,724.1860999999046,2.0,8.0,68.0,16.0,1.0,1.0,0.7,Time
,,S10,658375,1,女,21,anonymized,Serial_Dependence_U,2023.2.3,Win32,59.88023952091634,,,,,,724.1868000001907,144.0,2.0,724.1870999999046,144.0,,,,728.1749000000955,728.6772000002861,727.6559000000955,728.1748000001908,725.1818000001908,727.6554000000954,728.6773000001908,729.176700000286,729.1768000001907,732.0168000001906,1074.0,732.017200000286,2.0,732.0455999999047,2.0,9.0,69.0,23.0,1.0,1.4,0.3,Time
,,S10,658375,1,女,21,anonymized,Serial_Dependence_U,2023.2.3,Win32,59.88023952091634,,,,,,732.0463000001907,338.0,2.0,732.0465999999046,338.0,,,,736.008200000286,736.511,735.5058000001907,736.008,733.0540000000001,735.5054000000953,736.511,737.0103000001907,737.0105000000001,739.1334000000954,1318.0,739.1338000001908,2.0,739.1580000000001,2.0,10.0,70.0,18.0,1.0,1.4,0.7,Time
,,S10,658375,1,女,21,anonymized,Serial_Dependence_U,2023.2.3,Win32,59.88023952091634,,,,,,739.1587000002862,259.0,2.0,739.1589000000954,259.0,,,,742.9335000000001,743.4269000000954,742.4193000001908,742.9333000001907,740.1775999999047,742.4189000000954,743.4269000000954,743.9268000001907,743.9269999999999,748.01,1219.0,748.0104000000954,3.0,748.0360000000001,2.0,11.0,71.0,17.0,1.0,1.2,0.7,Time
,,S10,658375,1,女,21,anonymized,Serial_Dependence_U,2023.2.3,Win32,59.88023952091634,,,,,,748.0367000002861,184.0,2.0,748.0369000000953,184.0,,,,751.3718000001907,751.8599000000954,750.8682000002862,751.3715999999047,749.031,750.8680999999046,751.8600000000001,752.3598000001907,752.3599000000954,753.5750999999048,554.0,753.5754999999999,1.0,753.5995999999047,2.0,12.0,72.0,25.0,1.0,0.8,0.7,Time
,,S10,658375,1,女,21,anonymized,Serial_Dependence_U,2023.2.3,Win32,59.88023952091634,,,,,,753.6003000001908,350.0,2.0,753.6005999999047,350.0,,,,757.3757000002861,757.8769000000955,756.8643000001907,757.3754000000954,754.5955999999046,756.864,757.8769000000955,758.3767000002861,758.3767000002861,759.7687000002861,1038.0,759.7690999999047,2.0,759.7938000001907,2.0,13.0,73.0,22.0,1.0,1.2,0.3,Time
,,S10,658375,1,女,21,anonymized,Serial_Dependence_U,2023.2.3,Win32,59.88023952091634,,,,,,759.7945,334.0,2.0,759.7948000001907,334.0,,,,764.0038000001907,764.4932000002862,763.4865,764.0035999999047,760.8063000001907,763.4862000002861,764.4933000001909,764.9929999999999,764.9930999999046,770.1878000001907,1081.0,770.1880999999046,1.0,770.215700000286,2.0,14.0,74.0,14.0,1.0,1.6,0.3,Time
,,S10,658375,1,女,21,anonymized,Serial_Dependence_U,2023.2.3,Win32,59.88023952091634,,,,,,770.2165,173.0,2.0,770.2168000001907,173.0,,,,774.2044000000953,774.6930999999047,773.6973000001908,774.2043000001906,771.2200999999047,773.6970000000001,774.6930999999047,775.1833000001907,775.1835000000001,776.5397000002861,861.0,776.54,1.0,776.5675000000001,2.0,15.0,75.0,13.0,1.0,1.4,0.3,Time
,,S10,658375,1,女,21,anonymized,Serial_Dependence_U,2023.2.3,Win32,59.88023952091634,,,,,,776.5683000001907,312.0,2.0,776.5687000002861,312.0,,,,780.1523000001907,780.643200000286,779.6344000000954,780.152200000286,777.5638000001907,779.6340999999047,780.643200000286,781.1335999999046,781.1338000001908,782.5398000001908,1033.0,782.5402000002862,3.0,782.5672000002862,2.0,16.0,76.0,21.0,1.0,1.0,0.3,Time
,,S10,658375,1,女,21,anonymized,Serial_Dependence_U,2023.2.3,Win32,59.88023952091634,,,,,,782.568,28.0,2.0,782.5683000001907,28.0,,,,786.3295,786.826,785.8215999999047,786.3289000000955,783.5669000000953,785.8212000002861,786.8260999999047,787.3167000002861,787.3169000000953,789.2378000001906,1094.0,789.2380999999048,2.0,789.2554000000953,2.0,17.0,77.0,7.0,1.0,1.2,0.7,Time
,,S10,658375,1,女,21,anonymized,Serial_Dependence_U,2023.2.3,Win32,59.88023952091634,,,,,,789.2558000001907,115.0,2.0,789.2559000000954,115.0,,,,793.4160999999046,793.9092000002861,792.9147000002861,793.4159999999999,790.2639000000954,792.9144000000954,793.9093000001908,794.4094000000953,794.4094000000953,796.71,1422.0,796.7103000001907,2.0,796.7380999999048,2.0,18.0,78.0,9.0,1.0,1.6,0.7,Time
,,S10,658375,1,女,21,anonymized,Serial_Dependence_U,2023.2.3,Win32,59.88023952091634,,,,,,796.7389000000953,212.0,2.0,796.739200000286,212.0,,,,800.7523000001906,801.2419000000955,800.2262000002861,800.7515999999046,797.7574999999999,800.2260000000001,801.2419000000955,801.742700000286,801.7428000001908,803.1765999999047,1065.0,803.1769000000954,2.0,803.2050999999046,2.0,19.0,79.0,3.0,1.0,1.4,0.3,Time
,,S10,658375,1,女,21,anonymized,Serial_Dependence_U,2023.2.3,Win32,59.88023952091634,,,,,,803.2058000001907,84.0,2.0,803.2062000002861,84.0,,,,807.4248000001908,807.9252000002862,806.9033000001907,807.4245000000001,804.2175,806.9029000000953,807.9253000001906,808.4163000001909,808.4164000000953,809.6349000000953,814.0,809.6353000001907,1.0,809.6640999999047,2.0,20.0,80.0,4.0,1.0,1.6,0.3,Time
,,S10,658375,1,女,21,anonymized,Serial_Dependence_U,2023.2.3,Win32,59.88023952091634,,,,,,809.665,81.0,2.0,809.6653000001907,81.0,,,,813.8485999999045,814.3423000001908,813.3348000001909,813.8485000000001,810.6705999999047,813.3347000002861,814.3423000001908,814.8424000000955,814.8424000000955,816.1602000002861,963.0,816.1605999999047,1.0,816.1720999999047,2.0,21.0,81.0,24.0,1.0,1.6,0.3,Time
,,S10,658375,1,女,21,anonymized,Serial_Dependence_U,2023.2.3,Win32,59.88023952091634,,,,,,816.1724000000954,257.0,2.0,816.1725000000001,257.0,,,,819.7769000000953,820.2753000001908,819.2683000001907,819.7767000002862,817.1965999999047,819.2680999999047,820.2754000000955,820.7758000001907,820.7760000000001,826.0219999999999,1081.0,826.0224000000953,4.0,826.0503000001906,2.0,22.0,82.0,1.0,1.0,1.0,0.3,Time
,,S10,658375,1,女,21,anonymized,Serial_Dependence_U,2023.2.3,Win32,59.88023952091634,,,,,,826.0509000000955,336.0,2.0,826.0512000002861,336.0,,,,829.4453000001909,829.9550999999046,828.9268000001907,829.4450999999046,827.0473000001907,828.9264000000953,829.9553000001908,830.4587000002862,830.4589000000954,830.9298000001907,194.0,830.930200000286,1.0,830.9438000001908,2.0,23.0,83.0,0.0,1.0,0.8,0.3,Time
,,S10,658375,1,女,21,anonymized,Serial_Dependence_U,2023.2.3,Win32,59.88023952091634,,,,,,830.9440999999047,281.0,2.0,830.9443000001907,281.0,,,,834.3299999999999,834.8254000000954,833.8160999999047,834.329700000286,831.9610999999047,833.8158000001908,834.8254999999999,835.3253000001907,835.3254000000954,836.9808000001908,1169.0,836.9812000002862,5.0,837.0115000000001,2.0,24.0,84.0,5.0,1.0,0.8,0.7,Time
,,S10,658375,1,女,21,anonymized,Serial_Dependence_U,2023.2.3,Win32,59.88023952091634,,,,,,837.0122000002862,226.0,2.0,837.0125999999048,226.0,,,,840.5694000000954,841.0657000002861,840.0664000000954,840.5692000002862,838.0324000000953,840.0663000001907,841.0658000001908,841.5654999999999,841.5655999999046,843.1500999999046,1211.0,843.1502000002861,4.0,843.161200000286,2.0,25.0,85.0,6.0,1.0,1.0,0.7,Time
,,S10,658375,1,女,21,anonymized,Serial_Dependence_U,2023.2.3,Win32,59.88023952091634,,,,,,843.1615999999046,111.0,2.0,843.1617000002861,111.0,,,,846.953,847.4418000001908,846.4495999999046,846.9528000001908,844.1825000000001,846.4494000000955,847.4418000001908,847.9417000002861,847.9418000001908,849.1670999999046,714.0,849.1673000001908,1.0,849.1773000001908,2.0,26.0,86.0,2.0,1.0,1.2,0.3,Time
,,S10,658375,1,女,21,anonymized,Serial_Dependence_U,2023.2.3,Win32,59.88023952091634,,,,,,849.1775999999047,315.0,2.0,849.1777000002862,315.0,,,,853.1520999999047,853.6415999999047,852.6452000002862,853.1514999999999,850.1962000002861,852.645,853.6415999999047,854.1415999999047,854.1415999999047,855.7789000000953,1239.0,855.7793000001907,2.0,855.8055999999046,2.0,27.0,87.0,28.0,1.0,1.4,0.7,Time
,,S10,658375,1,女,21,anonymized,Serial_Dependence_U,2023.2.3,Win32,59.88023952091634,,,,,,855.8063000001907,166.0,2.0,855.8065999999046,166.0,,,,859.7863000001907,860.2750999999046,859.2720999999046,859.7860999999045,856.8218000001907,859.271700000286,860.2752000002861,860.7780999999047,860.778200000286,862.2753000001908,1156.0,862.2757000002862,2.0,862.3030999999046,2.0,28.0,88.0,8.0,1.0,1.4,0.7,Time
,,S10,658375,1,女,21,anonymized,Serial_Dependence_U,2023.2.3,Win32,59.88023952091634,,,,,,862.3038000001907,214.0,2.0,862.3040000000001,214.0,,,,866.4884999999999,866.9913000001907,865.9715999999046,866.4883000001907,863.3288000001908,865.9712000002862,866.9913000001907,867.4905999999046,867.4905999999046,869.0598000001908,1259.0,869.0600999999047,2.0,869.0877000002861,2.0,29.0,89.0,29.0,1.0,1.6,0.7,Time
,,S10,658375,1,女,21,anonymized,Serial_Dependence_U,2023.2.3,Win32,59.88023952091634,,,,,,869.0885000000001,146.0,3.0,1706.5284000000954,146.0,s,837.3929000000953,,1710.1295999999047,1710.6249000000953,1709.6198000001907,1710.1294000000953,1707.5424000000953,1709.6195,1710.6249000000953,1711.1254000000954,1711.1254000000954,1712.8528000001909,976.0,1712.853200000286,3.0,1712.881,3.0,0.0,90.0,21.0,1.0,1.0,0.3,Time
,,S10,658375,1,女,21,anonymized,Serial_Dependence_U,2023.2.3,Win32,59.88023952091634,,,,,,1712.8817000002862,19.0,3.0,1712.886700000286,19.0,,,,1716.668,1717.1653000001909,1716.1558000001908,1716.6679000000954,1713.8814000000957,1716.1555,1717.1653000001909,1717.6653000001909,1717.6654000000954,1718.901,830.0,1718.9014000000957,1.0,1718.9299000000954,3.0,1.0,91.0,2.0,1.0,1.2,0.3,Time
,,S10,658375,1,女,21,anonymized,Serial_Dependence_U,2023.2.3,Win32,59.88023952091634,,,,,,1718.9307000002862,340.0,3.0,1718.9309000000956,340.0,,,,1722.2923000001908,1722.7915,1721.7859000000956,1722.292,1719.9305000000002,1721.7857000002862,1722.7915,1723.2915999999047,1723.291700000286,1725.0285,1077.0,1725.0289000000955,5.0,1725.0568000001906,3.0,2.0,92.0,25.0,1.0,0.8,0.7,Time
,,S10,658375,1,女,21,anonymized,Serial_Dependence_U,2023.2.3,Win32,59.88023952091634,,,,,,1725.0575999999048,62.0,3.0,1725.0580000000002,62.0,,,,1728.6290999999048,1729.1248000001908,1728.1142000002862,1728.6289000000954,1726.0663000001907,1728.113700000286,1729.1249000000955,1729.6250999999045,1729.6250999999045,1732.5688000001908,966.0,1732.5692000002862,3.0,1732.5975,3.0,3.0,93.0,6.0,1.0,1.0,0.7,Time
,,S10,658375,1,女,21,anonymized,Serial_Dependence_U,2023.2.3,Win32,59.88023952091634,,,,,,1732.5982000002862,175.0,3.0,1732.5984999999998,175.0,,,,1736.162,1736.658,1735.6477000002862,1736.161900000095,1733.6090999999049,1735.6473000001909,1736.6580999999048,1737.157700000286,1737.1578000001907,1738.4613000001907,928.0,1738.461700000286,2.0,1738.4863000001908,3.0,4.0,94.0,16.0,1.0,1.0,0.7,Time
,,S10,658375,1,女,21,anonymized,Serial_Dependence_U,2023.2.3,Win32,59.88023952091634,,,,,,1738.4869000000956,67.0,3.0,1738.4873000001903,67.0,,,,1742.0900999999046,1742.591,1741.5740999999043,1742.089800000191,1739.5022000002862,1741.5738000001909,1742.5910999999048,1743.0910999999048,1743.091200000286,1744.5838000001906,1148.0,1744.584200000286,4.0,1744.61,3.0,5.0,95.0,11.0,1.0,1.0,0.3,Time
,,S10,658375,1,女,21,anonymized,Serial_Dependence_U,2023.2.3,Win32,59.88023952091634,,,,,,1744.6105999999047,83.0,3.0,1744.6109000000954,83.0,,,,1748.2144000000956,1748.7077000002862,1747.6984000000955,1748.2142000002862,1745.6265,1747.698200000286,1748.7077000002862,1749.2075000000002,1749.2075000000002,1750.628700000286,1125.0,1750.629,4.0,1750.6562000002862,3.0,6.0,96.0,1.0,1.0,1.0,0.3,Time
,,S10,658375,1,女,21,anonymized,Serial_Dependence_U,2023.2.3,Win32,59.88023952091634,,,,,,1750.6569000000952,279.0,3.0,1750.6573000001906,279.0,,,,1754.4200999999046,1754.9242000002862,1753.901,1754.4199000000956,1751.6595,1753.9008000001909,1754.924300000191,1755.423700000286,1755.423700000286,1765.7105999999046,742.0,1765.711,1.0,1765.7392000002862,3.0,7.0,97.0,7.0,1.0,1.2,0.7,Time
,,S10,658375,1,女,21,anonymized,Serial_Dependence_U,2023.2.3,Win32,59.88023952091634,,,,,,1765.7400999999047,287.0,3.0,1765.7405,287.0,,,,1769.7439000000952,1770.2405,1769.2365999999045,1769.7437000002865,1766.7569999999998,1769.2363000001908,1770.2405,1770.7400999999047,1770.740200000286,1772.0585999999046,959.0,1772.0589000000953,1.0,1772.086,3.0,8.0,98.0,23.0,1.0,1.4,0.3,Time
,,S10,658375,1,女,21,anonymized,Serial_Dependence_U,2023.2.3,Win32,59.88023952091634,,,,,,1772.086700000286,160.0,3.0,1772.0870999999045,160.0,,,,1776.2469000000954,1776.7405,1775.7449000000954,1776.246700000286,1773.0960999999045,1775.7445999999047,1776.7405,1777.2405999999048,1777.2405999999048,1778.6705999999049,1117.0,1778.671,1.0,1778.6985000000002,3.0,9.0,99.0,9.0,1.0,1.6,0.7,Time
,,S10,658375,1,女,21,anonymized,Serial_Dependence_U,2023.2.3,Win32,59.88023952091634,,,,,,1778.6992000002865,142.0,3.0,1778.6995999999046,142.0,,,,1782.074700000286,1782.5734000000955,1781.555,1782.0745,1779.7014000000952,1781.5548000001909,1782.5734000000955,1783.0739000000956,1783.0739000000956,1784.6379000000954,1257.0,1784.6384000000955,5.0,1784.667,3.0,10.0,100.0,5.0,1.0,0.8,0.7,Time
,,S10,658375,1,女,21,anonymized,Serial_Dependence_U,2023.2.3,Win32,59.88023952091634,,,,,,1784.6677000002862,323.0,3.0,1784.6680999999046,323.0,,,,1788.816700000286,1789.3068000001906,1788.3079000000955,1788.8165999999048,1785.6575999999047,1788.3075,1789.3068000001906,1789.8070999999047,1789.807200000286,1791.311700000286,1186.0,1791.3120999999048,2.0,1791.3410999999048,3.0,11.0,101.0,19.0,1.0,1.6,0.7,Time
,,S10,658375,1,女,21,anonymized,Serial_Dependence_U,2023.2.3,Win32,59.88023952091634,,,,,,1791.341800000191,264.0,3.0,1791.3420999999046,264.0,,,,1795.5357000002862,1796.0234000000953,1795.0190999999047,1795.5355000000002,1792.3540999999047,1795.0189000000953,1796.0235,1796.5308000001908,1796.5308000001908,1797.840400000095,928.0,1797.8405999999047,1.0,1797.851,3.0,12.0,102.0,24.0,1.0,1.6,0.3,Time
,,S10,658375,1,女,21,anonymized,Serial_Dependence_U,2023.2.3,Win32,59.88023952091634,,,,,,1797.8513000001906,149.0,3.0,1797.8515,149.0,,,,1801.4105000000002,1801.9065999999043,1800.8993000001908,1801.4103000001908,1798.859800000191,1800.8990999999048,1801.9067000002865,1802.4067000002865,1802.4067000002865,1803.221300000191,436.0,1803.2217000002863,1.0,1803.2504000000952,3.0,13.0,103.0,26.0,1.0,1.0,0.7,Time
,,S10,658375,1,女,21,anonymized,Serial_Dependence_U,2023.2.3,Win32,59.88023952091634,,,,,,1803.251200000286,201.0,3.0,1803.2515,201.0,,,,1807.0055999999047,1807.5067000002864,1806.4988000001904,1807.0054000000955,1804.2520999999044,1806.498700000286,1807.5067000002864,1808.013200000286,1808.0133000001908,1809.7735,1398.0,1809.7735999999047,4.0,1809.7833000001908,3.0,14.0,104.0,17.0,1.0,1.2,0.7,Time
,,S10,658375,1,女,21,anonymized,Serial_Dependence_U,2023.2.3,Win32,59.88023952091634,,,,,,1809.7835999999045,346.0,3.0,1809.7837000002864,346.0,,,,1813.1318000001909,1813.6230999999043,1812.6245999999048,1813.1318000001909,1810.7765,1812.6243000001907,1813.6232000002865,1814.123,1814.123,1816.1573000001904,1039.0,1816.1578000001907,4.0,1816.1849000000957,3.0,15.0,105.0,15.0,1.0,0.8,0.7,Time
,,S10,658375,1,女,21,anonymized,Serial_Dependence_U,2023.2.3,Win32,59.88023952091634,,,,,,1816.1855999999043,147.0,3.0,1816.1860999999049,147.0,,,,1820.387,1820.8899000000956,1819.874,1820.386400000096,1817.1987000002864,1819.873700000286,1820.89,1821.389700000286,1821.389700000286,1822.591200000286,84.0,1822.5915999999045,1.0,1822.619200000286,3.0,16.0,106.0,4.0,1.0,1.6,0.3,Time
,,S10,658375,1,女,21,anonymized,Serial_Dependence_U,2023.2.3,Win32,59.88023952091634,,,,,,1822.62,154.0,3.0,1822.6204000000955,154.0,,,,1826.5737000002864,1827.072800000191,1826.0695,1826.5735,1823.633200000286,1826.0692000002864,1827.072800000191,1827.5723000001904,1827.5724000000955,1829.2573000001903,1170.0,1829.257700000286,2.0,1829.285,3.0,17.0,107.0,28.0,1.0,1.4,0.7,Time
,,S10,658375,1,女,21,anonymized,Serial_Dependence_U,2023.2.3,Win32,59.88023952091634,,,,,,1829.2857000002864,75.0,3.0,1829.2860999999043,75.0,,,,1833.0940999999043,1833.5920999999048,1832.5767000002863,1833.0938000001909,1830.295700000286,1832.576300000191,1833.5922000002863,1834.089400000096,1834.089400000096,1973.267200000286,709.0,1973.2675999999049,1.0,1973.2969000000955,3.0,18.0,108.0,22.0,1.0,1.2,0.3,Time
,,S10,658375,1,女,21,anonymized,Serial_Dependence_U,2023.2.3,Win32,59.88023952091634,,,,,,1973.2975999999048,357.0,3.0,1973.2979000000955,357.0,,,,1977.2655999999045,1977.7695,1976.7485,1977.2653000001908,1974.306300000191,1976.748300000191,1977.7695,1978.27,1978.2700999999045,1980.0365,1317.0,1980.0370999999047,2.0,1980.0647000002864,3.0,19.0,109.0,8.0,1.0,1.4,0.7,Time
,,S10,658375,1,女,21,anonymized,Serial_Dependence_U,2023.2.3,Win32,59.88023952091634,,,,,,1980.0655,278.0,3.0,1980.0659000000956,278.0,,,,1984.2674000000957,1984.7702000002864,1983.745200000286,1984.267200000286,1981.0823000001908,1983.745,1984.7702000002864,1985.2702000002864,1985.270300000191,1986.3970999999049,750.0,1986.3975,1.0,1986.426800000191,3.0,20.0,110.0,14.0,1.0,1.6,0.3,Time
,,S10,658375,1,女,21,anonymized,Serial_Dependence_U,2023.2.3,Win32,59.88023952091634,,,,,,1986.4275,336.0,3.0,1986.4279000000956,336.0,,,,1989.8042000002863,1990.3035,1989.2927000002865,1989.804,1987.4245999999048,1989.2924000000955,1990.3035,1990.803200000286,1990.8033000001908,1991.5480999999047,379.0,1991.5485999999048,1.0,1991.5758000001908,3.0,21.0,111.0,10.0,1.0,0.8,0.3,Time
,,S10,658375,1,女,21,anonymized,Serial_Dependence_U,2023.2.3,Win32,59.88023952091634,,,,,,1991.5765999999048,123.0,3.0,1991.5769000000955,123.0,,,,1994.9732000002864,1995.4695,1994.454700000286,1994.9729000000957,1992.5868000001908,1994.4544000000956,1995.4695,1995.9690999999043,1995.9690999999043,1997.0568000001904,776.0,1997.0570999999047,3.0,1997.0855,3.0,22.0,112.0,0.0,1.0,0.8,0.3,Time
,,S10,658375,1,女,21,anonymized,Serial_Dependence_U,2023.2.3,Win32,59.88023952091634,,,,,,1997.086200000286,41.0,3.0,1997.0865999999048,41.0,,,,2001.260300000191,2001.752400000096,2000.7554000000955,2001.2600999999047,1998.1050999999045,2000.7552000002863,2001.752400000096,2002.252800000191,2002.252800000191,2003.7775999999049,1169.0,2003.7779000000955,2.0,2003.8054000000957,3.0,23.0,113.0,29.0,1.0,1.6,0.7,Time
,,S10,658375,1,女,21,anonymized,Serial_Dependence_U,2023.2.3,Win32,59.88023952091634,,,,,,2003.8060999999043,253.0,3.0,2003.8065,253.0,,,,2007.205400000096,2007.702200000286,2006.6994000000952,2007.205200000286,2004.8195999999043,2006.6990999999043,2007.702200000286,2008.2028000001908,2008.2029000000955,2027.739,613.0,2027.7394000000952,2.0,2027.7678000001908,3.0,24.0,114.0,20.0,1.0,0.8,0.3,Time
,,S10,658375,1,女,21,anonymized,Serial_Dependence_U,2023.2.3,Win32,59.88023952091634,,,,,,2027.7685,148.0,3.0,2027.7689000000955,148.0,,,,2031.7530999999049,2032.2522000002864,2031.251200000286,2031.7530999999049,2028.7702000002864,2031.2507000002863,2032.2523000001909,2032.7525999999043,2032.7525999999043,2034.0542000002863,979.0,2034.054599999905,1.0,2034.0820999999048,3.0,25.0,115.0,13.0,1.0,1.4,0.3,Time
,,S10,658375,1,女,21,anonymized,Serial_Dependence_U,2023.2.3,Win32,59.88023952091634,,,,,,2034.082800000191,12.0,3.0,2034.0832000002863,12.0,,,,2037.842800000191,2038.3348000001909,2037.340700000286,2037.842599999905,2035.095,2037.3404000000955,2038.334900000096,2038.8358000001904,2038.8358000001904,2040.3313000001904,1142.0,2040.331700000286,3.0,2040.361,3.0,26.0,116.0,27.0,1.0,1.2,0.7,Time
,,S10,658375,1,女,21,anonymized,Serial_Dependence_U,2023.2.3,Win32,59.88023952091634,,,,,,2040.3617000002864,69.0,3.0,2040.3620999999048,69.0,,,,2044.347300000191,2044.8355,2043.8273000001907,2044.347099999905,2041.357300000191,2043.827200000286,2044.8355999999048,2045.3354000000952,2045.3355,2047.002400000096,1134.0,2047.0025999999043,2.0,2047.012200000286,3.0,27.0,117.0,3.0,1.0,1.4,0.3,Time
,,S10,658375,1,女,21,anonymized,Serial_Dependence_U,2023.2.3,Win32,59.88023952091634,,,,,,2047.0125999999048,141.0,3.0,2047.0128000001907,141.0,,,,2050.812200000286,2051.302,2050.2932000002866,2050.812,2048.022900000095,2050.2930999999044,2051.3020999999044,2051.8089000000955,2051.809,2053.4615000000003,1291.0,2053.461900000096,4.0,2053.488400000096,3.0,28.0,118.0,12.0,1.0,1.2,0.3,Time
,,S10,658375,1,女,21,anonymized,Serial_Dependence_U,2023.2.3,Win32,59.88023952091634,,,,,,2053.489,304.0,3.0,2053.489300000191,304.0,,,,2057.438700000286,2057.936700000286,2056.9374000000957,2057.438599999905,2054.496,2056.937200000286,2057.936700000286,2058.4350000000004,2058.435099999904,2060.1018000001905,1422.0,2060.102200000286,3.0,2060.129700000286,3.0,29.0,119.0,18.0,1.0,1.4,0.7,Time
,,S10,658375,1,女,21,anonymized,Serial_Dependence_U,2023.2.3,Win32,59.88023952091634,,,,,,2060.1304000000955,169.0,4.0,2908.517400000095,169.0,s,848.3384999999998,,2911.891900000095,2912.385300000191,2911.385400000096,2911.8917000002857,2909.535700000286,2911.385099999905,2912.385400000096,2912.8857000002863,2912.885800000191,2918.920099999905,977.0,2918.9204000000955,4.0,2918.949,4.0,0.0,120.0,5.0,1.0,0.8,0.7,Time
,,S10,658375,1,女,21,anonymized,Serial_Dependence_U,2023.2.3,Win32,59.88023952091634,,,,,,2918.9497000002857,346.0,4.0,2918.954700000286,346.0,,,,2922.3468000001903,2922.8345,2921.833400000095,2922.3467000002865,2919.9609000000955,2921.833,2922.8345,2923.335200000286,2923.335200000286,2924.9370999999046,850.0,2924.9375,4.0,2924.964700000286,4.0,1.0,121.0,20.0,1.0,0.8,0.3,Time
,,S10,658375,1,女,21,anonymized,Serial_Dependence_U,2023.2.3,Win32,59.88023952091634,,,,,,2924.9654000000955,342.0,4.0,2924.9657000002862,342.0,,,,2929.134700000286,2929.635200000286,2928.622599999904,2929.134599999905,2925.976900000095,2928.622300000191,2929.635300000191,2930.1349000000955,2930.135,2931.9185999999045,1207.0,2931.9188000001905,2.0,2931.929,4.0,2.0,122.0,29.0,1.0,1.6,0.7,Time
,,S10,658375,1,女,21,anonymized,Serial_Dependence_U,2023.2.3,Win32,59.88023952091634,,,,,,2931.9295,207.0,4.0,2931.9295,207.0,,,,2935.281400000096,2935.785,2934.776200000286,2935.28130000019,2932.932,2934.776,2935.785,2936.284900000095,2936.285,2937.462099999904,806.0,2937.4625,3.0,2937.4909000000957,4.0,3.0,123.0,25.0,1.0,0.8,0.7,Time
,,S10,658375,1,女,21,anonymized,Serial_Dependence_U,2023.2.3,Win32,59.88023952091634,,,,,,2937.491599999905,149.0,4.0,2937.492,149.0,,,,2941.0820000000003,2941.585200000286,2940.577400000096,2941.081700000286,2938.498300000191,2940.577099999905,2941.5853000001907,2942.0853000001907,2942.085400000095,2943.4300000000003,1039.0,2943.430300000191,3.0,2943.4590999999045,4.0,4.0,124.0,1.0,1.0,1.0,0.3,Time
,,S10,658375,1,女,21,anonymized,Serial_Dependence_U,2023.2.3,Win32,59.88023952091634,,,,,,2943.46,83.0,4.0,2943.4603000001907,83.0,,,,2947.4215000000004,2947.9182000002866,2946.919,2947.421300000191,2944.453900000095,2946.9188000001905,2947.9182000002866,2948.425099999905,2948.425200000286,2950.2038000001903,1391.0,2950.2043000001904,3.0,2950.232,4.0,5.0,125.0,13.0,1.0,1.4,0.3,Time
,,S10,658375,1,女,21,anonymized,Serial_Dependence_U,2023.2.3,Win32,59.88023952091634,,,,,,2950.2328000001908,352.0,4.0,2950.233099999905,352.0,,,,2954.2145999999047,2954.7177000002857,2953.6955,2954.214400000096,2951.2477000002864,2953.6953000001904,2954.7178000001904,2955.218,2955.218099999905,2956.7615999999043,1175.0,2956.761900000095,2.0,2956.7864000000955,4.0,6.0,126.0,8.0,1.0,1.4,0.7,Time
,,S10,658375,1,女,21,anonymized,Serial_Dependence_U,2023.2.3,Win32,59.88023952091634,,,,,,2956.787099999905,261.0,4.0,2956.787300000191,261.0,,,,2960.5575,2961.0512000002864,2960.0525,2960.556900000095,2957.805800000191,2960.0523000001904,2961.0512000002864,2961.5510000000004,2961.551099999905,2963.098,1101.0,2963.098400000096,2.0,2963.1237000002857,4.0,7.0,127.0,7.0,1.0,1.2,0.7,Time
,,S10,658375,1,女,21,anonymized,Serial_Dependence_U,2023.2.3,Win32,59.88023952091634,,,,,,2963.1243000001905,147.0,4.0,2963.1245999999046,147.0,,,,2967.3282000002864,2967.817,2966.811900000095,2967.328099999904,2964.140800000191,2966.8115,2967.817,2968.317700000286,2968.317800000191,2969.552900000095,730.0,2969.553200000286,1.0,2969.5775000000003,4.0,8.0,128.0,24.0,1.0,1.6,0.3,Time
,,S10,658375,1,女,21,anonymized,Serial_Dependence_U,2023.2.3,Win32,59.88023952091634,,,,,,2969.578300000191,245.0,4.0,2969.5785,245.0,,,,2973.3455000000004,2973.8335999999044,2972.8340999999045,2973.345099999905,2970.582599999904,2972.8338000001904,2973.8337000002857,2974.3345,2974.3345999999046,2975.7994000000954,1077.0,2975.7998000001908,2.0,2975.827900000096,4.0,9.0,129.0,27.0,1.0,1.2,0.7,Time
,,S10,658375,1,女,21,anonymized,Serial_Dependence_U,2023.2.3,Win32,59.88023952091634,,,,,,2975.8285,34.0,4.0,2975.828900000095,34.0,,,,2980.009200000286,2980.5009000000955,2979.5045999999047,2980.0090999999047,2976.8265,2979.5043000001906,2980.5009000000955,2981.0009000000955,2981.001,2982.1394000000955,713.0,2982.139800000191,1.0,2982.166,4.0,10.0,130.0,4.0,1.0,1.6,0.3,Time
,,S10,658375,1,女,21,anonymized,Serial_Dependence_U,2023.2.3,Win32,59.88023952091634,,,,,,2982.1667000002863,205.0,4.0,2982.166900000096,205.0,,,,2985.9752000002863,2986.467400000095,2985.4655,2985.9752000002863,2983.1785999999047,2985.465099999905,2986.467400000095,2986.967400000095,2986.9675,3005.5107000002863,573.0,3005.511099999904,1.0,3005.537800000191,4.0,11.0,131.0,22.0,1.0,1.2,0.3,Time
,,S10,658375,1,女,21,anonymized,Serial_Dependence_U,2023.2.3,Win32,59.88023952091634,,,,,,3005.5385,311.0,4.0,3005.5388000001903,311.0,,,,3009.727,3010.216099999905,3009.2045,3009.7268000001905,3006.535700000286,3009.2043000001904,3010.2162000002863,3010.717,3010.7170999999043,3012.6879000000954,839.0,3012.6884000000955,1.0,3012.716300000191,4.0,12.0,132.0,14.0,1.0,1.6,0.3,Time
,,S10,658375,1,女,21,anonymized,Serial_Dependence_U,2023.2.3,Win32,59.88023952091634,,,,,,3012.7170999999043,343.0,4.0,3012.717400000095,343.0,,,,3016.3210999999046,3016.816900000096,3015.805599999905,3016.3208000001905,3013.731,3015.805300000191,3016.817,3017.307200000286,3017.3075,3034.733400000096,705.0,3034.733900000096,2.0,3034.76,4.0,13.0,133.0,21.0,1.0,1.0,0.3,Time
,,S10,658375,1,女,21,anonymized,Serial_Dependence_U,2023.2.3,Win32,59.88023952091634,,,,,,3034.7607000002863,321.0,4.0,3034.760900000096,321.0,,,,3038.9244000000954,3039.416200000286,3038.405400000095,3038.924200000286,3035.7533000001904,3038.4052000002857,3039.416200000286,3039.9053000001904,3039.905400000095,3041.850099999905,1107.0,3041.8505000000005,1.0,3041.8775999999043,4.0,14.0,134.0,9.0,1.0,1.6,0.7,Time
,,S10,658375,1,女,21,anonymized,Serial_Dependence_U,2023.2.3,Win32,59.88023952091634,,,,,,3041.8783000001904,251.0,4.0,3041.8785999999045,251.0,,,,3045.278400000096,3045.7662000002865,3044.7760999999045,3045.278300000191,3042.9,3044.7757000002857,3045.7662000002865,3046.255,3046.255099999905,3049.0257000002857,1393.0,3049.025900000095,5.0,3049.042099999905,4.0,15.0,135.0,0.0,1.0,0.8,0.3,Time
,,S10,658375,1,女,21,anonymized,Serial_Dependence_U,2023.2.3,Win32,59.88023952091634,,,,,,3049.0425,57.0,4.0,3049.0427000002865,57.0,,,,3053.0445,3053.5330000000004,3052.523700000286,3053.044200000286,3050.050599999905,3052.523599999905,3053.533099999905,3054.032800000191,3054.0330000000004,3055.438,795.0,3055.438300000191,1.0,3055.462400000095,4.0,16.0,136.0,23.0,1.0,1.4,0.3,Time
,,S10,658375,1,女,21,anonymized,Serial_Dependence_U,2023.2.3,Win32,59.88023952091634,,,,,,3055.4630999999044,274.0,4.0,3055.463400000095,274.0,,,,3059.660200000286,3060.1495000000004,3059.141400000095,3059.66,3056.486700000286,3059.1410999999043,3060.1495000000004,3060.6559000000952,3060.656,3062.127900000095,1184.0,3062.1283000001904,2.0,3062.1555,4.0,17.0,137.0,19.0,1.0,1.6,0.7,Time
,,S10,658375,1,女,21,anonymized,Serial_Dependence_U,2023.2.3,Win32,59.88023952091634,,,,,,3062.156200000286,230.0,4.0,3062.1565,230.0,,,,3065.728599999905,3066.224300000191,3065.2040999999044,3065.7283000001908,3063.153900000096,3065.2038000001903,3066.224400000096,3066.7229000000957,3066.723,3068.184400000096,1063.0,3068.184800000191,4.0,3068.2098000001906,4.0,18.0,138.0,26.0,1.0,1.0,0.7,Time
,,S10,658375,1,女,21,anonymized,Serial_Dependence_U,2023.2.3,Win32,59.88023952091634,,,,,,3068.2105,342.0,4.0,3068.210800000191,342.0,,,,3072.1953000001904,3072.698800000191,3071.682400000095,3072.1952000002857,3069.2130999999044,3071.6820999999045,3072.698900000096,3073.1985000000004,3073.198599999904,3074.460200000286,1048.0,3074.460599999905,2.0,3074.487599999905,4.0,19.0,139.0,3.0,1.0,1.4,0.3,Time
,,S10,658375,1,女,21,anonymized,Serial_Dependence_U,2023.2.3,Win32,59.88023952091634,,,,,,3074.4885000000004,120.0,4.0,3074.4887000002864,120.0,,,,3078.431300000191,3078.9315,3077.9272000002857,3078.430900000096,3075.492,3077.926900000095,3078.9315,3079.4325999999046,3079.432700000286,3081.546900000096,1372.0,3081.547300000191,3.0,3081.577300000191,4.0,20.0,140.0,28.0,1.0,1.4,0.7,Time
,,S10,658375,1,女,21,anonymized,Serial_Dependence_U,2023.2.3,Win32,59.88023952091634,,,,,,3081.578099999904,310.0,4.0,3081.578400000096,310.0,,,,3085.5512000002864,3086.049,3085.033099999905,3085.550900000096,3082.5928000001904,3085.032900000096,3086.049,3086.5488000001906,3086.5488000001906,3088.207800000191,1343.0,3088.207900000096,3.0,3088.217900000095,4.0,21.0,141.0,18.0,1.0,1.4,0.7,Time
,,S10,658375,1,女,21,anonymized,Serial_Dependence_U,2023.2.3,Win32,59.88023952091634,,,,,,3088.218200000286,352.0,4.0,3088.2184000000952,352.0,,,,3091.814599999904,3092.3152000002865,3091.3020999999044,3091.814400000096,3089.228700000286,3091.301800000191,3092.315300000191,3092.8158000001904,3092.8158000001904,3103.3410000000003,687.0,3103.341099999905,1.0,3103.354599999905,4.0,22.0,142.0,11.0,1.0,1.0,0.3,Time
,,S10,658375,1,女,21,anonymized,Serial_Dependence_U,2023.2.3,Win32,59.88023952091634,,,,,,3103.354900000096,19.0,4.0,3103.3550999999043,19.0,,,,3106.9240999999047,3107.4149000000957,3106.415400000096,3106.9238000001906,3104.368900000095,3106.4153000001907,3107.415,3107.9190999999046,3107.919200000286,3110.362700000286,1219.0,3110.3630000000003,4.0,3110.390400000096,4.0,23.0,143.0,16.0,1.0,1.0,0.7,Time
,,S10,658375,1,女,21,anonymized,Serial_Dependence_U,2023.2.3,Win32,59.88023952091634,,,,,,3110.3912000002865,273.0,4.0,3110.391400000095,273.0,,,,3114.178,3114.6815,3113.6620000000003,3114.1778000001905,3111.385599999905,3113.661700000286,3114.6815,3115.1815,3115.1815,3132.5822000002863,707.0,3132.5827000002864,1.0,3132.6147000002857,4.0,24.0,144.0,2.0,1.0,1.2,0.3,Time
,,S10,658375,1,女,21,anonymized,Serial_Dependence_U,2023.2.3,Win32,59.88023952091634,,,,,,3132.6155999999046,120.0,4.0,3132.616,120.0,,,,3136.181900000095,3136.6812000002865,3135.6640999999045,3136.1817000002857,3133.6187000002865,3135.663900000095,3136.681400000095,3137.181300000191,3137.181400000095,3138.5225,973.0,3138.522900000095,3.0,3138.550200000286,4.0,25.0,145.0,6.0,1.0,1.0,0.7,Time
,,S10,658375,1,女,21,anonymized,Serial_Dependence_U,2023.2.3,Win32,59.88023952091634,,,,,,3138.5510000000004,357.0,4.0,3138.551300000191,357.0,,,,3141.949,3142.447599999905,3141.435800000191,3141.948900000096,3139.565,3141.435400000096,3142.447599999905,3142.947900000096,3142.9480000000003,3146.711599999905,732.0,3146.712400000095,2.0,3146.7435,4.0,26.0,146.0,10.0,1.0,0.8,0.3,Time
,,S10,658375,1,女,21,anonymized,Serial_Dependence_U,2023.2.3,Win32,59.88023952091634,,,,,,3146.744400000095,187.0,4.0,3146.7448000001905,187.0,,,,3150.518,3151.013400000096,3149.997099999905,3150.5178000001906,3147.751,3149.996800000191,3151.013400000096,3151.5139000000954,3151.5139000000954,3153.304800000191,1130.0,3153.305099999905,2.0,3153.334,4.0,27.0,147.0,17.0,1.0,1.2,0.7,Time
,,S10,658375,1,女,21,anonymized,Serial_Dependence_U,2023.2.3,Win32,59.88023952091634,,,,,,3153.334700000286,116.0,4.0,3153.335,116.0,,,,3157.139599999905,3157.630900000096,3156.634800000191,3157.139300000191,3154.3555999999044,3156.6345,3157.630900000096,3158.1310000000003,3158.1310000000003,3159.5815,658.0,3159.582099999905,1.0,3159.6137000002864,4.0,28.0,148.0,12.0,1.0,1.2,0.3,Time
,,S10,658375,1,女,21,anonymized,Serial_Dependence_U,2023.2.3,Win32,59.88023952091634,,,,,,3159.6145999999044,44.0,4.0,3159.615,44.0,,,,3162.9810999999045,3163.4810999999045,3162.474400000096,3162.981,3160.6272000002864,3162.474200000286,3163.4810999999045,3163.9808000001904,3163.9808000001904,3165.554099999905,712.0,3165.5545,2.0,3165.5798000001905,4.0,29.0,149.0,15.0,1.0,0.8,0.7,Time
,,S10,658375,1,女,21,anonymized,Serial_Dependence_U,2023.2.3,Win32,59.88023952091634,,,,,,3165.5808000001907,222.0,5.0,3223.266900000095,222.0,s,57.63380000019061,,3226.6079000000955,3227.095800000191,3226.104800000191,3226.6078000001908,3224.269800000191,3226.104599999905,3227.095800000191,3227.602900000096,3227.6030999999048,3228.318900000096,388.0,3228.319300000191,1.0,3228.3468000001903,5.0,0.0,150.0,5.0,1.0,0.8,0.7,Time
,,S10,658375,1,女,21,anonymized,Serial_Dependence_U,2023.2.3,Win32,59.88023952091634,,,,,,3228.3475,301.0,5.0,3228.3505999999043,301.0,,,,3232.1205999999047,3232.612700000286,3231.608599999905,3232.1204000000957,3229.363099999905,3231.608300000191,3232.612700000286,3233.119700000286,3233.1198000001905,3234.430099999905,979.0,3234.430599999905,2.0,3234.4577000002864,5.0,1.0,151.0,17.0,1.0,1.2,0.7,Time
,,S10,658375,1,女,21,anonymized,Serial_Dependence_U,2023.2.3,Win32,59.88023952091634,,,,,,3234.4585,351.0,5.0,3234.458900000095,351.0,,,,3238.0295,3238.5285000000003,3237.523,3238.0295,3235.4755000000005,3237.522700000286,3238.528599999905,3239.029099999904,3239.029099999904,3240.4385,997.0,3240.438900000096,3.0,3240.4660000000003,5.0,2.0,152.0,16.0,1.0,1.0,0.7,Time
,,S10,658375,1,女,21,anonymized,Serial_Dependence_U,2023.2.3,Win32,59.88023952091634,,,,,,3240.4667000002864,142.0,5.0,3240.467,142.0,,,,3244.438800000191,3244.929099999905,3243.9273000001904,3244.4385,3241.4800999999043,3243.927,3244.929200000286,3245.429099999905,3245.429300000191,3247.1295,1242.0,3247.129700000286,2.0,3247.139900000096,5.0,3.0,153.0,8.0,1.0,1.4,0.7,Time
,,S10,658375,1,女,21,anonymized,Serial_Dependence_U,2023.2.3,Win32,59.88023952091634,,,,,,3247.140099999905,217.0,5.0,3247.1402000002863,217.0,,,,3250.684900000096,3251.179200000286,3250.171099999905,3250.6847000002863,3248.135300000191,3250.170900000096,3251.179200000286,3251.679200000286,3251.679300000191,3253.155400000095,1125.0,3253.155700000286,4.0,3253.167300000191,5.0,4.0,154.0,6.0,1.0,1.0,0.7,Time
,,S10,658375,1,女,21,anonymized,Serial_Dependence_U,2023.2.3,Win32,59.88023952091634,,,,,,3253.1677000002865,299.0,5.0,3253.167900000095,299.0,,,,3256.538900000095,3257.0287000002863,3256.028300000191,3256.5387000002866,3254.1825,3256.027800000191,3257.0287000002863,3257.528400000096,3257.528400000096,3259.475099999905,1212.0,3259.4757000002865,5.0,3259.503900000095,5.0,5.0,155.0,15.0,1.0,0.8,0.7,Time
,,S10,658375,1,女,21,anonymized,Serial_Dependence_U,2023.2.3,Win32,59.88023952091634,,,,,,3259.504700000286,76.0,5.0,3259.505,76.0,,,,3263.4800999999043,3263.978800000191,3262.972700000286,3263.479900000096,3260.5033000001904,3262.9725,3263.978800000191,3264.479099999905,3264.479099999905,3265.920900000096,1001.0,3265.9212000002863,2.0,3265.9455,5.0,6.0,156.0,23.0,1.0,1.4,0.3,Time
,,S10,658375,1,女,21,anonymized,Serial_Dependence_U,2023.2.3,Win32,59.88023952091634,,,,,,3265.9460999999046,201.0,5.0,3265.946400000096,201.0,,,,3269.535099999905,3270.0285000000003,3269.0167000002857,3269.534900000095,3266.962400000095,3269.0163000001903,3270.028599999905,3270.528400000096,3270.5285000000003,3272.0219000000952,1053.0,3272.0220999999046,4.0,3272.037400000096,5.0,7.0,157.0,26.0,1.0,1.0,0.7,Time
,,S10,658375,1,女,21,anonymized,Serial_Dependence_U,2023.2.3,Win32,59.88023952091634,,,,,,3272.037800000191,73.0,5.0,3272.0380000000005,73.0,,,,3276.2335000000003,3276.728200000286,3275.711800000191,3276.233300000191,3273.036900000096,3275.711599999905,3276.7283000001908,3277.2283000001908,3277.2284000000955,3279.0525,1179.0,3279.052900000095,2.0,3279.079900000095,5.0,8.0,158.0,24.0,1.0,1.6,0.3,Time
,,S10,658375,1,女,21,anonymized,Serial_Dependence_U,2023.2.3,Win32,59.88023952091634,,,,,,3279.0805999999047,182.0,5.0,3279.0809000000954,182.0,,,,3282.6712000002863,3283.1675,3282.161599999905,3282.6710000000003,3280.086099999905,3282.1613000001907,3283.1675999999043,3283.661900000096,3283.661900000096,3289.683,1208.0,3289.6833000001907,4.0,3289.7077000002864,5.0,9.0,159.0,11.0,1.0,1.0,0.3,Time
,,S10,658375,1,女,21,anonymized,Serial_Dependence_U,2023.2.3,Win32,59.88023952091634,,,,,,3289.7083000001903,206.0,5.0,3289.7085999999044,206.0,,,,3293.056400000095,3293.545,3292.551900000095,3293.0560999999043,3290.7042000002857,3292.5515999999043,3293.545,3294.0517000002865,3294.051900000095,3310.261400000096,1056.0,3310.262,5.0,3310.290200000286,5.0,10.0,160.0,25.0,1.0,0.8,0.7,Time
,,S10,658375,1,女,21,anonymized,Serial_Dependence_U,2023.2.3,Win32,59.88023952091634,,,,,,3310.291,264.0,5.0,3310.291400000096,264.0,,,,3314.506599999904,3314.9945999999045,3313.985900000095,3314.506400000096,3311.306,3313.9855999999045,3314.9945999999045,3315.501300000191,3315.501400000096,3317.8820999999043,915.0,3317.882400000095,1.0,3317.907599999905,5.0,11.0,161.0,14.0,1.0,1.6,0.3,Time
,,S10,658375,1,女,21,anonymized,Serial_Dependence_U,2023.2.3,Win32,59.88023952091634,,,,,,3317.908300000191,70.0,5.0,3317.9085000000005,70.0,,,,3321.724599999905,3322.227099999905,3321.203400000096,3321.724400000096,3318.924200000286,3321.203099999904,3322.227099999905,3322.727900000096,3322.727900000096,3323.984400000096,635.0,3323.984800000191,1.0,3324.0123000001904,5.0,12.0,162.0,2.0,1.0,1.2,0.3,Time
,,S10,658375,1,女,21,anonymized,Serial_Dependence_U,2023.2.3,Win32,59.88023952091634,,,,,,3324.013,221.0,5.0,3324.0133000001906,221.0,,,,3327.783099999905,3328.2770999999047,3327.267700000286,3327.782900000096,3325.0175999999046,3327.267400000095,3328.2770999999047,3328.7770999999047,3328.7773000001907,3330.277700000286,1119.0,3330.278099999905,2.0,3330.305800000191,5.0,13.0,163.0,27.0,1.0,1.2,0.7,Time
,,S10,658375,1,女,21,anonymized,Serial_Dependence_U,2023.2.3,Win32,59.88023952091634,,,,,,3330.3068000001904,278.0,5.0,3330.3073000001905,278.0,,,,3334.505200000286,3334.9940999999044,3333.9955999999047,3334.505,3331.3185000000003,3333.9953000001906,3334.9942000002857,3335.4942000002857,3335.4942000002857,3337.107599999905,1135.0,3337.1078000001908,2.0,3337.118900000095,5.0,14.0,164.0,4.0,1.0,1.6,0.3,Time
,,S10,658375,1,女,21,anonymized,Serial_Dependence_U,2023.2.3,Win32,59.88023952091634,,,,,,3337.1192000002857,217.0,5.0,3337.1195,217.0,,,,3340.501400000096,3340.9940999999044,3339.993099999905,3340.501300000191,3338.112200000286,3339.992599999905,3340.9942000002857,3341.493800000191,3341.493900000095,3346.1169000000955,1216.0,3346.117,5.0,3346.129,5.0,15.0,165.0,20.0,1.0,0.8,0.3,Time
,,S10,658375,1,女,21,anonymized,Serial_Dependence_U,2023.2.3,Win32,59.88023952091634,,,,,,3346.129400000096,242.0,5.0,3346.1295999999047,242.0,,,,3350.0798000001905,3350.5769000000955,3349.569900000095,3350.0795999999045,3347.1328000001904,3349.5695999999043,3350.577,3351.077200000286,3351.077300000191,3352.744900000095,1333.0,3352.7453000001906,3.0,3352.772200000286,5.0,16.0,166.0,28.0,1.0,1.4,0.7,Time
,,S10,658375,1,女,21,anonymized,Serial_Dependence_U,2023.2.3,Win32,59.88023952091634,,,,,,3352.772900000095,325.0,5.0,3352.773300000191,325.0,,,,3356.3465999999044,3356.84380000019,3355.8353000001907,3356.346400000095,3353.7625999999045,3355.835200000286,3356.84380000019,3357.3435999999047,3357.3435999999047,3358.828099999904,1106.0,3358.828400000096,4.0,3358.8523000001906,5.0,17.0,167.0,1.0,1.0,1.0,0.3,Time
,,S10,658375,1,女,21,anonymized,Serial_Dependence_U,2023.2.3,Win32,59.88023952091634,,,,,,3358.8530999999048,162.0,5.0,3358.8534000000955,162.0,,,,3362.6298000001907,3363.1270000000004,3362.1177000002863,3362.6295,3359.850900000095,3362.1175000000003,3363.1270000000004,3363.627099999904,3363.6272000002864,3365.481,1446.0,3365.4815,4.0,3365.5083000001905,5.0,18.0,168.0,22.0,1.0,1.2,0.3,Time
,,S10,658375,1,女,21,anonymized,Serial_Dependence_U,2023.2.3,Win32,59.88023952091634,,,,,,3365.5093000001907,32.0,5.0,3365.509800000191,32.0,,,,3369.682200000286,3370.1829000000957,3369.1635999999044,3369.6820999999045,3366.523700000286,3369.163300000191,3370.1829000000957,3370.6767000002865,3370.676800000191,3372.4640999999046,1382.0,3372.4645999999047,2.0,3372.4948000001905,5.0,19.0,169.0,19.0,1.0,1.6,0.7,Time
,,S10,658375,1,女,21,anonymized,Serial_Dependence_U,2023.2.3,Win32,59.88023952091634,,,,,,3372.4955,108.0,5.0,3372.4959000000954,108.0,,,,3375.8740999999045,3376.3759000000955,3375.3624000000955,3375.8738000001904,3373.496,3375.362200000286,3376.3759000000955,3376.8767000002863,3376.8767000002863,3378.0539000000954,801.0,3378.054300000191,3.0,3378.082599999904,5.0,20.0,170.0,10.0,1.0,0.8,0.3,Time
,,S10,658375,1,女,21,anonymized,Serial_Dependence_U,2023.2.3,Win32,59.88023952091634,,,,,,3378.0833000001903,357.0,5.0,3378.0837000002857,357.0,,,,3382.083400000095,3382.575700000286,3381.563800000191,3382.0832000002865,3379.0957000002863,3381.5635,3382.575700000286,3383.0765,3383.076599999905,3384.6622000002862,1197.0,3384.662599999905,2.0,3384.69,5.0,21.0,171.0,3.0,1.0,1.4,0.3,Time
,,S10,658375,1,女,21,anonymized,Serial_Dependence_U,2023.2.3,Win32,59.88023952091634,,,,,,3384.6907000002857,16.0,5.0,3384.691200000286,16.0,,,,3388.303,3388.793,3387.8005000000003,3388.3028000001905,3385.7202000002862,3387.800099999905,3388.7930999999044,3389.2930999999044,3389.2932000002866,3390.5083000001905,802.0,3390.508700000286,2.0,3390.5364000000955,5.0,22.0,172.0,21.0,1.0,1.0,0.3,Time
,,S10,658375,1,女,21,anonymized,Serial_Dependence_U,2023.2.3,Win32,59.88023952091634,,,,,,3390.5372000002862,60.0,5.0,3390.5375000000004,60.0,,,,3393.9105999999047,3394.408900000095,3393.396700000286,3393.9105,3391.5287000002863,3393.396400000095,3394.408900000095,3394.9098000001904,3394.9098000001904,3396.173400000095,902.0,3396.1738000001906,4.0,3396.201,5.0,23.0,173.0,0.0,1.0,0.8,0.3,Time
,,S10,658375,1,女,21,anonymized,Serial_Dependence_U,2023.2.3,Win32,59.88023952091634,,,,,,3396.201700000286,34.0,5.0,3396.202099999905,34.0,,,,3400.2015,3400.692,3399.6902000002865,3400.2014000000954,3397.2098000001906,3399.689900000096,3400.692,3401.192800000191,3401.1929000000955,3402.4710999999043,957.0,3402.4715,1.0,3402.4987000002857,5.0,24.0,174.0,13.0,1.0,1.4,0.3,Time
,,S10,658375,1,女,21,anonymized,Serial_Dependence_U,2023.2.3,Win32,59.88023952091634,,,,,,3402.499400000095,308.0,5.0,3402.499700000286,308.0,,,,3406.655700000286,3407.1595999999045,3406.140400000096,3406.655400000095,3403.495200000286,3406.140099999905,3407.1595999999045,3407.6592000002865,3407.6593000001903,3408.5943000001907,652.0,3408.594800000191,1.0,3408.621900000096,5.0,25.0,175.0,9.0,1.0,1.6,0.7,Time
,,S10,658375,1,女,21,anonymized,Serial_Dependence_U,2023.2.3,Win32,59.88023952091634,,,,,,3408.622599999904,355.0,5.0,3408.622900000096,355.0,,,,3412.7735,3413.275900000095,3412.2670999999045,3412.773300000191,3409.6295999999047,3412.267,3413.276,3413.776,3413.776,3415.718099999905,1613.0,3415.7185999999047,3.0,3415.742900000096,5.0,26.0,176.0,29.0,1.0,1.6,0.7,Time
,,S10,658375,1,女,21,anonymized,Serial_Dependence_U,2023.2.3,Win32,59.88023952091634,,,,,,3415.7437000002865,251.0,5.0,3415.743900000095,251.0,,,,3419.6830999999047,3420.175800000191,3419.181300000191,3419.6828000001906,3416.7437000002865,3419.180900000096,3420.175800000191,3420.6760000000004,3420.676099999905,3422.314400000096,1410.0,3422.314800000191,3.0,3422.339,5.0,27.0,177.0,18.0,1.0,1.4,0.7,Time
,,S10,658375,1,女,21,anonymized,Serial_Dependence_U,2023.2.3,Win32,59.88023952091634,,,,,,3422.339700000286,73.0,5.0,3422.339900000095,73.0,,,,3426.131400000096,3426.625700000286,3425.6208000001907,3426.1312000002863,3423.353900000096,3425.6205999999047,3426.625700000286,3427.1248000001906,3427.1249000000957,3428.6125,1323.0,3428.612900000096,4.0,3428.640400000096,5.0,28.0,178.0,12.0,1.0,1.2,0.3,Time
,,S10,658375,1,女,21,anonymized,Serial_Dependence_U,2023.2.3,Win32,59.88023952091634,,,,,,3428.6412000002865,264.0,5.0,3428.6418000001904,264.0,,,,3432.412800000191,3432.9085999999043,3431.8915999999044,3432.4127000002863,3429.6435,3431.8912000002865,3432.9085999999043,3433.4148000001906,3433.4148000001906,3434.788900000095,1218.0,3434.7893000001905,3.0,3434.8163000001905,5.0,29.0,179.0,7.0,1.0,1.2,0.7,Time
,,S10,658375,1,女,21,anonymized,Serial_Dependence_U,2023.2.3,Win32,59.88023952091634,,,,,,3434.817,123.0,6.0,3436.308700000286,123.0,s,1.4642000002859277,,3440.320900000095,3440.8255,3439.805400000096,3440.3208000001905,3437.323599999904,3439.8052000002863,3440.8255,3441.3253000001905,3441.325400000095,3442.7577000002857,1370.0,3442.7580999999045,3.0,3442.782200000286,6.0,0.0,180.0,23.0,1.0,1.4,0.3,Time
,,S10,658375,1,女,21,anonymized,Serial_Dependence_U,2023.2.3,Win32,59.88023952091634,,,,,,3442.782900000096,162.0,6.0,3442.78580000019,162.0,,,,3446.7895,3447.291300000191,3446.2795999999043,3446.7892000002857,3443.796300000191,3446.279300000191,3447.291300000191,3447.791800000191,3447.791900000096,3449.4104000000957,1402.0,3449.410700000286,3.0,3449.4347000002863,6.0,1.0,181.0,3.0,1.0,1.4,0.3,Time
,,S10,658375,1,女,21,anonymized,Serial_Dependence_U,2023.2.3,Win32,59.88023952091634,,,,,,3449.435300000191,195.0,6.0,3449.4355999999043,195.0,,,,3453.2065,3453.7085999999044,3452.6997000002857,3453.206200000286,3450.4285999999047,3452.6995,3453.7085999999044,3454.2077000002864,3454.2077000002864,3455.563900000096,1268.0,3455.564400000096,4.0,3455.5920999999043,6.0,2.0,182.0,2.0,1.0,1.2,0.3,Time
,,S10,658375,1,女,21,anonymized,Serial_Dependence_U,2023.2.3,Win32,59.88023952091634,,,,,,3455.5928000001904,239.0,6.0,3455.593,239.0,,,,3459.7779000000955,3460.274300000191,3459.2702000002864,3459.777700000286,3456.6015,3459.269900000096,3460.274300000191,3460.7753000001903,3460.775400000095,3462.411,1464.0,3462.4114000000955,2.0,3462.4390000000003,6.0,3.0,183.0,24.0,1.0,1.6,0.3,Time
,,S10,658375,1,女,21,anonymized,Serial_Dependence_U,2023.2.3,Win32,59.88023952091634,,,,,,3462.439800000191,60.0,6.0,3462.4400999999043,60.0,,,,3466.4015,3466.8915,3465.8923000001905,3466.4013000001905,3463.452400000096,3465.8920999999045,3466.8915999999044,3467.3915,3467.3915999999044,3469.202800000191,1432.0,3469.203400000096,3.0,3469.232700000286,6.0,4.0,184.0,8.0,1.0,1.4,0.7,Time
,,S10,658375,1,女,21,anonymized,Serial_Dependence_U,2023.2.3,Win32,59.88023952091634,,,,,,3469.2335000000003,345.0,6.0,3469.233900000096,345.0,,,,3472.7999000000955,3473.2915000000003,3472.292800000191,3472.7995,3470.2435,3472.2925999999043,3473.291599999905,3473.7915000000003,3473.7915000000003,3476.965,1378.0,3476.9654000000955,5.0,3476.992400000096,6.0,5.0,185.0,26.0,1.0,1.0,0.7,Time
,,S10,658375,1,女,21,anonymized,Serial_Dependence_U,2023.2.3,Win32,59.88023952091634,,,,,,3476.993099999905,45.0,6.0,3476.993400000096,45.0,,,,3480.3478000001905,3480.8410000000003,3479.833,3480.3475,3477.9955999999047,3479.8327000002864,3480.841099999905,3481.340800000191,3481.3410000000003,3482.488599999905,1087.0,3482.489,5.0,3482.5139000000954,6.0,6.0,186.0,25.0,1.0,0.8,0.7,Time
,,S10,658375,1,女,21,anonymized,Serial_Dependence_U,2023.2.3,Win32,59.88023952091634,,,,,,3482.5145,278.0,6.0,3482.514800000191,278.0,,,,3486.2802000002857,3486.774400000096,3485.7785000000003,3486.2800999999045,3483.5094000000954,3485.778300000191,3486.774400000096,3487.273900000096,3487.273900000096,3490.5335999999043,1079.0,3490.5337000002864,2.0,3490.5432000002866,6.0,7.0,187.0,22.0,1.0,1.2,0.3,Time
,,S10,658375,1,女,21,anonymized,Serial_Dependence_U,2023.2.3,Win32,59.88023952091634,,,,,,3490.5435,239.0,6.0,3490.5437000002858,239.0,,,,3494.133400000095,3494.6243000001905,3493.6158000001906,3494.133200000286,3491.5427000002865,3493.6155999999046,3494.624400000095,3495.1245,3495.1245,3496.5345999999045,1070.0,3496.534900000095,4.0,3496.5522000002857,6.0,8.0,188.0,21.0,1.0,1.0,0.3,Time
,,S10,658375,1,女,21,anonymized,Serial_Dependence_U,2023.2.3,Win32,59.88023952091634,,,,,,3496.5525999999045,221.0,6.0,3496.552900000095,221.0,,,,3500.716300000191,3501.2077000002864,3500.197,3500.715900000096,3497.554800000191,3500.196700000286,3501.2077000002864,3501.707599999904,3501.707800000191,3503.9378000001907,1257.0,3503.9384000000955,2.0,3503.9645999999047,6.0,9.0,189.0,9.0,1.0,1.6,0.7,Time
,,S10,658375,1,女,21,anonymized,Serial_Dependence_U,2023.2.3,Win32,59.88023952091634,,,,,,3503.9654000000955,330.0,6.0,3503.965599999905,330.0,,,,3508.1582000002863,3508.6565,3507.6383000001906,3508.157900000096,3504.9707000002863,3507.638,3508.6565999999048,3509.157599999905,3509.157599999905,3511.4932000002864,1387.0,3511.4937000002865,2.0,3511.519800000191,6.0,10.0,190.0,14.0,1.0,1.6,0.3,Time
,,S10,658375,1,女,21,anonymized,Serial_Dependence_U,2023.2.3,Win32,59.88023952091634,,,,,,3511.5205999999043,187.0,6.0,3511.5208000001903,187.0,,,,3515.0920999999043,3515.590800000191,3514.574900000095,3515.091900000095,3512.5335000000005,3514.5745999999044,3515.590900000096,3516.090800000191,3516.090800000191,3538.532200000286,1040.0,3538.5324000000955,3.0,3538.5430999999044,6.0,11.0,191.0,6.0,1.0,1.0,0.7,Time
,,S10,658375,1,女,21,anonymized,Serial_Dependence_U,2023.2.3,Win32,59.88023952091634,,,,,,3538.5433000001904,150.0,6.0,3538.5435,150.0,,,,3542.706300000191,3543.206900000096,3542.1958000001905,3542.7059000000954,3539.555599999905,3542.1955,3543.2070000000003,3543.706700000286,3543.706800000191,3545.7202000002862,1469.0,3545.720599999905,2.0,3545.7455,6.0,12.0,192.0,29.0,1.0,1.6,0.7,Time
,,S10,658375,1,女,21,anonymized,Serial_Dependence_U,2023.2.3,Win32,59.88023952091634,,,,,,3545.746200000286,268.0,6.0,3545.7465,268.0,,,,3549.1345,3549.6232000002865,3548.6250999999047,3549.134200000286,3546.7503000001907,3548.6249000000957,3549.6232000002865,3550.1230999999043,3550.1232000002865,3551.366800000191,964.0,3551.367099999905,4.0,3551.3920999999045,6.0,13.0,193.0,20.0,1.0,0.8,0.3,Time
,,S10,658375,1,女,21,anonymized,Serial_Dependence_U,2023.2.3,Win32,59.88023952091634,,,,,,3551.3928000001906,260.0,6.0,3551.3930999999047,260.0,,,,3554.7792000002864,3555.273300000191,3554.275900000095,3554.778900000096,3552.3945000000003,3554.2755999999044,3555.273300000191,3555.773200000286,3555.773300000191,3557.005,932.0,3557.0055,4.0,3557.029900000095,6.0,14.0,194.0,0.0,1.0,0.8,0.3,Time
,,S10,658375,1,女,21,anonymized,Serial_Dependence_U,2023.2.3,Win32,59.88023952091634,,,,,,3557.030599999905,61.0,6.0,3557.031,61.0,,,,3560.4000999999043,3560.889700000286,3559.8838000001906,3560.399900000095,3558.03,3559.883400000095,3560.889700000286,3561.389800000191,3561.3900000000003,3562.626400000096,1068.0,3562.626800000191,5.0,3562.6508000001904,6.0,15.0,195.0,15.0,1.0,0.8,0.7,Time
,,S10,658375,1,女,21,anonymized,Serial_Dependence_U,2023.2.3,Win32,59.88023952091634,,,,,,3562.6514000000952,353.0,6.0,3562.6515999999046,353.0,,,,3566.2274000000957,3566.7229000000957,3565.722400000095,3566.227200000286,3563.655400000095,3565.7220999999045,3566.723,3567.2300999999043,3567.2300999999043,3568.349300000191,1022.0,3568.3495000000003,3.0,3568.3595999999043,6.0,16.0,196.0,11.0,1.0,1.0,0.3,Time
,,S10,658375,1,女,21,anonymized,Serial_Dependence_U,2023.2.3,Win32,59.88023952091634,,,,,,3568.36,154.0,6.0,3568.3600999999044,154.0,,,,3572.5400999999047,3573.039700000286,3572.033099999905,3572.5399000000957,3569.3655,3572.0327000002862,3573.039700000286,3573.5398000001906,3573.5399000000957,3591.564400000096,1007.0,3591.5647000002864,1.0,3591.593099999905,6.0,17.0,197.0,4.0,1.0,1.6,0.3,Time
,,S10,658375,1,女,21,anonymized,Serial_Dependence_U,2023.2.3,Win32,59.88023952091634,,,,,,3591.593900000096,154.0,6.0,3591.594200000286,154.0,,,,3595.559800000191,3596.0557000002864,3595.0472000002865,3595.5597000002863,3592.608400000096,3595.046800000191,3596.055800000191,3596.555900000096,3596.555900000096,3598.5557000002864,1478.0,3598.556,4.0,3598.5657000002857,6.0,18.0,198.0,18.0,1.0,1.4,0.7,Time
,,S10,658375,1,女,21,anonymized,Serial_Dependence_U,2023.2.3,Win32,59.88023952091634,,,,,,3598.566,202.0,6.0,3598.566200000286,202.0,,,,3601.9395000000004,3602.439099999905,3601.429,3601.939400000096,3599.572200000286,3601.4285999999047,3602.4392000002863,3602.938900000096,3602.939,3604.603300000191,1219.0,3604.603800000191,5.0,3604.630300000191,6.0,19.0,199.0,5.0,1.0,0.8,0.7,Time
,,S10,658375,1,女,21,anonymized,Serial_Dependence_U,2023.2.3,Win32,59.88023952091634,,,,,,3604.631,320.0,6.0,3604.631300000191,320.0,,,,3608.204900000095,3608.705800000191,3607.696800000191,3608.204700000286,3605.631400000096,3607.696700000286,3608.705800000191,3609.2055,3609.2055999999047,3610.589,1083.0,3610.589200000286,4.0,3610.598400000096,6.0,20.0,200.0,1.0,1.0,1.0,0.3,Time
,,S10,658375,1,女,21,anonymized,Serial_Dependence_U,2023.2.3,Win32,59.88023952091634,,,,,,3610.598700000286,195.0,6.0,3610.598800000191,195.0,,,,3614.385400000096,3614.8885,3613.8687000002874,3614.385099999905,3611.6030999999048,3613.868400000096,3614.8885999999047,3615.3885,3615.3885999999047,3617.2443000001904,1430.0,3617.244700000286,4.0,3617.269200000286,6.0,21.0,201.0,12.0,1.0,1.2,0.3,Time
,,S10,658375,1,女,21,anonymized,Serial_Dependence_U,2023.2.3,Win32,59.88023952091634,,,,,,3617.269900000096,269.0,6.0,3617.2702000002864,269.0,,,,3620.846900000095,3621.338800000191,3620.333599999904,3620.846700000287,3618.288599999904,3620.3333000001903,3621.338800000191,3621.838599999905,3621.838700000286,3623.690300000191,1395.0,3623.6907000002857,5.0,3623.718,6.0,22.0,202.0,16.0,1.0,1.0,0.7,Time
,,S10,658375,1,女,21,anonymized,Serial_Dependence_U,2023.2.3,Win32,59.88023952091634,,,,,,3623.718800000191,315.0,6.0,3623.7190999999048,315.0,,,,3627.483,3627.971900000095,3626.971700000287,3627.482800000191,3624.7342000002864,3626.971400000095,3627.971900000095,3628.471300000191,3628.471300000191,3630.2892000002857,1589.0,3630.2895,5.0,3630.3163000001914,6.0,23.0,203.0,17.0,1.0,1.2,0.7,Time
,,S10,658375,1,女,21,anonymized,Serial_Dependence_U,2023.2.3,Win32,59.88023952091634,,,,,,3630.3170999999047,134.0,6.0,3630.317300000191,134.0,,,,3634.298800000191,3634.792099999905,3633.795800000191,3634.298700000286,3631.322,3633.795400000096,3634.7922000002864,3635.288099999904,3635.288099999904,3676.596099999904,485.0,3676.5962000002864,1.0,3676.6062000002858,6.0,24.0,204.0,13.0,1.0,1.4,0.3,Time
,,S10,658375,1,女,21,anonymized,Serial_Dependence_U,2023.2.3,Win32,59.88023952091634,,,,,,3676.6065,327.0,6.0,3676.6065999999046,327.0,,,,3680.013700000286,3680.504,3679.500900000096,3680.0135999999047,3677.617300000191,3679.500599999905,3680.5040999999046,3681.003599999905,3681.003599999905,3682.089900000096,707.0,3682.090300000191,2.0,3682.107400000096,6.0,25.0,205.0,10.0,1.0,0.8,0.3,Time
,,S10,658375,1,女,21,anonymized,Serial_Dependence_U,2023.2.3,Win32,59.88023952091634,,,,,,3682.107800000191,145.0,6.0,3682.108,145.0,,,,3685.847800000191,3686.337300000191,3685.345800000191,3685.847599999905,3683.106700000286,3685.3457000002863,3686.337400000095,3686.837400000095,3686.837400000095,3688.5962000002864,1415.0,3688.596400000095,4.0,3688.6069000000953,6.0,26.0,206.0,7.0,1.0,1.2,0.7,Time
,,S10,658375,1,女,21,anonymized,Serial_Dependence_U,2023.2.3,Win32,59.88023952091634,,,,,,3688.6070999999047,17.0,6.0,3688.607400000096,17.0,,,,3692.388700000286,3692.887,3691.8790999999046,3692.3885,3689.6249000000953,3691.8788000001914,3692.887099999904,3693.386900000095,3693.387,3695.165300000191,1548.0,3695.165700000286,4.0,3695.191400000095,6.0,27.0,207.0,27.0,1.0,1.2,0.7,Time
,,S10,658375,1,女,21,anonymized,Serial_Dependence_U,2023.2.3,Win32,59.88023952091634,,,,,,3695.1920999999047,61.0,6.0,3695.192400000096,61.0,,,,3699.340099999905,3699.837099999904,3698.8375,3699.34,3696.200400000095,3698.8372000002864,3699.837099999904,3700.336300000191,3700.336400000096,3702.095,1480.0,3702.0955,2.0,3702.1227000002864,6.0,28.0,208.0,19.0,1.0,1.6,0.7,Time
,,S10,658375,1,女,21,anonymized,Serial_Dependence_U,2023.2.3,Win32,59.88023952091634,,,,,,3702.123400000095,66.0,6.0,3702.1237000002857,66.0,,,,3706.087700000287,3706.586900000096,3705.575,3706.087400000095,3703.128400000095,3705.5747000002857,3706.587,3707.086800000191,3707.087,3708.795099999905,1512.0,3708.7955,4.0,3708.820400000095,6.0,29.0,209.0,28.0,1.0,1.4,0.7,Time
,,S10,658375,1,女,21,anonymized,Serial_Dependence_U,2023.2.3,Win32,59.88023952091634,,,,,,3708.821300000191,62.0,7.0,3749.8412000002863,62.0,s,40.97980000019061,,3753.391099999904,3753.885900000096,3752.8840999999047,3753.390800000191,3750.84,3752.883800000191,3753.886,3754.385300000191,3754.385300000191,3755.3615999999047,664.0,3755.361900000096,1.0,3755.389400000096,7.0,0.0,210.0,16.0,1.0,1.0,0.7,Time
,,S10,658375,1,女,21,anonymized,Serial_Dependence_U,2023.2.3,Win32,59.88023952091634,,,,,,3755.39,200.0,7.0,3755.392800000191,200.0,,,,3758.980599999904,3759.4690999999048,3758.469400000096,3758.980300000191,3756.3907000002864,3758.4690999999048,3759.469200000286,3759.969,3759.969,3761.598800000191,1113.0,3761.599200000286,4.0,3761.625400000096,7.0,1.0,211.0,1.0,1.0,1.0,0.3,Time
,,S10,658375,1,女,21,anonymized,Serial_Dependence_U,2023.2.3,Win32,59.88023952091634,,,,,,3761.626,44.0,7.0,3761.626400000096,44.0,,,,3765.2162000002863,3765.7190999999048,3764.706800000191,3765.216,3762.638,3764.7065,3765.719300000191,3766.219,3766.2190999999048,3767.7265,1043.0,3767.7268000001914,3.0,3767.750800000191,7.0,2.0,212.0,21.0,1.0,1.0,0.3,Time
,,S10,658375,1,女,21,anonymized,Serial_Dependence_U,2023.2.3,Win32,59.88023952091634,,,,,,3767.7515,283.0,7.0,3767.751900000095,283.0,,,,3771.723900000096,3772.218800000191,3771.2045,3771.723800000191,3768.763300000191,3771.204099999904,3772.218800000191,3772.724900000095,3772.724900000095,3774.764800000191,1603.0,3774.7652000002863,4.0,3774.793,7.0,3.0,213.0,8.0,1.0,1.4,0.7,Time
,,S10,658375,1,女,21,anonymized,Serial_Dependence_U,2023.2.3,Win32,59.88023952091634,,,,,,3774.7937000002858,337.0,7.0,3774.7940999999046,337.0,,,,3778.340300000191,3778.835400000096,3777.838099999904,3778.339800000191,3775.7989000000953,3777.8378000001903,3778.835400000096,3779.335700000286,3779.335700000286,3779.973900000096,44.0,3779.974200000286,1.0,3780.0017000002863,7.0,4.0,214.0,26.0,1.0,1.0,0.7,Time
,,S10,658375,1,女,21,anonymized,Serial_Dependence_U,2023.2.3,Win32,59.88023952091634,,,,,,3780.0025,348.0,7.0,3780.0028000001903,348.0,,,,3783.963599999905,3784.458900000095,3783.460599999905,3783.9633000001904,3781.026,3783.460300000191,3784.459,3784.952200000286,3784.952300000191,3786.940099999904,1592.0,3786.9403000001903,4.0,3786.968300000191,7.0,5.0,215.0,18.0,1.0,1.4,0.7,Time
,,S10,658375,1,女,21,anonymized,Serial_Dependence_U,2023.2.3,Win32,59.88023952091634,,,,,,3786.9690999999048,351.0,7.0,3786.9695,351.0,,,,3791.1265,3791.618599999904,3790.619900000095,3791.126400000096,3787.979599999904,3790.619700000286,3791.6187000002856,3792.1188000001903,3792.1188000001903,3793.593,1337.0,3793.5934000000952,2.0,3793.617599999904,7.0,6.0,216.0,9.0,1.0,1.6,0.7,Time
,,S10,658375,1,女,21,anonymized,Serial_Dependence_U,2023.2.3,Win32,59.88023952091634,,,,,,3793.618400000095,60.0,7.0,3793.618900000095,60.0,,,,3797.3727000002855,3797.8685,3796.862400000096,3797.3725,3794.625,3796.862099999905,3797.868599999904,3798.3587000002863,3798.358800000191,3800.988599999904,1587.0,3800.989099999904,5.0,3801.014599999904,7.0,7.0,217.0,17.0,1.0,1.2,0.7,Time
,,S10,658375,1,女,21,anonymized,Serial_Dependence_U,2023.2.3,Win32,59.88023952091634,,,,,,3801.0152000002863,272.0,7.0,3801.015400000095,272.0,,,,3805.203900000095,3805.701599999905,3804.69830000019,3805.203599999904,3802.033099999904,3804.698,3805.701599999905,3806.202099999904,3806.202200000286,3807.604099999904,772.0,3807.6045,1.0,3807.631599999904,7.0,8.0,218.0,24.0,1.0,1.6,0.3,Time
,,S10,658375,1,女,21,anonymized,Serial_Dependence_U,2023.2.3,Win32,59.88023952091634,,,,,,3807.6322000002856,205.0,7.0,3807.632599999904,205.0,,,,3810.994400000095,3811.4842000002855,3810.484400000095,3810.994099999904,3808.644900000095,3810.484,3811.48430000019,3811.985099999904,3811.985099999904,3813.3395,1033.0,3813.339900000096,4.0,3813.367200000286,7.0,9.0,219.0,5.0,1.0,0.8,0.7,Time
,,S10,658375,1,女,21,anonymized,Serial_Dependence_U,2023.2.3,Win32,59.88023952091634,,,,,,3813.368099999904,284.0,7.0,3813.36830000019,284.0,,,,3816.961599999904,3817.450700000286,3816.4538000001903,3816.961400000095,3814.376,3816.453400000095,3817.450700000286,3817.951599999905,3817.951700000286,3821.2663000001903,1094.0,3821.2667000002857,4.0,3821.294200000286,7.0,10.0,220.0,11.0,1.0,1.0,0.3,Time
,,S10,658375,1,女,21,anonymized,Serial_Dependence_U,2023.2.3,Win32,59.88023952091634,,,,,,3821.295,59.0,7.0,3821.295300000191,59.0,,,,3825.2705,3825.768,3824.767800000191,3825.27030000019,3822.294700000286,3824.7675999999046,3825.768,3826.2679000000953,3826.268,3827.855900000095,903.0,3827.8563000001914,1.0,3827.8815,7.0,11.0,221.0,3.0,1.0,1.4,0.3,Time
,,S10,658375,1,女,21,anonymized,Serial_Dependence_U,2023.2.3,Win32,59.88023952091634,,,,,,3827.8822000002856,80.0,7.0,3827.8825,80.0,,,,3831.633800000191,3832.1345,3831.130400000096,3831.6335,3828.895599999904,3831.130099999905,3832.1345,3832.633700000286,3832.633700000286,3834.670400000096,1408.0,3834.670800000191,4.0,3834.699099999904,7.0,12.0,222.0,27.0,1.0,1.2,0.7,Time
,,S10,658375,1,女,21,anonymized,Serial_Dependence_U,2023.2.3,Win32,59.88023952091634,,,,,,3834.699900000095,116.0,7.0,3834.700400000095,116.0,,,,3838.112900000096,3838.600599999904,3837.590400000096,3838.1125,3835.715599999904,3837.590099999905,3838.600599999904,3839.101099999904,3839.101099999904,3839.7395,322.0,3839.739900000095,1.0,3839.770900000095,7.0,13.0,223.0,20.0,1.0,0.8,0.3,Time
,,S10,658375,1,女,21,anonymized,Serial_Dependence_U,2023.2.3,Win32,59.88023952091634,,,,,,3839.7719000000952,184.0,7.0,3839.772300000191,184.0,,,,3843.545,3844.034099999904,3843.0332000002863,3843.544700000286,3840.7809000000952,3843.032900000095,3844.0342000002856,3844.54,3844.54,3845.928800000191,1165.0,3845.929099999905,3.0,3845.9565,7.0,14.0,224.0,7.0,1.0,1.2,0.7,Time
,,S10,658375,1,女,21,anonymized,Serial_Dependence_U,2023.2.3,Win32,59.88023952091634,,,,,,3845.9572000002863,356.0,7.0,3845.957599999904,356.0,,,,3850.095599999904,3850.583599999904,3849.5935,3850.095300000191,3846.955200000286,3849.593200000286,3850.5838000001904,3851.084099999905,3851.084200000286,3852.602,1437.0,3852.6024000000953,2.0,3852.6295999999047,7.0,15.0,225.0,29.0,1.0,1.6,0.7,Time
,,S10,658375,1,女,21,anonymized,Serial_Dependence_U,2023.2.3,Win32,59.88023952091634,,,,,,3852.630400000096,64.0,7.0,3852.630599999904,64.0,,,,3856.847400000095,3857.3508000001902,3856.3338000001904,3856.8472000002857,3853.658099999904,3856.333400000095,3857.350900000095,3857.8505,3857.850599999904,3859.568400000096,1365.0,3859.5687000002863,2.0,3859.5845,7.0,16.0,226.0,4.0,1.0,1.6,0.3,Time
,,S10,658375,1,女,21,anonymized,Serial_Dependence_U,2023.2.3,Win32,59.88023952091634,,,,,,3859.5850999999047,38.0,7.0,3859.585300000191,38.0,,,,3862.978300000191,3863.4673000001903,3862.475200000285,3862.9780999999048,3860.599099999905,3862.475,3863.4673000001903,3863.967,3863.967099999904,3865.3775,1008.0,3865.377599999904,4.0,3865.388700000286,7.0,17.0,227.0,0.0,1.0,0.8,0.3,Time
,,S10,658375,1,女,21,anonymized,Serial_Dependence_U,2023.2.3,Win32,59.88023952091634,,,,,,3865.389,203.0,7.0,3865.389099999905,203.0,,,,3869.188300000191,3869.684099999904,3868.668400000095,3869.188099999905,3866.3962000002857,3868.6682000002857,3869.684099999904,3870.183800000191,3870.183900000096,3871.3935,1020.0,3871.393700000286,2.0,3871.404099999904,7.0,18.0,228.0,12.0,1.0,1.2,0.3,Time
,,S10,658375,1,女,21,anonymized,Serial_Dependence_U,2023.2.3,Win32,59.88023952091634,,,,,,3871.404400000095,355.0,7.0,3871.404599999904,355.0,,,,3875.194,3875.683400000096,3874.691700000286,3875.1937000002863,3872.415,3874.6915,3875.683599999905,3876.184099999904,3876.184200000286,3877.750400000096,1178.0,3877.7505,3.0,3877.759800000191,7.0,19.0,229.0,2.0,1.0,1.2,0.3,Time
,,S10,658375,1,女,21,anonymized,Serial_Dependence_U,2023.2.3,Win32,59.88023952091634,,,,,,3877.760200000286,331.0,7.0,3877.760200000286,331.0,,,,3881.755300000191,3882.250400000096,3881.236700000286,3881.755,3878.76580000019,3881.2364000000953,3882.2505,3882.750200000286,3882.750200000286,3890.557,1184.0,3890.557400000095,2.0,3890.581800000191,7.0,20.0,230.0,23.0,1.0,1.4,0.3,Time
,,S10,658375,1,女,21,anonymized,Serial_Dependence_U,2023.2.3,Win32,59.88023952091634,,,,,,3890.582400000095,1.0,7.0,3890.58280000019,1.0,,,,3893.980900000095,3894.473300000191,3893.469,3893.9808000001904,3891.590800000191,3893.4685999999047,3894.473400000096,3894.974,3894.974099999905,3896.084700000286,651.0,3896.0850999999047,2.0,3896.109099999904,7.0,21.0,231.0,10.0,1.0,0.8,0.3,Time
,,S10,658375,1,女,21,anonymized,Serial_Dependence_U,2023.2.3,Win32,59.88023952091634,,,,,,3896.11,106.0,7.0,3896.110400000095,106.0,,,,3900.311400000095,3900.799900000096,3899.790400000096,3900.3112000002857,3897.111800000191,3899.7900999999047,3900.799900000096,3901.299800000191,3901.299800000191,3903.4205,1425.0,3903.420900000096,2.0,3903.44830000019,7.0,22.0,232.0,14.0,1.0,1.6,0.3,Time
,,S10,658375,1,女,21,anonymized,Serial_Dependence_U,2023.2.3,Win32,59.88023952091634,,,,,,3903.4492000002856,211.0,7.0,3903.4497000002857,211.0,,,,3907.029599999904,3907.532599999904,3906.511900000095,3907.029400000095,3904.45780000019,3906.5117000002856,3907.5327000002862,3908.0337000002855,3908.0338000001902,3911.617200000286,1172.0,3911.617599999904,4.0,3911.64530000019,7.0,23.0,233.0,6.0,1.0,1.0,0.7,Time
,,S10,658375,1,女,21,anonymized,Serial_Dependence_U,2023.2.3,Win32,59.88023952091634,,,,,,3911.646,336.0,7.0,3911.6463000001904,336.0,,,,3915.625900000096,3916.116,3915.106099999905,3915.625700000286,3912.669200000286,3915.1058000001904,3916.1160999999047,3916.605900000095,3916.606099999905,3919.037300000191,1373.0,3919.037700000285,3.0,3919.067900000096,7.0,24.0,234.0,28.0,1.0,1.4,0.7,Time
,,S10,658375,1,女,21,anonymized,Serial_Dependence_U,2023.2.3,Win32,59.88023952091634,,,,,,3919.068900000095,6.0,7.0,3919.069400000095,6.0,,,,3923.229900000095,3923.733200000286,3922.724200000286,3923.229599999904,3920.076900000096,3922.724099999905,3923.733300000191,3924.233,3924.233099999904,3925.416400000096,863.0,3925.416599999904,1.0,3925.4275,7.0,25.0,235.0,19.0,1.0,1.6,0.7,Time
,,S10,658375,1,女,21,anonymized,Serial_Dependence_U,2023.2.3,Win32,59.88023952091634,,,,,,3925.4277000002858,241.0,7.0,3925.4278000001914,241.0,,,,3929.408900000095,3929.89930000019,3928.901200000286,3929.4087000002855,3926.4368000001914,3928.9008000001904,3929.899400000095,3930.406900000096,3930.407,3932.040200000286,1279.0,3932.0405999999048,2.0,3932.0647000002855,7.0,26.0,236.0,13.0,1.0,1.4,0.3,Time
,,S10,658375,1,女,21,anonymized,Serial_Dependence_U,2023.2.3,Win32,59.88023952091634,,,,,,3932.065599999904,122.0,7.0,3932.065900000095,122.0,,,,3935.8497000002862,3936.3495,3935.344400000096,3935.849400000096,3933.0692000002855,3935.344200000286,3936.349599999904,3936.8495,3936.849599999904,3937.327,156.0,3937.3275,1.0,3937.3542000002863,7.0,27.0,237.0,22.0,1.0,1.2,0.3,Time
,,S10,658375,1,女,21,anonymized,Serial_Dependence_U,2023.2.3,Win32,59.88023952091634,,,,,,3937.3545,59.0,7.0,3937.354599999904,59.0,,,,3940.707599999904,3941.199099999904,3940.204099999904,3940.7075,3938.3655999999046,3940.2037000002856,3941.199099999904,3941.689599999904,3941.6897000002855,3943.096900000095,1060.0,3943.097400000095,5.0,3943.125,7.0,28.0,238.0,15.0,1.0,0.8,0.7,Time
,,S10,658375,1,女,21,anonymized,Serial_Dependence_U,2023.2.3,Win32,59.88023952091634,,,,,,3943.125700000286,292.0,7.0,3943.126099999904,292.0,,,,3946.49,3946.9820999999047,3945.9837000002863,3946.489900000095,3944.133200000286,3945.983300000191,3946.982200000286,3947.482300000191,3947.482400000096,3948.8275,1059.0,3948.82780000019,5.0,3948.855,7.0,29.0,239.0,25.0,1.0,0.8,0.7,Time
,,S10,658375,1,女,21,anonymized,Serial_Dependence_U,2023.2.3,Win32,59.88023952091634,,,,,,3948.8557000002857,143.0,8.0,4210.55530000019,143.0,s,261.6570000000001,,4213.916599999904,4214.410700000286,4213.401800000191,4213.916400000096,4211.562200000286,4213.401700000286,4214.410800000191,4214.901400000095,4214.901400000095,4216.52130000019,1032.0,4216.5215,4.0,4216.533099999904,8.0,0.0,240.0,15.0,1.0,0.8,0.7,Time
,,S10,658375,1,女,21,anonymized,Serial_Dependence_U,2023.2.3,Win32,59.88023952091634,,,,,,4216.533599999904,181.0,8.0,4216.5365,181.0,,,,4220.513,4221.010599999904,4220.010700000286,4220.512700000286,4217.543900000095,4220.010499999999,4221.010599999904,4221.510599999904,4221.510700000286,4222.637700000286,794.0,4222.637900000095,1.0,4222.649200000286,8.0,1.0,241.0,13.0,1.0,1.4,0.3,Time
,,S10,658375,1,女,21,anonymized,Serial_Dependence_U,2023.2.3,Win32,59.88023952091634,,,,,,4222.6495,75.0,8.0,4222.649599999904,75.0,,,,4226.817400000095,4227.31,4226.3065,4226.817300000191,4223.6542000002855,4226.30630000019,4227.310099999904,4227.81030000019,4227.810400000095,4230.882900000095,961.0,4230.883300000191,1.0,4230.910800000191,8.0,2.0,242.0,9.0,1.0,1.6,0.7,Time
,,S10,658375,1,女,21,anonymized,Serial_Dependence_U,2023.2.3,Win32,59.88023952091634,,,,,,4230.911599999905,123.0,8.0,4230.911999999999,123.0,,,,4234.494800000191,4234.982599999905,4233.977200000286,4234.4945999999045,4231.9225,4233.976900000095,4234.982599999905,4235.4765999999045,4235.476700000286,4237.018099999905,1142.0,4237.018400000095,4.0,4237.045599999904,8.0,3.0,243.0,26.0,1.0,1.0,0.7,Time
,,S10,658375,1,女,21,anonymized,Serial_Dependence_U,2023.2.3,Win32,59.88023952091634,,,,,,4237.046400000095,109.0,8.0,4237.046700000285,109.0,,,,4240.835700000286,4241.326599999905,4240.329700000286,4240.8355,4238.059200000286,4240.329200000286,4241.326700000286,4241.833900000095,4241.833900000095,4242.902,717.0,4242.902400000095,1.0,4242.9265,8.0,4.0,244.0,12.0,1.0,1.2,0.3,Time
,,S10,658375,1,女,21,anonymized,Serial_Dependence_U,2023.2.3,Win32,59.88023952091634,,,,,,4242.927200000286,175.0,8.0,4242.927400000095,175.0,,,,4246.318700000286,4246.809599999904,4245.813599999904,4246.318499999999,4243.937300000191,4245.813200000286,4246.809700000286,4247.30980000019,4247.30980000019,4248.661099999905,920.0,4248.661599999905,4.0,4248.688599999904,8.0,5.0,245.0,0.0,1.0,0.8,0.3,Time
,,S10,658375,1,女,21,anonymized,Serial_Dependence_U,2023.2.3,Win32,59.88023952091634,,,,,,4248.689400000095,52.0,8.0,4248.6897000002855,52.0,,,,4252.456900000095,4252.959599999905,4251.949400000095,4252.456700000286,4249.703700000286,4251.949099999904,4252.959700000286,4253.459800000191,4253.459900000095,4255.370599999905,1249.0,4255.370800000191,3.0,4255.39580000019,8.0,6.0,246.0,17.0,1.0,1.2,0.7,Time
,,S10,658375,1,女,21,anonymized,Serial_Dependence_U,2023.2.3,Win32,59.88023952091634,,,,,,4255.396700000286,33.0,8.0,4255.397,33.0,,,,4259.157599999904,4259.65980000019,4258.635599999904,4259.157300000191,4256.401700000286,4258.635400000095,4259.65980000019,4260.1595,4260.1595,4261.568700000286,973.0,4261.56880000019,2.0,4261.578400000095,8.0,7.0,247.0,7.0,1.0,1.2,0.7,Time
,,S10,658375,1,女,21,anonymized,Serial_Dependence_U,2023.2.3,Win32,59.88023952091634,,,,,,4261.578700000286,284.0,8.0,4261.579,284.0,,,,4265.38130000019,4265.876200000286,4264.867300000191,4265.381099999904,4262.594800000191,4264.867300000191,4265.876200000286,4266.376099999904,4266.376200000286,4267.960200000286,1146.0,4267.960599999905,3.0,4267.985099999904,8.0,8.0,248.0,22.0,1.0,1.2,0.3,Time
,,S10,658375,1,女,21,anonymized,Serial_Dependence_U,2023.2.3,Win32,59.88023952091634,,,,,,4267.986,32.0,8.0,4267.9865,32.0,,,,4271.975099999904,4272.476200000286,4271.464,4271.974700000286,4268.98530000019,4271.463599999905,4272.476200000286,4272.97630000019,4272.976400000095,4310.782700000286,962.0,4310.783099999904,1.0,4310.81130000019,8.0,9.0,249.0,3.0,1.0,1.4,0.3,Time
,,S10,658375,1,女,21,anonymized,Serial_Dependence_U,2023.2.3,Win32,59.88023952091634,,,,,,4310.812200000286,109.0,8.0,4310.8125,109.0,,,,4315.019099999904,4315.508300000191,4314.508200000286,4315.018900000096,4311.828900000095,4314.507900000095,4315.508400000095,4316.008,4316.008,4319.149400000095,964.0,4319.1497000002855,1.0,4319.174900000096,8.0,10.0,250.0,4.0,1.0,1.6,0.3,Time
