Scale_setup.started,Scale_setup.stopped,participant,session,sex,age,date,expName,psychopyVersion,OS,frameRate,screen_scale_keys.started,screen_scale_keys.stopped,X Scale,Y Scale,rectangel_keys.started,rectangel_keys.stopped,Intro.started,Intro.stopped,key_resp_2.keys,key_resp_2.rt,key_resp_2.duration,block.started,Block_id,block.stopped,Block_resp_2.keys,Block_resp_2.rt,Block_resp_2.duration,ITI.started,ITI.stopped,Mask_2.started,Mask_2.stopped,M2.started,direction,M2.stopped,Cue.started,Cue.stopped,Response.started,Response.stopped,keyDuration,Feedback_Time.started,FeedbackID_T,Feedback_Time.stopped,trials.thisRepN,trials.thisTrialN,trials.thisN,trials.thisIndex,trials.ran,TimeDur,Coherence1,TrialType
0.0002,0.0004,S10,1,Male,30,anonymized,Serial_Dependence_U,2023.2.3,Win32,59.88023952,,,,,,,,,,,,,,,,,,,,,,,,,,,,,,,,,,,,,,,,
,,S10,1,Male,30,anonymized,Serial_Dependence_U,2023.2.3,Win32,59.88023952,0.0023,91.0773,0.0702,0.0663,91.0783,92.4111,92.4118,94.1096,space,1.6351,,,,,,,,,,,,,,,,,,,,,,,,,,,,,,
,,S10,1,Male,30,anonymized,Serial_Dependence_U,2023.2.3,Win32,59.88023952,,,,,,,,,,,,94.122,0.0,99.2261,s,5.0635,,101.5774,102.0751,101.0593,101.5769,100.243,101.0,101.0592,102.0752,102.5759,102.5772,103.7939,980.9,103.7942,4.0,104.7923,0.0,0.0,0.0,15.0,1.0,0.8,0.7,Time
,,S10,1,Male,30,anonymized,Serial_Dependence_U,2023.2.3,Win32,59.88023952,,,,,,,,,,,,104.7944,0.0,104.7986,,,,107.5424,108.0415,107.0275,107.5423,105.8106,338.0,107.0269,108.0415,108.5422,108.5424,110.2427,865.8,110.2437,2.0,111.2417,0.0,1.0,1.0,2.0,1.0,1.2,0.3,Time
,,S10,1,Male,30,anonymized,Serial_Dependence_U,2023.2.3,Win32,59.88023952,,,,,,,,,,,,111.2433,0.0,111.2438,,,,113.9928,114.4917,113.4764,113.9924,112.2606,313.0,113.476,114.4919,114.992,114.9921,116.5429,964.3,116.5438,2.0,117.5422,0.0,2.0,2.0,22.0,1.0,1.2,0.3,Time
,,S10,1,Male,30,anonymized,Serial_Dependence_U,2023.2.3,Win32,59.88023952,,,,,,,,,,,,117.5436,0.0,117.5443,,,,119.8932,120.3912,119.3764,119.893,118.5587,148.0,119.3759,120.3912,120.8914,120.8915,122.6418,1183.4,122.6426,5.0,123.6407,0.0,3.0,3.0,5.0,1.0,0.8,0.7,Time
,,S10,1,Male,30,anonymized,Serial_Dependence_U,2023.2.3,Win32,59.88023952,,,,,,,,,,,,123.6413,0.0,123.6415,,,,126.1755,126.6744,125.6582,126.175,124.6432,29.0,125.6581,126.6745,127.1745,127.1747,129.0074,1335.1,129.0078,5.0,130.0073,0.0,4.0,4.0,11.0,1.0,1.0,0.3,Time
,,S10,1,Male,30,anonymized,Serial_Dependence_U,2023.2.3,Win32,59.88023952,,,,,,,,,,,,130.0084,0.0,130.0091,,,,132.5592,133.0569,132.0427,132.5588,131.0258,179.0,132.0423,133.057,133.5576,133.5577,135.1912,1128.4,135.1923,4.0,136.1907,0.0,5.0,5.0,21.0,1.0,1.0,0.3,Time
,,S10,1,Male,30,anonymized,Serial_Dependence_U,2023.2.3,Win32,59.88023952,,,,,,,,,,,,136.1923,0.0,136.193,,,,139.1418,139.6403,138.6258,139.1415,137.2076,152.0,138.6257,139.6404,140.1404,140.1405,141.8241,1100.3,141.8248,2.0,142.8237,0.0,6.0,6.0,3.0,1.0,1.4,0.3,Time
,,S10,1,Male,30,anonymized,Serial_Dependence_U,2023.2.3,Win32,59.88023952,,,,,,,,,,,,142.8254,0.0,142.8263,,,,145.5751,146.0733,145.0588,145.5747,143.8422,161.0,145.0582,146.0734,146.5731,146.5732,147.9402,1299.1,147.9404,4.0,148.94,0.0,7.0,7.0,27.0,1.0,1.2,0.7,Time
,,S10,1,Male,30,anonymized,Serial_Dependence_U,2023.2.3,Win32,59.88023952,,,,,,,,,,,,148.9416,0.0,148.9424,,,,152.091,152.5892,151.575,152.0905,149.9585,236.0,151.5746,152.5892,153.0894,153.0894,154.24,732.3,154.2406,1.0,155.2398,0.0,8.0,8.0,24.0,1.0,1.6,0.3,Time
,,S10,1,Male,30,anonymized,Serial_Dependence_U,2023.2.3,Win32,59.88023952,,,,,,,,,,,,155.2414,0.0,155.2421,,,,157.9915,158.4896,157.4734,157.9913,156.2578,61.0,157.4733,158.4896,158.9895,158.9896,160.7231,1217.5,160.7235,3.0,161.7226,0.0,9.0,9.0,12.0,1.0,1.2,0.3,Time
,,S10,1,Male,30,anonymized,Serial_Dependence_U,2023.2.3,Win32,59.88023952,,,,,,,,,,,,161.7244,0.0,161.7252,,,,164.6574,165.1552,164.1403,164.6569,162.7241,341.0,164.1399,165.1552,165.6561,165.6562,168.4226,1131.0,168.4229,2.0,169.4222,0.0,10.0,10.0,13.0,1.0,1.4,0.3,Time
,,S10,1,Male,30,anonymized,Serial_Dependence_U,2023.2.3,Win32,59.88023952,,,,,,,,,,,,169.4237,0.0,169.4246,,,,171.7745,172.2724,171.2575,171.7744,170.4391,227.0,171.2569,172.2724,172.7723,172.7724,174.5388,1144.3,174.5393,5.0,175.5386,0.0,11.0,11.0,0.0,1.0,0.8,0.3,Time
,,S10,1,Male,30,anonymized,Serial_Dependence_U,2023.2.3,Win32,59.88023952,,,,,,,,,,,,175.54,0.0,175.5409,,,,177.8736,178.3716,177.356,177.8735,176.5391,157.0,177.3556,178.3716,178.8718,178.8719,179.0047,88.30000001,179.005,1.0,180.005,0.0,12.0,12.0,25.0,1.0,0.8,0.7,Time
,,S10,1,Male,30,anonymized,Serial_Dependence_U,2023.2.3,Win32,59.88023952,,,,,,,,,,,,180.0066,0.0,180.0076,,,,183.1401,183.6376,182.6383,183.14,181.0231,132.0,182.6382,183.6377,184.1376,184.1377,189.5218,847.8,189.5231,1.0,190.5208,0.0,13.0,13.0,9.0,1.0,1.6,0.7,Time
,,S10,1,Male,30,anonymized,Serial_Dependence_U,2023.2.3,Win32,59.88023952,,,,,,,,,,,,190.5219,0.0,190.5227,,,,193.4712,193.9712,192.9563,193.4711,191.538,167.0,192.956,193.9713,194.4711,194.4711,197.0045,1302.4,197.005,2.0,198.0037,0.0,14.0,14.0,18.0,1.0,1.4,0.7,Time
,,S10,1,Male,30,anonymized,Serial_Dependence_U,2023.2.3,Win32,59.88023952,,,,,,,,,,,,198.0051,0.0,198.0057,,,,200.3546,200.8536,199.8376,200.3545,199.0227,134.0,199.8374,200.8537,201.3536,201.3537,204.6036,982.0,204.6038,4.0,205.6037,0.0,15.0,15.0,10.0,1.0,0.8,0.3,Time
,,S10,1,Male,30,anonymized,Serial_Dependence_U,2023.2.3,Win32,59.88023952,,,,,,,,,,,,205.6055,0.0,205.6062,,,,208.1553,208.6535,207.639,208.1551,206.6204,307.0,207.6388,208.6536,209.1532,209.1533,211.5377,1082.6,211.5385,4.0,212.5369,0.0,16.0,16.0,16.0,1.0,1.0,0.7,Time
,,S10,1,Male,30,anonymized,Serial_Dependence_U,2023.2.3,Win32,59.88023952,,,,,,,,,,,,212.5389,0.0,212.5395,,,,215.6933,216.1861,215.1709,215.6927,213.5534,84.0,215.1704,216.1863,216.6862,216.6862,219.8533,1897.6,219.8537,4.0,220.8525,0.0,17.0,17.0,14.0,1.0,1.6,0.3,Time
,,S10,1,Male,30,anonymized,Serial_Dependence_U,2023.2.3,Win32,59.88023952,,,,,,,,,,,,220.8532,0.0,220.8538,,,,224.0034,224.5026,223.4871,224.0032,221.87,253.0,223.4868,224.5027,225.0028,225.0029,227.0028,1531.8,227.0033,3.0,228.0021,0.0,18.0,18.0,4.0,1.0,1.6,0.3,Time
,,S10,1,Male,30,anonymized,Serial_Dependence_U,2023.2.3,Win32,59.88023952,,,,,,,,,,,,228.0033,0.0,228.0039,,,,231.1534,231.652,230.6357,231.1531,229.02,189.0,230.6356,231.6521,232.1518,232.1519,234.119,1432.4,234.1193,2.0,235.1189,0.0,19.0,19.0,19.0,1.0,1.6,0.7,Time
,,S10,1,Male,30,anonymized,Serial_Dependence_U,2023.2.3,Win32,59.88023952,,,,,,,,,,,,235.1208,0.0,235.1214,,,,238.2705,238.7685,237.754,238.27,236.1374,337.0,237.7536,238.7686,239.2688,239.2689,241.7688,1968.3,241.7694,4.0,242.7681,0.0,20.0,20.0,29.0,1.0,1.6,0.7,Time
,,S10,1,Male,30,anonymized,Serial_Dependence_U,2023.2.3,Win32,59.88023952,,,,,,,,,,,,242.7691,0.0,242.7696,,,,245.3202,245.8186,244.8036,245.3197,243.7867,200.0,244.8032,245.8187,246.3182,246.3183,248.4852,1180.6,248.4857,4.0,249.4848,0.0,21.0,21.0,6.0,1.0,1.0,0.7,Time
,,S10,1,Male,30,anonymized,Serial_Dependence_U,2023.2.3,Win32,59.88023952,,,,,,,,,,,,249.4866,0.0,249.4872,,,,252.0364,252.5344,251.5201,252.036,250.5025,182.0,251.5197,252.5345,253.0345,253.0346,255.0182,1100.2,255.0188,4.0,256.0172,0.0,22.0,22.0,26.0,1.0,1.0,0.7,Time
,,S10,1,Male,30,anonymized,Serial_Dependence_U,2023.2.3,Win32,59.88023952,,,,,,,,,,,,256.018,0.0,256.0189,,,,258.9525,259.4505,258.4351,258.9523,257.0188,34.0,258.435,259.4506,259.9509,259.9511,261.7847,1248.7,261.7854,2.0,262.7843,0.0,23.0,23.0,23.0,1.0,1.4,0.3,Time
,,S10,1,Male,30,anonymized,Serial_Dependence_U,2023.2.3,Win32,59.88023952,,,,,,,,,,,,262.7862,0.0,262.7868,,,,265.5192,266.0168,265.0173,265.5191,263.8007,255.0,265.0172,266.0168,266.5171,266.5173,268.9679,1166.4,268.9687,3.0,269.9681,0.0,24.0,24.0,17.0,1.0,1.2,0.7,Time
,,S10,1,Male,30,anonymized,Serial_Dependence_U,2023.2.3,Win32,59.88023952,,,,,,,,,,,,269.9698,0.0,269.9704,,,,272.9189,273.4163,272.4017,272.9185,270.9856,99.0,272.4012,273.4164,273.9168,273.917,275.8343,1297.1,275.8354,2.0,276.8333,0.0,25.0,25.0,8.0,1.0,1.4,0.7,Time
,,S10,1,Male,30,anonymized,Serial_Dependence_U,2023.2.3,Win32,59.88023952,,,,,,,,,,,,276.8351,0.0,276.8358,,,,279.1853,279.683,278.6675,279.1849,277.8518,9.0,278.6671,279.6831,280.1831,280.1833,281.1496,799.8,281.1498,3.0,282.1498,0.0,26.0,26.0,20.0,1.0,0.8,0.3,Time
,,S10,1,Male,30,anonymized,Serial_Dependence_U,2023.2.3,Win32,59.88023952,,,,,,,,,,,,282.1518,0.0,282.1523,,,,284.9013,285.3995,284.3843,284.9013,283.1684,202.0,284.3839,285.3995,285.8996,285.8997,287.7498,662.0,287.7502,1.0,288.7495,0.0,27.0,27.0,7.0,1.0,1.2,0.7,Time
,,S10,1,Male,30,anonymized,Serial_Dependence_U,2023.2.3,Win32,59.88023952,,,,,,,,,,,,288.7512,0.0,288.7518,,,,291.701,292.1988,291.1842,291.7005,289.7665,309.0,291.1838,292.1989,292.6992,292.6993,294.6999,1397.2,294.7007,3.0,295.6994,0.0,28.0,28.0,28.0,1.0,1.4,0.7,Time
,,S10,1,Male,30,anonymized,Serial_Dependence_U,2023.2.3,Win32,59.88023952,,,,,,,,,,,,295.7014,0.0,295.7019,,,,298.2507,298.7488,297.7323,298.2503,296.7176,174.0,297.7322,298.7488,299.2491,299.2492,301.3827,985.4,301.3836,3.0,302.3821,0.0,29.0,29.0,1.0,1.0,1.0,0.3,Time
,,S10,1,Male,30,anonymized,Serial_Dependence_U,2023.2.3,Win32,59.88023952,,,,,,,,,,,,302.3838,1.0,313.7172,s,11.3071,,316.6666,317.1642,316.1495,316.6664,314.7331,293.0,316.1493,317.1643,317.6646,317.6646,320.5974,1381.6,320.5978,3.0,321.5977,1.0,0.0,30.0,13.0,1.0,1.4,0.3,Time
,,S10,1,Male,30,anonymized,Serial_Dependence_U,2023.2.3,Win32,59.88023952,,,,,,,,,,,,321.599,1.0,321.6036,,,,324.5476,325.0474,324.0317,324.5475,322.6144,64.0,324.0313,325.0475,325.5474,325.5475,327.7975,1164.6,327.7979,2.0,328.7974,1.0,1.0,31.0,8.0,1.0,1.4,0.7,Time
,,S10,1,Male,30,anonymized,Serial_Dependence_U,2023.2.3,Win32,59.88023952,,,,,,,,,,,,328.7995,1.0,328.8001,,,,331.9484,332.447,331.4319,331.9479,329.8154,91.0,331.4316,332.4471,332.9471,332.9472,334.6642,1315.6,334.6648,2.0,335.6636,1.0,2.0,32.0,4.0,1.0,1.6,0.3,Time
,,S10,1,Male,30,anonymized,Serial_Dependence_U,2023.2.3,Win32,59.88023952,,,,,,,,,,,,335.6656,1.0,335.6662,,,,338.8153,339.3133,338.2983,338.8149,336.6804,304.0,338.2977,339.3134,339.8135,339.8136,341.6803,1784.0,341.6807,4.0,342.6799,1.0,3.0,33.0,24.0,1.0,1.6,0.3,Time
,,S10,1,Male,30,anonymized,Serial_Dependence_U,2023.2.3,Win32,59.88023952,,,,,,,,,,,,342.6817,1.0,342.6827,,,,345.0315,345.5296,344.5149,345.0312,343.6985,269.0,344.5145,345.5296,346.0296,346.0296,347.0636,933.0,347.0644,4.0,348.0624,1.0,4.0,34.0,15.0,1.0,0.8,0.7,Time
,,S10,1,Male,30,anonymized,Serial_Dependence_U,2023.2.3,Win32,59.88023952,,,,,,,,,,,,348.063,1.0,348.0635,,,,350.4129,350.9127,349.8983,350.4128,349.0816,28.0,349.8982,350.9127,351.4128,351.4129,353.0964,969.8,353.0968,4.0,354.0962,1.0,5.0,35.0,0.0,1.0,0.8,0.3,Time
,,S10,1,Male,30,anonymized,Serial_Dependence_U,2023.2.3,Win32,59.88023952,,,,,,,,,,,,354.098,1.0,354.0986,,,,356.8312,357.329,356.3141,356.8309,355.0979,341.0,356.3135,357.3291,357.8291,357.8292,359.713,1448.2,359.7138,4.0,360.7124,1.0,6.0,36.0,2.0,1.0,1.2,0.3,Time
,,S10,1,Male,30,anonymized,Serial_Dependence_U,2023.2.3,Win32,59.88023952,,,,,,,,,,,,360.7144,1.0,360.715,,,,363.4642,363.962,362.948,363.4638,361.7308,2.0,362.9478,363.9622,364.4623,364.4624,366.0119,1133.9,366.0121,2.0,367.0119,1.0,7.0,37.0,27.0,1.0,1.2,0.7,Time
,,S10,1,Male,30,anonymized,Serial_Dependence_U,2023.2.3,Win32,59.88023952,,,,,,,,,,,,367.0136,1.0,367.0143,,,,369.5633,370.0615,369.046,369.5632,368.0303,302.0,369.0459,370.0615,370.5619,370.562,376.4957,849.9,376.4967,2.0,377.4947,1.0,8.0,38.0,6.0,1.0,1.0,0.7,Time
,,S10,1,Male,30,anonymized,Serial_Dependence_U,2023.2.3,Win32,59.88023952,,,,,,,,,,,,377.4963,1.0,377.4968,,,,380.0468,380.5444,379.5296,380.0463,378.5132,349.0,379.5292,380.5444,381.0442,381.0443,387.0623,9999.0,387.063,0.0,388.0611,1.0,9.0,39.0,11.0,1.0,1.0,0.3,Time
,,S10,1,Male,30,anonymized,Serial_Dependence_U,2023.2.3,Win32,59.88023952,,,,,,,,,,,,388.063,1.0,388.0637,,,,390.4126,390.9112,389.8957,390.412,389.0785,58.0,389.8952,390.9117,391.4105,391.4105,393.727,543.8,393.7273,1.0,394.727,1.0,10.0,40.0,10.0,1.0,0.8,0.3,Time
,,S10,1,Male,30,anonymized,Serial_Dependence_U,2023.2.3,Win32,59.88023952,,,,,,,,,,,,394.7283,1.0,394.7291,,,,397.0791,397.5769,396.562,397.0789,395.7446,134.0,396.5617,397.577,398.0769,398.0771,400.3767,1231.2,400.3769,5.0,401.3765,1.0,11.0,41.0,5.0,1.0,0.8,0.7,Time
,,S10,1,Male,30,anonymized,Serial_Dependence_U,2023.2.3,Win32,59.88023952,,,,,,,,,,,,401.3777,1.0,401.3785,,,,404.5273,405.0262,404.0108,404.527,402.3977,200.0,404.0107,405.0262,405.5268,405.5268,411.5435,9999.0,411.5443,0.0,412.5429,1.0,12.0,42.0,19.0,1.0,1.6,0.7,Time
,,S10,1,Male,30,anonymized,Serial_Dependence_U,2023.2.3,Win32,59.88023952,,,,,,,,,,,,412.5445,1.0,412.5453,,,,415.4943,415.9925,414.9782,415.494,413.5607,288.0,414.9776,415.9925,416.4927,416.4928,420.7929,1385.8,420.7935,3.0,421.7924,1.0,13.0,43.0,23.0,1.0,1.4,0.3,Time
,,S10,1,Male,30,anonymized,Serial_Dependence_U,2023.2.3,Win32,59.88023952,,,,,,,,,,,,421.7942,1.0,421.7949,,,,424.1431,424.6417,423.6276,424.1427,422.811,130.0,423.6273,424.6417,425.1421,425.1422,427.2261,649.2,427.2265,2.0,428.2255,1.0,14.0,44.0,25.0,1.0,0.8,0.7,Time
,,S10,1,Male,30,anonymized,Serial_Dependence_U,2023.2.3,Win32,59.88023952,,,,,,,,,,,,428.2273,1.0,428.2279,,,,430.776,431.2753,430.2601,430.7758,429.2436,180.0,430.2595,431.2754,431.7752,431.7753,433.759,1080.5,433.7598,4.0,434.7583,1.0,15.0,45.0,26.0,1.0,1.0,0.7,Time
,,S10,1,Male,30,anonymized,Serial_Dependence_U,2023.2.3,Win32,59.88023952,,,,,,,,,,,,434.7597,1.0,434.7608,,,,437.9103,438.4083,437.3929,437.9101,435.7751,196.0,437.3927,438.4084,438.9082,438.9084,441.2416,1393.0,441.2419,2.0,442.2411,1.0,16.0,46.0,29.0,1.0,1.6,0.7,Time
,,S10,1,Male,30,anonymized,Serial_Dependence_U,2023.2.3,Win32,59.88023952,,,,,,,,,,,,442.2422,1.0,442.243,,,,444.5914,445.0909,444.0758,444.5912,443.2597,158.0,444.0754,445.091,445.5911,445.5911,447.6913,1294.6,447.6916,5.0,448.6908,1.0,17.0,47.0,20.0,1.0,0.8,0.3,Time
,,S10,1,Male,30,anonymized,Serial_Dependence_U,2023.2.3,Win32,59.88023952,,,,,,,,,,,,448.6923,1.0,448.6929,,,,451.4427,451.9408,450.9258,451.4423,449.7094,47.0,450.9254,451.9408,452.4408,452.4409,454.8413,1247.2,454.8422,3.0,455.8408,1.0,18.0,48.0,17.0,1.0,1.2,0.7,Time
,,S10,1,Male,30,anonymized,Serial_Dependence_U,2023.2.3,Win32,59.88023952,,,,,,,,,,,,455.8426,1.0,455.8437,,,,458.5926,459.0903,458.0743,458.5924,456.8574,290.0,458.0743,459.0903,459.5905,459.5907,461.6905,1262.0,461.6908,4.0,462.6904,1.0,19.0,49.0,7.0,1.0,1.2,0.7,Time
,,S10,1,Male,30,anonymized,Serial_Dependence_U,2023.2.3,Win32,59.88023952,,,,,,,,,,,,462.6919,1.0,462.6928,,,,465.8419,466.3402,465.3252,465.8417,463.7086,314.0,465.3247,466.3403,466.8401,466.8403,469.2238,1314.5,469.2243,2.0,470.2235,1.0,20.0,50.0,14.0,1.0,1.6,0.3,Time
,,S10,1,Male,30,anonymized,Serial_Dependence_U,2023.2.3,Win32,59.88023952,,,,,,,,,,,,470.2251,1.0,470.226,,,,473.1578,473.6563,472.6416,473.1572,471.2398,136.0,472.6412,473.6564,474.1564,474.1565,476.1737,1298.7,476.1744,2.0,477.1728,1.0,21.0,51.0,28.0,1.0,1.4,0.7,Time
,,S10,1,Male,30,anonymized,Serial_Dependence_U,2023.2.3,Win32,59.88023952,,,,,,,,,,,,477.1741,1.0,477.1748,,,,479.7233,480.2228,479.2074,479.723,478.1908,53.0,479.2068,480.2229,480.7229,480.7229,482.4565,945.8,482.4571,2.0,483.456,1.0,22.0,52.0,21.0,1.0,1.0,0.3,Time
,,S10,1,Male,30,anonymized,Serial_Dependence_U,2023.2.3,Win32,59.88023952,,,,,,,,,,,,483.458,1.0,483.4587,,,,486.2079,486.7057,485.6906,486.2075,484.4742,40.0,485.6902,486.7058,487.2056,487.2058,489.0892,1180.3,489.0895,3.0,490.089,1.0,23.0,53.0,22.0,1.0,1.2,0.3,Time
,,S10,1,Male,30,anonymized,Serial_Dependence_U,2023.2.3,Win32,59.88023952,,,,,,,,,,,,490.0911,1.0,490.0922,,,,492.8389,493.3386,492.3242,492.8388,491.1071,300.0,492.3238,493.3387,493.8386,493.8388,496.2888,1697.5,496.2892,5.0,497.2885,1.0,24.0,54.0,12.0,1.0,1.2,0.3,Time
,,S10,1,Male,30,anonymized,Serial_Dependence_U,2023.2.3,Win32,59.88023952,,,,,,,,,,,,497.2901,1.0,497.2908,,,,500.4402,500.9381,499.9234,500.4398,498.3052,133.0,499.9233,500.9381,501.4384,501.4386,503.3386,1200.0,503.3391,2.0,504.3381,1.0,25.0,55.0,9.0,1.0,1.6,0.7,Time
,,S10,1,Male,30,anonymized,Serial_Dependence_U,2023.2.3,Win32,59.88023952,,,,,,,,,,,,504.3398,1.0,504.3406,,,,507.2896,507.788,506.7734,507.2892,505.3557,261.0,506.7732,507.788,508.2881,508.2882,510.2555,1168.3,510.256,2.0,511.2544,1.0,26.0,56.0,3.0,1.0,1.4,0.3,Time
,,S10,1,Male,30,anonymized,Serial_Dependence_U,2023.2.3,Win32,59.88023952,,,,,,,,,,,,511.2562,1.0,511.2569,,,,513.8063,514.3042,513.2897,513.8061,512.2714,220.0,513.2895,514.3043,514.8041,514.8042,517.0879,1378.8,517.0883,5.0,518.0877,1.0,27.0,57.0,16.0,1.0,1.0,0.7,Time
,,S10,1,Male,30,anonymized,Serial_Dependence_U,2023.2.3,Win32,59.88023952,,,,,,,,,,,,518.0896,1.0,518.0901,,,,520.639,521.1374,520.1229,520.6385,519.1055,58.0,520.1226,521.1374,521.6374,521.6375,522.8557,720.4,522.8563,2.0,523.8537,1.0,28.0,58.0,1.0,1.0,1.0,0.3,Time
,,S10,1,Male,30,anonymized,Serial_Dependence_U,2023.2.3,Win32,59.88023952,,,,,,,,,,,,523.855,1.0,523.8559,,,,526.8047,527.3031,526.287,526.8045,524.8722,96.0,526.287,527.3032,527.8035,527.8036,529.7706,1348.8,529.7712,3.0,530.7696,1.0,29.0,59.0,18.0,1.0,1.4,0.7,Time
,,S10,1,Male,30,anonymized,Serial_Dependence_U,2023.2.3,Win32,59.88023952,,,,,,,,,,,,530.7702,2.0,532.7037,s,1.9136,,535.6546,536.1526,535.1385,535.6543,533.722,116.0,535.138,536.1527,536.6533,536.6534,539.4379,1720.7,539.4382,4.0,540.4364,2.0,0.0,60.0,28.0,1.0,1.4,0.7,Time
,,S10,1,Male,30,anonymized,Serial_Dependence_U,2023.2.3,Win32,59.88023952,,,,,,,,,,,,540.4383,2.0,540.4423,,,,543.3715,543.869,542.8695,543.3713,541.455,180.0,542.8695,543.869,544.3694,544.3695,546.42,1383.4,546.4207,3.0,547.4191,2.0,1.0,61.0,18.0,1.0,1.4,0.7,Time
,,S10,1,Male,30,anonymized,Serial_Dependence_U,2023.2.3,Win32,59.88023952,,,,,,,,,,,,547.4205,2.0,547.4215,,,,549.9655,550.4634,549.4553,549.9653,548.4371,294.0,549.4551,550.4635,550.9462,550.9463,556.9524,9999.0,556.9533,0.0,557.9516,2.0,2.0,62.0,6.0,1.0,1.0,0.7,Time
,,S10,1,Male,30,anonymized,Serial_Dependence_U,2023.2.3,Win32,59.88023952,,,,,,,,,,,,557.9525,2.0,557.953,,,,560.5022,561.0013,559.9864,560.5021,558.9705,334.0,559.986,561.0014,561.5014,561.5015,563.4183,782.9,563.4187,2.0,564.4179,2.0,3.0,63.0,21.0,1.0,1.0,0.3,Time
,,S10,1,Male,30,anonymized,Serial_Dependence_U,2023.2.3,Win32,59.88023952,,,,,,,,,,,,564.4185,2.0,564.4188,,,,566.7683,567.2677,566.2517,566.7682,565.4351,98.0,566.2516,567.2677,567.7677,567.7678,569.0014,684.9,569.0016,2.0,570.0009,2.0,4.0,64.0,10.0,1.0,0.8,0.3,Time
,,S10,1,Male,30,anonymized,Serial_Dependence_U,2023.2.3,Win32,59.88023952,,,,,,,,,,,,570.0016,2.0,570.0025,,,,572.3514,572.8507,571.8347,572.3512,571.0182,187.0,571.8346,572.8507,573.3507,573.3508,575.8676,781.8,575.8677,3.0,576.8672,2.0,5.0,65.0,20.0,1.0,0.8,0.3,Time
,,S10,1,Male,30,anonymized,Serial_Dependence_U,2023.2.3,Win32,59.88023952,,,,,,,,,,,,576.8678,2.0,576.868,,,,579.6176,580.117,579.1011,579.6176,577.8843,170.0,579.1009,580.117,580.617,580.617,582.434,1263.7,582.4343,4.0,583.4336,2.0,6.0,66.0,27.0,1.0,1.2,0.7,Time
,,S10,1,Male,30,anonymized,Serial_Dependence_U,2023.2.3,Win32,59.88023952,,,,,,,,,,,,583.4341,2.0,583.4344,,,,586.184,586.6834,585.6673,586.1839,584.4506,79.0,585.6672,586.6834,587.1834,587.1834,588.717,833.3,588.7172,1.0,589.7165,2.0,7.0,67.0,12.0,1.0,1.2,0.3,Time
,,S10,1,Male,30,anonymized,Serial_Dependence_U,2023.2.3,Win32,59.88023952,,,,,,,,,,,,589.7172,2.0,589.7175,,,,592.6669,593.1664,592.1504,592.6669,590.7338,239.0,592.1503,593.1664,593.6665,593.6665,595.75,999.6,595.7503,2.0,596.7495,2.0,8.0,68.0,23.0,1.0,1.4,0.3,Time
,,S10,1,Male,30,anonymized,Serial_Dependence_U,2023.2.3,Win32,59.88023952,,,,,,,,,,,,596.75,2.0,596.7503,,,,599.1,599.5994,598.5833,599.1,597.7667,44.0,598.5832,599.5994,600.0993,600.0994,601.6996,886.0,601.6998,4.0,602.6992,2.0,9.0,69.0,5.0,1.0,0.8,0.7,Time
,,S10,1,Male,30,anonymized,Serial_Dependence_U,2023.2.3,Win32,59.88023952,,,,,,,,,,,,602.6998,2.0,602.7,,,,605.0497,605.549,604.533,605.0496,603.7165,354.0,604.5329,605.5491,606.049,606.0491,607.3994,868.6,607.3995,4.0,608.399,2.0,10.0,70.0,15.0,1.0,0.8,0.7,Time
,,S10,1,Male,30,anonymized,Serial_Dependence_U,2023.2.3,Win32,59.88023952,,,,,,,,,,,,608.3995,2.0,608.4,,,,611.3494,611.8487,610.8327,611.3493,609.4161,8.0,610.8325,611.8487,612.3487,612.3488,613.466,863.1,613.4662,1.0,614.4653,2.0,11.0,71.0,13.0,1.0,1.4,0.3,Time
,,S10,1,Male,30,anonymized,Serial_Dependence_U,2023.2.3,Win32,59.88023952,,,,,,,,,,,,614.4659,2.0,614.4661,,,,617.2158,617.7151,616.6991,617.2157,615.4825,359.0,616.6989,617.7152,618.215,618.2151,619.6988,932.8,619.699,2.0,620.6982,2.0,12.0,72.0,17.0,1.0,1.2,0.7,Time
,,S10,1,Male,30,anonymized,Serial_Dependence_U,2023.2.3,Win32,59.88023952,,,,,,,,,,,,620.699,2.0,620.6991,,,,623.2487,623.748,622.732,623.2486,621.7156,322.0,622.732,623.7481,624.2481,624.2481,626.015,1053.9,626.0154,4.0,627.0146,2.0,13.0,73.0,16.0,1.0,1.0,0.7,Time
,,S10,1,Male,30,anonymized,Serial_Dependence_U,2023.2.3,Win32,59.88023952,,,,,,,,,,,,627.0151,2.0,627.0154,,,,629.765,630.2644,629.2484,629.7649,628.0319,199.0,629.2482,630.2645,630.7644,630.7645,631.9481,996.1,631.9484,2.0,632.9476,2.0,14.0,74.0,2.0,1.0,1.2,0.3,Time
,,S10,1,Male,30,anonymized,Serial_Dependence_U,2023.2.3,Win32,59.88023952,,,,,,,,,,,,632.9482,2.0,632.9486,,,,636.098,636.5975,635.5815,636.0979,633.9648,108.0,635.5813,636.5975,637.0974,637.0975,638.9644,1379.4,638.9646,2.0,639.9639,2.0,15.0,75.0,19.0,1.0,1.6,0.7,Time
,,S10,1,Male,30,anonymized,Serial_Dependence_U,2023.2.3,Win32,59.88023952,,,,,,,,,,,,639.9645,2.0,639.9648,,,,642.7144,643.2137,642.1978,642.7143,640.9812,61.0,642.1977,643.2137,643.7138,643.7139,644.814,403.7,644.8142,1.0,645.8136,2.0,16.0,76.0,22.0,1.0,1.2,0.3,Time
,,S10,1,Male,30,anonymized,Serial_Dependence_U,2023.2.3,Win32,59.88023952,,,,,,,,,,,,645.8142,2.0,645.8145,,,,648.5642,649.0634,648.0476,648.5641,646.8307,270.0,648.0474,649.0634,649.5634,649.5634,651.7969,1128.4,651.7972,2.0,652.7966,2.0,17.0,77.0,7.0,1.0,1.2,0.7,Time
,,S10,1,Male,30,anonymized,Serial_Dependence_U,2023.2.3,Win32,59.88023952,,,,,,,,,,,,652.7973,2.0,652.7979,,,,655.7472,656.2464,655.2304,655.747,653.8139,134.0,655.2303,656.2464,656.7464,656.7464,658.68,1153.6,658.6802,2.0,659.6796,2.0,18.0,78.0,3.0,1.0,1.4,0.3,Time
,,S10,1,Male,30,anonymized,Serial_Dependence_U,2023.2.3,Win32,59.88023952,,,,,,,,,,,,659.6801,2.0,659.6805,,,,662.6301,663.1294,662.1133,662.63,660.6968,311.0,662.1133,663.1294,663.6295,663.6295,665.8796,1489.0,665.8798,4.0,666.8792,2.0,19.0,79.0,8.0,1.0,1.4,0.7,Time
,,S10,1,Male,30,anonymized,Serial_Dependence_U,2023.2.3,Win32,59.88023952,,,,,,,,,,,,666.8799,2.0,666.8802,,,,669.4297,669.929,668.913,669.4296,667.8965,124.0,668.9129,669.9291,670.4291,670.4291,672.9459,1179.5,672.9461,4.0,673.9455,2.0,20.0,80.0,26.0,1.0,1.0,0.7,Time
,,S10,1,Male,30,anonymized,Serial_Dependence_U,2023.2.3,Win32,59.88023952,,,,,,,,,,,,673.9461,2.0,673.9464,,,,676.4961,676.9954,675.9793,676.496,674.9628,185.0,675.9792,676.9954,677.4953,677.4954,680.0123,1133.8,680.0126,4.0,681.0118,2.0,21.0,81.0,11.0,1.0,1.0,0.3,Time
,,S10,1,Male,30,anonymized,Serial_Dependence_U,2023.2.3,Win32,59.88023952,,,,,,,,,,,,681.0124,2.0,681.0126,,,,683.3624,683.8617,682.8457,683.3623,682.029,27.0,682.8455,683.8617,684.3617,684.3619,685.462,833.7,685.4622,3.0,686.4616,2.0,22.0,82.0,25.0,1.0,0.8,0.7,Time
,,S10,1,Male,30,anonymized,Serial_Dependence_U,2023.2.3,Win32,59.88023952,,,,,,,,,,,,686.462,2.0,686.4624,,,,689.6119,690.1113,689.0953,689.6119,687.4788,147.0,689.0952,690.1113,690.6114,690.6114,693.7447,1432.9,693.745,2.0,694.7444,2.0,23.0,83.0,4.0,1.0,1.6,0.3,Time
,,S10,1,Male,30,anonymized,Serial_Dependence_U,2023.2.3,Win32,59.88023952,,,,,,,,,,,,694.745,2.0,694.7453,,,,697.8948,698.3941,697.3782,697.8947,695.7616,159.0,697.3781,698.3941,698.8942,698.8943,701.5611,1495.2,701.5614,2.0,702.5607,2.0,24.0,84.0,24.0,1.0,1.6,0.3,Time
,,S10,1,Male,30,anonymized,Serial_Dependence_U,2023.2.3,Win32,59.88023952,,,,,,,,,,,,702.5613,2.0,702.5617,,,,705.1111,705.6106,704.5946,705.1111,703.5779,238.0,704.5946,705.6106,706.1105,706.1106,708.3275,1261.6,708.3277,4.0,709.327,2.0,25.0,85.0,1.0,1.0,1.0,0.3,Time
,,S10,1,Male,30,anonymized,Serial_Dependence_U,2023.2.3,Win32,59.88023952,,,,,,,,,,,,709.3276,2.0,709.328,,,,712.4774,712.9768,711.9608,712.4773,710.3443,197.0,711.9608,712.9769,713.4769,713.4769,715.6937,1297.1,715.694,2.0,716.6933,2.0,26.0,86.0,9.0,1.0,1.6,0.7,Time
,,S10,1,Male,30,anonymized,Serial_Dependence_U,2023.2.3,Win32,59.88023952,,,,,,,,,,,,716.6939,2.0,716.6943,,,,719.8437,720.343,719.3271,719.8437,717.7105,256.0,719.327,720.3431,720.843,720.8431,724.2266,1919.6,724.2269,4.0,725.2262,2.0,27.0,87.0,14.0,1.0,1.6,0.3,Time
,,S10,1,Male,30,anonymized,Serial_Dependence_U,2023.2.3,Win32,59.88023952,,,,,,,,,,,,725.2267,2.0,725.2271,,,,727.5767,728.076,727.06,727.5766,726.2434,197.0,727.0599,728.0761,728.576,728.5761,730.5763,894.6,730.5765,4.0,731.5758,2.0,28.0,88.0,0.0,1.0,0.8,0.3,Time
,,S10,1,Male,30,anonymized,Serial_Dependence_U,2023.2.3,Win32,59.88023952,,,,,,,,,,,,731.5765,2.0,731.5773,,,,734.7262,735.2257,734.2096,734.7262,732.5931,156.0,734.2096,735.2257,735.7257,735.7257,737.7259,1566.4,737.7261,3.0,738.7255,2.0,29.0,89.0,29.0,1.0,1.6,0.7,Time
,,S10,1,Male,30,anonymized,Serial_Dependence_U,2023.2.3,Win32,59.88023952,,,,,,,,,,,,738.726,3.0,741.1422,s,2.3942,,743.8926,744.3919,743.3758,743.8925,742.1592,291.0,743.3757,744.3919,744.8918,744.8919,746.9088,1116.5,746.9091,2.0,747.9084,3.0,0.0,90.0,27.0,1.0,1.2,0.7,Time
,,S10,1,Male,30,anonymized,Serial_Dependence_U,2023.2.3,Win32,59.88023952,,,,,,,,,,,,747.9089,3.0,747.9108,,,,750.2588,750.7582,749.7422,750.2588,748.9255,271.0,749.7421,750.7583,751.2582,751.2583,752.2251,761.1,752.2254,3.0,753.2247,3.0,1.0,91.0,15.0,1.0,0.8,0.7,Time
,,S10,1,Male,30,anonymized,Serial_Dependence_U,2023.2.3,Win32,59.88023952,,,,,,,,,,,,753.2254,3.0,753.226,,,,755.7752,756.2746,755.2586,755.7752,754.242,138.0,755.2584,756.2746,756.7746,756.7747,758.9748,999.8,758.975,3.0,759.9743,3.0,2.0,92.0,1.0,1.0,1.0,0.3,Time
,,S10,1,Male,30,anonymized,Serial_Dependence_U,2023.2.3,Win32,59.88023952,,,,,,,,,,,,759.975,3.0,759.9752,,,,762.5249,763.0243,762.0082,762.5248,760.9916,282.0,762.0081,763.0243,763.5242,763.5242,765.0412,1171.1,765.0414,4.0,766.0407,3.0,3.0,93.0,16.0,1.0,1.0,0.7,Time
,,S10,1,Male,30,anonymized,Serial_Dependence_U,2023.2.3,Win32,59.88023952,,,,,,,,,,,,766.0414,3.0,766.0416,,,,768.3911,768.8906,767.8746,768.3911,767.058,307.0,767.8745,768.8906,769.3906,769.3906,771.1576,936.1,771.1578,4.0,772.1571,3.0,4.0,94.0,20.0,1.0,0.8,0.3,Time
,,S10,1,Male,30,anonymized,Serial_Dependence_U,2023.2.3,Win32,59.88023952,,,,,,,,,,,,772.1577,3.0,772.1582,,,,774.7075,775.2069,774.191,774.7075,773.1742,93.0,774.1909,775.207,775.7069,775.707,777.3072,480.0,777.3074,1.0,778.3068,3.0,5.0,95.0,11.0,1.0,1.0,0.3,Time
,,S10,1,Male,30,anonymized,Serial_Dependence_U,2023.2.3,Win32,59.88023952,,,,,,,,,,,,778.3075,3.0,778.308,,,,780.6572,781.1566,780.1405,780.6571,779.3241,51.0,780.1404,781.1566,781.6566,781.6566,784.1068,819.5,784.107,3.0,785.1064,3.0,6.0,96.0,25.0,1.0,0.8,0.7,Time
,,S10,1,Male,30,anonymized,Serial_Dependence_U,2023.2.3,Win32,59.88023952,,,,,,,,,,,,785.107,3.0,785.1074,,,,787.8569,788.3563,787.3402,787.8568,786.1237,323.0,787.3401,788.3564,788.8562,788.8563,790.6898,834.4,790.69,1.0,791.6894,3.0,7.0,97.0,2.0,1.0,1.2,0.3,Time
,,S10,1,Male,30,anonymized,Serial_Dependence_U,2023.2.3,Win32,59.88023952,,,,,,,,,,,,791.69,3.0,791.6904,,,,794.0399,794.5393,793.5232,794.0399,792.7066,348.0,793.5231,794.5393,795.0393,795.0393,797.2563,854.5,797.2565,4.0,798.2557,3.0,8.0,98.0,10.0,1.0,0.8,0.3,Time
,,S10,1,Male,30,anonymized,Serial_Dependence_U,2023.2.3,Win32,59.88023952,,,,,,,,,,,,798.2563,3.0,798.2566,,,,801.0067,801.5055,800.4896,801.0064,799.273,174.0,800.4895,801.5055,802.0056,802.0056,803.1892,1011.8,803.1894,2.0,804.1887,3.0,9.0,99.0,17.0,1.0,1.2,0.7,Time
,,S10,1,Male,30,anonymized,Serial_Dependence_U,2023.2.3,Win32,59.88023952,,,,,,,,,,,,804.1895,3.0,804.1904,,,,806.9393,807.4386,806.4225,806.9392,805.206,206.0,806.4225,807.4386,807.9386,807.9387,809.8058,1100.6,809.806,2.0,810.8051,3.0,10.0,100.0,7.0,1.0,1.2,0.7,Time
,,S10,1,Male,30,anonymized,Serial_Dependence_U,2023.2.3,Win32,59.88023952,,,,,,,,,,,,810.8056,3.0,810.8059,,,,813.9556,814.455,813.4388,813.9554,811.8223,25.0,813.4387,814.455,814.9549,814.9549,817.1218,1283.2,817.1221,2.0,818.1214,3.0,11.0,101.0,4.0,1.0,1.6,0.3,Time
,,S10,1,Male,30,anonymized,Serial_Dependence_U,2023.2.3,Win32,59.88023952,,,,,,,,,,,,818.1219,3.0,818.1222,,,,821.0719,821.5712,820.5552,821.0718,819.1386,288.0,820.5551,821.5713,822.0712,822.0712,825.1547,887.4,825.1549,1.0,826.1543,3.0,12.0,102.0,23.0,1.0,1.4,0.3,Time
,,S10,1,Male,30,anonymized,Serial_Dependence_U,2023.2.3,Win32,59.88023952,,,,,,,,,,,,826.1549,3.0,826.1553,,,,828.5049,829.0041,827.9882,828.5048,827.1714,207.0,827.9881,829.0042,829.5041,829.5042,830.5544,866.7,830.5546,4.0,831.554,3.0,13.0,103.0,0.0,1.0,0.8,0.3,Time
,,S10,1,Male,30,anonymized,Serial_Dependence_U,2023.2.3,Win32,59.88023952,,,,,,,,,,,,831.5546,3.0,831.5548,,,,834.1046,834.6038,833.5878,834.1045,832.5712,180.0,833.5876,834.6038,835.104,835.104,836.5043,899.9,836.5045,2.0,837.5036,3.0,14.0,104.0,6.0,1.0,1.0,0.7,Time
,,S10,1,Male,30,anonymized,Serial_Dependence_U,2023.2.3,Win32,59.88023952,,,,,,,,,,,,837.5043,3.0,837.5047,,,,840.2542,840.7535,839.7375,840.2541,838.5208,78.0,839.7374,840.7535,841.2535,841.2536,843.1038,965.6,843.1041,2.0,844.1034,3.0,15.0,105.0,22.0,1.0,1.2,0.3,Time
,,S10,1,Male,30,anonymized,Serial_Dependence_U,2023.2.3,Win32,59.88023952,,,,,,,,,,,,844.104,3.0,844.1042,,,,846.8537,847.3532,846.3372,846.8536,845.1206,349.0,846.3372,847.3532,847.8532,847.8532,848.8868,664.1,848.887,1.0,849.8864,3.0,16.0,106.0,12.0,1.0,1.2,0.3,Time
,,S10,1,Male,30,anonymized,Serial_Dependence_U,2023.2.3,Win32,59.88023952,,,,,,,,,,,,849.887,3.0,849.8872,,,,853.0368,853.5363,852.5202,853.0368,850.9037,304.0,852.5201,853.5363,854.0362,854.0362,856.5864,1253.5,856.5867,2.0,857.586,3.0,17.0,107.0,29.0,1.0,1.6,0.7,Time
,,S10,1,Male,30,anonymized,Serial_Dependence_U,2023.2.3,Win32,59.88023952,,,,,,,,,,,,857.5866,3.0,857.5869,,,,860.5365,861.0358,860.0198,860.5364,858.6033,104.0,860.0196,861.0359,861.5358,861.5358,863.6027,1182.9,863.6029,2.0,864.6023,3.0,18.0,108.0,8.0,1.0,1.4,0.7,Time
,,S10,1,Male,30,anonymized,Serial_Dependence_U,2023.2.3,Win32,59.88023952,,,,,,,,,,,,864.603,3.0,864.6033,,,,867.5527,868.0521,867.0361,867.5526,865.6195,71.0,867.036,868.0521,868.5521,868.5522,870.4857,1266.3,870.4859,2.0,871.4853,3.0,19.0,109.0,13.0,1.0,1.4,0.3,Time
,,S10,1,Male,30,anonymized,Serial_Dependence_U,2023.2.3,Win32,59.88023952,,,,,,,,,,,,871.4858,3.0,871.4862,,,,873.8358,874.3351,873.319,873.8356,872.5026,145.0,873.319,874.3351,874.8351,874.8352,876.9021,1361.7,876.9023,5.0,877.9016,3.0,20.0,110.0,5.0,1.0,0.8,0.7,Time
,,S10,1,Male,30,anonymized,Serial_Dependence_U,2023.2.3,Win32,59.88023952,,,,,,,,,,,,877.9023,3.0,877.9025,,,,880.852,881.3515,880.3354,880.8519,878.9188,269.0,880.3354,881.3515,881.8515,881.8515,884.5516,1868.0,884.5518,5.0,885.5513,3.0,21.0,111.0,28.0,1.0,1.4,0.7,Time
,,S10,1,Male,30,anonymized,Serial_Dependence_U,2023.2.3,Win32,59.88023952,,,,,,,,,,,,885.5518,3.0,885.552,,,,888.7017,889.201,888.185,888.7016,886.5684,6.0,888.1849,889.201,889.7011,889.7011,891.0513,1268.5,891.0516,2.0,892.051,3.0,22.0,112.0,14.0,1.0,1.6,0.3,Time
,,S10,1,Male,30,anonymized,Serial_Dependence_U,2023.2.3,Win32,59.88023952,,,,,,,,,,,,892.0517,3.0,892.0524,,,,895.0013,895.5006,894.4849,895.0012,893.0681,291.0,894.4848,895.5006,896.0006,896.0007,899.3176,1582.6,899.3179,4.0,900.3171,3.0,23.0,113.0,3.0,1.0,1.4,0.3,Time
,,S10,1,Male,30,anonymized,Serial_Dependence_U,2023.2.3,Win32,59.88023952,,,,,,,,,,,,900.3177,3.0,900.318,,,,903.4676,903.9669,902.951,903.4676,901.3344,169.0,902.9508,903.9669,904.4669,904.4669,909.0504,1563.3,909.0507,3.0,910.0499,3.0,24.0,114.0,9.0,1.0,1.6,0.7,Time
,,S10,1,Male,30,anonymized,Serial_Dependence_U,2023.2.3,Win32,59.88023952,,,,,,,,,,,,910.0505,3.0,910.051,,,,913.2004,913.6997,912.6837,913.2003,911.0673,229.0,912.6836,913.6998,914.1998,914.1998,916.15,1583.6,916.1502,3.0,917.1497,3.0,25.0,115.0,24.0,1.0,1.6,0.3,Time
,,S10,1,Male,30,anonymized,Serial_Dependence_U,2023.2.3,Win32,59.88023952,,,,,,,,,,,,917.1502,3.0,917.1507,,,,920.3001,920.7994,919.7834,920.2999,918.1668,142.0,919.7833,920.7994,921.2994,921.2994,923.283,1288.3,923.2833,2.0,924.2826,3.0,26.0,116.0,19.0,1.0,1.6,0.7,Time
,,S10,1,Male,30,anonymized,Serial_Dependence_U,2023.2.3,Win32,59.88023952,,,,,,,,,,,,924.2831,3.0,924.2834,,,,926.8331,927.3324,926.3164,926.833,925.2998,265.0,926.3163,927.3324,927.8324,927.8324,930.3159,1460.8,930.3162,5.0,931.3155,3.0,27.0,117.0,26.0,1.0,1.0,0.7,Time
,,S10,1,Male,30,anonymized,Serial_Dependence_U,2023.2.3,Win32,59.88023952,,,,,,,,,,,,931.3161,3.0,931.3167,,,,933.866,934.3655,933.3494,933.8658,932.3327,78.0,933.3493,934.3656,934.8653,934.8654,936.199,899.8,936.1992,2.0,937.1986,3.0,28.0,118.0,21.0,1.0,1.0,0.3,Time
,,S10,1,Male,30,anonymized,Serial_Dependence_U,2023.2.3,Win32,59.88023952,,,,,,,,,,,,937.1991,3.0,937.1994,,,,940.149,940.6483,939.6323,940.1489,938.2158,15.0,939.6322,940.6483,941.1483,941.1484,942.9986,1146.6,942.9989,2.0,943.9983,3.0,29.0,119.0,18.0,1.0,1.4,0.7,Time
,,S10,1,Male,30,anonymized,Serial_Dependence_U,2023.2.3,Win32,59.88023952,,,,,,,,,,,,943.9989,4.0,961.3308,s,17.3119,,963.8811,964.3805,963.3644,963.881,962.349,117.0,963.3644,964.3805,964.8803,964.8803,966.5641,856.8,966.5643,2.0,967.5635,4.0,0.0,120.0,11.0,1.0,1.0,0.3,Time
,,S10,1,Male,30,anonymized,Serial_Dependence_U,2023.2.3,Win32,59.88023952,,,,,,,,,,,,967.5642,4.0,967.5662,,,,970.3141,970.8134,969.7974,970.3139,968.5809,209.0,969.7973,970.8135,971.3135,971.3135,972.5971,716.3,972.5973,1.0,973.5967,4.0,1.0,121.0,7.0,1.0,1.2,0.7,Time
,,S10,1,Male,30,anonymized,Serial_Dependence_U,2023.2.3,Win32,59.88023952,,,,,,,,,,,,973.5973,4.0,973.5976,,,,976.5472,977.0464,976.0304,976.5471,974.6139,333.0,976.0303,977.0464,977.5464,977.5465,979.9468,1233.2,979.947,2.0,980.9463,4.0,2.0,122.0,13.0,1.0,1.4,0.3,Time
,,S10,1,Male,30,anonymized,Serial_Dependence_U,2023.2.3,Win32,59.88023952,,,,,,,,,,,,980.9469,4.0,980.9471,,,,983.8968,984.396,983.38,983.8967,981.9635,275.0,983.3799,984.3962,984.8961,984.8961,986.2463,1066.0,986.2466,2.0,987.246,4.0,3.0,123.0,8.0,1.0,1.4,0.7,Time
,,S10,1,Male,30,anonymized,Serial_Dependence_U,2023.2.3,Win32,59.88023952,,,,,,,,,,,,987.2465,4.0,987.2468,,,,989.9965,990.4958,989.4798,989.9964,988.2632,201.0,989.4797,990.4958,990.9958,990.9958,993.0126,1311.4,993.0128,4.0,994.0123,4.0,4.0,124.0,17.0,1.0,1.2,0.7,Time
,,S10,1,Male,30,anonymized,Serial_Dependence_U,2023.2.3,Win32,59.88023952,,,,,,,,,,,,994.0129,4.0,994.0137,,,,996.748,997.2456,996.2461,996.748,995.0295,48.0,996.246,997.2456,997.7454,997.7455,999.4457,1345.5,999.4459,4.0,1000.4452,4.0,5.0,125.0,12.0,1.0,1.2,0.3,Time
,,S10,1,Male,30,anonymized,Serial_Dependence_U,2023.2.3,Win32,59.88023952,,,,,,,,,,,,1000.4458,4.0,1000.4461,,,,1003.3957,1003.895,1002.879,1003.3957,1001.4626,308.0,1002.8789,1003.8951,1004.3951,1004.3951,1006.0287,1133.2,1006.029,2.0,1007.0282,4.0,6.0,126.0,28.0,1.0,1.4,0.7,Time
,,S10,1,Male,30,anonymized,Serial_Dependence_U,2023.2.3,Win32,59.88023952,,,,,,,,,,,,1007.0288,4.0,1007.0291,,,,1010.1787,1010.6781,1009.662,1010.1785,1008.0454,184.0,1009.6619,1010.6782,1011.1781,1011.1782,1012.3784,666.0,1012.3786,1.0,1013.3779,4.0,7.0,127.0,14.0,1.0,1.6,0.3,Time
,,S10,1,Male,30,anonymized,Serial_Dependence_U,2023.2.3,Win32,59.88023952,,,,,,,,,,,,1013.3785,4.0,1013.3787,,,,1015.7285,1016.2278,1015.2117,1015.7284,1014.3951,15.0,1015.2116,1016.2278,1016.7278,1016.7279,1017.8281,331.7,1017.8283,1.0,1018.8277,4.0,8.0,128.0,10.0,1.0,0.8,0.3,Time
,,S10,1,Male,30,anonymized,Serial_Dependence_U,2023.2.3,Win32,59.88023952,,,,,,,,,,,,1018.8283,4.0,1018.8287,,,,1021.3781,1021.8775,1020.8614,1021.378,1019.8455,100.0,1020.8614,1021.8775,1022.3774,1022.3774,1025.1276,1430.8,1025.1279,5.0,1026.1272,4.0,9.0,129.0,16.0,1.0,1.0,0.7,Time
,,S10,1,Male,30,anonymized,Serial_Dependence_U,2023.2.3,Win32,59.88023952,,,,,,,,,,,,1026.1278,4.0,1026.1281,,,,1029.2778,1029.777,1028.761,1029.2776,1027.1445,315.0,1028.7609,1029.7771,1030.2771,1030.2772,1032.644,1554.8,1032.6442,3.0,1033.6436,4.0,10.0,130.0,4.0,1.0,1.6,0.3,Time
,,S10,1,Male,30,anonymized,Serial_Dependence_U,2023.2.3,Win32,59.88023952,,,,,,,,,,,,1033.6441,4.0,1033.6443,,,,1035.994,1036.4934,1035.4773,1035.9939,1034.6608,110.0,1035.4772,1036.4934,1036.9935,1036.9935,1038.9937,1013.1,1038.9939,4.0,1039.9932,4.0,11.0,131.0,0.0,1.0,0.8,0.3,Time
,,S10,1,Male,30,anonymized,Serial_Dependence_U,2023.2.3,Win32,59.88023952,,,,,,,,,,,,1039.9937,4.0,1039.9941,,,,1042.7437,1043.243,1042.227,1042.7436,1041.0103,190.0,1042.2269,1043.243,1043.7431,1043.7431,1045.7933,1351.2,1045.7935,4.0,1046.7929,4.0,12.0,132.0,22.0,1.0,1.2,0.3,Time
,,S10,1,Male,30,anonymized,Serial_Dependence_U,2023.2.3,Win32,59.88023952,,,,,,,,,,,,1046.7935,4.0,1046.7937,,,,1049.3438,1049.8427,1048.8267,1049.3435,1047.8101,162.0,1048.8266,1049.8427,1050.3427,1050.3427,1052.3763,766.4,1052.3765,2.0,1053.3758,4.0,13.0,133.0,21.0,1.0,1.0,0.3,Time
,,S10,1,Male,30,anonymized,Serial_Dependence_U,2023.2.3,Win32,59.88023952,,,,,,,,,,,,1053.3765,4.0,1053.3767,,,,1056.3265,1056.8256,1055.8098,1056.3264,1054.3931,16.0,1055.8098,1056.8257,1057.3258,1057.3258,1060.5592,1703.7,1060.5594,4.0,1061.5588,4.0,14.0,134.0,3.0,1.0,1.4,0.3,Time
,,S10,1,Male,30,anonymized,Serial_Dependence_U,2023.2.3,Win32,59.88023952,,,,,,,,,,,,1061.5594,4.0,1061.5596,,,,1064.5092,1065.0086,1063.9924,1064.5091,1062.576,67.0,1063.9924,1065.0086,1065.5086,1065.5086,1067.4421,938.1,1067.4425,1.0,1068.4418,4.0,15.0,135.0,18.0,1.0,1.4,0.7,Time
,,S10,1,Male,30,anonymized,Serial_Dependence_U,2023.2.3,Win32,59.88023952,,,,,,,,,,,,1068.4424,4.0,1068.4426,,,,1070.9924,1071.4915,1070.4756,1070.9923,1069.459,261.0,1070.4754,1071.4915,1071.9917,1071.9918,1073.8085,1117.5,1073.8088,4.0,1074.8081,4.0,16.0,136.0,26.0,1.0,1.0,0.7,Time
,,S10,1,Male,30,anonymized,Serial_Dependence_U,2023.2.3,Win32,59.88023952,,,,,,,,,,,,1074.8087,4.0,1074.8089,,,,1077.3585,1077.858,1076.8419,1077.3585,1075.8253,320.0,1076.8418,1077.858,1078.3579,1078.3579,1082.1914,1047.7,1082.1916,3.0,1083.191,4.0,17.0,137.0,6.0,1.0,1.0,0.7,Time
,,S10,1,Male,30,anonymized,Serial_Dependence_U,2023.2.3,Win32,59.88023952,,,,,,,,,,,,1083.1915,4.0,1083.192,,,,1086.3414,1086.8432,1085.8247,1086.3413,1084.2081,238.0,1085.8246,1086.8433,1087.3408,1087.3408,1090.0077,1417.0,1090.0079,2.0,1091.0073,4.0,18.0,138.0,24.0,1.0,1.6,0.3,Time
,,S10,1,Male,30,anonymized,Serial_Dependence_U,2023.2.3,Win32,59.88023952,,,,,,,,,,,,1091.0078,4.0,1091.0083,,,,1093.7578,1094.257,1093.241,1093.7577,1092.0245,151.0,1093.2409,1094.257,1094.757,1094.7571,1097.7406,1299.9,1097.7409,4.0,1098.7402,4.0,19.0,139.0,2.0,1.0,1.2,0.3,Time
,,S10,1,Male,30,anonymized,Serial_Dependence_U,2023.2.3,Win32,59.88023952,,,,,,,,,,,,1098.7407,4.0,1098.7415,,,,1101.8907,1102.3901,1101.374,1101.8906,1099.7574,231.0,1101.3739,1102.3901,1102.89,1102.89,1105.0237,1515.1,1105.024,2.0,1106.0231,4.0,20.0,140.0,29.0,1.0,1.6,0.7,Time
,,S10,1,Male,30,anonymized,Serial_Dependence_U,2023.2.3,Win32,59.88023952,,,,,,,,,,,,1106.0237,4.0,1106.0241,,,,1108.7736,1109.2729,1108.2569,1108.7735,1107.0404,156.0,1108.2568,1109.273,1109.773,1109.7732,1112.0065,1131.5,1112.0067,2.0,1113.0061,4.0,21.0,141.0,27.0,1.0,1.2,0.7,Time
,,S10,1,Male,30,anonymized,Serial_Dependence_U,2023.2.3,Win32,59.88023952,,,,,,,,,,,,1113.0066,4.0,1113.0068,,,,1115.5565,1116.0559,1115.0399,1115.5565,1114.0233,20.0,1115.0398,1116.056,1116.5559,1116.556,1117.9062,683.4,1117.9065,1.0,1118.9057,4.0,22.0,142.0,1.0,1.0,1.0,0.3,Time
,,S10,1,Male,30,anonymized,Serial_Dependence_U,2023.2.3,Win32,59.88023952,,,,,,,,,,,,1118.9063,4.0,1118.9067,,,,1121.2563,1121.7556,1120.7397,1121.2561,1119.9229,301.0,1120.7396,1121.7556,1122.2557,1122.2557,1123.0392,762.3,1123.0394,3.0,1124.0389,4.0,23.0,143.0,20.0,1.0,0.8,0.3,Time
,,S10,1,Male,30,anonymized,Serial_Dependence_U,2023.2.3,Win32,59.88023952,,,,,,,,,,,,1124.0395,4.0,1124.0397,,,,1126.9898,1127.4887,1126.4727,1126.9894,1125.0563,268.0,1126.4725,1127.4887,1127.9887,1127.9887,1129.5556,1279.2,1129.5559,2.0,1130.5552,4.0,24.0,144.0,23.0,1.0,1.4,0.3,Time
,,S10,1,Male,30,anonymized,Serial_Dependence_U,2023.2.3,Win32,59.88023952,,,,,,,,,,,,1130.5558,4.0,1130.5561,,,,1132.9056,1133.405,1132.389,1132.9055,1131.5724,75.0,1132.389,1133.405,1133.905,1133.9051,1135.2886,538.2,1135.2889,1.0,1136.2882,4.0,25.0,145.0,25.0,1.0,0.8,0.7,Time
,,S10,1,Male,30,anonymized,Serial_Dependence_U,2023.2.3,Win32,59.88023952,,,,,,,,,,,,1136.2888,4.0,1136.289,,,,1138.6387,1139.1381,1138.1221,1138.6385,1137.3055,100.0,1138.122,1139.1381,1139.6381,1139.6381,1141.055,694.9,1141.0552,2.0,1142.0546,4.0,26.0,146.0,15.0,1.0,0.8,0.7,Time
,,S10,1,Male,30,anonymized,Serial_Dependence_U,2023.2.3,Win32,59.88023952,,,,,,,,,,,,1142.0551,4.0,1142.0554,,,,1144.405,1144.9045,1143.8885,1144.4049,1143.0717,56.0,1143.8884,1144.9045,1145.4043,1145.4044,1147.238,1283.1,1147.2383,5.0,1148.2376,4.0,27.0,147.0,5.0,1.0,0.8,0.7,Time
,,S10,1,Male,30,anonymized,Serial_Dependence_U,2023.2.3,Win32,59.88023952,,,,,,,,,,,,1148.2381,4.0,1148.2386,,,,1151.388,1151.8874,1150.8714,1151.388,1149.2548,75.0,1150.8712,1151.8874,1152.3874,1152.3874,1154.371,1529.9,1154.3712,3.0,1155.3706,4.0,28.0,148.0,19.0,1.0,1.6,0.7,Time
,,S10,1,Male,30,anonymized,Serial_Dependence_U,2023.2.3,Win32,59.88023952,,,,,,,,,,,,1155.3712,4.0,1155.3715,,,,1158.5211,1159.0203,1158.0043,1158.521,1156.3878,236.0,1158.0042,1159.0204,1159.5204,1159.5204,1161.9372,1483.2,1161.9375,2.0,1162.9368,4.0,29.0,149.0,9.0,1.0,1.6,0.7,Time
,,S10,1,Male,30,anonymized,Serial_Dependence_U,2023.2.3,Win32,59.88023952,,,,,,,,,,,,1162.9374,5.0,1166.3702,s,3.4154,,1169.5205,1170.0197,1169.0039,1169.5204,1167.3872,343.0,1169.0038,1170.0198,1170.5199,1170.5199,1173.1368,1665.6,1173.1369,3.0,1174.1363,5.0,0.0,150.0,14.0,1.0,1.6,0.3,Time
,,S10,1,Male,30,anonymized,Serial_Dependence_U,2023.2.3,Win32,59.88023952,,,,,,,,,,,,1174.1368,5.0,1174.1386,,,,1177.0867,1177.586,1176.57,1177.0866,1175.1535,97.0,1176.5699,1177.5861,1178.086,1178.0861,1180.2363,1432.0,1180.2365,3.0,1181.2359,5.0,1.0,151.0,18.0,1.0,1.4,0.7,Time
,,S10,1,Male,30,anonymized,Serial_Dependence_U,2023.2.3,Win32,59.88023952,,,,,,,,,,,,1181.2365,5.0,1181.2368,,,,1184.3864,1184.8856,1183.8698,1184.3862,1182.2531,255.0,1183.8697,1184.8857,1185.3858,1185.3858,1187.3523,1400.6,1187.3526,2.0,1188.3522,5.0,2.0,152.0,19.0,1.0,1.6,0.7,Time
,,S10,1,Male,30,anonymized,Serial_Dependence_U,2023.2.3,Win32,59.88023952,,,,,,,,,,,,1188.3528,5.0,1188.3531,,,,1191.3027,1191.802,1190.7861,1191.3026,1189.3695,350.0,1190.786,1191.8021,1192.302,1192.302,1193.619,516.7,1193.6193,1.0,1194.6186,5.0,3.0,153.0,3.0,1.0,1.4,0.3,Time
,,S10,1,Male,30,anonymized,Serial_Dependence_U,2023.2.3,Win32,59.88023952,,,,,,,,,,,,1194.6191,5.0,1194.6193,,,,1197.1689,1197.6683,1196.6523,1197.1689,1195.6357,96.0,1196.6522,1197.6684,1198.1684,1198.1684,1200.1519,1104.6,1200.1522,4.0,1201.1515,5.0,4.0,154.0,16.0,1.0,1.0,0.7,Time
,,S10,1,Male,30,anonymized,Serial_Dependence_U,2023.2.3,Win32,59.88023952,,,,,,,,,,,,1201.1521,5.0,1201.1524,,,,1203.902,1204.4014,1203.3855,1203.9019,1202.1687,71.0,1203.3854,1204.4014,1204.9013,1204.9014,1207.5018,1239.5,1207.5021,3.0,1208.5011,5.0,5.0,155.0,2.0,1.0,1.2,0.3,Time
,,S10,1,Male,30,anonymized,Serial_Dependence_U,2023.2.3,Win32,59.88023952,,,,,,,,,,,,1208.5017,5.0,1208.5021,,,,1211.0517,1211.5511,1210.5349,1211.0516,1209.5184,143.0,1210.5349,1211.5512,1212.051,1212.0511,1214.2345,884.2,1214.2348,2.0,1215.2341,5.0,6.0,156.0,1.0,1.0,1.0,0.3,Time
,,S10,1,Male,30,anonymized,Serial_Dependence_U,2023.2.3,Win32,59.88023952,,,,,,,,,,,,1215.2346,5.0,1215.235,,,,1218.3845,1218.8841,1217.8679,1218.3844,1216.2514,163.0,1217.8678,1218.8841,1219.384,1219.3841,1222.0509,1133.0,1222.0511,2.0,1223.0504,5.0,7.0,157.0,9.0,1.0,1.6,0.7,Time
,,S10,1,Male,30,anonymized,Serial_Dependence_U,2023.2.3,Win32,59.88023952,,,,,,,,,,,,1223.0509,5.0,1223.0514,,,,1226.2008,1226.7002,1225.6841,1226.2008,1224.0677,81.0,1225.684,1226.7002,1227.2002,1227.2002,1229.1005,883.3,1229.1007,1.0,1230.1,5.0,8.0,158.0,4.0,1.0,1.6,0.3,Time
,,S10,1,Male,30,anonymized,Serial_Dependence_U,2023.2.3,Win32,59.88023952,,,,,,,,,,,,1230.1006,5.0,1230.1009,,,,1232.4504,1232.9499,1231.9338,1232.4504,1231.1172,169.0,1231.9337,1232.9499,1233.4498,1233.4499,1235.3337,689.7,1235.3339,2.0,1236.333,5.0,9.0,159.0,5.0,1.0,0.8,0.7,Time
,,S10,1,Male,30,anonymized,Serial_Dependence_U,2023.2.3,Win32,59.88023952,,,,,,,,,,,,1236.3336,5.0,1236.3339,,,,1239.2834,1239.7829,1238.7668,1239.2833,1237.3502,155.0,1238.7667,1239.7829,1240.2829,1240.2829,1242.3498,1020.9,1242.35,2.0,1243.3494,5.0,10.0,160.0,8.0,1.0,1.4,0.7,Time
,,S10,1,Male,30,anonymized,Serial_Dependence_U,2023.2.3,Win32,59.88023952,,,,,,,,,,,,1243.3499,5.0,1243.3503,,,,1246.4998,1246.9992,1245.9831,1246.4997,1244.3666,120.0,1245.9831,1246.9992,1247.4992,1247.4992,1250.116,1566.6,1250.1163,3.0,1251.1156,5.0,11.0,161.0,29.0,1.0,1.6,0.7,Time
,,S10,1,Male,30,anonymized,Serial_Dependence_U,2023.2.3,Win32,59.88023952,,,,,,,,,,,,1251.1162,5.0,1251.1164,,,,1254.0661,1254.5654,1253.5493,1254.066,1252.1329,128.0,1253.5493,1254.5655,1255.0654,1255.0655,1257.1657,1311.2,1257.1659,2.0,1258.1653,5.0,12.0,162.0,28.0,1.0,1.4,0.7,Time
,,S10,1,Male,30,anonymized,Serial_Dependence_U,2023.2.3,Win32,59.88023952,,,,,,,,,,,,1258.1659,5.0,1258.1662,,,,1260.5157,1261.0151,1259.9995,1260.5157,1259.1825,319.0,1259.9992,1261.0152,1261.5152,1261.5153,1263.5653,798.1,1263.5655,3.0,1264.5649,5.0,13.0,163.0,0.0,1.0,0.8,0.3,Time
,,S10,1,Male,30,anonymized,Serial_Dependence_U,2023.2.3,Win32,59.88023952,,,,,,,,,,,,1264.5655,5.0,1264.5658,,,,1267.5154,1268.0148,1266.9987,1267.5153,1265.5821,104.0,1266.9986,1268.0148,1268.5147,1268.5147,1271.0983,1305.2,1271.0985,2.0,1272.0978,5.0,14.0,164.0,23.0,1.0,1.4,0.3,Time
,,S10,1,Male,30,anonymized,Serial_Dependence_U,2023.2.3,Win32,59.88023952,,,,,,,,,,,,1272.0984,5.0,1272.0986,,,,1274.6484,1275.1477,1274.1317,1274.6482,1273.1151,4.0,1274.1316,1275.1478,1275.6478,1275.6479,1277.8812,1118.9,1277.8816,4.0,1278.8808,5.0,15.0,165.0,11.0,1.0,1.0,0.3,Time
,,S10,1,Male,30,anonymized,Serial_Dependence_U,2023.2.3,Win32,59.88023952,,,,,,,,,,,,1278.8814,5.0,1278.8816,,,,1281.2313,1281.7307,1280.7146,1281.2312,1279.8981,191.0,1280.7145,1281.7307,1282.2307,1282.2308,1283.6309,583.5,1283.6311,2.0,1284.6305,5.0,16.0,166.0,20.0,1.0,0.8,0.3,Time
,,S10,1,Male,30,anonymized,Serial_Dependence_U,2023.2.3,Win32,59.88023952,,,,,,,,,,,,1284.6312,5.0,1284.6315,,,,1287.581,1288.0804,1287.0644,1287.5809,1285.6478,217.0,1287.0643,1288.0805,1288.5803,1288.5803,1291.8139,1460.4,1291.8142,3.0,1292.8134,5.0,17.0,167.0,13.0,1.0,1.4,0.3,Time
,,S10,1,Male,30,anonymized,Serial_Dependence_U,2023.2.3,Win32,59.88023952,,,,,,,,,,,,1292.8139,5.0,1292.8142,,,,1295.5639,1296.0633,1295.0471,1295.5638,1293.8307,276.0,1295.0471,1296.0633,1296.5633,1296.5634,1298.5802,1166.4,1298.5804,3.0,1299.5798,5.0,18.0,168.0,12.0,1.0,1.2,0.3,Time
,,S10,1,Male,30,anonymized,Serial_Dependence_U,2023.2.3,Win32,59.88023952,,,,,,,,,,,,1299.5808,5.0,1299.5815,,,,1302.3303,1302.8296,1301.8137,1302.3302,1300.597,199.0,1301.8136,1302.8296,1303.3295,1303.3296,1305.1298,899.8,1305.1301,2.0,1306.1294,5.0,19.0,169.0,27.0,1.0,1.2,0.7,Time
,,S10,1,Male,30,anonymized,Serial_Dependence_U,2023.2.3,Win32,59.88023952,,,,,,,,,,,,1306.13,5.0,1306.1304,,,,1309.2799,1309.7793,1308.7633,1309.2798,1307.1466,227.0,1308.7632,1309.7793,1310.2793,1310.2793,1311.8461,1329.1,1311.8463,2.0,1312.8457,5.0,20.0,170.0,24.0,1.0,1.6,0.3,Time
,,S10,1,Male,30,anonymized,Serial_Dependence_U,2023.2.3,Win32,59.88023952,,,,,,,,,,,,1312.8464,5.0,1312.8467,,,,1315.3962,1315.8955,1314.8796,1315.3961,1313.863,253.0,1314.8794,1315.8956,1316.3957,1316.3957,1318.1292,1005.5,1318.1294,3.0,1319.1288,5.0,21.0,171.0,6.0,1.0,1.0,0.7,Time
,,S10,1,Male,30,anonymized,Serial_Dependence_U,2023.2.3,Win32,59.88023952,,,,,,,,,,,,1319.1294,5.0,1319.1297,,,,1321.8792,1322.3786,1321.3625,1321.8791,1320.1459,111.0,1321.3625,1322.3786,1322.8785,1322.8786,1325.0954,1019.7,1325.0957,2.0,1326.0951,5.0,22.0,172.0,22.0,1.0,1.2,0.3,Time
,,S10,1,Male,30,anonymized,Serial_Dependence_U,2023.2.3,Win32,59.88023952,,,,,,,,,,,,1326.0956,5.0,1326.0959,,,,1328.4455,1328.9448,1327.9289,1328.4454,1327.1123,18.0,1327.9287,1328.9449,1329.4449,1329.4449,1331.1784,831.6,1331.1787,3.0,1332.1781,5.0,23.0,173.0,10.0,1.0,0.8,0.3,Time
,,S10,1,Male,30,anonymized,Serial_Dependence_U,2023.2.3,Win32,59.88023952,,,,,,,,,,,,1332.1787,5.0,1332.1791,,,,1334.9285,1335.428,1334.4118,1334.9285,1333.1952,22.0,1334.4118,1335.428,1335.9278,1335.9279,1338.2115,1300.1,1338.2117,4.0,1339.211,5.0,24.0,174.0,17.0,1.0,1.2,0.7,Time
,,S10,1,Male,30,anonymized,Serial_Dependence_U,2023.2.3,Win32,59.88023952,,,,,,,,,,,,1339.2116,5.0,1339.212,,,,1341.7615,1342.261,1341.2448,1341.7613,1340.2282,182.0,1341.2447,1342.261,1342.7609,1342.7609,1344.5111,964.6,1344.5113,3.0,1345.5107,5.0,25.0,175.0,21.0,1.0,1.0,0.3,Time
,,S10,1,Male,30,anonymized,Serial_Dependence_U,2023.2.3,Win32,59.88023952,,,,,,,,,,,,1345.5113,5.0,1345.5115,,,,1348.0612,1348.5605,1347.5446,1348.0611,1346.5279,148.0,1347.5445,1348.5605,1349.0605,1349.0605,1350.7941,1032.3,1350.7944,3.0,1351.7936,5.0,26.0,176.0,26.0,1.0,1.0,0.7,Time
,,S10,1,Male,30,anonymized,Serial_Dependence_U,2023.2.3,Win32,59.88023952,,,,,,,,,,,,1351.7942,5.0,1351.7945,,,,1354.5441,1355.0436,1354.0276,1354.5441,1352.811,120.0,1354.0275,1355.0436,1355.5435,1355.5435,1357.0272,1003.6,1357.0274,2.0,1358.0267,5.0,27.0,177.0,7.0,1.0,1.2,0.7,Time
,,S10,1,Male,30,anonymized,Serial_Dependence_U,2023.2.3,Win32,59.88023952,,,,,,,,,,,,1358.0272,5.0,1358.0274,,,,1360.3772,1360.8766,1359.8606,1360.3771,1359.044,301.0,1359.8604,1360.8766,1361.3765,1361.3766,1362.9769,666.7,1362.9773,2.0,1363.9764,5.0,28.0,178.0,15.0,1.0,0.8,0.7,Time
,,S10,1,Male,30,anonymized,Serial_Dependence_U,2023.2.3,Win32,59.88023952,,,,,,,,,,,,1363.9773,5.0,1363.9782,,,,1366.327,1366.8263,1365.8102,1366.3268,1364.9937,151.0,1365.8101,1366.8264,1367.3264,1367.3264,1368.5765,749.1,1368.5768,2.0,1369.5762,5.0,29.0,179.0,25.0,1.0,0.8,0.7,Time
,,S10,1,Male,30,anonymized,Serial_Dependence_U,2023.2.3,Win32,59.88023952,,,,,,,,,,,,1369.5768,6.0,1371.6262,s,2.0305,,1374.3766,1374.8758,1373.8598,1374.3765,1372.6433,9.0,1373.8597,1374.8759,1375.3759,1375.3759,1377.5928,1230.2,1377.5931,3.0,1378.5924,6.0,0.0,180.0,2.0,1.0,1.2,0.3,Time
,,S10,1,Male,30,anonymized,Serial_Dependence_U,2023.2.3,Win32,59.88023952,,,,,,,,,,,,1378.5929,6.0,1378.5948,,,,1381.3427,1381.8421,1380.8262,1381.3426,1379.6097,261.0,1380.8261,1381.8422,1382.3422,1382.3422,1384.7257,1419.3,1384.7259,4.0,1385.7253,6.0,1.0,181.0,22.0,1.0,1.2,0.3,Time
,,S10,1,Male,30,anonymized,Serial_Dependence_U,2023.2.3,Win32,59.88023952,,,,,,,,,,,,1385.7259,6.0,1385.7261,,,,1388.2758,1388.7752,1387.7591,1388.2756,1386.7425,88.0,1387.759,1388.7752,1389.2752,1389.2752,1391.0587,833.1,1391.0589,2.0,1392.0582,6.0,2.0,182.0,26.0,1.0,1.0,0.7,Time
,,S10,1,Male,30,anonymized,Serial_Dependence_U,2023.2.3,Win32,59.88023952,,,,,,,,,,,,1392.0589,6.0,1392.0593,,,,1395.0088,1395.5081,1394.4921,1395.0088,1393.0755,217.0,1394.492,1395.5081,1396.0081,1396.0081,1398.4251,1413.7,1398.4253,3.0,1399.4246,6.0,3.0,183.0,13.0,1.0,1.4,0.3,Time
,,S10,1,Male,30,anonymized,Serial_Dependence_U,2023.2.3,Win32,59.88023952,,,,,,,,,,,,1399.4252,6.0,1399.4255,,,,1401.775,1402.2744,1401.2584,1401.7749,1400.4418,101.0,1401.2584,1402.2745,1402.7744,1402.7745,1404.0416,672.9,1404.0418,2.0,1405.041,6.0,4.0,184.0,15.0,1.0,0.8,0.7,Time
,,S10,1,Male,30,anonymized,Serial_Dependence_U,2023.2.3,Win32,59.88023952,,,,,,,,,,,,1405.0418,6.0,1405.0424,,,,1407.7914,1408.2908,1407.2748,1407.7913,1406.0582,260.0,1407.2746,1408.2908,1408.7908,1408.7908,1410.7744,1333.0,1410.7747,4.0,1411.774,6.0,5.0,185.0,12.0,1.0,1.2,0.3,Time
,,S10,1,Male,30,anonymized,Serial_Dependence_U,2023.2.3,Win32,59.88023952,,,,,,,,,,,,1411.7745,6.0,1411.7748,,,,1414.3244,1414.8239,1413.8078,1414.3242,1412.7911,251.0,1413.8077,1414.8239,1415.3238,1415.3238,1416.8407,847.0,1416.841,2.0,1417.8403,6.0,6.0,186.0,21.0,1.0,1.0,0.3,Time
,,S10,1,Male,30,anonymized,Serial_Dependence_U,2023.2.3,Win32,59.88023952,,,,,,,,,,,,1417.8409,6.0,1417.8413,,,,1420.9912,1421.4901,1420.4742,1420.9909,1418.8582,268.0,1420.474,1421.4901,1421.9901,1421.9901,1424.707,1666.7,1424.7073,3.0,1425.7066,6.0,7.0,187.0,14.0,1.0,1.6,0.3,Time
,,S10,1,Male,30,anonymized,Serial_Dependence_U,2023.2.3,Win32,59.88023952,,,,,,,,,,,,1425.7071,6.0,1425.7073,,,,1428.657,1429.1564,1428.1403,1428.6569,1426.7238,83.0,1428.1402,1429.1564,1429.6564,1429.6564,1431.7233,1193.6,1431.7235,2.0,1432.7229,6.0,8.0,188.0,8.0,1.0,1.4,0.7,Time
,,S10,1,Male,30,anonymized,Serial_Dependence_U,2023.2.3,Win32,59.88023952,,,,,,,,,,,,1432.7235,6.0,1432.724,,,,1435.2733,1435.7728,1434.7566,1435.2732,1433.7401,273.0,1434.7565,1435.7728,1436.2727,1436.2727,1438.273,1199.0,1438.2733,4.0,1439.2726,6.0,9.0,189.0,6.0,1.0,1.0,0.7,Time
,,S10,1,Male,30,anonymized,Serial_Dependence_U,2023.2.3,Win32,59.88023952,,,,,,,,,,,,1439.2731,6.0,1439.2734,,,,1441.6231,1442.1224,1441.1063,1441.623,1440.2899,146.0,1441.1062,1442.1224,1442.6224,1442.6224,1444.2226,1228.1,1444.2228,5.0,1445.2222,6.0,10.0,190.0,25.0,1.0,0.8,0.7,Time
,,S10,1,Male,30,anonymized,Serial_Dependence_U,2023.2.3,Win32,59.88023952,,,,,,,,,,,,1445.2228,6.0,1445.2231,,,,1447.5727,1448.072,1447.0561,1447.5725,1446.2395,173.0,1447.056,1448.0721,1448.5721,1448.5721,1450.4223,747.8,1450.4226,2.0,1451.4219,6.0,11.0,191.0,20.0,1.0,0.8,0.3,Time
,,S10,1,Male,30,anonymized,Serial_Dependence_U,2023.2.3,Win32,59.88023952,,,,,,,,,,,,1451.4225,6.0,1451.4228,,,,1453.9724,1454.4717,1453.4557,1453.9724,1452.4391,4.0,1453.4556,1454.4717,1454.9717,1454.9717,1457.0219,1217.9,1457.0222,4.0,1458.0216,6.0,12.0,192.0,16.0,1.0,1.0,0.7,Time
,,S10,1,Male,30,anonymized,Serial_Dependence_U,2023.2.3,Win32,59.88023952,,,,,,,,,,,,1458.0222,6.0,1458.0225,,,,1460.9754,1461.4713,1460.4553,1460.9752,1459.0389,241.0,1460.4552,1461.4714,1461.9716,1461.9716,1463.9052,1323.3,1463.9055,2.0,1464.9045,6.0,13.0,193.0,3.0,1.0,1.4,0.3,Time
,,S10,1,Male,30,anonymized,Serial_Dependence_U,2023.2.3,Win32,59.88023952,,,,,,,,,,,,1464.9051,6.0,1464.9055,,,,1467.2549,1467.7544,1466.7383,1467.2548,1465.9217,300.0,1466.7383,1467.7544,1468.2543,1468.2544,1469.4547,600.4,1469.4549,2.0,1470.4542,6.0,14.0,194.0,5.0,1.0,0.8,0.7,Time
,,S10,1,Male,30,anonymized,Serial_Dependence_U,2023.2.3,Win32,59.88023952,,,,,,,,,,,,1470.455,6.0,1470.4561,,,,1473.6046,1474.104,1473.088,1473.6046,1471.4715,99.0,1473.0879,1474.1041,1474.6041,1474.6041,1476.121,1133.1,1476.1213,2.0,1477.1208,6.0,15.0,195.0,19.0,1.0,1.6,0.7,Time
,,S10,1,Male,30,anonymized,Serial_Dependence_U,2023.2.3,Win32,59.88023952,,,,,,,,,,,,1477.1213,6.0,1477.122,,,,1480.0709,1480.5704,1479.5544,1480.0708,1478.1379,358.0,1479.5542,1480.5704,1481.0704,1481.0704,1483.2038,1449.8,1483.2041,3.0,1484.2035,6.0,16.0,196.0,28.0,1.0,1.4,0.7,Time
,,S10,1,Male,30,anonymized,Serial_Dependence_U,2023.2.3,Win32,59.88023952,,,,,,,,,,,,1484.2041,6.0,1484.2044,,,,1486.5541,1487.0534,1486.0374,1486.5539,1485.2207,20.0,1486.0373,1487.0534,1487.5534,1487.5535,1489.6703,866.5,1489.6704,4.0,1490.6698,6.0,17.0,197.0,10.0,1.0,0.8,0.3,Time
,,S10,1,Male,30,anonymized,Serial_Dependence_U,2023.2.3,Win32,59.88023952,,,,,,,,,,,,1490.6705,6.0,1490.6707,,,,1493.2203,1493.7197,1492.7037,1493.2202,1491.6871,81.0,1492.7035,1493.7197,1494.2197,1494.2197,1495.7033,321.2,1495.7036,1.0,1496.7029,6.0,18.0,198.0,11.0,1.0,1.0,0.3,Time
,,S10,1,Male,30,anonymized,Serial_Dependence_U,2023.2.3,Win32,59.88023952,,,,,,,,,,,,1496.7035,6.0,1496.7038,,,,1499.8534,1500.3527,1499.3367,1499.8533,1497.7202,202.0,1499.3365,1500.3527,1500.8526,1500.8527,1504.9197,2006.0,1504.9199,4.0,1505.9191,6.0,19.0,199.0,4.0,1.0,1.6,0.3,Time
,,S10,1,Male,30,anonymized,Serial_Dependence_U,2023.2.3,Win32,59.88023952,,,,,,,,,,,,1505.9197,6.0,1505.92,,,,1508.6695,1509.1688,1508.1528,1508.6694,1506.9364,136.0,1508.1527,1509.1689,1509.6689,1509.669,1511.9024,1316.4,1511.9026,4.0,1512.9021,6.0,20.0,200.0,27.0,1.0,1.2,0.7,Time
,,S10,1,Male,30,anonymized,Serial_Dependence_U,2023.2.3,Win32,59.88023952,,,,,,,,,,,,1512.9027,6.0,1512.9029,,,,1516.0525,1516.5519,1515.5359,1516.0524,1513.9196,248.0,1515.5357,1516.5519,1517.0519,1517.0519,1520.6188,1700.1,1520.619,4.0,1521.6183,6.0,21.0,201.0,29.0,1.0,1.6,0.7,Time
,,S10,1,Male,30,anonymized,Serial_Dependence_U,2023.2.3,Win32,59.88023952,,,,,,,,,,,,1521.6188,6.0,1521.6193,,,,1524.5687,1525.068,1524.0524,1524.5686,1522.6355,120.0,1524.0523,1525.0681,1525.5681,1525.5681,1526.535,371.8,1526.5353,1.0,1527.5346,6.0,22.0,202.0,18.0,1.0,1.4,0.7,Time
,,S10,1,Male,30,anonymized,Serial_Dependence_U,2023.2.3,Win32,59.88023952,,,,,,,,,,,,1527.5352,6.0,1527.5354,,,,1529.8851,1530.3845,1529.3686,1529.8849,1528.5519,226.0,1529.3685,1530.3845,1530.8844,1530.8845,1532.3348,950.2,1532.3349,4.0,1533.3343,6.0,23.0,203.0,0.0,1.0,0.8,0.3,Time
,,S10,1,Male,30,anonymized,Serial_Dependence_U,2023.2.3,Win32,59.88023952,,,,,,,,,,,,1533.3348,6.0,1533.3351,,,,1536.2847,1536.7841,1535.7681,1536.2847,1534.3517,88.0,1535.768,1536.7841,1537.2841,1537.2841,1539.2844,1566.9,1539.2847,4.0,1540.2839,6.0,24.0,204.0,23.0,1.0,1.4,0.3,Time
,,S10,1,Male,30,anonymized,Serial_Dependence_U,2023.2.3,Win32,59.88023952,,,,,,,,,,,,1540.2845,6.0,1540.2848,,,,1543.0344,1543.5338,1542.5177,1543.0343,1541.3012,13.0,1542.5177,1543.5338,1544.0338,1544.0339,1545.984,1450.1,1545.9842,4.0,1546.9836,6.0,25.0,205.0,7.0,1.0,1.2,0.7,Time
,,S10,1,Male,30,anonymized,Serial_Dependence_U,2023.2.3,Win32,59.88023952,,,,,,,,,,,,1546.9841,6.0,1546.9844,,,,1549.734,1550.2335,1549.2174,1549.7339,1548.0008,9.0,1549.2173,1550.2335,1550.7334,1550.7335,1551.6504,399.9,1551.6506,1.0,1552.65,6.0,26.0,206.0,17.0,1.0,1.2,0.7,Time
,,S10,1,Male,30,anonymized,Serial_Dependence_U,2023.2.3,Win32,59.88023952,,,,,,,,,,,,1552.6506,6.0,1552.6509,,,,1555.8005,1556.2998,1555.2836,1555.8004,1553.6671,133.0,1555.2836,1556.2998,1556.7999,1556.7999,1558.0,32.30000001,1558.0003,1.0,1558.9997,6.0,27.0,207.0,24.0,1.0,1.6,0.3,Time
,,S10,1,Male,30,anonymized,Serial_Dependence_U,2023.2.3,Win32,59.88023952,,,,,,,,,,,,1559.0003,6.0,1559.0005,,,,1562.15,1562.6495,1561.6333,1562.1499,1560.0169,222.0,1561.6333,1562.6495,1563.1495,1563.1495,1564.5996,1366.4,1564.5999,2.0,1565.5993,6.0,28.0,208.0,9.0,1.0,1.6,0.7,Time
,,S10,1,Male,30,anonymized,Serial_Dependence_U,2023.2.3,Win32,59.88023952,,,,,,,,,,,,1565.5998,6.0,1565.6002,,,,1568.1498,1568.6491,1567.6331,1568.1497,1566.6166,189.0,1567.633,1568.6491,1569.1491,1569.1492,1571.0826,995.8,1571.083,3.0,1572.0823,6.0,29.0,209.0,1.0,1.0,1.0,0.3,Time
,,S10,1,Male,30,anonymized,Serial_Dependence_U,2023.2.3,Win32,59.88023952,,,,,,,,,,,,1572.0829,7.0,1575.5323,s,3.4275,,1578.0826,1578.582,1577.5659,1578.0825,1576.5493,247.0,1577.5658,1578.582,1579.082,1579.0821,1583.4488,933.7,1583.449,2.0,1584.4484,7.0,0.0,210.0,1.0,1.0,1.0,0.3,Time
,,S10,1,Male,30,anonymized,Serial_Dependence_U,2023.2.3,Win32,59.88023952,,,,,,,,,,,,1584.449,7.0,1584.4508,,,,1587.3988,1587.8982,1586.8822,1587.3987,1585.4656,270.0,1586.8821,1587.8982,1588.3982,1588.3982,1590.9484,1416.7,1590.9487,3.0,1591.9481,7.0,1.0,211.0,8.0,1.0,1.4,0.7,Time
,,S10,1,Male,30,anonymized,Serial_Dependence_U,2023.2.3,Win32,59.88023952,,,,,,,,,,,,1591.9486,7.0,1591.9492,,,,1594.6983,1595.1978,1594.1818,1594.6983,1592.966,103.0,1594.1818,1595.1978,1595.6977,1595.6978,1598.448,1368.5,1598.4483,4.0,1599.4476,7.0,2.0,212.0,17.0,1.0,1.2,0.7,Time
,,S10,1,Male,30,anonymized,Serial_Dependence_U,2023.2.3,Win32,59.88023952,,,,,,,,,,,,1599.4481,7.0,1599.4485,,,,1602.598,1603.0973,1602.0813,1602.5979,1600.4648,233.0,1602.0812,1603.0974,1603.5973,1603.5974,1605.3809,850.2,1605.3812,1.0,1606.3806,7.0,3.0,213.0,24.0,1.0,1.6,0.3,Time
,,S10,1,Male,30,anonymized,Serial_Dependence_U,2023.2.3,Win32,59.88023952,,,,,,,,,,,,1606.3811,7.0,1606.3813,,,,1609.1309,1609.6303,1608.6143,1609.1309,1607.3977,100.0,1608.6142,1609.6304,1610.1303,1610.1304,1612.014,1202.5,1612.0143,3.0,1613.0135,7.0,4.0,214.0,2.0,1.0,1.2,0.3,Time
,,S10,1,Male,30,anonymized,Serial_Dependence_U,2023.2.3,Win32,59.88023952,,,,,,,,,,,,1613.0141,7.0,1613.0144,,,,1615.964,1616.4633,1615.4473,1615.9639,1614.0309,344.0,1615.4472,1616.4633,1616.9633,1616.9634,1618.2803,650.1,1618.2806,1.0,1619.2799,7.0,5.0,215.0,13.0,1.0,1.4,0.3,Time
,,S10,1,Male,30,anonymized,Serial_Dependence_U,2023.2.3,Win32,59.88023952,,,,,,,,,,,,1619.2804,7.0,1619.2807,,,,1622.4303,1622.9296,1621.9136,1622.4302,1620.2971,16.0,1621.9135,1622.9297,1623.4297,1623.4297,1624.9299,949.9,1624.9301,1.0,1625.9294,7.0,6.0,216.0,29.0,1.0,1.6,0.7,Time
,,S10,1,Male,30,anonymized,Serial_Dependence_U,2023.2.3,Win32,59.88023952,,,,,,,,,,,,1625.9301,7.0,1625.9304,,,,1628.88,1629.3793,1628.3633,1628.8798,1626.9467,253.0,1628.3633,1629.3794,1629.8793,1629.8793,1632.1298,1972.2,1632.1301,5.0,1633.1292,7.0,7.0,217.0,23.0,1.0,1.4,0.3,Time
,,S10,1,Male,30,anonymized,Serial_Dependence_U,2023.2.3,Win32,59.88023952,,,,,,,,,,,,1633.1297,7.0,1633.1302,,,,1635.6796,1636.179,1635.163,1635.6796,1634.1463,218.0,1635.1628,1636.179,1636.679,1636.6791,1638.5793,1067.7,1638.5794,4.0,1639.5788,7.0,8.0,218.0,21.0,1.0,1.0,0.3,Time
,,S10,1,Male,30,anonymized,Serial_Dependence_U,2023.2.3,Win32,59.88023952,,,,,,,,,,,,1639.5793,7.0,1639.5796,,,,1642.1293,1642.6287,1641.6126,1642.1292,1640.5961,261.0,1641.6124,1642.6287,1643.1286,1643.1287,1645.3788,933.0,1645.3791,2.0,1646.3784,7.0,9.0,219.0,11.0,1.0,1.0,0.3,Time
,,S10,1,Male,30,anonymized,Serial_Dependence_U,2023.2.3,Win32,59.88023952,,,,,,,,,,,,1646.379,7.0,1646.3793,,,,1649.5289,1650.0282,1649.0123,1649.5289,1647.3957,46.0,1649.0122,1650.0283,1650.5283,1650.5283,1653.8284,1645.2,1653.8286,3.0,1654.8281,7.0,10.0,220.0,14.0,1.0,1.6,0.3,Time
,,S10,1,Male,30,anonymized,Serial_Dependence_U,2023.2.3,Win32,59.88023952,,,,,,,,,,,,1654.8286,7.0,1654.8292,,,,1657.3785,1657.8779,1656.8618,1657.3784,1655.8453,226.0,1656.8617,1657.8779,1658.3779,1658.3779,1661.0447,1015.3,1661.045,3.0,1662.0443,7.0,11.0,221.0,26.0,1.0,1.0,0.7,Time
,,S10,1,Male,30,anonymized,Serial_Dependence_U,2023.2.3,Win32,59.88023952,,,,,,,,,,,,1662.0449,7.0,1662.0451,,,,1664.9947,1665.4941,1664.4781,1664.9946,1663.0615,199.0,1664.478,1665.4942,1665.9942,1665.9942,1668.161,1233.1,1668.1612,2.0,1669.1607,7.0,12.0,222.0,18.0,1.0,1.4,0.7,Time
,,S10,1,Male,30,anonymized,Serial_Dependence_U,2023.2.3,Win32,59.88023952,,,,,,,,,,,,1669.1611,7.0,1669.1615,,,,1671.5112,1672.0104,1670.9946,1671.511,1670.1779,73.0,1670.9945,1672.0104,1672.5105,1672.5105,1674.544,966.5,1674.5442,4.0,1675.5436,7.0,13.0,223.0,20.0,1.0,0.8,0.3,Time
,,S10,1,Male,30,anonymized,Serial_Dependence_U,2023.2.3,Win32,59.88023952,,,,,,,,,,,,1675.5442,7.0,1675.5445,,,,1678.2941,1678.7935,1677.7774,1678.294,1676.5607,14.0,1677.7773,1678.7935,1679.2934,1679.2935,1682.3603,1431.5,1682.3605,4.0,1683.3599,7.0,14.0,224.0,27.0,1.0,1.2,0.7,Time
,,S10,1,Male,30,anonymized,Serial_Dependence_U,2023.2.3,Win32,59.88023952,,,,,,,,,,,,1683.3604,7.0,1683.3607,,,,1685.7103,1686.2098,1685.1937,1685.7103,1684.3771,138.0,1685.1936,1686.2098,1686.7097,1686.7097,1688.9266,715.7,1688.9269,2.0,1689.9262,7.0,15.0,225.0,10.0,1.0,0.8,0.3,Time
,,S10,1,Male,30,anonymized,Serial_Dependence_U,2023.2.3,Win32,59.88023952,,,,,,,,,,,,1689.9268,7.0,1689.927,,,,1692.2767,1692.776,1691.7599,1692.2767,1690.9434,191.0,1691.7598,1692.7761,1693.276,1693.2761,1695.143,835.5,1695.1432,3.0,1696.1426,7.0,16.0,226.0,15.0,1.0,0.8,0.7,Time
,,S10,1,Male,30,anonymized,Serial_Dependence_U,2023.2.3,Win32,59.88023952,,,,,,,,,,,,1696.1431,7.0,1696.1434,,,,1698.893,1699.3924,1698.3762,1698.8928,1697.1597,96.0,1698.3762,1699.3924,1699.8923,1699.8924,1702.1759,1234.8,1702.1762,3.0,1703.1755,7.0,17.0,227.0,7.0,1.0,1.2,0.7,Time
,,S10,1,Male,30,anonymized,Serial_Dependence_U,2023.2.3,Win32,59.88023952,,,,,,,,,,,,1703.176,7.0,1703.1763,,,,1705.526,1706.0253,1705.0096,1705.5259,1704.1927,104.0,1705.0094,1706.0254,1706.5253,1706.5254,1708.359,566.5,1708.3591,2.0,1709.3585,7.0,18.0,228.0,25.0,1.0,0.8,0.7,Time
,,S10,1,Male,30,anonymized,Serial_Dependence_U,2023.2.3,Win32,59.88023952,,,,,,,,,,,,1709.3591,7.0,1709.3593,,,,1712.309,1712.8083,1711.7923,1712.3089,1710.3758,334.0,1711.7922,1712.8083,1713.3083,1713.3083,1714.2587,233.0,1714.2589,1.0,1715.2582,7.0,19.0,229.0,3.0,1.0,1.4,0.3,Time
,,S10,1,Male,30,anonymized,Serial_Dependence_U,2023.2.3,Win32,59.88023952,,,,,,,,,,,,1715.2588,7.0,1715.2592,,,,1717.8088,1718.308,1717.292,1717.8087,1716.2753,53.0,1717.2919,1718.308,1718.808,1718.8081,1720.9083,1314.9,1720.9086,5.0,1721.908,7.0,20.0,230.0,16.0,1.0,1.0,0.7,Time
,,S10,1,Male,30,anonymized,Serial_Dependence_U,2023.2.3,Win32,59.88023952,,,,,,,,,,,,1721.9086,7.0,1721.9092,,,,1725.0583,1725.5576,1724.5416,1725.0582,1722.925,304.0,1724.5416,1725.5577,1726.0576,1726.0577,1729.9078,1694.7,1729.9081,4.0,1730.9074,7.0,21.0,231.0,4.0,1.0,1.6,0.3,Time
,,S10,1,Male,30,anonymized,Serial_Dependence_U,2023.2.3,Win32,59.88023952,,,,,,,,,,,,1730.908,7.0,1730.9083,,,,1733.6579,1734.1573,1733.1412,1733.6578,1731.9247,202.0,1733.1411,1734.1573,1734.6572,1734.6573,1737.1408,1382.5,1737.141,4.0,1738.1403,7.0,22.0,232.0,12.0,1.0,1.2,0.3,Time
,,S10,1,Male,30,anonymized,Serial_Dependence_U,2023.2.3,Win32,59.88023952,,,,,,,,,,,,1738.1409,7.0,1738.1412,,,,1741.2908,1741.7902,1740.7742,1741.2907,1739.1576,16.0,1740.7741,1741.7902,1742.2901,1742.2902,1743.9737,912.9,1743.974,1.0,1744.9734,7.0,23.0,233.0,19.0,1.0,1.6,0.7,Time
,,S10,1,Male,30,anonymized,Serial_Dependence_U,2023.2.3,Win32,59.88023952,,,,,,,,,,,,1744.9739,7.0,1744.9743,,,,1747.5072,1748.0065,1746.9905,1747.507,1745.9751,351.0,1746.9903,1748.0065,1748.5065,1748.5066,1749.9736,945.0,1749.974,2.0,1750.973,7.0,24.0,234.0,6.0,1.0,1.0,0.7,Time
,,S10,1,Male,30,anonymized,Serial_Dependence_U,2023.2.3,Win32,59.88023952,,,,,,,,,,,,1750.9737,7.0,1750.9739,,,,1753.3068,1753.8062,1752.7902,1753.3067,1751.9741,62.0,1752.7901,1753.8062,1754.3062,1754.3062,1756.2898,782.8,1756.2901,3.0,1757.2894,7.0,25.0,235.0,0.0,1.0,0.8,0.3,Time
,,S10,1,Male,30,anonymized,Serial_Dependence_U,2023.2.3,Win32,59.88023952,,,,,,,,,,,,1757.2899,7.0,1757.2903,,,,1760.2398,1760.7392,1759.7232,1760.2397,1758.3067,268.0,1759.723,1760.7392,1761.2391,1761.2392,1763.6228,1454.1,1763.623,3.0,1764.6224,7.0,26.0,236.0,28.0,1.0,1.4,0.7,Time
,,S10,1,Male,30,anonymized,Serial_Dependence_U,2023.2.3,Win32,59.88023952,,,,,,,,,,,,1764.6229,7.0,1764.6232,,,,1766.9729,1767.4722,1766.4562,1766.9728,1765.6395,42.0,1766.456,1767.4722,1767.9724,1767.9725,1769.7391,732.5,1769.7394,2.0,1770.7387,7.0,27.0,237.0,5.0,1.0,0.8,0.7,Time
,,S10,1,Male,30,anonymized,Serial_Dependence_U,2023.2.3,Win32,59.88023952,,,,,,,,,,,,1770.7392,7.0,1770.7395,,,,1773.4892,1773.9884,1772.9734,1773.4891,1771.7559,344.0,1772.9732,1773.9885,1774.4885,1774.4885,1777.0221,1333.4,1777.0223,4.0,1778.0217,7.0,28.0,238.0,22.0,1.0,1.2,0.3,Time
,,S10,1,Male,30,anonymized,Serial_Dependence_U,2023.2.3,Win32,59.88023952,,,,,,,,,,,,1778.0222,7.0,1778.0225,,,,1781.1721,1781.6714,1780.6553,1781.1721,1779.0389,189.0,1780.6553,1781.6715,1782.1714,1782.1715,1784.4384,1614.7,1784.4386,3.0,1785.4379,7.0,29.0,239.0,9.0,1.0,1.6,0.7,Time
,,S10,1,Male,30,anonymized,Serial_Dependence_U,2023.2.3,Win32,59.88023952,,,,,,,,,,,,1785.4384,8.0,1787.6714,s,2.2129,,1790.0216,1790.5211,1789.5049,1790.0215,1788.6883,283.0,1789.5048,1790.5211,1791.021,1791.021,1792.6547,849.7,1792.6549,4.0,1793.6541,8.0,0.0,240.0,0.0,1.0,0.8,0.3,Time
,,S10,1,Male,30,anonymized,Serial_Dependence_U,2023.2.3,Win32,59.88023952,,,,,,,,,,,,1793.6547,8.0,1793.6564,,,,1796.6046,1797.1039,1796.0879,1796.6045,1794.6714,277.0,1796.0879,1797.104,1797.6039,1797.604,1798.4043,132.6,1798.4045,1.0,1799.4039,8.0,1.0,241.0,8.0,1.0,1.4,0.7,Time
,,S10,1,Male,30,anonymized,Serial_Dependence_U,2023.2.3,Win32,59.88023952,,,,,,,,,,,,1799.4045,8.0,1799.4047,,,,1802.1543,1802.6536,1801.6376,1802.1543,1800.4211,199.0,1801.6375,1802.6537,1803.1536,1803.1537,1805.3539,785.2,1805.3542,1.0,1806.3535,8.0,2.0,242.0,22.0,1.0,1.2,0.3,Time
,,S10,1,Male,30,anonymized,Serial_Dependence_U,2023.2.3,Win32,59.88023952,,,,,,,,,,,,1806.3541,8.0,1806.3543,,,,1809.5039,1810.0033,1808.9873,1809.5038,1807.3707,200.0,1808.9872,1810.0034,1810.5034,1810.5034,1812.4869,1448.1,1812.4872,2.0,1813.4864,8.0,3.0,243.0,19.0,1.0,1.6,0.7,Time
,,S10,1,Male,30,anonymized,Serial_Dependence_U,2023.2.3,Win32,59.88023952,,,,,,,,,,,,1813.4871,8.0,1813.4873,,,,1816.2369,1816.7363,1815.7202,1816.2368,1814.5036,22.0,1815.7202,1816.7363,1817.2364,1817.2364,1819.4365,1218.3,1819.4368,3.0,1820.4362,8.0,4.0,244.0,12.0,1.0,1.2,0.3,Time
,,S10,1,Male,30,anonymized,Serial_Dependence_U,2023.2.3,Win32,59.88023952,,,,,,,,,,,,1820.4368,8.0,1820.4375,,,,1823.1865,1823.6859,1822.6698,1823.1865,1821.4533,22.0,1822.6698,1823.686,1824.186,1824.186,1826.3194,1271.4,1826.3197,4.0,1827.319,8.0,5.0,245.0,7.0,1.0,1.2,0.7,Time
,,S10,1,Male,30,anonymized,Serial_Dependence_U,2023.2.3,Win32,59.88023952,,,,,,,,,,,,1827.3197,8.0,1827.3201,,,,1830.2696,1830.7688,1829.7529,1830.2695,1828.3362,81.0,1829.7528,1830.7689,1831.2688,1831.2689,1833.1358,1233.4,1833.136,2.0,1834.1354,8.0,6.0,246.0,3.0,1.0,1.4,0.3,Time
,,S10,1,Male,30,anonymized,Serial_Dependence_U,2023.2.3,Win32,59.88023952,,,,,,,,,,,,1834.136,8.0,1834.1366,,,,1836.4859,1836.9852,1835.9693,1836.4858,1835.1526,122.0,1835.9691,1836.9853,1837.4853,1837.4854,1838.8355,934.5,1838.8357,4.0,1839.8351,8.0,7.0,247.0,20.0,1.0,0.8,0.3,Time
,,S10,1,Male,30,anonymized,Serial_Dependence_U,2023.2.3,Win32,59.88023952,,,,,,,,,,,,1839.8356,8.0,1839.8358,,,,1842.9855,1843.4849,1842.469,1842.9854,1840.8524,215.0,1842.4688,1843.4849,1843.985,1843.985,1846.4518,1633.1,1846.4521,3.0,1847.4514,8.0,8.0,248.0,4.0,1.0,1.6,0.3,Time
,,S10,1,Male,30,anonymized,Serial_Dependence_U,2023.2.3,Win32,59.88023952,,,,,,,,,,,,1847.4519,8.0,1847.4522,,,,1850.202,1850.7012,1849.6862,1850.2017,1848.4687,184.0,1849.6858,1850.7013,1851.2013,1851.2013,1853.2348,1183.3,1853.2351,3.0,1854.2344,8.0,9.0,249.0,2.0,1.0,1.2,0.3,Time
,,S10,1,Male,30,anonymized,Serial_Dependence_U,2023.2.3,Win32,59.88023952,,,,,,,,,,,,1854.2349,8.0,1854.2352,,,,1857.3848,1857.8841,1856.8681,1857.3846,1855.2516,82.0,1856.868,1857.8841,1858.3842,1858.3842,1860.2677,1404.7,1860.268,2.0,1861.2674,8.0,10.0,250.0,14.0,1.0,1.6,0.3,Time
,,S10,1,Male,30,anonymized,Serial_Dependence_U,2023.2.3,Win32,59.88023952,,,,,,,,,,,,1861.268,8.0,1861.2683,,,,1864.0178,1864.5171,1863.501,1864.0177,1862.2849,14.0,1863.5009,1864.5171,1865.0171,1865.0172,1866.8007,1239.3,1866.8009,3.0,1867.8004,8.0,11.0,251.0,27.0,1.0,1.2,0.7,Time
,,S10,1,Male,30,anonymized,Serial_Dependence_U,2023.2.3,Win32,59.88023952,,,,,,,,,,,,1867.8009,8.0,1867.8012,,,,1870.7509,1871.2501,1870.2341,1870.7507,1868.8176,116.0,1870.234,1871.2501,1871.7501,1871.7501,1873.2504,1316.4,1873.2507,2.0,1874.25,8.0,12.0,252.0,23.0,1.0,1.4,0.3,Time
,,S10,1,Male,30,anonymized,Serial_Dependence_U,2023.2.3,Win32,59.88023952,,,,,,,,,,,,1874.2506,8.0,1874.2508,,,,1877.4004,1877.8997,1876.8837,1877.4004,1875.2671,185.0,1876.8836,1877.8998,1878.3998,1878.3998,1880.7,1565.0,1880.7003,3.0,1881.6996,8.0,13.0,253.0,29.0,1.0,1.6,0.7,Time
,,S10,1,Male,30,anonymized,Serial_Dependence_U,2023.2.3,Win32,59.88023952,,,,,,,,,,,,1881.7001,8.0,1881.7004,,,,1884.05,1884.5497,1883.5334,1884.0499,1882.7167,66.0,1883.5333,1884.5497,1885.0494,1885.0494,1886.3331,716.8,1886.3333,2.0,1887.3326,8.0,14.0,254.0,25.0,1.0,0.8,0.7,Time
,,S10,1,Male,30,anonymized,Serial_Dependence_U,2023.2.3,Win32,59.88023952,,,,,,,,,,,,1887.3332,8.0,1887.3338,,,,1889.6832,1890.1824,1889.1664,1889.6831,1888.3499,278.0,1889.1663,1890.1825,1890.6825,1890.6825,1892.0328,963.3,1892.033,4.0,1893.0323,8.0,15.0,255.0,5.0,1.0,0.8,0.7,Time
,,S10,1,Male,30,anonymized,Serial_Dependence_U,2023.2.3,Win32,59.88023952,,,,,,,,,,,,1893.033,8.0,1893.0333,,,,1895.983,1896.4822,1895.4661,1895.9828,1894.0497,116.0,1895.466,1896.4822,1896.9822,1896.9822,1898.4824,1031.2,1898.4827,2.0,1899.4821,8.0,16.0,256.0,18.0,1.0,1.4,0.7,Time
,,S10,1,Male,30,anonymized,Serial_Dependence_U,2023.2.3,Win32,59.88023952,,,,,,,,,,,,1899.4826,8.0,1899.483,,,,1902.4326,1902.9319,1901.9159,1902.4325,1900.4995,196.0,1901.9157,1902.9319,1903.4319,1903.4319,1904.3822,289.6,1904.3824,1.0,1905.3817,8.0,17.0,257.0,13.0,1.0,1.4,0.3,Time
,,S10,1,Male,30,anonymized,Serial_Dependence_U,2023.2.3,Win32,59.88023952,,,,,,,,,,,,1905.3823,8.0,1905.3826,,,,1907.7323,1908.2315,1907.2155,1907.7322,1906.3989,150.0,1907.2154,1908.2315,1908.7316,1908.7316,1910.2985,933.0,1910.2987,4.0,1911.298,8.0,18.0,258.0,15.0,1.0,0.8,0.7,Time
,,S10,1,Male,30,anonymized,Serial_Dependence_U,2023.2.3,Win32,59.88023952,,,,,,,,,,,,1911.2987,8.0,1911.2995,,,,1913.8486,1914.3479,1913.332,1913.8484,1912.3153,301.0,1913.3318,1914.348,1914.8478,1914.848,1916.9148,1118.0,1916.9151,4.0,1917.9143,8.0,19.0,259.0,21.0,1.0,1.0,0.3,Time
,,S10,1,Male,30,anonymized,Serial_Dependence_U,2023.2.3,Win32,59.88023952,,,,,,,,,,,,1917.9149,8.0,1917.9152,,,,1920.4649,1920.9642,1919.9481,1920.4648,1918.9315,20.0,1919.9481,1920.9642,1921.4642,1921.4642,1923.0979,1182.9,1923.0982,4.0,1924.0974,8.0,20.0,260.0,6.0,1.0,1.0,0.7,Time
,,S10,1,Male,30,anonymized,Serial_Dependence_U,2023.2.3,Win32,59.88023952,,,,,,,,,,,,1924.098,8.0,1924.0983,,,,1926.6479,1927.1472,1926.1311,1926.6478,1925.1146,172.0,1926.131,1927.1472,1927.6472,1927.6472,1928.9993,1319.7,1928.9995,5.0,1929.997,8.0,21.0,261.0,16.0,1.0,1.0,0.7,Time
,,S10,1,Male,30,anonymized,Serial_Dependence_U,2023.2.3,Win32,59.88023952,,,,,,,,,,,,1929.9976,8.0,1929.9979,,,,1932.7475,1933.2469,1932.2309,1932.7475,1931.0148,157.0,1932.2308,1933.2469,1933.7469,1933.747,1935.3972,1380.4,1935.3975,4.0,1936.3967,8.0,22.0,262.0,17.0,1.0,1.2,0.7,Time
,,S10,1,Male,30,anonymized,Serial_Dependence_U,2023.2.3,Win32,59.88023952,,,,,,,,,,,,1936.3973,8.0,1936.3975,,,,1938.7472,1939.2466,1938.2305,1938.7471,1937.414,236.0,1938.2304,1939.2466,1939.7466,1939.7467,1941.0299,686.7,1941.0302,2.0,1942.0298,8.0,23.0,263.0,10.0,1.0,0.8,0.3,Time
,,S10,1,Male,30,anonymized,Serial_Dependence_U,2023.2.3,Win32,59.88023952,,,,,,,,,,,,1942.0304,8.0,1942.0309,,,,1944.5803,1945.0796,1944.0636,1944.5801,1943.0471,309.0,1944.0635,1945.0796,1945.5796,1945.5797,1947.2465,1030.7,1947.2468,3.0,1948.2462,8.0,24.0,264.0,1.0,1.0,1.0,0.3,Time
,,S10,1,Male,30,anonymized,Serial_Dependence_U,2023.2.3,Win32,59.88023952,,,,,,,,,,,,1948.2467,8.0,1948.2469,,,,1950.7966,1951.296,1950.28,1950.7965,1949.2634,282.0,1950.2798,1951.2961,1951.796,1951.796,1953.263,933.2,1953.2633,2.0,1954.2625,8.0,25.0,265.0,11.0,1.0,1.0,0.3,Time
,,S10,1,Male,30,anonymized,Serial_Dependence_U,2023.2.3,Win32,59.88023952,,,,,,,,,,,,1954.2631,8.0,1954.2635,,,,1957.413,1957.9123,1956.8963,1957.4129,1955.2798,186.0,1956.8962,1957.9123,1958.4123,1958.4124,1959.7459,683.5,1959.7461,1.0,1960.7455,8.0,26.0,266.0,9.0,1.0,1.6,0.7,Time
,,S10,1,Male,30,anonymized,Serial_Dependence_U,2023.2.3,Win32,59.88023952,,,,,,,,,,,,1960.7461,8.0,1960.7464,,,,1963.6959,1964.1954,1963.1793,1963.6958,1961.7628,333.0,1963.1792,1964.1954,1964.6953,1964.6954,1966.6956,1369.7,1966.6959,3.0,1967.6952,8.0,27.0,267.0,28.0,1.0,1.4,0.7,Time
,,S10,1,Male,30,anonymized,Serial_Dependence_U,2023.2.3,Win32,59.88023952,,,,,,,,,,,,1967.6957,8.0,1967.6959,,,,1970.2457,1970.745,1969.7289,1970.2455,1968.7124,273.0,1969.7288,1970.745,1971.2449,1971.245,1973.4785,1133.8,1973.4788,4.0,1974.4781,8.0,28.0,268.0,26.0,1.0,1.0,0.7,Time
,,S10,1,Male,30,anonymized,Serial_Dependence_U,2023.2.3,Win32,59.88023952,,,,,,,,,,,,1974.4787,8.0,1974.4789,,,,1977.6286,1978.1279,1977.1119,1977.6285,1975.4954,149.0,1977.1117,1978.128,1978.6279,1978.628,1981.2448,1603.1,1981.245,3.0,1982.2444,8.0,29.0,269.0,24.0,1.0,1.6,0.3,Time
