Scale_setup.started,Scale_setup.stopped,participant,session,sex,age,date,expName,psychopyVersion,OS,frameRate,screen_scale_keys.started,screen_scale_keys.stopped,X Scale,Y Scale,rectangel_keys.started,rectangel_keys.stopped,Intro.started,Intro.stopped,key_resp_2.keys,key_resp_2.rt,key_resp_2.duration,block.started,Block_id,block.stopped,Block_resp_2.keys,Block_resp_2.rt,Block_resp_2.duration,ITI.started,ITI.stopped,Mask_2.started,Mask_2.stopped,M2.started,direction,M2.stopped,Cue.started,Cue.stopped,Response.started,Response.stopped,keyDuration,Feedback_Time.started,FeedbackID_T,Feedback_Time.stopped,trials.thisRepN,trials.thisTrialN,trials.thisN,trials.thisIndex,trials.ran,TimeDur,Coherence1,TrialType
0.0005,0.001,S13,1,Male,30,anonymized,Serial_Dependence_U,2023.2.3,Win32,59.88023952,,,,,,,,,,,,,,,,,,,,,,,,,,,,,,,,,,,,,,,,
,,S13,1,Male,30,anonymized,Serial_Dependence_U,2023.2.3,Win32,59.88023952,0.0054,232.5672,0.0665,0.0638,232.5674,242.3721,242.3727,330.5531,space,88.1141,,,,,,,,,,,,,,,,,,,,,,,,,,,,,,
,,S13,1,Male,30,anonymized,Serial_Dependence_U,2023.2.3,Win32,59.88023952,,,,,,,,,,,,330.5701,0.0,333.3174,s,2.7167,,335.6552,336.1465,335.1415,335.655,334.3274,22.0,335.1411,336.1466,336.6466,336.647,339.9206,1144.0,339.9212,5.0,340.9328,0.0,0.0,0.0,25.0,1.0,0.8,0.7,Time
,,S13,1,Male,30,anonymized,Serial_Dependence_U,2023.2.3,Win32,59.88023952,,,,,,,,,,,,340.9374,0.0,340.9436,,,,343.4779,343.9722,342.9591,343.4778,341.9495,336.0,342.9584,343.9723,344.4716,344.4716,347.2748,977.6,347.2766,3.0,348.2682,0.0,1.0,1.0,1.0,1.0,1.0,0.3,Time
,,S13,1,Male,30,anonymized,Serial_Dependence_U,2023.2.3,Win32,59.88023952,,,,,,,,,,,,348.2707,0.0,348.2719,,,,350.6097,351.0983,350.1029,350.6096,349.2949,160.0,350.1027,351.0984,351.5978,351.5978,354.1621,1110.3,354.1624,5.0,355.1613,0.0,2.0,2.0,10.0,1.0,0.8,0.3,Time
,,S13,1,Male,30,anonymized,Serial_Dependence_U,2023.2.3,Win32,59.88023952,,,,,,,,,,,,355.1623,0.0,355.163,,,,357.9166,358.4079,357.3959,357.916,356.1823,295.0,357.3958,358.408,358.9073,358.9074,360.6453,1047.9,360.6459,2.0,361.6384,0.0,3.0,3.0,2.0,1.0,1.2,0.3,Time
,,S13,1,Male,30,anonymized,Serial_Dependence_U,2023.2.3,Win32,59.88023952,,,,,,,,,,,,361.641,0.0,361.6421,,,,363.9632,364.4522,363.4554,363.9631,362.6497,103.0,363.4552,364.4523,364.9532,364.9532,366.6677,1020.0,366.6679,4.0,367.6657,0.0,4.0,4.0,15.0,1.0,0.8,0.7,Time
,,S13,1,Male,30,anonymized,Serial_Dependence_U,2023.2.3,Win32,59.88023952,,,,,,,,,,,,367.6663,0.0,367.6668,,,,370.2,370.696,369.6896,370.1999,368.6724,208.0,369.6895,370.6961,371.1979,371.1982,372.5545,886.2,372.5557,2.0,373.5596,0.0,5.0,5.0,21.0,1.0,1.0,0.3,Time
,,S13,1,Male,30,anonymized,Serial_Dependence_U,2023.2.3,Win32,59.88023952,,,,,,,,,,,,373.5603,0.0,373.5606,,,,376.3214,376.8232,375.7937,376.3213,374.5803,142.0,375.7935,376.8233,377.3248,377.3251,378.8096,1050.0,378.8101,2.0,379.8039,0.0,6.0,6.0,22.0,1.0,1.2,0.3,Time
,,S13,1,Male,30,anonymized,Serial_Dependence_U,2023.2.3,Win32,59.88023952,,,,,,,,,,,,379.8047,0.0,379.8056,,,,382.7385,383.2337,382.2198,382.7384,380.8069,215.0,382.2193,383.2337,383.7333,383.7333,385.31,1003.7,385.3103,2.0,386.314,0.0,7.0,7.0,3.0,1.0,1.4,0.3,Time
,,S13,1,Male,30,anonymized,Serial_Dependence_U,2023.2.3,Win32,59.88023952,,,,,,,,,,,,386.3146,0.0,386.315,,,,388.6458,389.1444,388.1304,388.6456,387.3227,50.0,388.1303,389.1444,389.6439,389.644,392.9449,1214.4,392.946,5.0,393.94,0.0,8.0,8.0,0.0,1.0,0.8,0.3,Time
,,S13,1,Male,30,anonymized,Serial_Dependence_U,2023.2.3,Win32,59.88023952,,,,,,,,,,,,393.9405,0.0,393.9412,,,,396.4995,396.9873,395.9803,396.4994,394.9683,128.0,395.9803,396.9873,397.4868,397.4869,400.7469,1201.3,400.7472,4.0,401.75,0.0,9.0,9.0,11.0,1.0,1.0,0.3,Time
,,S13,1,Male,30,anonymized,Serial_Dependence_U,2023.2.3,Win32,59.88023952,,,,,,,,,,,,401.7539,0.0,401.7551,,,,404.4727,404.9625,403.9651,404.4726,402.7623,345.0,403.9649,404.9625,405.4619,405.4619,408.6927,1161.9,408.6931,3.0,409.6931,0.0,10.0,10.0,17.0,1.0,1.2,0.7,Time
,,S13,1,Male,30,anonymized,Serial_Dependence_U,2023.2.3,Win32,59.88023952,,,,,,,,,,,,409.6938,0.0,409.6944,,,,412.6303,413.1213,412.1138,412.6293,410.7031,213.0,412.1136,413.1213,413.6215,413.6222,415.3029,1081.2,415.3061,2.0,416.3016,0.0,11.0,11.0,8.0,1.0,1.4,0.7,Time
,,S13,1,Male,30,anonymized,Serial_Dependence_U,2023.2.3,Win32,59.88023952,,,,,,,,,,,,416.3037,0.0,416.3054,,,,419.443,419.9308,418.9227,419.4429,417.3075,133.0,418.9225,419.9309,420.4304,420.4304,422.163,1030.1,422.1631,1.0,423.1621,0.0,12.0,12.0,9.0,1.0,1.6,0.7,Time
,,S13,1,Male,30,anonymized,Serial_Dependence_U,2023.2.3,Win32,59.88023952,,,,,,,,,,,,423.163,0.0,423.1637,,,,426.071,426.5745,425.5683,426.0709,424.1646,45.0,425.5682,426.5745,427.074,427.074,430.4279,646.3,430.4284,1.0,431.4196,0.0,13.0,13.0,18.0,1.0,1.4,0.7,Time
,,S13,1,Male,30,anonymized,Serial_Dependence_U,2023.2.3,Win32,59.88023952,,,,,,,,,,,,431.4203,0.0,431.4212,,,,434.5536,435.0495,434.0412,434.5534,432.4377,143.0,434.0401,435.0496,435.5491,435.5491,437.1102,1250.6,437.1104,2.0,438.1144,0.0,14.0,14.0,19.0,1.0,1.6,0.7,Time
,,S13,1,Male,30,anonymized,Serial_Dependence_U,2023.2.3,Win32,59.88023952,,,,,,,,,,,,438.1149,0.0,438.1153,,,,440.6203,441.1119,440.1178,440.6202,439.1147,140.0,440.1177,441.112,441.61,441.61,444.3304,688.6,444.3312,1.0,445.3229,0.0,15.0,15.0,6.0,1.0,1.0,0.7,Time
,,S13,1,Male,30,anonymized,Serial_Dependence_U,2023.2.3,Win32,59.88023952,,,,,,,,,,,,445.3235,0.0,445.3241,,,,448.0515,448.5535,447.5479,448.0514,446.3414,205.0,447.5477,448.5535,449.0544,449.0545,450.6776,1132.1,450.6786,2.0,451.6666,0.0,16.0,16.0,7.0,1.0,1.2,0.7,Time
,,S13,1,Male,30,anonymized,Serial_Dependence_U,2023.2.3,Win32,59.88023952,,,,,,,,,,,,451.6672,0.0,451.6676,,,,454.8207,455.313,454.3097,454.8206,452.6923,289.0,454.3096,455.313,455.8126,455.8126,457.1681,944.8,457.1683,1.0,458.1603,0.0,17.0,17.0,4.0,1.0,1.6,0.3,Time
,,S13,1,Male,30,anonymized,Serial_Dependence_U,2023.2.3,Win32,59.88023952,,,,,,,,,,,,458.1608,0.0,458.1612,,,,461.0962,461.592,460.5846,461.0961,459.1643,29.0,460.5843,461.592,462.0898,462.0899,463.4249,958.8,463.4253,1.0,464.4212,0.0,18.0,18.0,23.0,1.0,1.4,0.3,Time
,,S13,1,Male,30,anonymized,Serial_Dependence_U,2023.2.3,Win32,59.88023952,,,,,,,,,,,,464.4231,0.0,464.4255,,,,466.757,467.2512,466.2459,466.7566,465.4328,67.0,466.2459,467.2513,467.7509,467.7509,469.2527,1044.7,469.2531,5.0,470.2502,0.0,19.0,19.0,5.0,1.0,0.8,0.7,Time
,,S13,1,Male,30,anonymized,Serial_Dependence_U,2023.2.3,Win32,59.88023952,,,,,,,,,,,,470.2512,0.0,470.2523,,,,473.3823,473.8781,472.8697,473.3814,471.2576,236.0,472.869,473.8781,474.3776,474.3777,475.8458,1083.5,475.846,1.0,476.8422,0.0,20.0,20.0,14.0,1.0,1.6,0.3,Time
,,S13,1,Male,30,anonymized,Serial_Dependence_U,2023.2.3,Win32,59.88023952,,,,,,,,,,,,476.8428,0.0,476.8433,,,,479.7603,480.2556,479.2504,479.7602,477.8458,284.0,479.2502,480.2556,480.7548,480.7548,482.1882,1006.9,482.1884,2.0,483.1857,0.0,21.0,21.0,28.0,1.0,1.4,0.7,Time
,,S13,1,Male,30,anonymized,Serial_Dependence_U,2023.2.3,Win32,59.88023952,,,,,,,,,,,,483.1862,0.0,483.1866,,,,485.9248,486.4158,485.4039,485.9246,484.1925,228.0,485.4037,486.4158,486.9173,486.9173,487.5209,47.3,487.5212,1.0,488.5147,0.0,22.0,22.0,12.0,1.0,1.2,0.3,Time
,,S13,1,Male,30,anonymized,Serial_Dependence_U,2023.2.3,Win32,59.88023952,,,,,,,,,,,,488.5157,0.0,488.5162,,,,490.8329,491.3291,490.3305,490.8328,489.5183,62.0,490.3303,491.3291,491.8296,491.8297,492.9963,713.5,492.9966,2.0,493.9924,0.0,23.0,23.0,20.0,1.0,0.8,0.3,Time
,,S13,1,Male,30,anonymized,Serial_Dependence_U,2023.2.3,Win32,59.88023952,,,,,,,,,,,,493.9928,0.0,493.9934,,,,496.9124,497.4073,496.4072,496.9123,494.9978,197.0,496.407,497.4073,497.9068,497.9069,500.1276,889.5,500.1278,1.0,501.1183,0.0,24.0,24.0,13.0,1.0,1.4,0.3,Time
,,S13,1,Male,30,anonymized,Serial_Dependence_U,2023.2.3,Win32,59.88023952,,,,,,,,,,,,501.119,0.0,501.1194,,,,503.8413,504.3318,503.3347,503.8412,502.1236,359.0,503.3346,504.332,504.8312,504.8312,506.2806,1029.2,506.2808,2.0,507.2789,0.0,25.0,25.0,27.0,1.0,1.2,0.7,Time
,,S13,1,Male,30,anonymized,Serial_Dependence_U,2023.2.3,Win32,59.88023952,,,,,,,,,,,,507.2795,0.0,507.2798,,,,509.8144,510.3092,509.3064,509.8143,508.301,30.0,509.3063,510.3093,510.8098,510.81,512.2258,1025.8,512.226,3.0,513.2235,0.0,26.0,26.0,16.0,1.0,1.0,0.7,Time
,,S13,1,Male,30,anonymized,Serial_Dependence_U,2023.2.3,Win32,59.88023952,,,,,,,,,,,,513.2248,0.0,513.2251,,,,515.7657,516.2698,515.2479,515.7656,514.2326,316.0,515.2478,516.2699,516.7696,516.7696,518.0195,809.9,518.02,2.0,519.0176,0.0,27.0,27.0,26.0,1.0,1.0,0.7,Time
,,S13,1,Male,30,anonymized,Serial_Dependence_U,2023.2.3,Win32,59.88023952,,,,,,,,,,,,519.0181,0.0,519.0186,,,,522.1584,522.6469,521.6434,522.1582,520.0266,82.0,521.6433,522.647,523.1465,523.1466,527.4306,2049.6,527.4309,4.0,528.4249,0.0,28.0,28.0,29.0,1.0,1.6,0.7,Time
,,S13,1,Male,30,anonymized,Serial_Dependence_U,2023.2.3,Win32,59.88023952,,,,,,,,,,,,528.4254,0.0,528.4258,,,,531.5475,532.0378,531.0358,531.5471,529.4261,243.0,531.0356,532.0378,532.5375,532.5375,533.9812,935.0,533.9819,1.0,534.9849,0.0,29.0,29.0,24.0,1.0,1.6,0.3,Time
,,S13,1,Male,30,anonymized,Serial_Dependence_U,2023.2.3,Win32,59.88023952,,,,,,,,,,,,534.9855,1.0,540.4133,s,5.404,,543.5464,544.0429,543.0342,543.5463,541.4301,272.0,543.034,544.043,544.5423,544.5423,547.2412,597.8,547.242,1.0,548.2408,1.0,0.0,30.0,24.0,1.0,1.6,0.3,Time
,,S13,1,Male,30,anonymized,Serial_Dependence_U,2023.2.3,Win32,59.88023952,,,,,,,,,,,,548.2421,1.0,548.2481,,,,551.3704,551.8684,550.8659,551.3703,549.2463,335.0,550.8656,551.8684,552.3679,552.368,553.8796,998.5,553.8799,1.0,554.8821,1.0,1.0,31.0,4.0,1.0,1.6,0.3,Time
,,S13,1,Male,30,anonymized,Serial_Dependence_U,2023.2.3,Win32,59.88023952,,,,,,,,,,,,554.8826,1.0,554.883,,,,557.6148,558.1127,557.1077,557.6146,555.897,90.0,557.1075,558.1127,558.6119,558.6119,560.5723,1454.0,560.5724,4.0,561.5756,1.0,2.0,32.0,17.0,1.0,1.2,0.7,Time
,,S13,1,Male,30,anonymized,Serial_Dependence_U,2023.2.3,Win32,59.88023952,,,,,,,,,,,,561.5761,1.0,561.5767,,,,564.4908,564.9895,563.9822,564.4907,562.5788,272.0,563.9821,564.9895,565.4891,565.4891,566.9056,1026.5,566.9059,2.0,567.9027,1.0,3.0,33.0,18.0,1.0,1.4,0.7,Time
,,S13,1,Male,30,anonymized,Serial_Dependence_U,2023.2.3,Win32,59.88023952,,,,,,,,,,,,567.9033,1.0,567.9038,,,,570.4288,570.9166,569.9198,570.4288,568.9113,326.0,569.9195,570.9166,571.4163,571.4164,572.9151,1077.4,572.9154,4.0,573.9139,1.0,4.0,34.0,1.0,1.0,1.0,0.3,Time
,,S13,1,Male,30,anonymized,Serial_Dependence_U,2023.2.3,Win32,59.88023952,,,,,,,,,,,,573.9154,1.0,573.9165,,,,576.2349,576.7281,575.731,576.2347,574.9205,140.0,575.7309,576.7281,577.227,577.2272,578.4551,801.5,578.4555,3.0,579.4581,1.0,5.0,35.0,0.0,1.0,0.8,0.3,Time
,,S13,1,Male,30,anonymized,Serial_Dependence_U,2023.2.3,Win32,59.88023952,,,,,,,,,,,,579.4587,1.0,579.4592,,,,582.1808,582.6725,581.6784,582.1806,580.4703,258.0,581.6783,582.6726,583.1725,583.1725,584.4162,859.7,584.4163,2.0,585.4193,1.0,6.0,36.0,12.0,1.0,1.2,0.3,Time
,,S13,1,Male,30,anonymized,Serial_Dependence_U,2023.2.3,Win32,59.88023952,,,,,,,,,,,,585.4205,1.0,585.4212,,,,588.3471,588.8351,587.828,588.3469,586.4237,24.0,587.8277,588.8351,589.3338,589.3338,590.4691,610.1,590.4696,1.0,591.4631,1.0,7.0,37.0,8.0,1.0,1.4,0.7,Time
,,S13,1,Male,30,anonymized,Serial_Dependence_U,2023.2.3,Win32,59.88023952,,,,,,,,,,,,591.4637,1.0,591.4643,,,,594.6049,595.0929,594.097,594.6047,592.4842,159.0,594.097,595.093,595.5923,595.5923,597.2431,1075.6,597.2439,1.0,598.2422,1.0,8.0,38.0,14.0,1.0,1.6,0.3,Time
,,S13,1,Male,30,anonymized,Serial_Dependence_U,2023.2.3,Win32,59.88023952,,,,,,,,,,,,598.2431,1.0,598.2439,,,,601.3985,601.8861,600.872,601.3983,599.2672,359.0,600.8718,601.8862,602.3865,602.3866,604.0304,1150.1,604.0311,2.0,605.0331,1.0,9.0,39.0,19.0,1.0,1.6,0.7,Time
,,S13,1,Male,30,anonymized,Serial_Dependence_U,2023.2.3,Win32,59.88023952,,,,,,,,,,,,605.0336,1.0,605.0341,,,,607.7699,608.2643,607.2591,607.7698,606.0453,115.0,607.259,608.2644,608.7629,608.763,610.2734,1095.4,610.2748,2.0,611.2769,1.0,10.0,40.0,22.0,1.0,1.2,0.3,Time
,,S13,1,Male,30,anonymized,Serial_Dependence_U,2023.2.3,Win32,59.88023952,,,,,,,,,,,,611.2774,1.0,611.2778,,,,613.8126,614.3074,613.3016,613.8124,612.2859,110.0,613.3012,614.3074,614.8068,614.8069,616.1754,912.3,616.1762,2.0,617.1714,1.0,11.0,41.0,26.0,1.0,1.0,0.7,Time
,,S13,1,Male,30,anonymized,Serial_Dependence_U,2023.2.3,Win32,59.88023952,,,,,,,,,,,,617.172,1.0,617.1725,,,,620.32,620.8189,619.8052,620.3199,618.1919,309.0,619.8051,620.8191,621.3181,621.3182,623.3384,1130.6,623.3394,2.0,624.3308,1.0,12.0,42.0,29.0,1.0,1.6,0.7,Time
,,S13,1,Male,30,anonymized,Serial_Dependence_U,2023.2.3,Win32,59.88023952,,,,,,,,,,,,624.3313,1.0,624.3319,,,,627.2515,627.7453,626.738,627.2507,625.3328,89.0,626.7378,627.7454,628.2471,628.2472,629.9996,1351.1,630.0004,3.0,630.9923,1.0,13.0,43.0,23.0,1.0,1.4,0.3,Time
,,S13,1,Male,30,anonymized,Serial_Dependence_U,2023.2.3,Win32,59.88023952,,,,,,,,,,,,630.993,1.0,630.9965,,,,633.3164,633.8048,632.8069,633.3163,632.0013,294.0,632.8068,633.8048,634.3044,634.3045,636.803,1072.0,636.8034,5.0,637.8009,1.0,14.0,44.0,5.0,1.0,0.8,0.7,Time
,,S13,1,Male,30,anonymized,Serial_Dependence_U,2023.2.3,Win32,59.88023952,,,,,,,,,,,,637.8014,1.0,637.802,,,,640.1422,640.6316,639.6276,640.1418,638.8056,220.0,639.6274,640.6316,641.133,641.1335,642.4401,1054.6,642.4409,5.0,643.4324,1.0,15.0,45.0,10.0,1.0,0.8,0.3,Time
,,S13,1,Male,30,anonymized,Serial_Dependence_U,2023.2.3,Win32,59.88023952,,,,,,,,,,,,643.4336,1.0,643.4345,,,,646.1809,646.6757,645.6723,646.1808,644.4583,112.0,645.6723,646.6758,647.1851,647.1853,648.8464,983.1,648.847,2.0,649.84,1.0,16.0,46.0,7.0,1.0,1.2,0.7,Time
,,S13,1,Male,30,anonymized,Serial_Dependence_U,2023.2.3,Win32,59.88023952,,,,,,,,,,,,649.8409,1.0,649.8413,,,,652.7773,653.2707,652.2666,652.7771,650.8542,299.0,652.2666,653.2709,653.7687,653.7688,656.2001,1169.2,656.2003,2.0,657.1998,1.0,17.0,47.0,13.0,1.0,1.4,0.3,Time
,,S13,1,Male,30,anonymized,Serial_Dependence_U,2023.2.3,Win32,59.88023952,,,,,,,,,,,,657.2018,1.0,657.2032,,,,659.516,660.0127,659.0033,659.5159,658.2011,225.0,659.0024,660.0127,660.5167,660.5168,662.2107,1142.7,662.2109,5.0,663.2094,1.0,18.0,48.0,15.0,1.0,0.8,0.7,Time
,,S13,1,Male,30,anonymized,Serial_Dependence_U,2023.2.3,Win32,59.88023952,,,,,,,,,,,,663.2099,1.0,663.2103,,,,665.9521,666.4564,665.4297,665.9518,664.2175,217.0,665.4295,666.4564,666.9566,666.9567,668.3896,918.3,668.3905,2.0,669.3867,1.0,19.0,49.0,27.0,1.0,1.2,0.7,Time
,,S13,1,Male,30,anonymized,Serial_Dependence_U,2023.2.3,Win32,59.88023952,,,,,,,,,,,,669.3871,1.0,669.3874,,,,672.3114,672.8001,671.8066,672.3111,670.3932,83.0,671.8062,672.8001,673.288,673.288,675.0775,1358.4,675.0777,3.0,676.0801,1.0,20.0,50.0,3.0,1.0,1.4,0.3,Time
,,S13,1,Male,30,anonymized,Serial_Dependence_U,2023.2.3,Win32,59.88023952,,,,,,,,,,,,676.0805,1.0,676.0812,,,,678.6149,679.1104,678.1008,678.6148,677.0845,12.0,678.1006,679.1105,679.61,679.6101,680.9592,896.8,680.9594,2.0,681.9579,1.0,21.0,51.0,16.0,1.0,1.0,0.7,Time
,,S13,1,Male,30,anonymized,Serial_Dependence_U,2023.2.3,Win32,59.88023952,,,,,,,,,,,,681.9588,1.0,681.9599,,,,684.2895,684.7883,683.7821,684.2894,682.9646,79.0,683.7819,684.7888,685.2878,685.2879,685.7595,100.3,685.7596,1.0,686.7582,1.0,22.0,52.0,25.0,1.0,0.8,0.7,Time
,,S13,1,Male,30,anonymized,Serial_Dependence_U,2023.2.3,Win32,59.88023952,,,,,,,,,,,,686.7593,1.0,686.7602,,,,689.8887,690.3832,689.3792,689.8883,687.7623,163.0,689.379,690.3832,690.8824,690.8826,692.4848,1196.8,692.4856,2.0,693.4802,1.0,23.0,53.0,9.0,1.0,1.6,0.7,Time
,,S13,1,Male,30,anonymized,Serial_Dependence_U,2023.2.3,Win32,59.88023952,,,,,,,,,,,,693.481,1.0,693.482,,,,696.4225,696.9102,695.9035,696.4225,694.4856,325.0,695.9033,696.9102,697.4098,697.4098,698.6209,798.6,698.6212,1.0,699.6237,1.0,24.0,54.0,28.0,1.0,1.4,0.7,Time
,,S13,1,Male,30,anonymized,Serial_Dependence_U,2023.2.3,Win32,59.88023952,,,,,,,,,,,,699.6245,1.0,699.6248,,,,702.1663,702.6551,701.6494,702.1662,700.6361,218.0,701.6478,702.6551,703.1553,703.1554,707.4563,1191.9,707.4567,4.0,708.4484,1.0,25.0,55.0,11.0,1.0,1.0,0.3,Time
,,S13,1,Male,30,anonymized,Serial_Dependence_U,2023.2.3,Win32,59.88023952,,,,,,,,,,,,708.4492,1.0,708.4502,,,,711.1862,711.6787,710.6716,711.1859,709.4546,89.0,710.6714,711.6788,712.179,712.1792,714.3616,831.1,714.3621,1.0,715.3584,1.0,26.0,56.0,2.0,1.0,1.2,0.3,Time
,,S13,1,Male,30,anonymized,Serial_Dependence_U,2023.2.3,Win32,59.88023952,,,,,,,,,,,,715.359,1.0,715.3594,,,,717.9047,718.4083,717.3852,717.9047,716.3824,296.0,717.385,718.4083,718.9053,718.9054,720.1091,762.2,720.1102,2.0,721.1027,1.0,27.0,57.0,21.0,1.0,1.0,0.3,Time
,,S13,1,Male,30,anonymized,Serial_Dependence_U,2023.2.3,Win32,59.88023952,,,,,,,,,,,,721.1032,1.0,721.1036,,,,723.6222,724.1171,723.1194,723.622,722.1056,267.0,723.1192,724.1172,724.6175,724.6175,727.2202,809.8,727.2205,2.0,728.2134,1.0,28.0,58.0,6.0,1.0,1.0,0.7,Time
,,S13,1,Male,30,anonymized,Serial_Dependence_U,2023.2.3,Win32,59.88023952,,,,,,,,,,,,728.2149,1.0,728.216,,,,730.5611,731.0597,730.0492,730.561,729.2306,284.0,730.0491,731.0597,731.5593,731.5593,732.8129,892.7,732.8145,4.0,733.8104,1.0,29.0,59.0,20.0,1.0,0.8,0.3,Time
,,S13,1,Male,30,anonymized,Serial_Dependence_U,2023.2.3,Win32,59.88023952,,,,,,,,,,,,733.8126,2.0,737.1704,s,3.3313,,739.7124,740.2032,739.1952,739.7122,738.178,63.0,739.195,740.2032,740.7024,740.7025,741.7376,585.5,741.7399,1.0,742.7362,2.0,0.0,60.0,16.0,1.0,1.0,0.7,Time
,,S13,1,Male,30,anonymized,Serial_Dependence_U,2023.2.3,Win32,59.88023952,,,,,,,,,,,,742.7367,2.0,742.7395,,,,745.6796,746.1783,745.1559,745.6781,743.746,264.0,745.1558,746.1787,746.678,746.678,747.873,764.8,747.8736,1.0,748.8628,2.0,1.0,61.0,3.0,1.0,1.4,0.3,Time
,,S13,1,Male,30,anonymized,Serial_Dependence_U,2023.2.3,Win32,59.88023952,,,,,,,,,,,,748.8637,2.0,748.8646,,,,751.9808,752.472,751.4756,751.9806,749.8665,146.0,751.4755,752.472,752.9716,752.9716,754.6047,1030.7,754.6049,1.0,755.6023,2.0,2.0,62.0,24.0,1.0,1.6,0.3,Time
,,S13,1,Male,30,anonymized,Serial_Dependence_U,2023.2.3,Win32,59.88023952,,,,,,,,,,,,755.6029,2.0,755.6034,,,,757.9354,758.4338,757.4283,757.9353,756.6154,12.0,757.4282,758.4338,758.9326,758.9327,761.0675,1514.5,761.0683,5.0,762.0663,2.0,3.0,63.0,5.0,1.0,0.8,0.7,Time
,,S13,1,Male,30,anonymized,Serial_Dependence_U,2023.2.3,Win32,59.88023952,,,,,,,,,,,,762.0667,2.0,762.0671,,,,765.1865,765.676,764.68,765.1861,763.0701,98.0,764.6798,765.6761,766.1765,766.1766,767.6126,1024.5,767.6129,1.0,768.6065,2.0,4.0,64.0,14.0,1.0,1.6,0.3,Time
,,S13,1,Male,30,anonymized,Serial_Dependence_U,2023.2.3,Win32,59.88023952,,,,,,,,,,,,768.607,2.0,768.6074,,,,771.5231,772.0197,771.0206,771.523,769.6097,304.0,771.0205,772.0197,772.5206,772.5207,773.8562,908.1,773.8567,1.0,774.8508,2.0,5.0,65.0,13.0,1.0,1.4,0.3,Time
,,S13,1,Male,30,anonymized,Serial_Dependence_U,2023.2.3,Win32,59.88023952,,,,,,,,,,,,774.8542,2.0,774.8553,,,,777.5713,778.0676,777.0677,777.5712,775.8569,2.0,777.0676,778.0676,778.5654,778.5654,780.239,1158.9,780.2393,3.0,781.2279,2.0,6.0,66.0,7.0,1.0,1.2,0.7,Time
,,S13,1,Male,30,anonymized,Serial_Dependence_U,2023.2.3,Win32,59.88023952,,,,,,,,,,,,781.2292,2.0,781.2302,,,,784.3497,784.8404,783.8426,784.3495,782.2288,209.0,783.8426,784.8404,785.3398,785.3398,787.2266,1020.0,787.2288,1.0,788.2212,2.0,7.0,67.0,29.0,1.0,1.6,0.7,Time
,,S13,1,Male,30,anonymized,Serial_Dependence_U,2023.2.3,Win32,59.88023952,,,,,,,,,,,,788.2221,2.0,788.2229,,,,790.7601,791.2515,790.249,790.7601,789.2248,53.0,790.2488,791.2515,791.7524,791.7524,793.5287,1108.1,793.5292,4.0,794.5326,2.0,8.0,68.0,11.0,1.0,1.0,0.3,Time
,,S13,1,Male,30,anonymized,Serial_Dependence_U,2023.2.3,Win32,59.88023952,,,,,,,,,,,,794.5336,2.0,794.5352,,,,797.0635,797.5612,796.5472,797.0633,795.5323,251.0,796.547,797.5613,798.0686,798.0688,799.337,808.4,799.3375,2.0,800.3252,2.0,9.0,69.0,1.0,1.0,1.0,0.3,Time
,,S13,1,Male,30,anonymized,Serial_Dependence_U,2023.2.3,Win32,59.88023952,,,,,,,,,,,,800.3257,2.0,800.3263,,,,803.451,803.9548,802.9414,803.4509,801.3377,55.0,802.9406,803.9549,804.4545,804.4546,805.7871,990.6,805.7873,1.0,806.7857,2.0,10.0,70.0,4.0,1.0,1.6,0.3,Time
,,S13,1,Male,30,anonymized,Serial_Dependence_U,2023.2.3,Win32,59.88023952,,,,,,,,,,,,806.7863,2.0,806.7867,,,,809.9149,810.4162,809.4067,809.9149,807.8042,148.0,809.4066,810.4164,810.915,810.915,812.7204,1402.0,812.7209,2.0,813.7142,2.0,11.0,71.0,19.0,1.0,1.6,0.7,Time
,,S13,1,Male,30,anonymized,Serial_Dependence_U,2023.2.3,Win32,59.88023952,,,,,,,,,,,,813.715,2.0,813.7153,,,,816.6541,817.1427,816.1363,816.6539,814.7199,83.0,816.1361,817.1428,817.6419,817.642,819.265,1133.1,819.2653,2.0,820.2556,2.0,12.0,72.0,18.0,1.0,1.4,0.7,Time
,,S13,1,Male,30,anonymized,Serial_Dependence_U,2023.2.3,Win32,59.88023952,,,,,,,,,,,,820.2561,2.0,820.2564,,,,822.7827,823.2862,822.2747,822.7823,821.2604,331.0,822.2746,823.2862,823.7869,823.787,825.4913,1233.8,825.4929,4.0,826.4831,2.0,13.0,73.0,21.0,1.0,1.0,0.3,Time
,,S13,1,Male,30,anonymized,Serial_Dependence_U,2023.2.3,Win32,59.88023952,,,,,,,,,,,,826.4849,2.0,826.4854,,,,829.2213,829.7131,828.7002,829.2211,827.4864,78.0,828.7001,829.7131,830.2127,830.2128,831.9948,1096.1,831.9952,2.0,832.9947,2.0,14.0,74.0,27.0,1.0,1.2,0.7,Time
,,S13,1,Male,30,anonymized,Serial_Dependence_U,2023.2.3,Win32,59.88023952,,,,,,,,,,,,832.9953,2.0,832.9956,,,,835.3159,835.8121,834.8127,835.3157,834.0042,120.0,834.8124,835.8121,836.3075,836.3076,838.0756,1099.4,838.0761,5.0,839.0715,2.0,15.0,75.0,0.0,1.0,0.8,0.3,Time
,,S13,1,Male,30,anonymized,Serial_Dependence_U,2023.2.3,Win32,59.88023952,,,,,,,,,,,,839.0725,2.0,839.0733,,,,842.2216,842.7181,841.7096,842.2215,840.0871,104.0,841.7089,842.7183,843.2169,843.217,844.4441,984.3,844.4448,1.0,845.4478,2.0,16.0,76.0,9.0,1.0,1.6,0.7,Time
,,S13,1,Male,30,anonymized,Serial_Dependence_U,2023.2.3,Win32,59.88023952,,,,,,,,,,,,845.4484,2.0,845.4488,,,,847.7886,848.2783,847.2727,847.7886,846.4713,328.0,847.2727,848.2784,848.7791,848.7791,850.6005,1394.6,850.6011,5.0,851.5919,2.0,17.0,77.0,10.0,1.0,0.8,0.3,Time
,,S13,1,Male,30,anonymized,Serial_Dependence_U,2023.2.3,Win32,59.88023952,,,,,,,,,,,,851.5925,2.0,851.5928,,,,854.5425,855.0395,854.0311,854.5423,852.6197,32.0,854.0311,855.0396,855.5379,855.5381,857.5704,1218.2,857.5706,2.0,858.5683,2.0,18.0,78.0,23.0,1.0,1.4,0.3,Time
,,S13,1,Male,30,anonymized,Serial_Dependence_U,2023.2.3,Win32,59.88023952,,,,,,,,,,,,858.5689,2.0,858.5696,,,,861.3014,861.7988,860.7908,861.3012,859.5752,198.0,860.787,861.7988,862.2982,862.2983,864.3004,1089.2,864.3012,2.0,865.2949,2.0,19.0,79.0,22.0,1.0,1.2,0.3,Time
,,S13,1,Male,30,anonymized,Serial_Dependence_U,2023.2.3,Win32,59.88023952,,,,,,,,,,,,865.2956,2.0,865.2963,,,,868.2303,868.725,867.7174,868.2303,866.2999,187.0,867.7173,868.7251,869.2259,869.226,869.827,199.2,869.8274,1.0,870.8228,2.0,20.0,80.0,28.0,1.0,1.4,0.7,Time
,,S13,1,Male,30,anonymized,Serial_Dependence_U,2023.2.3,Win32,59.88023952,,,,,,,,,,,,870.8233,2.0,870.8239,,,,873.7683,874.2736,873.2461,873.7682,871.8329,346.0,873.2461,874.2736,874.7697,874.7697,876.3011,1018.7,876.3016,2.0,877.3,2.0,21.0,81.0,8.0,1.0,1.4,0.7,Time
,,S13,1,Male,30,anonymized,Serial_Dependence_U,2023.2.3,Win32,59.88023952,,,,,,,,,,,,877.3009,2.0,877.3022,,,,880.0323,880.5301,879.525,880.0322,878.3069,225.0,879.5233,880.5301,881.0303,881.0305,882.9587,1537.0,882.959,4.0,883.9601,2.0,22.0,82.0,12.0,1.0,1.2,0.3,Time
,,S13,1,Male,30,anonymized,Serial_Dependence_U,2023.2.3,Win32,59.88023952,,,,,,,,,,,,883.9607,2.0,883.9619,,,,886.7045,887.2072,886.1957,886.7044,884.9822,275.0,886.1955,887.2072,887.709,887.7093,889.3378,1110.7,889.3385,2.0,890.3371,2.0,23.0,83.0,2.0,1.0,1.2,0.3,Time
,,S13,1,Male,30,anonymized,Serial_Dependence_U,2023.2.3,Win32,59.88023952,,,,,,,,,,,,890.3376,2.0,890.338,,,,892.6872,893.1864,892.1799,892.6871,891.3626,90.0,892.1796,893.1864,893.6839,893.6839,895.2777,1103.6,895.2786,5.0,896.2832,2.0,24.0,84.0,25.0,1.0,0.8,0.7,Time
,,S13,1,Male,30,anonymized,Serial_Dependence_U,2023.2.3,Win32,59.88023952,,,,,,,,,,,,896.2843,2.0,896.2848,,,,898.5973,899.0957,898.0897,898.5972,897.2866,344.0,898.0896,899.0958,899.5954,899.5957,901.4345,1180.0,901.4349,5.0,902.4252,2.0,25.0,85.0,15.0,1.0,0.8,0.7,Time
,,S13,1,Male,30,anonymized,Serial_Dependence_U,2023.2.3,Win32,59.88023952,,,,,,,,,,,,902.4257,2.0,902.426,,,,904.9842,905.4727,904.468,904.9841,903.4391,267.0,904.4679,905.473,905.9748,905.9748,907.7954,1270.7,907.7959,4.0,908.786,2.0,26.0,86.0,6.0,1.0,1.0,0.7,Time
,,S13,1,Male,30,anonymized,Serial_Dependence_U,2023.2.3,Win32,59.88023952,,,,,,,,,,,,908.7866,2.0,908.7874,,,,911.3372,911.8354,910.8186,911.3371,909.806,341.0,910.8181,911.8355,912.3357,912.3359,914.1357,1384.4,914.1368,5.0,915.1307,2.0,27.0,87.0,26.0,1.0,1.0,0.7,Time
,,S13,1,Male,30,anonymized,Serial_Dependence_U,2023.2.3,Win32,59.88023952,,,,,,,,,,,,915.1319,2.0,915.1322,,,,917.459,917.9602,916.9551,917.4589,916.1431,190.0,916.9549,917.9602,918.461,918.4612,920.0876,1258.1,920.088,5.0,921.0902,2.0,28.0,88.0,20.0,1.0,0.8,0.3,Time
,,S13,1,Male,30,anonymized,Serial_Dependence_U,2023.2.3,Win32,59.88023952,,,,,,,,,,,,921.091,2.0,921.0918,,,,923.8318,924.3237,923.3155,923.8317,922.1001,65.0,923.3153,924.324,924.82,924.82,925.9889,1064.8,925.9893,2.0,926.9848,2.0,29.0,89.0,17.0,1.0,1.2,0.7,Time
,,S13,1,Male,30,anonymized,Serial_Dependence_U,2023.2.3,Win32,59.88023952,,,,,,,,,,,,926.9859,3.0,930.1002,s,3.0934,,932.4342,932.9307,931.9314,932.4338,931.1191,29.0,931.9313,932.9307,933.4297,933.4299,935.1375,1168.1,935.1379,5.0,936.1268,3.0,0.0,90.0,20.0,1.0,0.8,0.3,Time
,,S13,1,Male,30,anonymized,Serial_Dependence_U,2023.2.3,Win32,59.88023952,,,,,,,,,,,,936.1277,3.0,936.13,,,,938.6468,939.1392,938.1417,938.6468,937.1371,68.0,938.1417,939.1393,939.6388,939.6389,941.3572,1280.5,941.358,4.0,942.3538,3.0,1.0,91.0,16.0,1.0,1.0,0.7,Time
,,S13,1,Male,30,anonymized,Serial_Dependence_U,2023.2.3,Win32,59.88023952,,,,,,,,,,,,942.3548,3.0,942.3551,,,,945.2985,945.8006,944.7787,945.2983,943.3568,325.0,944.7719,945.8007,946.2998,946.3,948.0893,1318.6,948.0898,2.0,949.0831,3.0,2.0,92.0,3.0,1.0,1.4,0.3,Time
,,S13,1,Male,30,anonymized,Serial_Dependence_U,2023.2.3,Win32,59.88023952,,,,,,,,,,,,949.0839,3.0,949.0847,,,,951.414,951.9099,950.8957,951.4139,950.0858,185.0,950.8957,951.91,952.4097,952.4099,954.0606,1193.8,954.0612,5.0,955.0569,3.0,3.0,93.0,25.0,1.0,0.8,0.7,Time
,,S13,1,Male,30,anonymized,Serial_Dependence_U,2023.2.3,Win32,59.88023952,,,,,,,,,,,,955.0575,3.0,955.0578,,,,958.1924,958.6872,957.6754,958.1924,956.0681,4.0,957.6753,958.6873,959.1865,959.1865,960.9942,1438.5,960.9944,2.0,961.9849,3.0,4.0,94.0,29.0,1.0,1.6,0.7,Time
,,S13,1,Male,30,anonymized,Serial_Dependence_U,2023.2.3,Win32,59.88023952,,,,,,,,,,,,961.9856,3.0,961.9862,,,,964.7081,965.1972,964.1988,964.708,962.9886,260.0,964.1987,965.1972,965.697,965.6971,967.7309,1346.4,967.732,4.0,968.7271,3.0,5.0,95.0,27.0,1.0,1.2,0.7,Time
,,S13,1,Male,30,anonymized,Serial_Dependence_U,2023.2.3,Win32,59.88023952,,,,,,,,,,,,968.729,3.0,968.73,,,,971.2489,971.7409,970.7457,971.2488,969.7346,26.0,970.7456,971.7409,972.2404,972.2405,973.879,1057.9,973.8793,4.0,974.8709,3.0,6.0,96.0,1.0,1.0,1.0,0.3,Time
,,S13,1,Male,30,anonymized,Serial_Dependence_U,2023.2.3,Win32,59.88023952,,,,,,,,,,,,974.8724,3.0,974.8731,,,,977.8038,978.301,977.295,977.8038,975.885,280.0,977.2948,978.301,978.8072,978.8073,980.4602,1217.3,980.4616,2.0,981.4644,3.0,7.0,97.0,18.0,1.0,1.4,0.7,Time
,,S13,1,Male,30,anonymized,Serial_Dependence_U,2023.2.3,Win32,59.88023952,,,,,,,,,,,,981.4649,3.0,981.4653,,,,983.8062,984.2951,983.2923,983.806,982.4715,273.0,983.2911,984.2952,984.7947,984.7947,986.3865,1165.5,986.3871,5.0,987.3754,3.0,8.0,98.0,15.0,1.0,0.8,0.7,Time
,,S13,1,Male,30,anonymized,Serial_Dependence_U,2023.2.3,Win32,59.88023952,,,,,,,,,,,,987.376,3.0,987.3763,,,,990.3153,990.8062,989.7994,990.3152,988.3946,329.0,989.7994,990.8062,991.3058,991.3058,993.0009,1359.3,993.0016,3.0,994.0024,3.0,9.0,99.0,8.0,1.0,1.4,0.7,Time
,,S13,1,Male,30,anonymized,Serial_Dependence_U,2023.2.3,Win32,59.88023952,,,,,,,,,,,,994.0032,3.0,994.0039,,,,997.1349,997.6319,996.6193,997.1347,995.0074,174.0,996.6192,997.6319,998.132,998.132,998.3659,160.9,998.3664,1.0,999.365,3.0,10.0,100.0,24.0,1.0,1.6,0.3,Time
,,S13,1,Male,30,anonymized,Serial_Dependence_U,2023.2.3,Win32,59.88023952,,,,,,,,,,,,999.3657,3.0,999.3661,,,,1002.0866,1002.5771,1001.5808,1002.0864,1000.3744,286.0,1001.5805,1002.5772,1003.0766,1003.0767,1004.7966,1249.8,1004.7972,3.0,1005.792,3.0,11.0,101.0,22.0,1.0,1.2,0.3,Time
,,S13,1,Male,30,anonymized,Serial_Dependence_U,2023.2.3,Win32,59.88023952,,,,,,,,,,,,1005.7962,3.0,1005.797,,,,1008.1224,1008.6215,1007.6157,1008.1223,1006.7987,148.0,1007.6156,1008.6215,1009.1208,1009.1208,1010.9325,1263.1,1010.9328,5.0,1011.9347,3.0,12.0,102.0,5.0,1.0,0.8,0.7,Time
,,S13,1,Male,30,anonymized,Serial_Dependence_U,2023.2.3,Win32,59.88023952,,,,,,,,,,,,1011.9354,3.0,1011.9359,,,,1014.8599,1015.3479,1014.3496,1014.8597,1012.9424,73.0,1014.3496,1015.3479,1015.8496,1015.8497,1017.4575,1174.5,1017.4577,2.0,1018.4616,3.0,13.0,103.0,23.0,1.0,1.4,0.3,Time
,,S13,1,Male,30,anonymized,Serial_Dependence_U,2023.2.3,Win32,59.88023952,,,,,,,,,,,,1018.462,3.0,1018.4624,,,,1020.8049,1021.3089,1020.2776,1020.8048,1019.4647,135.0,1020.2772,1021.3089,1021.8084,1021.8085,1023.2689,1107.5,1023.2693,5.0,1024.2726,3.0,14.0,104.0,0.0,1.0,0.8,0.3,Time
,,S13,1,Male,30,anonymized,Serial_Dependence_U,2023.2.3,Win32,59.88023952,,,,,,,,,,,,1024.2732,3.0,1024.274,,,,1026.9924,1027.4871,1026.4881,1026.9923,1025.2817,254.0,1026.488,1027.4871,1027.9862,1027.9863,1029.4246,1086.0,1029.4249,2.0,1030.4172,3.0,15.0,105.0,2.0,1.0,1.2,0.3,Time
,,S13,1,Male,30,anonymized,Serial_Dependence_U,2023.2.3,Win32,59.88023952,,,,,,,,,,,,1030.4201,3.0,1030.4216,,,,1032.7394,1033.2338,1032.2328,1032.7392,1031.4269,31.0,1032.2327,1033.2339,1033.7299,1033.7299,1035.2668,1059.7,1035.2676,5.0,1036.2621,3.0,16.0,106.0,10.0,1.0,0.8,0.3,Time
,,S13,1,Male,30,anonymized,Serial_Dependence_U,2023.2.3,Win32,59.88023952,,,,,,,,,,,,1036.2631,3.0,1036.2645,,,,1038.8126,1039.3078,1038.2984,1038.8125,1037.2786,254.0,1038.2984,1039.3078,1039.8119,1039.8121,1041.4731,1248.0,1041.4743,4.0,1042.472,3.0,17.0,107.0,21.0,1.0,1.0,0.3,Time
,,S13,1,Male,30,anonymized,Serial_Dependence_U,2023.2.3,Win32,59.88023952,,,,,,,,,,,,1042.4735,3.0,1042.4743,,,,1045.5874,1046.0865,1045.079,1045.5872,1043.4763,95.0,1045.0789,1046.0865,1046.5845,1046.5846,1048.0457,1034.0,1048.0461,1.0,1049.0499,3.0,18.0,108.0,14.0,1.0,1.6,0.3,Time
,,S13,1,Male,30,anonymized,Serial_Dependence_U,2023.2.3,Win32,59.88023952,,,,,,,,,,,,1049.0511,3.0,1049.0519,,,,1052.1879,1052.679,1051.6688,1052.1875,1050.0544,163.0,1051.6685,1052.6792,1053.1778,1053.1778,1054.5598,919.3,1054.5601,1.0,1055.561,3.0,19.0,109.0,19.0,1.0,1.6,0.7,Time
,,S13,1,Male,30,anonymized,Serial_Dependence_U,2023.2.3,Win32,59.88023952,,,,,,,,,,,,1055.5624,3.0,1055.5631,,,,1058.0842,1058.5752,1057.5797,1058.084,1056.5661,147.0,1057.5796,1058.5753,1059.0719,1059.0719,1060.7746,1279.0,1060.7753,4.0,1061.7695,3.0,20.0,110.0,6.0,1.0,1.0,0.7,Time
,,S13,1,Male,30,anonymized,Serial_Dependence_U,2023.2.3,Win32,59.88023952,,,,,,,,,,,,1061.7702,3.0,1061.7708,,,,1064.3083,1064.8002,1063.7953,1064.3078,1062.7745,98.0,1063.7951,1064.8002,1065.2992,1065.2994,1066.8467,1100.3,1066.8471,4.0,1067.8465,3.0,21.0,111.0,11.0,1.0,1.0,0.3,Time
,,S13,1,Male,30,anonymized,Serial_Dependence_U,2023.2.3,Win32,59.88023952,,,,,,,,,,,,1067.8471,3.0,1067.8477,,,,1070.3856,1070.8778,1069.8697,1070.3853,1068.8581,46.0,1069.8696,1070.8778,1071.3764,1071.3765,1073.1035,1360.6,1073.1042,5.0,1074.1084,3.0,22.0,112.0,26.0,1.0,1.0,0.7,Time
,,S13,1,Male,30,anonymized,Serial_Dependence_U,2023.2.3,Win32,59.88023952,,,,,,,,,,,,1074.1093,3.0,1074.1098,,,,1077.0503,1077.5546,1076.5299,1077.0502,1075.1272,24.0,1076.5298,1077.5546,1078.0536,1078.0537,1079.6962,1296.9,1079.6968,2.0,1080.6864,3.0,23.0,113.0,28.0,1.0,1.4,0.7,Time
,,S13,1,Male,30,anonymized,Serial_Dependence_U,2023.2.3,Win32,59.88023952,,,,,,,,,,,,1080.687,3.0,1080.6871,,,,1083.4072,1083.8976,1082.9041,1083.4071,1081.6953,161.0,1082.9038,1083.8977,1084.3974,1084.3976,1085.9741,1137.0,1085.9747,2.0,1086.9787,3.0,24.0,114.0,12.0,1.0,1.2,0.3,Time
,,S13,1,Male,30,anonymized,Serial_Dependence_U,2023.2.3,Win32,59.88023952,,,,,,,,,,,,1086.9797,3.0,1086.9802,,,,1090.118,1090.6077,1089.6148,1090.1179,1088.006,91.0,1089.6133,1090.6078,1091.1071,1091.1072,1092.8225,1237.8,1092.823,2.0,1093.821,3.0,25.0,115.0,9.0,1.0,1.6,0.7,Time
,,S13,1,Male,30,anonymized,Serial_Dependence_U,2023.2.3,Win32,59.88023952,,,,,,,,,,,,1093.8216,3.0,1093.8219,,,,1096.5471,1097.0346,1096.0456,1096.547,1094.8319,50.0,1096.0454,1097.0346,1097.5352,1097.5353,1099.1831,1248.2,1099.1844,3.0,1100.1823,3.0,26.0,116.0,7.0,1.0,1.2,0.7,Time
,,S13,1,Male,30,anonymized,Serial_Dependence_U,2023.2.3,Win32,59.88023952,,,,,,,,,,,,1100.1834,3.0,1100.1845,,,,1102.9176,1103.4118,1102.3997,1102.9174,1101.1978,332.0,1102.3996,1103.4118,1103.9112,1103.9113,1105.2194,881.4,1105.2203,2.0,1106.2109,3.0,27.0,117.0,17.0,1.0,1.2,0.7,Time
,,S13,1,Male,30,anonymized,Serial_Dependence_U,2023.2.3,Win32,59.88023952,,,,,,,,,,,,1106.212,3.0,1106.2126,,,,1109.331,1109.8225,1108.8275,1109.3307,1107.2174,236.0,1108.8271,1109.8225,1110.3217,1110.3217,1111.3876,942.1,1111.3881,1.0,1112.387,3.0,28.0,118.0,4.0,1.0,1.6,0.3,Time
,,S13,1,Male,30,anonymized,Serial_Dependence_U,2023.2.3,Win32,59.88023952,,,,,,,,,,,,1112.3887,3.0,1112.3892,,,,1115.3262,1115.8162,1114.8122,1115.3259,1113.3893,182.0,1114.812,1115.8162,1116.3158,1116.3158,1118.3502,1598.5,1118.3512,4.0,1119.3463,3.0,29.0,119.0,13.0,1.0,1.4,0.3,Time
,,S13,1,Male,30,anonymized,Serial_Dependence_U,2023.2.3,Win32,59.88023952,,,,,,,,,,,,1119.3468,4.0,1123.2308,s,3.86,,1126.3594,1126.8562,1125.8491,1126.3593,1124.2314,24.0,1125.8489,1126.8563,1127.3553,1127.3553,1129.0378,1280.5,1129.0388,2.0,1130.0357,4.0,0.0,120.0,14.0,1.0,1.6,0.3,Time
,,S13,1,Male,30,anonymized,Serial_Dependence_U,2023.2.3,Win32,59.88023952,,,,,,,,,,,,1130.0362,4.0,1130.0412,,,,1132.6086,1133.0994,1132.0776,1132.5992,1131.059,269.0,1132.0776,1133.0994,1133.5992,1133.5992,1135.8022,1595.8,1135.8023,5.0,1136.7956,4.0,1.0,121.0,1.0,1.0,1.0,0.3,Time
,,S13,1,Male,30,anonymized,Serial_Dependence_U,2023.2.3,Win32,59.88023952,,,,,,,,,,,,1136.7961,4.0,1136.7965,,,,1139.5199,1140.0091,1139.0163,1139.5198,1137.8072,15.0,1139.0162,1140.0092,1140.5099,1140.5099,1141.9752,993.1,1141.9761,2.0,1142.974,4.0,2.0,122.0,7.0,1.0,1.2,0.7,Time
,,S13,1,Male,30,anonymized,Serial_Dependence_U,2023.2.3,Win32,59.88023952,,,,,,,,,,,,1142.9753,4.0,1142.9755,,,,1145.8917,1146.3864,1145.3814,1145.8915,1143.9767,96.0,1145.3806,1146.3864,1146.8861,1146.8862,1148.7267,1099.0,1148.7269,2.0,1149.7165,4.0,3.0,123.0,3.0,1.0,1.4,0.3,Time
,,S13,1,Male,30,anonymized,Serial_Dependence_U,2023.2.3,Win32,59.88023952,,,,,,,,,,,,1149.7169,4.0,1149.7173,,,,1152.4374,1152.9299,1151.9264,1152.4373,1150.7198,262.0,1151.9262,1152.9299,1153.4295,1153.4296,1155.1156,1283.6,1155.1161,4.0,1156.1106,4.0,4.0,124.0,12.0,1.0,1.2,0.3,Time
,,S13,1,Male,30,anonymized,Serial_Dependence_U,2023.2.3,Win32,59.88023952,,,,,,,,,,,,1156.1121,4.0,1156.1126,,,,1159.0492,1159.5402,1158.5301,1159.0491,1157.1165,223.0,1158.5299,1159.5402,1160.0396,1160.0397,1161.9958,1564.3,1161.9965,4.0,1162.9869,4.0,5.0,125.0,28.0,1.0,1.4,0.7,Time
,,S13,1,Male,30,anonymized,Serial_Dependence_U,2023.2.3,Win32,59.88023952,,,,,,,,,,,,1162.9874,4.0,1162.9878,,,,1165.7229,1166.2168,1165.2144,1165.7229,1163.9959,36.0,1165.2143,1166.2169,1166.7166,1166.7167,1168.4393,1301.6,1168.4401,4.0,1169.4304,4.0,6.0,126.0,2.0,1.0,1.2,0.3,Time
,,S13,1,Male,30,anonymized,Serial_Dependence_U,2023.2.3,Win32,59.88023952,,,,,,,,,,,,1169.431,4.0,1169.4317,,,,1171.9724,1172.4609,1171.4527,1171.9723,1170.4407,34.0,1171.4525,1172.4609,1172.9608,1172.9608,1174.7431,1053.8,1174.7448,4.0,1175.7411,4.0,7.0,127.0,26.0,1.0,1.0,0.7,Time
,,S13,1,Male,30,anonymized,Serial_Dependence_U,2023.2.3,Win32,59.88023952,,,,,,,,,,,,1175.7421,4.0,1175.7426,,,,1178.2668,1178.7549,1177.757,1178.2667,1176.7489,10.0,1177.7567,1178.755,1179.2542,1179.2542,1181.1599,1470.0,1181.1602,5.0,1182.1522,4.0,8.0,128.0,21.0,1.0,1.0,0.3,Time
,,S13,1,Male,30,anonymized,Serial_Dependence_U,2023.2.3,Win32,59.88023952,,,,,,,,,,,,1182.153,4.0,1182.1541,,,,1184.8873,1185.3816,1184.3787,1184.887,1183.1617,189.0,1184.3786,1185.3816,1185.8809,1185.8809,1187.788,977.8,1187.7883,2.0,1188.7784,4.0,9.0,129.0,27.0,1.0,1.2,0.7,Time
,,S13,1,Male,30,anonymized,Serial_Dependence_U,2023.2.3,Win32,59.88023952,,,,,,,,,,,,1188.7793,4.0,1188.78,,,,1191.117,1191.6091,1190.5964,1191.1169,1189.7863,317.0,1190.5963,1191.6091,1192.1088,1192.1088,1193.8015,1221.4,1193.8018,5.0,1194.8068,4.0,10.0,130.0,20.0,1.0,0.8,0.3,Time
,,S13,1,Male,30,anonymized,Serial_Dependence_U,2023.2.3,Win32,59.88023952,,,,,,,,,,,,1194.8076,4.0,1194.8081,,,,1197.7459,1198.2356,1197.2401,1197.7457,1195.8334,260.0,1197.2399,1198.2357,1198.7359,1198.736,1200.6093,1435.1,1200.61,3.0,1201.5989,4.0,11.0,131.0,18.0,1.0,1.4,0.7,Time
,,S13,1,Male,30,anonymized,Serial_Dependence_U,2023.2.3,Win32,59.88023952,,,,,,,,,,,,1201.5994,4.0,1201.5997,,,,1204.1267,1204.6294,1203.6199,1204.1265,1202.603,104.0,1203.6198,1204.6294,1205.1172,1205.1172,1206.8965,1225.1,1206.8978,4.0,1207.8931,4.0,12.0,132.0,16.0,1.0,1.0,0.7,Time
,,S13,1,Male,30,anonymized,Serial_Dependence_U,2023.2.3,Win32,59.88023952,,,,,,,,,,,,1207.8947,4.0,1207.8952,,,,1210.847,1211.3395,1210.3306,1210.8468,1208.9105,253.0,1210.3305,1211.3395,1211.8409,1211.841,1213.947,1486.6,1213.9471,4.0,1214.9399,4.0,13.0,133.0,8.0,1.0,1.4,0.7,Time
,,S13,1,Male,30,anonymized,Serial_Dependence_U,2023.2.3,Win32,59.88023952,,,,,,,,,,,,1214.9409,4.0,1214.9414,,,,1217.6722,1218.166,1217.1558,1217.672,1215.9461,305.0,1217.1555,1218.166,1218.6658,1218.6658,1220.1667,1048.9,1220.1671,2.0,1221.1658,4.0,14.0,134.0,17.0,1.0,1.2,0.7,Time
,,S13,1,Male,30,anonymized,Serial_Dependence_U,2023.2.3,Win32,59.88023952,,,,,,,,,,,,1221.1664,4.0,1221.1667,,,,1223.5063,1224.0102,1222.9808,1223.5061,1222.1668,307.0,1222.9807,1224.0102,1224.5098,1224.5098,1226.8327,949.6,1226.8346,4.0,1227.8233,4.0,15.0,135.0,5.0,1.0,0.8,0.7,Time
,,S13,1,Male,30,anonymized,Serial_Dependence_U,2023.2.3,Win32,59.88023952,,,,,,,,,,,,1227.8245,4.0,1227.8247,,,,1230.7498,1231.2531,1230.2423,1230.7496,1228.8292,321.0,1230.2422,1231.2531,1231.7527,1231.7527,1233.2422,1092.8,1233.2427,2.0,1234.2342,4.0,16.0,136.0,23.0,1.0,1.4,0.3,Time
,,S13,1,Male,30,anonymized,Serial_Dependence_U,2023.2.3,Win32,59.88023952,,,,,,,,,,,,1234.235,4.0,1234.2355,,,,1236.5519,1237.0498,1236.0462,1236.5519,1235.2419,260.0,1236.0461,1237.0498,1237.5494,1237.5494,1238.9574,1003.7,1238.9586,4.0,1239.9468,4.0,17.0,137.0,15.0,1.0,0.8,0.7,Time
,,S13,1,Male,30,anonymized,Serial_Dependence_U,2023.2.3,Win32,59.88023952,,,,,,,,,,,,1239.9476,4.0,1239.9478,,,,1242.2909,1242.7918,1241.7615,1242.2909,1240.9555,333.0,1241.7614,1242.7919,1243.2918,1243.2919,1243.909,134.4,1243.9092,1.0,1244.9067,4.0,18.0,138.0,10.0,1.0,0.8,0.3,Time
,,S13,1,Male,30,anonymized,Serial_Dependence_U,2023.2.3,Win32,59.88023952,,,,,,,,,,,,1244.9072,4.0,1244.9075,,,,1247.8449,1248.3364,1247.3293,1247.8437,1245.9162,293.0,1247.3289,1248.3364,1248.837,1248.837,1250.1559,923.4,1250.1565,1.0,1251.1506,4.0,19.0,139.0,13.0,1.0,1.4,0.3,Time
,,S13,1,Male,30,anonymized,Serial_Dependence_U,2023.2.3,Win32,59.88023952,,,,,,,,,,,,1251.1509,4.0,1251.1514,,,,1253.8651,1254.3643,1253.3575,1253.865,1252.1518,149.0,1253.3573,1254.3643,1254.8636,1254.8636,1256.3663,1006.8,1256.3666,2.0,1257.3613,4.0,20.0,140.0,22.0,1.0,1.2,0.3,Time
,,S13,1,Male,30,anonymized,Serial_Dependence_U,2023.2.3,Win32,59.88023952,,,,,,,,,,,,1257.3618,4.0,1257.3624,,,,1260.4792,1260.9743,1259.9758,1260.4791,1258.3715,191.0,1259.9757,1260.9744,1261.4793,1261.4794,1263.2599,1386.6,1263.26,2.0,1264.2549,4.0,21.0,141.0,29.0,1.0,1.6,0.7,Time
,,S13,1,Male,30,anonymized,Serial_Dependence_U,2023.2.3,Win32,59.88023952,,,,,,,,,,,,1264.2557,4.0,1264.2563,,,,1267.3819,1267.8844,1266.8752,1267.3819,1265.262,167.0,1266.8751,1267.8844,1268.3837,1268.3837,1271.0417,1271.0,1271.0421,2.0,1272.03,4.0,22.0,142.0,24.0,1.0,1.6,0.3,Time
,,S13,1,Male,30,anonymized,Serial_Dependence_U,2023.2.3,Win32,59.88023952,,,,,,,,,,,,1272.0306,4.0,1272.0311,,,,1274.3694,1274.8604,1273.8483,1274.3692,1273.0373,252.0,1273.8482,1274.8605,1275.3602,1275.3603,1277.6586,1132.3,1277.659,5.0,1278.657,4.0,23.0,143.0,0.0,1.0,0.8,0.3,Time
,,S13,1,Male,30,anonymized,Serial_Dependence_U,2023.2.3,Win32,59.88023952,,,,,,,,,,,,1278.6577,4.0,1278.6584,,,,1281.8154,1282.3068,1281.2964,1281.8153,1279.6807,203.0,1281.2961,1282.3068,1282.8054,1282.8055,1284.4989,1134.5,1284.4993,2.0,1285.5004,4.0,24.0,144.0,19.0,1.0,1.6,0.7,Time
,,S13,1,Male,30,anonymized,Serial_Dependence_U,2023.2.3,Win32,59.88023952,,,,,,,,,,,,1285.5019,4.0,1285.5022,,,,1288.025,1288.5152,1287.5152,1288.0249,1286.5041,114.0,1287.5152,1288.5154,1289.0135,1289.0135,1289.8658,395.5,1289.8663,1.0,1290.8616,4.0,25.0,145.0,11.0,1.0,1.0,0.3,Time
,,S13,1,Male,30,anonymized,Serial_Dependence_U,2023.2.3,Win32,59.88023952,,,,,,,,,,,,1290.8621,4.0,1290.8625,,,,1293.1718,1293.6597,1292.6677,1293.1716,1291.8649,18.0,1292.6674,1293.6597,1294.1586,1294.1589,1294.2971,115.1,1294.2979,1.0,1295.2904,4.0,26.0,146.0,25.0,1.0,0.8,0.7,Time
,,S13,1,Male,30,anonymized,Serial_Dependence_U,2023.2.3,Win32,59.88023952,,,,,,,,,,,,1295.291,4.0,1295.2915,,,,1298.439,1298.9368,1297.9345,1298.4388,1296.3131,205.0,1297.9342,1298.9369,1299.4364,1299.4365,1301.6711,1809.0,1301.6718,4.0,1302.6668,4.0,27.0,147.0,9.0,1.0,1.6,0.7,Time
,,S13,1,Male,30,anonymized,Serial_Dependence_U,2023.2.3,Win32,59.88023952,,,,,,,,,,,,1302.6678,4.0,1302.6683,,,,1305.7998,1306.2972,1305.2909,1305.7998,1303.6815,45.0,1305.2908,1306.2972,1306.7959,1306.796,1308.5595,1211.6,1308.5597,2.0,1309.56,4.0,28.0,148.0,4.0,1.0,1.6,0.3,Time
,,S13,1,Male,30,anonymized,Serial_Dependence_U,2023.2.3,Win32,59.88023952,,,,,,,,,,,,1309.5606,4.0,1309.5611,,,,1312.0945,1312.5903,1311.5839,1312.0944,1310.5616,189.0,1311.5838,1312.5904,1313.0904,1313.0907,1314.8968,1334.7,1314.8974,5.0,1315.8869,4.0,29.0,149.0,6.0,1.0,1.0,0.7,Time
,,S13,1,Male,30,anonymized,Serial_Dependence_U,2023.2.3,Win32,59.88023952,,,,,,,,,,,,1315.8875,5.0,1320.1829,s,4.2702,,1322.5084,1322.9969,1321.9983,1322.5082,1321.1893,198.0,1321.9981,1322.9969,1323.4974,1323.4975,1327.5466,2348.5,1327.5471,5.0,1328.5413,5.0,0.0,150.0,15.0,1.0,0.8,0.7,Time
,,S13,1,Male,30,anonymized,Serial_Dependence_U,2023.2.3,Win32,59.88023952,,,,,,,,,,,,1328.5418,5.0,1328.5447,,,,1331.6659,1332.1545,1331.1571,1331.6659,1329.5486,182.0,1331.1569,1332.1546,1332.6542,1332.6542,1335.5205,2264.4,1335.5214,5.0,1336.5174,5.0,1.0,151.0,9.0,1.0,1.6,0.7,Time
,,S13,1,Male,30,anonymized,Serial_Dependence_U,2023.2.3,Win32,59.88023952,,,,,,,,,,,,1336.5186,5.0,1336.519,,,,1339.0368,1339.5304,1338.5296,1339.0368,1337.5269,251.0,1338.5294,1339.5304,1340.03,1340.0301,1342.0364,1612.2,1342.0374,5.0,1343.0289,5.0,2.0,152.0,11.0,1.0,1.0,0.3,Time
,,S13,1,Male,30,anonymized,Serial_Dependence_U,2023.2.3,Win32,59.88023952,,,,,,,,,,,,1343.0299,5.0,1343.0301,,,,1345.5403,1346.0411,1345.036,1345.5401,1344.0305,319.0,1345.0349,1346.0411,1346.5405,1346.5406,1348.4183,1507.9,1348.4188,5.0,1349.4208,5.0,3.0,153.0,6.0,1.0,1.0,0.7,Time
,,S13,1,Male,30,anonymized,Serial_Dependence_U,2023.2.3,Win32,59.88023952,,,,,,,,,,,,1349.4218,5.0,1349.4228,,,,1352.5532,1353.0505,1352.0501,1352.5531,1350.4239,92.0,1352.05,1353.0505,1353.5501,1353.5501,1355.4568,1581.5,1355.4571,3.0,1356.4478,5.0,4.0,154.0,19.0,1.0,1.6,0.7,Time
,,S13,1,Male,30,anonymized,Serial_Dependence_U,2023.2.3,Win32,59.88023952,,,,,,,,,,,,1356.4489,5.0,1356.4494,,,,1358.7695,1359.2612,1358.2643,1358.7694,1357.4541,341.0,1358.2642,1359.2613,1359.7606,1359.7608,1361.9342,1615.3,1361.9345,5.0,1362.9246,5.0,5.0,155.0,10.0,1.0,0.8,0.3,Time
,,S13,1,Male,30,anonymized,Serial_Dependence_U,2023.2.3,Win32,59.88023952,,,,,,,,,,,,1362.9256,5.0,1362.9265,,,,1365.8604,1366.3547,1365.3505,1365.8603,1363.9351,359.0,1365.3504,1366.3547,1366.8538,1366.8538,1369.1855,1807.6,1369.1859,4.0,1370.1859,5.0,6.0,156.0,23.0,1.0,1.4,0.3,Time
,,S13,1,Male,30,anonymized,Serial_Dependence_U,2023.2.3,Win32,59.88023952,,,,,,,,,,,,1370.1868,5.0,1370.1875,,,,1372.8989,1373.3974,1372.3939,1372.8988,1371.1892,282.0,1372.3937,1373.3975,1373.897,1373.897,1377.5013,2621.0,1377.5017,5.0,1378.4923,5.0,7.0,157.0,2.0,1.0,1.2,0.3,Time
,,S13,1,Male,30,anonymized,Serial_Dependence_U,2023.2.3,Win32,59.88023952,,,,,,,,,,,,1378.4929,5.0,1378.4934,,,,1381.0338,1381.5226,1380.517,1381.0336,1379.4978,100.0,1380.5169,1381.5227,1382.0222,1382.0223,1384.2826,1827.9,1384.2831,5.0,1385.2858,5.0,8.0,158.0,21.0,1.0,1.0,0.3,Time
,,S13,1,Male,30,anonymized,Serial_Dependence_U,2023.2.3,Win32,59.88023952,,,,,,,,,,,,1385.2863,5.0,1385.2867,,,,1388.0077,1388.4992,1387.4957,1388.0074,1386.293,214.0,1387.4957,1388.4993,1388.9987,1388.9988,1391.0082,1562.6,1391.0087,5.0,1392.0127,5.0,9.0,159.0,12.0,1.0,1.2,0.3,Time
,,S13,1,Male,30,anonymized,Serial_Dependence_U,2023.2.3,Win32,59.88023952,,,,,,,,,,,,1392.0148,5.0,1392.0153,,,,1394.5363,1395.0278,1394.0348,1394.5363,1393.0226,231.0,1394.0346,1395.0278,1395.5265,1395.5268,1397.2363,1205.5,1397.2365,4.0,1398.2399,5.0,10.0,160.0,26.0,1.0,1.0,0.7,Time
,,S13,1,Male,30,anonymized,Serial_Dependence_U,2023.2.3,Win32,59.88023952,,,,,,,,,,,,1398.2407,5.0,1398.2415,,,,1400.9625,1401.4534,1400.4596,1400.9623,1399.2534,277.0,1400.4595,1401.4535,1401.9529,1401.9529,1403.9216,1415.9,1403.9262,4.0,1404.9198,5.0,11.0,161.0,27.0,1.0,1.2,0.7,Time
,,S13,1,Male,30,anonymized,Serial_Dependence_U,2023.2.3,Win32,59.88023952,,,,,,,,,,,,1404.9208,5.0,1404.9217,,,,1407.6557,1408.1485,1407.1395,1407.6556,1405.92,200.0,1407.1391,1408.1485,1408.649,1408.6491,1410.3457,1259.4,1410.346,3.0,1411.3435,5.0,12.0,162.0,22.0,1.0,1.2,0.3,Time
,,S13,1,Male,30,anonymized,Serial_Dependence_U,2023.2.3,Win32,59.88023952,,,,,,,,,,,,1411.3441,5.0,1411.3445,,,,1414.2793,1414.7735,1413.7635,1414.2792,1412.3521,95.0,1413.7635,1414.7735,1415.273,1415.2731,1416.7997,1505.4,1416.8005,4.0,1417.8039,5.0,13.0,163.0,28.0,1.0,1.4,0.7,Time
,,S13,1,Male,30,anonymized,Serial_Dependence_U,2023.2.3,Win32,59.88023952,,,,,,,,,,,,1417.8044,5.0,1417.8047,,,,1420.1588,1420.6523,1419.6406,1420.1586,1418.8286,29.0,1419.6404,1420.6523,1421.1507,1421.1507,1423.4376,1787.8,1423.4382,5.0,1424.4312,5.0,14.0,164.0,25.0,1.0,0.8,0.7,Time
,,S13,1,Male,30,anonymized,Serial_Dependence_U,2023.2.3,Win32,59.88023952,,,,,,,,,,,,1424.4332,5.0,1424.4339,,,,1427.5492,1428.0452,1427.0375,1427.5491,1425.435,103.0,1427.0375,1428.0452,1428.5453,1428.5454,1430.2822,1419.2,1430.285,2.0,1431.275,5.0,15.0,165.0,14.0,1.0,1.6,0.3,Time
,,S13,1,Male,30,anonymized,Serial_Dependence_U,2023.2.3,Win32,59.88023952,,,,,,,,,,,,1431.2759,5.0,1431.2763,,,,1434.2116,1434.7061,1433.6922,1434.2114,1432.2782,109.0,1433.692,1434.7061,1435.2043,1435.2045,1437.2748,1503.8,1437.2753,4.0,1438.2675,5.0,16.0,166.0,8.0,1.0,1.4,0.7,Time
,,S13,1,Male,30,anonymized,Serial_Dependence_U,2023.2.3,Win32,59.88023952,,,,,,,,,,,,1438.2683,5.0,1438.2688,,,,1440.8066,1441.2976,1440.2851,1440.8065,1439.2694,111.0,1440.285,1441.2977,1441.7972,1441.7972,1444.0705,1183.2,1444.0707,4.0,1445.0607,5.0,17.0,167.0,16.0,1.0,1.0,0.7,Time
,,S13,1,Male,30,anonymized,Serial_Dependence_U,2023.2.3,Win32,59.88023952,,,,,,,,,,,,1445.0625,5.0,1445.0636,,,,1447.6002,1448.0913,1447.0946,1447.5999,1446.0803,273.0,1447.0929,1448.0913,1448.5902,1448.5903,1450.1812,1080.5,1450.1819,4.0,1451.1712,5.0,18.0,168.0,1.0,1.0,1.0,0.3,Time
,,S13,1,Male,30,anonymized,Serial_Dependence_U,2023.2.3,Win32,59.88023952,,,,,,,,,,,,1451.1718,5.0,1451.1723,,,,1453.5082,1454.0021,1452.9948,1453.5082,1452.1934,187.0,1452.9947,1454.0021,1454.5021,1454.5026,1456.7308,1721.8,1456.7309,5.0,1457.7315,5.0,19.0,169.0,5.0,1.0,0.8,0.7,Time
,,S13,1,Male,30,anonymized,Serial_Dependence_U,2023.2.3,Win32,59.88023952,,,,,,,,,,,,1457.7319,5.0,1457.7324,,,,1460.8723,1461.3616,1460.3639,1460.8722,1458.7565,294.0,1460.3639,1461.3616,1461.8608,1461.8609,1463.1977,862.3,1463.1981,1.0,1464.1938,5.0,20.0,170.0,4.0,1.0,1.6,0.3,Time
,,S13,1,Male,30,anonymized,Serial_Dependence_U,2023.2.3,Win32,59.88023952,,,,,,,,,,,,1464.1942,5.0,1464.1943,,,,1467.1395,1467.6388,1466.6366,1467.1393,1465.2122,164.0,1466.6364,1467.6388,1468.1279,1468.128,1469.6405,1118.9,1469.6412,2.0,1470.636,5.0,21.0,171.0,18.0,1.0,1.4,0.7,Time
,,S13,1,Male,30,anonymized,Serial_Dependence_U,2023.2.3,Win32,59.88023952,,,,,,,,,,,,1470.6367,5.0,1470.6373,,,,1473.3774,1473.8681,1472.8602,1473.3772,1471.6462,292.0,1472.8601,1473.8683,1474.3655,1474.3655,1476.0893,1300.9,1476.0899,4.0,1477.0791,5.0,22.0,172.0,7.0,1.0,1.2,0.7,Time
,,S13,1,Male,30,anonymized,Serial_Dependence_U,2023.2.3,Win32,59.88023952,,,,,,,,,,,,1477.0797,5.0,1477.0801,,,,1480.2154,1480.7088,1479.7032,1480.2153,1478.0866,113.0,1479.7029,1480.7089,1481.2085,1481.2085,1481.9424,695.6,1481.9429,1.0,1482.9419,5.0,23.0,173.0,24.0,1.0,1.6,0.3,Time
,,S13,1,Male,30,anonymized,Serial_Dependence_U,2023.2.3,Win32,59.88023952,,,,,,,,,,,,1482.9429,5.0,1482.9435,,,,1485.879,1486.37,1485.357,1485.879,1483.9464,270.0,1485.357,1486.3701,1486.8697,1486.8697,1488.6086,1283.8,1488.6092,2.0,1489.6002,5.0,24.0,174.0,3.0,1.0,1.4,0.3,Time
,,S13,1,Male,30,anonymized,Serial_Dependence_U,2023.2.3,Win32,59.88023952,,,,,,,,,,,,1489.6007,5.0,1489.6013,,,,1492.7255,1493.2139,1492.2226,1492.7253,1490.6035,76.0,1492.2223,1493.2139,1493.7146,1493.7148,1493.9405,173.4,1493.9412,1.0,1494.9301,5.0,25.0,175.0,29.0,1.0,1.6,0.7,Time
,,S13,1,Male,30,anonymized,Serial_Dependence_U,2023.2.3,Win32,59.88023952,,,,,,,,,,,,1494.9306,5.0,1494.9311,,,,1497.6794,1498.1757,1497.1697,1497.6794,1495.9535,117.0,1497.1697,1498.1758,1498.6752,1498.6752,1500.7173,1524.9,1500.7175,4.0,1501.706,5.0,26.0,176.0,17.0,1.0,1.2,0.7,Time
,,S13,1,Male,30,anonymized,Serial_Dependence_U,2023.2.3,Win32,59.88023952,,,,,,,,,,,,1501.7094,5.0,1501.7106,,,,1504.0569,1504.5541,1503.5429,1504.0568,1502.7304,276.0,1503.5428,1504.5541,1505.0517,1505.0518,1506.7402,1157.4,1506.7405,5.0,1507.7325,5.0,27.0,177.0,0.0,1.0,0.8,0.3,Time
,,S13,1,Male,30,anonymized,Serial_Dependence_U,2023.2.3,Win32,59.88023952,,,,,,,,,,,,1507.7329,5.0,1507.7336,,,,1510.6903,1511.1789,1510.1665,1510.6902,1508.7576,166.0,1510.1665,1511.1789,1511.6829,1511.6838,1513.4233,1244.5,1513.4237,2.0,1514.4261,5.0,28.0,178.0,13.0,1.0,1.4,0.3,Time
,,S13,1,Male,30,anonymized,Serial_Dependence_U,2023.2.3,Win32,59.88023952,,,,,,,,,,,,1514.4269,5.0,1514.4274,,,,1516.7598,1517.2564,1516.2501,1516.7598,1515.4333,120.0,1516.25,1517.2564,1517.7577,1517.759,1519.1818,968.0,1519.1819,4.0,1520.171,5.0,29.0,179.0,20.0,1.0,0.8,0.3,Time
,,S13,1,Male,30,anonymized,Serial_Dependence_U,2023.2.3,Win32,59.88023952,,,,,,,,,,,,1520.1729,6.0,1522.6515,s,2.4519,,1525.5728,1526.0648,1525.0675,1525.5727,1523.6558,107.0,1525.0672,1526.0649,1526.5529,1526.553,1528.5885,1511.2,1528.5889,4.0,1529.5785,6.0,0.0,180.0,3.0,1.0,1.4,0.3,Time
,,S13,1,Male,30,anonymized,Serial_Dependence_U,2023.2.3,Win32,59.88023952,,,,,,,,,,,,1529.5795,6.0,1529.5811,,,,1532.3174,1532.808,1531.8064,1532.3173,1530.5886,318.0,1531.8062,1532.808,1533.3074,1533.3074,1534.5924,1248.5,1534.5931,3.0,1535.5924,6.0,1.0,181.0,27.0,1.0,1.2,0.7,Time
,,S13,1,Male,30,anonymized,Serial_Dependence_U,2023.2.3,Win32,59.88023952,,,,,,,,,,,,1535.5942,6.0,1535.5955,,,,1538.1284,1538.6188,1537.6093,1538.1283,1536.59,142.0,1537.609,1538.6188,1539.1184,1539.1184,1540.9293,1279.7,1540.9299,4.0,1541.9338,6.0,2.0,182.0,16.0,1.0,1.0,0.7,Time
,,S13,1,Male,30,anonymized,Serial_Dependence_U,2023.2.3,Win32,59.88023952,,,,,,,,,,,,1541.9343,6.0,1541.9345,,,,1544.4542,1544.9467,1543.9482,1544.454,1542.9406,277.0,1543.9478,1544.9468,1545.4457,1545.4458,1547.2327,1285.6,1547.235,4.0,1548.2263,6.0,3.0,183.0,21.0,1.0,1.0,0.3,Time
,,S13,1,Male,30,anonymized,Serial_Dependence_U,2023.2.3,Win32,59.88023952,,,,,,,,,,,,1548.2269,6.0,1548.2272,,,,1550.5575,1551.0566,1550.0473,1550.5574,1549.2368,116.0,1550.047,1551.0566,1551.5567,1551.5569,1552.3729,337.5,1552.3734,1.0,1553.372,6.0,4.0,184.0,5.0,1.0,0.8,0.7,Time
,,S13,1,Male,30,anonymized,Serial_Dependence_U,2023.2.3,Win32,59.88023952,,,,,,,,,,,,1553.3731,6.0,1553.3744,,,,1555.9205,1556.4221,1555.4143,1555.9202,1554.3913,310.0,1555.4139,1556.4221,1556.9178,1556.9178,1558.584,91.2,1558.5847,1.0,1559.5824,6.0,5.0,185.0,26.0,1.0,1.0,0.7,Time
,,S13,1,Male,30,anonymized,Serial_Dependence_U,2023.2.3,Win32,59.88023952,,,,,,,,,,,,1559.5847,6.0,1559.5856,,,,1561.9147,1562.4124,1561.4015,1561.9146,1560.5843,86.0,1561.4014,1562.4124,1562.9117,1562.9118,1564.395,1258.1,1564.3957,5.0,1565.3929,6.0,6.0,186.0,15.0,1.0,0.8,0.7,Time
,,S13,1,Male,30,anonymized,Serial_Dependence_U,2023.2.3,Win32,59.88023952,,,,,,,,,,,,1565.394,6.0,1565.3945,,,,1567.7527,1568.2418,1567.2514,1567.7526,1566.3984,19.0,1567.2513,1568.2418,1568.7399,1568.7399,1570.3331,1290.3,1570.335,5.0,1571.3368,6.0,7.0,187.0,10.0,1.0,0.8,0.3,Time
,,S13,1,Male,30,anonymized,Serial_Dependence_U,2023.2.3,Win32,59.88023952,,,,,,,,,,,,1571.3374,6.0,1571.3378,,,,1574.2766,1574.7669,1573.7659,1574.2765,1572.3445,28.0,1573.7658,1574.7669,1575.2671,1575.2671,1576.7161,1063.3,1576.7168,2.0,1577.7159,6.0,8.0,188.0,8.0,1.0,1.4,0.7,Time
,,S13,1,Male,30,anonymized,Serial_Dependence_U,2023.2.3,Win32,59.88023952,,,,,,,,,,,,1577.7171,6.0,1577.7185,,,,1580.253,1580.7448,1579.7346,1580.2528,1578.7201,199.0,1579.7344,1580.7448,1581.2446,1581.2447,1582.7927,1226.1,1582.7928,4.0,1583.7913,6.0,9.0,189.0,6.0,1.0,1.0,0.7,Time
,,S13,1,Male,30,anonymized,Serial_Dependence_U,2023.2.3,Win32,59.88023952,,,,,,,,,,,,1583.7918,6.0,1583.7921,,,,1586.3325,1586.8216,1585.8183,1586.3324,1584.8002,145.0,1585.8182,1586.8217,1587.3274,1587.3278,1589.2099,1367.3,1589.2114,5.0,1590.2019,6.0,10.0,190.0,11.0,1.0,1.0,0.3,Time
,,S13,1,Male,30,anonymized,Serial_Dependence_U,2023.2.3,Win32,59.88023952,,,,,,,,,,,,1590.2025,6.0,1590.2031,,,,1592.92,1593.4162,1592.4121,1592.9199,1591.2061,57.0,1592.412,1593.4164,1593.9161,1593.9162,1595.6804,1393.0,1595.6807,4.0,1596.6786,6.0,11.0,191.0,17.0,1.0,1.2,0.7,Time
,,S13,1,Male,30,anonymized,Serial_Dependence_U,2023.2.3,Win32,59.88023952,,,,,,,,,,,,1596.6792,6.0,1596.6794,,,,1599.6174,1600.1086,1599.0973,1599.617,1597.6847,208.0,1599.0971,1600.1087,1600.6083,1600.6083,1602.1491,1088.4,1602.1498,2.0,1603.1391,6.0,12.0,192.0,13.0,1.0,1.4,0.3,Time
,,S13,1,Male,30,anonymized,Serial_Dependence_U,2023.2.3,Win32,59.88023952,,,,,,,,,,,,1603.1397,6.0,1603.1399,,,,1605.4809,1605.9706,1604.9668,1605.4809,1604.1468,1.0,1604.9666,1605.9707,1606.4695,1606.4696,1608.3526,1380.0,1608.3542,5.0,1609.351,6.0,13.0,193.0,25.0,1.0,0.8,0.7,Time
,,S13,1,Male,30,anonymized,Serial_Dependence_U,2023.2.3,Win32,59.88023952,,,,,,,,,,,,1609.3517,6.0,1609.3522,,,,1612.2671,1612.7634,1611.757,1612.267,1610.3522,3.0,1611.7569,1612.7635,1613.266,1613.2661,1615.1219,1381.5,1615.1225,3.0,1616.1275,6.0,14.0,194.0,23.0,1.0,1.4,0.3,Time
,,S13,1,Male,30,anonymized,Serial_Dependence_U,2023.2.3,Win32,59.88023952,,,,,,,,,,,,1616.1283,6.0,1616.1286,,,,1619.2445,1619.7395,1618.7383,1619.2444,1617.1367,162.0,1618.7382,1619.7395,1620.2454,1620.2454,1622.3113,1651.7,1622.3118,3.0,1623.3027,6.0,15.0,195.0,14.0,1.0,1.6,0.3,Time
,,S13,1,Male,30,anonymized,Serial_Dependence_U,2023.2.3,Win32,59.88023952,,,,,,,,,,,,1623.3052,6.0,1623.3057,,,,1626.0201,1626.5167,1625.514,1626.0195,1624.3066,347.0,1625.5139,1626.5169,1627.0156,1627.0158,1628.9477,1579.1,1628.9482,5.0,1629.9477,6.0,16.0,196.0,12.0,1.0,1.2,0.3,Time
,,S13,1,Male,30,anonymized,Serial_Dependence_U,2023.2.3,Win32,59.88023952,,,,,,,,,,,,1629.9484,6.0,1629.9489,,,,1632.6694,1633.1595,1632.1584,1632.6692,1630.9492,198.0,1632.1582,1633.1596,1633.6591,1633.6592,1635.4588,1437.7,1635.4589,4.0,1636.4563,6.0,17.0,197.0,7.0,1.0,1.2,0.7,Time
,,S13,1,Male,30,anonymized,Serial_Dependence_U,2023.2.3,Win32,59.88023952,,,,,,,,,,,,1636.4568,6.0,1636.4572,,,,1638.7832,1639.2877,1638.2772,1638.7832,1637.4671,91.0,1638.277,1639.2878,1639.7864,1639.7865,1641.2881,1411.8,1641.2885,5.0,1642.2887,6.0,18.0,198.0,0.0,1.0,0.8,0.3,Time
,,S13,1,Male,30,anonymized,Serial_Dependence_U,2023.2.3,Win32,59.88023952,,,,,,,,,,,,1642.2892,6.0,1642.2897,,,,1645.0404,1645.531,1644.5154,1645.0403,1643.2949,77.0,1644.5153,1645.5311,1646.0307,1646.0307,1647.7985,1414.8,1647.7987,4.0,1648.7967,6.0,19.0,199.0,2.0,1.0,1.2,0.3,Time
,,S13,1,Male,30,anonymized,Serial_Dependence_U,2023.2.3,Win32,59.88023952,,,,,,,,,,,,1648.7976,6.0,1648.7988,,,,1651.9339,1652.4289,1651.4261,1651.9337,1649.8108,103.0,1651.426,1652.4289,1652.9236,1652.9236,1654.8837,1425.6,1654.8842,2.0,1655.8873,6.0,20.0,200.0,19.0,1.0,1.6,0.7,Time
,,S13,1,Male,30,anonymized,Serial_Dependence_U,2023.2.3,Win32,59.88023952,,,,,,,,,,,,1655.8885,6.0,1655.8891,,,,1658.6198,1659.1179,1658.1121,1658.6197,1656.8893,157.0,1658.1118,1659.1179,1659.6177,1659.6177,1661.5292,1430.4,1661.5296,4.0,1662.5309,6.0,21.0,201.0,22.0,1.0,1.2,0.3,Time
,,S13,1,Male,30,anonymized,Serial_Dependence_U,2023.2.3,Win32,59.88023952,,,,,,,,,,,,1662.5314,6.0,1662.5318,,,,1665.4703,1665.9611,1664.9497,1665.4701,1663.5454,357.0,1664.9496,1665.9611,1666.461,1666.4612,1668.3324,1402.4,1668.3352,3.0,1669.3246,6.0,22.0,202.0,18.0,1.0,1.4,0.7,Time
,,S13,1,Male,30,anonymized,Serial_Dependence_U,2023.2.3,Win32,59.88023952,,,,,,,,,,,,1669.3257,6.0,1669.3263,,,,1672.4572,1672.954,1671.9555,1672.4571,1670.3457,349.0,1671.9555,1672.954,1673.4542,1673.4542,1675.3299,1450.7,1675.3301,2.0,1676.3342,6.0,23.0,203.0,24.0,1.0,1.6,0.3,Time
,,S13,1,Male,30,anonymized,Serial_Dependence_U,2023.2.3,Win32,59.88023952,,,,,,,,,,,,1676.3348,6.0,1676.3354,,,,1679.4512,1679.9495,1678.9437,1679.4511,1677.338,261.0,1678.9435,1679.9496,1680.4471,1680.4472,1682.1977,1647.0,1682.1985,3.0,1683.194,6.0,24.0,204.0,4.0,1.0,1.6,0.3,Time
,,S13,1,Male,30,anonymized,Serial_Dependence_U,2023.2.3,Win32,59.88023952,,,,,,,,,,,,1683.1946,6.0,1683.195,,,,1686.3194,1686.8072,1685.8053,1686.3192,1684.2027,82.0,1685.8053,1686.8072,1687.307,1687.3071,1689.1885,1426.1,1689.1887,2.0,1690.1871,6.0,25.0,205.0,29.0,1.0,1.6,0.7,Time
,,S13,1,Male,30,anonymized,Serial_Dependence_U,2023.2.3,Win32,59.88023952,,,,,,,,,,,,1690.1878,6.0,1690.1883,,,,1692.7286,1693.2176,1692.2119,1692.7284,1691.1922,193.0,1692.2119,1693.2177,1693.7179,1693.7183,1695.4435,1119.6,1695.444,4.0,1696.4319,6.0,26.0,206.0,1.0,1.0,1.0,0.3,Time
,,S13,1,Male,30,anonymized,Serial_Dependence_U,2023.2.3,Win32,59.88023952,,,,,,,,,,,,1696.4332,6.0,1696.4338,,,,1698.7485,1699.2483,1698.2415,1698.7484,1697.4343,88.0,1698.2407,1699.2483,1699.7444,1699.7444,1701.6309,1304.8,1701.6313,5.0,1702.6252,6.0,27.0,207.0,20.0,1.0,0.8,0.3,Time
,,S13,1,Male,30,anonymized,Serial_Dependence_U,2023.2.3,Win32,59.88023952,,,,,,,,,,,,1702.6257,6.0,1702.626,,,,1705.5461,1706.0383,1705.0369,1705.5461,1703.627,266.0,1705.0367,1706.0384,1706.5387,1706.5388,1712.5545,9999.0,1712.5549,0.0,1713.5487,6.0,28.0,208.0,28.0,1.0,1.4,0.7,Time
,,S13,1,Male,30,anonymized,Serial_Dependence_U,2023.2.3,Win32,59.88023952,,,,,,,,,,,,1713.5495,6.0,1713.5498,,,,1716.6669,1717.161,1716.1561,1716.6668,1714.5524,165.0,1716.156,1717.161,1717.6602,1717.6602,1719.3106,1228.7,1719.3111,2.0,1720.3076,6.0,29.0,209.0,9.0,1.0,1.6,0.7,Time
,,S13,1,Male,30,anonymized,Serial_Dependence_U,2023.2.3,Win32,59.88023952,,,,,,,,,,,,1720.3082,7.0,1722.489,s,2.1581,,1725.0099,1725.5042,1724.506,1725.0098,1723.4925,271.0,1724.5059,1725.5043,1726.0068,1726.0068,1727.8291,1327.5,1727.8296,5.0,1728.8327,7.0,0.0,210.0,21.0,1.0,1.0,0.3,Time
,,S13,1,Male,30,anonymized,Serial_Dependence_U,2023.2.3,Win32,59.88023952,,,,,,,,,,,,1728.8338,7.0,1728.8361,,,,1731.184,1731.6798,1730.6715,1731.1839,1729.8576,262.0,1730.6713,1731.6798,1732.1796,1732.1796,1733.7629,1097.3,1733.7638,5.0,1734.7601,7.0,1.0,211.0,5.0,1.0,0.8,0.7,Time
,,S13,1,Male,30,anonymized,Serial_Dependence_U,2023.2.3,Win32,59.88023952,,,,,,,,,,,,1734.7605,7.0,1734.7643,,,,1737.5125,1738.0071,1736.995,1737.5124,1735.7818,282.0,1736.9947,1738.0072,1738.5065,1738.5066,1740.1417,1169.3,1740.1473,3.0,1741.1373,7.0,2.0,212.0,2.0,1.0,1.2,0.3,Time
,,S13,1,Male,30,anonymized,Serial_Dependence_U,2023.2.3,Win32,59.88023952,,,,,,,,,,,,1741.1378,7.0,1741.1383,,,,1743.6772,1744.1678,1743.1573,1743.6771,1742.1484,238.0,1743.1572,1744.1678,1744.6672,1744.6673,1744.7703,21.2,1744.7705,1.0,1745.7665,7.0,3.0,213.0,1.0,1.0,1.0,0.3,Time
,,S13,1,Male,30,anonymized,Serial_Dependence_U,2023.2.3,Win32,59.88023952,,,,,,,,,,,,1745.7672,7.0,1745.7674,,,,1748.0936,1748.5972,1747.5818,1748.0934,1746.7729,120.0,1747.5816,1748.5973,1749.0962,1749.0963,1750.8498,1286.1,1750.8501,5.0,1751.8434,7.0,4.0,214.0,10.0,1.0,0.8,0.3,Time
,,S13,1,Male,30,anonymized,Serial_Dependence_U,2023.2.3,Win32,59.88023952,,,,,,,,,,,,1751.844,7.0,1751.8445,,,,1754.3754,1754.8741,1753.8616,1754.3754,1752.8451,137.0,1753.8614,1754.8742,1755.3747,1755.3749,1756.9268,1083.9,1756.9272,4.0,1757.9211,7.0,5.0,215.0,6.0,1.0,1.0,0.7,Time
,,S13,1,Male,30,anonymized,Serial_Dependence_U,2023.2.3,Win32,59.88023952,,,,,,,,,,,,1757.9219,7.0,1757.9224,,,,1761.059,1761.551,1760.544,1761.0587,1758.9335,84.0,1760.5435,1761.5512,1762.0541,1762.0542,1763.3495,1260.9,1763.3497,2.0,1764.3553,7.0,6.0,216.0,29.0,1.0,1.6,0.7,Time
,,S13,1,Male,30,anonymized,Serial_Dependence_U,2023.2.3,Win32,59.88023952,,,,,,,,,,,,1764.3563,7.0,1764.3566,,,,1767.2788,1767.7782,1766.7646,1767.2788,1765.3511,333.0,1766.7644,1767.7783,1768.2796,1768.2796,1769.8469,1214.1,1769.8514,2.0,1770.8417,7.0,7.0,217.0,28.0,1.0,1.4,0.7,Time
,,S13,1,Male,30,anonymized,Serial_Dependence_U,2023.2.3,Win32,59.88023952,,,,,,,,,,,,1770.8421,7.0,1770.8424,,,,1773.9626,1774.4551,1773.4562,1773.9624,1771.8494,13.0,1773.4561,1774.4552,1774.9563,1774.9563,1776.5583,1180.9,1776.5589,2.0,1777.5516,7.0,8.0,218.0,14.0,1.0,1.6,0.3,Time
,,S13,1,Male,30,anonymized,Serial_Dependence_U,2023.2.3,Win32,59.88023952,,,,,,,,,,,,1777.5521,7.0,1777.5524,,,,1780.286,1780.7817,1779.779,1780.286,1778.5615,151.0,1779.7787,1780.7817,1781.2812,1781.2813,1782.8188,1055.1,1782.8191,2.0,1783.8123,7.0,9.0,219.0,22.0,1.0,1.2,0.3,Time
,,S13,1,Male,30,anonymized,Serial_Dependence_U,2023.2.3,Win32,59.88023952,,,,,,,,,,,,1783.8137,7.0,1783.8141,,,,1786.1359,1786.6272,1785.6202,1786.1357,1784.8186,176.0,1785.6198,1786.6274,1787.1268,1787.1268,1788.8284,1199.6,1788.8291,5.0,1789.8257,7.0,10.0,220.0,25.0,1.0,0.8,0.7,Time
,,S13,1,Male,30,anonymized,Serial_Dependence_U,2023.2.3,Win32,59.88023952,,,,,,,,,,,,1789.8261,7.0,1789.8264,,,,1792.3712,1792.8713,1791.8421,1792.3711,1790.8297,128.0,1791.842,1792.8714,1793.3702,1793.3713,1794.5582,835.4,1794.5586,2.0,1795.5506,7.0,11.0,221.0,16.0,1.0,1.0,0.7,Time
,,S13,1,Male,30,anonymized,Serial_Dependence_U,2023.2.3,Win32,59.88023952,,,,,,,,,,,,1795.5527,7.0,1795.5544,,,,1798.4783,1798.9817,1797.97,1798.4781,1796.5587,152.0,1797.97,1798.9817,1799.4821,1799.4823,1801.5705,1479.8,1801.5711,4.0,1802.5606,7.0,12.0,222.0,3.0,1.0,1.4,0.3,Time
,,S13,1,Male,30,anonymized,Serial_Dependence_U,2023.2.3,Win32,59.88023952,,,,,,,,,,,,1802.5617,7.0,1802.5642,,,,1805.699,1806.1905,1805.1769,1805.699,1803.575,164.0,1805.1769,1806.1905,1806.6901,1806.6901,1808.2102,1019.5,1808.2104,1.0,1809.2057,7.0,13.0,223.0,24.0,1.0,1.6,0.3,Time
,,S13,1,Male,30,anonymized,Serial_Dependence_U,2023.2.3,Win32,59.88023952,,,,,,,,,,,,1809.2065,7.0,1809.207,,,,1811.5394,1812.0363,1811.0323,1811.5392,1810.2144,162.0,1811.0323,1812.0363,1812.534,1812.5341,1814.4726,1287.9,1814.4732,5.0,1815.4645,7.0,14.0,224.0,0.0,1.0,0.8,0.3,Time
,,S13,1,Male,30,anonymized,Serial_Dependence_U,2023.2.3,Win32,59.88023952,,,,,,,,,,,,1815.4649,7.0,1815.4653,,,,1818.6197,1819.1113,1818.1111,1818.619,1816.492,84.0,1818.1109,1819.1113,1819.6106,1819.6107,1821.3989,1295.3,1821.3995,2.0,1822.3926,7.0,15.0,225.0,19.0,1.0,1.6,0.7,Time
,,S13,1,Male,30,anonymized,Serial_Dependence_U,2023.2.3,Win32,59.88023952,,,,,,,,,,,,1822.3934,7.0,1822.3939,,,,1824.9175,1825.4229,1824.4117,1824.9174,1823.3945,354.0,1824.4116,1825.4229,1825.9212,1825.9212,1827.8965,1479.0,1827.8971,5.0,1828.8846,7.0,16.0,226.0,26.0,1.0,1.0,0.7,Time
,,S13,1,Male,30,anonymized,Serial_Dependence_U,2023.2.3,Win32,59.88023952,,,,,,,,,,,,1828.8852,7.0,1828.8856,,,,1831.8392,1832.3316,1831.3269,1831.8391,1829.8954,214.0,1831.3268,1832.3316,1832.8315,1832.8316,1834.0588,1204.0,1834.0591,2.0,1835.0643,7.0,17.0,227.0,23.0,1.0,1.4,0.3,Time
,,S13,1,Male,30,anonymized,Serial_Dependence_U,2023.2.3,Win32,59.88023952,,,,,,,,,,,,1835.0648,7.0,1835.065,,,,1837.7887,1838.2927,1837.2794,1837.7885,1836.0665,104.0,1837.2793,1838.2927,1838.7918,1838.7918,1840.74,1335.2,1840.7402,4.0,1841.74,7.0,18.0,228.0,17.0,1.0,1.2,0.7,Time
,,S13,1,Male,30,anonymized,Serial_Dependence_U,2023.2.3,Win32,59.88023952,,,,,,,,,,,,1841.7418,7.0,1841.7443,,,,1844.8816,1845.3702,1844.3649,1844.8816,1842.7504,52.0,1844.3647,1845.3702,1845.8688,1845.8688,1847.2017,1220.1,1847.2021,2.0,1848.1997,7.0,19.0,229.0,4.0,1.0,1.6,0.3,Time
,,S13,1,Male,30,anonymized,Serial_Dependence_U,2023.2.3,Win32,59.88023952,,,,,,,,,,,,1848.2003,7.0,1848.2008,,,,1850.5153,1851.0164,1850.0123,1850.5153,1849.2013,190.0,1850.0122,1851.0165,1851.5127,1851.5127,1853.6681,1600.5,1853.6688,5.0,1854.66,7.0,20.0,230.0,15.0,1.0,0.8,0.7,Time
,,S13,1,Male,30,anonymized,Serial_Dependence_U,2023.2.3,Win32,59.88023952,,,,,,,,,,,,1854.6636,7.0,1854.6649,,,,1857.5872,1858.0895,1857.0794,1857.5871,1855.6691,324.0,1857.079,1858.0895,1858.5896,1858.5896,1860.4903,1432.0,1860.491,3.0,1861.4901,7.0,21.0,231.0,18.0,1.0,1.4,0.7,Time
,,S13,1,Male,30,anonymized,Serial_Dependence_U,2023.2.3,Win32,59.88023952,,,,,,,,,,,,1861.4909,7.0,1861.4912,,,,1864.4056,1864.8996,1863.8959,1864.4055,1862.4912,80.0,1863.8956,1864.8997,1865.399,1865.399,1867.8167,1265.2,1867.8172,2.0,1868.8122,7.0,22.0,232.0,13.0,1.0,1.4,0.3,Time
,,S13,1,Male,30,anonymized,Serial_Dependence_U,2023.2.3,Win32,59.88023952,,,,,,,,,,,,1868.8127,7.0,1868.8133,,,,1871.5503,1872.0425,1871.0359,1871.5502,1869.8319,44.0,1871.0344,1872.0425,1872.5453,1872.5454,1874.6322,1404.1,1874.634,4.0,1875.6224,7.0,23.0,233.0,27.0,1.0,1.2,0.7,Time
,,S13,1,Male,30,anonymized,Serial_Dependence_U,2023.2.3,Win32,59.88023952,,,,,,,,,,,,1875.6229,7.0,1875.6235,,,,1878.3451,1878.8357,1877.8362,1878.345,1876.6249,53.0,1877.836,1878.8357,1879.3352,1879.3353,1881.0571,1218.9,1881.0575,3.0,1882.0498,7.0,24.0,234.0,7.0,1.0,1.2,0.7,Time
,,S13,1,Male,30,anonymized,Serial_Dependence_U,2023.2.3,Win32,59.88023952,,,,,,,,,,,,1882.0507,7.0,1882.0513,,,,1884.3697,1884.866,1883.8654,1884.3696,1883.0548,71.0,1883.8654,1884.8661,1885.3651,1885.3651,1887.4716,1449.7,1887.472,5.0,1888.4633,7.0,25.0,235.0,20.0,1.0,0.8,0.3,Time
,,S13,1,Male,30,anonymized,Serial_Dependence_U,2023.2.3,Win32,59.88023952,,,,,,,,,,,,1888.4641,7.0,1888.4651,,,,1891.4053,1891.9068,1890.8999,1891.4052,1889.4771,337.0,1890.8997,1891.9068,1892.4066,1892.4067,1894.1217,1432.8,1894.1222,3.0,1895.1199,7.0,26.0,236.0,8.0,1.0,1.4,0.7,Time
,,S13,1,Male,30,anonymized,Serial_Dependence_U,2023.2.3,Win32,59.88023952,,,,,,,,,,,,1895.1204,7.0,1895.1209,,,,1897.8551,1898.35,1897.3352,1897.855,1896.1291,59.0,1897.3351,1898.35,1898.8498,1898.8498,1900.682,1412.2,1900.6824,4.0,1901.6805,7.0,27.0,237.0,12.0,1.0,1.2,0.3,Time
,,S13,1,Male,30,anonymized,Serial_Dependence_U,2023.2.3,Win32,59.88023952,,,,,,,,,,,,1901.6844,7.0,1901.6857,,,,1904.2197,1904.7107,1903.7012,1904.2197,1902.6869,354.0,1903.701,1904.7107,1905.2099,1905.21,1906.7319,1226.5,1906.7348,4.0,1907.7268,7.0,28.0,238.0,11.0,1.0,1.0,0.3,Time
,,S13,1,Male,30,anonymized,Serial_Dependence_U,2023.2.3,Win32,59.88023952,,,,,,,,,,,,1907.7276,7.0,1907.7283,,,,1910.8665,1911.3705,1910.3502,1910.8664,1908.7324,153.0,1910.3501,1911.3705,1911.87,1911.8701,1913.8151,1524.7,1913.8153,3.0,1914.8171,7.0,29.0,239.0,9.0,1.0,1.6,0.7,Time
,,S13,1,Male,30,anonymized,Serial_Dependence_U,2023.2.3,Win32,59.88023952,,,,,,,,,,,,1914.8179,8.0,1916.6856,s,1.8466,,1919.0035,1919.4958,1918.4923,1919.0035,1917.6872,6.0,1918.492,1919.4959,1920.0001,1920.0002,1921.7318,1310.1,1921.7323,5.0,1922.7261,8.0,0.0,240.0,10.0,1.0,0.8,0.3,Time
,,S13,1,Male,30,anonymized,Serial_Dependence_U,2023.2.3,Win32,59.88023952,,,,,,,,,,,,1922.7266,8.0,1922.7299,,,,1925.6687,1926.1579,1925.1416,1925.6686,1923.7373,289.0,1925.1414,1926.158,1926.6559,1926.6559,1928.5746,1465.7,1928.575,3.0,1929.5695,8.0,1.0,241.0,28.0,1.0,1.4,0.7,Time
,,S13,1,Male,30,anonymized,Serial_Dependence_U,2023.2.3,Win32,59.88023952,,,,,,,,,,,,1929.57,8.0,1929.5704,,,,1932.7073,1933.1992,1932.1898,1932.7072,1930.5802,267.0,1932.1897,1933.1992,1933.6987,1933.6987,1935.388,1362.5,1935.3894,2.0,1936.3802,8.0,2.0,242.0,29.0,1.0,1.6,0.7,Time
,,S13,1,Male,30,anonymized,Serial_Dependence_U,2023.2.3,Win32,59.88023952,,,,,,,,,,,,1936.3809,8.0,1936.3812,,,,1938.9223,1939.4098,1938.4189,1938.9223,1937.3976,164.0,1938.4186,1939.4099,1939.9093,1939.9093,1941.7813,1455.1,1941.7817,5.0,1942.7731,8.0,3.0,243.0,11.0,1.0,1.0,0.3,Time
,,S13,1,Male,30,anonymized,Serial_Dependence_U,2023.2.3,Win32,59.88023952,,,,,,,,,,,,1942.7736,8.0,1942.774,,,,1945.3092,1945.8039,1944.7916,1945.3092,1943.7761,200.0,1944.7915,1945.8039,1946.3044,1946.3046,1947.7869,1230.8,1947.7887,4.0,1948.7854,8.0,4.0,244.0,16.0,1.0,1.0,0.7,Time
,,S13,1,Male,30,anonymized,Serial_Dependence_U,2023.2.3,Win32,59.88023952,,,,,,,,,,,,1948.7862,8.0,1948.7865,,,,1951.1206,1951.6172,1950.6069,1951.1204,1949.7949,21.0,1950.6064,1951.6173,1952.114,1952.114,1953.899,1302.9,1953.8997,5.0,1954.8965,8.0,5.0,245.0,0.0,1.0,0.8,0.3,Time
,,S13,1,Male,30,anonymized,Serial_Dependence_U,2023.2.3,Win32,59.88023952,,,,,,,,,,,,1954.898,8.0,1954.8984,,,,1957.422,1957.925,1956.9003,1957.4219,1955.8987,93.0,1956.9003,1957.925,1958.4267,1958.4268,1960.268,1620.8,1960.2684,5.0,1961.2731,8.0,6.0,246.0,1.0,1.0,1.0,0.3,Time
,,S13,1,Male,30,anonymized,Serial_Dependence_U,2023.2.3,Win32,59.88023952,,,,,,,,,,,,1961.274,8.0,1961.2748,,,,1963.7961,1964.2861,1963.2768,1963.7959,1962.2742,234.0,1963.2767,1964.2861,1964.7851,1964.7852,1966.5274,1269.3,1966.5285,4.0,1967.5322,8.0,7.0,247.0,26.0,1.0,1.0,0.7,Time
,,S13,1,Male,30,anonymized,Serial_Dependence_U,2023.2.3,Win32,59.88023952,,,,,,,,,,,,1967.5328,8.0,1967.5341,,,,1970.6861,1971.18,1970.1614,1970.686,1968.5416,330.0,1970.1614,1971.1802,1971.6793,1971.6795,1973.557,1399.9,1973.5575,2.0,1974.5587,8.0,8.0,248.0,19.0,1.0,1.6,0.7,Time
,,S13,1,Male,30,anonymized,Serial_Dependence_U,2023.2.3,Win32,59.88023952,,,,,,,,,,,,1974.5592,8.0,1974.5595,,,,1977.683,1978.172,1977.1761,1977.68,1975.567,264.0,1977.1761,1978.172,1978.6715,1978.6715,1980.2417,1448.3,1980.2424,2.0,1981.2413,8.0,9.0,249.0,9.0,1.0,1.6,0.7,Time
,,S13,1,Male,30,anonymized,Serial_Dependence_U,2023.2.3,Win32,59.88023952,,,,,,,,,,,,1981.2423,8.0,1981.2432,,,,1983.9742,1984.4693,1983.4615,1983.9739,1982.2369,331.0,1983.4613,1984.4693,1984.9665,1984.9666,1986.9992,1548.2,1986.9996,4.0,1987.9955,8.0,10.0,250.0,17.0,1.0,1.2,0.7,Time
,,S13,1,Male,30,anonymized,Serial_Dependence_U,2023.2.3,Win32,59.88023952,,,,,,,,,,,,1987.996,8.0,1987.9963,,,,1990.7281,1991.2259,1990.211,1990.728,1989.0029,22.0,1990.2107,1991.2259,1991.7269,1991.727,1993.5879,1331.9,1993.5887,4.0,1994.5896,8.0,11.0,251.0,27.0,1.0,1.2,0.7,Time
,,S13,1,Male,30,anonymized,Serial_Dependence_U,2023.2.3,Win32,59.88023952,,,,,,,,,,,,1994.5909,8.0,1994.5912,,,,1997.3269,1997.8192,1996.8219,1997.3268,1995.6073,80.0,1996.8218,1997.8193,1998.3187,1998.3187,2001.3331,1329.9,2001.3336,4.0,2002.3316,8.0,12.0,252.0,2.0,1.0,1.2,0.3,Time
,,S13,1,Male,30,anonymized,Serial_Dependence_U,2023.2.3,Win32,59.88023952,,,,,,,,,,,,2002.3326,8.0,2002.3334,,,,2005.2734,2005.7619,2004.7659,2005.2732,2003.3586,342.0,2004.7655,2005.7619,2006.2613,2006.2614,2007.9887,1287.7,2007.9891,2.0,2008.9916,8.0,13.0,253.0,8.0,1.0,1.4,0.7,Time
,,S13,1,Male,30,anonymized,Serial_Dependence_U,2023.2.3,Win32,59.88023952,,,,,,,,,,,,2008.9921,8.0,2008.9925,,,,2012.1249,2012.6226,2011.6119,2012.1213,2010.008,180.0,2011.6118,2012.6228,2013.1219,2013.1219,2015.3415,1762.0,2015.342,4.0,2016.3346,8.0,14.0,254.0,4.0,1.0,1.6,0.3,Time
,,S13,1,Male,30,anonymized,Serial_Dependence_U,2023.2.3,Win32,59.88023952,,,,,,,,,,,,2016.3351,8.0,2016.3356,,,,2019.455,2019.9477,2018.9456,2019.4549,2017.3368,206.0,2018.9456,2019.9477,2020.4493,2020.4494,2022.3955,1180.8,2022.3957,2.0,2023.3942,8.0,15.0,255.0,14.0,1.0,1.6,0.3,Time
,,S13,1,Male,30,anonymized,Serial_Dependence_U,2023.2.3,Win32,59.88023952,,,,,,,,,,,,2023.3947,8.0,2023.3951,,,,2025.7154,2026.2082,2025.2097,2025.7154,2024.3994,164.0,2025.2095,2026.2082,2026.708,2026.7081,2028.4086,1345.8,2028.4088,5.0,2029.4049,8.0,16.0,256.0,15.0,1.0,0.8,0.7,Time
,,S13,1,Male,30,anonymized,Serial_Dependence_U,2023.2.3,Win32,59.88023952,,,,,,,,,,,,2029.4055,8.0,2029.4059,,,,2032.3293,2032.8185,2031.8104,2032.3292,2030.407,36.0,2031.8103,2032.8186,2033.318,2033.3181,2035.0884,1246.0,2035.091,2.0,2036.0819,8.0,17.0,257.0,3.0,1.0,1.4,0.3,Time
,,S13,1,Male,30,anonymized,Serial_Dependence_U,2023.2.3,Win32,59.88023952,,,,,,,,,,,,2036.0825,8.0,2036.0831,,,,2038.8146,2039.3121,2038.3033,2038.8145,2037.0929,335.0,2038.3032,2039.3121,2039.8116,2039.8117,2041.7802,1432.5,2041.7803,4.0,2042.7752,8.0,18.0,258.0,22.0,1.0,1.2,0.3,Time
,,S13,1,Male,30,anonymized,Serial_Dependence_U,2023.2.3,Win32,59.88023952,,,,,,,,,,,,2042.7758,8.0,2042.7762,,,,2045.5147,2046.0069,2044.997,2045.5147,2043.7822,210.0,2044.9967,2046.0069,2046.5061,2046.5061,2048.1541,1262.0,2048.1544,4.0,2049.1524,8.0,19.0,259.0,7.0,1.0,1.2,0.7,Time
,,S13,1,Male,30,anonymized,Serial_Dependence_U,2023.2.3,Win32,59.88023952,,,,,,,,,,,,2049.1533,8.0,2049.1535,,,,2051.4899,2051.9844,2050.9716,2051.4898,2050.1616,14.0,2050.9716,2051.9845,2052.4832,2052.4832,2053.9842,1146.1,2053.9847,5.0,2054.9801,8.0,20.0,260.0,5.0,1.0,0.8,0.7,Time
,,S13,1,Male,30,anonymized,Serial_Dependence_U,2023.2.3,Win32,59.88023952,,,,,,,,,,,,2054.9807,8.0,2054.9813,,,,2057.3021,2057.7962,2056.798,2057.302,2055.989,70.0,2056.7979,2057.7963,2058.2939,2058.2939,2060.2036,1402.5,2060.204,5.0,2061.2072,8.0,21.0,261.0,25.0,1.0,0.8,0.7,Time
,,S13,1,Male,30,anonymized,Serial_Dependence_U,2023.2.3,Win32,59.88023952,,,,,,,,,,,,2061.2079,8.0,2061.2082,,,,2064.1263,2064.6207,2063.6189,2064.1261,2062.2078,335.0,2063.6188,2064.6207,2065.1201,2065.1202,2066.5207,964.3,2066.5211,1.0,2067.5183,8.0,22.0,262.0,23.0,1.0,1.4,0.3,Time
,,S13,1,Male,30,anonymized,Serial_Dependence_U,2023.2.3,Win32,59.88023952,,,,,,,,,,,,2067.5191,8.0,2067.5199,,,,2070.6486,2071.1474,2070.1344,2070.6485,2068.5241,341.0,2070.1343,2071.1474,2071.6481,2071.6481,2074.031,1431.5,2074.0311,2.0,2075.0298,8.0,23.0,263.0,24.0,1.0,1.6,0.3,Time
,,S13,1,Male,30,anonymized,Serial_Dependence_U,2023.2.3,Win32,59.88023952,,,,,,,,,,,,2075.0313,8.0,2075.0319,,,,2077.7488,2078.2405,2077.242,2077.7486,2076.0346,59.0,2077.2419,2078.2407,2078.7401,2078.7402,2080.7572,1110.0,2080.7576,2.0,2081.754,8.0,24.0,264.0,12.0,1.0,1.2,0.3,Time
,,S13,1,Male,30,anonymized,Serial_Dependence_U,2023.2.3,Win32,59.88023952,,,,,,,,,,,,2081.7545,8.0,2081.7549,,,,2084.317,2084.8178,2083.7994,2084.3168,2082.7814,302.0,2083.7989,2084.8179,2085.3186,2085.3188,2087.2191,1430.9,2087.2198,5.0,2088.2141,8.0,25.0,265.0,21.0,1.0,1.0,0.3,Time
,,S13,1,Male,30,anonymized,Serial_Dependence_U,2023.2.3,Win32,59.88023952,,,,,,,,,,,,2088.2147,8.0,2088.2151,,,,2090.7566,2091.2445,2090.2373,2090.7565,2089.2238,226.0,2090.2372,2091.2445,2091.7441,2091.7442,2093.0946,626.8,2093.0949,1.0,2094.0917,8.0,26.0,266.0,6.0,1.0,1.0,0.7,Time
,,S13,1,Male,30,anonymized,Serial_Dependence_U,2023.2.3,Win32,59.88023952,,,,,,,,,,,,2094.0922,8.0,2094.0925,,,,2096.4379,2096.9395,2095.9281,2096.4379,2095.1094,165.0,2095.9279,2096.9396,2097.4389,2097.4389,2099.3565,1483.7,2099.3567,5.0,2100.3522,8.0,27.0,267.0,20.0,1.0,0.8,0.3,Time
,,S13,1,Male,30,anonymized,Serial_Dependence_U,2023.2.3,Win32,59.88023952,,,,,,,,,,,,2100.3527,8.0,2100.3533,,,,2103.2739,2103.7654,2102.7696,2103.2738,2101.3646,279.0,2102.7695,2103.7655,2104.265,2104.265,2106.275,1465.0,2106.2753,3.0,2107.2796,8.0,28.0,268.0,13.0,1.0,1.4,0.3,Time
,,S13,1,Male,30,anonymized,Serial_Dependence_U,2023.2.3,Win32,59.88023952,,,,,,,,,,,,2107.2833,8.0,2107.2837,,,,2110.1993,2110.6921,2109.6969,2110.1992,2108.2908,194.0,2109.6965,2110.6921,2111.1916,2111.1917,2113.4099,1102.4,2113.4101,2.0,2114.405,8.0,29.0,269.0,18.0,1.0,1.4,0.7,Time
