Scale_setup.started,Scale_setup.stopped,participant,expid,session,sex,age,date,expName,psychopyVersion,OS,frameRate,Intro.started,Intro.stopped,key_resp_2.keys,key_resp_2.rt,key_resp_2.duration,block.started,direction,Block_id,block.stopped,trial_direction,Block_resp_2.keys,Block_resp_2.rt,Block_resp_2.duration,ITI.started,ITI.stopped,Mask_2.started,Mask_2.stopped,encoding.started,encoding.stopped,Cue.started,Cue.stopped,Response.started,Response.stopped,keyDuration,Feedback_Time.started,FeedbackID_T,Feedback_Time.stopped,trials.thisRepN,trials.thisTrialN,trials.thisN,trials.thisIndex,trials.ran,TimeDur,Coherence1,TrialType
0.0001999999880837,0.0003999999761532,S13,785063,1,male,23,anonymized,Serial_Dependence_U,2023.2.3,Win32,60.97560975609215,,,,,,,,,,,,,,,,,,,,,,,,,,,,,,,,,,,
,,S13,785063,1,male,23,anonymized,Serial_Dependence_U,2023.2.3,Win32,60.97560975609215,152.97260000002382,272.3906999999881,space,119.39280000001196,,,,,,,,,,,,,,,,,,,,,,,,,,,,,,,
,,S13,785063,1,male,23,anonymized,Serial_Dependence_U,2023.2.3,Win32,60.97560975609215,,,,,,272.39589999997617,93.0,0.0,275.9046999999881,93.0,s,3.4851000000238628,,279.3018999999762,279.8013000000119,278.7858999999761,279.3016999999881,276.9213000000119,278.78580000001193,279.80150000000003,280.3016999999881,280.3018999999762,281.4335,126.0,281.433800000012,1.0,282.43260000002385,0.0,0.0,0.0,20.0,1.0,0.8,0.3,Time
,,S13,785063,1,male,23,anonymized,Serial_Dependence_U,2023.2.3,Win32,60.97560975609215,,,,,,282.43319999998806,305.0,0.0,282.4348999999761,305.0,,,,286.42960000002387,286.92900000000003,285.913300000012,286.42960000002387,283.44910000002386,285.9131999999881,286.9291000000238,287.4283000000119,287.4283000000119,292.108,111.0,292.108,1.0,293.10739999997617,0.0,1.0,1.0,13.0,1.0,1.4,0.3,Time
,,S13,785063,1,male,23,anonymized,Serial_Dependence_U,2023.2.3,Win32,60.97560975609215,,,,,,293.1081999999881,355.0,0.0,293.10839999997614,355.0,,,,296.4713000000119,296.9705,295.9551999999881,296.47110000002385,294.12310000002384,295.95510000002383,296.9705,297.469800000012,297.4698999999762,301.8166999999881,90.0,301.81680000001194,1.0,302.81560000002384,0.0,2.0,2.0,5.0,1.0,0.8,0.7,Time
,,S13,785063,1,male,23,anonymized,Serial_Dependence_U,2023.2.3,Win32,60.97560975609215,,,,,,302.81600000000003,233.0,0.0,302.8161999999881,233.0,,,,306.21330000001194,306.7126000000238,305.6971999999881,306.21310000002387,303.8316999999881,305.69710000002385,306.7126000000238,307.21189999997614,307.212,307.345,84.0,307.3451000000239,1.0,308.3445,0.0,3.0,3.0,10.0,1.0,0.8,0.3,Time
,,S13,785063,1,male,23,anonymized,Serial_Dependence_U,2023.2.3,Win32,60.97560975609215,,,,,,308.344800000012,205.0,0.0,308.345,205.0,,,,311.9088000000119,312.4083999999761,311.3923000000119,311.9086999999881,309.36110000002384,311.39219999998807,312.4083999999761,312.9073999999762,312.9076000000239,319.4188000000119,149.0,319.4188999999762,1.0,320.4175,0.0,4.0,4.0,26.0,1.0,1.0,0.7,Time
,,S13,785063,1,male,23,anonymized,Serial_Dependence_U,2023.2.3,Win32,60.97560975609215,,,,,,320.41780000001194,220.0,0.0,320.418,220.0,,,,324.1816000000239,324.6808999999762,323.66560000002386,324.1815,321.434,323.66560000002386,324.6808999999762,325.1845,325.1846999999881,333.55730000001194,7498.0,333.55739999997616,5.0,334.556,0.0,5.0,5.0,27.0,1.0,1.2,0.7,Time
,,S13,785063,1,male,23,anonymized,Serial_Dependence_U,2023.2.3,Win32,60.97560975609215,,,,,,334.5563999999762,320.0,0.0,334.5566000000239,320.0,,,,338.75310000002384,339.2521999999881,338.2371000000239,338.753,335.57180000001193,338.2368999999762,339.2523000000119,339.75180000001194,339.75180000001194,394.7915,198.0,394.7916999999881,1.0,395.78869999998807,0.0,6.0,6.0,14.0,1.0,1.6,0.3,Time
,,S13,785063,1,male,23,anonymized,Serial_Dependence_U,2023.2.3,Win32,60.97560975609215,,,,,,395.78910000002384,177.0,0.0,395.7893000000119,177.0,,,,399.7855,400.2848999999762,399.2695,399.78539999997616,396.804800000012,399.26939999997614,400.2848999999762,400.7845,400.78460000002383,403.1196000000239,1282.0,403.1196999999881,2.0,404.1151999999881,0.0,7.0,7.0,3.0,1.0,1.4,0.3,Time
,,S13,785063,1,male,23,anonymized,Serial_Dependence_U,2023.2.3,Win32,60.97560975609215,,,,,,404.1155,300.0,0.0,404.11569999998807,300.0,,,,408.2951999999881,408.7943999999762,407.7821999999881,408.2951000000239,405.1346000000239,407.78210000002383,408.7943999999762,409.29410000002383,409.29410000002383,428.415,1067.0,428.415,1.0,429.41080000001193,0.0,8.0,8.0,29.0,1.0,1.6,0.7,Time
,,S13,785063,1,male,23,anonymized,Serial_Dependence_U,2023.2.3,Win32,60.97560975609215,,,,,,429.4111000000239,41.0,0.0,429.4113000000119,41.0,,,,433.16139999997614,433.6573999999762,432.6586999999881,433.1613000000119,430.4268999999762,432.6586999999881,433.6573999999762,434.1568999999762,434.157,435.92280000001193,985.0,435.923,2.0,436.921800000012,0.0,9.0,9.0,17.0,1.0,1.2,0.7,Time
,,S13,785063,1,male,23,anonymized,Serial_Dependence_U,2023.2.3,Win32,60.97560975609215,,,,,,436.922300000012,340.0,0.0,436.9225,340.0,,,,440.48589999997614,440.9855,439.9743000000119,440.4858000000119,437.9378000000119,439.97410000002384,440.9855,441.484800000012,441.48489999997616,443.400300000012,751.0,443.4003999999762,2.0,444.399,0.0,10.0,10.0,6.0,1.0,1.0,0.7,Time
,,S13,785063,1,male,23,anonymized,Serial_Dependence_U,2023.2.3,Win32,60.97560975609215,,,,,,444.3995,98.0,0.0,444.39960000002384,98.0,,,,448.196300000012,448.6956999999881,447.67989999997616,448.1961999999881,445.4151999999881,447.679800000012,448.695800000012,449.1953000000119,449.1953000000119,451.24750000000006,887.0,451.24750000000006,2.0,452.2428000000119,0.0,11.0,11.0,22.0,1.0,1.2,0.3,Time
,,S13,785063,1,male,23,anonymized,Serial_Dependence_U,2023.2.3,Win32,60.97560975609215,,,,,,452.2433000000119,259.0,0.0,452.2436000000239,259.0,,,,456.2398000000119,456.739,455.72350000000006,456.239699999988,453.258699999988,455.7233999999762,456.739,457.2383999999762,457.2385,468.41289999997616,616.0,468.41289999997616,1.0,469.4116000000239,0.0,12.0,12.0,23.0,1.0,1.4,0.3,Time
,,S13,785063,1,male,23,anonymized,Serial_Dependence_U,2023.2.3,Win32,60.97560975609215,,,,,,469.412,230.0,0.0,469.4121999999881,230.0,,,,473.2091000000238,473.7083999999762,472.6971999999881,473.2091000000238,470.428,472.6971000000239,473.7085,474.2078999999761,474.208,475.9398999999762,976.0,475.94000000000005,2.0,476.9391999999881,0.0,13.0,13.0,12.0,1.0,1.2,0.3,Time
,,S13,785063,1,male,23,anonymized,Serial_Dependence_U,2023.2.3,Win32,60.97560975609215,,,,,,476.9398000000119,225.0,0.0,476.94000000000005,225.0,,,,481.135800000012,481.6351999999881,480.6196000000239,481.1356999999881,477.9553000000119,480.61939999997617,481.6351999999881,482.1346999999881,482.134800000012,483.138,966.0,483.1381000000239,1.0,484.1328999999762,0.0,14.0,14.0,4.0,1.0,1.6,0.3,Time
,,S13,785063,1,male,23,anonymized,Serial_Dependence_U,2023.2.3,Win32,60.97560975609215,,,,,,484.1333999999762,319.0,0.0,484.1336000000239,319.0,,,,487.697,488.1965,487.1808999999762,487.697,485.1491000000239,487.18069999998806,488.1966000000239,488.696,488.696,490.8113999999762,984.0,490.8115,3.0,491.8101000000238,0.0,15.0,15.0,16.0,1.0,1.0,0.7,Time
,,S13,785063,1,male,23,anonymized,Serial_Dependence_U,2023.2.3,Win32,60.97560975609215,,,,,,491.8105000000001,6.0,0.0,491.81069999998806,6.0,,,,495.97369999998807,496.4728999999762,495.4573999999761,495.9736000000239,492.826,495.457300000012,496.4728999999762,496.9726999999881,496.9726999999881,501.8208000000119,1355.0,501.8208000000119,2.0,502.8175,0.0,16.0,16.0,19.0,1.0,1.6,0.7,Time
,,S13,785063,1,male,23,anonymized,Serial_Dependence_U,2023.2.3,Win32,60.97560975609215,,,,,,502.817800000012,111.0,0.0,502.8178999999761,111.0,,,,506.2156000000239,506.7143999999762,505.6985,506.2155,503.8336999999881,505.6983999999761,506.7143999999762,507.21400000000006,507.2141000000239,508.7791000000239,738.0,508.7791000000239,2.0,509.7786999999881,0.0,17.0,17.0,0.0,1.0,0.8,0.3,Time
,,S13,785063,1,male,23,anonymized,Serial_Dependence_U,2023.2.3,Win32,60.97560975609215,,,,,,509.779,324.0,0.0,509.7791000000239,324.0,,,,513.9418999999762,514.4415,513.426,513.941699999988,510.7946000000238,513.426,514.4416000000239,514.9408000000119,514.9408999999762,517.4088999999761,1731.0,517.4091000000238,4.0,518.405,0.0,18.0,18.0,9.0,1.0,1.6,0.7,Time
,,S13,785063,1,male,23,anonymized,Serial_Dependence_U,2023.2.3,Win32,60.97560975609215,,,,,,518.4056000000238,180.0,0.0,518.4058999999762,180.0,,,,522.002,522.5011000000238,521.4861000000238,522.0018999999762,519.4211000000239,521.486,522.5011999999881,523.0011999999881,523.0011999999881,530.5281000000239,675.0,530.5281000000239,1.0,531.5273000000119,0.0,19.0,19.0,1.0,1.0,1.0,0.3,Time
,,S13,785063,1,male,23,anonymized,Serial_Dependence_U,2023.2.3,Win32,60.97560975609215,,,,,,531.5278999999762,116.0,0.0,531.5281000000239,116.0,,,,535.2911000000239,535.7905000000001,534.7748999999761,535.291,532.5433999999761,534.7748999999761,535.7905000000001,536.29,536.2901999999881,538.2885,1097.0,538.2886000000238,2.0,539.2876000000239,0.0,20.0,20.0,7.0,1.0,1.2,0.7,Time
,,S13,785063,1,male,23,anonymized,Serial_Dependence_U,2023.2.3,Win32,60.97560975609215,,,,,,539.2881000000239,68.0,0.0,539.288300000012,68.0,,,,543.2513999999761,543.7506000000238,542.7353000000119,543.251300000012,540.303800000012,542.7353000000119,543.7506000000238,544.2498999999762,544.2498999999762,546.398,1397.0,546.398,3.0,547.3978000000119,0.0,21.0,21.0,28.0,1.0,1.4,0.7,Time
,,S13,785063,1,male,23,anonymized,Serial_Dependence_U,2023.2.3,Win32,60.97560975609215,,,,,,547.398199999988,100.0,0.0,547.3983000000119,100.0,,,,550.9951000000239,551.4941000000239,550.4788000000119,550.995,548.4136999999881,550.4788000000119,551.494199999988,551.9938000000119,551.9938999999762,553.7423000000119,768.0,553.7423000000119,2.0,554.7416999999881,0.0,22.0,22.0,11.0,1.0,1.0,0.3,Time
,,S13,785063,1,male,23,anonymized,Serial_Dependence_U,2023.2.3,Win32,60.97560975609215,,,,,,554.7421000000238,340.0,0.0,554.7421999999881,340.0,,,,558.1056999999881,558.605,557.5896000000239,558.1056000000239,555.7576000000239,557.5895,558.605,559.1043999999762,559.1045,560.62,706.0,560.62,2.0,561.619199999988,0.0,23.0,23.0,15.0,1.0,0.8,0.7,Time
,,S13,785063,1,male,23,anonymized,Serial_Dependence_U,2023.2.3,Win32,60.97560975609215,,,,,,561.6196999999881,74.0,0.0,561.6198000000119,74.0,,,,565.4163999999762,565.9158999999762,564.9001000000238,565.4163999999762,562.6351999999881,564.8998999999761,565.916,566.4153000000119,566.4153000000119,568.2006000000239,947.0,568.200699999988,2.0,569.1963999999762,0.0,24.0,24.0,2.0,1.0,1.2,0.3,Time
,,S13,785063,1,male,23,anonymized,Serial_Dependence_U,2023.2.3,Win32,60.97560975609215,,,,,,569.1966999999881,116.0,0.0,569.1968999999762,116.0,,,,573.1766000000239,573.6758999999762,572.6601000000238,573.1766000000239,570.2148999999762,572.6601000000238,573.6758999999762,574.1755,574.1755,576.6231000000239,1693.0,576.6231000000239,4.0,577.6226000000238,0.0,25.0,25.0,18.0,1.0,1.4,0.7,Time
,,S13,785063,1,male,23,anonymized,Serial_Dependence_U,2023.2.3,Win32,60.97560975609215,,,,,,577.623,297.0,0.0,577.6231999999881,297.0,,,,580.9866000000238,581.4861000000238,580.4705,580.9865,578.6388999999762,580.4703000000119,581.4861000000238,581.9858999999761,581.9858999999761,583.6508000000119,739.0,583.6508000000119,2.0,584.6501999999881,0.0,26.0,26.0,25.0,1.0,0.8,0.7,Time
,,S13,785063,1,male,23,anonymized,Serial_Dependence_U,2023.2.3,Win32,60.97560975609215,,,,,,584.6506000000238,22.0,0.0,584.6506000000238,22.0,,,,588.847,589.3466000000238,588.3308999999762,588.8468999999761,585.6663999999762,588.3308000000119,589.3466000000238,589.846,589.846,591.6656999999881,1359.0,591.6658000000119,2.0,592.6601999999881,0.0,27.0,27.0,24.0,1.0,1.6,0.3,Time
,,S13,785063,1,male,23,anonymized,Serial_Dependence_U,2023.2.3,Win32,60.97560975609215,,,,,,592.6605,343.0,0.0,592.6606999999881,343.0,,,,596.2578000000119,596.7566000000238,595.744199999988,596.2578000000119,593.6766000000239,595.744,596.7566999999881,597.2565,597.2566000000238,598.8053999999762,917.0,598.8053999999762,2.0,599.8046999999881,0.0,28.0,28.0,21.0,1.0,1.0,0.3,Time
,,S13,785063,1,male,23,anonymized,Serial_Dependence_U,2023.2.3,Win32,60.97560975609215,,,,,,599.8051999999881,197.0,0.0,599.8053999999762,197.0,,,,603.7683000000119,604.2675,603.2518999999762,603.768199999988,600.8203999999762,603.2516999999881,604.2675,604.767,604.7671000000239,606.9531000000238,1380.0,606.9531000000238,3.0,607.947800000012,0.0,29.0,29.0,8.0,1.0,1.4,0.7,Time
,,S13,785063,1,male,23,anonymized,Serial_Dependence_U,2023.2.3,Win32,60.97560975609215,,,,,,607.9481999999881,100.0,1.0,637.7065,100.0,s,29.725699999988024,,641.8701000000239,642.369199999988,641.3538000000119,641.8701000000239,638.7226999999881,641.3536999999881,642.369199999988,642.868699999988,642.8688000000119,645.0045,1587.0,645.0045,3.0,645.004800000012,1.0,0.0,30.0,9.0,1.0,1.6,0.7,Time
,,S13,785063,1,male,23,anonymized,Serial_Dependence_U,2023.2.3,Win32,60.97560975609215,,,,,,645.005,283.0,1.0,645.0056999999881,283.0,,,,648.364699999988,648.8641000000239,647.8485000000001,648.364699999988,646.0166000000238,647.8483999999762,648.864199999988,649.3636000000239,649.3636999999881,651.278800000012,516.0,651.278800000012,1.0,651.2791000000238,1.0,1.0,31.0,15.0,1.0,0.8,0.7,Time
,,S13,785063,1,male,23,anonymized,Serial_Dependence_U,2023.2.3,Win32,60.97560975609215,,,,,,651.279300000012,114.0,1.0,651.279300000012,114.0,,,,655.2421000000238,655.741800000012,654.7261000000238,655.2418999999761,652.2948999999762,654.726,655.741800000012,656.2413999999761,656.2413999999761,658.2565,1283.0,658.2566000000238,2.0,658.2568000000119,1.0,2.0,32.0,8.0,1.0,1.4,0.7,Time
,,S13,785063,1,male,23,anonymized,Serial_Dependence_U,2023.2.3,Win32,60.97560975609215,,,,,,658.2571999999881,174.0,1.0,658.2573000000119,174.0,,,,662.2535,662.7523999999762,661.7371000000238,662.2533999999762,659.2721000000239,661.737,662.7525,663.252,663.2521000000238,665.4503999999762,1280.0,665.4505,2.0,665.4508000000119,1.0,3.0,33.0,3.0,1.0,1.4,0.3,Time
,,S13,785063,1,male,23,anonymized,Serial_Dependence_U,2023.2.3,Win32,60.97560975609215,,,,,,665.451,79.0,1.0,665.4511000000239,79.0,,,,669.0143999999761,669.513699999988,668.5026999999881,669.014300000012,666.4663999999761,668.5025,669.5138000000119,670.013199999988,670.0133000000119,671.9615,1371.0,671.9616000000239,5.0,671.961800000012,1.0,4.0,34.0,6.0,1.0,1.0,0.7,Time
,,S13,785063,1,male,23,anonymized,Serial_Dependence_U,2023.2.3,Win32,60.97560975609215,,,,,,671.9621000000238,298.0,1.0,671.9621999999881,298.0,,,,675.3593999999762,675.8583999999762,674.8431000000238,675.359199999988,672.9776999999881,674.8431000000238,675.8583999999762,676.3581000000238,676.3581999999881,677.7736000000239,516.0,677.7736000000239,1.0,677.7738000000119,1.0,5.0,35.0,20.0,1.0,0.8,0.3,Time
,,S13,785063,1,male,23,anonymized,Serial_Dependence_U,2023.2.3,Win32,60.97560975609215,,,,,,677.774,211.0,1.0,677.774,211.0,,,,681.9703999999762,682.4696000000239,681.4541000000238,681.9703000000119,678.7895,681.4540000000001,682.469699999988,682.969,682.9691000000239,684.8343999999762,1217.0,684.8343999999762,2.0,684.8346000000239,1.0,6.0,36.0,24.0,1.0,1.6,0.3,Time
,,S13,785063,1,male,23,anonymized,Serial_Dependence_U,2023.2.3,Win32,60.97560975609215,,,,,,684.835,292.0,1.0,684.8351000000239,292.0,,,,688.1986999999881,688.697800000012,687.6866000000239,688.1986999999881,685.8505,687.6865,688.697800000012,689.1976000000238,689.1976000000238,690.967300000012,1025.0,690.9675,4.0,690.9678999999761,1.0,7.0,37.0,25.0,1.0,0.8,0.7,Time
,,S13,785063,1,male,23,anonymized,Serial_Dependence_U,2023.2.3,Win32,60.97560975609215,,,,,,690.9683000000119,77.0,1.0,690.9685000000001,77.0,,,,694.9596999999881,695.4586999999881,694.4436000000238,694.9596000000239,691.9666999999881,694.4433999999761,695.4586999999881,695.9586000000238,695.9586999999881,698.028,1413.0,698.028,3.0,698.0283000000119,1.0,8.0,38.0,13.0,1.0,1.4,0.3,Time
,,S13,785063,1,male,23,anonymized,Serial_Dependence_U,2023.2.3,Win32,60.97560975609215,,,,,,698.0286000000239,347.0,1.0,698.0286999999881,347.0,,,,701.5878999999761,702.087,701.0718999999762,701.5876999999881,699.0395,701.0718000000119,702.087,702.5865,702.5865,703.9855,889.0,703.9856000000239,2.0,703.9858999999761,1.0,9.0,39.0,16.0,1.0,1.0,0.7,Time
,,S13,785063,1,male,23,anonymized,Serial_Dependence_U,2023.2.3,Win32,60.97560975609215,,,,,,703.9861999999881,37.0,1.0,703.9863999999761,37.0,,,,707.749,708.2483000000119,707.2328000000119,707.749,705.0011999999881,707.2326999999881,708.2483999999762,708.7478999999762,708.748,710.6011000000238,1194.0,710.6011000000238,3.0,710.601300000012,1.0,10.0,40.0,17.0,1.0,1.2,0.7,Time
,,S13,785063,1,male,23,anonymized,Serial_Dependence_U,2023.2.3,Win32,60.97560975609215,,,,,,710.6016000000238,95.0,1.0,710.6016000000238,95.0,,,,714.1605,714.6596999999881,713.645,714.1603999999762,711.6128999999762,713.6446999999881,714.6596999999881,715.1596000000238,715.1596000000238,716.741300000012,1002.0,716.7413999999761,3.0,716.7416000000238,1.0,11.0,41.0,26.0,1.0,1.0,0.7,Time
,,S13,785063,1,male,23,anonymized,Serial_Dependence_U,2023.2.3,Win32,60.97560975609215,,,,,,716.742,338.0,1.0,716.7421000000238,338.0,,,,720.5386999999881,721.0378999999762,720.0221000000239,720.5385,717.7575,720.022,721.0378999999762,721.5371000000239,721.537199999988,723.2695,888.0,723.2695,2.0,723.2696999999881,1.0,12.0,42.0,2.0,1.0,1.2,0.3,Time
,,S13,785063,1,male,23,anonymized,Serial_Dependence_U,2023.2.3,Win32,60.97560975609215,,,,,,723.2701000000238,39.0,1.0,723.270300000012,39.0,,,,727.2333000000119,727.7326999999881,726.7166999999881,727.2331000000238,724.2856000000238,726.7166000000238,727.7326999999881,728.2316999999881,728.231800000012,731.6335,1495.0,731.6335,4.0,731.633699999988,1.0,13.0,43.0,28.0,1.0,1.4,0.7,Time
,,S13,785063,1,male,23,anonymized,Serial_Dependence_U,2023.2.3,Win32,60.97560975609215,,,,,,731.634,68.0,1.0,731.6341000000239,68.0,,,,735.7926999999881,736.291699999988,735.2763999999762,735.7926000000239,732.6451000000238,735.2763999999762,736.2918000000119,736.7915,736.7916000000239,739.4436000000238,1556.0,739.4436999999881,3.0,739.443800000012,1.0,14.0,44.0,29.0,1.0,1.6,0.7,Time
,,S13,785063,1,male,23,anonymized,Serial_Dependence_U,2023.2.3,Win32,60.97560975609215,,,,,,739.4441000000238,136.0,1.0,739.4441999999881,136.0,,,,743.2033999999761,743.702300000012,742.6868999999762,743.203300000012,740.4555,742.6868000000119,743.7023999999761,744.2021000000238,744.2021000000238,745.9843000000119,1217.0,745.9843000000119,3.0,745.9845,1.0,15.0,45.0,27.0,1.0,1.2,0.7,Time
,,S13,785063,1,male,23,anonymized,Serial_Dependence_U,2023.2.3,Win32,60.97560975609215,,,,,,745.9848000000119,252.0,1.0,745.9848999999762,252.0,,,,749.3481999999881,749.8473999999761,748.8318999999761,749.348,747.0001000000238,748.8318999999761,749.8473999999761,750.3471999999881,750.347300000012,752.0286000000239,1187.0,752.0286000000239,5.0,752.028800000012,1.0,16.0,46.0,5.0,1.0,0.8,0.7,Time
,,S13,785063,1,male,23,anonymized,Serial_Dependence_U,2023.2.3,Win32,60.97560975609215,,,,,,752.0291000000238,91.0,1.0,752.0291999999881,91.0,,,,756.0093999999762,756.5088000000119,755.4931999999881,756.0093000000119,753.0458999999762,755.4931000000239,756.5088999999762,757.0083999999762,757.0083999999762,759.4561999999881,1728.0,759.4563000000119,4.0,759.4566999999881,1.0,17.0,47.0,18.0,1.0,1.4,0.7,Time
,,S13,785063,1,male,23,anonymized,Serial_Dependence_U,2023.2.3,Win32,60.97560975609215,,,,,,759.4571000000238,196.0,1.0,759.457300000012,196.0,,,,763.0536000000238,763.5526999999881,762.5376000000239,763.0533999999761,760.4721999999881,762.5375,763.5526999999881,764.0523000000119,764.0523000000119,765.8378999999761,1259.0,765.8378999999761,4.0,765.8381000000238,1.0,18.0,48.0,1.0,1.0,1.0,0.3,Time
,,S13,785063,1,male,23,anonymized,Serial_Dependence_U,2023.2.3,Win32,60.97560975609215,,,,,,765.8383000000119,284.0,1.0,765.8383999999762,284.0,,,,769.5981999999881,770.097300000012,769.0816000000239,769.5981000000238,766.8503000000119,769.0816000000239,770.097300000012,770.597,770.5971000000238,772.5788999999762,1486.0,772.5788999999762,4.0,772.5791000000238,1.0,19.0,49.0,7.0,1.0,1.2,0.7,Time
,,S13,785063,1,male,23,anonymized,Serial_Dependence_U,2023.2.3,Win32,60.97560975609215,,,,,,772.5793000000119,239.0,1.0,772.5793999999762,239.0,,,,775.9761999999881,776.4756999999881,775.4605,775.976,773.5948000000119,775.4603999999762,776.475800000012,776.9751000000239,776.9751000000239,778.224,676.0,778.224,2.0,778.2241999999881,1.0,20.0,50.0,0.0,1.0,0.8,0.3,Time
,,S13,785063,1,male,23,anonymized,Serial_Dependence_U,2023.2.3,Win32,60.97560975609215,,,,,,778.2243999999762,284.0,1.0,778.2245,284.0,,,,781.8213999999762,782.320699999988,781.3078999999761,781.8213000000119,779.2398999999762,781.307800000012,782.3208000000119,782.8201999999881,782.8203000000119,784.2738000000119,1380.0,784.2738000000119,5.0,784.2741000000239,1.0,21.0,51.0,11.0,1.0,1.0,0.3,Time
,,S13,785063,1,male,23,anonymized,Serial_Dependence_U,2023.2.3,Win32,60.97560975609215,,,,,,784.2743999999761,188.0,1.0,784.2745,188.0,,,,788.0496999999881,788.549,787.5333999999762,788.0496000000238,785.2711000000238,787.5333000000119,788.549,789.0486999999881,789.0486999999881,790.6306999999881,1066.0,790.6306999999881,2.0,790.631,1.0,22.0,52.0,22.0,1.0,1.2,0.3,Time
,,S13,785063,1,male,23,anonymized,Serial_Dependence_U,2023.2.3,Win32,60.97560975609215,,,,,,790.6311000000238,68.0,1.0,790.631300000012,68.0,,,,794.827300000012,795.326199999988,794.311199999988,794.8271999999881,791.6463999999762,794.3111000000239,795.326199999988,795.8261000000239,795.8261000000239,797.6748000000119,1276.0,797.6748000000119,2.0,797.6751000000238,1.0,23.0,53.0,14.0,1.0,1.6,0.3,Time
,,S13,785063,1,male,23,anonymized,Serial_Dependence_U,2023.2.3,Win32,60.97560975609215,,,,,,797.6753000000119,298.0,1.0,797.6755,298.0,,,,801.6716000000239,802.1711000000239,801.1556000000238,801.6715,798.6908000000119,801.1556000000238,802.1711000000239,802.6706000000238,802.6706000000238,804.9908999999761,1781.0,804.9908999999761,4.0,804.9911999999881,1.0,24.0,54.0,23.0,1.0,1.4,0.3,Time
,,S13,785063,1,male,23,anonymized,Serial_Dependence_U,2023.2.3,Win32,60.97560975609215,,,,,,804.991800000012,237.0,1.0,804.9918999999761,237.0,,,,809.1823000000119,809.6813999999762,808.6661000000239,809.1821999999881,806.0013999999761,808.6661000000239,809.6815,810.1808999999762,810.1808999999762,812.7123999999761,1974.0,812.7123999999761,4.0,812.7125,1.0,25.0,55.0,4.0,1.0,1.6,0.3,Time
,,S13,785063,1,male,23,anonymized,Serial_Dependence_U,2023.2.3,Win32,60.97560975609215,,,,,,812.7128999999761,185.0,1.0,812.713,185.0,,,,816.875800000012,817.3751999999881,816.359699999988,816.8756999999881,813.7283000000119,816.359699999988,817.3751999999881,817.874199999988,817.874199999988,831.9013000000119,2091.0,831.9013000000119,5.0,831.9015,1.0,26.0,56.0,19.0,1.0,1.6,0.7,Time
,,S13,785063,1,male,23,anonymized,Serial_Dependence_U,2023.2.3,Win32,60.97560975609215,,,,,,831.9018000000119,162.0,1.0,831.9018999999762,162.0,,,,835.2938999999761,835.7933999999761,834.7816999999881,835.293800000012,832.912699999988,834.7816999999881,835.7933999999761,836.293300000012,836.293300000012,837.8466999999881,1017.0,837.846800000012,4.0,837.847,1.0,27.0,57.0,10.0,1.0,0.8,0.3,Time
,,S13,785063,1,male,23,anonymized,Serial_Dependence_U,2023.2.3,Win32,60.97560975609215,,,,,,837.8471999999881,102.0,1.0,837.8475,102.0,,,,841.6388000000119,842.138199999988,841.1226000000238,841.638699999988,838.8576000000238,841.1225000000001,842.1383000000119,842.6373000000119,842.6373999999762,845.0696000000238,1248.0,845.0696000000238,3.0,845.0698000000119,1.0,28.0,58.0,12.0,1.0,1.2,0.3,Time
,,S13,785063,1,male,23,anonymized,Serial_Dependence_U,2023.2.3,Win32,60.97560975609215,,,,,,845.0701999999881,307.0,1.0,845.0701999999881,307.0,,,,848.6663999999762,849.1658000000119,848.1503999999761,848.6663000000119,846.0855,848.1501999999881,849.1658000000119,849.6651999999881,849.6651999999881,851.785,1448.0,851.785,5.0,851.7853999999762,1.0,29.0,59.0,21.0,1.0,1.0,0.3,Time
,,S13,785063,1,male,23,anonymized,Serial_Dependence_U,2023.2.3,Win32,60.97560975609215,,,,,,851.7858000000119,68.0,2.0,868.8826999999881,68.0,s,17.081999999999994,,872.6796000000238,873.1786999999881,872.166699999988,872.6795,869.8991999999881,872.1666000000239,873.1786999999881,873.678800000012,873.678800000012,875.061199999988,1073.0,875.061199999988,2.0,875.0613999999762,2.0,0.0,60.0,22.0,1.0,1.2,0.3,Time
,,S13,785063,1,male,23,anonymized,Serial_Dependence_U,2023.2.3,Win32,60.97560975609215,,,,,,875.061699999988,215.0,2.0,875.0626999999881,215.0,,,,878.8246999999881,879.324,878.3086000000238,878.8246000000239,876.0771000000238,878.3085,879.324,879.8236000000238,879.8236000000238,881.6723000000119,1456.0,881.6723000000119,4.0,881.6725,2.0,1.0,61.0,17.0,1.0,1.2,0.7,Time
,,S13,785063,1,male,23,anonymized,Serial_Dependence_U,2023.2.3,Win32,60.97560975609215,,,,,,881.6728999999762,173.0,2.0,881.673,173.0,,,,885.8688999999762,886.3683000000119,885.3526999999881,885.8688000000119,882.6881999999881,885.3526999999881,886.3683000000119,886.8681000000239,886.8681999999881,889.2541000000239,1377.0,889.2541000000239,2.0,889.2543999999762,2.0,2.0,62.0,24.0,1.0,1.6,0.3,Time
,,S13,785063,1,male,23,anonymized,Serial_Dependence_U,2023.2.3,Win32,60.97560975609215,,,,,,889.2546999999881,160.0,2.0,889.2546999999881,160.0,,,,892.813800000012,893.3128999999761,892.2971000000239,892.8136999999881,890.265300000012,892.2971000000239,893.3128999999761,893.812,893.812,895.6441999999881,1337.0,895.644300000012,5.0,895.6446000000238,2.0,3.0,63.0,26.0,1.0,1.0,0.7,Time
,,S13,785063,1,male,23,anonymized,Serial_Dependence_U,2023.2.3,Win32,60.97560975609215,,,,,,895.645,347.0,2.0,895.6451999999881,347.0,,,,899.0085,899.5076000000239,898.492,899.0083999999762,896.660300000012,898.4918999999761,899.5076000000239,900.0073000000119,900.0073000000119,901.522800000012,980.0,901.522800000012,4.0,901.523,2.0,4.0,64.0,5.0,1.0,0.8,0.7,Time
,,S13,785063,1,male,23,anonymized,Serial_Dependence_U,2023.2.3,Win32,60.97560975609215,,,,,,901.523300000012,303.0,2.0,901.5233999999762,303.0,,,,905.086600000024,905.5858999999762,904.5705,905.086600000024,902.539199999988,904.5703999999762,905.5858999999762,906.085600000024,906.085600000024,908.2551000000238,1294.0,908.2551000000238,4.0,908.255300000012,2.0,5.0,65.0,16.0,1.0,1.0,0.7,Time
,,S13,785063,1,male,23,anonymized,Serial_Dependence_U,2023.2.3,Win32,60.97560975609215,,,,,,908.2556000000238,83.0,2.0,908.255800000012,83.0,,,,912.214100000024,912.7133999999762,911.6998999999762,912.214,909.266300000012,911.6998999999762,912.7135,913.213,913.213,915.598800000012,1853.0,915.5988999999762,5.0,915.599100000024,2.0,6.0,66.0,28.0,1.0,1.4,0.7,Time
,,S13,785063,1,male,23,anonymized,Serial_Dependence_U,2023.2.3,Win32,60.97560975609215,,,,,,915.599300000012,158.0,2.0,915.5995,158.0,,,,919.3916000000238,919.890699999988,918.875300000012,919.3916000000238,916.6105,918.8751000000238,919.890800000012,920.389899999976,920.389899999976,922.1268999999762,1261.0,922.1268999999762,4.0,922.127199999988,2.0,7.0,67.0,12.0,1.0,1.2,0.3,Time
,,S13,785063,1,male,23,anonymized,Serial_Dependence_U,2023.2.3,Win32,60.97560975609215,,,,,,922.127600000024,164.0,2.0,922.127699999988,164.0,,,,925.519800000012,926.019,925.003600000024,925.519699999988,923.138199999988,925.0035,926.019,926.518699999988,926.518699999988,927.667800000012,508.0,927.667800000012,1.0,927.668100000024,2.0,8.0,68.0,0.0,1.0,0.8,0.3,Time
,,S13,785063,1,male,23,anonymized,Serial_Dependence_U,2023.2.3,Win32,60.97560975609215,,,,,,927.668399999976,156.0,2.0,927.6686000000238,156.0,,,,931.034699999988,931.5315,930.515800000012,931.0345,928.683800000012,930.515699999988,931.5315,932.030800000012,932.030800000012,933.485,928.0,933.485,4.0,933.485199999988,2.0,9.0,69.0,15.0,1.0,0.8,0.7,Time
,,S13,785063,1,male,23,anonymized,Serial_Dependence_U,2023.2.3,Win32,60.97560975609215,,,,,,933.485699999988,134.0,2.0,933.485800000012,134.0,,,,937.476300000012,937.975899999976,936.960199999988,937.476199999988,934.495800000012,936.960100000024,937.975899999976,938.4753999999762,938.4755,940.312300000012,1355.0,940.312300000012,3.0,940.3126000000238,2.0,10.0,70.0,3.0,1.0,1.4,0.3,Time
,,S13,785063,1,male,23,anonymized,Serial_Dependence_U,2023.2.3,Win32,60.97560975609215,,,,,,940.312899999976,189.0,2.0,940.313,189.0,,,,943.704800000012,944.2041000000238,943.1885,943.704699999988,941.3236000000238,943.1885,944.204199999988,944.7036000000238,944.703699999988,946.522,1111.0,946.522100000024,5.0,946.5223999999762,2.0,11.0,71.0,10.0,1.0,0.8,0.3,Time
,,S13,785063,1,male,23,anonymized,Serial_Dependence_U,2023.2.3,Win32,60.97560975609215,,,,,,946.522600000024,253.0,2.0,946.522699999988,253.0,,,,950.515800000012,951.015,949.9993999999762,950.5156000000238,947.535,949.999300000012,951.0151000000238,951.5145,951.5146000000238,953.2511000000238,1463.0,953.251199999988,3.0,953.251399999976,2.0,12.0,72.0,23.0,1.0,1.4,0.3,Time
,,S13,785063,1,male,23,anonymized,Serial_Dependence_U,2023.2.3,Win32,60.97560975609215,,,,,,953.2516000000238,322.0,2.0,953.251800000012,322.0,,,,957.210199999988,957.709600000024,956.6941000000238,957.210100000024,954.2623999999762,956.694,957.709600000024,958.209,958.209,959.9448999999762,1547.0,959.9448999999762,4.0,959.945,2.0,13.0,73.0,8.0,1.0,1.4,0.7,Time
,,S13,785063,1,male,23,anonymized,Serial_Dependence_U,2023.2.3,Win32,60.97560975609215,,,,,,959.945300000012,74.0,2.0,959.9453999999762,74.0,,,,964.104300000012,964.604,963.588600000024,964.1041999999882,960.9571000000238,963.5885,964.604100000024,965.103399999976,965.1035,967.206600000024,1654.0,967.206699999988,3.0,967.207,2.0,14.0,74.0,29.0,1.0,1.6,0.7,Time
,,S13,785063,1,male,23,anonymized,Serial_Dependence_U,2023.2.3,Win32,60.97560975609215,,,,,,967.207399999976,305.0,2.0,967.2075,305.0,,,,970.7991000000238,971.298300000012,970.2828999999764,970.798899999976,968.2183000000118,970.282800000012,971.2983999999764,971.798,971.798,973.334399999976,800.0,973.334399999976,2.0,973.334699999988,2.0,15.0,75.0,21.0,1.0,1.0,0.3,Time
,,S13,785063,1,male,23,anonymized,Serial_Dependence_U,2023.2.3,Win32,60.97560975609215,,,,,,973.335,151.0,2.0,973.335100000024,151.0,,,,977.494199999988,977.992800000012,976.9773000000118,977.493899999976,974.346100000024,976.977199999988,977.992800000012,978.4921000000238,978.4921000000238,980.7241000000238,1788.0,980.7241000000238,4.0,980.724300000012,2.0,16.0,76.0,9.0,1.0,1.6,0.7,Time
,,S13,785063,1,male,23,anonymized,Serial_Dependence_U,2023.2.3,Win32,60.97560975609215,,,,,,980.7245,357.0,2.0,980.7246999999882,357.0,,,,984.9208999999762,985.420100000024,984.404600000024,984.920800000012,981.74,984.404600000024,985.420100000024,985.919800000012,985.919800000012,987.3016999999882,916.0,987.3016999999882,1.0,987.302,2.0,17.0,77.0,4.0,1.0,1.6,0.3,Time
,,S13,785063,1,male,23,anonymized,Serial_Dependence_U,2023.2.3,Win32,60.97560975609215,,,,,,987.302199999988,327.0,2.0,987.3023999999762,327.0,,,,990.8995,991.3985,990.382800000012,990.899399999976,988.317600000024,990.382800000012,991.3985,991.898199999988,991.898199999988,993.763300000012,1303.0,993.763300000012,5.0,993.7635,2.0,18.0,78.0,1.0,1.0,1.0,0.3,Time
,,S13,785063,1,male,23,anonymized,Serial_Dependence_U,2023.2.3,Win32,60.97560975609215,,,,,,993.764,200.0,2.0,993.764,200.0,,,,997.9266999999882,998.426,997.4105,997.926600000024,994.7793999999762,997.410399999976,998.426,998.925600000024,998.9256999999882,1001.2571999999882,1856.0,1001.2571999999882,4.0,1001.257399999976,2.0,19.0,79.0,19.0,1.0,1.6,0.7,Time
,,S13,785063,1,male,23,anonymized,Serial_Dependence_U,2023.2.3,Win32,60.97560975609215,,,,,,1001.257699999988,12.0,2.0,1001.2578999999762,12.0,,,,1005.020300000012,1005.520199999988,1004.504800000012,1005.020300000012,1002.273199999988,1004.504800000012,1005.520199999988,1006.02,1006.0201000000238,1008.0348999999762,1398.0,1008.035,4.0,1008.035199999988,2.0,20.0,80.0,27.0,1.0,1.2,0.7,Time
,,S13,785063,1,male,23,anonymized,Serial_Dependence_U,2023.2.3,Win32,60.97560975609215,,,,,,1008.035399999976,324.0,2.0,1008.035399999976,324.0,,,,1011.432,1011.931399999976,1010.916,1011.4318999999762,1009.051199999988,1010.915899999976,1011.931399999976,1012.431300000012,1012.431300000012,1014.346300000012,1066.0,1014.3463999999764,5.0,1014.346600000024,2.0,21.0,81.0,20.0,1.0,0.8,0.3,Time
,,S13,785063,1,male,23,anonymized,Serial_Dependence_U,2023.2.3,Win32,60.97560975609215,,,,,,1014.347,175.0,2.0,1014.347199999988,175.0,,,,1017.943600000024,1018.442800000012,1017.4273999999762,1017.9435,1015.3626000000238,1017.427300000012,1018.442899999976,1018.942699999988,1018.942800000012,1020.8908999999762,1186.0,1020.8908999999762,4.0,1020.891199999988,2.0,22.0,82.0,11.0,1.0,1.0,0.3,Time
,,S13,785063,1,male,23,anonymized,Serial_Dependence_U,2023.2.3,Win32,60.97560975609215,,,,,,1020.8916000000238,270.0,2.0,1020.891800000012,270.0,,,,1024.654899999976,1025.1541000000238,1024.138600000024,1024.6548000000118,1021.907,1024.1385,1025.154199999988,1025.653699999988,1025.653800000012,1027.3738999999762,1142.0,1027.374,3.0,1027.3741999999882,2.0,23.0,83.0,7.0,1.0,1.2,0.7,Time
,,S13,785063,1,male,23,anonymized,Serial_Dependence_U,2023.2.3,Win32,60.97560975609215,,,,,,1027.3745,321.0,2.0,1027.3745,321.0,,,,1031.366,1031.865300000012,1030.8496999999882,1031.365800000012,1028.385,1030.849600000024,1031.865300000012,1032.3646000000238,1032.364699999988,1034.362699999988,1553.0,1034.362699999988,4.0,1034.362800000012,2.0,24.0,84.0,13.0,1.0,1.4,0.3,Time
,,S13,785063,1,male,23,anonymized,Serial_Dependence_U,2023.2.3,Win32,60.97560975609215,,,,,,1034.363100000024,86.0,2.0,1034.3631999999882,86.0,,,,1037.7275,1038.2266000000238,1037.211100000024,1037.727399999976,1035.379199999988,1037.211100000024,1038.2266000000238,1038.726300000012,1038.726300000012,1040.279699999988,958.0,1040.2798000000118,4.0,1040.28,2.0,25.0,85.0,25.0,1.0,0.8,0.7,Time
,,S13,785063,1,male,23,anonymized,Serial_Dependence_U,2023.2.3,Win32,60.97560975609215,,,,,,1040.280300000012,165.0,2.0,1040.2803999999762,165.0,,,,1044.074,1044.5715,1043.5558999999762,1044.0738999999762,1041.291,1043.555699999988,1044.5715,1045.070800000012,1045.070800000012,1046.624300000012,1139.0,1046.6243999999765,2.0,1046.6246000000235,2.0,26.0,86.0,2.0,1.0,1.2,0.3,Time
,,S13,785063,1,male,23,anonymized,Serial_Dependence_U,2023.2.3,Win32,60.97560975609215,,,,,,1046.625,300.0,2.0,1046.625,300.0,,,,1050.816300000012,1051.3158999999762,1050.300199999988,1050.816300000012,1047.6358000000118,1050.3001000000238,1051.3158999999762,1051.8151999999882,1051.815300000012,1054.1135,1697.0,1054.1135,4.0,1054.113699999988,2.0,27.0,87.0,14.0,1.0,1.6,0.3,Time
,,S13,785063,1,male,23,anonymized,Serial_Dependence_U,2023.2.3,Win32,60.97560975609215,,,,,,1054.114,188.0,2.0,1054.114100000024,188.0,,,,1058.077,1058.5763999999765,1057.560899999976,1058.077,1055.129800000012,1057.560800000012,1058.5763999999765,1059.076100000024,1059.076100000024,1061.2243999999762,1736.0,1061.2243999999762,4.0,1061.224600000024,2.0,28.0,88.0,18.0,1.0,1.4,0.7,Time
,,S13,785063,1,male,23,anonymized,Serial_Dependence_U,2023.2.3,Win32,60.97560975609215,,,,,,1061.224899999976,204.0,2.0,1061.225,204.0,,,,1064.7885,1065.2876000000238,1064.272600000024,1064.788300000012,1062.240699999988,1064.2725,1065.2876000000238,1065.787300000012,1065.787300000012,1067.755699999988,1341.0,1067.755800000012,5.0,1067.7558999999762,2.0,29.0,89.0,6.0,1.0,1.0,0.7,Time
,,S13,785063,1,male,23,anonymized,Serial_Dependence_U,2023.2.3,Win32,60.97560975609215,,,,,,1067.756100000024,357.0,3.0,1114.214199999988,357.0,s,46.43100000000004,,1118.1778999999765,1118.6771000000238,1117.661,1118.177800000012,1115.23,1117.6608999999762,1118.6771000000238,1119.1766999999882,1119.1766999999882,1121.229399999976,1530.0,1121.2295,4.0,1121.229800000012,3.0,0.0,90.0,18.0,1.0,1.4,0.7,Time
,,S13,785063,1,male,23,anonymized,Serial_Dependence_U,2023.2.3,Win32,60.97560975609215,,,,,,1121.230100000024,311.0,3.0,1121.231199999988,311.0,,,,1124.7891000000238,1125.288300000012,1124.2726999999882,1124.788899999976,1122.241,1124.2725,1125.288300000012,1125.7875,1125.7875,1127.4405,1097.0,1127.4406000000238,4.0,1127.4408999999762,3.0,1.0,91.0,16.0,1.0,1.0,0.7,Time
,,S13,785063,1,male,23,anonymized,Serial_Dependence_U,2023.2.3,Win32,60.97560975609215,,,,,,1127.4411999999882,72.0,3.0,1127.441300000012,72.0,,,,1131.6365,1132.1321999999882,1131.118600000024,1131.6363999999762,1128.4528000000118,1131.118600000024,1132.132300000012,1132.631699999988,1132.631699999988,1134.3851000000238,1378.0,1134.3851000000238,2.0,1134.385300000012,3.0,2.0,92.0,4.0,1.0,1.6,0.3,Time
,,S13,785063,1,male,23,anonymized,Serial_Dependence_U,2023.2.3,Win32,60.97560975609215,,,,,,1134.3855,138.0,3.0,1134.385699999988,138.0,,,,1138.544199999988,1139.043399999976,1138.030899999976,1138.544100000024,1135.3966999999882,1138.0308000000118,1139.043399999976,1139.543300000012,1139.543300000012,1141.5785,1671.0,1141.5785,3.0,1141.578699999988,3.0,3.0,93.0,29.0,1.0,1.6,0.7,Time
,,S13,785063,1,male,23,anonymized,Serial_Dependence_U,2023.2.3,Win32,60.97560975609215,,,,,,1141.578899999976,263.0,3.0,1141.578899999976,263.0,,,,1145.371800000012,1145.871199999988,1144.860199999988,1145.371699999988,1142.5908999999765,1144.86,1145.871199999988,1146.371100000024,1146.371199999988,1148.157199999988,1408.0,1148.157300000012,4.0,1148.157600000024,3.0,4.0,94.0,22.0,1.0,1.2,0.3,Time
,,S13,785063,1,male,23,anonymized,Serial_Dependence_U,2023.2.3,Win32,60.97560975609215,,,,,,1148.158,311.0,3.0,1148.1581000000238,311.0,,,,1152.3166000000238,1152.8151999999882,1151.800199999988,1152.3165,1149.168800000012,1151.8001000000238,1152.815300000012,1153.3151999999882,1153.3151999999882,1155.8168999999762,2106.0,1155.8168999999762,5.0,1155.817100000024,3.0,5.0,95.0,9.0,1.0,1.6,0.7,Time
,,S13,785063,1,male,23,anonymized,Serial_Dependence_U,2023.2.3,Win32,60.97560975609215,,,,,,1155.8173999999765,240.0,3.0,1155.8175,240.0,,,,1159.577,1160.0763999999765,1159.0603999999762,1159.576899999976,1156.829,1159.060300000012,1160.0763999999765,1160.5758999999762,1160.5758999999762,1163.0071999999882,1672.0,1163.0071999999882,5.0,1163.007399999976,3.0,6.0,96.0,7.0,1.0,1.2,0.7,Time
,,S13,785063,1,male,23,anonymized,Serial_Dependence_U,2023.2.3,Win32,60.97560975609215,,,,,,1163.0076000000238,340.0,3.0,1163.007699999988,340.0,,,,1166.804199999988,1167.303399999976,1166.288800000012,1166.804100000024,1164.023,1166.288699999988,1167.303399999976,1167.803199999988,1167.803199999988,1169.9725,1825.0,1169.9725,5.0,1169.972699999988,3.0,7.0,97.0,2.0,1.0,1.2,0.3,Time
,,S13,785063,1,male,23,anonymized,Serial_Dependence_U,2023.2.3,Win32,60.97560975609215,,,,,,1169.973,288.0,3.0,1169.9731000000238,288.0,,,,1174.131699999988,1174.630800000012,1173.6201000000235,1174.1315,1170.971199999988,1173.62,1174.6308999999762,1175.130300000012,1175.130300000012,1177.283,1820.0,1177.2831000000238,4.0,1177.283300000012,3.0,8.0,98.0,19.0,1.0,1.6,0.7,Time
,,S13,785063,1,male,23,anonymized,Serial_Dependence_U,2023.2.3,Win32,60.97560975609215,,,,,,1177.2835,269.0,3.0,1177.283699999988,269.0,,,,1180.842699999988,1181.342,1180.326699999988,1180.8426000000238,1178.295100000024,1180.3265,1181.342,1181.841300000012,1181.841399999976,1183.3785,1111.0,1183.3785,4.0,1183.378800000012,3.0,9.0,99.0,6.0,1.0,1.0,0.7,Time
,,S13,785063,1,male,23,anonymized,Serial_Dependence_U,2023.2.3,Win32,60.97560975609215,,,,,,1183.3791000000238,167.0,3.0,1183.379300000012,167.0,,,,1187.3708999999762,1187.8698999999765,1186.8548999999762,1187.370800000012,1184.3898999999765,1186.854800000012,1187.87,1188.369600000024,1188.369699999988,1191.233800000012,1247.0,1191.233800000012,2.0,1191.234,3.0,10.0,100.0,23.0,1.0,1.4,0.3,Time
,,S13,785063,1,male,23,anonymized,Serial_Dependence_U,2023.2.3,Win32,60.97560975609215,,,,,,1191.234300000012,254.0,3.0,1191.2345,254.0,,,,1194.598,1195.097199999988,1194.081600000024,1194.597899999976,1192.250199999988,1194.0815,1195.097199999988,1195.597,1195.597,1197.4455,1065.0,1197.4455,5.0,1197.445800000012,3.0,11.0,101.0,15.0,1.0,0.8,0.7,Time
,,S13,785063,1,male,23,anonymized,Serial_Dependence_U,2023.2.3,Win32,60.97560975609215,,,,,,1197.4461000000238,308.0,3.0,1197.446300000012,308.0,,,,1200.8093999999762,1201.3091000000238,1200.293399999976,1200.8093999999762,1198.461600000024,1200.293300000012,1201.3091000000238,1201.808199999988,1201.808199999988,1203.5621000000235,811.0,1203.562199999988,3.0,1203.5623999999762,3.0,12.0,102.0,25.0,1.0,0.8,0.7,Time
,,S13,785063,1,male,23,anonymized,Serial_Dependence_U,2023.2.3,Win32,60.97560975609215,,,,,,1203.562699999988,327.0,3.0,1203.562800000012,327.0,,,,1207.5538999999762,1208.053399999976,1207.041800000012,1207.5538999999762,1204.5736000000238,1207.0416999999882,1208.0535,1208.553,1208.553,1210.572399999976,1529.0,1210.5725,4.0,1210.572699999988,3.0,13.0,103.0,3.0,1.0,1.4,0.3,Time
,,S13,785063,1,male,23,anonymized,Serial_Dependence_U,2023.2.3,Win32,60.97560975609215,,,,,,1210.573,19.0,3.0,1210.573199999988,19.0,,,,1214.331600000024,1214.830800000012,1213.815699999988,1214.3315,1211.584,1213.8156000000238,1214.830800000012,1215.330600000024,1215.330600000024,1217.0333999999762,1334.0,1217.0333999999762,4.0,1217.0335,3.0,14.0,104.0,27.0,1.0,1.2,0.7,Time
,,S13,785063,1,male,23,anonymized,Serial_Dependence_U,2023.2.3,Win32,60.97560975609215,,,,,,1217.033699999988,37.0,3.0,1217.033800000012,37.0,,,,1220.393100000024,1220.892399999976,1219.877600000024,1220.393100000024,1218.0455,1219.8775,1220.892399999976,1221.392300000012,1221.392399999976,1223.078899999976,1077.0,1223.079,5.0,1223.079199999988,3.0,15.0,105.0,5.0,1.0,0.8,0.7,Time
,,S13,785063,1,male,23,anonymized,Serial_Dependence_U,2023.2.3,Win32,60.97560975609215,,,,,,1223.079600000024,233.0,3.0,1223.0796999999882,233.0,,,,1226.855100000024,1227.353800000012,1226.3386999999882,1226.855,1224.093399999976,1226.3386999999882,1227.353800000012,1227.853800000012,1227.8538999999762,1229.7905,1229.0,1229.7905,3.0,1229.7906999999882,3.0,16.0,106.0,17.0,1.0,1.2,0.7,Time
,,S13,785063,1,male,23,anonymized,Serial_Dependence_U,2023.2.3,Win32,60.97560975609215,,,,,,1229.791,122.0,3.0,1229.791199999988,122.0,,,,1233.7351000000235,1234.231600000024,1233.233300000012,1233.7351000000235,1230.8016999999882,1233.2331000000238,1234.231600000024,1234.7313999999762,1234.7313999999762,1236.796399999976,1578.0,1236.7965,4.0,1236.796699999988,3.0,17.0,107.0,8.0,1.0,1.4,0.7,Time
,,S13,785063,1,male,23,anonymized,Serial_Dependence_U,2023.2.3,Win32,60.97560975609215,,,,,,1236.7968999999762,272.0,3.0,1236.797100000024,272.0,,,,1240.393699999988,1240.892800000012,1239.8773999999762,1240.3935,1237.812199999988,1239.877300000012,1240.892800000012,1241.3921999999882,1241.392300000012,1243.5238999999765,1396.0,1243.5238999999765,5.0,1243.524,3.0,18.0,108.0,1.0,1.0,1.0,0.3,Time
,,S13,785063,1,male,23,anonymized,Serial_Dependence_U,2023.2.3,Win32,60.97560975609215,,,,,,1243.524300000012,149.0,3.0,1243.524300000012,149.0,,,,1246.9215,1247.420699999988,1246.405199999988,1246.921399999976,1244.540199999988,1246.4051000000238,1247.420699999988,1247.9205,1247.9205,1249.2695,937.0,1249.269600000024,4.0,1249.269800000012,3.0,19.0,109.0,20.0,1.0,0.8,0.3,Time
,,S13,785063,1,male,23,anonymized,Serial_Dependence_U,2023.2.3,Win32,60.97560975609215,,,,,,1249.27,203.0,3.0,1249.2701000000238,203.0,,,,1252.6666999999882,1253.166,1252.154,1252.666600000024,1250.2855,1252.153899999976,1253.1661000000238,1253.6656999999882,1253.6656999999882,1255.067,656.0,1255.067100000024,2.0,1255.067300000012,3.0,20.0,110.0,10.0,1.0,0.8,0.3,Time
,,S13,785063,1,male,23,anonymized,Serial_Dependence_U,2023.2.3,Win32,60.97560975609215,,,,,,1255.0675,68.0,3.0,1255.0675,68.0,,,,1258.628600000024,1259.127899999976,1258.1123000000118,1258.6283999999762,1256.080800000012,1258.112199999988,1259.127899999976,1259.627600000024,1259.6276999999882,1261.725600000024,1579.0,1261.725600000024,5.0,1261.725800000012,3.0,21.0,111.0,26.0,1.0,1.0,0.7,Time
,,S13,785063,1,male,23,anonymized,Serial_Dependence_U,2023.2.3,Win32,60.97560975609215,,,,,,1261.726,48.0,3.0,1261.726199999988,48.0,,,,1265.3233000000118,1265.822199999988,1264.807,1265.323199999988,1262.742,1264.807,1265.822199999988,1266.3218999999765,1266.3218999999765,1267.821199999988,1007.0,1267.821199999988,3.0,1267.8215,3.0,22.0,112.0,11.0,1.0,1.0,0.3,Time
,,S13,785063,1,male,23,anonymized,Serial_Dependence_U,2023.2.3,Win32,60.97560975609215,,,,,,1267.821699999988,68.0,3.0,1267.821800000012,68.0,,,,1271.218,1271.717,1270.7051000000238,1271.217800000012,1268.836600000024,1270.705,1271.717100000024,1272.216699999988,1272.216699999988,1273.982300000012,1097.0,1273.9823999999762,5.0,1273.982600000024,3.0,23.0,113.0,0.0,1.0,0.8,0.3,Time
,,S13,785063,1,male,23,anonymized,Serial_Dependence_U,2023.2.3,Win32,60.97560975609215,,,,,,1273.9826999999882,82.0,3.0,1273.982899999976,82.0,,,,1277.946,1278.4453999999762,1277.4301999999882,1277.945899999976,1274.9986000000238,1277.43,1278.4453999999762,1278.944899999976,1278.945,1281.126199999988,1759.0,1281.126300000012,4.0,1281.1265,3.0,24.0,114.0,28.0,1.0,1.4,0.7,Time
,,S13,785063,1,male,23,anonymized,Serial_Dependence_U,2023.2.3,Win32,60.97560975609215,,,,,,1281.126600000024,206.0,3.0,1281.1268000000118,206.0,,,,1284.9235,1285.422699999988,1284.4076999999882,1284.923300000012,1282.1455,1284.4075,1285.422800000012,1285.9223999999765,1285.9223999999765,1287.741600000024,1375.0,1287.741600000024,4.0,1287.7418000000118,3.0,25.0,115.0,12.0,1.0,1.2,0.3,Time
,,S13,785063,1,male,23,anonymized,Serial_Dependence_U,2023.2.3,Win32,60.97560975609215,,,,,,1287.741899999976,279.0,3.0,1287.7421000000238,279.0,,,,1291.9346999999882,1292.433600000024,1291.420800000012,1291.934600000024,1288.7533999999762,1291.420699999988,1292.433699999988,1292.9335,1292.9335,1295.331,1879.0,1295.3311000000238,4.0,1295.331199999988,3.0,26.0,116.0,14.0,1.0,1.6,0.3,Time
,,S13,785063,1,male,23,anonymized,Serial_Dependence_U,2023.2.3,Win32,60.97560975609215,,,,,,1295.3315,178.0,3.0,1295.3315,178.0,,,,1299.528300000012,1300.0275,1299.012199999988,1299.528300000012,1296.348,1299.0121000000238,1300.0276000000238,1300.5271999999882,1300.527300000012,1302.9751000000238,1998.0,1302.975199999988,4.0,1302.9755,3.0,27.0,117.0,24.0,1.0,1.6,0.3,Time
,,S13,785063,1,male,23,anonymized,Serial_Dependence_U,2023.2.3,Win32,60.97560975609215,,,,,,1302.975699999988,345.0,3.0,1302.975800000012,345.0,,,,1306.972,1307.4713999999765,1306.460399999976,1306.971800000012,1303.991300000012,1306.460300000012,1307.4713999999765,1307.971100000024,1307.971199999988,1309.7075,1315.0,1309.7075,2.0,1309.707800000012,3.0,28.0,118.0,13.0,1.0,1.4,0.3,Time
,,S13,785063,1,male,23,anonymized,Serial_Dependence_U,2023.2.3,Win32,60.97560975609215,,,,,,1309.708100000024,74.0,3.0,1309.7083000000118,74.0,,,,1313.283600000024,1313.7828999999765,1312.767399999976,1313.2835,1310.702899999976,1312.767399999976,1313.783,1314.2825,1314.282600000024,1315.7813999999762,983.0,1315.7813999999762,3.0,1315.781600000024,3.0,29.0,119.0,21.0,1.0,1.0,0.3,Time
,,S13,785063,1,male,23,anonymized,Serial_Dependence_U,2023.2.3,Win32,60.97560975609215,,,,,,1315.781899999976,328.0,4.0,1407.9886000000238,328.0,s,92.17639999997618,,1411.7858999999762,1412.285,1411.269699999988,1411.785800000012,1409.004800000012,1411.269600000024,1412.285100000024,1412.784699999988,1412.784800000012,1414.454199999988,1231.0,1414.454300000012,3.0,1414.4545,4.0,0.0,120.0,22.0,1.0,1.2,0.3,Time
,,S13,785063,1,male,23,anonymized,Serial_Dependence_U,2023.2.3,Win32,60.97560975609215,,,,,,1414.454800000012,10.0,4.0,1414.4555,10.0,,,,1418.0468999999762,1418.5465,1417.5311000000238,1418.046800000012,1415.4661000000235,1417.531,1418.5465,1419.0461999999882,1419.0461999999882,1420.644699999988,1160.0,1420.644699999988,4.0,1420.645,4.0,1.0,121.0,21.0,1.0,1.0,0.3,Time
,,S13,785063,1,male,23,anonymized,Serial_Dependence_U,2023.2.3,Win32,60.97560975609215,,,,,,1420.645300000012,34.0,4.0,1420.6455,34.0,,,,1424.6418999999762,1425.141199999988,1424.1258000000118,1424.641800000012,1421.6608999999762,1424.125699999988,1425.141199999988,1425.641,1425.641,1427.2396000000238,1156.0,1427.239699999988,2.0,1427.2398999999762,4.0,2.0,122.0,3.0,1.0,1.4,0.3,Time
,,S13,785063,1,male,23,anonymized,Serial_Dependence_U,2023.2.3,Win32,60.97560975609215,,,,,,1427.240199999988,47.0,4.0,1427.240300000012,47.0,,,,1431.0366000000238,1431.5358999999762,1430.520600000024,1431.0365,1428.255399999976,1430.5205,1431.5358999999762,1432.035699999988,1432.035800000012,1433.634300000012,1217.0,1433.634300000012,3.0,1433.6345,4.0,3.0,123.0,12.0,1.0,1.2,0.3,Time
,,S13,785063,1,male,23,anonymized,Serial_Dependence_U,2023.2.3,Win32,60.97560975609215,,,,,,1433.634899999976,103.0,4.0,1433.635,103.0,,,,1437.198800000012,1437.6976000000238,1436.6818999999762,1437.198699999988,1434.6503000000118,1436.681800000012,1437.6976000000238,1438.197199999988,1438.197199999988,1439.8791000000238,1188.0,1439.8791000000238,4.0,1439.879300000012,4.0,4.0,124.0,16.0,1.0,1.0,0.7,Time
,,S13,785063,1,male,23,anonymized,Serial_Dependence_U,2023.2.3,Win32,60.97560975609215,,,,,,1439.8795,289.0,4.0,1439.879600000024,289.0,,,,1443.8433000000118,1444.3418999999762,1443.326699999988,1443.843100000024,1440.8955,1443.3265,1444.342,1444.841300000012,1444.841300000012,1446.828,1594.0,1446.828,4.0,1446.828199999988,4.0,5.0,125.0,28.0,1.0,1.4,0.7,Time
,,S13,785063,1,male,23,anonymized,Serial_Dependence_U,2023.2.3,Win32,60.97560975609215,,,,,,1446.8285,15.0,4.0,1446.828699999988,15.0,,,,1450.2206000000238,1450.720100000024,1449.7045,1450.2206000000238,1447.8393999999762,1449.7043999999762,1450.7201999999882,1451.219800000012,1451.219800000012,1452.568600000024,864.0,1452.568699999988,4.0,1452.568899999976,4.0,6.0,126.0,20.0,1.0,0.8,0.3,Time
,,S13,785063,1,male,23,anonymized,Serial_Dependence_U,2023.2.3,Win32,60.97560975609215,,,,,,1452.569300000012,184.0,4.0,1452.5693999999762,184.0,,,,1455.932899999976,1456.4318999999762,1455.416300000012,1455.932800000012,1453.5846000000238,1455.416300000012,1456.4318999999762,1456.9315,1456.9315,1458.4356999999882,1081.0,1458.4356999999882,5.0,1458.435899999976,4.0,7.0,127.0,25.0,1.0,0.8,0.7,Time
,,S13,785063,1,male,23,anonymized,Serial_Dependence_U,2023.2.3,Win32,60.97560975609215,,,,,,1458.436199999988,73.0,4.0,1458.4365,73.0,,,,1462.4275,1462.926600000024,1461.9111999999882,1462.4273999999762,1459.446699999988,1461.911,1462.9266999999882,1463.426300000012,1463.426300000012,1465.807800000012,1699.0,1465.807899999976,4.0,1465.808,4.0,8.0,128.0,23.0,1.0,1.4,0.3,Time
,,S13,785063,1,male,23,anonymized,Serial_Dependence_U,2023.2.3,Win32,60.97560975609215,,,,,,1465.808199999988,307.0,4.0,1465.808300000012,307.0,,,,1469.571800000012,1470.0706999999882,1469.055300000012,1469.571800000012,1466.8236000000238,1469.055100000024,1470.0706999999882,1470.570199999988,1470.570199999988,1472.951300000012,1853.0,1472.951300000012,5.0,1472.9515,4.0,9.0,129.0,17.0,1.0,1.2,0.7,Time
,,S13,785063,1,male,23,anonymized,Serial_Dependence_U,2023.2.3,Win32,60.97560975609215,,,,,,1472.951899999976,168.0,4.0,1472.951899999976,168.0,,,,1476.715800000012,1477.215,1476.1993000000118,1476.715699999988,1473.9678999999762,1476.1993000000118,1477.2151000000238,1477.714300000012,1477.714300000012,1479.5848999999762,1515.0,1479.5848999999762,4.0,1479.585100000024,4.0,10.0,130.0,27.0,1.0,1.2,0.7,Time
,,S13,785063,1,male,23,anonymized,Serial_Dependence_U,2023.2.3,Win32,60.97560975609215,,,,,,1479.5856000000238,249.0,4.0,1479.585699999988,249.0,,,,1482.944,1483.4433999999762,1482.432199999988,1482.943899999976,1480.5958999999762,1482.432100000024,1483.4433999999762,1483.9425,1483.942600000024,1485.48,1138.0,1485.48,5.0,1485.480199999988,4.0,11.0,131.0,15.0,1.0,0.8,0.7,Time
,,S13,785063,1,male,23,anonymized,Serial_Dependence_U,2023.2.3,Win32,60.97560975609215,,,,,,1485.4805,109.0,4.0,1485.480699999988,109.0,,,,1489.638,1490.137600000024,1489.122,1489.637899999976,1486.490800000012,1489.1218999999762,1490.1376999999882,1490.637,1490.637,1493.0891000000238,1880.0,1493.0891000000238,4.0,1493.089300000012,4.0,12.0,132.0,9.0,1.0,1.6,0.7,Time
,,S13,785063,1,male,23,anonymized,Serial_Dependence_U,2023.2.3,Win32,60.97560975609215,,,,,,1493.0893999999762,307.0,4.0,1493.0895,307.0,,,,1496.4823999999762,1496.981899999976,1495.966399999976,1496.482300000012,1494.1016000000238,1495.966300000012,1496.981899999976,1497.4818000000118,1497.4818000000118,1498.885199999988,1014.0,1498.885199999988,4.0,1498.8853999999762,4.0,13.0,133.0,10.0,1.0,0.8,0.3,Time
,,S13,785063,1,male,23,anonymized,Serial_Dependence_U,2023.2.3,Win32,60.97560975609215,,,,,,1498.885699999988,242.0,4.0,1498.885699999988,242.0,,,,1503.0773999999765,1503.576800000012,1502.561300000012,1503.077199999988,1499.8966999999882,1502.5611000000238,1503.576899999976,1504.0758999999762,1504.076,1506.545399999976,1798.0,1506.5455,4.0,1506.545699999988,4.0,14.0,134.0,14.0,1.0,1.6,0.3,Time
,,S13,785063,1,male,23,anonymized,Serial_Dependence_U,2023.2.3,Win32,60.97560975609215,,,,,,1506.5458999999762,272.0,4.0,1506.5458999999762,272.0,,,,1509.938399999976,1510.437699999988,1509.421800000012,1509.9383000000118,1507.556800000012,1509.421800000012,1510.437699999988,1510.936800000012,1510.9368999999765,1512.740199999988,1131.0,1512.740199999988,5.0,1512.7403999999765,4.0,15.0,135.0,0.0,1.0,0.8,0.3,Time
,,S13,785063,1,male,23,anonymized,Serial_Dependence_U,2023.2.3,Win32,60.97560975609215,,,,,,1512.740699999988,302.0,4.0,1512.740800000012,302.0,,,,1516.299600000024,1516.798899999976,1515.783600000024,1516.2995,1513.751699999988,1515.7835,1516.799,1517.298800000012,1517.298800000012,1519.2015,1464.0,1519.2015,5.0,1519.201699999988,4.0,16.0,136.0,26.0,1.0,1.0,0.7,Time
,,S13,785063,1,male,23,anonymized,Serial_Dependence_U,2023.2.3,Win32,60.97560975609215,,,,,,1519.202,295.0,4.0,1519.202,295.0,,,,1523.393800000012,1523.8931999999882,1522.8773999999762,1523.393800000012,1520.2131000000238,1522.877300000012,1523.8931999999882,1524.392800000012,1524.3928999999762,1526.957699999988,2148.0,1526.957800000012,5.0,1526.958199999988,4.0,17.0,137.0,24.0,1.0,1.6,0.3,Time
,,S13,785063,1,male,23,anonymized,Serial_Dependence_U,2023.2.3,Win32,60.97560975609215,,,,,,1526.958399999976,307.0,4.0,1526.9586000000238,307.0,,,,1530.5548999999762,1531.054100000024,1530.0383999999765,1530.554800000012,1527.973300000012,1530.038300000012,1531.054100000024,1531.5535,1531.5535,1532.952699999988,983.0,1532.9528000000118,3.0,1532.952899999976,4.0,18.0,138.0,11.0,1.0,1.0,0.3,Time
,,S13,785063,1,male,23,anonymized,Serial_Dependence_U,2023.2.3,Win32,60.97560975609215,,,,,,1532.953199999988,130.0,4.0,1532.953300000012,130.0,,,,1536.7165,1537.2153999999762,1536.2001999999882,1536.716300000012,1533.9681999999882,1536.200100000024,1537.2153999999762,1537.715,1537.715,1539.830300000012,1763.0,1539.8303999999762,5.0,1539.8305,4.0,19.0,139.0,7.0,1.0,1.2,0.7,Time
,,S13,785063,1,male,23,anonymized,Serial_Dependence_U,2023.2.3,Win32,60.97560975609215,,,,,,1539.830899999976,333.0,4.0,1539.831,333.0,,,,1543.194199999988,1543.6933999999762,1542.678100000024,1543.1941000000238,1540.846100000024,1542.678,1543.6933999999762,1544.1931000000238,1544.193199999988,1545.442100000024,859.0,1545.442199999988,4.0,1545.4423999999765,4.0,20.0,140.0,5.0,1.0,0.8,0.7,Time
,,S13,785063,1,male,23,anonymized,Serial_Dependence_U,2023.2.3,Win32,60.97560975609215,,,,,,1545.442699999988,256.0,4.0,1545.442899999976,256.0,,,,1549.6056000000235,1550.104800000012,1549.089300000012,1549.6056000000235,1546.458199999988,1549.089300000012,1550.104800000012,1550.6045,1550.6045,1553.3191000000238,2101.0,1553.3191000000238,5.0,1553.3193999999762,4.0,21.0,141.0,29.0,1.0,1.6,0.7,Time
,,S13,785063,1,male,23,anonymized,Serial_Dependence_U,2023.2.3,Win32,60.97560975609215,,,,,,1553.319899999976,305.0,4.0,1553.319899999976,305.0,,,,1556.883,1557.382,1556.366899999976,1556.8828999999762,1554.335100000024,1556.3668000000118,1557.382,1557.8816000000238,1557.8816000000238,1559.364,1091.0,1559.364,4.0,1559.364100000024,4.0,22.0,142.0,6.0,1.0,1.0,0.7,Time
,,S13,785063,1,male,23,anonymized,Serial_Dependence_U,2023.2.3,Win32,60.97560975609215,,,,,,1559.364399999976,142.0,4.0,1559.3645,142.0,,,,1563.327699999988,1563.826800000012,1562.8115,1563.327600000024,1560.380300000012,1562.811300000012,1563.826800000012,1564.326300000012,1564.3263999999765,1566.3463999999765,1624.0,1566.3465,4.0,1566.346899999976,4.0,23.0,143.0,8.0,1.0,1.4,0.7,Time
,,S13,785063,1,male,23,anonymized,Serial_Dependence_U,2023.2.3,Win32,60.97560975609215,,,,,,1566.347199999988,1.0,4.0,1566.347300000012,1.0,,,,1569.9388999999762,1570.438,1569.4226000000235,1569.938800000012,1567.3575,1569.4225,1570.438,1570.937800000012,1570.9378999999765,1572.6528999999762,1279.0,1572.653,4.0,1572.653199999988,4.0,24.0,144.0,1.0,1.0,1.0,0.3,Time
,,S13,785063,1,male,23,anonymized,Serial_Dependence_U,2023.2.3,Win32,60.97560975609215,,,,,,1572.6533999999765,252.0,4.0,1572.6535,252.0,,,,1576.816300000012,1577.316,1576.3003999999762,1576.8161999999882,1573.669100000024,1576.300300000012,1577.316,1577.815399999976,1577.815399999976,1578.7816999999882,482.0,1578.781800000012,1.0,1578.781899999976,4.0,25.0,145.0,19.0,1.0,1.6,0.7,Time
,,S13,785063,1,male,23,anonymized,Serial_Dependence_U,2023.2.3,Win32,60.97560975609215,,,,,,1578.782300000012,240.0,4.0,1578.782300000012,240.0,,,,1582.977800000012,1583.4776000000238,1582.462,1582.977800000012,1579.7973999999765,1582.461899999976,1583.4776000000238,1583.977100000024,1583.977199999988,1586.3963999999762,1681.0,1586.3963999999762,4.0,1586.3966999999882,4.0,26.0,146.0,4.0,1.0,1.6,0.3,Time
,,S13,785063,1,male,23,anonymized,Serial_Dependence_U,2023.2.3,Win32,60.97560975609215,,,,,,1586.397,165.0,4.0,1586.397199999988,165.0,,,,1590.3555,1590.8545,1589.8431999999882,1590.3555,1587.407600000024,1589.843100000024,1590.8545,1591.3541999999882,1591.354300000012,1594.7063999999762,1648.0,1594.7063999999762,4.0,1594.706699999988,4.0,27.0,147.0,18.0,1.0,1.4,0.7,Time
,,S13,785063,1,male,23,anonymized,Serial_Dependence_U,2023.2.3,Win32,60.97560975609215,,,,,,1594.707,235.0,4.0,1594.707100000024,235.0,,,,1598.4986000000238,1598.998,1597.982199999988,1598.4985,1595.7175,1597.982,1598.998,1599.4976000000238,1599.4976000000238,1602.061800000012,1398.0,1602.061800000012,4.0,1602.062,4.0,28.0,148.0,2.0,1.0,1.2,0.3,Time
,,S13,785063,1,male,23,anonymized,Serial_Dependence_U,2023.2.3,Win32,60.97560975609215,,,,,,1602.062199999988,342.0,4.0,1602.062199999988,342.0,,,,1606.0591000000238,1606.558300000012,1605.543,1606.059,1603.082,1605.5428999999765,1606.558300000012,1607.0581000000238,1607.058199999988,1614.651399999976,1227.0,1614.651399999976,2.0,1614.651699999988,4.0,29.0,149.0,13.0,1.0,1.4,0.3,Time
,,S13,785063,1,male,23,anonymized,Serial_Dependence_U,2023.2.3,Win32,60.97560975609215,,,,,,1614.6518999999762,173.0,5.0,1690.755699999988,173.0,s,76.07179999995242,,1694.9521000000238,1695.451800000012,1694.4363999999762,1694.952,1691.771600000024,1694.436300000012,1695.451899999976,1695.951300000012,1695.9513999999765,1697.9833999999762,1606.0,1697.9833999999762,3.0,1697.9836999999882,5.0,0.0,150.0,14.0,1.0,1.6,0.3,Time
,,S13,785063,1,male,23,anonymized,Serial_Dependence_U,2023.2.3,Win32,60.97560975609215,,,,,,1697.9841000000238,241.0,5.0,1697.985300000012,241.0,,,,1701.7475,1702.245699999988,1701.230699999988,1701.747399999976,1698.999300000012,1701.230699999988,1702.245800000012,1702.745399999976,1702.745399999976,1704.826899999976,1699.0,1704.826899999976,5.0,1704.827199999988,5.0,1.0,151.0,27.0,1.0,1.2,0.7,Time
,,S13,785063,1,male,23,anonymized,Serial_Dependence_U,2023.2.3,Win32,60.97560975609215,,,,,,1704.8273999999765,170.0,5.0,1704.8275,170.0,,,,1708.791,1709.2943000000118,1708.275,1708.791,1705.844,1708.2748999999762,1709.2943000000118,1709.790199999988,1709.790199999988,1712.088800000012,1849.0,1712.088800000012,5.0,1712.089,5.0,2.0,152.0,18.0,1.0,1.4,0.7,Time
,,S13,785063,1,male,23,anonymized,Serial_Dependence_U,2023.2.3,Win32,60.97560975609215,,,,,,1712.0891000000238,62.0,5.0,1712.089199999988,62.0,,,,1715.651800000012,1716.151300000012,1715.135899999976,1715.651699999988,1713.104100000024,1715.1358000000118,1716.151300000012,1716.651100000024,1716.651100000024,1718.7375,1563.0,1718.7375,5.0,1718.737699999988,5.0,3.0,153.0,16.0,1.0,1.0,0.7,Time
,,S13,785063,1,male,23,anonymized,Serial_Dependence_U,2023.2.3,Win32,60.97560975609215,,,,,,1718.738,245.0,5.0,1718.738100000024,245.0,,,,1722.33,1722.829300000012,1721.817600000024,1722.329899999976,1719.7488999999762,1721.8175,1722.8293999999762,1723.328699999988,1723.328699999988,1724.931800000012,1223.0,1724.931800000012,4.0,1724.932,5.0,4.0,154.0,21.0,1.0,1.0,0.3,Time
,,S13,785063,1,male,23,anonymized,Serial_Dependence_U,2023.2.3,Win32,60.97560975609215,,,,,,1724.932300000012,1.0,5.0,1724.932300000012,1.0,,,,1728.292,1728.7911000000238,1727.7783999999765,1728.291899999976,1725.943699999988,1727.778199999988,1728.7911000000238,1729.2903999999762,1729.2903999999762,1730.8058999999762,1038.0,1730.8058999999762,4.0,1730.8061999999882,5.0,5.0,155.0,25.0,1.0,0.8,0.7,Time
,,S13,785063,1,male,23,anonymized,Serial_Dependence_U,2023.2.3,Win32,60.97560975609215,,,,,,1730.8065,76.0,5.0,1730.8066000000238,76.0,,,,1734.403199999988,1734.9026000000238,1733.8871000000238,1734.403100000024,1731.821699999988,1733.887,1734.9026000000238,1735.402300000012,1735.402300000012,1737.5551999999882,1654.0,1737.555300000012,5.0,1737.5556000000238,5.0,6.0,156.0,11.0,1.0,1.0,0.3,Time
,,S13,785063,1,male,23,anonymized,Serial_Dependence_U,2023.2.3,Win32,60.97560975609215,,,,,,1737.5558999999762,56.0,5.0,1737.556100000024,56.0,,,,1741.747399999976,1742.2466000000238,1741.2315,1741.7473000000118,1738.566399999976,1741.2313999999762,1742.246699999988,1742.746100000024,1742.746199999988,1744.811199999988,1734.0,1744.811199999988,4.0,1744.8113999999762,5.0,7.0,157.0,4.0,1.0,1.6,0.3,Time
,,S13,785063,1,male,23,anonymized,Serial_Dependence_U,2023.2.3,Win32,60.97560975609215,,,,,,1744.8116999999882,32.0,5.0,1744.8118999999765,32.0,,,,1748.8081000000238,1749.307199999988,1748.291899999976,1748.808,1745.8271000000238,1748.291800000012,1749.307300000012,1749.807100000024,1749.807100000024,1751.793,1671.0,1751.793,4.0,1751.793300000012,5.0,8.0,158.0,23.0,1.0,1.4,0.3,Time
,,S13,785063,1,male,23,anonymized,Serial_Dependence_U,2023.2.3,Win32,60.97560975609215,,,,,,1751.793399999976,330.0,5.0,1751.7936000000238,330.0,,,,1755.952300000012,1756.4515,1755.435899999976,1755.9521000000238,1752.8046000000238,1755.435899999976,1756.4516000000235,1756.951199999988,1756.951199999988,1760.120300000012,1921.0,1760.120300000012,4.0,1760.1206000000238,5.0,9.0,159.0,29.0,1.0,1.6,0.7,Time
,,S13,785063,1,male,23,anonymized,Serial_Dependence_U,2023.2.3,Win32,60.97560975609215,,,,,,1760.1208999999762,241.0,5.0,1760.121,241.0,,,,1763.712199999988,1764.211699999988,1763.1993000000118,1763.7121000000238,1761.131699999988,1763.1991999999882,1764.211699999988,1764.7108999999762,1764.711,1767.014699999988,1203.0,1767.014800000012,4.0,1767.015100000024,5.0,10.0,160.0,1.0,1.0,1.0,0.3,Time
,,S13,785063,1,male,23,anonymized,Serial_Dependence_U,2023.2.3,Win32,60.97560975609215,,,,,,1767.0155,156.0,5.0,1767.0156000000238,156.0,,,,1770.573699999988,1771.072800000012,1770.0573999999765,1770.5736000000238,1768.025699999988,1770.0573999999765,1771.072800000012,1771.572399999976,1771.5725,1773.271,1276.0,1773.2711000000238,4.0,1773.271300000012,5.0,11.0,161.0,6.0,1.0,1.0,0.7,Time
,,S13,785063,1,male,23,anonymized,Serial_Dependence_U,2023.2.3,Win32,60.97560975609215,,,,,,1773.2716999999882,195.0,5.0,1773.271800000012,195.0,,,,1776.634800000012,1777.134100000024,1776.1185,1776.634699999988,1774.287,1776.1185,1777.134100000024,1777.6336000000238,1777.6336000000238,1778.283600000024,87.0,1778.283600000024,1.0,1778.283800000012,5.0,12.0,162.0,5.0,1.0,0.8,0.7,Time
,,S13,785063,1,male,23,anonymized,Serial_Dependence_U,2023.2.3,Win32,60.97560975609215,,,,,,1778.284100000024,75.0,5.0,1778.284199999988,75.0,,,,1782.2473000000118,1782.7465,1781.7311000000238,1782.2471999999882,1779.299899999976,1781.731,1782.7465,1783.246199999988,1783.246199999988,1785.898699999988,1810.0,1785.898699999988,4.0,1785.899,5.0,13.0,163.0,28.0,1.0,1.4,0.7,Time
,,S13,785063,1,male,23,anonymized,Serial_Dependence_U,2023.2.3,Win32,60.97560975609215,,,,,,1785.899199999988,291.0,5.0,1785.899399999976,291.0,,,,1790.0576000000235,1790.556800000012,1789.541199999988,1790.0575,1786.910199999988,1789.5411000000238,1790.556800000012,1791.056399999976,1791.0565,1793.2543999999762,1668.0,1793.2545,3.0,1793.254699999988,5.0,14.0,164.0,19.0,1.0,1.6,0.7,Time
,,S13,785063,1,male,23,anonymized,Serial_Dependence_U,2023.2.3,Win32,60.97560975609215,,,,,,1793.255,341.0,5.0,1793.255100000024,341.0,,,,1796.6186999999882,1797.118,1796.1045,1796.6186999999882,1794.270699999988,1796.1045,1797.118,1797.617800000012,1797.617899999976,1799.166300000012,1162.0,1799.1663999999762,5.0,1799.1666999999882,5.0,15.0,165.0,15.0,1.0,0.8,0.7,Time
,,S13,785063,1,male,23,anonymized,Serial_Dependence_U,2023.2.3,Win32,60.97560975609215,,,,,,1799.1671000000238,189.0,5.0,1799.167300000012,189.0,,,,1803.163300000012,1803.662600000024,1802.647199999988,1803.163199999988,1800.1823999999765,1802.647100000024,1803.662600000024,1804.162,1804.162,1806.194100000024,1500.0,1806.194199999988,4.0,1806.194300000012,5.0,16.0,166.0,13.0,1.0,1.4,0.3,Time
,,S13,785063,1,male,23,anonymized,Serial_Dependence_U,2023.2.3,Win32,60.97560975609215,,,,,,1806.194600000024,258.0,5.0,1806.194699999988,258.0,,,,1809.991100000024,1810.4903999999765,1809.474800000012,1809.990899999976,1807.210199999988,1809.474699999988,1810.4903999999765,1810.99,1810.99,1812.943600000024,1561.0,1812.943699999988,5.0,1812.943899999976,5.0,17.0,167.0,2.0,1.0,1.2,0.3,Time
,,S13,785063,1,male,23,anonymized,Serial_Dependence_U,2023.2.3,Win32,60.97560975609215,,,,,,1812.944300000012,302.0,5.0,1812.944399999976,302.0,,,,1816.335800000012,1816.835,1815.8195,1816.335699999988,1813.954399999976,1815.819399999976,1816.835,1817.334699999988,1817.334800000012,1818.450600000024,647.0,1818.450600000024,2.0,1818.450699999988,5.0,18.0,168.0,20.0,1.0,0.8,0.3,Time
,,S13,785063,1,male,23,anonymized,Serial_Dependence_U,2023.2.3,Win32,60.97560975609215,,,,,,1818.451,148.0,5.0,1818.451100000024,148.0,,,,1822.4475,1822.947,1821.931300000012,1822.447399999976,1819.466600000024,1821.931199999988,1822.947,1823.446399999976,1823.446399999976,1825.477899999976,1526.0,1825.477899999976,4.0,1825.478199999988,5.0,19.0,169.0,3.0,1.0,1.4,0.3,Time
,,S13,785063,1,male,23,anonymized,Serial_Dependence_U,2023.2.3,Win32,60.97560975609215,,,,,,1825.478399999976,350.0,5.0,1825.4785,350.0,,,,1829.275300000012,1829.774600000024,1828.759199999988,1829.275199999988,1826.494100000024,1828.759100000024,1829.774600000024,1830.274100000024,1830.274100000024,1832.106100000024,1432.0,1832.106100000024,4.0,1832.106300000012,5.0,20.0,170.0,12.0,1.0,1.2,0.3,Time
,,S13,785063,1,male,23,anonymized,Serial_Dependence_U,2023.2.3,Win32,60.97560975609215,,,,,,1832.106699999988,165.0,5.0,1832.106800000012,165.0,,,,1836.053199999988,1836.552199999988,1835.536699999988,1836.053100000024,1833.106,1835.536600000024,1836.552199999988,1837.051699999988,1837.051699999988,1838.917100000024,1389.0,1838.917100000024,3.0,1838.917300000012,5.0,21.0,171.0,8.0,1.0,1.4,0.7,Time
,,S13,785063,1,male,23,anonymized,Serial_Dependence_U,2023.2.3,Win32,60.97560975609215,,,,,,1838.917699999988,282.0,5.0,1838.9178999999765,282.0,,,,1842.480800000012,1842.98,1841.964899999976,1842.480699999988,1839.933,1841.964899999976,1842.98,1843.479899999976,1843.48,1844.978300000012,1036.0,1844.978399999976,3.0,1844.9785,5.0,22.0,172.0,26.0,1.0,1.0,0.7,Time
,,S13,785063,1,male,23,anonymized,Serial_Dependence_U,2023.2.3,Win32,60.97560975609215,,,,,,1844.978800000012,135.0,5.0,1844.978899999976,135.0,,,,1848.378600000024,1848.875300000012,1847.859800000012,1848.378600000024,1845.994600000024,1847.859800000012,1848.8753999999765,1849.375100000024,1849.375199999988,1850.944100000024,1039.0,1850.944199999988,4.0,1850.944300000012,5.0,23.0,173.0,0.0,1.0,0.8,0.3,Time
,,S13,785063,1,male,23,anonymized,Serial_Dependence_U,2023.2.3,Win32,60.97560975609215,,,,,,1850.9445,249.0,5.0,1850.9445,249.0,,,,1854.705199999988,1855.203600000024,1854.188,1854.705100000024,1851.956699999988,1854.1878999999765,1855.203699999988,1855.703399999976,1855.7035,1856.9855,775.0,1856.9855,1.0,1856.985699999988,5.0,24.0,174.0,7.0,1.0,1.2,0.7,Time
,,S13,785063,1,male,23,anonymized,Serial_Dependence_U,2023.2.3,Win32,60.97560975609215,,,,,,1856.986,251.0,5.0,1856.986300000012,251.0,,,,1860.383100000024,1860.882100000024,1859.866800000012,1860.383,1858.001800000012,1859.866699999988,1860.882100000024,1861.382100000024,1861.382100000024,1863.0005,1230.0,1863.0005,5.0,1863.000699999988,5.0,25.0,175.0,10.0,1.0,0.8,0.3,Time
,,S13,785063,1,male,23,anonymized,Serial_Dependence_U,2023.2.3,Win32,60.97560975609215,,,,,,1863.000899999976,291.0,5.0,1863.001,291.0,,,,1867.194,1867.693199999988,1866.677699999988,1867.193899999976,1864.013300000012,1866.677600000024,1867.693300000012,1868.192899999976,1868.193,1870.3745,1756.0,1870.374600000024,4.0,1870.374800000012,5.0,26.0,176.0,24.0,1.0,1.6,0.3,Time
,,S13,785063,1,male,23,anonymized,Serial_Dependence_U,2023.2.3,Win32,60.97560975609215,,,,,,1870.375,347.0,5.0,1870.375,347.0,,,,1874.138199999988,1874.6375,1873.621600000024,1874.138100000024,1871.390600000024,1873.6215,1874.6375,1875.137199999988,1875.137199999988,1877.24,1569.0,1877.24,5.0,1877.240300000012,5.0,27.0,177.0,17.0,1.0,1.2,0.7,Time
,,S13,785063,1,male,23,anonymized,Serial_Dependence_U,2023.2.3,Win32,60.97560975609215,,,,,,1877.240600000024,151.0,5.0,1877.240699999988,151.0,,,,1881.3988999999765,1881.898199999988,1880.882399999976,1881.398800000012,1878.2515,1880.882399999976,1881.898199999988,1882.397800000012,1882.397800000012,1884.8675,1864.0,1884.867600000024,4.0,1884.867800000012,5.0,28.0,178.0,9.0,1.0,1.6,0.7,Time
,,S13,785063,1,male,23,anonymized,Serial_Dependence_U,2023.2.3,Win32,60.97560975609215,,,,,,1884.868100000024,174.0,5.0,1884.868199999988,174.0,,,,1888.659699999988,1889.158699999988,1888.1455,1888.659600000024,1885.878199999988,1888.145399999976,1889.158800000012,1889.658600000024,1889.658600000024,1892.009600000024,1944.0,1892.009699999988,5.0,1892.01,5.0,29.0,179.0,22.0,1.0,1.2,0.3,Time
,,S13,785063,1,male,23,anonymized,Serial_Dependence_U,2023.2.3,Win32,60.97560975609215,,,,,,1892.010199999988,225.0,6.0,2030.442399999976,225.0,s,138.4056999999882,,2034.039699999988,2034.539100000024,2033.523600000024,2034.039600000024,2031.458699999988,2033.523399999976,2034.539100000024,2035.041199999988,2035.041199999988,2036.757800000012,1286.0,2036.757800000012,4.0,2036.758100000024,6.0,0.0,180.0,11.0,1.0,1.0,0.3,Time
,,S13,785063,1,male,23,anonymized,Serial_Dependence_U,2023.2.3,Win32,60.97560975609215,,,,,,2036.7583999999763,50.0,6.0,2036.759,50.0,,,,2040.151300000012,2040.650300000012,2039.639300000012,2040.151199999988,2037.7698999999764,2039.639199999988,2040.650399999976,2041.150399999976,2041.150399999976,2042.748600000024,1157.0,2042.748699999988,5.0,2042.748899999976,6.0,1.0,181.0,10.0,1.0,0.8,0.3,Time
,,S13,785063,1,male,23,anonymized,Serial_Dependence_U,2023.2.3,Win32,60.97560975609215,,,,,,2042.749100000024,146.0,6.0,2042.749199999988,146.0,,,,2046.512699999988,2047.011899999976,2045.9965,2046.512600000024,2043.765100000024,2045.9965,2047.011899999976,2047.511600000024,2047.511699999988,2049.460600000024,1484.0,2049.460600000024,4.0,2049.460800000012,6.0,2.0,182.0,17.0,1.0,1.2,0.7,Time
,,S13,785063,1,male,23,anonymized,Serial_Dependence_U,2023.2.3,Win32,60.97560975609215,,,,,,2049.4611999999884,188.0,6.0,2049.4613999999765,188.0,,,,2053.6568999999763,2054.1561999999885,2053.1403999999766,2053.656800000012,2050.476300000012,2053.1403999999766,2054.1561999999885,2054.6556999999884,2054.6558000000123,2056.7083999999763,1539.0,2056.7083999999763,3.0,2056.7086999999883,6.0,3.0,183.0,14.0,1.0,1.6,0.3,Time
,,S13,785063,1,male,23,anonymized,Serial_Dependence_U,2023.2.3,Win32,60.97560975609215,,,,,,2056.7090000000003,194.0,6.0,2056.709100000024,194.0,,,,2060.268300000012,2060.7671999999884,2059.751600000024,2060.268100000024,2057.7203999999765,2059.751600000024,2060.7673000000123,2061.267100000024,2061.267100000024,2062.932300000012,1066.0,2062.9323999999765,4.0,2062.932600000024,6.0,4.0,184.0,16.0,1.0,1.0,0.7,Time
,,S13,785063,1,male,23,anonymized,Serial_Dependence_U,2023.2.3,Win32,60.97560975609215,,,,,,2062.9328999999766,22.0,6.0,2062.933199999988,22.0,,,,2066.3296999999884,2066.8291999999883,2065.8135,2066.329600000024,2063.948699999988,2065.8135,2066.8291999999883,2067.328699999988,2067.328699999988,2068.8646999999883,1032.0,2068.864800000012,4.0,2068.8648999999764,6.0,5.0,185.0,0.0,1.0,0.8,0.3,Time
,,S13,785063,1,male,23,anonymized,Serial_Dependence_U,2023.2.3,Win32,60.97560975609215,,,,,,2068.865,326.0,6.0,2068.865100000024,326.0,,,,2072.858,2073.357199999988,2072.3458000000123,2072.857800000012,2069.8770000000004,2072.3456999999885,2073.357199999988,2073.8565000000003,2073.8565000000003,2075.959600000024,1589.0,2075.959600000024,4.0,2075.9598000000124,6.0,6.0,186.0,3.0,1.0,1.4,0.3,Time
,,S13,785063,1,male,23,anonymized,Serial_Dependence_U,2023.2.3,Win32,60.97560975609215,,,,,,2075.960100000024,296.0,6.0,2075.9603999999763,296.0,,,,2079.951600000024,2080.451199999988,2079.435699999988,2079.951600000024,2076.9710000000005,2079.435600000024,2080.451300000012,2080.9506999999885,2080.9508000000124,2082.802800000012,1372.0,2082.8028999999765,3.0,2082.8030000000003,6.0,7.0,187.0,13.0,1.0,1.4,0.3,Time
,,S13,785063,1,male,23,anonymized,Serial_Dependence_U,2023.2.3,Win32,60.97560975609215,,,,,,2082.8031999999885,172.0,6.0,2082.8033000000123,172.0,,,,2086.396600000024,2086.895600000024,2085.880199999988,2086.3965000000003,2083.815199999988,2085.880100000024,2086.895600000024,2087.395600000024,2087.395600000024,2089.2773999999763,1488.0,2089.277600000024,5.0,2089.2776999999883,6.0,8.0,188.0,21.0,1.0,1.0,0.3,Time
,,S13,785063,1,male,23,anonymized,Serial_Dependence_U,2023.2.3,Win32,60.97560975609215,,,,,,2089.278,185.0,6.0,2089.278300000012,185.0,,,,2092.6413999999763,2093.1413999999763,2092.1251000000243,2092.6413999999763,2090.2936999999883,2092.1248999999766,2093.1413999999763,2093.6406000000243,2093.6406000000243,2260.958,1381.0,2260.958,5.0,2260.958300000012,6.0,9.0,189.0,25.0,1.0,0.8,0.7,Time
,,S13,785063,1,male,23,anonymized,Serial_Dependence_U,2023.2.3,Win32,60.97560975609215,,,,,,2260.958600000024,162.0,6.0,2260.958800000012,162.0,,,,2264.3168000000123,2264.816100000024,2263.800600000024,2264.3166999999885,2261.969,2263.8005000000003,2264.8161999999884,2265.315600000024,2265.315600000024,2266.9480000000003,1132.0,2266.948100000024,5.0,2266.9483999999766,6.0,10.0,190.0,15.0,1.0,0.8,0.7,Time
,,S13,785063,1,male,23,anonymized,Serial_Dependence_U,2023.2.3,Win32,60.97560975609215,,,,,,2266.948699999988,91.0,6.0,2266.948899999976,91.0,,,,2270.7446999999884,2271.244100000024,2270.2285,2270.744600000024,2267.963600000024,2270.2285,2271.244100000024,2271.743699999988,2271.743800000012,2273.5421999999885,1426.0,2273.5421999999885,4.0,2273.542399999976,6.0,11.0,191.0,2.0,1.0,1.2,0.3,Time
,,S13,785063,1,male,23,anonymized,Serial_Dependence_U,2023.2.3,Win32,60.97560975609215,,,,,,2273.542699999988,78.0,6.0,2273.543,78.0,,,,2277.705699999988,2278.2051999999885,2277.19,2277.705600000024,2274.5421999999885,2277.189899999976,2278.2051999999885,2278.7045000000003,2278.7045000000003,2281.3243999999763,1998.0,2281.3245,4.0,2281.3246999999883,6.0,12.0,192.0,19.0,1.0,1.6,0.7,Time
,,S13,785063,1,male,23,anonymized,Serial_Dependence_U,2023.2.3,Win32,60.97560975609215,,,,,,2281.325100000024,126.0,6.0,2281.3251999999884,126.0,,,,2285.2826999999884,2285.782,2284.767100000024,2285.2826999999884,2282.335300000012,2284.7668999999764,2285.782,2286.2815,2286.2815,2289.649899999976,1706.0,2289.649899999976,4.0,2289.650100000024,6.0,13.0,193.0,18.0,1.0,1.4,0.7,Time
,,S13,785063,1,male,23,anonymized,Serial_Dependence_U,2023.2.3,Win32,60.97560975609215,,,,,,2289.6503999999763,329.0,6.0,2289.6505,329.0,,,,2293.6095,2294.108600000024,2293.0931999999884,2293.609399999976,2290.6616999999883,2293.093100000024,2294.108600000024,2294.608300000012,2294.608300000012,2296.739800000012,1784.0,2296.739800000012,4.0,2296.74,6.0,14.0,194.0,8.0,1.0,1.4,0.7,Time
,,S13,785063,1,male,23,anonymized,Serial_Dependence_U,2023.2.3,Win32,60.97560975609215,,,,,,2296.740300000012,169.0,6.0,2296.7405000000003,169.0,,,,2300.936600000024,2301.435800000012,2300.4203999999763,2300.9363999999764,2297.7561999999884,2300.4203999999763,2301.435800000012,2301.935600000024,2301.935600000024,2516.025300000012,1697.0,2516.025300000012,4.0,2516.0253999999763,6.0,15.0,195.0,4.0,1.0,1.6,0.3,Time
,,S13,785063,1,male,23,anonymized,Serial_Dependence_U,2023.2.3,Win32,60.97560975609215,,,,,,2516.0256999999883,309.0,6.0,2516.025800000012,309.0,,,,2519.9728000000123,2520.472100000024,2519.461100000024,2519.9726999999884,2517.025800000012,2519.461,2520.4721999999883,2520.971800000012,2520.9718999999764,2529.1316000000243,1756.0,2529.1316999999885,4.0,2529.131899999976,6.0,16.0,196.0,28.0,1.0,1.4,0.7,Time
,,S13,785063,1,male,23,anonymized,Serial_Dependence_U,2023.2.3,Win32,60.97560975609215,,,,,,2529.132199999988,232.0,6.0,2529.1323999999763,232.0,,,,2533.295,2533.7943999999766,2532.7788000000123,2533.295,2530.1478999999763,2532.7786999999885,2533.7943999999766,2534.2946000000243,2534.294699999988,2557.3118999999765,2330.0,2557.3118999999765,5.0,2557.312100000024,6.0,17.0,197.0,9.0,1.0,1.6,0.7,Time
,,S13,785063,1,male,23,anonymized,Serial_Dependence_U,2023.2.3,Win32,60.97560975609215,,,,,,2557.3123000000123,116.0,6.0,2557.3123999999766,116.0,,,,2560.705800000012,2561.2048999999765,2560.1896999999885,2560.705699999988,2558.3248999999764,2560.1896000000243,2561.2048999999765,2561.704600000024,2561.704600000024,2563.5580000000004,801.0,2563.5580000000004,3.0,2563.558199999988,6.0,18.0,198.0,20.0,1.0,0.8,0.3,Time
,,S13,785063,1,male,23,anonymized,Serial_Dependence_U,2023.2.3,Win32,60.97560975609215,,,,,,2563.558600000024,296.0,6.0,2563.558800000012,296.0,,,,2567.7501000000243,2568.2495000000004,2567.2343000000124,2567.7501000000243,2564.57,2567.234100000024,2568.249600000024,2568.7488999999764,2568.7490000000003,2571.2676999999885,1941.0,2571.2678000000124,4.0,2571.268,6.0,19.0,199.0,24.0,1.0,1.6,0.3,Time
,,S13,785063,1,male,23,anonymized,Serial_Dependence_U,2023.2.3,Win32,60.97560975609215,,,,,,2571.268100000024,223.0,6.0,2571.268199999988,223.0,,,,2575.046100000024,2575.543100000024,2574.5445000000004,2575.046100000024,2572.2795,2574.5443000000123,2575.543199999988,2576.043300000012,2576.0435,2577.6796999999883,955.0,2577.6796999999883,2.0,2577.679800000012,6.0,20.0,200.0,22.0,1.0,1.2,0.3,Time
,,S13,785063,1,male,23,anonymized,Serial_Dependence_U,2023.2.3,Win32,60.97560975609215,,,,,,2577.680100000024,301.0,6.0,2577.6803000000123,301.0,,,,2581.438800000012,2581.938199999988,2580.9225,2581.4386999999883,2578.691100000024,2580.9225,2581.938199999988,2582.437699999988,2582.437699999988,2584.541,1623.0,2584.541100000024,5.0,2584.5413999999764,6.0,21.0,201.0,7.0,1.0,1.2,0.7,Time
,,S13,785063,1,male,23,anonymized,Serial_Dependence_U,2023.2.3,Win32,60.97560975609215,,,,,,2584.5416999999884,14.0,6.0,2584.5420000000004,14.0,,,,2588.516600000024,2589.015699999988,2588.000199999988,2588.5165,2585.535399999977,2588.0001000000243,2589.015699999988,2589.5151999999885,2589.5151999999885,2591.784199999988,1621.0,2591.784199999988,4.0,2591.7843999999764,6.0,22.0,202.0,23.0,1.0,1.4,0.3,Time
,,S13,785063,1,male,23,anonymized,Serial_Dependence_U,2023.2.3,Win32,60.97560975609215,,,,,,2591.784600000024,264.0,6.0,2591.7846999999883,264.0,,,,2595.3443999999763,2595.8431999999884,2594.827600000024,2595.344199999988,2592.7963000000123,2594.8275000000003,2595.8431999999884,2596.3426999999883,2596.3426999999883,2597.958,1188.0,2597.958,4.0,2597.958199999988,6.0,23.0,203.0,6.0,1.0,1.0,0.7,Time
,,S13,785063,1,male,23,anonymized,Serial_Dependence_U,2023.2.3,Win32,60.97560975609215,,,,,,2597.9585,15.0,6.0,2597.958600000024,15.0,,,,2601.5553000000123,2602.0545,2601.039100000024,2601.5551999999884,2598.974100000024,2601.039100000024,2602.0545,2602.5545,2602.5545,2604.5073999999763,1314.0,2604.5073999999763,5.0,2604.507600000024,6.0,24.0,204.0,1.0,1.0,1.0,0.3,Time
,,S13,785063,1,male,23,anonymized,Serial_Dependence_U,2023.2.3,Win32,60.97560975609215,,,,,,2604.5080000000003,336.0,6.0,2604.5081999999884,336.0,,,,2607.867100000024,2608.366300000012,2607.351,2607.867,2605.519100000024,2607.351,2608.366399999976,2608.8658999999766,2608.8660000000004,2610.403,981.0,2610.403,4.0,2610.403300000012,6.0,25.0,205.0,5.0,1.0,0.8,0.7,Time
,,S13,785063,1,male,23,anonymized,Serial_Dependence_U,2023.2.3,Win32,60.97560975609215,,,,,,2610.403600000024,357.0,6.0,2610.4036999999885,357.0,,,,2614.561600000024,2615.060699999988,2614.0455,2614.5613999999764,2611.4145000000003,2614.0455,2615.060800000012,2615.5605,2615.560600000024,2617.597100000024,1442.0,2617.5971999999883,2.0,2617.5973999999765,6.0,26.0,206.0,29.0,1.0,1.6,0.7,Time
,,S13,785063,1,male,23,anonymized,Serial_Dependence_U,2023.2.3,Win32,60.97560975609215,,,,,,2617.597600000024,100.0,6.0,2617.5978000000123,100.0,,,,2621.388699999988,2621.8885,2620.872600000024,2621.388600000024,2618.6081999999883,2620.8725000000004,2621.8885,2622.388100000024,2622.388100000024,2622.854300000012,17.0,2622.854300000012,1.0,2622.854600000024,6.0,27.0,207.0,12.0,1.0,1.2,0.3,Time
,,S13,785063,1,male,23,anonymized,Serial_Dependence_U,2023.2.3,Win32,60.97560975609215,,,,,,2622.8548000000123,148.0,6.0,2622.854899999976,148.0,,,,2626.6183000000124,2627.1173999999764,2626.101800000012,2626.6183000000124,2623.8705000000004,2626.1016999999883,2627.1173999999764,2627.6171999999883,2627.6171999999883,2629.554300000012,1413.0,2629.554300000012,4.0,2629.554600000024,6.0,28.0,208.0,27.0,1.0,1.2,0.7,Time
,,S13,785063,1,male,23,anonymized,Serial_Dependence_U,2023.2.3,Win32,60.97560975609215,,,,,,2629.555100000024,160.0,6.0,2629.5553000000123,160.0,,,,2633.1126999999883,2633.612100000024,2632.5968999999764,2633.112600000024,2630.565,2632.596800000012,2633.612199999988,2634.111699999988,2634.111699999988,2635.8148000000124,1080.0,2635.814899999976,4.0,2635.815,6.0,29.0,209.0,26.0,1.0,1.0,0.7,Time
,,S13,785063,1,male,23,anonymized,Serial_Dependence_U,2023.2.3,Win32,60.97560975609215,,,,,,2635.815199999988,240.0,7.0,2641.572199999988,240.0,s,5.729800000011892,,2645.17,2645.6691999999885,2644.6533999999765,2645.169800000012,2642.5886999999884,2644.653300000012,2645.6691999999885,2646.168800000012,2646.168800000012,2648.038,1313.0,2648.038,5.0,2648.038199999988,7.0,0.0,210.0,11.0,1.0,1.0,0.3,Time
,,S13,785063,1,male,23,anonymized,Serial_Dependence_U,2023.2.3,Win32,60.97560975609215,,,,,,2648.0383999999763,335.0,7.0,2648.039100000024,335.0,,,,2651.834899999976,2652.3298000000123,2651.314899999976,2651.834899999976,2649.05,2651.3148000000124,2652.3298000000123,2652.829600000024,2652.829600000024,2654.5951999999884,1311.0,2654.595300000012,4.0,2654.5955000000004,7.0,1.0,211.0,12.0,1.0,1.2,0.3,Time
,,S13,785063,1,male,23,anonymized,Serial_Dependence_U,2023.2.3,Win32,60.97560975609215,,,,,,2654.5958999999766,154.0,7.0,2654.596199999988,154.0,,,,2658.7583999999765,2659.257600000024,2658.242300000012,2658.7583999999765,2655.6113999999766,2658.242300000012,2659.257600000024,2659.756800000012,2659.756800000012,2661.8096999999884,1555.0,2661.8096999999884,3.0,2661.8098000000123,7.0,2.0,212.0,19.0,1.0,1.6,0.7,Time
,,S13,785063,1,male,23,anonymized,Serial_Dependence_U,2023.2.3,Win32,60.97560975609215,,,,,,2661.810100000024,289.0,7.0,2661.810100000024,289.0,,,,2665.203199999988,2665.702600000024,2664.687100000024,2665.2031000000243,2662.821699999988,2664.687100000024,2665.702600000024,2666.2016999999883,2666.2016999999883,2668.067300000012,721.0,2668.067300000012,2.0,2668.067600000024,7.0,3.0,213.0,0.0,1.0,0.8,0.3,Time
,,S13,785063,1,male,23,anonymized,Serial_Dependence_U,2023.2.3,Win32,60.97560975609215,,,,,,2668.0678999999764,251.0,7.0,2668.068100000024,251.0,,,,2672.0308000000123,2672.530300000012,2671.5148999999765,2672.0306999999884,2669.083199999988,2671.514800000012,2672.5303999999765,2673.03,2673.03,2674.8783999999764,1420.0,2674.8783999999764,3.0,2674.878600000024,7.0,4.0,214.0,8.0,1.0,1.4,0.7,Time
,,S13,785063,1,male,23,anonymized,Serial_Dependence_U,2023.2.3,Win32,60.97560975609215,,,,,,2674.8788999999765,340.0,7.0,2674.8791999999885,340.0,,,,2678.242300000012,2678.7415,2677.726300000012,2678.2421999999883,2675.894300000012,2677.726199999988,2678.741600000024,2679.2415,2679.2415,2680.7783999999765,1175.0,2680.7783999999765,5.0,2680.7786999999885,7.0,5.0,215.0,15.0,1.0,0.8,0.7,Time
,,S13,785063,1,male,23,anonymized,Serial_Dependence_U,2023.2.3,Win32,60.97560975609215,,,,,,2680.7790000000005,76.0,7.0,2680.779199999988,76.0,,,,2684.936600000024,2685.4361999999883,2684.4206999999883,2684.936600000024,2681.789600000024,2684.420600000024,2685.4361999999883,2685.9358999999763,2685.9358999999763,2688.2893999999765,1965.0,2688.2895000000003,4.0,2688.2896999999884,7.0,6.0,216.0,9.0,1.0,1.6,0.7,Time
,,S13,785063,1,male,23,anonymized,Serial_Dependence_U,2023.2.3,Win32,60.97560975609215,,,,,,2688.2900000000004,120.0,7.0,2688.2901000000243,120.0,,,,2691.8480000000004,2692.3471999999883,2691.331600000024,2691.847899999977,2689.300100000024,2691.3313999999764,2692.347300000012,2692.846699999988,2692.846699999988,2694.5953999999765,1249.0,2694.5955000000004,4.0,2694.5956999999885,7.0,7.0,217.0,16.0,1.0,1.0,0.7,Time
,,S13,785063,1,male,23,anonymized,Serial_Dependence_U,2023.2.3,Win32,60.97560975609215,,,,,,2694.5960000000005,67.0,7.0,2694.596199999988,67.0,,,,2698.192600000024,2698.6923999999763,2697.6765,2698.192300000012,2695.6116000000243,2697.6765,2698.6923999999763,2699.191600000024,2699.191600000024,2700.6738999999766,985.0,2700.6740000000004,3.0,2700.6741000000243,7.0,8.0,218.0,21.0,1.0,1.0,0.3,Time
,,S13,785063,1,male,23,anonymized,Serial_Dependence_U,2023.2.3,Win32,60.97560975609215,,,,,,2700.6745,71.0,7.0,2700.674800000012,71.0,,,,2704.437699999988,2704.936800000012,2703.9213999999765,2704.4376000000243,2701.6896999999885,2703.9213000000123,2704.936800000012,2705.436600000024,2705.436600000024,2707.6061999999883,1615.0,2707.6061999999883,5.0,2707.6063999999765,7.0,9.0,219.0,17.0,1.0,1.2,0.7,Time
,,S13,785063,1,male,23,anonymized,Serial_Dependence_U,2023.2.3,Win32,60.97560975609215,,,,,,2707.606600000024,41.0,7.0,2707.6068000000123,41.0,,,,2711.552300000012,2712.047600000024,2711.0488000000123,2711.552300000012,2708.617600000024,2711.0486999999885,2712.047600000024,2712.547,2712.547100000024,2714.565,1549.0,2714.565100000024,4.0,2714.565300000012,7.0,10.0,220.0,28.0,1.0,1.4,0.7,Time
,,S13,785063,1,male,23,anonymized,Serial_Dependence_U,2023.2.3,Win32,60.97560975609215,,,,,,2714.565600000024,116.0,7.0,2714.5656999999883,116.0,,,,2717.9595000000004,2718.4588999999764,2717.443300000012,2717.9593999999765,2715.5781000000243,2717.4431999999883,2718.4590000000003,2718.958199999988,2718.958199999988,2720.5906999999884,1040.0,2720.5906999999884,5.0,2720.5908999999765,7.0,11.0,221.0,10.0,1.0,0.8,0.3,Time
,,S13,785063,1,male,23,anonymized,Serial_Dependence_U,2023.2.3,Win32,60.97560975609215,,,,,,2720.5911999999885,346.0,7.0,2720.5913999999766,346.0,,,,2724.587600000024,2725.0870000000004,2724.0755000000004,2724.587399999976,2721.6066999999885,2724.0753999999765,2725.0871000000243,2725.5865000000003,2725.5865000000003,2727.422800000012,1439.0,2727.422800000012,3.0,2727.4228999999764,7.0,12.0,222.0,13.0,1.0,1.4,0.3,Time
,,S13,785063,1,male,23,anonymized,Serial_Dependence_U,2023.2.3,Win32,60.97560975609215,,,,,,2727.423100000024,22.0,7.0,2727.423300000012,22.0,,,,2731.415300000012,2731.914600000024,2730.8995000000004,2731.415300000012,2728.4343999999764,2730.8993999999766,2731.914600000024,2732.414300000012,2732.414300000012,2744.9373000000123,1281.0,2744.9373000000123,2.0,2744.9376000000243,7.0,13.0,223.0,3.0,1.0,1.4,0.3,Time
,,S13,785063,1,male,23,anonymized,Serial_Dependence_U,2023.2.3,Win32,60.97560975609215,,,,,,2744.938,195.0,7.0,2744.938199999988,195.0,,,,2748.301399999976,2748.8006999999884,2747.7853000000123,2748.3013000000124,2745.953300000012,2747.7851999999884,2748.8006999999884,2749.3001999999883,2749.3001999999883,2750.8156999999883,1000.0,2750.8156999999883,4.0,2750.8160000000003,7.0,14.0,224.0,25.0,1.0,0.8,0.7,Time
,,S13,785063,1,male,23,anonymized,Serial_Dependence_U,2023.2.3,Win32,60.97560975609215,,,,,,2750.8161999999884,281.0,7.0,2750.8165000000004,281.0,,,,2754.579600000024,2755.078699999988,2754.066100000024,2754.5795000000003,2751.8318999999765,2754.066100000024,2755.078699999988,2755.578399999976,2755.578399999976,2757.5655,1531.0,2757.565600000024,4.0,2757.5658999999764,7.0,15.0,225.0,27.0,1.0,1.2,0.7,Time
,,S13,785063,1,male,23,anonymized,Serial_Dependence_U,2023.2.3,Win32,60.97560975609215,,,,,,2757.5661999999884,131.0,7.0,2757.5663999999765,131.0,,,,2761.1248000000123,2761.623300000012,2760.6081999999883,2761.124600000024,2758.576100000024,2760.608100000024,2761.623300000012,2762.122899999976,2762.122899999976,2763.7265,1231.0,2763.726600000024,4.0,2763.726800000012,7.0,16.0,226.0,26.0,1.0,1.0,0.7,Time
,,S13,785063,1,male,23,anonymized,Serial_Dependence_U,2023.2.3,Win32,60.97560975609215,,,,,,2763.7270000000003,152.0,7.0,2763.7273000000123,152.0,,,,2767.5188999999764,2768.018,2767.002399999976,2767.518800000012,2764.737800000012,2767.0023000000124,2768.018,2768.5176999999885,2768.5176999999885,2770.582800000012,1451.0,2770.582800000012,4.0,2770.583100000024,7.0,17.0,227.0,22.0,1.0,1.2,0.3,Time
,,S13,785063,1,male,23,anonymized,Serial_Dependence_U,2023.2.3,Win32,60.97560975609215,,,,,,2770.583300000012,70.0,7.0,2770.5835,70.0,,,,2774.346600000024,2774.8458999999766,2773.830399999976,2774.3465,2771.5988999999763,2773.8303000000124,2774.8458999999766,2775.3455000000004,2775.3455000000004,2776.9273999999764,1246.0,2776.9273999999764,3.0,2776.9275,7.0,18.0,228.0,7.0,1.0,1.2,0.7,Time
,,S13,785063,1,male,23,anonymized,Serial_Dependence_U,2023.2.3,Win32,60.97560975609215,,,,,,2776.9278999999765,128.0,7.0,2776.928100000024,128.0,,,,2781.124600000024,2781.6235,2780.608,2781.1245000000004,2777.9436999999884,2780.6078999999763,2781.6235,2782.122899999976,2782.123,2784.5095,1911.0,2784.509600000024,4.0,2784.5098999999764,7.0,19.0,229.0,14.0,1.0,1.6,0.3,Time
,,S13,785063,1,male,23,anonymized,Serial_Dependence_U,2023.2.3,Win32,60.97560975609215,,,,,,2784.5101999999883,184.0,7.0,2784.5103999999765,184.0,,,,2788.7015,2789.200600000024,2788.1851999999885,2788.7013999999763,2785.520699999988,2788.185100000024,2789.200600000024,2789.7001999999884,2789.7001999999884,2791.9696999999883,1817.0,2791.969800000012,4.0,2791.9700000000003,7.0,20.0,230.0,24.0,1.0,1.6,0.3,Time
,,S13,785063,1,male,23,anonymized,Serial_Dependence_U,2023.2.3,Win32,60.97560975609215,,,,,,2791.9701999999884,220.0,7.0,2791.9703999999765,220.0,,,,2795.928800000012,2796.4281999999885,2795.4125000000004,2795.928699999988,2792.9808999999764,2795.4125000000004,2796.4281999999885,2796.9276999999884,2796.9276999999884,2799.1808000000124,1740.0,2799.1808000000124,4.0,2799.181,7.0,21.0,231.0,18.0,1.0,1.4,0.7,Time
,,S13,785063,1,male,23,anonymized,Serial_Dependence_U,2023.2.3,Win32,60.97560975609215,,,,,,2799.181300000012,271.0,7.0,2799.1813999999763,271.0,,,,2802.539899999977,2803.0396999999884,2802.028600000024,2802.539899999977,2800.1918999999766,2802.0285000000003,2803.0396999999884,2803.539,2803.539100000024,2805.3590000000004,1256.0,2805.359100000024,5.0,2805.359399999976,7.0,22.0,232.0,5.0,1.0,0.8,0.7,Time
,,S13,785063,1,male,23,anonymized,Serial_Dependence_U,2023.2.3,Win32,60.97560975609215,,,,,,2805.359699999988,154.0,7.0,2805.359800000012,154.0,,,,2809.5510000000004,2810.050300000012,2809.0346999999883,2809.5508000000123,2806.370100000024,2809.034600000024,2810.0505000000003,2810.5498999999763,2810.55,2812.614800000012,1727.0,2812.6148999999764,4.0,2812.615100000024,7.0,23.0,233.0,4.0,1.0,1.6,0.3,Time
,,S13,785063,1,male,23,anonymized,Serial_Dependence_U,2023.2.3,Win32,60.97560975609215,,,,,,2812.615300000012,218.0,7.0,2812.6155000000003,218.0,,,,2816.778300000012,2817.2775,2816.2645,2816.7781999999884,2813.630800000012,2816.2643999999764,2817.2775,2817.777199999988,2817.777199999988,2820.3295000000003,1946.0,2820.3295000000003,4.0,2820.3298000000123,7.0,24.0,234.0,29.0,1.0,1.6,0.7,Time
,,S13,785063,1,male,23,anonymized,Serial_Dependence_U,2023.2.3,Win32,60.97560975609215,,,,,,2820.3300000000004,67.0,7.0,2820.3301999999885,67.0,,,,2824.1221999999884,2824.6215,2823.6058999999764,2824.122100000024,2821.341100000024,2823.605800000012,2824.6215,2825.121100000024,2825.121199999988,2827.2195,1518.0,2827.219600000024,4.0,2827.219800000012,7.0,25.0,235.0,2.0,1.0,1.2,0.3,Time
,,S13,785063,1,male,23,anonymized,Serial_Dependence_U,2023.2.3,Win32,60.97560975609215,,,,,,2827.220100000024,11.0,7.0,2827.2203999999765,11.0,,,,2830.6171999999883,2831.1161000000243,2830.100600000024,2830.617100000024,2828.2356999999884,2830.100600000024,2831.1161000000243,2831.6160000000004,2831.6160000000004,2832.9341999999883,806.0,2832.934300000012,3.0,2832.934600000024,7.0,26.0,236.0,20.0,1.0,0.8,0.3,Time
,,S13,785063,1,male,23,anonymized,Serial_Dependence_U,2023.2.3,Win32,60.97560975609215,,,,,,2832.934899999977,175.0,7.0,2832.935100000024,175.0,,,,2836.4955000000004,2836.9946999999884,2835.9791999999884,2836.4953999999766,2833.9473999999764,2835.979100000024,2836.994800000012,2837.494300000012,2837.4943999999764,2839.2428000000123,1129.0,2839.2428999999765,4.0,2839.2430000000004,7.0,27.0,237.0,6.0,1.0,1.0,0.7,Time
,,S13,785063,1,male,23,anonymized,Serial_Dependence_U,2023.2.3,Win32,60.97560975609215,,,,,,2839.243399999976,264.0,7.0,2839.243600000024,264.0,,,,2842.840100000024,2843.3395,2842.323899999976,2842.840100000024,2840.259,2842.323800000012,2843.3395,2843.839100000024,2843.839100000024,2845.3385000000003,1039.0,2845.338600000024,3.0,2845.3390000000004,7.0,28.0,238.0,1.0,1.0,1.0,0.3,Time
,,S13,785063,1,male,23,anonymized,Serial_Dependence_U,2023.2.3,Win32,60.97560975609215,,,,,,2845.3393000000124,120.0,7.0,2845.3395,120.0,,,,2849.334600000024,2849.8338999999764,2848.8185000000003,2849.3345000000004,2846.353800000012,2848.8185000000003,2849.8338999999764,2850.3338999999764,2850.3338999999764,2852.1488999999765,1306.0,2852.1490000000003,2.0,2852.1491999999885,7.0,29.0,239.0,23.0,1.0,1.4,0.3,Time
,,S13,785063,1,male,23,anonymized,Serial_Dependence_U,2023.2.3,Win32,60.97560975609215,,,,,,2852.1496000000243,349.0,8.0,2915.230199999988,349.0,s,63.05930000001172,,2918.7940000000003,2919.2933999999764,2918.277800000012,2918.7938999999765,2916.246800000012,2918.277600000024,2919.2933999999764,2919.793100000024,2919.793199999988,2921.3753999999763,1128.0,2921.3753999999763,4.0,2921.375699999988,8.0,0.0,240.0,26.0,1.0,1.0,0.7,Time
,,S13,785063,1,male,23,anonymized,Serial_Dependence_U,2023.2.3,Win32,60.97560975609215,,,,,,2921.3758999999764,162.0,8.0,2921.3771999999885,162.0,,,,2924.772800000012,2925.2715000000003,2924.2565000000004,2924.772699999988,2922.3913999999763,2924.256399999977,2925.2715000000003,2925.7715000000003,2925.7715000000003,2926.6876000000243,507.0,2926.6876000000243,1.0,2926.687800000012,8.0,1.0,241.0,20.0,1.0,0.8,0.3,Time
,,S13,785063,1,male,23,anonymized,Serial_Dependence_U,2023.2.3,Win32,60.97560975609215,,,,,,2926.688,141.0,8.0,2926.688199999988,141.0,,,,2930.484600000024,2930.9836999999884,2929.9686999999885,2930.484600000024,2927.7041999999883,2929.9686000000243,2930.9836999999884,2931.4835000000003,2931.4835000000003,2933.318600000024,1392.0,2933.3186999999884,4.0,2933.318899999977,8.0,2.0,242.0,2.0,1.0,1.2,0.3,Time
,,S13,785063,1,male,23,anonymized,Serial_Dependence_U,2023.2.3,Win32,60.97560975609215,,,,,,2933.3191000000243,236.0,8.0,2933.319300000012,236.0,,,,2936.679600000024,2937.178699999988,2936.168,2936.6795,2934.331600000024,2936.1678999999763,2937.178699999988,2937.6780000000003,2937.6780000000003,2939.214600000024,1146.0,2939.214699999988,5.0,2939.2148999999763,8.0,3.0,243.0,5.0,1.0,0.8,0.7,Time
,,S13,785063,1,male,23,anonymized,Serial_Dependence_U,2023.2.3,Win32,60.97560975609215,,,,,,2939.2151999999883,259.0,8.0,2939.2153999999764,259.0,,,,2943.1906999999883,2943.6896999999885,2942.674600000024,2943.190600000024,2940.2138000000123,2942.6745,2943.6896999999885,2944.189399999977,2944.189399999977,2945.9590000000003,1731.0,2945.959100000024,4.0,2945.9591999999884,8.0,4.0,244.0,13.0,1.0,1.4,0.3,Time
,,S13,785063,1,male,23,anonymized,Serial_Dependence_U,2023.2.3,Win32,60.97560975609215,,,,,,2945.9593999999765,30.0,8.0,2945.959600000024,30.0,,,,2950.1523999999763,2950.650800000012,2949.6355000000003,2950.152199999988,2946.9710000000005,2949.6355000000003,2950.6508999999764,2951.1505,2951.150600000024,2953.5486999999885,1910.0,2953.5488000000123,4.0,2953.5490000000004,8.0,5.0,245.0,4.0,1.0,1.6,0.3,Time
,,S13,785063,1,male,23,anonymized,Serial_Dependence_U,2023.2.3,Win32,60.97560975609215,,,,,,2953.549199999988,331.0,8.0,2953.549399999976,331.0,,,,2957.7286999999883,2958.228100000024,2957.2125,2957.728600000024,2954.565199999988,2957.212399999976,2958.228100000024,2958.7275000000004,2958.7276000000243,2961.280300000012,1670.0,2961.280300000012,3.0,2961.2805000000003,8.0,6.0,246.0,29.0,1.0,1.6,0.7,Time
,,S13,785063,1,male,23,anonymized,Serial_Dependence_U,2023.2.3,Win32,60.97560975609215,,,,,,2961.2806999999884,78.0,8.0,2961.280899999977,78.0,,,,2964.8728000000124,2965.3721999999884,2964.3570000000004,2964.8726999999885,2962.2918999999765,2964.3568000000123,2965.3723000000123,2965.8715,2965.8715,2967.3588000000123,1098.0,2967.3588000000123,4.0,2967.359100000024,8.0,7.0,247.0,11.0,1.0,1.0,0.3,Time
,,S13,785063,1,male,23,anonymized,Serial_Dependence_U,2023.2.3,Win32,60.97560975609215,,,,,,2967.359399999976,1.0,8.0,2967.3595,1.0,,,,2970.9515,2971.4505000000004,2970.4351999999885,2970.9513999999763,2968.369800000012,2970.435100000024,2971.4505000000004,2971.9501999999884,2971.9501999999884,2973.632199999988,1233.0,2973.632199999988,4.0,2973.6323999999763,8.0,8.0,248.0,21.0,1.0,1.0,0.3,Time
,,S13,785063,1,male,23,anonymized,Serial_Dependence_U,2023.2.3,Win32,60.97560975609215,,,,,,2973.6326999999883,228.0,8.0,2973.6330000000003,228.0,,,,2977.029399999976,2977.5288000000123,2976.5133000000124,2977.029300000012,2974.648100000024,2976.5131999999885,2977.5288000000123,2978.0283999999765,2978.0283999999765,2979.598699999988,1000.0,2979.598800000012,4.0,2979.599,8.0,9.0,249.0,0.0,1.0,0.8,0.3,Time
,,S13,785063,1,male,23,anonymized,Serial_Dependence_U,2023.2.3,Win32,60.97560975609215,,,,,,2979.599300000012,124.0,8.0,2979.5993999999764,124.0,,,,2983.391199999988,2983.8903000000123,2982.8751000000243,2983.391100000024,2980.6098999999763,2982.8750000000005,2983.8903000000123,2984.3901999999885,2984.3901999999885,2985.976300000012,1221.0,2985.976300000012,3.0,2985.9765,8.0,10.0,250.0,12.0,1.0,1.2,0.3,Time
,,S13,785063,1,male,23,anonymized,Serial_Dependence_U,2023.2.3,Win32,60.97560975609215,,,,,,2985.9766999999883,170.0,8.0,2985.9768999999765,170.0,,,,2989.7361999999885,2990.235100000024,2989.219600000024,2989.7360000000003,2986.988100000024,2989.219600000024,2990.235100000024,2990.7348999999763,2990.735,2992.604300000012,1514.0,2992.6043999999765,4.0,2992.6045000000004,8.0,11.0,251.0,27.0,1.0,1.2,0.7,Time
,,S13,785063,1,male,23,anonymized,Serial_Dependence_U,2023.2.3,Win32,60.97560975609215,,,,,,2992.6046999999885,32.0,8.0,2992.6048000000123,32.0,,,,2996.197100000024,2996.6963999999766,2995.681,2996.197100000024,2993.6158999999766,2995.680899999976,2996.6963999999766,2997.195800000012,2997.195800000012,2998.650100000024,1172.0,2998.650199999988,4.0,2998.6505,8.0,12.0,252.0,1.0,1.0,1.0,0.3,Time
