Scale_setup.started,Scale_setup.stopped,participant,expid,session,sex,age,date,expName,psychopyVersion,OS,frameRate,Intro.started,Intro.stopped,key_resp_2.keys,key_resp_2.rt,key_resp_2.duration,block.started,direction,Block_id,block.stopped,trial_direction,Block_resp_2.keys,Block_resp_2.rt,Block_resp_2.duration,ITI.started,ITI.stopped,Mask_2.started,Mask_2.stopped,encoding.started,encoding.stopped,Cue.started,Cue.stopped,Response.started,Response.stopped,keyDuration,Feedback_Time.started,FeedbackID_T,Feedback_Time.stopped,trials.thisRepN,trials.thisTrialN,trials.thisN,trials.thisIndex,trials.ran,TimeDur,Coherence1,TrialType
0.0001999999880837,0.0003000000119257,S14,785667,1,M,23,anonymized,Serial_Dependence_U,2023.2.3,Win32,119.04761904759845,,,,,,,,,,,,,,,,,,,,,,,,,,,,,,,,,,,
,,S14,785667,1,M,23,anonymized,Serial_Dependence_U,2023.2.3,Win32,119.04761904759845,14.25969999998808,15.36,space,1.0781999999880796,,,,,,,,,,,,,,,,,,,,,,,,,,,,,,,
,,S14,785667,1,M,23,anonymized,Serial_Dependence_U,2023.2.3,Win32,119.04761904759845,,,,,,15.364800000011924,178.0,0.0,16.436199999988084,178.0,s,1.060799999952316,,19.804600000023846,20.30789999997616,19.30189999997616,19.80419999998808,17.43569999998808,19.301500000000004,20.30810000002384,20.80560000002385,20.80580000001192,21.967199999988075,911.0,21.96750000000001,4.0,22.96219999998808,0.0,0.0,0.0,0.0,1.0,0.8,0.3,Time
,,S14,785667,1,M,23,anonymized,Serial_Dependence_U,2023.2.3,Win32,119.04761904759845,,,,,,22.9625,222.0,0.0,22.96469999998808,222.0,,,,26.312500000000007,26.81110000002385,25.80719999998808,26.31210000002384,23.971,25.80669999998808,26.811199999988084,27.310600000023847,27.31069999998808,28.599,996.0,28.59910000002385,4.0,29.59189999997616,0.0,1.0,1.0,5.0,1.0,0.8,0.7,Time
,,S14,785667,1,M,23,anonymized,Serial_Dependence_U,2023.2.3,Win32,119.04761904759845,,,,,,29.592199999988075,94.0,0.0,29.592199999988075,94.0,,,,33.53219999998809,34.026500000000006,33.029,33.53180000001192,30.59589999997616,33.028899999976154,34.026699999988075,34.53010000002384,34.53019999998808,35.793,1077.0,35.79310000002385,2.0,36.79280000001193,0.0,2.0,2.0,18.0,1.0,1.4,0.7,Time
,,S14,785667,1,M,23,anonymized,Serial_Dependence_U,2023.2.3,Win32,119.04761904759845,,,,,,36.793,191.0,0.0,36.79310000002385,191.0,,,,40.53219999998809,41.02969999998808,40.0305,40.53189999997616,37.794800000011925,40.02989999997616,41.029800000011925,41.528,41.528,43.05880000001192,1183.0,43.05880000001192,3.0,44.05739999997616,0.0,3.0,3.0,27.0,1.0,1.2,0.7,Time
,,S14,785667,1,M,23,anonymized,Serial_Dependence_U,2023.2.3,Win32,119.04761904759845,,,,,,44.058,29.0,0.0,44.05819999998808,29.0,,,,47.83360000002384,48.33019999998808,47.32530000001193,47.83360000002384,45.05519999998808,47.32519999998808,48.33019999998808,48.82880000001192,48.828899999976166,50.27189999997616,1342.0,50.272,4.0,51.27319999998809,0.0,4.0,4.0,2.0,1.0,1.2,0.3,Time
,,S14,785667,1,M,23,anonymized,Serial_Dependence_U,2023.2.3,Win32,119.04761904759845,,,,,,51.27389999997616,166.0,0.0,51.27430000001193,166.0,,,,55.040699999988085,55.53989999997616,54.53639999997616,55.04039999997617,52.275,54.53619999998808,55.53989999997616,56.04310000002385,56.04319999998808,57.83730000001193,1593.0,57.83730000001193,5.0,58.83560000002384,0.0,5.0,5.0,12.0,1.0,1.2,0.3,Time
,,S14,785667,1,M,23,anonymized,Serial_Dependence_U,2023.2.3,Win32,119.04761904759845,,,,,,58.83580000001192,359.0,0.0,58.83589999997616,359.0,,,,62.59989999997617,63.09869999998808,62.09660000002385,62.59960000002385,59.83389999997616,62.09630000001193,63.09880000001193,63.59539999997616,63.59550000000001,65.04810000002385,1352.0,65.04819999998807,4.0,66.04580000001192,0.0,6.0,6.0,22.0,1.0,1.2,0.3,Time
,,S14,785667,1,M,23,anonymized,Serial_Dependence_U,2023.2.3,Win32,119.04761904759845,,,,,,66.04650000000001,188.0,0.0,66.04680000001193,188.0,,,,70.01619999998809,70.511,69.5075,70.01589999997617,67.04480000001192,69.50710000002385,70.511,71.00260000002385,71.00260000002385,72.51019999998809,1225.0,72.51039999997616,2.0,73.50430000001191,0.0,7.0,7.0,13.0,1.0,1.4,0.3,Time
,,S14,785667,1,M,23,anonymized,Serial_Dependence_U,2023.2.3,Win32,119.04761904759845,,,,,,73.50510000002384,53.0,0.0,73.50530000001191,53.0,,,,77.67319999998807,78.1705,77.16530000001191,77.67310000002385,74.50300000000001,77.16489999997617,78.17060000002385,78.66930000001193,78.66939999997615,80.31680000001191,1383.0,80.31689999997616,2.0,81.315,0.0,8.0,8.0,4.0,1.0,1.6,0.3,Time
,,S14,785667,1,M,23,anonymized,Serial_Dependence_U,2023.2.3,Win32,119.04761904759845,,,,,,81.31569999998808,174.0,0.0,81.31580000001193,174.0,,,,84.65710000002383,85.15239999997615,84.15480000001193,84.65680000001191,82.31760000002384,84.15469999998808,85.1525,85.64639999997615,85.64660000002382,87.08680000001192,1150.0,87.08689999997614,5.0,88.08710000002384,0.0,9.0,9.0,15.0,1.0,0.8,0.7,Time
,,S14,785667,1,M,23,anonymized,Serial_Dependence_U,2023.2.3,Win32,119.04761904759845,,,,,,88.08780000001192,10.0,0.0,88.08789999997614,10.0,,,,91.82910000002384,92.32819999998809,91.32680000001191,91.82880000001192,89.09219999998808,91.32660000002384,92.32819999998809,92.83069999998808,92.83080000001192,94.76160000002383,1146.0,94.7618000000119,3.0,95.76089999997616,0.0,10.0,10.0,7.0,1.0,1.2,0.7,Time
,,S14,785667,1,M,23,anonymized,Serial_Dependence_U,2023.2.3,Win32,119.04761904759845,,,,,,95.76160000002383,330.0,0.0,95.76169999998808,330.0,,,,99.90769999998808,100.40430000001192,99.40010000002384,99.90739999997616,96.7653000000119,99.39980000001192,100.40430000001192,100.90369999998808,100.90369999998808,102.62719999998808,1411.0,102.62730000001191,2.0,103.62210000002383,0.0,11.0,11.0,19.0,1.0,1.6,0.7,Time
,,S14,785667,1,M,23,anonymized,Serial_Dependence_U,2023.2.3,Win32,119.04761904759845,,,,,,103.62269999998809,340.0,0.0,103.623,340.0,,,,107.16319999998808,107.65939999997616,106.66169999998807,107.16319999998808,104.63049999999998,106.66130000001192,107.65939999997616,108.16060000002383,108.16069999998808,109.71710000002383,1352.0,109.71710000002383,5.0,110.72180000001192,0.0,12.0,12.0,6.0,1.0,1.0,0.7,Time
,,S14,785667,1,M,23,anonymized,Serial_Dependence_U,2023.2.3,Win32,119.04761904759845,,,,,,110.72189999997616,334.0,0.0,110.72210000002384,334.0,,,,114.69210000002384,115.19089999997615,114.18380000001191,114.692,111.72299999999998,114.18369999998808,115.191,115.68930000001193,115.68939999997616,117.52080000001192,1454.0,117.52089999997617,3.0,118.51880000001192,0.0,13.0,13.0,3.0,1.0,1.4,0.3,Time
,,S14,785667,1,M,23,anonymized,Serial_Dependence_U,2023.2.3,Win32,119.04761904759845,,,,,,118.51930000001192,81.0,0.0,118.51960000002384,81.0,,,,122.499,122.99689999997616,121.99080000001192,122.49860000002384,119.5238000000119,121.99030000001191,122.99689999997616,123.49310000002384,123.49319999998806,125.2325,1450.0,125.23260000002384,3.0,126.22710000002382,0.0,14.0,14.0,23.0,1.0,1.4,0.3,Time
,,S14,785667,1,M,23,anonymized,Serial_Dependence_U,2023.2.3,Win32,119.04761904759845,,,,,,126.22769999998806,131.0,0.0,126.22789999997616,131.0,,,,129.78169999998806,130.2731999999881,129.273,129.78139999997614,127.2365,129.27289999997615,130.2731999999881,130.7715,130.77160000002382,132.25639999997614,1070.0,132.2565,4.0,133.25830000001193,0.0,15.0,15.0,26.0,1.0,1.0,0.7,Time
,,S14,785667,1,M,23,anonymized,Serial_Dependence_U,2023.2.3,Win32,119.04761904759845,,,,,,133.25880000001192,310.0,0.0,133.259,310.0,,,,136.82330000001193,137.31839999997615,136.32069999998808,136.82289999997616,134.25839999997615,136.32060000002383,137.3185,137.81539999997617,137.8155,139.13960000002385,1026.0,139.13969999998807,3.0,140.13869999998806,0.0,16.0,16.0,11.0,1.0,1.0,0.3,Time
,,S14,785667,1,M,23,anonymized,Serial_Dependence_U,2023.2.3,Win32,119.04761904759845,,,,,,140.13930000001193,258.0,0.0,140.1395,258.0,,,,144.31739999997615,144.8131999999881,143.81130000001193,144.31730000001193,141.14849999999998,143.81089999997616,144.8131999999881,145.3095,145.30969999998808,147.01999999999998,1353.0,147.02030000001193,2.0,148.02410000002385,0.0,17.0,17.0,24.0,1.0,1.6,0.3,Time
,,S14,785667,1,M,23,anonymized,Serial_Dependence_U,2023.2.3,Win32,119.04761904759845,,,,,,148.0246999999881,26.0,0.0,148.02489999997616,26.0,,,,151.971,152.4683000000119,151.46630000001193,151.97069999998808,149.02599999999998,151.46619999998808,152.46839999997616,152.96769999998807,152.96780000001192,154.89580000001192,1492.0,154.89580000001192,4.0,155.89580000001192,0.0,18.0,18.0,28.0,1.0,1.4,0.7,Time
,,S14,785667,1,M,23,anonymized,Serial_Dependence_U,2023.2.3,Win32,119.04761904759845,,,,,,155.8965,60.0,0.0,155.89669999998807,60.0,,,,159.47469999998808,159.97610000002385,158.97060000002384,159.4743000000119,156.89989999997616,158.97039999997617,159.97619999998807,160.47169999998806,160.4718000000119,161.92230000001192,1165.0,161.92239999997616,4.0,162.921,0.0,19.0,19.0,21.0,1.0,1.0,0.3,Time
,,S14,785667,1,M,23,anonymized,Serial_Dependence_U,2023.2.3,Win32,119.04761904759845,,,,,,162.92119999998806,232.0,0.0,162.9213000000119,232.0,,,,166.29969999998806,166.80280000001193,165.79169999998808,166.29939999997617,163.927,165.79149999999998,166.803,167.29739999997616,167.2975,168.76760000002383,1077.0,168.76769999998808,5.0,169.76819999998807,0.0,20.0,20.0,20.0,1.0,0.8,0.3,Time
,,S14,785667,1,M,23,anonymized,Serial_Dependence_U,2023.2.3,Win32,119.04761904759845,,,,,,169.7688000000119,278.0,0.0,169.769,278.0,,,,173.33660000002385,173.838,172.83189999997614,173.3363000000119,170.76889999997616,172.83160000002383,173.838,174.33460000002384,174.33460000002384,176.1265,1263.0,176.12660000002384,4.0,177.1255,0.0,21.0,21.0,1.0,1.0,1.0,0.3,Time
,,S14,785667,1,M,23,anonymized,Serial_Dependence_U,2023.2.3,Win32,119.04761904759845,,,,,,177.12619999998807,178.0,0.0,177.12639999997614,178.0,,,,181.2618000000119,181.7663000000119,180.75939999997613,181.26139999997616,178.12739999997615,180.759,181.7663000000119,182.265,182.26519999998808,183.71710000002383,1215.0,183.71710000002383,2.0,184.71669999998807,0.0,22.0,22.0,29.0,1.0,1.6,0.7,Time
,,S14,785667,1,M,23,anonymized,Serial_Dependence_U,2023.2.3,Win32,119.04761904759845,,,,,,184.7173000000119,25.0,0.0,184.71739999997612,25.0,,,,188.10410000002383,188.60010000002384,187.5966999999881,188.10369999998807,185.7275,187.5965,188.6001999999881,189.09760000002385,189.09769999998807,190.448,1080.0,190.44819999998808,5.0,191.44880000001191,0.0,23.0,23.0,10.0,1.0,0.8,0.3,Time
,,S14,785667,1,M,23,anonymized,Serial_Dependence_U,2023.2.3,Win32,119.04761904759845,,,,,,191.44939999997612,145.0,0.0,191.4495,145.0,,,,195.621,196.12110000002383,195.11680000001192,195.6206999999881,192.4561999999881,195.11669999998807,196.12110000002383,196.62169999998807,196.62169999998807,198.28469999998808,1286.0,198.28469999998808,2.0,199.28189999997616,0.0,24.0,24.0,14.0,1.0,1.6,0.3,Time
,,S14,785667,1,M,23,anonymized,Serial_Dependence_U,2023.2.3,Win32,119.04761904759845,,,,,,199.28230000001196,73.0,0.0,199.2825,73.0,,,,202.83710000002384,203.3313000000119,202.3311999999881,202.83680000001192,200.29430000001196,202.33110000002384,203.33139999997616,203.82980000001191,203.82980000001191,205.3346999999881,1331.0,205.3346999999881,5.0,206.335,0.0,25.0,25.0,16.0,1.0,1.0,0.7,Time
,,S14,785667,1,M,23,anonymized,Serial_Dependence_U,2023.2.3,Win32,119.04761904759845,,,,,,206.33560000002385,7.0,0.0,206.3356999999881,7.0,,,,210.4865,210.99010000002383,209.98089999997612,210.48610000002384,207.349,209.9805,210.99019999998808,211.4875,211.48760000002383,212.98519999998803,1230.0,212.98519999998803,2.0,213.985,0.0,26.0,26.0,9.0,1.0,1.6,0.7,Time
,,S14,785667,1,M,23,anonymized,Serial_Dependence_U,2023.2.3,Win32,119.04761904759845,,,,,,213.986,78.0,0.0,213.98610000002375,78.0,,,,217.73389999997613,218.2336999999881,217.22580000001187,217.7335,214.98830000001183,217.225699999988,218.2338000000119,218.73139999997613,218.73139999997613,220.4786000000238,1049.0,220.4786000000238,2.0,221.47319999998803,0.0,27.0,27.0,17.0,1.0,1.2,0.7,Time
,,S14,785667,1,M,23,anonymized,Serial_Dependence_U,2023.2.3,Win32,119.04761904759845,,,,,,221.47349999999997,268.0,0.0,221.4736000000238,268.0,,,,225.42330000001184,225.92110000002376,224.9163999999761,225.42299999999997,222.4748000000119,224.91619999998807,225.9211999999881,226.41689999997607,226.41689999997607,227.984,1269.0,227.98410000002383,2.0,228.98139999997613,0.0,28.0,28.0,8.0,1.0,1.4,0.7,Time
,,S14,785667,1,M,23,anonymized,Serial_Dependence_U,2023.2.3,Win32,119.04761904759845,,,,,,228.982,355.0,0.0,228.98219999998804,355.0,,,,232.32430000001187,232.82480000001183,231.8225,232.324,229.9823000000119,231.82230000001184,232.8248999999761,233.32,233.3201999999881,234.70630000001188,1081.0,234.70630000001188,5.0,235.7048999999761,0.0,29.0,29.0,25.0,1.0,0.8,0.7,Time
,,S14,785667,1,M,23,anonymized,Serial_Dependence_U,2023.2.3,Win32,119.04761904759845,,,,,,235.7055,308.0,1.0,366.445,308.0,s,130.7265,,370.1883000000119,370.6808999999761,369.6851000000238,370.1883000000119,367.447,369.68489999997615,370.6808999999761,371.18039999997615,371.1805,372.8231000000238,1100.0,372.8231000000238,2.0,372.8233000000119,1.0,0.0,30.0,7.0,1.0,1.2,0.7,Time
,,S14,785667,1,M,23,anonymized,Serial_Dependence_U,2023.2.3,Win32,119.04761904759845,,,,,,372.8236000000238,203.0,1.0,372.82469999998807,203.0,,,,376.799,377.29819999998807,376.29410000002383,376.79869999998806,373.82719999998807,376.2938000000119,377.29819999998807,377.7933000000119,377.7933000000119,379.553,1306.0,379.5531000000238,2.0,379.5533000000119,1.0,1.0,31.0,3.0,1.0,1.4,0.3,Time
,,S14,785667,1,M,23,anonymized,Serial_Dependence_U,2023.2.3,Win32,119.04761904759845,,,,,,379.55369999998805,245.0,1.0,379.55369999998805,245.0,,,,383.7011000000238,384.2001000000238,383.1928000000119,383.7008000000119,380.5616000000238,383.19239999997615,384.20019999998806,384.701699999988,384.70189999997615,386.7218000000119,1550.0,386.7218999999761,3.0,386.72210000002383,1.0,2.0,32.0,19.0,1.0,1.6,0.7,Time
,,S14,785667,1,M,23,anonymized,Serial_Dependence_U,2023.2.3,Win32,119.04761904759845,,,,,,386.7223000000119,332.0,1.0,386.7223999999761,332.0,,,,390.8693000000119,391.369699999988,390.3683999999761,390.869199999988,387.7343999999761,390.36819999998806,391.369699999988,391.8688999999761,391.8691000000238,393.3168000000119,1175.0,393.3168999999761,2.0,393.3171000000238,1.0,3.0,33.0,9.0,1.0,1.6,0.7,Time
,,S14,785667,1,M,23,anonymized,Serial_Dependence_U,2023.2.3,Win32,119.04761904759845,,,,,,393.3175,258.0,1.0,393.3176000000238,258.0,,,,397.0916000000238,397.5893000000119,396.5861000000238,397.0915,394.32439999997615,396.586,397.58939999997614,398.08919999998807,398.08919999998807,399.78210000002383,1283.0,399.78210000002383,4.0,399.7823000000119,1.0,4.0,34.0,12.0,1.0,1.2,0.3,Time
,,S14,785667,1,M,23,anonymized,Serial_Dependence_U,2023.2.3,Win32,119.04761904759845,,,,,,399.7825,225.0,1.0,399.7826000000238,225.0,,,,403.1603000000119,403.6598999999761,402.6563000000119,403.160199999988,400.787,402.656199999988,403.66,404.1625,404.1625,405.6933000000119,1212.0,405.6933999999761,5.0,405.6935,1.0,5.0,35.0,0.0,1.0,0.8,0.3,Time
,,S14,785667,1,M,23,anonymized,Serial_Dependence_U,2023.2.3,Win32,119.04761904759845,,,,,,405.693699999988,124.0,1.0,405.693699999988,124.0,,,,409.6313999999761,410.129199999988,409.1283000000119,409.6311000000238,406.6938000000119,409.12789999997614,410.129199999988,410.6256000000238,410.6256000000238,412.4933999999761,1571.0,412.4935,4.0,412.49360000002383,1.0,6.0,36.0,18.0,1.0,1.4,0.7,Time
,,S14,785667,1,M,23,anonymized,Serial_Dependence_U,2023.2.3,Win32,119.04761904759845,,,,,,412.49369999998805,297.0,1.0,412.4938000000119,297.0,,,,416.4863000000119,416.9851000000238,415.9748000000119,416.48619999998806,413.5061000000238,415.9745,416.9851000000238,417.4826000000238,417.4826000000238,419.3673999999761,1521.0,419.3675,4.0,419.3676000000238,1.0,7.0,37.0,23.0,1.0,1.4,0.3,Time
,,S14,785667,1,M,23,anonymized,Serial_Dependence_U,2023.2.3,Win32,119.04761904759845,,,,,,419.3678000000119,38.0,1.0,419.3678000000119,38.0,,,,422.9468000000119,423.4416000000238,422.4416000000238,422.9465,420.3808999999761,422.4415,423.441699999988,423.9363999999761,423.9363999999761,425.4573999999761,1225.0,425.4573999999761,4.0,425.4575,1.0,8.0,38.0,11.0,1.0,1.0,0.3,Time
,,S14,785667,1,M,23,anonymized,Serial_Dependence_U,2023.2.3,Win32,119.04761904759845,,,,,,425.45760000002383,78.0,1.0,425.4576999999881,78.0,,,,428.8286000000238,429.326699999988,428.324199999988,428.828199999988,426.4633999999761,428.3241000000238,429.326699999988,429.8248000000119,429.825,431.6791000000238,1451.0,431.6791000000238,5.0,431.679199999988,1.0,9.0,39.0,20.0,1.0,0.8,0.3,Time
,,S14,785667,1,M,23,anonymized,Serial_Dependence_U,2023.2.3,Win32,119.04761904759845,,,,,,431.6793999999761,125.0,1.0,431.6795,125.0,,,,435.2255,435.7283000000119,434.724,435.2253999999761,432.6818999999761,434.7238000000119,435.7283000000119,436.228199999988,436.2283000000119,437.7481000000238,1224.0,437.7481000000238,4.0,437.74819999998806,1.0,10.0,40.0,6.0,1.0,1.0,0.7,Time
,,S14,785667,1,M,23,anonymized,Serial_Dependence_U,2023.2.3,Win32,119.04761904759845,,,,,,437.7483999999761,215.0,1.0,437.7485,215.0,,,,441.088,441.58719999998806,440.5848000000119,441.0876000000238,438.75239999997615,440.58439999997614,441.5873000000119,442.09189999997614,442.092,443.7638000000119,1410.0,443.7638000000119,5.0,443.764,1.0,11.0,41.0,25.0,1.0,0.8,0.7,Time
,,S14,785667,1,M,23,anonymized,Serial_Dependence_U,2023.2.3,Win32,119.04761904759845,,,,,,443.7641000000238,178.0,1.0,443.764199999988,178.0,,,,447.9393000000119,448.4421000000238,447.43769999998807,447.9391000000238,444.7688000000119,447.4376000000238,448.4421000000238,448.9418000000119,448.9418000000119,451.04339999997615,1757.0,451.0435,4.0,451.04369999998806,1.0,12.0,42.0,4.0,1.0,1.6,0.3,Time
,,S14,785667,1,M,23,anonymized,Serial_Dependence_U,2023.2.3,Win32,119.04761904759845,,,,,,451.04410000002383,223.0,1.0,451.0443000000119,223.0,,,,454.7841000000238,455.28419999998806,454.282,454.78389999997614,452.0478000000119,454.2816000000238,455.2843000000119,455.788,455.7881000000238,457.874699999988,1797.0,457.874699999988,5.0,457.87489999997615,1.0,13.0,43.0,17.0,1.0,1.2,0.7,Time
,,S14,785667,1,M,23,anonymized,Serial_Dependence_U,2023.2.3,Win32,119.04761904759845,,,,,,457.8753000000119,284.0,1.0,457.87539999997614,284.0,,,,461.2128999999761,461.708,460.7116000000238,461.2125,458.8746000000238,460.7115,461.708,462.211,462.2111000000238,464.0158000000119,1558.0,464.0158999999761,5.0,464.016,1.0,14.0,44.0,15.0,1.0,0.8,0.7,Time
,,S14,785667,1,M,23,anonymized,Serial_Dependence_U,2023.2.3,Win32,119.04761904759845,,,,,,464.0161000000238,238.0,1.0,464.016199999988,238.0,,,,468.17869999998805,468.675,467.6741999999881,468.17839999997614,465.01189999997615,467.6738000000119,468.675,469.1723999999761,469.1723999999761,471.296,1833.0,471.29610000002384,4.0,471.2963000000119,1.0,15.0,45.0,14.0,1.0,1.6,0.3,Time
,,S14,785667,1,M,23,anonymized,Serial_Dependence_U,2023.2.3,Win32,119.04761904759845,,,,,,471.29680000001184,50.0,1.0,471.2968999999761,50.0,,,,475.4686000000239,475.9693000000119,474.96,475.468199999988,472.2948000000119,474.959699999988,475.9693000000119,476.4773000000119,476.4773000000119,478.8395,2014.0,478.8395,4.0,478.839699999988,1.0,16.0,46.0,24.0,1.0,1.6,0.3,Time
,,S14,785667,1,M,23,anonymized,Serial_Dependence_U,2023.2.3,Win32,119.04761904759845,,,,,,478.8401000000238,288.0,1.0,478.8401999999881,288.0,,,,482.3946000000238,482.89949999999993,481.8901000000238,482.3941999999881,479.8555,481.8898999999761,482.8996000000238,483.4031000000238,483.4031000000238,485.182,1501.0,485.1821000000238,5.0,485.182300000012,1.0,17.0,47.0,16.0,1.0,1.0,0.7,Time
,,S14,785667,1,M,23,anonymized,Serial_Dependence_U,2023.2.3,Win32,119.04761904759845,,,,,,485.1826999999881,254.0,1.0,485.1828000000119,254.0,,,,488.5293000000119,489.02060000002376,488.022,488.5288999999761,486.186199999988,488.021699999988,489.02060000002376,489.5201000000238,489.5201000000238,491.4226000000238,1597.0,491.4226999999881,5.0,491.42280000001193,1.0,18.0,48.0,5.0,1.0,0.8,0.7,Time
,,S14,785667,1,M,23,anonymized,Serial_Dependence_U,2023.2.3,Win32,119.04761904759845,,,,,,491.423,232.0,1.0,491.4231000000238,232.0,,,,495.1656000000239,495.667,494.658,495.1655,492.4218999999761,494.6576999999881,495.6671000000238,496.1643000000119,496.1644999999999,498.2256000000238,1812.0,498.2256000000238,5.0,498.22580000001193,1.0,19.0,49.0,27.0,1.0,1.2,0.7,Time
,,S14,785667,1,M,23,anonymized,Serial_Dependence_U,2023.2.3,Win32,119.04761904759845,,,,,,498.226,344.0,1.0,498.2261000000238,344.0,,,,502.0,502.5041999999881,501.4986000000238,502.0,499.2333000000119,501.4983000000119,502.5041999999881,503.00019999998807,503.00019999998807,504.6273000000119,1311.0,504.62739999997615,4.0,504.6275,1.0,20.0,50.0,22.0,1.0,1.2,0.3,Time
,,S14,785667,1,M,23,anonymized,Serial_Dependence_U,2023.2.3,Win32,119.04761904759845,,,,,,504.62810000002384,348.0,1.0,504.62810000002384,348.0,,,,508.2098000000119,508.7079999999999,507.7063999999761,508.2095,505.6398999999761,507.7061000000238,508.70810000002376,509.2028000000119,509.20289999997607,511.1503999999762,1632.0,511.1505,5.0,511.1508000000119,1.0,21.0,51.0,21.0,1.0,1.0,0.3,Time
,,S14,785667,1,M,23,anonymized,Serial_Dependence_U,2023.2.3,Win32,119.04761904759845,,,,,,511.151199999988,313.0,1.0,511.15139999997615,313.0,,,,515.302,515.797300000012,514.793800000012,515.3016999999882,512.1578000000119,514.7936000000238,515.797300000012,516.3006999999881,516.3006999999881,518.8026000000239,2222.0,518.8026999999881,5.0,518.803,1.0,22.0,52.0,29.0,1.0,1.6,0.7,Time
,,S14,785667,1,M,23,anonymized,Serial_Dependence_U,2023.2.3,Win32,119.04761904759845,,,,,,518.8035,74.0,1.0,518.8036000000238,74.0,,,,522.7518999999762,523.2415,522.2466999999881,522.7518000000119,519.8108999999762,522.2465,523.2415,523.7428000000119,523.7428000000119,526.2718999999762,2143.0,526.2718999999762,5.0,526.272,1.0,23.0,53.0,8.0,1.0,1.4,0.7,Time
,,S14,785667,1,M,23,anonymized,Serial_Dependence_U,2023.2.3,Win32,119.04761904759845,,,,,,526.2721000000239,96.0,1.0,526.2721999999881,96.0,,,,530.0428999999762,530.5421999999882,529.5381000000239,530.0426999999881,527.2763000000119,529.5376999999881,530.5421999999882,531.0411999999881,531.0413000000119,532.9455,1535.0,532.9456000000239,4.0,532.946,1.0,24.0,54.0,2.0,1.0,1.2,0.3,Time
,,S14,785667,1,M,23,anonymized,Serial_Dependence_U,2023.2.3,Win32,119.04761904759845,,,,,,532.9466000000239,160.0,1.0,532.9466999999881,160.0,,,,536.8891999999881,537.3841999999881,536.3826999999881,536.8888999999762,533.9476999999881,536.3826000000239,537.3841999999881,537.8878000000119,537.8878000000119,540.0648000000119,1823.0,540.0648000000119,5.0,540.0648999999762,1.0,25.0,55.0,28.0,1.0,1.4,0.7,Time
,,S14,785667,1,M,23,anonymized,Serial_Dependence_U,2023.2.3,Win32,119.04761904759845,,,,,,540.0651999999881,103.0,1.0,540.0653000000119,103.0,,,,543.6105,544.1051000000239,543.104199999988,543.610300000012,541.0711000000239,543.1041000000239,544.1051000000239,544.601,544.6011000000238,546.1938999999762,1359.0,546.1938999999762,5.0,546.1941000000238,1.0,26.0,56.0,26.0,1.0,1.0,0.7,Time
,,S14,785667,1,M,23,anonymized,Serial_Dependence_U,2023.2.3,Win32,119.04761904759845,,,,,,546.1945000000001,165.0,1.0,546.1946999999881,165.0,,,,549.7716000000239,550.2728999999762,549.2691000000239,549.7715000000001,547.2028999999761,549.2688999999762,550.2728999999762,550.7716000000239,550.7716999999881,552.8303999999762,1529.0,552.8303999999762,5.0,552.8305,1.0,27.0,57.0,1.0,1.0,1.0,0.3,Time
,,S14,785667,1,M,23,anonymized,Serial_Dependence_U,2023.2.3,Win32,119.04761904759845,,,,,,552.8306000000239,156.0,1.0,552.8306999999882,156.0,,,,556.2051000000239,556.7016000000239,555.7021999999881,556.2046999999881,553.8376999999881,555.701800000012,556.7016999999881,557.1991000000239,557.1991999999881,558.767,1169.0,558.7671000000239,5.0,558.7671999999881,1.0,28.0,58.0,10.0,1.0,0.8,0.3,Time
,,S14,785667,1,M,23,anonymized,Serial_Dependence_U,2023.2.3,Win32,119.04761904759845,,,,,,558.7673999999762,131.0,1.0,558.7675,131.0,,,,562.7425000000001,563.2433999999762,562.2401999999881,562.7421000000238,559.7785,562.2398999999762,563.2435,563.7455,563.7455,565.5403999999762,1418.0,565.5403999999762,3.0,565.5405000000001,1.0,29.0,59.0,13.0,1.0,1.4,0.3,Time
,,S14,785667,1,M,23,anonymized,Serial_Dependence_U,2023.2.3,Win32,119.04761904759845,,,,,,565.5406999999881,50.0,2.0,607.4431000000238,50.0,s,41.893699999988144,,610.7941999999881,611.2923000000119,610.2826000000239,610.794,608.4488999999762,610.2825,611.2923999999762,611.7856000000239,611.7856000000239,613.2228999999762,1056.0,613.2228999999762,5.0,613.2230000000001,2.0,0.0,60.0,15.0,1.0,0.8,0.7,Time
,,S14,785667,1,M,23,anonymized,Serial_Dependence_U,2023.2.3,Win32,119.04761904759845,,,,,,613.2233999999762,17.0,2.0,613.2241000000239,17.0,,,,616.7683000000119,617.2633999999762,616.2631000000239,616.768,614.2228999999762,616.2628999999762,617.2635,617.765800000012,617.7658999999762,619.5535,1456.0,619.5536000000238,5.0,619.5538999999762,2.0,1.0,61.0,26.0,1.0,1.0,0.7,Time
,,S14,785667,1,M,23,anonymized,Serial_Dependence_U,2023.2.3,Win32,119.04761904759845,,,,,,619.5541999999881,130.0,2.0,619.554300000012,130.0,,,,623.1021000000238,623.6031000000239,622.597,623.101800000012,620.5601000000239,622.5966999999881,623.6031000000239,624.0963999999761,624.0963999999761,625.6856000000239,1327.0,625.6856999999881,5.0,625.6858000000119,2.0,2.0,62.0,6.0,1.0,1.0,0.7,Time
,,S14,785667,1,M,23,anonymized,Serial_Dependence_U,2023.2.3,Win32,119.04761904759845,,,,,,625.686,118.0,2.0,625.686199999988,118.0,,,,629.4598999999762,629.9608999999762,628.9558000000119,629.4596000000239,626.6928999999761,628.9553999999762,629.9608999999762,630.4581000000238,630.4581000000238,631.9676000000238,1214.0,631.9676000000238,3.0,631.9678999999762,2.0,3.0,63.0,2.0,1.0,1.2,0.3,Time
,,S14,785667,1,M,23,anonymized,Serial_Dependence_U,2023.2.3,Win32,119.04761904759845,,,,,,631.9683000000119,36.0,2.0,631.9683999999762,36.0,,,,635.9203000000119,636.4211999999881,635.417,635.9198999999762,632.9785,635.4168999999762,636.4213000000119,636.9153000000119,636.9153000000119,638.623,1441.0,638.623,3.0,638.6231999999881,2.0,4.0,64.0,18.0,1.0,1.4,0.7,Time
,,S14,785667,1,M,23,anonymized,Serial_Dependence_U,2023.2.3,Win32,119.04761904759845,,,,,,638.6233999999762,282.0,2.0,638.6235,282.0,,,,642.393,642.8901000000238,641.8825,642.3928000000119,639.6195,641.8823000000119,642.8901999999881,643.388,643.3881000000239,645.2353999999762,1570.0,645.2353999999762,5.0,645.2356000000239,2.0,5.0,65.0,12.0,1.0,1.2,0.3,Time
,,S14,785667,1,M,23,anonymized,Serial_Dependence_U,2023.2.3,Win32,119.04761904759845,,,,,,645.2356999999881,82.0,2.0,645.235800000012,82.0,,,,648.582,649.0731000000238,648.0745000000001,648.581800000012,646.2393000000119,648.0741999999881,649.0731000000238,649.5671999999881,649.567300000012,651.443800000012,1534.0,651.443800000012,5.0,651.4440000000001,2.0,6.0,66.0,25.0,1.0,0.8,0.7,Time
,,S14,785667,1,M,23,anonymized,Serial_Dependence_U,2023.2.3,Win32,119.04761904759845,,,,,,651.4441999999881,179.0,2.0,651.4443000000119,179.0,,,,655.2230000000001,655.7183000000119,654.7218999999761,655.2226999999881,652.4533999999762,654.7216999999881,655.7183000000119,656.2133000000119,656.2133000000119,658.1983999999762,1697.0,658.1983999999762,5.0,658.1985,2.0,7.0,67.0,22.0,1.0,1.2,0.3,Time
,,S14,785667,1,M,23,anonymized,Serial_Dependence_U,2023.2.3,Win32,119.04761904759845,,,,,,658.1986999999881,17.0,2.0,658.1986999999881,17.0,,,,661.5753000000119,662.0666999999881,661.0705,661.5751999999881,659.202,661.0703999999762,662.0666999999881,662.5615,662.5615,664.5121999999881,1487.0,664.5121999999881,5.0,664.5123000000119,2.0,8.0,68.0,10.0,1.0,0.8,0.3,Time
,,S14,785667,1,M,23,anonymized,Serial_Dependence_U,2023.2.3,Win32,119.04761904759845,,,,,,664.5126000000239,55.0,2.0,664.5126000000239,55.0,,,,668.6508999999762,669.148300000012,668.1496999999881,668.6506999999881,665.517,668.1496999999881,669.148300000012,669.6441000000239,669.6441000000239,671.9203000000119,1946.0,671.9203000000119,4.0,671.9203999999762,2.0,9.0,69.0,19.0,1.0,1.6,0.7,Time
,,S14,785667,1,M,23,anonymized,Serial_Dependence_U,2023.2.3,Win32,119.04761904759845,,,,,,671.9206000000239,242.0,2.0,671.9206999999881,242.0,,,,676.094,676.592800000012,675.5908999999762,676.0936999999881,672.9253000000119,675.590800000012,676.5928999999762,677.092300000012,677.0923999999762,679.152,1725.0,679.152,4.0,679.1521000000239,2.0,10.0,70.0,4.0,1.0,1.6,0.3,Time
,,S14,785667,1,M,23,anonymized,Serial_Dependence_U,2023.2.3,Win32,119.04761904759845,,,,,,679.1523000000119,120.0,2.0,679.1523000000119,120.0,,,,682.5113999999762,683.0118999999762,682.0016000000238,682.5113000000119,680.1606000000239,682.0016000000238,683.0118999999762,683.5160000000001,683.5160000000001,685.0261999999881,1264.0,685.0263000000119,5.0,685.0266000000239,2.0,11.0,71.0,5.0,1.0,0.8,0.7,Time
,,S14,785667,1,M,23,anonymized,Serial_Dependence_U,2023.2.3,Win32,119.04761904759845,,,,,,685.0268999999762,85.0,2.0,685.027,85.0,,,,688.9975000000001,689.4921999999881,688.4931999999881,688.9973999999762,686.0316999999881,688.4931000000239,689.4923000000119,689.9911999999881,689.9911999999881,691.582800000012,1326.0,691.582800000012,2.0,691.5828999999762,2.0,12.0,72.0,13.0,1.0,1.4,0.3,Time
,,S14,785667,1,M,23,anonymized,Serial_Dependence_U,2023.2.3,Win32,119.04761904759845,,,,,,691.5831000000238,46.0,2.0,691.5831999999881,46.0,,,,695.1623999999762,695.6595,694.6596999999881,695.1623999999762,692.592800000012,694.6595,695.6595,696.1561000000239,696.1561000000239,697.8000000000001,1361.0,697.8000000000001,5.0,697.8001000000239,2.0,13.0,73.0,21.0,1.0,1.0,0.3,Time
,,S14,785667,1,M,23,anonymized,Serial_Dependence_U,2023.2.3,Win32,119.04761904759845,,,,,,697.8003999999762,163.0,2.0,697.8005,163.0,,,,701.9386999999881,702.4356999999881,701.432300000012,701.938300000012,698.8001999999881,701.432300000012,702.4358000000119,702.9358000000119,702.9358999999762,704.754800000012,1505.0,704.7548999999761,2.0,704.755,2.0,14.0,74.0,29.0,1.0,1.6,0.7,Time
,,S14,785667,1,M,23,anonymized,Serial_Dependence_U,2023.2.3,Win32,119.04761904759845,,,,,,704.7551999999881,33.0,2.0,704.755300000012,33.0,,,,708.907199999988,709.4103999999762,708.3986000000239,708.907,705.7578999999762,708.3985,709.4103999999762,709.9118999999762,709.9118999999762,711.458300000012,1358.0,711.4583999999762,2.0,711.4586999999881,2.0,15.0,75.0,9.0,1.0,1.6,0.7,Time
,,S14,785667,1,M,23,anonymized,Serial_Dependence_U,2023.2.3,Win32,119.04761904759845,,,,,,711.4590000000001,19.0,2.0,711.4591000000239,19.0,,,,715.2061999999881,715.6988000000119,714.7008000000119,715.2058999999762,712.4646000000239,714.7001000000239,715.6988999999762,716.202300000012,716.202300000012,718.2433999999762,1820.0,718.2433999999762,5.0,718.2436000000239,2.0,16.0,76.0,27.0,1.0,1.2,0.7,Time
,,S14,785667,1,M,23,anonymized,Serial_Dependence_U,2023.2.3,Win32,119.04761904759845,,,,,,718.2438000000119,181.0,2.0,718.2438999999762,181.0,,,,721.8096999999881,722.3053000000119,721.3083999999761,721.8095000000001,719.2468999999762,721.308300000012,722.3053999999762,722.802300000012,722.8023999999762,724.259,1173.0,724.259,4.0,724.2591999999881,2.0,17.0,77.0,1.0,1.0,1.0,0.3,Time
,,S14,785667,1,M,23,anonymized,Serial_Dependence_U,2023.2.3,Win32,119.04761904759845,,,,,,724.2593999999762,244.0,2.0,724.2595,244.0,,,,728.0020000000001,728.4996999999881,727.5003999999761,728.0016999999881,725.2686999999881,727.5001000000238,728.499800000012,729.003,729.003,730.7563999999762,1386.0,730.7563999999762,4.0,730.7565000000001,2.0,18.0,78.0,7.0,1.0,1.2,0.7,Time
,,S14,785667,1,M,23,anonymized,Serial_Dependence_U,2023.2.3,Win32,119.04761904759845,,,,,,730.7566999999881,256.0,2.0,730.7566999999881,256.0,,,,734.921699999988,735.4221999999882,734.4196000000238,734.9213999999762,731.7548999999761,734.4195,735.4221999999882,735.9201000000239,735.9201999999881,737.7298999999762,1618.0,737.73,3.0,737.7301999999881,2.0,19.0,79.0,14.0,1.0,1.6,0.3,Time
,,S14,785667,1,M,23,anonymized,Serial_Dependence_U,2023.2.3,Win32,119.04761904759845,,,,,,737.730300000012,114.0,2.0,737.7303999999762,114.0,,,,741.3036000000238,741.8096999999881,740.7968000000119,741.303300000012,738.7361000000238,740.7968000000119,741.8096999999881,742.3056999999881,742.3056999999881,743.807300000012,1290.0,743.8075,4.0,743.807800000012,2.0,20.0,80.0,11.0,1.0,1.0,0.3,Time
,,S14,785667,1,M,23,anonymized,Serial_Dependence_U,2023.2.3,Win32,119.04761904759845,,,,,,743.8081999999881,94.0,2.0,743.808300000012,94.0,,,,747.9846000000239,748.4865,747.4778999999762,747.9843999999762,744.8148000000119,747.4778000000119,748.4866999999881,748.9835,748.9835,750.6416999999881,1327.0,750.6418000000119,2.0,750.642,2.0,21.0,81.0,24.0,1.0,1.6,0.3,Time
,,S14,785667,1,M,23,anonymized,Serial_Dependence_U,2023.2.3,Win32,119.04761904759845,,,,,,750.6423999999762,118.0,2.0,750.6425,118.0,,,,754.184,754.6858999999762,753.6723999999762,754.1838999999762,751.64,753.6721000000239,754.6858999999762,755.1806999999881,755.1808000000119,756.8803999999761,1438.0,756.8803999999761,5.0,756.8805,2.0,22.0,82.0,16.0,1.0,1.0,0.7,Time
,,S14,785667,1,M,23,anonymized,Serial_Dependence_U,2023.2.3,Win32,119.04761904759845,,,,,,756.8806000000238,100.0,2.0,756.8806999999881,100.0,,,,760.8258000000119,761.3248000000119,760.3226000000238,760.8255,757.883,760.3221999999881,761.3248999999762,761.8258999999762,761.8258999999762,763.4625,1326.0,763.4626000000238,2.0,763.4628999999762,2.0,23.0,83.0,28.0,1.0,1.4,0.7,Time
,,S14,785667,1,M,23,anonymized,Serial_Dependence_U,2023.2.3,Win32,119.04761904759845,,,,,,763.4633000000119,202.0,2.0,763.4633999999762,202.0,,,,767.2091999999881,767.7085000000001,766.7056999999882,767.2088999999762,764.471800000012,766.7053000000119,767.7085000000001,768.2088999999762,768.2088999999762,769.7623999999762,1377.0,769.7623999999762,4.0,769.7626000000239,2.0,24.0,84.0,17.0,1.0,1.2,0.7,Time
,,S14,785667,1,M,23,anonymized,Serial_Dependence_U,2023.2.3,Win32,119.04761904759845,,,,,,769.7628000000119,9.0,2.0,769.7628999999762,9.0,,,,773.150300000012,773.6506999999881,772.6398999999761,773.1501000000238,770.775,772.639800000012,773.6506999999881,774.148,774.148,775.4448999999762,983.0,775.445,4.0,775.4451000000239,2.0,25.0,85.0,20.0,1.0,0.8,0.3,Time
,,S14,785667,1,M,23,anonymized,Serial_Dependence_U,2023.2.3,Win32,119.04761904759845,,,,,,775.4453000000119,113.0,2.0,775.4453000000119,113.0,,,,779.3820000000001,779.8788000000119,778.8771999999881,779.3818000000119,776.443300000012,778.8768999999762,779.8788000000119,780.3736000000239,780.3736000000239,781.964699999988,1217.0,781.964699999988,2.0,781.9648999999762,2.0,26.0,86.0,8.0,1.0,1.4,0.7,Time
,,S14,785667,1,M,23,anonymized,Serial_Dependence_U,2023.2.3,Win32,119.04761904759845,,,,,,781.965,134.0,2.0,781.9651000000239,134.0,,,,785.9261000000239,786.4225,785.4221999999882,785.9258000000119,782.96,785.4221000000239,786.4226000000239,786.924,786.9241000000238,788.8003000000119,1625.0,788.8003999999762,4.0,788.8005,2.0,27.0,87.0,3.0,1.0,1.4,0.3,Time
,,S14,785667,1,M,23,anonymized,Serial_Dependence_U,2023.2.3,Win32,119.04761904759845,,,,,,788.8008000000119,141.0,2.0,788.8008999999762,141.0,,,,792.7731999999882,793.269800000012,792.2713000000119,792.773,789.8013000000119,792.2711999999881,793.2698999999761,793.7706000000238,793.7706000000238,795.8258000000119,1713.0,795.8258000000119,4.0,795.8258999999762,2.0,28.0,88.0,23.0,1.0,1.4,0.3,Time
,,S14,785667,1,M,23,anonymized,Serial_Dependence_U,2023.2.3,Win32,119.04761904759845,,,,,,795.826300000012,101.0,2.0,795.826300000012,101.0,,,,799.2003999999762,799.6958000000119,798.6931000000238,799.2001000000239,796.8255,798.692800000012,799.6958000000119,800.197800000012,800.1978999999761,802.1781999999881,1712.0,802.1781999999881,5.0,802.1783999999761,2.0,29.0,89.0,0.0,1.0,0.8,0.3,Time
,,S14,785667,1,M,23,anonymized,Serial_Dependence_U,2023.2.3,Win32,119.04761904759845,,,,,,802.1785,178.0,3.0,807.0501999999881,178.0,s,4.863000000000056,,810.6246000000239,811.1266000000238,810.1188000000119,810.624300000012,808.0578999999761,810.1185,811.1266999999881,811.6241999999882,811.6243999999762,813.3475,1508.0,813.3475,5.0,813.3476000000238,3.0,0.0,90.0,1.0,1.0,1.0,0.3,Time
,,S14,785667,1,M,23,anonymized,Serial_Dependence_U,2023.2.3,Win32,119.04761904759845,,,,,,813.3476999999881,115.0,3.0,813.3496000000239,115.0,,,,817.520300000012,818.0158999999762,817.011,817.52,814.3443999999762,817.0106999999881,818.0160000000001,818.5238999999762,818.5238999999762,820.3346999999881,1616.0,820.3346999999881,3.0,820.3348000000119,3.0,1.0,91.0,14.0,1.0,1.6,0.3,Time
,,S14,785667,1,M,23,anonymized,Serial_Dependence_U,2023.2.3,Win32,119.04761904759845,,,,,,820.3348999999762,233.0,3.0,820.335,233.0,,,,824.1151999999881,824.611800000012,823.610800000012,824.114800000012,821.3466999999881,823.6106000000239,824.611800000012,825.1163999999762,825.1166000000238,826.918800000012,1525.0,826.918800000012,4.0,826.919,3.0,2.0,92.0,2.0,1.0,1.2,0.3,Time
,,S14,785667,1,M,23,anonymized,Serial_Dependence_U,2023.2.3,Win32,119.04761904759845,,,,,,826.9191999999881,146.0,3.0,826.9191999999881,146.0,,,,830.4645,830.9593000000119,829.9630000000001,830.4643000000119,827.9283999999761,829.962800000012,830.9593000000119,831.4558999999762,831.456,833.404300000012,1507.0,833.404300000012,5.0,833.4045,3.0,3.0,93.0,6.0,1.0,1.0,0.7,Time
,,S14,785667,1,M,23,anonymized,Serial_Dependence_U,2023.2.3,Win32,119.04761904759845,,,,,,833.4046999999881,224.0,3.0,833.4046999999881,224.0,,,,836.9826000000239,837.4841000000239,836.4781000000239,836.9821999999881,834.4123999999762,836.4780000000001,837.4841000000239,837.9815,837.9816000000238,839.5251999999881,1357.0,839.525300000012,5.0,839.5255000000001,3.0,4.0,94.0,11.0,1.0,1.0,0.3,Time
,,S14,785667,1,M,23,anonymized,Serial_Dependence_U,2023.2.3,Win32,119.04761904759845,,,,,,839.5256999999881,128.0,3.0,839.5256999999881,128.0,,,,843.4688999999762,843.967300000012,842.9618999999761,843.4686999999881,840.5281999999881,842.9616999999881,843.967300000012,844.4680000000001,844.4680000000001,846.5878999999762,1798.0,846.5878999999762,4.0,846.5880000000001,3.0,5.0,95.0,28.0,1.0,1.4,0.7,Time
,,S14,785667,1,M,23,anonymized,Serial_Dependence_U,2023.2.3,Win32,119.04761904759845,,,,,,846.5883000000119,148.0,3.0,846.5883000000119,148.0,,,,849.9195,850.4216000000239,849.4186000000238,849.9193999999762,847.585800000012,849.4185,850.421699999988,850.917800000012,850.917800000012,852.5516999999882,1255.0,852.5516999999882,5.0,852.5518999999762,3.0,6.0,96.0,15.0,1.0,0.8,0.7,Time
,,S14,785667,1,M,23,anonymized,Serial_Dependence_U,2023.2.3,Win32,119.04761904759845,,,,,,852.5521000000239,109.0,3.0,852.5521000000239,109.0,,,,855.9225,856.4246000000238,855.4208999999762,855.9223999999762,853.5513000000119,855.4206000000239,856.4246000000238,856.927,856.9271000000239,858.3096000000239,1041.0,858.3096999999881,5.0,858.3098999999762,3.0,7.0,97.0,10.0,1.0,0.8,0.3,Time
,,S14,785667,1,M,23,anonymized,Serial_Dependence_U,2023.2.3,Win32,119.04761904759845,,,,,,858.3103000000119,270.0,3.0,858.3103999999762,270.0,,,,862.4756999999881,862.9718999999761,861.9748999999762,862.4755,859.3098000000119,861.9748000000119,862.9718999999761,863.466,863.466,865.693300000012,1902.0,865.693300000012,4.0,865.6933999999762,3.0,8.0,98.0,4.0,1.0,1.6,0.3,Time
,,S14,785667,1,M,23,anonymized,Serial_Dependence_U,2023.2.3,Win32,119.04761904759845,,,,,,865.6935,130.0,3.0,865.6935,130.0,,,,869.8366999999881,870.3373999999761,869.3346000000239,869.8365,866.6996000000239,869.3345,870.3375,870.8380000000001,870.8381000000238,872.8391999999881,1752.0,872.8393000000119,4.0,872.8396000000239,3.0,9.0,99.0,29.0,1.0,1.6,0.7,Time
,,S14,785667,1,M,23,anonymized,Serial_Dependence_U,2023.2.3,Win32,119.04761904759845,,,,,,872.84,267.0,3.0,872.8401000000239,267.0,,,,876.5858999999762,877.0856000000239,876.0771999999881,876.5858999999762,873.8421999999881,876.0771000000238,877.0856999999882,877.5901999999882,877.5901999999882,879.6181000000239,1761.0,879.6181000000239,5.0,879.6181999999881,3.0,10.0,100.0,7.0,1.0,1.2,0.7,Time
,,S14,785667,1,M,23,anonymized,Serial_Dependence_U,2023.2.3,Win32,119.04761904759845,,,,,,879.6183999999762,183.0,3.0,879.6183999999762,183.0,,,,883.7656000000238,884.265300000012,883.2575,883.765300000012,880.6238999999762,883.2571999999881,884.265300000012,884.7601000000238,884.7601999999881,887.0405000000001,2080.0,887.0405000000001,5.0,887.0408000000119,3.0,11.0,101.0,19.0,1.0,1.6,0.7,Time
,,S14,785667,1,M,23,anonymized,Serial_Dependence_U,2023.2.3,Win32,119.04761904759845,,,,,,887.041,23.0,3.0,887.0411000000239,23.0,,,,890.388199999988,890.8868000000119,889.88,890.3878999999762,888.0433999999761,889.8798999999761,890.8868000000119,891.3865000000001,891.3866000000239,892.8515,1250.0,892.8515,5.0,892.8516000000238,3.0,12.0,102.0,5.0,1.0,0.8,0.7,Time
,,S14,785667,1,M,23,anonymized,Serial_Dependence_U,2023.2.3,Win32,119.04761904759845,,,,,,892.8516999999881,67.0,3.0,892.8516999999881,67.0,,,,896.2363999999761,896.735800000012,895.7258999999761,896.236300000012,893.8645,895.7255,896.7358999999761,897.2321000000238,897.2321999999881,899.0558000000119,1473.0,899.0558999999762,5.0,899.056199999988,3.0,13.0,103.0,0.0,1.0,0.8,0.3,Time
,,S14,785667,1,M,23,anonymized,Serial_Dependence_U,2023.2.3,Win32,119.04761904759845,,,,,,899.0566000000239,66.0,3.0,899.0566999999882,66.0,,,,903.0291000000238,903.528899999976,902.5251000000238,903.028699999988,900.0586999999881,902.524699999988,903.528899999976,904.0303999999762,904.0305,906.0783999999762,1675.0,906.0783999999762,4.0,906.078699999988,3.0,14.0,104.0,13.0,1.0,1.4,0.3,Time
,,S14,785667,1,M,23,anonymized,Serial_Dependence_U,2023.2.3,Win32,119.04761904759845,,,,,,906.079100000024,330.0,3.0,906.079100000024,330.0,,,,910.223800000012,910.721100000024,909.716899999976,910.2233999999762,907.078300000012,909.716699999988,910.721199999988,911.220100000024,911.2201999999882,913.045600000024,1549.0,913.045600000024,3.0,913.045699999988,3.0,15.0,105.0,9.0,1.0,1.6,0.7,Time
,,S14,785667,1,M,23,anonymized,Serial_Dependence_U,2023.2.3,Win32,119.04761904759845,,,,,,913.0458999999762,250.0,3.0,913.0458999999762,250.0,,,,916.590300000012,917.0931000000238,916.081,916.589800000012,914.044,916.0808999999762,917.0931000000238,917.590300000012,917.5903999999762,919.243199999988,1482.0,919.243199999988,5.0,919.243300000012,3.0,16.0,106.0,16.0,1.0,1.0,0.7,Time
,,S14,785667,1,M,23,anonymized,Serial_Dependence_U,2023.2.3,Win32,119.04761904759845,,,,,,919.2433999999762,306.0,3.0,919.2435,306.0,,,,922.983699999988,923.479100000024,922.48,922.983600000024,920.247199999988,922.479600000024,923.479199999988,923.985,923.985,925.7805,1412.0,925.7805,4.0,925.7806000000238,3.0,17.0,107.0,17.0,1.0,1.2,0.7,Time
,,S14,785667,1,M,23,anonymized,Serial_Dependence_U,2023.2.3,Win32,119.04761904759845,,,,,,925.7808999999762,318.0,3.0,925.781,318.0,,,,929.5306000000238,930.026,929.021600000024,929.530300000012,926.784800000012,929.0213999999762,930.026199999988,930.5251000000238,930.525199999988,932.387699999988,1444.0,932.387699999988,4.0,932.387800000012,3.0,18.0,108.0,27.0,1.0,1.2,0.7,Time
,,S14,785667,1,M,23,anonymized,Serial_Dependence_U,2023.2.3,Win32,119.04761904759845,,,,,,932.3878999999762,127.0,3.0,932.388,127.0,,,,936.319800000012,936.8108999999762,935.815800000012,936.319699999988,933.3838999999762,935.815699999988,936.8108999999762,937.311199999988,937.311300000012,939.238199999988,1714.0,939.238300000012,4.0,939.2383999999762,3.0,19.0,109.0,8.0,1.0,1.4,0.7,Time
,,S14,785667,1,M,23,anonymized,Serial_Dependence_U,2023.2.3,Win32,119.04761904759845,,,,,,939.238800000012,339.0,3.0,939.238800000012,339.0,,,,942.5958999999762,943.0923999999762,942.091199999988,942.595699999988,940.249100000024,942.091,943.0925,943.591,943.591100000024,945.1255,1321.0,945.1256000000238,5.0,945.125800000012,3.0,20.0,110.0,25.0,1.0,0.8,0.7,Time
,,S14,785667,1,M,23,anonymized,Serial_Dependence_U,2023.2.3,Win32,119.04761904759845,,,,,,945.126199999988,256.0,3.0,945.126300000012,256.0,,,,949.097300000012,949.593300000012,948.5893999999762,949.097,946.1238999999762,948.589300000012,949.593300000012,950.0938999999762,950.094,951.702199999988,1381.0,951.702199999988,3.0,951.702199999988,3.0,21.0,111.0,23.0,1.0,1.4,0.3,Time
,,S14,785667,1,M,23,anonymized,Serial_Dependence_U,2023.2.3,Win32,119.04761904759845,,,,,,951.702399999976,125.0,3.0,951.7025,125.0,,,,955.071699999988,955.567300000012,954.5695,955.0713999999762,952.7065,954.569,955.567399999976,956.063300000012,956.063399999976,957.0405,767.0,957.040600000024,3.0,957.040699999988,3.0,22.0,112.0,20.0,1.0,0.8,0.3,Time
,,S14,785667,1,M,23,anonymized,Serial_Dependence_U,2023.2.3,Win32,119.04761904759845,,,,,,957.0408999999762,38.0,3.0,957.041,38.0,,,,961.200100000024,961.695800000012,960.6968999999762,961.2,958.035699999988,960.696800000012,961.6958999999762,962.193199999988,962.193199999988,964.074199999988,1528.0,964.074199999988,3.0,964.0745,3.0,23.0,113.0,24.0,1.0,1.6,0.3,Time
,,S14,785667,1,M,23,anonymized,Serial_Dependence_U,2023.2.3,Win32,119.04761904759845,,,,,,964.074699999988,255.0,3.0,964.074800000012,255.0,,,,968.0158999999762,968.519100000024,967.514,968.015800000012,965.0763999999762,967.513800000012,968.519199999988,969.021600000024,969.021600000024,970.903300000012,1602.0,970.9035,4.0,970.903800000012,3.0,24.0,114.0,18.0,1.0,1.4,0.7,Time
,,S14,785667,1,M,23,anonymized,Serial_Dependence_U,2023.2.3,Win32,119.04761904759845,,,,,,970.904199999988,114.0,3.0,970.904300000012,114.0,,,,974.6781000000238,975.169699999988,974.174300000012,974.677800000012,971.912,974.173899999976,975.169800000012,975.667600000024,975.667600000024,977.526300000012,1439.0,977.5263999999762,4.0,977.526800000012,3.0,25.0,115.0,22.0,1.0,1.2,0.3,Time
,,S14,785667,1,M,23,anonymized,Serial_Dependence_U,2023.2.3,Win32,119.04761904759845,,,,,,977.527199999988,49.0,3.0,977.527300000012,49.0,,,,981.0771000000238,981.579,980.5713999999762,981.076800000012,978.536199999988,980.571,981.5791000000238,982.082199999988,982.082199999988,983.862699999988,1334.0,983.862800000012,5.0,983.863,3.0,26.0,116.0,26.0,1.0,1.0,0.7,Time
,,S14,785667,1,M,23,anonymized,Serial_Dependence_U,2023.2.3,Win32,119.04761904759845,,,,,,983.863399999976,75.0,3.0,983.863399999976,75.0,,,,987.4425,987.943600000024,986.937100000024,987.442199999988,984.868600000024,986.9368999999764,987.943600000024,988.440399999976,988.4405,990.22,1492.0,990.220100000024,5.0,990.2203999999764,3.0,27.0,117.0,21.0,1.0,1.0,0.3,Time
,,S14,785667,1,M,23,anonymized,Serial_Dependence_U,2023.2.3,Win32,119.04761904759845,,,,,,990.220699999988,350.0,3.0,990.220800000012,350.0,,,,993.996699999988,994.493300000012,993.4898999999762,993.9966000000238,991.2231000000238,993.489699999988,994.493300000012,994.9981999999882,994.998300000012,996.674899999976,1234.0,996.675,3.0,996.675,3.0,28.0,118.0,12.0,1.0,1.2,0.3,Time
,,S14,785667,1,M,23,anonymized,Serial_Dependence_U,2023.2.3,Win32,119.04761904759845,,,,,,996.675300000012,182.0,3.0,996.675300000012,182.0,,,,1000.6455,1001.1473999999762,1000.142,1000.6453999999762,997.6763999999762,1000.141699999988,1001.1473999999762,1001.6445,1001.6445,1003.7793999999762,1841.0,1003.7795,5.0,1003.779699999988,3.0,29.0,119.0,3.0,1.0,1.4,0.3,Time
,,S14,785667,1,M,23,anonymized,Serial_Dependence_U,2023.2.3,Win32,119.04761904759845,,,,,,1003.779899999976,78.0,4.0,1033.8915,78.0,s,30.103000000000065,,1038.0345,1038.534,1037.529,1038.034100000024,1034.8928999999762,1037.528699999988,1038.534100000024,1039.031300000012,1039.031300000012,1040.4498999999762,1244.0,1040.4498999999762,2.0,1040.450100000024,4.0,0.0,120.0,19.0,1.0,1.6,0.7,Time
,,S14,785667,1,M,23,anonymized,Serial_Dependence_U,2023.2.3,Win32,119.04761904759845,,,,,,1040.450399999976,350.0,4.0,1040.451,350.0,,,,1044.603399999976,1045.105100000024,1044.102100000024,1044.6031999999882,1041.461199999988,1044.102,1045.105100000024,1045.606199999988,1045.606300000012,1047.539899999976,1602.0,1047.54,3.0,1047.540199999988,4.0,1.0,121.0,29.0,1.0,1.6,0.7,Time
,,S14,785667,1,M,23,anonymized,Serial_Dependence_U,2023.2.3,Win32,119.04761904759845,,,,,,1047.540300000012,29.0,4.0,1047.540300000012,29.0,,,,1051.287800000012,1051.7911000000238,1050.782199999988,1051.2875,1048.5451999999882,1050.781899999976,1051.791199999988,1052.296,1052.296,1054.2565,1680.0,1054.2565,5.0,1054.256699999988,4.0,2.0,122.0,17.0,1.0,1.2,0.7,Time
,,S14,785667,1,M,23,anonymized,Serial_Dependence_U,2023.2.3,Win32,119.04761904759845,,,,,,1054.256800000012,251.0,4.0,1054.2568999999762,251.0,,,,1058.4296000000238,1058.934600000024,1057.925600000024,1058.4293000000118,1055.2615,1057.9253999999762,1058.934600000024,1059.430399999976,1059.4305,1061.0256000000238,1358.0,1061.025699999988,2.0,1061.025800000012,4.0,3.0,123.0,14.0,1.0,1.6,0.3,Time
,,S14,785667,1,M,23,anonymized,Serial_Dependence_U,2023.2.3,Win32,119.04761904759845,,,,,,1061.0258999999762,150.0,4.0,1061.026,150.0,,,,1064.805,1065.305300000012,1064.301,1064.804699999988,1062.031800000012,1064.300600000024,1065.305300000012,1065.8048999999762,1065.8048999999762,1067.381100000024,1458.0,1067.3811999999882,4.0,1067.3813000000118,4.0,4.0,124.0,12.0,1.0,1.2,0.3,Time
,,S14,785667,1,M,23,anonymized,Serial_Dependence_U,2023.2.3,Win32,119.04761904759845,,,,,,1067.3816000000238,92.0,4.0,1067.3816000000238,92.0,,,,1070.928399999976,1071.432,1070.4265,1070.928,1068.3836000000238,1070.4263999999762,1071.432,1071.9363999999762,1071.9363999999762,1073.745100000024,1502.0,1073.745199999988,5.0,1073.745300000012,4.0,5.0,125.0,26.0,1.0,1.0,0.7,Time
,,S14,785667,1,M,23,anonymized,Serial_Dependence_U,2023.2.3,Win32,119.04761904759845,,,,,,1073.745399999976,24.0,4.0,1073.745399999976,24.0,,,,1077.494800000012,1077.989100000024,1076.9853999999762,1077.4943999999762,1074.753300000012,1076.985300000012,1077.9891999999882,1078.4931000000238,1078.493300000012,1080.0775,1333.0,1080.0775,4.0,1080.077699999988,4.0,6.0,126.0,7.0,1.0,1.2,0.7,Time
,,S14,785667,1,M,23,anonymized,Serial_Dependence_U,2023.2.3,Win32,119.04761904759845,,,,,,1080.0778000000118,285.0,4.0,1080.0778000000118,285.0,,,,1084.0511000000238,1084.55,1083.548800000012,1084.0506999999882,1081.0825,1083.5485,1084.5501000000238,1085.0443000000118,1085.044399999976,1086.7213999999765,1346.0,1086.7213999999765,3.0,1086.721699999988,4.0,7.0,127.0,13.0,1.0,1.4,0.3,Time
,,S14,785667,1,M,23,anonymized,Serial_Dependence_U,2023.2.3,Win32,119.04761904759845,,,,,,1086.7221000000238,205.0,4.0,1086.722199999988,205.0,,,,1090.287100000024,1090.793199999988,1089.7851999999882,1090.2868999999762,1087.7233999999762,1089.785100000024,1090.793199999988,1091.294,1091.294,1093.3435,1700.0,1093.3436000000238,5.0,1093.343699999988,4.0,8.0,128.0,11.0,1.0,1.0,0.3,Time
,,S14,785667,1,M,23,anonymized,Serial_Dependence_U,2023.2.3,Win32,119.04761904759845,,,,,,1093.344100000024,14.0,4.0,1093.344100000024,14.0,,,,1097.5171999999882,1098.019699999988,1097.0145,1097.516800000012,1094.3476999999882,1097.014300000012,1098.019699999988,1098.513699999988,1098.513800000012,1100.447100000024,1687.0,1100.447100000024,4.0,1100.447100000024,4.0,9.0,129.0,4.0,1.0,1.6,0.3,Time
,,S14,785667,1,M,23,anonymized,Serial_Dependence_U,2023.2.3,Win32,119.04761904759845,,,,,,1100.447300000012,50.0,4.0,1100.447399999976,50.0,,,,1104.420100000024,1104.9288999999762,1103.913300000012,1104.420100000024,1101.448399999976,1103.913100000024,1104.9288999999762,1105.425300000012,1105.425300000012,1107.649699999988,1969.0,1107.649699999988,5.0,1107.6498999999762,4.0,10.0,130.0,3.0,1.0,1.4,0.3,Time
,,S14,785667,1,M,23,anonymized,Serial_Dependence_U,2023.2.3,Win32,119.04761904759845,,,,,,1107.65,215.0,4.0,1107.650100000024,215.0,,,,1110.991300000012,1111.4885,1110.489,1110.991,1108.657,1110.488699999988,1111.4885,1111.982199999988,1111.982199999988,1113.303199999988,1074.0,1113.303199999988,5.0,1113.303300000012,4.0,11.0,131.0,5.0,1.0,0.8,0.7,Time
,,S14,785667,1,M,23,anonymized,Serial_Dependence_U,2023.2.3,Win32,119.04761904759845,,,,,,1113.3035,202.0,4.0,1113.3036000000238,202.0,,,,1117.444199999988,1117.945800000012,1116.9396000000238,1117.444,1114.3028999999765,1116.9391999999882,1117.9458999999763,1118.441,1118.4411999999882,1120.4868999999762,1750.0,1120.4868999999762,4.0,1120.487300000012,4.0,12.0,132.0,9.0,1.0,1.6,0.7,Time
,,S14,785667,1,M,23,anonymized,Serial_Dependence_U,2023.2.3,Win32,119.04761904759845,,,,,,1120.4876000000238,199.0,4.0,1120.487699999988,199.0,,,,1123.8481000000238,1124.344699999988,1123.3435,1123.847800000012,1121.4825,1123.343100000024,1124.344699999988,1124.8453999999765,1124.8455,1126.397300000012,1309.0,1126.397300000012,5.0,1126.3973999999762,4.0,13.0,133.0,10.0,1.0,0.8,0.3,Time
,,S14,785667,1,M,23,anonymized,Serial_Dependence_U,2023.2.3,Win32,119.04761904759845,,,,,,1126.397600000024,330.0,4.0,1126.3976999999882,330.0,,,,1130.146199999988,1130.643800000012,1129.6376999999882,1130.146,1127.4045,1129.637600000024,1130.6438999999762,1131.1478999999763,1131.1478999999763,1133.129199999988,1507.0,1133.129300000012,4.0,1133.1293999999762,4.0,14.0,134.0,27.0,1.0,1.2,0.7,Time
,,S14,785667,1,M,23,anonymized,Serial_Dependence_U,2023.2.3,Win32,119.04761904759845,,,,,,1133.1295,352.0,4.0,1133.1295,352.0,,,,1137.0955,1137.592100000024,1136.588600000024,1137.0951999999882,1134.1273999999762,1136.588300000012,1137.592199999988,1138.095600000024,1138.095800000012,1139.8698999999765,1437.0,1139.8698999999765,3.0,1139.87,4.0,15.0,135.0,23.0,1.0,1.4,0.3,Time
,,S14,785667,1,M,23,anonymized,Serial_Dependence_U,2023.2.3,Win32,119.04761904759845,,,,,,1139.870100000024,256.0,4.0,1139.870199999988,256.0,,,,1143.237,1143.7336999999882,1142.733800000012,1143.236699999988,1140.8705,1142.7335,1143.7336999999882,1144.228800000012,1144.228800000012,1146.1116000000238,1530.0,1146.111699999988,5.0,1146.111800000012,4.0,16.0,136.0,0.0,1.0,0.8,0.3,Time
,,S14,785667,1,M,23,anonymized,Serial_Dependence_U,2023.2.3,Win32,119.04761904759845,,,,,,1146.1118999999762,246.0,4.0,1146.112,246.0,,,,1149.4918000000118,1149.986699999988,1148.985699999988,1149.4918000000118,1147.124,1148.985699999988,1149.986800000012,1150.4875,1150.4876000000238,1152.582100000024,1741.0,1152.582300000012,5.0,1152.582399999976,4.0,17.0,137.0,20.0,1.0,0.8,0.3,Time
,,S14,785667,1,M,23,anonymized,Serial_Dependence_U,2023.2.3,Win32,119.04761904759845,,,,,,1152.5826000000238,205.0,4.0,1152.582699999988,205.0,,,,1156.1313000000118,1156.625199999988,1155.622100000024,1156.131,1153.586899999976,1155.622,1156.625300000012,1157.123800000012,1157.123800000012,1159.144100000024,1455.0,1159.144100000024,5.0,1159.144199999988,4.0,18.0,138.0,16.0,1.0,1.0,0.7,Time
,,S14,785667,1,M,23,anonymized,Serial_Dependence_U,2023.2.3,Win32,119.04761904759845,,,,,,1159.144300000012,86.0,4.0,1159.1445,86.0,,,,1163.0996999999882,1163.602100000024,1162.590699999988,1163.099600000024,1160.1571000000238,1162.5903999999762,1163.6021999999882,1164.097,1164.0971000000238,1166.250199999988,1692.0,1166.250199999988,4.0,1166.250300000012,4.0,19.0,139.0,8.0,1.0,1.4,0.7,Time
,,S14,785667,1,M,23,anonymized,Serial_Dependence_U,2023.2.3,Win32,119.04761904759845,,,,,,1166.250600000024,157.0,4.0,1166.250600000024,157.0,,,,1169.791300000012,1170.287800000012,1169.290300000012,1169.791199999988,1167.2558999999762,1169.2901000000238,1170.287800000012,1170.7805,1170.7805,1172.9331000000238,1702.0,1172.9331000000238,5.0,1172.9333999999762,4.0,20.0,140.0,6.0,1.0,1.0,0.7,Time
,,S14,785667,1,M,23,anonymized,Serial_Dependence_U,2023.2.3,Win32,119.04761904759845,,,,,,1172.9335,39.0,4.0,1172.9335,39.0,,,,1177.104800000012,1177.605800000012,1176.599300000012,1177.1046000000238,1173.938,1176.599199999988,1177.605800000012,1178.108,1178.1081000000238,1180.2031000000238,1684.0,1180.203199999988,4.0,1180.2035,4.0,21.0,141.0,24.0,1.0,1.6,0.3,Time
,,S14,785667,1,M,23,anonymized,Serial_Dependence_U,2023.2.3,Win32,119.04761904759845,,,,,,1180.203899999976,330.0,4.0,1180.204,330.0,,,,1184.1563999999762,1184.652800000012,1183.652300000012,1184.1561000000238,1181.212699999988,1183.6521999999882,1184.652800000012,1185.151699999988,1185.151699999988,1187.236399999976,1809.0,1187.236399999976,4.0,1187.2365,4.0,22.0,142.0,28.0,1.0,1.4,0.7,Time
,,S14,785667,1,M,23,anonymized,Serial_Dependence_U,2023.2.3,Win32,119.04761904759845,,,,,,1187.236800000012,272.0,4.0,1187.2368999999762,272.0,,,,1191.1756999999882,1191.6751000000238,1190.6728999999762,1191.175600000024,1188.239100000024,1190.6725,1191.675199999988,1192.174800000012,1192.175,1194.1445,1672.0,1194.1445,4.0,1194.144899999976,4.0,23.0,143.0,18.0,1.0,1.4,0.7,Time
,,S14,785667,1,M,23,anonymized,Serial_Dependence_U,2023.2.3,Win32,119.04761904759845,,,,,,1194.145300000012,80.0,4.0,1194.1455,80.0,,,,1197.730100000024,1198.220699999988,1197.2215,1197.729699999988,1195.155600000024,1197.221100000024,1198.220699999988,1198.715300000012,1198.7155,1200.466800000012,1549.0,1200.466800000012,5.0,1200.4668999999762,4.0,24.0,144.0,21.0,1.0,1.0,0.3,Time
,,S14,785667,1,M,23,anonymized,Serial_Dependence_U,2023.2.3,Win32,119.04761904759845,,,,,,1200.467,309.0,4.0,1200.467100000024,309.0,,,,1203.804100000024,1204.2995,1203.297300000012,1203.804,1201.463199999988,1203.297,1204.2995,1204.7965,1204.7965,1206.0645,1084.0,1206.0646000000238,5.0,1206.064800000012,4.0,25.0,145.0,15.0,1.0,0.8,0.7,Time
,,S14,785667,1,M,23,anonymized,Serial_Dependence_U,2023.2.3,Win32,119.04761904759845,,,,,,1206.065100000024,312.0,4.0,1206.0651999999882,312.0,,,,1209.6411999999882,1210.138199999988,1209.1335,1209.6411999999882,1207.0703999999762,1209.1335,1210.138199999988,1210.634100000024,1210.634199999988,1212.0528999999765,1119.0,1212.053,4.0,1212.053100000024,4.0,26.0,146.0,1.0,1.0,1.0,0.3,Time
,,S14,785667,1,M,23,anonymized,Serial_Dependence_U,2023.2.3,Win32,119.04761904759845,,,,,,1212.053300000012,94.0,4.0,1212.053300000012,94.0,,,,1215.834399999976,1216.336899999976,1215.3328999999762,1215.834,1213.063,1215.3326000000238,1216.336899999976,1216.8318999999765,1216.8318999999765,1218.5401000000238,1516.0,1218.5401000000238,4.0,1218.540300000012,4.0,27.0,147.0,2.0,1.0,1.2,0.3,Time
,,S14,785667,1,M,23,anonymized,Serial_Dependence_U,2023.2.3,Win32,119.04761904759845,,,,,,1218.5403999999762,59.0,4.0,1218.5405,59.0,,,,1222.326699999988,1222.827,1221.8183999999762,1222.326300000012,1219.5491000000238,1221.8181000000238,1222.827199999988,1223.3256000000238,1223.325699999988,1225.2525,1742.0,1225.2525,5.0,1225.252600000024,4.0,28.0,148.0,22.0,1.0,1.2,0.3,Time
,,S14,785667,1,M,23,anonymized,Serial_Dependence_U,2023.2.3,Win32,119.04761904759845,,,,,,1225.253,122.0,4.0,1225.2531000000238,122.0,,,,1228.596800000012,1229.098199999988,1228.091800000012,1228.596600000024,1226.259699999988,1228.091399999976,1229.098300000012,1229.602,1229.602,1231.668199999988,1805.0,1231.668300000012,5.0,1231.668699999988,4.0,29.0,149.0,25.0,1.0,0.8,0.7,Time
,,S14,785667,1,M,23,anonymized,Serial_Dependence_U,2023.2.3,Win32,119.04761904759845,,,,,,1231.669100000024,181.0,5.0,1258.0848999999762,181.0,s,26.40360000002397,,1262.2315,1262.7266000000238,1261.7268999999762,1262.231300000012,1259.0883999999762,1261.726800000012,1262.7266000000238,1263.218300000012,1263.2185,1265.187800000012,1535.0,1265.1878999999765,3.0,1265.188,5.0,0.0,150.0,29.0,1.0,1.6,0.7,Time
,,S14,785667,1,M,23,anonymized,Serial_Dependence_U,2023.2.3,Win32,119.04761904759845,,,,,,1265.188199999988,166.0,5.0,1265.189699999988,166.0,,,,1269.158699999988,1269.655,1268.657300000012,1269.158699999988,1266.1958999999763,1268.657,1269.655,1270.158,1270.158100000024,1272.161300000012,1627.0,1272.161399999976,4.0,1272.1615,5.0,1.0,151.0,3.0,1.0,1.4,0.3,Time
,,S14,785667,1,M,23,anonymized,Serial_Dependence_U,2023.2.3,Win32,119.04761904759845,,,,,,1272.1616000000238,4.0,5.0,1272.161699999988,4.0,,,,1276.1015,1276.599800000012,1275.598899999976,1276.101300000012,1273.163,1275.598800000012,1276.599800000012,1277.1053999999765,1277.1053999999765,1278.829199999988,1461.0,1278.829199999988,3.0,1278.8293999999762,5.0,2.0,152.0,8.0,1.0,1.4,0.7,Time
,,S14,785667,1,M,23,anonymized,Serial_Dependence_U,2023.2.3,Win32,119.04761904759845,,,,,,1278.829600000024,61.0,5.0,1278.829600000024,61.0,,,,1283.001,1283.5055,1282.494,1283.0008000000118,1279.8281000000238,1282.4938999999763,1283.5055,1284.001800000012,1284.001899999976,1285.9063999999762,1637.0,1285.9063999999762,3.0,1285.9065,5.0,3.0,153.0,4.0,1.0,1.6,0.3,Time
,,S14,785667,1,M,23,anonymized,Serial_Dependence_U,2023.2.3,Win32,119.04761904759845,,,,,,1285.9066999999882,101.0,5.0,1285.9066999999882,101.0,,,,1289.8643999999765,1290.362300000012,1289.356600000024,1289.864100000024,1286.9195,1289.356199999988,1290.362300000012,1290.8573999999762,1290.8573999999762,1292.756100000024,1624.0,1292.756100000024,4.0,1292.7565,5.0,4.0,154.0,28.0,1.0,1.4,0.7,Time
,,S14,785667,1,M,23,anonymized,Serial_Dependence_U,2023.2.3,Win32,119.04761904759845,,,,,,1292.756699999988,134.0,5.0,1292.7568999999762,134.0,,,,1296.5365,1297.040800000012,1296.0321000000238,1296.536100000024,1293.768300000012,1296.031899999976,1297.040899999976,1297.540199999988,1297.540300000012,1299.430100000024,1488.0,1299.4301999999882,4.0,1299.430399999976,5.0,5.0,155.0,2.0,1.0,1.2,0.3,Time
,,S14,785667,1,M,23,anonymized,Serial_Dependence_U,2023.2.3,Win32,119.04761904759845,,,,,,1299.4306000000238,258.0,5.0,1299.4306000000238,258.0,,,,1303.008699999988,1303.5015,1302.5021000000238,1303.0085,1300.439699999988,1302.502,1303.501600000024,1304.001899999976,1304.002,1305.812800000012,1481.0,1305.812800000012,5.0,1305.8128999999765,5.0,6.0,156.0,21.0,1.0,1.0,0.3,Time
,,S14,785667,1,M,23,anonymized,Serial_Dependence_U,2023.2.3,Win32,119.04761904759845,,,,,,1305.813100000024,117.0,5.0,1305.813199999988,117.0,,,,1309.360699999988,1309.856699999988,1308.855199999988,1309.360600000024,1306.821300000012,1308.8548999999762,1309.8568000000118,1310.352699999988,1310.352800000012,1312.355100000024,1699.0,1312.355199999988,5.0,1312.355300000012,5.0,7.0,157.0,16.0,1.0,1.0,0.7,Time
,,S14,785667,1,M,23,anonymized,Serial_Dependence_U,2023.2.3,Win32,119.04761904759845,,,,,,1312.3553999999765,185.0,5.0,1312.3553999999765,185.0,,,,1316.502800000012,1317.002899999976,1315.9995,1316.5025,1313.366199999988,1315.9993999999765,1317.002899999976,1317.501199999988,1317.501300000012,1319.1045,1484.0,1319.1046000000238,2.0,1319.104800000012,5.0,8.0,158.0,9.0,1.0,1.6,0.7,Time
,,S14,785667,1,M,23,anonymized,Serial_Dependence_U,2023.2.3,Win32,119.04761904759845,,,,,,1319.105100000024,275.0,5.0,1319.105199999988,275.0,,,,1322.8483999999762,1323.343399999976,1322.344100000024,1322.8481000000238,1320.106899999976,1322.344,1323.343399999976,1323.842,1323.842,1325.84,1617.0,1325.84,5.0,1325.840199999988,5.0,9.0,159.0,17.0,1.0,1.2,0.7,Time
,,S14,785667,1,M,23,anonymized,Serial_Dependence_U,2023.2.3,Win32,119.04761904759845,,,,,,1325.8405,34.0,5.0,1325.8405,34.0,,,,1329.5808999999765,1330.0756000000238,1329.079199999988,1329.5806999999882,1326.843800000012,1329.078899999976,1330.0756000000238,1330.5748999999762,1330.575,1332.910100000024,1565.0,1332.9101999999882,5.0,1332.9105,5.0,10.0,160.0,27.0,1.0,1.2,0.7,Time
,,S14,785667,1,M,23,anonymized,Serial_Dependence_U,2023.2.3,Win32,119.04761904759845,,,,,,1332.9108999999762,14.0,5.0,1332.911,14.0,,,,1336.854800000012,1337.351199999988,1336.348,1336.8543999999763,1333.915199999988,1336.347600000024,1337.351199999988,1337.852399999976,1337.8525,1340.166800000012,1483.0,1340.1668999999763,4.0,1340.1671000000238,5.0,11.0,161.0,18.0,1.0,1.4,0.7,Time
,,S14,785667,1,M,23,anonymized,Serial_Dependence_U,2023.2.3,Win32,119.04761904759845,,,,,,1340.1675,237.0,5.0,1340.167699999988,237.0,,,,1344.348899999976,1344.8503999999762,1343.840800000012,1344.348600000024,1341.172100000024,1343.840800000012,1344.8503999999762,1345.346600000024,1345.346699999988,1347.3786999999882,1727.0,1347.378800000012,4.0,1347.3791000000238,5.0,12.0,162.0,24.0,1.0,1.6,0.3,Time
,,S14,785667,1,M,23,anonymized,Serial_Dependence_U,2023.2.3,Win32,119.04761904759845,,,,,,1347.379600000024,262.0,5.0,1347.379800000012,262.0,,,,1351.153699999988,1351.6535,1350.644899999976,1351.1533999999765,1348.3836000000238,1350.6445,1351.6535,1352.1525,1352.1525,1354.4286000000238,1774.0,1354.4286000000238,5.0,1354.428699999988,5.0,13.0,163.0,12.0,1.0,1.2,0.3,Time
,,S14,785667,1,M,23,anonymized,Serial_Dependence_U,2023.2.3,Win32,119.04761904759845,,,,,,1354.4288999999762,41.0,5.0,1354.429,41.0,,,,1358.5746000000238,1359.072800000012,1358.068300000012,1358.574399999976,1355.432300000012,1358.068199999988,1359.0728999999762,1359.5763999999765,1359.5763999999765,1361.3065,1555.0,1361.3065,3.0,1361.3066000000238,5.0,14.0,164.0,19.0,1.0,1.6,0.7,Time
,,S14,785667,1,M,23,anonymized,Serial_Dependence_U,2023.2.3,Win32,119.04761904759845,,,,,,1361.306800000012,141.0,5.0,1361.3068999999762,141.0,,,,1364.6621999999882,1365.1623999999763,1364.1526000000238,1364.662100000024,1362.314800000012,1364.152399999976,1365.1623999999763,1365.658800000012,1365.659,1367.256699999988,1341.0,1367.256800000012,5.0,1367.257,5.0,15.0,165.0,25.0,1.0,0.8,0.7,Time
,,S14,785667,1,M,23,anonymized,Serial_Dependence_U,2023.2.3,Win32,119.04761904759845,,,,,,1367.257100000024,104.0,5.0,1367.257100000024,104.0,,,,1371.226,1371.7285,1370.7243999999762,1371.225699999988,1368.263199999988,1370.724300000012,1371.7285,1372.231,1372.2311000000238,1373.925600000024,1408.0,1373.925600000024,3.0,1373.925800000012,5.0,16.0,166.0,13.0,1.0,1.4,0.3,Time
,,S14,785667,1,M,23,anonymized,Serial_Dependence_U,2023.2.3,Win32,119.04761904759845,,,,,,1373.9261000000238,35.0,5.0,1373.9261000000238,35.0,,,,1377.700100000024,1378.2051000000238,1377.1913999999765,1377.699800000012,1374.928800000012,1377.191100000024,1378.205199999988,1378.705300000012,1378.7053999999762,1380.749600000024,1603.0,1380.749699999988,5.0,1380.749800000012,5.0,17.0,167.0,22.0,1.0,1.2,0.3,Time
,,S14,785667,1,M,23,anonymized,Serial_Dependence_U,2023.2.3,Win32,119.04761904759845,,,,,,1380.7501000000238,125.0,5.0,1380.7501000000238,125.0,,,,1384.494600000024,1384.9956000000238,1383.9895,1384.494300000012,1381.754699999988,1383.9893999999765,1384.995699999988,1385.497399999976,1385.4975,1387.357300000012,1565.0,1387.3573999999762,5.0,1387.357600000024,5.0,18.0,168.0,7.0,1.0,1.2,0.7,Time
,,S14,785667,1,M,23,anonymized,Serial_Dependence_U,2023.2.3,Win32,119.04761904759845,,,,,,1387.3581000000238,139.0,5.0,1387.3581000000238,139.0,,,,1390.7271999999882,1391.222,1390.225199999988,1390.7268999999762,1388.362399999976,1390.2248999999763,1391.222199999988,1391.7205,1391.720600000024,1393.669199999988,1609.0,1393.6693000000118,5.0,1393.669399999976,5.0,19.0,169.0,20.0,1.0,0.8,0.3,Time
,,S14,785667,1,M,23,anonymized,Serial_Dependence_U,2023.2.3,Win32,119.04761904759845,,,,,,1393.6696000000238,213.0,5.0,1393.669699999988,213.0,,,,1397.2443999999762,1397.748300000012,1396.7391999999882,1397.244300000012,1394.676300000012,1396.7388999999762,1397.748300000012,1398.246100000024,1398.246100000024,1400.0355,1601.0,1400.0356000000238,5.0,1400.035800000012,5.0,20.0,170.0,11.0,1.0,1.0,0.3,Time
,,S14,785667,1,M,23,anonymized,Serial_Dependence_U,2023.2.3,Win32,119.04761904759845,,,,,,1400.036,13.0,5.0,1400.036,13.0,,,,1404.005,1404.505699999988,1403.501800000012,1404.004699999988,1401.034800000012,1403.5015,1404.505699999988,1405.0036999999882,1405.0036999999882,1406.962899999976,1695.0,1406.962899999976,4.0,1406.963300000012,5.0,21.0,171.0,23.0,1.0,1.4,0.3,Time
,,S14,785667,1,M,23,anonymized,Serial_Dependence_U,2023.2.3,Win32,119.04761904759845,,,,,,1406.963600000024,291.0,5.0,1406.9636999999882,291.0,,,,1410.3025,1410.800899999976,1409.796300000012,1410.302199999988,1407.963199999988,1409.796100000024,1410.800899999976,1411.2975,1411.297600000024,1412.885600000024,1340.0,1412.885699999988,5.0,1412.886,5.0,22.0,172.0,5.0,1.0,0.8,0.7,Time
,,S14,785667,1,M,23,anonymized,Serial_Dependence_U,2023.2.3,Win32,119.04761904759845,,,,,,1412.8863999999762,214.0,5.0,1412.8865,214.0,,,,1416.4333999999762,1416.929699999988,1415.930300000012,1416.4331000000238,1413.898199999988,1415.9298999999762,1416.929699999988,1417.432100000024,1417.432300000012,1419.0763999999765,1262.0,1419.0765,4.0,1419.076800000012,5.0,23.0,173.0,26.0,1.0,1.0,0.7,Time
,,S14,785667,1,M,23,anonymized,Serial_Dependence_U,2023.2.3,Win32,119.04761904759845,,,,,,1419.0771000000238,156.0,5.0,1419.077199999988,156.0,,,,1422.452199999988,1422.9491999999882,1421.944899999976,1422.452199999988,1420.0825,1421.9446999999882,1422.9491999999882,1423.4438000000118,1423.443899999976,1424.868800000012,934.0,1424.868800000012,4.0,1424.8688999999763,5.0,24.0,174.0,10.0,1.0,0.8,0.3,Time
,,S14,785667,1,M,23,anonymized,Serial_Dependence_U,2023.2.3,Win32,119.04761904759845,,,,,,1424.869199999988,158.0,5.0,1424.869300000012,158.0,,,,1428.4061000000238,1428.908300000012,1427.903,1428.405800000012,1425.868199999988,1427.902800000012,1428.9083999999762,1429.406300000012,1429.406300000012,1431.197800000012,1404.0,1431.198,5.0,1431.198199999988,5.0,25.0,175.0,6.0,1.0,1.0,0.7,Time
,,S14,785667,1,M,23,anonymized,Serial_Dependence_U,2023.2.3,Win32,119.04761904759845,,,,,,1431.1985,164.0,5.0,1431.198699999988,164.0,,,,1434.772600000024,1435.2711000000238,1434.2688999999762,1434.772600000024,1432.208100000024,1434.268699999988,1435.2711000000238,1435.766100000024,1435.7661999999882,1437.827300000012,1701.0,1437.8275,5.0,1437.827699999988,5.0,26.0,176.0,1.0,1.0,1.0,0.3,Time
,,S14,785667,1,M,23,anonymized,Serial_Dependence_U,2023.2.3,Win32,119.04761904759845,,,,,,1437.8281000000238,351.0,5.0,1437.8281000000238,351.0,,,,1441.1721999999882,1441.6733999999765,1440.666800000012,1441.171800000012,1438.8338999999762,1440.6665,1441.6733999999765,1442.1735,1442.173600000024,1443.834100000024,1486.0,1443.8341999999882,5.0,1443.834399999976,5.0,27.0,177.0,15.0,1.0,0.8,0.7,Time
,,S14,785667,1,M,23,anonymized,Serial_Dependence_U,2023.2.3,Win32,119.04761904759845,,,,,,1443.8348999999762,181.0,5.0,1443.835,181.0,,,,1447.214300000012,1447.7115,1446.708800000012,1447.2141000000238,1444.837699999988,1446.7086000000238,1447.7115,1448.2096000000238,1448.2096000000238,1450.000899999976,1422.0,1450.000899999976,5.0,1450.001,5.0,28.0,178.0,0.0,1.0,0.8,0.3,Time
,,S14,785667,1,M,23,anonymized,Serial_Dependence_U,2023.2.3,Win32,119.04761904759845,,,,,,1450.001199999988,353.0,5.0,1450.001300000012,353.0,,,,1454.178,1454.6765,1453.673800000012,1454.177800000012,1451.008800000012,1453.673699999988,1454.6765,1455.180399999976,1455.1805,1456.8453999999765,1499.0,1456.8455,2.0,1456.845699999988,5.0,29.0,179.0,14.0,1.0,1.6,0.3,Time
,,S14,785667,1,M,23,anonymized,Serial_Dependence_U,2023.2.3,Win32,119.04761904759845,,,,,,1456.846100000024,315.0,6.0,1572.414600000024,315.0,s,115.55719999998814,,1576.3585,1576.860100000024,1575.8546000000238,1576.358199999988,1573.422,1575.8543999999763,1576.860100000024,1577.361199999988,1577.361199999988,1579.4541000000238,1544.0,1579.454199999988,4.0,1579.454600000024,6.0,0.0,180.0,28.0,1.0,1.4,0.7,Time
,,S14,785667,1,M,23,anonymized,Serial_Dependence_U,2023.2.3,Win32,119.04761904759845,,,,,,1579.455,214.0,6.0,1579.456600000024,214.0,,,,1583.6055,1584.099600000024,1583.099300000012,1583.605300000012,1580.4623999999762,1583.099,1584.099600000024,1584.594399999976,1584.5945,1586.546699999988,1551.0,1586.5468999999762,3.0,1586.547100000024,6.0,1.0,181.0,9.0,1.0,1.6,0.7,Time
,,S14,785667,1,M,23,anonymized,Serial_Dependence_U,2023.2.3,Win32,119.04761904759845,,,,,,1586.5475,46.0,6.0,1586.547600000024,46.0,,,,1590.6861000000238,1591.183899999976,1590.178199999988,1590.685800000012,1587.547,1590.178100000024,1591.183899999976,1591.684800000012,1591.684899999976,1593.490600000024,1325.0,1593.490699999988,2.0,1593.490899999976,6.0,2.0,182.0,29.0,1.0,1.6,0.7,Time
,,S14,785667,1,M,23,anonymized,Serial_Dependence_U,2023.2.3,Win32,119.04761904759845,,,,,,1593.4913999999762,138.0,6.0,1593.4915,138.0,,,,1597.2646000000238,1597.7676000000238,1596.761600000024,1597.264399999976,1594.496199999988,1596.7613999999762,1597.7676000000238,1598.267399999976,1598.267399999976,1600.0001000000238,1510.0,1600.000199999988,4.0,1600.0003999999765,6.0,3.0,183.0,2.0,1.0,1.2,0.3,Time
,,S14,785667,1,M,23,anonymized,Serial_Dependence_U,2023.2.3,Win32,119.04761904759845,,,,,,1600.0008000000118,79.0,6.0,1600.000899999976,79.0,,,,1603.548300000012,1604.0511000000238,1603.0438999999762,1603.5478999999762,1601.0031000000238,1603.043800000012,1604.0511000000238,1604.551800000012,1604.551800000012,1606.964300000012,1538.0,1606.964300000012,5.0,1606.9645,6.0,4.0,184.0,16.0,1.0,1.0,0.7,Time
,,S14,785667,1,M,23,anonymized,Serial_Dependence_U,2023.2.3,Win32,119.04761904759845,,,,,,1606.9646999999882,128.0,6.0,1606.9646999999882,128.0,,,,1610.701800000012,1611.197399999976,1610.200800000012,1610.701699999988,1607.968800000012,1610.200800000012,1611.1975,1611.692899999976,1611.693,1613.665,1662.0,1613.6651000000238,5.0,1613.665300000012,6.0,5.0,185.0,7.0,1.0,1.2,0.7,Time
,,S14,785667,1,M,23,anonymized,Serial_Dependence_U,2023.2.3,Win32,119.04761904759845,,,,,,1613.6656999999882,128.0,6.0,1613.665800000012,128.0,,,,1617.4223999999765,1617.9211999999882,1616.917600000024,1617.422100000024,1614.6806000000238,1616.917199999988,1617.921300000012,1618.4223999999765,1618.4223999999765,1620.580600000024,1525.0,1620.580600000024,4.0,1620.5808999999765,6.0,6.0,186.0,17.0,1.0,1.2,0.7,Time
,,S14,785667,1,M,23,anonymized,Serial_Dependence_U,2023.2.3,Win32,119.04761904759845,,,,,,1620.581300000012,136.0,6.0,1620.5813999999762,136.0,,,,1624.5575,1625.0543000000118,1624.053199999988,1624.557199999988,1621.583800000012,1624.053100000024,1625.054399999976,1625.558300000012,1625.558300000012,1627.633300000012,1546.0,1627.6335,4.0,1627.633800000012,6.0,7.0,187.0,23.0,1.0,1.4,0.3,Time
,,S14,785667,1,M,23,anonymized,Serial_Dependence_U,2023.2.3,Win32,119.04761904759845,,,,,,1627.634100000024,81.0,6.0,1627.6343999999765,81.0,,,,1630.977100000024,1631.4813999999762,1630.4748999999763,1630.976800000012,1628.643699999988,1630.474800000012,1631.4813999999762,1631.9825,1631.9825,1634.107300000012,1589.0,1634.107300000012,5.0,1634.1075,6.0,8.0,188.0,25.0,1.0,0.8,0.7,Time
,,S14,785667,1,M,23,anonymized,Serial_Dependence_U,2023.2.3,Win32,119.04761904759845,,,,,,1634.107600000024,52.0,6.0,1634.1076999999882,52.0,,,,1638.076699999988,1638.5773999999765,1637.5746000000238,1638.0763999999765,1635.110600000024,1637.574399999976,1638.5773999999765,1639.074300000012,1639.074300000012,1640.926,1338.0,1640.926,3.0,1640.926199999988,6.0,9.0,189.0,13.0,1.0,1.4,0.3,Time
,,S14,785667,1,M,23,anonymized,Serial_Dependence_U,2023.2.3,Win32,119.04761904759845,,,,,,1640.926300000012,227.0,6.0,1640.9263999999762,227.0,,,,1644.4963000000118,1644.9931000000238,1643.9898999999762,1644.496199999988,1641.9288999999762,1643.989800000012,1644.9931000000238,1645.488,1645.488100000024,1647.059600000024,1283.0,1647.059600000024,4.0,1647.0596999999882,6.0,10.0,190.0,11.0,1.0,1.0,0.3,Time
,,S14,785667,1,M,23,anonymized,Serial_Dependence_U,2023.2.3,Win32,119.04761904759845,,,,,,1647.06,127.0,6.0,1647.06,127.0,,,,1650.5935,1651.093800000012,1650.0926000000238,1650.593399999976,1648.0581000000238,1650.0923000000118,1651.0938999999762,1651.5881000000238,1651.5881000000238,1653.588800000012,1489.0,1653.588899999976,5.0,1653.5891000000238,6.0,11.0,191.0,26.0,1.0,1.0,0.7,Time
,,S14,785667,1,M,23,anonymized,Serial_Dependence_U,2023.2.3,Win32,119.04761904759845,,,,,,1653.5895,187.0,6.0,1653.5896999999882,187.0,,,,1657.565399999976,1658.063800000012,1657.0611000000238,1657.565100000024,1654.5955,1657.0606999999882,1658.0638999999762,1658.559199999988,1658.559199999988,1660.8971000000238,1873.0,1660.8971000000238,5.0,1660.8975,6.0,12.0,192.0,3.0,1.0,1.4,0.3,Time
,,S14,785667,1,M,23,anonymized,Serial_Dependence_U,2023.2.3,Win32,119.04761904759845,,,,,,1660.897800000012,126.0,6.0,1660.898,126.0,,,,1664.466100000024,1664.9678999999762,1663.964,1664.465699999988,1661.9028999999762,1663.963899999976,1664.9678999999762,1665.464899999976,1665.465,1667.101699999988,1337.0,1667.101699999988,5.0,1667.101800000012,6.0,13.0,193.0,21.0,1.0,1.0,0.3,Time
,,S14,785667,1,M,23,anonymized,Serial_Dependence_U,2023.2.3,Win32,119.04761904759845,,,,,,1667.1018999999762,297.0,6.0,1667.102,297.0,,,,1670.471699999988,1670.964600000024,1669.9635,1670.471600000024,1668.101399999976,1669.963300000012,1670.964600000024,1671.471100000024,1671.471199999988,1673.2186000000238,1368.0,1673.218699999988,5.0,1673.2188999999762,6.0,14.0,194.0,10.0,1.0,0.8,0.3,Time
,,S14,785667,1,M,23,anonymized,Serial_Dependence_U,2023.2.3,Win32,119.04761904759845,,,,,,1673.219399999976,225.0,6.0,1673.2196000000238,225.0,,,,1677.006100000024,1677.509199999988,1676.505,1677.006,1674.24,1676.504800000012,1677.509199999988,1678.016699999988,1678.016699999988,1679.740300000012,1513.0,1679.7403999999765,4.0,1679.740699999988,6.0,15.0,195.0,12.0,1.0,1.2,0.3,Time
,,S14,785667,1,M,23,anonymized,Serial_Dependence_U,2023.2.3,Win32,119.04761904759845,,,,,,1679.7411000000238,82.0,6.0,1679.741199999988,82.0,,,,1683.110800000012,1683.6108999999765,1682.607899999976,1683.110699999988,1680.7413999999762,1682.607800000012,1683.6108999999765,1684.11,1684.11,1685.830300000012,1534.0,1685.8303999999762,5.0,1685.830600000024,6.0,16.0,196.0,0.0,1.0,0.8,0.3,Time
,,S14,785667,1,M,23,anonymized,Serial_Dependence_U,2023.2.3,Win32,119.04761904759845,,,,,,1685.8306999999882,201.0,6.0,1685.831,201.0,,,,1689.182,1689.676199999988,1688.671800000012,1689.1818999999762,1686.837300000012,1688.671699999988,1689.676199999988,1690.173800000012,1690.173899999976,1691.666800000012,1113.0,1691.666800000012,5.0,1691.6668999999763,6.0,17.0,197.0,5.0,1.0,0.8,0.7,Time
,,S14,785667,1,M,23,anonymized,Serial_Dependence_U,2023.2.3,Win32,119.04761904759845,,,,,,1691.6671000000238,116.0,6.0,1691.667300000012,116.0,,,,1695.6143999999765,1696.111699999988,1695.1096999999882,1695.6141999999882,1692.666199999988,1695.109600000024,1696.111699999988,1696.606199999988,1696.606199999988,1698.350300000012,1515.0,1698.3503999999762,4.0,1698.350600000024,6.0,18.0,198.0,8.0,1.0,1.4,0.7,Time
,,S14,785667,1,M,23,anonymized,Serial_Dependence_U,2023.2.3,Win32,119.04761904759845,,,,,,1698.351,64.0,6.0,1698.351300000012,64.0,,,,1702.0908999999765,1702.5871000000238,1701.5896999999882,1702.090600000024,1699.356300000012,1701.5896999999882,1702.5871000000238,1703.0838999999762,1703.084,1704.6136000000238,1240.0,1704.6136000000238,3.0,1704.613800000012,6.0,19.0,199.0,27.0,1.0,1.2,0.7,Time
,,S14,785667,1,M,23,anonymized,Serial_Dependence_U,2023.2.3,Win32,119.04761904759845,,,,,,1704.6138999999762,85.0,6.0,1704.614,85.0,,,,1708.755199999988,1709.2565,1708.253300000012,1708.755100000024,1705.6176999999882,1708.253,1709.2565,1709.7545,1709.7545,1711.205300000012,1400.0,1711.205300000012,2.0,1711.2053999999762,6.0,20.0,200.0,19.0,1.0,1.6,0.7,Time
,,S14,785667,1,M,23,anonymized,Serial_Dependence_U,2023.2.3,Win32,119.04761904759845,,,,,,1711.2055,20.0,6.0,1711.205600000024,20.0,,,,1714.742300000012,1715.239100000024,1714.237100000024,1714.742,1712.2065,1714.2368999999762,1715.2391999999882,1715.742600000024,1715.742600000024,1717.586600000024,1532.0,1717.586699999988,5.0,1717.587,6.0,21.0,201.0,6.0,1.0,1.0,0.7,Time
,,S14,785667,1,M,23,anonymized,Serial_Dependence_U,2023.2.3,Win32,119.04761904759845,,,,,,1717.5873999999762,98.0,6.0,1717.587699999988,98.0,,,,1720.964300000012,1721.4565,1720.4605,1720.964199999988,1718.5965,1720.460100000024,1721.456600000024,1721.952199999988,1721.952300000012,1724.0713999999762,1554.0,1724.0713999999762,5.0,1724.0715,6.0,22.0,202.0,20.0,1.0,0.8,0.3,Time
,,S14,785667,1,M,23,anonymized,Serial_Dependence_U,2023.2.3,Win32,119.04761904759845,,,,,,1724.071699999988,44.0,6.0,1724.071800000012,44.0,,,,1728.0203999999762,1728.518100000024,1727.5121000000238,1728.0201000000238,1725.078800000012,1727.5116999999882,1728.5181999999882,1729.015699999988,1729.0158999999762,1730.810899999976,1435.0,1730.811,3.0,1730.8111000000238,6.0,23.0,203.0,18.0,1.0,1.4,0.7,Time
,,S14,785667,1,M,23,anonymized,Serial_Dependence_U,2023.2.3,Win32,119.04761904759845,,,,,,1730.811300000012,94.0,6.0,1730.811300000012,94.0,,,,1734.585699999988,1735.0801000000238,1734.0785,1734.585300000012,1731.8155,1734.078199999988,1735.0801000000238,1735.578600000024,1735.578600000024,1737.868300000012,1679.0,1737.868300000012,5.0,1737.8685,6.0,24.0,204.0,22.0,1.0,1.2,0.3,Time
,,S14,785667,1,M,23,anonymized,Serial_Dependence_U,2023.2.3,Win32,119.04761904759845,,,,,,1737.868600000024,117.0,6.0,1737.868800000012,117.0,,,,1742.0465,1742.540600000024,1741.5425,1742.046100000024,1738.876300000012,1741.5421000000238,1742.5406999999882,1743.042199999988,1743.042199999988,1745.221300000012,1661.0,1745.2213999999765,3.0,1745.221600000024,6.0,25.0,205.0,14.0,1.0,1.6,0.3,Time
,,S14,785667,1,M,23,anonymized,Serial_Dependence_U,2023.2.3,Win32,119.04761904759845,,,,,,1745.222,324.0,6.0,1745.222199999988,324.0,,,,1749.403100000024,1749.902300000012,1748.8981000000238,1749.403,1746.229800000012,1748.898,1749.902399999976,1750.399199999988,1750.399300000012,1752.1598999999762,1466.0,1752.1598999999762,2.0,1752.160100000024,6.0,26.0,206.0,24.0,1.0,1.6,0.3,Time
,,S14,785667,1,M,23,anonymized,Serial_Dependence_U,2023.2.3,Win32,119.04761904759845,,,,,,1752.1605,97.0,6.0,1752.160699999988,97.0,,,,1755.5063000000118,1756.0081999999882,1755.001300000012,1755.506100000024,1753.1665,1755.0011000000238,1756.0081999999882,1756.5123999999762,1756.5125,1758.907,1607.0,1758.907,5.0,1758.907300000012,6.0,27.0,207.0,15.0,1.0,0.8,0.7,Time
,,S14,785667,1,M,23,anonymized,Serial_Dependence_U,2023.2.3,Win32,119.04761904759845,,,,,,1758.907600000024,265.0,6.0,1758.9076999999882,265.0,,,,1763.077199999988,1763.572300000012,1762.5745,1763.077,1759.9048000000118,1762.574399999976,1763.572399999976,1764.0696999999882,1764.0696999999882,1765.760899999976,1313.0,1765.761,2.0,1765.761199999988,6.0,28.0,208.0,4.0,1.0,1.6,0.3,Time
,,S14,785667,1,M,23,anonymized,Serial_Dependence_U,2023.2.3,Win32,119.04761904759845,,,,,,1765.761300000012,204.0,6.0,1765.7615,204.0,,,,1769.3265,1769.822,1768.823399999976,1769.326300000012,1766.761199999988,1768.823199999988,1769.822,1770.321300000012,1770.321300000012,1772.196800000012,1593.0,1772.196800000012,5.0,1772.197,6.0,29.0,209.0,1.0,1.0,1.0,0.3,Time
,,S14,785667,1,M,23,anonymized,Serial_Dependence_U,2023.2.3,Win32,119.04761904759845,,,,,,1772.197199999988,140.0,7.0,1774.3065,140.0,s,2.1000999999641863,,1777.8731999999882,1778.367300000012,1777.370800000012,1777.873,1775.3056000000238,1777.370699999988,1778.367300000012,1778.861800000012,1778.861800000012,1780.8265,1590.0,1780.8265,5.0,1780.826800000012,7.0,0.0,210.0,1.0,1.0,1.0,0.3,Time
,,S14,785667,1,M,23,anonymized,Serial_Dependence_U,2023.2.3,Win32,119.04761904759845,,,,,,1780.8271000000238,323.0,7.0,1780.828899999976,323.0,,,,1784.401,1784.9053999999762,1783.891699999988,1784.400699999988,1781.8263999999765,1783.891399999976,1784.9055,1785.404300000012,1785.4043999999762,1787.5325,1566.0,1787.5325,5.0,1787.532600000024,7.0,1.0,211.0,21.0,1.0,1.0,0.3,Time
,,S14,785667,1,M,23,anonymized,Serial_Dependence_U,2023.2.3,Win32,119.04761904759845,,,,,,1787.532800000012,103.0,7.0,1787.5328999999765,103.0,,,,1791.700399999976,1792.199399999976,1791.1945,1791.7,1788.528800000012,1791.194300000012,1792.199399999976,1792.7023999999765,1792.7025,1794.6381000000238,1660.0,1794.638199999988,3.0,1794.6383999999762,7.0,2.0,212.0,4.0,1.0,1.6,0.3,Time
,,S14,785667,1,M,23,anonymized,Serial_Dependence_U,2023.2.3,Win32,119.04761904759845,,,,,,1794.638600000024,81.0,7.0,1794.638699999988,81.0,,,,1798.819600000024,1799.3226000000238,1798.311,1798.8193999999762,1795.6426000000238,1798.310600000024,1799.322699999988,1799.818899999976,1799.819,1801.958100000024,1738.0,1801.958100000024,4.0,1801.958300000012,7.0,3.0,213.0,14.0,1.0,1.6,0.3,Time
,,S14,785667,1,M,23,anonymized,Serial_Dependence_U,2023.2.3,Win32,119.04761904759845,,,,,,1801.9585,254.0,7.0,1801.958600000024,254.0,,,,1805.711199999988,1806.207100000024,1805.203800000012,1805.710899999976,1802.968600000024,1805.203699999988,1806.207199999988,1806.7013999999765,1806.7015,1808.486100000024,1447.0,1808.486100000024,4.0,1808.486300000012,7.0,4.0,214.0,17.0,1.0,1.2,0.7,Time
,,S14,785667,1,M,23,anonymized,Serial_Dependence_U,2023.2.3,Win32,119.04761904759845,,,,,,1808.486600000024,59.0,7.0,1808.486800000012,59.0,,,,1811.839600000024,1812.339600000024,1811.332600000024,1811.839199999988,1809.489800000012,1811.332399999976,1812.339600000024,1812.837399999976,1812.837399999976,1814.762100000024,1567.0,1814.762100000024,5.0,1814.762300000012,7.0,5.0,215.0,25.0,1.0,0.8,0.7,Time
,,S14,785667,1,M,23,anonymized,Serial_Dependence_U,2023.2.3,Win32,119.04761904759845,,,,,,1814.7625,117.0,7.0,1814.762699999988,117.0,,,,1818.534199999988,1819.033699999988,1818.028800000012,1818.534,1815.768199999988,1818.028699999988,1819.033699999988,1819.530899999976,1819.530899999976,1821.616300000012,1735.0,1821.616399999976,5.0,1821.616600000024,7.0,6.0,216.0,22.0,1.0,1.2,0.3,Time
,,S14,785667,1,M,23,anonymized,Serial_Dependence_U,2023.2.3,Win32,119.04761904759845,,,,,,1821.617100000024,58.0,7.0,1821.617300000012,58.0,,,,1825.758699999988,1826.2535,1825.250899999976,1825.7585,1822.617399999976,1825.250800000012,1826.253600000024,1826.754,1826.754,1828.792600000024,1801.0,1828.792600000024,4.0,1828.792800000012,7.0,7.0,217.0,19.0,1.0,1.6,0.7,Time
,,S14,785667,1,M,23,anonymized,Serial_Dependence_U,2023.2.3,Win32,119.04761904759845,,,,,,1828.793,77.0,7.0,1828.793199999988,77.0,,,,1832.169899999976,1832.671800000012,1831.665300000012,1832.169800000012,1829.799300000012,1831.664899999976,1832.671899999976,1833.168100000024,1833.168199999988,1835.103399999976,1607.0,1835.1035,5.0,1835.103600000024,7.0,8.0,218.0,20.0,1.0,0.8,0.3,Time
,,S14,785667,1,M,23,anonymized,Serial_Dependence_U,2023.2.3,Win32,119.04761904759845,,,,,,1835.103699999988,292.0,7.0,1835.103800000012,292.0,,,,1838.461699999988,1838.955800000012,1837.9535,1838.4615,1836.111600000024,1837.9535,1838.9558999999765,1839.451199999988,1839.4513999999765,1841.685,1901.0,1841.685,5.0,1841.685,7.0,9.0,219.0,5.0,1.0,0.8,0.7,Time
,,S14,785667,1,M,23,anonymized,Serial_Dependence_U,2023.2.3,Win32,119.04761904759845,,,,,,1841.685199999988,161.0,7.0,1841.685399999976,161.0,,,,1845.457300000012,1845.957100000024,1844.955,1845.457,1842.6925,1844.954399999976,1845.957100000024,1846.456399999976,1846.456399999976,1848.655100000024,1801.0,1848.655100000024,5.0,1848.655199999988,7.0,10.0,220.0,12.0,1.0,1.2,0.3,Time
,,S14,785667,1,M,23,anonymized,Serial_Dependence_U,2023.2.3,Win32,119.04761904759845,,,,,,1848.655399999976,51.0,7.0,1848.655399999976,51.0,,,,1852.208,1852.698800000012,1851.700899999976,1852.207699999988,1849.667100000024,1851.7005,1852.698899999976,1853.194399999976,1853.1945,1855.551100000024,1813.0,1855.551199999988,5.0,1855.551399999976,7.0,11.0,221.0,16.0,1.0,1.0,0.7,Time
,,S14,785667,1,M,23,anonymized,Serial_Dependence_U,2023.2.3,Win32,119.04761904759845,,,,,,1855.551600000024,194.0,7.0,1855.551699999988,194.0,,,,1859.520600000024,1860.024199999988,1859.019,1859.520300000012,1856.550100000024,1859.018899999976,1860.024199999988,1860.522800000012,1860.5228999999763,1862.563899999976,1676.0,1862.563899999976,4.0,1862.564,7.0,12.0,222.0,13.0,1.0,1.4,0.3,Time
,,S14,785667,1,M,23,anonymized,Serial_Dependence_U,2023.2.3,Win32,119.04761904759845,,,,,,1862.564399999976,80.0,7.0,1862.5645,80.0,,,,1866.532300000012,1867.032300000012,1866.030300000012,1866.532199999988,1863.566899999976,1866.029899999976,1867.032300000012,1867.5338999999765,1867.534,1869.745199999988,1896.0,1869.745300000012,5.0,1869.745600000024,7.0,13.0,223.0,3.0,1.0,1.4,0.3,Time
,,S14,785667,1,M,23,anonymized,Serial_Dependence_U,2023.2.3,Win32,119.04761904759845,,,,,,1869.745800000012,120.0,7.0,1869.745899999976,120.0,,,,1873.698199999988,1874.201600000024,1873.185699999988,1873.698100000024,1870.75,1873.185600000024,1874.201600000024,1874.6975,1874.6975,1877.332,2053.0,1877.332100000024,5.0,1877.332399999976,7.0,14.0,224.0,28.0,1.0,1.4,0.7,Time
,,S14,785667,1,M,23,anonymized,Serial_Dependence_U,2023.2.3,Win32,119.04761904759845,,,,,,1877.332800000012,78.0,7.0,1877.332899999976,78.0,,,,1881.504399999976,1882.001199999988,1880.999899999976,1881.504199999988,1878.334899999976,1880.999800000012,1882.001199999988,1882.495100000024,1882.495100000024,1884.7745,1949.0,1884.774600000024,4.0,1884.775,7.0,15.0,225.0,24.0,1.0,1.6,0.3,Time
,,S14,785667,1,M,23,anonymized,Serial_Dependence_U,2023.2.3,Win32,119.04761904759845,,,,,,1884.775399999976,247.0,7.0,1884.775699999988,247.0,,,,1888.3175,1888.818100000024,1887.811100000024,1888.3175,1885.772699999988,1887.810899999976,1888.818199999988,1889.314199999988,1889.314300000012,1891.725300000012,1767.0,1891.725399999976,5.0,1891.7255,7.0,16.0,226.0,26.0,1.0,1.0,0.7,Time
,,S14,785667,1,M,23,anonymized,Serial_Dependence_U,2023.2.3,Win32,119.04761904759845,,,,,,1891.725699999988,51.0,7.0,1891.725699999988,51.0,,,,1895.503800000012,1896.001,1894.995,1895.5035,1892.726300000012,1894.9948999999765,1896.001,1896.497100000024,1896.497100000024,1897.968199999988,1226.0,1897.968300000012,3.0,1897.968399999976,7.0,17.0,227.0,2.0,1.0,1.2,0.3,Time
,,S14,785667,1,M,23,anonymized,Serial_Dependence_U,2023.2.3,Win32,119.04761904759845,,,,,,1897.968600000024,247.0,7.0,1897.968699999988,247.0,,,,1901.315699999988,1901.813300000012,1900.803699999988,1901.315600000024,1898.9695,1900.803399999976,1901.813399999976,1902.314100000024,1902.314100000024,1904.020300000012,1476.0,1904.020300000012,5.0,1904.0205,7.0,18.0,228.0,15.0,1.0,0.8,0.7,Time
,,S14,785667,1,M,23,anonymized,Serial_Dependence_U,2023.2.3,Win32,119.04761904759845,,,,,,1904.020800000012,89.0,7.0,1904.021,89.0,,,,1908.1735,1908.6735,1907.664899999976,1908.173199999988,1905.027,1907.6645,1908.673699999988,1909.174600000024,1909.174800000012,1911.278100000024,1743.0,1911.278100000024,4.0,1911.278300000012,7.0,19.0,229.0,9.0,1.0,1.6,0.7,Time
,,S14,785667,1,M,23,anonymized,Serial_Dependence_U,2023.2.3,Win32,119.04761904759845,,,,,,1911.2785,56.0,7.0,1911.278699999988,56.0,,,,1915.219699999988,1915.715,1914.716399999976,1915.219600000024,1912.285800000012,1914.716300000012,1915.715100000024,1916.217199999988,1916.217300000012,1918.4033999999765,1900.0,1918.4033999999765,5.0,1918.403600000024,7.0,20.0,230.0,8.0,1.0,1.4,0.7,Time
,,S14,785667,1,M,23,anonymized,Serial_Dependence_U,2023.2.3,Win32,119.04761904759845,,,,,,1918.403800000012,29.0,7.0,1918.404,29.0,,,,1921.976,1922.4803999999765,1921.471100000024,1921.9758999999765,1919.407699999988,1921.470699999988,1922.4805,1922.978600000024,1922.978699999988,1924.6925,1325.0,1924.692600000024,5.0,1924.692800000012,7.0,21.0,231.0,11.0,1.0,1.0,0.3,Time
,,S14,785667,1,M,23,anonymized,Serial_Dependence_U,2023.2.3,Win32,119.04761904759845,,,,,,1924.693100000024,132.0,7.0,1924.693300000012,132.0,,,,1928.661100000024,1929.155199999988,1928.159600000024,1928.661,1925.696199999988,1928.159199999988,1929.155199999988,1929.653199999988,1929.653300000012,1931.695,1513.0,1931.695,4.0,1931.695199999988,7.0,22.0,232.0,23.0,1.0,1.4,0.3,Time
,,S14,785667,1,M,23,anonymized,Serial_Dependence_U,2023.2.3,Win32,119.04761904759845,,,,,,1931.695399999976,206.0,7.0,1931.695600000024,206.0,,,,1935.453699999988,1935.951800000012,1934.9445,1935.4535,1932.703199999988,1934.944399999976,1935.951800000012,1936.4555,1936.455600000024,1938.670800000012,1640.0,1938.670800000012,5.0,1938.671,7.0,23.0,233.0,27.0,1.0,1.2,0.7,Time
,,S14,785667,1,M,23,anonymized,Serial_Dependence_U,2023.2.3,Win32,119.04761904759845,,,,,,1938.671,166.0,7.0,1938.671100000024,166.0,,,,1942.815300000012,1943.316699999988,1942.307,1942.815100000024,1939.671899999976,1942.306600000024,1943.316699999988,1943.820699999988,1943.820699999988,1946.055199999988,1728.0,1946.055300000012,4.0,1946.0555,7.0,24.0,234.0,29.0,1.0,1.6,0.7,Time
,,S14,785667,1,M,23,anonymized,Serial_Dependence_U,2023.2.3,Win32,119.04761904759845,,,,,,1946.055800000012,4.0,7.0,1946.055899999976,4.0,,,,1950.001,1950.498699999988,1949.4975,1950.000699999988,1947.063800000012,1949.497199999988,1950.498699999988,1950.994399999976,1950.9945,1953.3635,2034.0,1953.363699999988,5.0,1953.363899999976,7.0,25.0,235.0,18.0,1.0,1.4,0.7,Time
,,S14,785667,1,M,23,anonymized,Serial_Dependence_U,2023.2.3,Win32,119.04761904759845,,,,,,1953.364300000012,180.0,7.0,1953.3645,180.0,,,,1957.096,1957.593800000012,1956.595600000024,1957.095899999976,1954.364,1956.5953999999765,1957.593800000012,1958.096600000024,1958.096600000024,1959.5038999999765,1248.0,1959.504100000024,3.0,1959.504199999988,7.0,26.0,236.0,7.0,1.0,1.2,0.7,Time
,,S14,785667,1,M,23,anonymized,Serial_Dependence_U,2023.2.3,Win32,119.04761904759845,,,,,,1959.5045,314.0,7.0,1959.504699999988,314.0,,,,1962.891300000012,1963.391399999976,1962.382399999976,1962.891,1960.518699999988,1962.382199999988,1963.391399999976,1963.885199999988,1963.885300000012,1965.328199999988,1291.0,1965.328300000012,5.0,1965.328600000024,7.0,27.0,237.0,10.0,1.0,0.8,0.3,Time
,,S14,785667,1,M,23,anonymized,Serial_Dependence_U,2023.2.3,Win32,119.04761904759845,,,,,,1965.329,280.0,7.0,1965.329199999988,280.0,,,,1968.7075,1969.206699999988,1968.204,1968.707300000012,1966.339,1968.203699999988,1969.206699999988,1969.703,1969.703,1971.3335,1452.0,1971.333600000024,5.0,1971.333899999976,7.0,28.0,238.0,0.0,1.0,0.8,0.3,Time
,,S14,785667,1,M,23,anonymized,Serial_Dependence_U,2023.2.3,Win32,119.04761904759845,,,,,,1971.334300000012,79.0,7.0,1971.3345,79.0,,,,1974.8653999999765,1975.365899999976,1974.363399999976,1974.865199999988,1972.3305,1974.363300000012,1975.366,1975.865199999988,1975.865199999988,1977.464399999976,1375.0,1977.464399999976,5.0,1977.464600000024,7.0,29.0,239.0,6.0,1.0,1.0,0.7,Time
,,S14,785667,1,M,23,anonymized,Serial_Dependence_U,2023.2.3,Win32,119.04761904759845,,,,,,1977.464699999988,347.0,8.0,1979.708300000012,347.0,s,2.236000000000104,,1983.4955,1983.990800000012,1982.987300000012,1983.495199999988,1980.721100000024,1982.987100000024,1983.990800000012,1984.491199999988,1984.491199999988,1986.592399999976,1566.0,1986.592399999976,5.0,1986.592600000024,8.0,0.0,240.0,12.0,1.0,1.2,0.3,Time
,,S14,785667,1,M,23,anonymized,Serial_Dependence_U,2023.2.3,Win32,119.04761904759845,,,,,,1986.592699999988,187.0,8.0,1986.593899999976,187.0,,,,1990.5505,1991.0485,1990.047600000024,1990.550300000012,1987.608100000024,1990.047300000012,1991.048600000024,1991.545399999976,1991.5455,1993.296899999976,1520.0,1993.297,4.0,1993.297100000024,8.0,1.0,241.0,28.0,1.0,1.4,0.7,Time
,,S14,785667,1,M,23,anonymized,Serial_Dependence_U,2023.2.3,Win32,119.04761904759845,,,,,,1993.297199999988,86.0,8.0,1993.2973999999765,86.0,,,,1997.044699999988,1997.543899999976,1996.5375,1997.044300000012,1994.305100000024,1996.537100000024,1997.543899999976,1998.049399999976,1998.049399999976,1999.686100000024,1445.0,1999.686100000024,4.0,1999.686100000024,8.0,2.0,242.0,7.0,1.0,1.2,0.7,Time
,,S14,785667,1,M,23,anonymized,Serial_Dependence_U,2023.2.3,Win32,119.04761904759845,,,,,,1999.686399999976,41.0,8.0,1999.686399999976,41.0,,,,2003.035199999988,2003.5335,2002.529699999988,2003.034899999976,2000.691,2002.5295,2003.533600000024,2004.038,2004.038,2005.490600000024,1342.0,2005.490600000024,5.0,2005.490800000012,8.0,3.0,243.0,5.0,1.0,0.8,0.7,Time
,,S14,785667,1,M,23,anonymized,Serial_Dependence_U,2023.2.3,Win32,119.04761904759845,,,,,,2005.4908999999764,71.0,8.0,2005.491,71.0,,,,2009.6648999999768,2010.161199999988,2009.161300000012,2009.6646999999884,2006.4971999999884,2009.1608000000124,2010.161199999988,2010.6663999999764,2010.6665000000005,2012.1435,1130.0,2012.143600000024,2.0,2012.143800000012,8.0,4.0,244.0,4.0,1.0,1.6,0.3,Time
,,S14,785667,1,M,23,anonymized,Serial_Dependence_U,2023.2.3,Win32,119.04761904759845,,,,,,2012.1438999999764,85.0,8.0,2012.144,85.0,,,,2016.281399999976,2016.7821999999885,2015.776899999976,2016.2813000000124,2013.1425000000004,2015.7768000000124,2016.782300000012,2017.282300000012,2017.2823999999764,2019.123300000012,1500.0,2019.123300000012,2.0,2019.123600000024,8.0,5.0,245.0,19.0,1.0,1.6,0.7,Time
,,S14,785667,1,M,23,anonymized,Serial_Dependence_U,2023.2.3,Win32,119.04761904759845,,,,,,2019.1240000000005,161.0,8.0,2019.124100000024,161.0,,,,2022.697800000012,2023.204100000024,2022.196100000024,2022.697600000024,2020.130100000024,2022.1958999999763,2023.2041999999883,2023.7068999999765,2023.7070000000003,2025.3808999999765,1368.0,2025.3808999999765,5.0,2025.381100000024,8.0,6.0,246.0,11.0,1.0,1.0,0.3,Time
,,S14,785667,1,M,23,anonymized,Serial_Dependence_U,2023.2.3,Win32,119.04761904759845,,,,,,2025.3816000000245,233.0,8.0,2025.3818000000124,233.0,,,,2029.1461999999883,2029.645300000012,2028.645199999988,2029.1458999999763,2026.3840000000005,2028.6450000000004,2029.645399999976,2030.141100000024,2030.141199999988,2032.404199999988,1804.0,2032.404300000012,5.0,2032.4045,8.0,7.0,247.0,2.0,1.0,1.2,0.3,Time
,,S14,785667,1,M,23,anonymized,Serial_Dependence_U,2023.2.3,Win32,119.04761904759845,,,,,,2032.404800000012,340.0,8.0,2032.4048999999764,340.0,,,,2036.373,2036.875699999988,2035.869100000024,2036.3726999999883,2033.4078999999765,2035.869,2036.875800000012,2037.3761999999883,2037.3761999999883,2039.4153000000124,1871.0,2039.4153000000124,5.0,2039.415399999976,8.0,8.0,248.0,3.0,1.0,1.4,0.3,Time
,,S14,785667,1,M,23,anonymized,Serial_Dependence_U,2023.2.3,Win32,119.04761904759845,,,,,,2039.4155,112.0,8.0,2039.4155,112.0,,,,2043.5925,2044.0953999999765,2043.0816999999884,2043.5925,2040.4153000000124,2043.081300000012,2044.0953999999765,2044.588100000024,2044.5881999999883,2046.3575,1481.0,2046.3575,2.0,2046.357800000012,8.0,9.0,249.0,24.0,1.0,1.6,0.3,Time
,,S14,785667,1,M,23,anonymized,Serial_Dependence_U,2023.2.3,Win32,119.04761904759845,,,,,,2046.358100000024,255.0,8.0,2046.3581999999883,255.0,,,,2050.505300000012,2051.005800000012,2049.996300000012,2050.505,2047.3648999999764,2049.996199999988,2051.005800000012,2051.5073999999763,2051.5073999999763,2053.399899999976,1635.0,2053.399899999976,3.0,2053.4,8.0,10.0,250.0,9.0,1.0,1.6,0.7,Time
,,S14,785667,1,M,23,anonymized,Serial_Dependence_U,2023.2.3,Win32,119.04761904759845,,,,,,2053.400300000012,267.0,8.0,2053.4005,267.0,,,,2057.3680000000004,2057.870800000012,2056.865300000012,2057.3678999999765,2054.4040000000005,2056.865,2057.870899999976,2058.375699999988,2058.375699999988,2060.3948000000123,1424.0,2060.3948999999766,3.0,2060.3951000000243,8.0,11.0,251.0,23.0,1.0,1.4,0.3,Time
,,S14,785667,1,M,23,anonymized,Serial_Dependence_U,2023.2.3,Win32,119.04761904759845,,,,,,2060.395300000012,95.0,8.0,2060.3955,95.0,,,,2063.929300000012,2064.428899999976,2063.4260000000004,2063.928899999976,2061.394300000012,2063.425600000024,2064.429,2064.9236999999885,2064.9238000000123,2067.213600000024,1554.0,2067.2136999999884,5.0,2067.2138999999765,8.0,12.0,252.0,6.0,1.0,1.0,0.7,Time
,,S14,785667,1,M,23,anonymized,Serial_Dependence_U,2023.2.3,Win32,119.04761904759845,,,,,,2067.2143000000124,169.0,8.0,2067.2145,169.0,,,,2070.788699999988,2071.2808000000123,2070.2805000000003,2070.788699999988,2068.217199999988,2070.2803999999765,2071.2808000000123,2071.784300000012,2071.7843999999764,2074.5453999999763,1641.0,2074.5453999999763,5.0,2074.545600000024,8.0,13.0,253.0,21.0,1.0,1.0,0.3,Time
,,S14,785667,1,M,23,anonymized,Serial_Dependence_U,2023.2.3,Win32,119.04761904759845,,,,,,2074.545800000012,177.0,8.0,2074.5458999999764,177.0,,,,2077.9218999999766,2078.4170000000004,2077.416100000024,2077.9216999999885,2075.547100000024,2077.416,2078.4170000000004,2078.915800000012,2078.915800000012,2080.3773000000124,1219.0,2080.3773000000124,5.0,2080.377399999976,8.0,14.0,254.0,20.0,1.0,0.8,0.3,Time
,,S14,785667,1,M,23,anonymized,Serial_Dependence_U,2023.2.3,Win32,119.04761904759845,,,,,,2080.377600000024,174.0,8.0,2080.377600000024,174.0,,,,2084.3296999999884,2084.834100000024,2083.8233000000123,2084.3295000000003,2081.3883000000124,2083.8230000000003,2084.834100000024,2085.329100000024,2085.329100000024,2086.9443000000124,1278.0,2086.9443000000124,2.0,2086.944399999976,8.0,15.0,255.0,8.0,1.0,1.4,0.7,Time
