Scale_setup.started,Scale_setup.stopped,participant,session,sex,age,date,expName,psychopyVersion,OS,frameRate,screen_scale_keys.started,screen_scale_keys.stopped,X Scale,Y Scale,rectangel_keys.started,rectangel_keys.stopped,Intro.started,Intro.stopped,key_resp_2.keys,key_resp_2.rt,key_resp_2.duration,block.started,Block_id,block.stopped,Block_resp_2.keys,Block_resp_2.rt,Block_resp_2.duration,ITI.started,ITI.stopped,Mask_2.started,Mask_2.stopped,M2.started,direction,M2.stopped,Cue.started,Cue.stopped,Response.started,Response.stopped,keyDuration,Feedback_Time.started,FeedbackID_T,Feedback_Time.stopped,trials.thisRepN,trials.thisTrialN,trials.thisN,trials.thisIndex,trials.ran,TimeDur,Coherence1,TrialType
0.0005,0.001,S14,1,female,28,anonymized,Serial_Dependence_U,2023.2.3,Win32,39.84063745,,,,,,,,,,,,,,,,,,,,,,,,,,,,,,,,,,,,,,,,
,,S14,1,female,28,anonymized,Serial_Dependence_U,2023.2.3,Win32,39.84063745,0.0041,128.25,0.058,0.0571,128.2507,225.55,225.552,296.1337,space,70.499,,,,,,,,,,,,,,,,,,,,,,,,,,,,,,
,,S14,1,female,28,anonymized,Serial_Dependence_U,2023.2.3,Win32,39.84063745,,,,,,,,,,,,296.1553,0.0,305.2896,s,9.0832,,307.874,308.3743,307.3487,307.8734,306.3228,228.0,307.3481,308.375,308.8763,308.8777,314.8989,9999.0,314.9004,0.0,315.901,0.0,0.0,0.0,16.0,1.0,1.0,0.7,Time
,,S14,1,female,28,anonymized,Serial_Dependence_U,2023.2.3,Win32,39.84063745,,,,,,,,,,,,315.9056,0.0,315.9114,,,,318.6352,319.1348,318.1085,318.6349,316.9036,8.0,318.1081,319.1351,319.6359,319.636,322.271,1770.8,322.2714,5.0,323.2733,0.0,1.0,1.0,7.0,1.0,1.2,0.7,Time
,,S14,1,female,28,anonymized,Serial_Dependence_U,2023.2.3,Win32,39.84063745,,,,,,,,,,,,323.2743,0.0,323.2748,,,,326.0091,326.5092,325.4837,326.009,324.2793,98.0,325.4835,326.5095,327.0112,327.0114,327.3886,309.0,327.3891,1.0,328.3908,0.0,2.0,2.0,17.0,1.0,1.2,0.7,Time
,,S14,1,female,28,anonymized,Serial_Dependence_U,2023.2.3,Win32,39.84063745,,,,,,,,,,,,328.3929,0.0,328.3947,,,,331.1281,331.6281,330.6017,331.1278,329.397,104.0,330.6011,331.6301,332.1281,332.1282,333.1073,352.4,333.1078,1.0,334.1102,0.0,3.0,3.0,22.0,1.0,1.2,0.3,Time
,,S14,1,female,28,anonymized,Serial_Dependence_U,2023.2.3,Win32,39.84063745,,,,,,,,,,,,334.1119,0.0,334.1139,,,,336.4429,336.9436,335.9203,336.4428,335.1135,240.0,335.9179,336.9436,337.4455,337.4456,338.8519,695.6,338.8524,2.0,339.8536,0.0,4.0,4.0,10.0,1.0,0.8,0.3,Time
,,S14,1,female,28,anonymized,Serial_Dependence_U,2023.2.3,Win32,39.84063745,,,,,,,,,,,,339.8546,0.0,339.8557,,,,342.7901,343.2903,342.2649,342.7899,340.8606,300.0,342.2645,343.2906,343.7916,343.7917,345.1731,324.5,345.1736,1.0,346.1749,0.0,5.0,5.0,8.0,1.0,1.4,0.7,Time
,,S14,1,female,28,anonymized,Serial_Dependence_U,2023.2.3,Win32,39.84063745,,,,,,,,,,,,346.1764,0.0,346.1773,,,,349.1125,349.6113,348.5861,349.1122,347.1812,42.0,348.5856,349.6117,350.1134,350.1136,353.8767,202.0,353.8772,1.0,354.8792,0.0,6.0,6.0,3.0,1.0,1.4,0.3,Time
,,S14,1,female,28,anonymized,Serial_Dependence_U,2023.2.3,Win32,39.84063745,,,,,,,,,,,,354.8814,0.0,354.8838,,,,357.7915,358.2902,357.2885,357.7913,355.885,206.0,357.2883,358.2904,358.7921,358.7924,360.4734,1053.9,360.4741,2.0,361.4762,0.0,7.0,7.0,18.0,1.0,1.4,0.7,Time
,,S14,1,female,28,anonymized,Serial_Dependence_U,2023.2.3,Win32,39.84063745,,,,,,,,,,,,361.4774,0.0,361.4781,,,,363.9865,364.4862,363.4844,363.9863,362.4821,145.0,363.4842,364.4864,364.9877,364.9881,366.6954,609.3,366.696,1.0,367.697,0.0,8.0,8.0,11.0,1.0,1.0,0.3,Time
,,S14,1,female,28,anonymized,Serial_Dependence_U,2023.2.3,Win32,39.84063745,,,,,,,,,,,,367.6989,0.0,367.7005,,,,370.6337,371.1334,370.1066,370.6334,368.7021,44.0,370.1064,371.1335,371.635,371.6354,372.1888,73.60000001,372.1893,1.0,373.1902,0.0,9.0,9.0,13.0,1.0,1.4,0.3,Time
,,S14,1,female,28,anonymized,Serial_Dependence_U,2023.2.3,Win32,39.84063745,,,,,,,,,,,,373.1918,0.0,373.1931,,,,375.5243,376.0245,374.9991,375.5242,374.1964,246.0,374.9987,376.0247,376.5259,376.526,378.3351,1080.4,378.3361,5.0,379.3358,0.0,10.0,10.0,25.0,1.0,0.8,0.7,Time
,,S14,1,female,28,anonymized,Serial_Dependence_U,2023.2.3,Win32,39.84063745,,,,,,,,,,,,379.3376,0.0,379.339,,,,382.0469,382.5461,381.5449,382.0467,380.3405,182.0,381.5445,382.5463,383.048,383.0483,384.5542,978.1,384.5549,2.0,385.5564,0.0,11.0,11.0,2.0,1.0,1.2,0.3,Time
,,S14,1,female,28,anonymized,Serial_Dependence_U,2023.2.3,Win32,39.84063745,,,,,,,,,,,,385.5582,0.0,385.5595,,,,388.6938,389.1931,388.1669,388.6936,386.5628,323.0,388.1666,389.1932,389.6948,389.6949,391.2274,1260.8,391.2278,2.0,392.2288,0.0,12.0,12.0,4.0,1.0,1.6,0.3,Time
,,S14,1,female,28,anonymized,Serial_Dependence_U,2023.2.3,Win32,39.84063745,,,,,,,,,,,,392.2306,0.0,392.2318,,,,394.7635,395.2641,394.2367,394.7633,393.2346,165.0,394.2365,395.2642,395.7656,395.7658,397.8997,1252.1,397.9003,4.0,398.9009,0.0,13.0,13.0,21.0,1.0,1.0,0.3,Time
,,S14,1,female,28,anonymized,Serial_Dependence_U,2023.2.3,Win32,39.84063745,,,,,,,,,,,,398.9024,0.0,398.9037,,,,401.2349,401.7346,400.7103,401.2347,399.9073,326.0,400.7101,401.7347,402.2369,402.2371,403.3918,703.9,403.3922,2.0,404.3945,0.0,14.0,14.0,5.0,1.0,0.8,0.7,Time
,,S14,1,female,28,anonymized,Serial_Dependence_U,2023.2.3,Win32,39.84063745,,,,,,,,,,,,404.3966,0.0,404.3973,,,,407.331,407.8309,406.8038,407.3305,405.3995,136.0,406.8033,407.8312,408.3326,408.3329,409.487,18.59999999,409.4883,1.0,410.4898,0.0,15.0,15.0,28.0,1.0,1.4,0.7,Time
,,S14,1,female,28,anonymized,Serial_Dependence_U,2023.2.3,Win32,39.84063745,,,,,,,,,,,,410.4914,0.0,410.4922,,,,413.4504,413.9518,412.9239,413.45,411.519,256.0,412.9235,413.9519,414.4523,414.4523,417.289,825.8,417.2899,1.0,418.2909,0.0,16.0,16.0,23.0,1.0,1.4,0.3,Time
,,S14,1,female,28,anonymized,Serial_Dependence_U,2023.2.3,Win32,39.84063745,,,,,,,,,,,,418.2925,0.0,418.2936,,,,420.8503,421.3503,420.3255,420.8498,419.3204,41.0,420.3229,421.3503,421.8519,421.852,424.2358,957.4,424.2367,3.0,425.2394,0.0,17.0,17.0,26.0,1.0,1.0,0.7,Time
,,S14,1,female,28,anonymized,Serial_Dependence_U,2023.2.3,Win32,39.84063745,,,,,,,,,,,,425.2413,0.0,425.2423,,,,428.4003,428.9007,427.8734,428.3999,426.2681,257.0,427.873,428.901,429.4029,429.403,431.6365,4.099999994,431.6375,1.0,432.6384,0.0,18.0,18.0,24.0,1.0,1.6,0.3,Time
,,S14,1,female,28,anonymized,Serial_Dependence_U,2023.2.3,Win32,39.84063745,,,,,,,,,,,,432.6399,0.0,432.6407,,,,434.9976,435.4975,434.4718,434.997,433.6442,302.0,434.4714,435.4976,436.0003,436.0006,437.6582,1234.1,437.659,5.0,438.658,0.0,19.0,19.0,0.0,1.0,0.8,0.3,Time
,,S14,1,female,28,anonymized,Serial_Dependence_U,2023.2.3,Win32,39.84063745,,,,,,,,,,,,438.6591,0.0,438.6597,,,,441.0174,441.5184,440.4905,441.017,439.6629,51.0,440.4901,441.5185,442.0193,442.0193,443.1738,912.3,443.1744,4.0,444.1763,0.0,20.0,20.0,15.0,1.0,0.8,0.7,Time
,,S14,1,female,28,anonymized,Serial_Dependence_U,2023.2.3,Win32,39.84063745,,,,,,,,,,,,444.1772,0.0,444.1783,,,,446.9621,447.4634,446.4353,446.9617,445.207,318.0,446.4349,447.4635,447.9653,447.9655,449.52,974.0,449.5208,2.0,450.5234,0.0,21.0,21.0,27.0,1.0,1.2,0.7,Time
,,S14,1,female,28,anonymized,Serial_Dependence_U,2023.2.3,Win32,39.84063745,,,,,,,,,,,,450.5254,0.0,450.5264,,,,453.6863,454.1856,453.1589,453.6857,451.5525,244.0,453.1585,454.1857,454.6864,454.6866,458.2996,1195.9,458.3003,2.0,459.3019,0.0,22.0,22.0,19.0,1.0,1.6,0.7,Time
,,S14,1,female,28,anonymized,Serial_Dependence_U,2023.2.3,Win32,39.84063745,,,,,,,,,,,,459.3031,0.0,459.3038,,,,462.4149,462.9142,461.912,462.4145,460.3067,161.0,461.9117,462.9143,463.4163,463.4167,465.3239,1255.5,465.3248,2.0,466.3259,0.0,23.0,23.0,14.0,1.0,1.6,0.3,Time
,,S14,1,female,28,anonymized,Serial_Dependence_U,2023.2.3,Win32,39.84063745,,,,,,,,,,,,466.3277,0.0,466.3286,,,,469.4873,469.9872,468.9606,469.4869,467.355,286.0,468.9601,469.9873,470.49,470.4902,471.5434,252.8,471.5441,1.0,472.546,0.0,24.0,24.0,9.0,1.0,1.6,0.7,Time
,,S14,1,female,28,anonymized,Serial_Dependence_U,2023.2.3,Win32,39.84063745,,,,,,,,,,,,472.5469,0.0,472.5478,,,,475.0812,475.5812,474.5794,475.0811,473.5532,232.0,474.5792,475.5815,476.0832,476.0833,478.3915,1096.9,478.3919,4.0,479.3947,0.0,25.0,25.0,1.0,1.0,1.0,0.3,Time
,,S14,1,female,28,anonymized,Serial_Dependence_U,2023.2.3,Win32,39.84063745,,,,,,,,,,,,479.3964,0.0,479.3978,,,,482.506,483.0059,482.004,482.5058,480.3993,287.0,482.0038,483.0062,483.5078,483.5081,489.529,9999.0,489.5294,0.0,490.5312,0.0,26.0,26.0,29.0,1.0,1.6,0.7,Time
,,S14,1,female,28,anonymized,Serial_Dependence_U,2023.2.3,Win32,39.84063745,,,,,,,,,,,,490.5335,0.0,490.5352,,,,493.0666,493.5663,492.5404,493.0664,491.5359,113.0,492.5401,493.5665,494.0681,494.0683,496.2263,1050.2,496.2268,4.0,497.2285,0.0,27.0,27.0,6.0,1.0,1.0,0.7,Time
,,S14,1,female,28,anonymized,Serial_Dependence_U,2023.2.3,Win32,39.84063745,,,,,,,,,,,,497.2306,0.0,497.2321,,,,499.9656,500.4645,499.4387,499.9653,498.2339,131.0,499.4384,500.4646,500.9655,500.9655,503.2498,1403.9,503.2502,4.0,504.2517,0.0,28.0,28.0,12.0,1.0,1.2,0.3,Time
,,S14,1,female,28,anonymized,Serial_Dependence_U,2023.2.3,Win32,39.84063745,,,,,,,,,,,,504.2528,0.0,504.2536,,,,506.5877,507.0857,506.0846,506.5874,505.2586,266.0,506.0843,507.0857,507.5882,507.5885,509.2944,598.2,509.2948,2.0,510.2974,0.0,29.0,29.0,20.0,1.0,0.8,0.3,Time
,,S14,1,female,28,anonymized,Serial_Dependence_U,2023.2.3,Win32,39.84063745,,,,,,,,,,,,510.2991,1.0,517.3704,s,7.0202,,519.9063,520.4057,519.4036,519.906,518.377,21.0,519.4035,520.4059,520.9069,520.9071,522.4631,850.2,522.4634,2.0,523.4659,1.0,0.0,30.0,26.0,1.0,1.0,0.7,Time
,,S14,1,female,28,anonymized,Serial_Dependence_U,2023.2.3,Win32,39.84063745,,,,,,,,,,,,523.467,1.0,523.4723,,,,526.4278,526.9274,525.9022,526.4275,524.4742,107.0,525.9018,526.9276,527.4293,527.4295,529.512,1151.7,529.5124,2.0,530.5144,1.0,1.0,31.0,23.0,1.0,1.4,0.3,Time
,,S14,1,female,28,anonymized,Serial_Dependence_U,2023.2.3,Win32,39.84063745,,,,,,,,,,,,530.5163,1.0,530.5175,,,,533.0508,533.5497,532.5237,533.0504,531.5206,66.0,532.5234,533.5498,534.0513,534.0515,535.7591,876.8,535.7596,2.0,536.7603,1.0,2.0,32.0,1.0,1.0,1.0,0.3,Time
,,S14,1,female,28,anonymized,Serial_Dependence_U,2023.2.3,Win32,39.84063745,,,,,,,,,,,,536.7621,1.0,536.7634,,,,539.2952,539.7957,538.7696,539.295,537.7663,103.0,538.7693,539.7958,540.2975,540.2977,542.0534,1067.4,542.0539,4.0,543.0565,1.0,3.0,33.0,6.0,1.0,1.0,0.7,Time
,,S14,1,female,28,anonymized,Serial_Dependence_U,2023.2.3,Win32,39.84063745,,,,,,,,,,,,543.0583,1.0,543.0597,,,,545.3904,545.8907,544.8648,545.3903,544.0611,32.0,544.8646,545.8909,546.3926,546.3928,547.8233,753.9,547.8237,2.0,548.8257,1.0,4.0,34.0,20.0,1.0,0.8,0.3,Time
,,S14,1,female,28,anonymized,Serial_Dependence_U,2023.2.3,Win32,39.84063745,,,,,,,,,,,,548.8272,1.0,548.828,,,,551.7385,552.2368,551.2349,551.7382,549.832,147.0,551.2346,552.237,552.7385,552.7387,555.8501,981.0,555.8505,2.0,556.8525,1.0,5.0,35.0,28.0,1.0,1.4,0.7,Time
,,S14,1,female,28,anonymized,Serial_Dependence_U,2023.2.3,Win32,39.84063745,,,,,,,,,,,,556.8539,1.0,556.8546,,,,559.3864,559.8873,558.8603,559.3863,557.8571,230.0,558.86,559.8875,560.3886,560.3887,562.3715,892.5,562.3719,2.0,563.3741,1.0,6.0,36.0,21.0,1.0,1.0,0.3,Time
,,S14,1,female,28,anonymized,Serial_Dependence_U,2023.2.3,Win32,39.84063745,,,,,,,,,,,,563.3757,1.0,563.3767,,,,566.1109,566.6097,565.6078,566.1105,564.4041,196.0,565.6077,566.61,567.1116,567.1118,568.3665,1097.7,568.3668,2.0,569.369,1.0,7.0,37.0,12.0,1.0,1.2,0.3,Time
,,S14,1,female,28,anonymized,Serial_Dependence_U,2023.2.3,Win32,39.84063745,,,,,,,,,,,,569.3707,1.0,569.3717,,,,572.4811,572.9813,571.9792,572.4808,570.374,214.0,571.9789,572.9814,573.4829,573.4831,575.7909,1652.2,575.7911,3.0,576.7938,1.0,8.0,38.0,29.0,1.0,1.6,0.7,Time
,,S14,1,female,28,anonymized,Serial_Dependence_U,2023.2.3,Win32,39.84063745,,,,,,,,,,,,576.7953,1.0,576.7966,,,,579.1531,579.6536,578.6259,579.1529,577.8225,186.0,578.6257,579.6537,580.1544,580.1545,581.5096,701.7,581.5097,2.0,582.513,1.0,9.0,39.0,25.0,1.0,0.8,0.7,Time
,,S14,1,female,28,anonymized,Serial_Dependence_U,2023.2.3,Win32,39.84063745,,,,,,,,,,,,582.5149,1.0,582.516,,,,585.2233,585.7236,584.7218,585.2231,583.5191,74.0,584.7217,585.7239,586.2254,586.2255,588.1076,1075.8,588.1079,2.0,589.11,1.0,10.0,40.0,2.0,1.0,1.2,0.3,Time
,,S14,1,female,28,anonymized,Serial_Dependence_U,2023.2.3,Win32,39.84063745,,,,,,,,,,,,589.1118,1.0,589.1133,,,,591.6448,592.1448,591.1429,591.6446,590.1152,25.0,591.1427,592.145,592.647,592.6472,594.5289,1128.6,594.5293,4.0,595.5309,1.0,11.0,41.0,11.0,1.0,1.0,0.3,Time
,,S14,1,female,28,anonymized,Serial_Dependence_U,2023.2.3,Win32,39.84063745,,,,,,,,,,,,595.5321,1.0,595.5329,,,,598.4438,598.9424,597.9406,598.4435,596.5361,191.0,597.9405,598.9426,599.4444,599.4448,601.452,1198.3,601.4523,2.0,602.4543,1.0,12.0,42.0,8.0,1.0,1.4,0.7,Time
,,S14,1,female,28,anonymized,Serial_Dependence_U,2023.2.3,Win32,39.84063745,,,,,,,,,,,,602.4561,1.0,602.4573,,,,605.5914,606.0913,605.0648,605.5912,603.4603,287.0,605.0646,606.0915,606.5928,606.5928,608.5757,1124.9,608.5761,2.0,609.5783,1.0,13.0,43.0,9.0,1.0,1.6,0.7,Time
,,S14,1,female,28,anonymized,Serial_Dependence_U,2023.2.3,Win32,39.84063745,,,,,,,,,,,,609.5801,1.0,609.5813,,,,612.715,613.215,612.2132,612.7147,610.6068,45.0,612.2129,613.2152,613.7172,613.7173,616.0769,1358.1,616.0773,2.0,617.0781,1.0,14.0,44.0,19.0,1.0,1.6,0.7,Time
,,S14,1,female,28,anonymized,Serial_Dependence_U,2023.2.3,Win32,39.84063745,,,,,,,,,,,,617.0797,1.0,617.0809,,,,619.8149,620.3137,619.288,619.8148,618.0832,54.0,619.2877,620.3139,620.8157,620.816,622.9733,998.2,622.9736,2.0,623.9762,1.0,15.0,45.0,17.0,1.0,1.2,0.7,Time
,,S14,1,female,28,anonymized,Serial_Dependence_U,2023.2.3,Win32,39.84063745,,,,,,,,,,,,623.9781,1.0,623.9795,,,,626.3368,626.8355,625.8099,626.3365,624.9827,93.0,625.8097,626.8357,627.3371,627.3374,628.8934,649.6,628.8939,2.0,629.896,1.0,16.0,46.0,5.0,1.0,0.8,0.7,Time
,,S14,1,female,28,anonymized,Serial_Dependence_U,2023.2.3,Win32,39.84063745,,,,,,,,,,,,629.8979,1.0,629.8995,,,,633.0081,633.5077,632.506,633.0079,630.902,257.0,632.5058,633.5078,634.0096,634.0097,635.967,1097.7,635.9672,1.0,636.9694,1.0,17.0,47.0,24.0,1.0,1.6,0.3,Time
,,S14,1,female,28,anonymized,Serial_Dependence_U,2023.2.3,Win32,39.84063745,,,,,,,,,,,,636.971,1.0,636.9723,,,,639.5032,640.0043,638.9776,639.503,637.9747,315.0,638.9774,640.0045,640.5058,640.5058,641.8615,652.6,641.8619,1.0,642.8645,1.0,18.0,48.0,16.0,1.0,1.0,0.7,Time
,,S14,1,female,28,anonymized,Serial_Dependence_U,2023.2.3,Win32,39.84063745,,,,,,,,,,,,642.8663,1.0,642.8679,,,,645.8001,646.3004,645.2748,645.7999,643.8707,20.0,645.2745,646.3006,646.8025,646.8027,648.8098,1247.6,648.8102,2.0,649.8122,1.0,19.0,49.0,3.0,1.0,1.4,0.3,Time
,,S14,1,female,28,anonymized,Serial_Dependence_U,2023.2.3,Win32,39.84063745,,,,,,,,,,,,649.8141,1.0,649.8156,,,,652.7497,653.2485,652.2469,652.7495,650.8411,274.0,652.2467,653.2487,653.7505,653.7507,655.6826,1203.8,655.6834,2.0,656.6851,1.0,20.0,50.0,18.0,1.0,1.4,0.7,Time
,,S14,1,female,28,anonymized,Serial_Dependence_U,2023.2.3,Win32,39.84063745,,,,,,,,,,,,656.687,1.0,656.6883,,,,659.4212,659.9208,658.9189,659.4209,657.7139,260.0,658.9187,659.921,660.4228,660.423,662.3809,1304.5,662.3814,4.0,663.3823,1.0,21.0,51.0,7.0,1.0,1.2,0.7,Time
,,S14,1,female,28,anonymized,Serial_Dependence_U,2023.2.3,Win32,39.84063745,,,,,,,,,,,,663.3836,1.0,663.3845,,,,666.521,667.0195,665.9944,666.5207,664.3876,0.0,665.994,667.0197,667.5208,667.5209,669.68,1557.0,669.6804,3.0,670.682,1.0,22.0,52.0,14.0,1.0,1.6,0.3,Time
,,S14,1,female,28,anonymized,Serial_Dependence_U,2023.2.3,Win32,39.84063745,,,,,,,,,,,,670.6836,1.0,670.685,,,,673.4179,673.9176,672.892,673.4177,671.6869,232.0,672.8918,673.9177,674.4193,674.4194,676.2263,1197.6,676.2266,3.0,677.2287,1.0,23.0,53.0,27.0,1.0,1.2,0.7,Time
,,S14,1,female,28,anonymized,Serial_Dependence_U,2023.2.3,Win32,39.84063745,,,,,,,,,,,,677.2303,1.0,677.2315,,,,679.9658,680.4646,679.4626,679.9656,678.2573,141.0,679.4625,680.4647,680.9664,680.9667,683.0239,1235.0,683.0242,3.0,684.0264,1.0,24.0,54.0,22.0,1.0,1.2,0.3,Time
,,S14,1,female,28,anonymized,Serial_Dependence_U,2023.2.3,Win32,39.84063745,,,,,,,,,,,,684.0284,1.0,684.0299,,,,687.1631,687.6634,686.6609,687.1629,685.0328,208.0,686.6608,687.6636,688.1655,688.1657,690.2232,1459.2,690.2236,2.0,691.2255,1.0,25.0,55.0,4.0,1.0,1.6,0.3,Time
,,S14,1,female,28,anonymized,Serial_Dependence_U,2023.2.3,Win32,39.84063745,,,,,,,,,,,,691.227,1.0,691.2277,,,,693.5861,694.0847,693.0588,693.5859,692.232,8.0,693.0586,694.085,694.5865,694.5866,696.1426,695.1,696.1431,2.0,697.1449,1.0,26.0,56.0,15.0,1.0,0.8,0.7,Time
,,S14,1,female,28,anonymized,Serial_Dependence_U,2023.2.3,Win32,39.84063745,,,,,,,,,,,,697.1462,1.0,697.1477,,,,699.4812,699.9794,698.954,699.481,698.1498,181.0,698.9538,699.9796,700.4807,700.4808,702.2135,1029.2,702.2138,4.0,703.2154,1.0,27.0,57.0,0.0,1.0,0.8,0.3,Time
,,S14,1,female,28,anonymized,Serial_Dependence_U,2023.2.3,Win32,39.84063745,,,,,,,,,,,,703.2169,1.0,703.2176,,,,706.1513,706.6519,705.6263,706.1511,704.2215,119.0,705.6261,706.652,707.1543,707.1544,708.7617,833.9,708.7625,1.0,709.7623,1.0,28.0,58.0,13.0,1.0,1.4,0.3,Time
,,S14,1,female,28,anonymized,Serial_Dependence_U,2023.2.3,Win32,39.84063745,,,,,,,,,,,,709.7641,1.0,709.7658,,,,712.0975,712.5966,711.5706,712.0972,710.7675,35.0,711.5703,712.5967,713.0982,713.0985,715.1571,1106.4,715.1575,5.0,716.1583,1.0,29.0,59.0,10.0,1.0,0.8,0.3,Time
,,S14,1,female,28,anonymized,Serial_Dependence_U,2023.2.3,Win32,39.84063745,,,,,,,,,,,,716.16,2.0,722.5294,s,6.3176,,724.8663,725.364,724.3625,724.8661,723.5363,30.0,724.3623,725.3642,725.8658,725.866,727.2019,628.8,727.2027,2.0,728.1985,2.0,0.0,60.0,15.0,1.0,0.8,0.7,Time
,,S14,1,female,28,anonymized,Serial_Dependence_U,2023.2.3,Win32,39.84063745,,,,,,,,,,,,728.1998,2.0,728.2051,,,,730.5342,731.0331,730.0307,730.534,729.2048,11.0,730.0306,731.0332,731.5346,731.535,733.1169,750.7,733.1175,2.0,734.1182,2.0,1.0,61.0,25.0,1.0,0.8,0.7,Time
,,S14,1,female,28,anonymized,Serial_Dependence_U,2023.2.3,Win32,39.84063745,,,,,,,,,,,,734.1199,2.0,734.1211,,,,736.6545,737.1535,736.1514,736.6544,735.1247,102.0,736.1512,737.1535,737.655,737.6553,739.1862,920.5,739.1865,2.0,740.1887,2.0,2.0,62.0,6.0,1.0,1.0,0.7,Time
,,S14,1,female,28,anonymized,Serial_Dependence_U,2023.2.3,Win32,39.84063745,,,,,,,,,,,,740.1906,2.0,740.1919,,,,742.5238,743.0229,742.0213,742.5236,741.2185,175.0,742.0211,743.023,743.5248,743.5251,744.8803,728.4,744.8807,2.0,745.8825,2.0,3.0,63.0,20.0,1.0,0.8,0.3,Time
,,S14,1,female,28,anonymized,Serial_Dependence_U,2023.2.3,Win32,39.84063745,,,,,,,,,,,,745.8844,2.0,745.8856,,,,748.419,748.9174,747.8918,748.4188,746.8884,146.0,747.8916,748.9176,749.4192,749.4195,750.7248,728.6,750.7252,2.0,751.727,2.0,4.0,64.0,26.0,1.0,1.0,0.7,Time
,,S14,1,female,28,anonymized,Serial_Dependence_U,2023.2.3,Win32,39.84063745,,,,,,,,,,,,751.7289,2.0,751.7301,,,,754.6872,755.1885,754.1628,754.687,752.7573,276.0,754.1626,755.1887,755.6902,755.6905,756.3683,155.6,756.3688,1.0,757.3703,2.0,5.0,65.0,18.0,1.0,1.4,0.7,Time
,,S14,1,female,28,anonymized,Serial_Dependence_U,2023.2.3,Win32,39.84063745,,,,,,,,,,,,757.371,2.0,757.3716,,,,760.3072,760.8068,759.7819,760.307,758.3776,140.0,759.7815,760.8069,761.309,761.3093,763.4181,903.2,763.4185,1.0,764.4195,2.0,6.0,66.0,13.0,1.0,1.4,0.3,Time
,,S14,1,female,28,anonymized,Serial_Dependence_U,2023.2.3,Win32,39.84063745,,,,,,,,,,,,764.4213,2.0,764.4229,,,,766.954,767.4543,766.4517,766.9539,765.4253,318.0,766.4516,767.4545,767.9561,767.9563,769.5624,1073.7,769.5629,4.0,770.5649,2.0,7.0,67.0,16.0,1.0,1.0,0.7,Time
,,S14,1,female,28,anonymized,Serial_Dependence_U,2023.2.3,Win32,39.84063745,,,,,,,,,,,,770.5662,2.0,770.567,,,,772.8996,773.3988,772.3974,772.8994,771.5708,257.0,772.3973,773.3991,773.9009,773.9012,775.3558,676.6,775.356,2.0,776.3586,2.0,8.0,68.0,10.0,1.0,0.8,0.3,Time
,,S14,1,female,28,anonymized,Serial_Dependence_U,2023.2.3,Win32,39.84063745,,,,,,,,,,,,776.3597,2.0,776.3602,,,,778.869,779.3692,778.3671,778.8687,777.3642,29.0,778.3669,779.3694,779.871,779.8711,781.7278,1033.7,781.7285,3.0,782.7305,2.0,9.0,69.0,21.0,1.0,1.0,0.3,Time
,,S14,1,female,28,anonymized,Serial_Dependence_U,2023.2.3,Win32,39.84063745,,,,,,,,,,,,782.732,2.0,782.7328,,,,785.6668,786.167,785.1409,785.6666,783.7352,351.0,785.1407,786.1672,786.6684,786.6687,788.8771,1123.2,788.8775,2.0,789.8793,2.0,10.0,70.0,23.0,1.0,1.4,0.3,Time
,,S14,1,female,28,anonymized,Serial_Dependence_U,2023.2.3,Win32,39.84063745,,,,,,,,,,,,789.8807,2.0,789.8816,,,,792.5908,793.0898,792.0881,792.5906,790.8852,121.0,792.0879,793.0899,793.5916,793.5918,795.4743,1120.3,795.4748,2.0,796.4759,2.0,11.0,71.0,12.0,1.0,1.2,0.3,Time
,,S14,1,female,28,anonymized,Serial_Dependence_U,2023.2.3,Win32,39.84063745,,,,,,,,,,,,796.4772,2.0,796.4781,,,,799.4125,799.9125,798.886,799.4123,797.4799,71.0,798.8858,799.9127,800.414,800.4141,802.5223,1254.6,802.5228,2.0,803.5247,2.0,12.0,72.0,8.0,1.0,1.4,0.7,Time
,,S14,1,female,28,anonymized,Serial_Dependence_U,2023.2.3,Win32,39.84063745,,,,,,,,,,,,803.5267,2.0,803.528,,,,806.6869,807.1864,806.1613,806.6867,804.5534,206.0,806.161,807.1866,807.6883,807.6884,810.0474,1626.0,810.0477,3.0,811.0498,2.0,13.0,73.0,19.0,1.0,1.6,0.7,Time
,,S14,1,female,28,anonymized,Serial_Dependence_U,2023.2.3,Win32,39.84063745,,,,,,,,,,,,811.0516,2.0,811.0529,,,,813.7615,814.2605,813.2586,813.7613,812.0561,206.0,813.2585,814.2607,814.7621,814.7624,816.4689,975.6,816.4693,2.0,817.4706,2.0,14.0,74.0,22.0,1.0,1.2,0.3,Time
,,S14,1,female,28,anonymized,Serial_Dependence_U,2023.2.3,Win32,39.84063745,,,,,,,,,,,,817.4714,2.0,817.4721,,,,820.5842,821.0831,820.0812,820.5839,818.4772,204.0,820.0809,821.0832,821.5849,821.5852,823.5675,1201.6,823.5679,2.0,824.5694,2.0,15.0,75.0,4.0,1.0,1.6,0.3,Time
,,S14,1,female,28,anonymized,Serial_Dependence_U,2023.2.3,Win32,39.84063745,,,,,,,,,,,,824.5703,2.0,824.5713,,,,827.3065,827.8057,826.7801,827.3063,825.5762,306.0,826.7798,827.8058,828.3072,828.3076,830.1405,1154.6,830.1408,3.0,831.142,2.0,16.0,76.0,17.0,1.0,1.2,0.7,Time
,,S14,1,female,28,anonymized,Serial_Dependence_U,2023.2.3,Win32,39.84063745,,,,,,,,,,,,831.144,2.0,831.1453,,,,833.8785,834.3774,833.3515,833.8782,832.1482,146.0,833.3513,834.3776,834.8791,834.8793,837.0375,1298.4,837.0379,4.0,838.04,2.0,17.0,77.0,2.0,1.0,1.2,0.3,Time
,,S14,1,female,28,anonymized,Serial_Dependence_U,2023.2.3,Win32,39.84063745,,,,,,,,,,,,838.0418,2.0,838.0433,,,,840.8005,841.3005,840.2739,840.8003,839.0703,225.0,840.2737,841.3007,841.8022,841.8025,843.6344,1206.0,843.6347,3.0,844.6369,2.0,18.0,78.0,7.0,1.0,1.2,0.7,Time
,,S14,1,female,28,anonymized,Serial_Dependence_U,2023.2.3,Win32,39.84063745,,,,,,,,,,,,844.6383,2.0,844.6391,,,,847.7483,848.249,847.2458,847.7481,845.6427,198.0,847.2456,848.2491,848.7506,848.7508,851.1346,1552.6,851.135,3.0,852.1368,2.0,19.0,79.0,24.0,1.0,1.6,0.3,Time
,,S14,1,female,28,anonymized,Serial_Dependence_U,2023.2.3,Win32,39.84063745,,,,,,,,,,,,852.1387,2.0,852.14,,,,855.2487,855.7487,854.7469,855.2485,853.1418,78.0,854.7467,855.7489,856.2507,856.251,858.4096,1279.1,858.4101,2.0,859.4115,2.0,20.0,80.0,14.0,1.0,1.6,0.3,Time
,,S14,1,female,28,anonymized,Serial_Dependence_U,2023.2.3,Win32,39.84063745,,,,,,,,,,,,859.4136,2.0,859.4153,,,,862.5483,863.0479,862.0223,862.548,860.417,289.0,862.022,863.0482,863.5497,863.5499,865.5325,1404.5,865.533,2.0,866.5343,2.0,21.0,81.0,29.0,1.0,1.6,0.7,Time
,,S14,1,female,28,anonymized,Serial_Dependence_U,2023.2.3,Win32,39.84063745,,,,,,,,,,,,866.5355,2.0,866.5363,,,,869.6719,870.1717,869.1462,869.6717,867.5408,134.0,869.146,870.1719,870.6735,870.6737,872.9823,1656.9,872.9826,3.0,873.9849,2.0,22.0,82.0,9.0,1.0,1.6,0.7,Time
,,S14,1,female,28,anonymized,Serial_Dependence_U,2023.2.3,Win32,39.84063745,,,,,,,,,,,,873.9867,2.0,873.9881,,,,876.2952,876.7941,875.7924,876.295,874.9901,266.0,875.7922,876.7942,877.2953,877.2954,878.2261,175.6,878.2266,1.0,879.227,2.0,23.0,83.0,5.0,1.0,0.8,0.7,Time
,,S14,1,female,28,anonymized,Serial_Dependence_U,2023.2.3,Win32,39.84063745,,,,,,,,,,,,879.2289,2.0,879.2301,,,,881.9629,882.4627,881.437,881.9626,880.2321,248.0,881.4367,882.4629,882.965,882.9652,884.6461,1105.8,884.6465,2.0,885.6486,2.0,24.0,84.0,27.0,1.0,1.2,0.7,Time
,,S14,1,female,28,anonymized,Serial_Dependence_U,2023.2.3,Win32,39.84063745,,,,,,,,,,,,885.6505,2.0,885.652,,,,888.1836,888.6832,887.6603,888.1834,886.6545,274.0,887.6577,888.6833,889.1848,889.1851,891.0176,1080.2,891.018,4.0,892.0197,2.0,25.0,85.0,1.0,1.0,1.0,0.3,Time
,,S14,1,female,28,anonymized,Serial_Dependence_U,2023.2.3,Win32,39.84063745,,,,,,,,,,,,892.0213,2.0,892.0224,,,,894.9312,895.4311,894.4295,894.9311,893.0243,128.0,894.4293,895.4312,895.9329,895.9331,897.7899,1155.4,897.7903,2.0,898.7923,2.0,26.0,86.0,28.0,1.0,1.4,0.7,Time
,,S14,1,female,28,anonymized,Serial_Dependence_U,2023.2.3,Win32,39.84063745,,,,,,,,,,,,898.7942,2.0,898.7956,,,,901.1527,901.6516,900.6257,901.1525,899.7971,347.0,900.6254,901.6518,902.1535,902.1537,903.4599,651.1,903.4603,2.0,904.4624,2.0,27.0,87.0,0.0,1.0,0.8,0.3,Time
,,S14,1,female,28,anonymized,Serial_Dependence_U,2023.2.3,Win32,39.84063745,,,,,,,,,,,,904.4641,2.0,904.4652,,,,907.3967,907.8971,906.8711,907.3965,905.4671,292.0,906.8709,907.8972,908.3987,908.3987,910.834,1354.9,910.8343,3.0,911.8355,2.0,28.0,88.0,3.0,1.0,1.4,0.3,Time
,,S14,1,female,28,anonymized,Serial_Dependence_U,2023.2.3,Win32,39.84063745,,,,,,,,,,,,911.8369,2.0,911.8378,,,,914.3721,914.8702,913.8457,914.3719,912.8409,21.0,913.8454,914.8703,915.3728,915.3729,918.7351,1323.1,918.7355,5.0,919.7372,2.0,29.0,89.0,11.0,1.0,1.0,0.3,Time
,,S14,1,female,28,anonymized,Serial_Dependence_U,2023.2.3,Win32,39.84063745,,,,,,,,,,,,919.7387,3.0,923.8263,s,4.0393,,926.1602,926.6603,925.6337,926.16,924.8304,180.0,925.6334,926.6604,927.1619,927.162,928.6677,800.7,928.6681,3.0,929.6703,3.0,0.0,90.0,10.0,1.0,0.8,0.3,Time
,,S14,1,female,28,anonymized,Serial_Dependence_U,2023.2.3,Win32,39.84063745,,,,,,,,,,,,929.6721,3.0,929.6801,,,,932.8075,933.3073,932.3055,932.8072,930.6991,329.0,932.3053,933.3075,933.8091,933.8093,936.3189,1355.3,936.3194,2.0,937.3204,3.0,1.0,91.0,19.0,1.0,1.6,0.7,Time
,,S14,1,female,28,anonymized,Serial_Dependence_U,2023.2.3,Win32,39.84063745,,,,,,,,,,,,937.3217,3.0,937.3222,,,,940.0314,940.5314,939.5294,940.0312,938.3243,139.0,939.5292,940.5316,941.0337,941.0339,942.7899,946.6,942.7904,2.0,943.7923,3.0,2.0,92.0,17.0,1.0,1.2,0.7,Time
,,S14,1,female,28,anonymized,Serial_Dependence_U,2023.2.3,Win32,39.84063745,,,,,,,,,,,,943.7942,3.0,943.7955,,,,946.7027,947.2036,946.2012,946.7025,944.7971,348.0,946.201,947.2038,947.7055,947.7056,949.4882,1155.9,949.4888,2.0,950.4895,3.0,3.0,93.0,8.0,1.0,1.4,0.7,Time
,,S14,1,female,28,anonymized,Serial_Dependence_U,2023.2.3,Win32,39.84063745,,,,,,,,,,,,950.4912,3.0,950.492,,,,952.9994,953.4996,952.4976,952.9992,951.4957,159.0,952.4974,953.4998,954.0015,954.0017,955.8339,1102.3,955.8343,4.0,956.8357,3.0,4.0,94.0,26.0,1.0,1.0,0.7,Time
,,S14,1,female,28,anonymized,Serial_Dependence_U,2023.2.3,Win32,39.84063745,,,,,,,,,,,,956.8374,3.0,956.839,,,,959.1945,959.6953,958.6682,959.1943,957.8647,322.0,958.6681,959.6954,960.1973,960.1976,962.0044,852.1,962.0048,4.0,963.0066,3.0,5.0,95.0,0.0,1.0,0.8,0.3,Time
,,S14,1,female,28,anonymized,Serial_Dependence_U,2023.2.3,Win32,39.84063745,,,,,,,,,,,,963.0083,3.0,963.0097,,,,965.5415,966.0414,965.0158,965.5412,964.0128,8.0,965.0154,966.0414,966.5429,966.5432,968.6004,1094.7,968.6007,4.0,969.6032,3.0,6.0,96.0,21.0,1.0,1.0,0.3,Time
,,S14,1,female,28,anonymized,Serial_Dependence_U,2023.2.3,Win32,39.84063745,,,,,,,,,,,,969.6046,3.0,969.6051,,,,972.3156,972.8142,971.8131,972.3153,970.6087,9.0,971.8129,972.8143,973.3157,973.316,975.099,526.9,975.0995,1.0,976.0995,3.0,7.0,97.0,27.0,1.0,1.2,0.7,Time
,,S14,1,female,28,anonymized,Serial_Dependence_U,2023.2.3,Win32,39.84063745,,,,,,,,,,,,976.1004,3.0,976.101,,,,978.6353,979.1352,978.1099,978.6351,977.1057,273.0,978.1096,979.1354,979.6368,979.6369,981.3183,951.9,981.3187,3.0,982.3207,3.0,8.0,98.0,11.0,1.0,1.0,0.3,Time
,,S14,1,female,28,anonymized,Serial_Dependence_U,2023.2.3,Win32,39.84063745,,,,,,,,,,,,982.3226,3.0,982.324,,,,985.4579,985.9579,984.9313,985.4577,983.3257,72.0,984.9311,985.9581,986.4595,986.4599,988.7182,975.3,988.7185,1.0,989.7204,3.0,9.0,99.0,14.0,1.0,1.6,0.3,Time
,,S14,1,female,28,anonymized,Serial_Dependence_U,2023.2.3,Win32,39.84063745,,,,,,,,,,,,989.7224,3.0,989.7238,,,,992.4572,992.956,991.9308,992.4569,990.725,108.0,991.9305,992.9562,993.4572,993.4573,995.5671,874.5,995.5676,2.0,996.5684,3.0,10.0,100.0,12.0,1.0,1.2,0.3,Time
,,S14,1,female,28,anonymized,Serial_Dependence_U,2023.2.3,Win32,39.84063745,,,,,,,,,,,,996.5703,3.0,996.5716,,,,999.102,999.6032,998.5776,999.1018,997.5737,156.0,998.5773,999.6035,1000.1048,1000.1049,1001.862,1057.5,1001.8623,4.0,1002.8644,3.0,11.0,101.0,16.0,1.0,1.0,0.7,Time
,,S14,1,female,28,anonymized,Serial_Dependence_U,2023.2.3,Win32,39.84063745,,,,,,,,,,,,1002.8662,3.0,1002.8673,,,,1005.8005,1006.3006,1005.2757,1005.8003,1003.869,236.0,1005.2753,1006.3007,1006.8025,1006.8026,1009.0358,1149.4,1009.0362,2.0,1010.0383,3.0,12.0,102.0,23.0,1.0,1.4,0.3,Time
,,S14,1,female,28,anonymized,Serial_Dependence_U,2023.2.3,Win32,39.84063745,,,,,,,,,,,,1010.0394,3.0,1010.0402,,,,1012.7726,1013.2741,1012.2476,1012.7725,1011.0433,349.0,1012.2473,1013.2741,1013.7754,1013.7756,1015.6078,1002.2,1015.6082,2.0,1016.6097,3.0,13.0,103.0,7.0,1.0,1.2,0.7,Time
,,S14,1,female,28,anonymized,Serial_Dependence_U,2023.2.3,Win32,39.84063745,,,,,,,,,,,,1016.6107,3.0,1016.6113,,,,1019.7476,1020.2479,1019.2212,1019.7474,1017.6161,249.0,1019.221,1020.248,1020.7489,1020.7491,1022.9074,1131.1,1022.9078,2.0,1023.9094,3.0,14.0,104.0,9.0,1.0,1.6,0.7,Time
,,S14,1,female,28,anonymized,Serial_Dependence_U,2023.2.3,Win32,39.84063745,,,,,,,,,,,,1023.912,3.0,1023.9136,,,,1027.0215,1027.5209,1026.5195,1027.0213,1024.9146,88.0,1026.5192,1027.521,1028.0227,1028.0228,1030.0571,1330.5,1030.0577,2.0,1031.0581,3.0,15.0,105.0,4.0,1.0,1.6,0.3,Time
,,S14,1,female,28,anonymized,Serial_Dependence_U,2023.2.3,Win32,39.84063745,,,,,,,,,,,,1031.0599,3.0,1031.0612,,,,1033.7948,1034.2938,1033.292,1033.7946,1032.088,46.0,1033.2918,1034.2939,1034.7954,1034.7955,1036.5279,1152.0,1036.5284,3.0,1037.5298,3.0,16.0,106.0,2.0,1.0,1.2,0.3,Time
,,S14,1,female,28,anonymized,Serial_Dependence_U,2023.2.3,Win32,39.84063745,,,,,,,,,,,,1037.5317,3.0,1037.5329,,,,1039.8653,1040.3641,1039.3385,1039.865,1038.536,248.0,1039.3382,1040.3642,1040.8658,1040.866,1042.3227,927.1,1042.3233,4.0,1043.324,3.0,17.0,107.0,25.0,1.0,0.8,0.7,Time
,,S14,1,female,28,anonymized,Serial_Dependence_U,2023.2.3,Win32,39.84063745,,,,,,,,,,,,1043.3258,3.0,1043.3268,,,,1046.2358,1046.7353,1045.7333,1046.2355,1044.3302,133.0,1045.7332,1046.7355,1047.2371,1047.2374,1049.0947,1177.8,1049.0951,2.0,1050.0967,3.0,18.0,108.0,28.0,1.0,1.4,0.7,Time
,,S14,1,female,28,anonymized,Serial_Dependence_U,2023.2.3,Win32,39.84063745,,,,,,,,,,,,1050.0986,3.0,1050.0999,,,,1052.6321,1053.1319,1052.1058,1052.6318,1051.1017,144.0,1052.1055,1053.132,1053.6331,1053.6332,1055.1658,1057.3,1055.1663,4.0,1056.1669,3.0,19.0,109.0,1.0,1.0,1.0,0.3,Time
,,S14,1,female,28,anonymized,Serial_Dependence_U,2023.2.3,Win32,39.84063745,,,,,,,,,,,,1056.1688,3.0,1056.1701,,,,1059.0785,1059.578,1058.5767,1059.0783,1057.172,309.0,1058.5765,1059.5781,1060.0798,1060.08,1061.9122,1248.5,1061.9126,2.0,1062.9145,3.0,20.0,110.0,13.0,1.0,1.4,0.3,Time
,,S14,1,female,28,anonymized,Serial_Dependence_U,2023.2.3,Win32,39.84063745,,,,,,,,,,,,1062.9161,3.0,1062.9168,,,,1065.8269,1066.326,1065.324,1065.8266,1063.919,192.0,1065.3238,1066.3261,1066.8275,1066.8277,1068.6595,1248.3,1068.6599,2.0,1069.6623,3.0,21.0,111.0,3.0,1.0,1.4,0.3,Time
,,S14,1,female,28,anonymized,Serial_Dependence_U,2023.2.3,Win32,39.84063745,,,,,,,,,,,,1069.6642,3.0,1069.6658,,,,1071.9967,1072.4961,1071.4942,1071.9964,1070.6669,169.0,1071.494,1072.4964,1072.9982,1072.9984,1074.6796,1025.2,1074.68,4.0,1075.682,3.0,22.0,112.0,5.0,1.0,0.8,0.7,Time
,,S14,1,female,28,anonymized,Serial_Dependence_U,2023.2.3,Win32,39.84063745,,,,,,,,,,,,1075.6842,3.0,1075.6858,,,,1078.8178,1079.3192,1078.2939,1078.8176,1076.6873,147.0,1078.2935,1079.3192,1079.8207,1079.8209,1081.7531,1305.3,1081.7535,2.0,1082.7557,3.0,23.0,113.0,24.0,1.0,1.6,0.3,Time
,,S14,1,female,28,anonymized,Serial_Dependence_U,2023.2.3,Win32,39.84063745,,,,,,,,,,,,1082.7577,3.0,1082.7589,,,,1085.1141,1085.615,1084.5885,1085.1139,1083.7615,52.0,1084.5882,1085.6152,1086.1167,1086.1169,1087.673,929.7,1087.6734,4.0,1088.6757,3.0,24.0,114.0,15.0,1.0,0.8,0.7,Time
,,S14,1,female,28,anonymized,Serial_Dependence_U,2023.2.3,Win32,39.84063745,,,,,,,,,,,,1088.6774,3.0,1088.6784,,,,1091.386,1091.886,1090.8842,1091.3858,1089.6802,97.0,1090.884,1091.8862,1092.3878,1092.388,1094.1716,1107.6,1094.1722,2.0,1095.1716,3.0,25.0,115.0,22.0,1.0,1.2,0.3,Time
,,S14,1,female,28,anonymized,Serial_Dependence_U,2023.2.3,Win32,39.84063745,,,,,,,,,,,,1095.1727,3.0,1095.1735,,,,1097.7057,1098.2067,1097.1815,1097.7055,1096.1782,336.0,1097.1811,1098.2068,1098.7084,1098.7086,1100.6919,1281.0,1100.6926,4.0,1101.6932,3.0,26.0,116.0,6.0,1.0,1.0,0.7,Time
,,S14,1,female,28,anonymized,Serial_Dependence_U,2023.2.3,Win32,39.84063745,,,,,,,,,,,,1101.6941,3.0,1101.6945,,,,1104.6292,1105.1304,1104.1043,1104.629,1102.6987,305.0,1104.104,1105.1305,1105.6318,1105.632,1107.7148,1430.5,1107.7152,3.0,1108.7172,3.0,27.0,117.0,18.0,1.0,1.4,0.7,Time
,,S14,1,female,28,anonymized,Serial_Dependence_U,2023.2.3,Win32,39.84063745,,,,,,,,,,,,1108.7186,3.0,1108.7194,,,,1111.0511,1111.5517,1110.5244,1111.0509,1109.722,282.0,1110.5243,1111.5518,1112.0534,1112.0535,1114.1111,1003.3,1114.1115,4.0,1115.1131,3.0,28.0,118.0,20.0,1.0,0.8,0.3,Time
,,S14,1,female,28,anonymized,Serial_Dependence_U,2023.2.3,Win32,39.84063745,,,,,,,,,,,,1115.1143,3.0,1115.115,,,,1118.2508,1118.7504,1117.7251,1118.2506,1116.1196,104.0,1117.7248,1118.7506,1119.2523,1119.2525,1121.0352,1028.0,1121.0358,1.0,1122.0366,3.0,29.0,119.0,29.0,1.0,1.6,0.7,Time
,,S14,1,female,28,anonymized,Serial_Dependence_U,2023.2.3,Win32,39.84063745,,,,,,,,,,,,1122.038,4.0,1125.9495,s,3.8674,,1129.0865,1129.5862,1128.5598,1129.0862,1126.9543,43.0,1128.5596,1129.5863,1130.088,1130.0881,1131.8952,1077.6,1131.8955,1.0,1132.8973,4.0,0.0,120.0,4.0,1.0,1.6,0.3,Time
,,S14,1,female,28,anonymized,Serial_Dependence_U,2023.2.3,Win32,39.84063745,,,,,,,,,,,,1132.8984,4.0,1132.9034,,,,1135.4325,1135.9329,1134.9302,1135.4323,1133.9042,203.0,1134.9301,1135.9331,1136.4347,1136.4348,1138.2168,1204.1,1138.2173,4.0,1139.219,4.0,1.0,121.0,26.0,1.0,1.0,0.7,Time
,,S14,1,female,28,anonymized,Serial_Dependence_U,2023.2.3,Win32,39.84063745,,,,,,,,,,,,1139.221,4.0,1139.2225,,,,1141.9311,1142.429,1141.4264,1141.9308,1140.2235,280.0,1141.4263,1142.4292,1142.9312,1142.9314,1144.6629,1201.2,1144.6634,3.0,1145.6655,4.0,2.0,122.0,27.0,1.0,1.2,0.7,Time
,,S14,1,female,28,anonymized,Serial_Dependence_U,2023.2.3,Win32,39.84063745,,,,,,,,,,,,1145.667,4.0,1145.6677,,,,1148.3773,1148.8762,1147.8738,1148.377,1146.6713,317.0,1147.8736,1148.8764,1149.3773,1149.3774,1151.2343,1178.3,1151.2346,3.0,1152.2371,4.0,3.0,123.0,2.0,1.0,1.2,0.3,Time
,,S14,1,female,28,anonymized,Serial_Dependence_U,2023.2.3,Win32,39.84063745,,,,,,,,,,,,1152.2387,4.0,1152.2398,,,,1154.9744,1155.473,1154.4464,1154.9742,1153.2419,221.0,1154.4462,1155.4731,1155.9749,1155.9752,1157.9327,1174.6,1157.9333,3.0,1158.9348,4.0,4.0,124.0,22.0,1.0,1.2,0.3,Time
,,S14,1,female,28,anonymized,Serial_Dependence_U,2023.2.3,Win32,39.84063745,,,,,,,,,,,,1158.9365,4.0,1158.9376,,,,1162.05,1162.5467,1161.5456,1162.0493,1159.9394,36.0,1161.5454,1162.5469,1163.0482,1163.0484,1165.2589,1359.0,1165.2598,2.0,1166.2591,4.0,5.0,125.0,24.0,1.0,1.6,0.3,Time
,,S14,1,female,28,anonymized,Serial_Dependence_U,2023.2.3,Win32,39.84063745,,,,,,,,,,,,1166.2611,4.0,1166.2623,,,,1169.0201,1169.5198,1168.4941,1169.0198,1167.2719,3.0,1168.4939,1169.5199,1170.0215,1170.0218,1172.3049,1399.3,1172.3053,4.0,1173.3075,4.0,6.0,126.0,12.0,1.0,1.2,0.3,Time
,,S14,1,female,28,anonymized,Serial_Dependence_U,2023.2.3,Win32,39.84063745,,,,,,,,,,,,1173.3094,4.0,1173.3107,,,,1176.2449,1176.7437,1175.718,1176.2446,1174.3137,161.0,1175.7178,1176.7439,1177.2455,1177.2457,1179.981,1628.2,1179.9814,4.0,1180.983,4.0,7.0,127.0,3.0,1.0,1.4,0.3,Time
,,S14,1,female,28,anonymized,Serial_Dependence_U,2023.2.3,Win32,39.84063745,,,,,,,,,,,,1180.9842,4.0,1180.9853,,,,1183.3177,1183.8175,1182.8156,1183.3176,1181.9891,342.0,1182.8154,1183.8177,1184.319,1184.3191,1185.8518,951.1,1185.8524,4.0,1186.8526,4.0,8.0,128.0,25.0,1.0,0.8,0.7,Time
,,S14,1,female,28,anonymized,Serial_Dependence_U,2023.2.3,Win32,39.84063745,,,,,,,,,,,,1186.8543,4.0,1186.8553,,,,1189.1871,1189.687,1188.6611,1189.1869,1187.8574,10.0,1188.6609,1189.6871,1190.1883,1190.1885,1191.8963,1077.8,1191.8968,5.0,1192.8974,4.0,9.0,129.0,20.0,1.0,0.8,0.3,Time
,,S14,1,female,28,anonymized,Serial_Dependence_U,2023.2.3,Win32,39.84063745,,,,,,,,,,,,1192.8988,4.0,1192.8995,,,,1195.232,1195.7325,1194.7053,1195.2318,1193.9024,230.0,1194.7051,1195.7326,1196.2342,1196.2343,1197.6648,804.0,1197.6651,3.0,1198.6671,4.0,10.0,130.0,10.0,1.0,0.8,0.3,Time
,,S14,1,female,28,anonymized,Serial_Dependence_U,2023.2.3,Win32,39.84063745,,,,,,,,,,,,1198.6686,4.0,1198.6694,,,,1201.0016,1201.5011,1200.475,1201.0015,1199.6723,143.0,1200.4748,1201.5013,1202.0029,1202.0031,1203.5089,804.8,1203.5093,3.0,1204.5113,4.0,11.0,131.0,0.0,1.0,0.8,0.3,Time
,,S14,1,female,28,anonymized,Serial_Dependence_U,2023.2.3,Win32,39.84063745,,,,,,,,,,,,1204.513,4.0,1204.5138,,,,1207.0457,1207.5466,1206.5207,1207.0455,1205.5175,134.0,1206.5203,1207.5468,1208.048,1208.0481,1209.8305,904.1,1209.831,2.0,1210.8327,4.0,12.0,132.0,11.0,1.0,1.0,0.3,Time
,,S14,1,female,28,anonymized,Serial_Dependence_U,2023.2.3,Win32,39.84063745,,,,,,,,,,,,1210.8342,4.0,1210.835,,,,1213.7699,1214.2688,1213.2436,1213.7697,1211.8376,330.0,1213.2434,1214.269,1214.7708,1214.771,1216.7782,1128.4,1216.7786,2.0,1217.7807,4.0,13.0,133.0,13.0,1.0,1.4,0.3,Time
,,S14,1,female,28,anonymized,Serial_Dependence_U,2023.2.3,Win32,39.84063745,,,,,,,,,,,,1217.7823,4.0,1217.7838,,,,1220.1411,1220.6403,1219.6133,1220.1409,1218.7873,352.0,1219.6131,1220.6404,1221.1421,1221.1422,1222.9503,1002.7,1222.9508,4.0,1223.9514,4.0,14.0,134.0,5.0,1.0,0.8,0.7,Time
,,S14,1,female,28,anonymized,Serial_Dependence_U,2023.2.3,Win32,39.84063745,,,,,,,,,,,,1223.9533,4.0,1223.9543,,,,1226.8877,1227.3879,1226.3621,1226.8874,1224.9563,173.0,1226.3618,1227.3879,1227.8894,1227.8895,1229.6716,1078.2,1229.6719,2.0,1230.6733,4.0,15.0,135.0,23.0,1.0,1.4,0.3,Time
,,S14,1,female,28,anonymized,Serial_Dependence_U,2023.2.3,Win32,39.84063745,,,,,,,,,,,,1230.6744,4.0,1230.6748,,,,1233.5846,1234.0852,1233.0822,1233.5843,1231.6785,196.0,1233.082,1234.0852,1234.5867,1234.5869,1236.4199,1081.0,1236.4203,2.0,1237.4208,4.0,16.0,136.0,18.0,1.0,1.4,0.7,Time
,,S14,1,female,28,anonymized,Serial_Dependence_U,2023.2.3,Win32,39.84063745,,,,,,,,,,,,1237.4219,4.0,1237.4227,,,,1240.1573,1240.6566,1239.6316,1240.1571,1238.4279,79.0,1239.6312,1240.6568,1241.1583,1241.1585,1242.8403,977.5,1242.8407,2.0,1243.8426,4.0,17.0,137.0,17.0,1.0,1.2,0.7,Time
,,S14,1,female,28,anonymized,Serial_Dependence_U,2023.2.3,Win32,39.84063745,,,,,,,,,,,,1243.8445,4.0,1243.8454,,,,1246.578,1247.0786,1246.0531,1246.5778,1244.8478,221.0,1246.0528,1247.0787,1247.5803,1247.5805,1249.2617,1007.8,1249.262,2.0,1250.264,4.0,18.0,138.0,7.0,1.0,1.2,0.7,Time
,,S14,1,female,28,anonymized,Serial_Dependence_U,2023.2.3,Win32,39.84063745,,,,,,,,,,,,1250.2659,4.0,1250.2672,,,,1252.775,1253.2738,1252.2719,1252.7748,1251.27,56.0,1252.2717,1253.2741,1253.7757,1253.7759,1255.6579,1172.3,1255.6582,4.0,1256.6603,4.0,19.0,139.0,1.0,1.0,1.0,0.3,Time
,,S14,1,female,28,anonymized,Serial_Dependence_U,2023.2.3,Win32,39.84063745,,,,,,,,,,,,1256.6623,4.0,1256.6636,,,,1259.1946,1259.6954,1258.6694,1259.1944,1257.6662,66.0,1258.6692,1259.6956,1260.1976,1260.1977,1261.955,854.3,1261.9556,2.0,1262.9564,4.0,20.0,140.0,16.0,1.0,1.0,0.7,Time
,,S14,1,female,28,anonymized,Serial_Dependence_U,2023.2.3,Win32,39.84063745,,,,,,,,,,,,1262.9581,4.0,1262.9599,,,,1266.0693,1266.5681,1265.5665,1266.069,1263.9627,353.0,1265.5662,1266.5684,1267.07,1267.0702,1268.9776,998.5,1268.978,1.0,1269.9798,4.0,21.0,141.0,14.0,1.0,1.6,0.3,Time
,,S14,1,female,28,anonymized,Serial_Dependence_U,2023.2.3,Win32,39.84063745,,,,,,,,,,,,1269.9817,4.0,1269.9828,,,,1272.8926,1273.3909,1272.3892,1272.8922,1270.986,150.0,1272.3891,1273.3909,1273.8923,1273.8925,1275.6251,1133.9,1275.6255,2.0,1276.6271,4.0,22.0,142.0,28.0,1.0,1.4,0.7,Time
,,S14,1,female,28,anonymized,Serial_Dependence_U,2023.2.3,Win32,39.84063745,,,,,,,,,,,,1276.6288,4.0,1276.6302,,,,1279.765,1280.2639,1279.2383,1279.7647,1277.6322,277.0,1279.238,1280.2641,1280.7659,1280.7661,1282.6985,1378.5,1282.699,2.0,1283.7001,4.0,23.0,143.0,19.0,1.0,1.6,0.7,Time
,,S14,1,female,28,anonymized,Serial_Dependence_U,2023.2.3,Win32,39.84063745,,,,,,,,,,,,1283.7013,4.0,1283.7021,,,,1286.2598,1286.7608,1285.7577,1286.2596,1284.7315,262.0,1285.7576,1286.7609,1287.2627,1287.2629,1288.7433,955.6,1288.7438,3.0,1289.7456,4.0,24.0,144.0,21.0,1.0,1.0,0.3,Time
,,S14,1,female,28,anonymized,Serial_Dependence_U,2023.2.3,Win32,39.84063745,,,,,,,,,,,,1289.7476,4.0,1289.7489,,,,1292.08,1292.5804,1291.5544,1292.0798,1290.7518,46.0,1291.5541,1292.5805,1293.0817,1293.0819,1294.2869,596.1,1294.2873,2.0,1295.2893,4.0,25.0,145.0,15.0,1.0,0.8,0.7,Time
,,S14,1,female,28,anonymized,Serial_Dependence_U,2023.2.3,Win32,39.84063745,,,,,,,,,,,,1295.2916,4.0,1295.2932,,,,1298.4527,1298.9512,1297.9253,1298.4524,1296.3202,128.0,1297.9251,1298.9513,1299.4532,1299.4535,1300.9339,751.4,1300.9343,1.0,1301.9362,4.0,26.0,146.0,29.0,1.0,1.6,0.7,Time
,,S14,1,female,28,anonymized,Serial_Dependence_U,2023.2.3,Win32,39.84063745,,,,,,,,,,,,1301.9377,4.0,1301.9391,,,,1304.8714,1305.3729,1304.3456,1304.8713,1302.9427,10.0,1304.3454,1305.3729,1305.8742,1305.8745,1307.6565,566.5,1307.6568,1.0,1308.6586,4.0,27.0,147.0,8.0,1.0,1.4,0.7,Time
,,S14,1,female,28,anonymized,Serial_Dependence_U,2023.2.3,Win32,39.84063745,,,,,,,,,,,,1308.6606,4.0,1308.6619,,,,1311.1688,1311.6686,1310.667,1311.1686,1309.664,325.0,1310.6667,1311.6687,1312.1698,1312.1698,1314.232,880.1,1314.2329,2.0,1315.2307,4.0,28.0,148.0,6.0,1.0,1.0,0.7,Time
,,S14,1,female,28,anonymized,Serial_Dependence_U,2023.2.3,Win32,39.84063745,,,,,,,,,,,,1315.2321,4.0,1315.233,,,,1318.3664,1318.8676,1317.8419,1318.3663,1316.2355,33.0,1317.8416,1318.8678,1319.3688,1319.3689,1321.6537,1085.6,1321.654,1.0,1322.656,4.0,29.0,149.0,9.0,1.0,1.6,0.7,Time
,,S14,1,female,28,anonymized,Serial_Dependence_U,2023.2.3,Win32,39.84063745,,,,,,,,,,,,1322.658,5.0,1324.7127,s,2.0078,,1327.4742,1327.9729,1326.9471,1327.474,1325.7188,253.0,1326.9468,1327.9732,1328.4744,1328.4744,1330.1811,972.6,1330.1815,2.0,1331.1842,5.0,0.0,150.0,17.0,1.0,1.2,0.7,Time
,,S14,1,female,28,anonymized,Serial_Dependence_U,2023.2.3,Win32,39.84063745,,,,,,,,,,,,1331.1859,5.0,1331.1928,,,,1333.5427,1334.0433,1333.0173,1333.5426,1332.2137,202.0,1333.017,1334.0435,1334.5452,1334.5454,1335.9007,727.2,1335.9011,2.0,1336.9029,5.0,1.0,151.0,0.0,1.0,0.8,0.3,Time
,,S14,1,female,28,anonymized,Serial_Dependence_U,2023.2.3,Win32,39.84063745,,,,,,,,,,,,1336.9045,5.0,1336.9056,,,,1339.8138,1340.3145,1339.3121,1339.8137,1337.9088,322.0,1339.3119,1340.3146,1340.8158,1340.8161,1342.8236,1123.1,1342.824,2.0,1343.8261,5.0,2.0,152.0,13.0,1.0,1.4,0.3,Time
,,S14,1,female,28,anonymized,Serial_Dependence_U,2023.2.3,Win32,39.84063745,,,,,,,,,,,,1343.8276,5.0,1343.8289,,,,1346.1606,1346.6603,1345.635,1346.1605,1344.8321,97.0,1345.6347,1346.6604,1347.1619,1347.1621,1348.8189,802.9,1348.8193,3.0,1349.8212,5.0,3.0,153.0,15.0,1.0,0.8,0.7,Time
,,S14,1,female,28,anonymized,Serial_Dependence_U,2023.2.3,Win32,39.84063745,,,,,,,,,,,,1349.8225,5.0,1349.8234,,,,1352.4063,1352.9056,1351.8796,1352.4061,1350.8529,312.0,1351.8794,1352.9057,1353.4079,1353.4082,1355.0895,900.2,1355.0898,2.0,1356.0918,5.0,4.0,154.0,16.0,1.0,1.0,0.7,Time
,,S14,1,female,28,anonymized,Serial_Dependence_U,2023.2.3,Win32,39.84063745,,,,,,,,,,,,1356.0938,5.0,1356.095,,,,1358.8276,1359.3276,1358.3016,1358.8274,1357.0968,259.0,1358.3013,1359.3277,1359.8293,1359.8295,1361.6865,1056.3,1361.6869,2.0,1362.689,5.0,5.0,155.0,7.0,1.0,1.2,0.7,Time
,,S14,1,female,28,anonymized,Serial_Dependence_U,2023.2.3,Win32,39.84063745,,,,,,,,,,,,1362.6909,5.0,1362.6924,,,,1365.6503,1366.1499,1365.1248,1365.6502,1363.7176,55.0,1365.1245,1366.15,1366.6524,1366.6525,1368.7862,1251.5,1368.7867,2.0,1369.7873,5.0,6.0,156.0,8.0,1.0,1.4,0.7,Time
,,S14,1,female,28,anonymized,Serial_Dependence_U,2023.2.3,Win32,39.84063745,,,,,,,,,,,,1369.789,5.0,1369.7901,,,,1372.3236,1372.8227,1371.7967,1372.3234,1370.7939,152.0,1371.7965,1372.8229,1373.3249,1373.3251,1375.3323,1298.6,1375.333,4.0,1376.3345,5.0,7.0,157.0,6.0,1.0,1.0,0.7,Time
,,S14,1,female,28,anonymized,Serial_Dependence_U,2023.2.3,Win32,39.84063745,,,,,,,,,,,,1376.336,5.0,1376.3372,,,,1379.4711,1379.9712,1378.9463,1379.471,1377.3403,158.0,1378.946,1379.9714,1380.473,1380.4733,1382.6563,1450.6,1382.6568,2.0,1383.6588,5.0,8.0,158.0,9.0,1.0,1.6,0.7,Time
,,S14,1,female,28,anonymized,Serial_Dependence_U,2023.2.3,Win32,39.84063745,,,,,,,,,,,,1383.6608,5.0,1383.6619,,,,1386.1941,1386.6939,1385.6679,1386.1939,1384.6639,255.0,1385.6676,1386.6941,1387.1958,1387.1961,1389.1029,997.2,1389.1033,3.0,1390.1052,5.0,9.0,159.0,1.0,1.0,1.0,0.3,Time
,,S14,1,female,28,anonymized,Serial_Dependence_U,2023.2.3,Win32,39.84063745,,,,,,,,,,,,1390.1072,5.0,1390.1085,,,,1393.2426,1393.7422,1392.7155,1393.2423,1391.1112,167.0,1392.7153,1393.7423,1394.2438,1394.244,1396.2515,1382.1,1396.2519,2.0,1397.2542,5.0,10.0,160.0,4.0,1.0,1.6,0.3,Time
,,S14,1,female,28,anonymized,Serial_Dependence_U,2023.2.3,Win32,39.84063745,,,,,,,,,,,,1397.2561,5.0,1397.2578,,,,1399.5883,1400.0883,1399.0629,1399.588,1398.2593,279.0,1399.0626,1400.0885,1400.5901,1400.5902,1402.1714,899.3,1402.1718,4.0,1403.1743,5.0,11.0,161.0,5.0,1.0,0.8,0.7,Time
,,S14,1,female,28,anonymized,Serial_Dependence_U,2023.2.3,Win32,39.84063745,,,,,,,,,,,,1403.176,5.0,1403.1767,,,,1406.1101,1406.6104,1405.5834,1406.1097,1404.1796,354.0,1405.5829,1406.6105,1407.1121,1407.1123,1409.2218,1436.8,1409.2227,3.0,1410.2225,5.0,12.0,162.0,3.0,1.0,1.4,0.3,Time
,,S14,1,female,28,anonymized,Serial_Dependence_U,2023.2.3,Win32,39.84063745,,,,,,,,,,,,1410.2243,5.0,1410.2255,,,,1412.9568,1413.4579,1412.431,1412.9566,1411.2268,138.0,1412.4308,1413.4581,1413.96,1413.9603,1415.9422,1198.4,1415.9426,3.0,1416.9447,5.0,13.0,163.0,22.0,1.0,1.2,0.3,Time
,,S14,1,female,28,anonymized,Serial_Dependence_U,2023.2.3,Win32,39.84063745,,,,,,,,,,,,1416.9466,5.0,1416.9478,,,,1419.8812,1420.3813,1419.3551,1419.8809,1417.9506,342.0,1419.3548,1420.3814,1420.8824,1420.8825,1423.0912,1276.1,1423.0916,2.0,1424.0938,5.0,14.0,164.0,18.0,1.0,1.4,0.7,Time
,,S14,1,female,28,anonymized,Serial_Dependence_U,2023.2.3,Win32,39.84063745,,,,,,,,,,,,1424.0956,5.0,1424.0972,,,,1427.207,1427.7056,1426.7037,1427.2067,1425.0994,6.0,1426.7035,1427.7058,1428.2074,1428.2076,1430.24,1205.6,1430.2404,2.0,1431.2424,5.0,15.0,165.0,14.0,1.0,1.6,0.3,Time
,,S14,1,female,28,anonymized,Serial_Dependence_U,2023.2.3,Win32,39.84063745,,,,,,,,,,,,1431.244,5.0,1431.2452,,,,1433.7783,1434.2774,1433.2514,1433.778,1432.2483,267.0,1433.2512,1434.2777,1434.7796,1434.7797,1436.4111,1009.1,1436.4115,3.0,1437.4126,5.0,16.0,166.0,21.0,1.0,1.0,0.3,Time
,,S14,1,female,28,anonymized,Serial_Dependence_U,2023.2.3,Win32,39.84063745,,,,,,,,,,,,1437.4138,5.0,1437.4144,,,,1440.1245,1440.6236,1439.6216,1440.1242,1438.418,240.0,1439.6215,1440.6237,1441.1253,1441.1255,1443.0076,1198.2,1443.0079,3.0,1444.0101,5.0,17.0,167.0,2.0,1.0,1.2,0.3,Time
,,S14,1,female,28,anonymized,Serial_Dependence_U,2023.2.3,Win32,39.84063745,,,,,,,,,,,,1444.012,5.0,1444.0131,,,,1446.3457,1446.8444,1445.8183,1446.3454,1445.0159,191.0,1445.818,1446.8445,1447.3461,1447.3464,1449.2031,1104.8,1449.2034,5.0,1450.2059,5.0,18.0,168.0,20.0,1.0,0.8,0.3,Time
,,S14,1,female,28,anonymized,Serial_Dependence_U,2023.2.3,Win32,39.84063745,,,,,,,,,,,,1450.2076,5.0,1450.2087,,,,1452.9425,1453.4417,1452.4146,1452.9419,1451.2118,27.0,1452.4142,1453.4419,1453.9434,1453.9436,1455.5242,967.6,1455.5251,2.0,1456.5263,5.0,19.0,169.0,12.0,1.0,1.2,0.3,Time
,,S14,1,female,28,anonymized,Serial_Dependence_U,2023.2.3,Win32,39.84063745,,,,,,,,,,,,1456.5275,5.0,1456.5283,,,,1459.6646,1460.1634,1459.1381,1459.6642,1457.5323,136.0,1459.1376,1460.1635,1460.6656,1460.6659,1462.724,1354.8,1462.725,2.0,1463.7257,5.0,20.0,170.0,19.0,1.0,1.6,0.7,Time
,,S14,1,female,28,anonymized,Serial_Dependence_U,2023.2.3,Win32,39.84063745,,,,,,,,,,,,1463.7273,5.0,1463.7282,,,,1466.6867,1467.1875,1466.1611,1466.6863,1464.7328,240.0,1466.1606,1467.188,1467.6894,1467.6897,1469.5706,1229.4,1469.5713,2.0,1470.5742,5.0,21.0,171.0,23.0,1.0,1.4,0.3,Time
,,S14,1,female,28,anonymized,Serial_Dependence_U,2023.2.3,Win32,39.84063745,,,,,,,,,,,,1470.576,5.0,1470.5769,,,,1473.5094,1474.0104,1472.984,1473.5091,1471.578,38.0,1472.9836,1474.0108,1474.5123,1474.5125,1476.5198,1176.0,1476.5206,2.0,1477.5213,5.0,22.0,172.0,28.0,1.0,1.4,0.7,Time
,,S14,1,female,28,anonymized,Serial_Dependence_U,2023.2.3,Win32,39.84063745,,,,,,,,,,,,1477.5227,5.0,1477.5235,,,,1480.685,1481.1836,1480.1579,1480.6846,1478.5522,134.0,1480.1574,1481.1837,1481.6852,1481.6852,1483.6677,1253.7,1483.6686,2.0,1484.67,5.0,23.0,173.0,24.0,1.0,1.6,0.3,Time
,,S14,1,female,28,anonymized,Serial_Dependence_U,2023.2.3,Win32,39.84063745,,,,,,,,,,,,1484.6712,5.0,1484.6719,,,,1486.9805,1487.4799,1486.4775,1486.9801,1485.6749,288.0,1486.4772,1487.48,1487.9818,1487.9821,1489.5384,878.5,1489.5393,4.0,1490.5401,5.0,24.0,174.0,10.0,1.0,0.8,0.3,Time
,,S14,1,female,28,anonymized,Serial_Dependence_U,2023.2.3,Win32,39.84063745,,,,,,,,,,,,1490.5419,5.0,1490.5426,,,,1492.9001,1493.4006,1492.3739,1492.8996,1491.5463,84.0,1492.3734,1493.401,1493.9021,1493.9023,1495.4318,800.0,1495.4325,3.0,1496.4353,5.0,25.0,175.0,25.0,1.0,0.8,0.7,Time
,,S14,1,female,28,anonymized,Serial_Dependence_U,2023.2.3,Win32,39.84063745,,,,,,,,,,,,1496.4374,5.0,1496.4383,,,,1498.9944,1499.4953,1498.4693,1498.994,1497.4646,38.0,1498.4687,1499.4954,1499.9972,1499.9975,1501.6026,906.0,1501.6035,2.0,1502.6053,5.0,26.0,176.0,26.0,1.0,1.0,0.7,Time
,,S14,1,female,28,anonymized,Serial_Dependence_U,2023.2.3,Win32,39.84063745,,,,,,,,,,,,1502.6072,5.0,1502.6084,,,,1505.142,1505.6404,1504.6387,1505.1418,1503.634,245.0,1504.6385,1505.6406,1506.142,1506.1422,1507.2226,402.7,1507.2231,1.0,1508.2242,5.0,27.0,177.0,11.0,1.0,1.0,0.3,Time
,,S14,1,female,28,anonymized,Serial_Dependence_U,2023.2.3,Win32,39.84063745,,,,,,,,,,,,1508.2256,5.0,1508.2263,,,,1510.9362,1511.4346,1510.4333,1510.9359,1509.2289,332.0,1510.4331,1511.4347,1511.9363,1511.9367,1514.1951,1231.0,1514.1954,3.0,1515.1969,5.0,28.0,178.0,27.0,1.0,1.2,0.7,Time
,,S14,1,female,28,anonymized,Serial_Dependence_U,2023.2.3,Win32,39.84063745,,,,,,,,,,,,1515.1979,5.0,1515.1989,,,,1518.3103,1518.8093,1517.8073,1518.3101,1516.2032,171.0,1517.8071,1518.8094,1519.311,1519.3111,1521.7201,1573.2,1521.7205,3.0,1522.7221,5.0,29.0,179.0,29.0,1.0,1.6,0.7,Time
,,S14,1,female,28,anonymized,Serial_Dependence_U,2023.2.3,Win32,39.84063745,,,,,,,,,,,,1522.7233,6.0,1525.9081,s,3.1528,,1528.8436,1529.3444,1528.3177,1528.8434,1526.9124,25.0,1528.3176,1529.3447,1529.846,1529.8462,1531.7282,1278.5,1531.7289,2.0,1532.7311,6.0,0.0,180.0,8.0,1.0,1.4,0.7,Time
,,S14,1,female,28,anonymized,Serial_Dependence_U,2023.2.3,Win32,39.84063745,,,,,,,,,,,,1532.7323,6.0,1532.7384,,,,1535.0662,1535.5652,1534.5392,1535.0659,1533.7352,212.0,1534.5389,1535.5654,1536.0667,1536.0669,1537.5983,879.7,1537.5987,4.0,1538.6001,6.0,1.0,181.0,0.0,1.0,0.8,0.3,Time
,,S14,1,female,28,anonymized,Serial_Dependence_U,2023.2.3,Win32,39.84063745,,,,,,,,,,,,1538.6018,6.0,1538.6029,,,,1541.7121,1542.2122,1541.2102,1541.7119,1539.605,183.0,1541.21,1542.2123,1542.7142,1542.7144,1544.7969,1450.7,1544.7973,2.0,1545.799,6.0,2.0,182.0,4.0,1.0,1.6,0.3,Time
,,S14,1,female,28,anonymized,Serial_Dependence_U,2023.2.3,Win32,39.84063745,,,,,,,,,,,,1545.8005,6.0,1545.801,,,,1548.5359,1549.0353,1548.0084,1548.5354,1546.8055,257.0,1548.008,1549.0354,1549.537,1549.5373,1551.3944,1329.7,1551.3951,4.0,1552.3964,6.0,3.0,183.0,22.0,1.0,1.2,0.3,Time
,,S14,1,female,28,anonymized,Serial_Dependence_U,2023.2.3,Win32,39.84063745,,,,,,,,,,,,1552.398,6.0,1552.3994,,,,1555.3341,1555.8326,1554.8078,1555.3337,1553.403,135.0,1554.8075,1555.8327,1556.3344,1556.3346,1557.3639,571.0,1557.3642,1.0,1558.3665,6.0,4.0,184.0,18.0,1.0,1.4,0.7,Time
,,S14,1,female,28,anonymized,Serial_Dependence_U,2023.2.3,Win32,39.84063745,,,,,,,,,,,,1558.3682,6.0,1558.3689,,,,1560.9263,1561.4269,1560.3998,1560.9258,1559.3957,312.0,1560.3993,1561.427,1561.9285,1561.9288,1563.5119,987.4,1563.5129,3.0,1564.5119,6.0,5.0,185.0,26.0,1.0,1.0,0.7,Time
,,S14,1,female,28,anonymized,Serial_Dependence_U,2023.2.3,Win32,39.84063745,,,,,,,,,,,,1564.5137,6.0,1564.5146,,,,1567.2716,1567.7722,1566.7465,1567.2712,1565.5413,212.0,1566.746,1567.7723,1568.274,1568.2741,1570.3577,1178.4,1570.3587,3.0,1571.3596,6.0,6.0,186.0,27.0,1.0,1.2,0.7,Time
,,S14,1,female,28,anonymized,Serial_Dependence_U,2023.2.3,Win32,39.84063745,,,,,,,,,,,,1571.3613,6.0,1571.362,,,,1574.4961,1574.9962,1573.9705,1574.4957,1572.3651,329.0,1573.9699,1574.9963,1575.4981,1575.4982,1578.7861,1730.1,1578.7871,4.0,1579.7872,6.0,7.0,187.0,14.0,1.0,1.6,0.3,Time
,,S14,1,female,28,anonymized,Serial_Dependence_U,2023.2.3,Win32,39.84063745,,,,,,,,,,,,1579.7886,6.0,1579.7894,,,,1582.1226,1582.6219,1581.5963,1582.1223,1580.7919,260.0,1581.596,1582.6219,1583.1235,1583.1236,1584.6299,771.1,1584.6302,3.0,1585.6326,6.0,8.0,188.0,25.0,1.0,0.8,0.7,Time
,,S14,1,female,28,anonymized,Serial_Dependence_U,2023.2.3,Win32,39.84063745,,,,,,,,,,,,1585.6345,6.0,1585.636,,,,1588.1659,1588.6664,1587.64,1588.1658,1586.6365,116.0,1587.6398,1588.6665,1589.169,1589.169,1590.7515,962.1,1590.7522,3.0,1591.7526,6.0,9.0,189.0,21.0,1.0,1.0,0.3,Time
,,S14,1,female,28,anonymized,Serial_Dependence_U,2023.2.3,Win32,39.84063745,,,,,,,,,,,,1591.7543,6.0,1591.7554,,,,1594.2633,1594.7623,1593.7605,1594.263,1592.7578,251.0,1593.7603,1594.7625,1595.2645,1595.2647,1596.8952,1004.1,1596.8955,3.0,1597.8983,6.0,10.0,190.0,11.0,1.0,1.0,0.3,Time
,,S14,1,female,28,anonymized,Serial_Dependence_U,2023.2.3,Win32,39.84063745,,,,,,,,,,,,1597.8999,6.0,1597.9015,,,,1600.6598,1601.1587,1600.1329,1600.6595,1598.9292,28.0,1600.1327,1601.1589,1601.6604,1601.6607,1603.1427,884.1,1603.1433,2.0,1604.1438,6.0,11.0,191.0,2.0,1.0,1.2,0.3,Time
,,S14,1,female,28,anonymized,Serial_Dependence_U,2023.2.3,Win32,39.84063745,,,,,,,,,,,,1604.1454,6.0,1604.1462,,,,1606.6541,1607.1535,1606.1516,1606.6539,1605.1497,252.0,1606.1514,1607.1536,1607.6552,1607.6554,1608.8869,672.5,1608.8874,1.0,1609.8879,6.0,12.0,192.0,6.0,1.0,1.0,0.7,Time
,,S14,1,female,28,anonymized,Serial_Dependence_U,2023.2.3,Win32,39.84063745,,,,,,,,,,,,1609.8896,6.0,1609.8904,,,,1613.0258,1613.5251,1612.4993,1613.0255,1610.8943,273.0,1612.499,1613.5252,1614.0266,1614.0269,1615.7586,1148.3,1615.7589,2.0,1616.7603,6.0,13.0,193.0,19.0,1.0,1.6,0.7,Time
,,S14,1,female,28,anonymized,Serial_Dependence_U,2023.2.3,Win32,39.84063745,,,,,,,,,,,,1616.7617,6.0,1616.7623,,,,1619.4954,1619.9964,1618.9697,1619.4953,1617.766,77.0,1618.9695,1619.9965,1620.4982,1620.4984,1622.3063,1004.5,1622.3067,2.0,1623.3074,6.0,14.0,194.0,7.0,1.0,1.2,0.7,Time
,,S14,1,female,28,anonymized,Serial_Dependence_U,2023.2.3,Win32,39.84063745,,,,,,,,,,,,1623.3087,6.0,1623.3095,,,,1626.0179,1626.5185,1625.5161,1626.0177,1624.3127,138.0,1625.5159,1626.5187,1627.0196,1627.0197,1628.9777,1148.7,1628.9779,3.0,1629.9801,6.0,15.0,195.0,17.0,1.0,1.2,0.7,Time
,,S14,1,female,28,anonymized,Serial_Dependence_U,2023.2.3,Win32,39.84063745,,,,,,,,,,,,1629.9819,6.0,1629.9832,,,,1633.1431,1633.6421,1632.6163,1633.1429,1631.0087,105.0,1632.616,1633.6423,1634.1436,1634.1439,1635.6243,731.3,1635.6247,1.0,1636.6267,6.0,16.0,196.0,24.0,1.0,1.6,0.3,Time
,,S14,1,female,28,anonymized,Serial_Dependence_U,2023.2.3,Win32,39.84063745,,,,,,,,,,,,1636.6277,6.0,1636.6284,,,,1639.7403,1640.239,1639.2372,1639.74,1637.6321,279.0,1639.2369,1640.2392,1640.7409,1640.7411,1642.4725,1174.0,1642.4729,2.0,1643.4746,6.0,17.0,197.0,9.0,1.0,1.6,0.7,Time
,,S14,1,female,28,anonymized,Serial_Dependence_U,2023.2.3,Win32,39.84063745,,,,,,,,,,,,1643.4757,6.0,1643.4764,,,,1645.8344,1646.3344,1645.3086,1645.8343,1644.4814,316.0,1645.3083,1646.3346,1646.836,1646.8361,1648.4681,1026.6,1648.4686,4.0,1649.47,6.0,18.0,198.0,10.0,1.0,0.8,0.3,Time
,,S14,1,female,28,anonymized,Serial_Dependence_U,2023.2.3,Win32,39.84063745,,,,,,,,,,,,1649.4719,6.0,1649.4731,,,,1651.8054,1652.3042,1651.2785,1651.8051,1650.4757,347.0,1651.2782,1652.3044,1652.8059,1652.8061,1654.2869,928.1,1654.2873,4.0,1655.2893,6.0,19.0,199.0,5.0,1.0,0.8,0.7,Time
,,S14,1,female,28,anonymized,Serial_Dependence_U,2023.2.3,Win32,39.84063745,,,,,,,,,,,,1655.2912,6.0,1655.2927,,,,1658.4272,1658.9269,1657.9006,1658.4269,1656.2952,82.0,1657.9003,1658.9269,1659.4277,1659.4278,1661.6612,1377.7,1661.6616,2.0,1662.6639,6.0,20.0,200.0,29.0,1.0,1.6,0.7,Time
,,S14,1,female,28,anonymized,Serial_Dependence_U,2023.2.3,Win32,39.84063745,,,,,,,,,,,,1662.6658,6.0,1662.6669,,,,1665.5765,1666.075,1665.073,1665.5763,1663.6686,111.0,1665.0729,1666.0753,1666.5767,1666.577,1668.434,1298.8,1668.4343,2.0,1669.4363,6.0,21.0,201.0,13.0,1.0,1.4,0.3,Time
,,S14,1,female,28,anonymized,Serial_Dependence_U,2023.2.3,Win32,39.84063745,,,,,,,,,,,,1669.438,6.0,1669.4389,,,,1671.9718,1672.472,1671.469,1671.9714,1670.4424,100.0,1671.4688,1672.4721,1672.973,1672.9732,1674.9064,1230.0,1674.9073,4.0,1675.9082,6.0,22.0,202.0,1.0,1.0,1.0,0.3,Time
,,S14,1,female,28,anonymized,Serial_Dependence_U,2023.2.3,Win32,39.84063745,,,,,,,,,,,,1675.9099,6.0,1675.9107,,,,1678.2671,1678.7679,1677.7406,1678.2667,1676.9373,38.0,1677.7402,1678.768,1679.2695,1679.2696,1680.8249,1030.7,1680.8255,4.0,1681.8287,6.0,23.0,203.0,20.0,1.0,0.8,0.3,Time
,,S14,1,female,28,anonymized,Serial_Dependence_U,2023.2.3,Win32,39.84063745,,,,,,,,,,,,1681.831,6.0,1681.832,,,,1684.5638,1685.0638,1684.0379,1684.5633,1682.8338,314.0,1684.0375,1685.0639,1685.5655,1685.5655,1687.397,1129.3,1687.3977,2.0,1688.3993,6.0,24.0,204.0,12.0,1.0,1.2,0.3,Time
,,S14,1,female,28,anonymized,Serial_Dependence_U,2023.2.3,Win32,39.84063745,,,,,,,,,,,,1688.4003,6.0,1688.4009,,,,1691.3356,1691.8369,1690.8101,1691.3352,1689.4049,333.0,1690.8096,1691.837,1692.3373,1692.3373,1693.8935,852.3,1693.8943,1.0,1694.8957,6.0,25.0,205.0,28.0,1.0,1.4,0.7,Time
,,S14,1,female,28,anonymized,Serial_Dependence_U,2023.2.3,Win32,39.84063745,,,,,,,,,,,,1694.8966,6.0,1694.8973,,,,1697.2565,1697.7561,1696.7299,1697.2561,1695.9009,273.0,1696.7295,1697.7562,1698.2577,1698.2578,1699.8382,977.9,1699.839,4.0,1700.8417,6.0,26.0,206.0,15.0,1.0,0.8,0.7,Time
,,S14,1,female,28,anonymized,Serial_Dependence_U,2023.2.3,Win32,39.84063745,,,,,,,,,,,,1700.8445,6.0,1700.8454,,,,1703.8021,1704.3024,1703.2773,1703.8017,1701.8707,256.0,1703.2768,1704.3024,1704.804,1704.804,1706.4604,1128.1,1706.4611,2.0,1707.4635,6.0,27.0,207.0,3.0,1.0,1.4,0.3,Time
,,S14,1,female,28,anonymized,Serial_Dependence_U,2023.2.3,Win32,39.84063745,,,,,,,,,,,,1707.4647,6.0,1707.4652,,,,1709.9994,1710.4983,1709.4723,1709.999,1708.4674,357.0,1709.472,1710.4984,1710.9998,1711.0001,1712.9574,1256.5,1712.9577,4.0,1713.9602,6.0,28.0,208.0,16.0,1.0,1.0,0.7,Time
,,S14,1,female,28,anonymized,Serial_Dependence_U,2023.2.3,Win32,39.84063745,,,,,,,,,,,,1713.9619,6.0,1713.963,,,,1716.8973,1717.3957,1716.3693,1716.8969,1714.9647,353.0,1716.3691,1717.3958,1717.8975,1717.8976,1719.705,1127.2,1719.7054,2.0,1720.707,6.0,29.0,209.0,23.0,1.0,1.4,0.3,Time
,,S14,1,female,28,anonymized,Serial_Dependence_U,2023.2.3,Win32,39.84063745,,,,,,,,,,,,1720.7078,7.0,1724.3704,s,3.6231,,1726.9289,1727.4293,1726.4029,1726.9286,1725.3746,127.0,1726.4027,1727.4294,1727.9315,1727.9318,1730.4418,928.3,1730.4422,2.0,1731.4432,7.0,0.0,210.0,16.0,1.0,1.0,0.7,Time
,,S14,1,female,28,anonymized,Serial_Dependence_U,2023.2.3,Win32,39.84063745,,,,,,,,,,,,1731.4447,7.0,1731.4509,,,,1733.7786,1734.2776,1733.2746,1733.7784,1732.449,243.0,1733.2745,1734.2777,1734.7792,1734.7794,1736.5615,1254.0,1736.5619,5.0,1737.5639,7.0,1.0,211.0,0.0,1.0,0.8,0.3,Time
,,S14,1,female,28,anonymized,Serial_Dependence_U,2023.2.3,Win32,39.84063745,,,,,,,,,,,,1737.5656,7.0,1737.5669,,,,1740.0733,1740.5736,1739.5714,1740.0731,1738.5695,320.0,1739.5712,1740.5738,1741.0752,1741.0755,1742.5557,1050.9,1742.556,4.0,1743.5591,7.0,2.0,212.0,26.0,1.0,1.0,0.7,Time
,,S14,1,female,28,anonymized,Serial_Dependence_U,2023.2.3,Win32,39.84063745,,,,,,,,,,,,1743.5607,7.0,1743.5617,,,,1745.8926,1746.3927,1745.3673,1745.8925,1744.5632,193.0,1745.367,1746.3928,1746.8945,1746.8946,1748.2253,926.4,1748.2257,4.0,1749.2274,7.0,3.0,213.0,25.0,1.0,0.8,0.7,Time
,,S14,1,female,28,anonymized,Serial_Dependence_U,2023.2.3,Win32,39.84063745,,,,,,,,,,,,1749.2292,7.0,1749.2302,,,,1751.9646,1752.4626,1751.4606,1751.9643,1750.2339,103.0,1751.4604,1752.4627,1752.9646,1752.9647,1754.6718,1200.5,1754.6721,3.0,1755.6741,7.0,4.0,214.0,17.0,1.0,1.2,0.7,Time
,,S14,1,female,28,anonymized,Serial_Dependence_U,2023.2.3,Win32,39.84063745,,,,,,,,,,,,1755.6759,7.0,1755.6768,,,,1758.8125,1759.3111,1758.3092,1758.8122,1756.7026,48.0,1758.309,1759.3113,1759.8127,1759.813,1761.6701,1304.6,1761.6706,2.0,1762.6721,7.0,5.0,215.0,4.0,1.0,1.6,0.3,Time
,,S14,1,female,28,anonymized,Serial_Dependence_U,2023.2.3,Win32,39.84063745,,,,,,,,,,,,1762.6739,7.0,1762.675,,,,1765.0065,1765.5066,1764.4804,1765.0064,1763.6771,22.0,1764.4801,1765.5068,1766.0084,1766.0087,1767.4153,904.1,1767.4159,4.0,1768.4159,7.0,6.0,216.0,10.0,1.0,0.8,0.3,Time
,,S14,1,female,28,anonymized,Serial_Dependence_U,2023.2.3,Win32,39.84063745,,,,,,,,,,,,1768.4167,7.0,1768.4172,,,,1770.9762,1771.4771,1770.4506,1770.9759,1769.4453,107.0,1770.4504,1771.4772,1771.9783,1771.9785,1773.3595,826.1,1773.3599,2.0,1774.3612,7.0,7.0,217.0,21.0,1.0,1.0,0.3,Time
,,S14,1,female,28,anonymized,Serial_Dependence_U,2023.2.3,Win32,39.84063745,,,,,,,,,,,,1774.3624,7.0,1774.3635,,,,1776.9216,1777.4209,1776.3954,1776.9212,1775.3902,128.0,1776.3952,1777.4209,1777.9225,1777.9226,1779.4044,1002.5,1779.4049,3.0,1780.4066,7.0,8.0,218.0,6.0,1.0,1.0,0.7,Time
,,S14,1,female,28,anonymized,Serial_Dependence_U,2023.2.3,Win32,39.84063745,,,,,,,,,,,,1780.4082,7.0,1780.4092,,,,1783.118,1783.617,1782.6157,1783.1179,1781.4111,147.0,1782.6154,1783.6172,1784.1186,1784.1189,1785.826,1119.3,1785.8264,2.0,1786.8281,7.0,9.0,219.0,2.0,1.0,1.2,0.3,Time
,,S14,1,female,28,anonymized,Serial_Dependence_U,2023.2.3,Win32,39.84063745,,,,,,,,,,,,1786.8299,7.0,1786.8312,,,,1789.9397,1790.4401,1789.4378,1789.9394,1787.8338,329.0,1789.4376,1790.4403,1790.9417,1790.9418,1792.7231,1281.4,1792.7237,2.0,1793.7257,7.0,10.0,220.0,24.0,1.0,1.6,0.3,Time
,,S14,1,female,28,anonymized,Serial_Dependence_U,2023.2.3,Win32,39.84063745,,,,,,,,,,,,1793.7275,7.0,1793.7291,,,,1796.2618,1796.7607,1795.7349,1796.2616,1794.7305,227.0,1795.7346,1796.7608,1797.2626,1797.2627,1798.7699,1083.6,1798.7705,4.0,1799.7713,7.0,11.0,221.0,1.0,1.0,1.0,0.3,Time
,,S14,1,female,28,anonymized,Serial_Dependence_U,2023.2.3,Win32,39.84063745,,,,,,,,,,,,1799.7729,7.0,1799.7738,,,,1802.1561,1802.6558,1801.6293,1802.1557,1800.8005,183.0,1801.6287,1802.656,1803.158,1803.1581,1804.7387,1124.9,1804.739,5.0,1805.7412,7.0,12.0,222.0,20.0,1.0,0.8,0.3,Time
,,S14,1,female,28,anonymized,Serial_Dependence_U,2023.2.3,Win32,39.84063745,,,,,,,,,,,,1805.7429,7.0,1805.7437,,,,1808.4776,1808.9769,1807.9508,1808.4772,1806.7466,198.0,1807.9504,1808.977,1809.4792,1809.4796,1810.96,1108.0,1810.9607,2.0,1811.9614,7.0,13.0,223.0,12.0,1.0,1.2,0.3,Time
,,S14,1,female,28,anonymized,Serial_Dependence_U,2023.2.3,Win32,39.84063745,,,,,,,,,,,,1811.9626,7.0,1811.9633,,,,1814.9227,1815.4238,1814.3961,1814.9223,1812.968,77.0,1814.3956,1815.4239,1815.9259,1815.9263,1817.4066,984.0,1817.4075,2.0,1818.4089,7.0,14.0,224.0,18.0,1.0,1.4,0.7,Time
,,S14,1,female,28,anonymized,Serial_Dependence_U,2023.2.3,Win32,39.84063745,,,,,,,,,,,,1818.4111,7.0,1818.4121,,,,1821.369,1821.8705,1820.8422,1821.3687,1819.4377,308.0,1820.8417,1821.8705,1822.3713,1822.3714,1823.4753,707.4,1823.4759,1.0,1824.4789,7.0,15.0,225.0,3.0,1.0,1.4,0.3,Time
,,S14,1,female,28,anonymized,Serial_Dependence_U,2023.2.3,Win32,39.84063745,,,,,,,,,,,,1824.481,7.0,1824.482,,,,1827.64,1828.1413,1827.1132,1827.6396,1825.5079,133.0,1827.1128,1828.1414,1828.6428,1828.643,1830.6253,1028.1,1830.6261,1.0,1831.6274,7.0,16.0,226.0,14.0,1.0,1.6,0.3,Time
,,S14,1,female,28,anonymized,Serial_Dependence_U,2023.2.3,Win32,39.84063745,,,,,,,,,,,,1831.6288,7.0,1831.6295,,,,1834.5643,1835.0632,1834.0614,1834.564,1832.6324,33.0,1834.061,1835.0632,1835.5649,1835.5651,1837.1962,1175.8,1837.1968,2.0,1838.1992,7.0,17.0,227.0,23.0,1.0,1.4,0.3,Time
,,S14,1,female,28,anonymized,Serial_Dependence_U,2023.2.3,Win32,39.84063745,,,,,,,,,,,,1838.2005,7.0,1838.2013,,,,1840.5581,1841.0582,1840.0313,1840.5577,1839.2053,281.0,1840.031,1841.0582,1841.561,1841.5612,1842.6907,720.4,1842.6916,2.0,1843.6925,7.0,18.0,228.0,5.0,1.0,0.8,0.7,Time
,,S14,1,female,28,anonymized,Serial_Dependence_U,2023.2.3,Win32,39.84063745,,,,,,,,,,,,1843.6948,7.0,1843.6956,,,,1846.2771,1846.7782,1845.7503,1846.2767,1844.7238,327.0,1845.7499,1846.7783,1847.2797,1847.2799,1849.3128,906.7,1849.3138,2.0,1850.3145,7.0,19.0,229.0,11.0,1.0,1.0,0.3,Time
,,S14,1,female,28,anonymized,Serial_Dependence_U,2023.2.3,Win32,39.84063745,,,,,,,,,,,,1850.3162,7.0,1850.3169,,,,1853.0748,1853.576,1852.5482,1853.0745,1851.3441,193.0,1852.5478,1853.5762,1854.078,1854.0785,1855.6075,1002.4,1855.6082,2.0,1856.611,7.0,20.0,230.0,7.0,1.0,1.2,0.7,Time
,,S14,1,female,28,anonymized,Serial_Dependence_U,2023.2.3,Win32,39.84063745,,,,,,,,,,,,1856.6133,7.0,1856.6143,,,,1859.5717,1860.0725,1859.0446,1859.5713,1857.64,182.0,1859.0442,1860.0726,1860.5745,1860.5749,1862.556,1305.7,1862.5566,2.0,1863.5592,7.0,21.0,231.0,13.0,1.0,1.4,0.3,Time
,,S14,1,female,28,anonymized,Serial_Dependence_U,2023.2.3,Win32,39.84063745,,,,,,,,,,,,1863.5611,7.0,1863.5621,,,,1866.6969,1867.1959,1866.1936,1866.6964,1864.5881,184.0,1866.1932,1867.196,1867.6976,1867.6977,1869.681,1303.8,1869.6819,2.0,1870.6826,7.0,22.0,232.0,19.0,1.0,1.6,0.7,Time
,,S14,1,female,28,anonymized,Serial_Dependence_U,2023.2.3,Win32,39.84063745,,,,,,,,,,,,1870.6843,7.0,1870.6851,,,,1873.6434,1874.1443,1873.1179,1873.643,1871.7119,322.0,1873.1174,1874.1444,1874.6467,1874.6468,1876.6537,1024.5,1876.6546,2.0,1877.6563,7.0,23.0,233.0,28.0,1.0,1.4,0.7,Time
,,S14,1,female,28,anonymized,Serial_Dependence_U,2023.2.3,Win32,39.84063745,,,,,,,,,,,,1877.6588,7.0,1877.6599,,,,1880.8171,1881.3178,1880.2915,1880.8169,1878.686,260.0,1880.291,1881.3181,1881.8197,1881.8199,1883.9271,1584.0,1883.9277,3.0,1884.9293,7.0,24.0,234.0,9.0,1.0,1.6,0.7,Time
,,S14,1,female,28,anonymized,Serial_Dependence_U,2023.2.3,Win32,39.84063745,,,,,,,,,,,,1884.9304,7.0,1884.9308,,,,1887.8908,1888.3921,1887.3657,1887.8904,1885.9595,258.0,1887.3652,1888.3922,1888.8942,1888.8943,1890.7508,1377.7,1890.7519,3.0,1891.7527,7.0,25.0,235.0,8.0,1.0,1.4,0.7,Time
,,S14,1,female,28,anonymized,Serial_Dependence_U,2023.2.3,Win32,39.84063745,,,,,,,,,,,,1891.7542,7.0,1891.7549,,,,1894.9142,1895.4143,1894.3875,1894.9139,1892.7821,162.0,1894.387,1895.4144,1895.9167,1895.9169,1898.1745,1583.2,1898.1752,3.0,1899.1785,7.0,26.0,236.0,29.0,1.0,1.6,0.7,Time
,,S14,1,female,28,anonymized,Serial_Dependence_U,2023.2.3,Win32,39.84063745,,,,,,,,,,,,1899.1808,7.0,1899.1818,,,,1901.5366,1902.0369,1901.0095,1901.5363,1900.2067,186.0,1901.0091,1902.0371,1902.5184,1902.5185,1904.0201,730.2,1904.0211,2.0,1905.0221,7.0,27.0,237.0,15.0,1.0,0.8,0.7,Time
,,S14,1,female,28,anonymized,Serial_Dependence_U,2023.2.3,Win32,39.84063745,,,,,,,,,,,,1905.024,7.0,1905.0248,,,,1907.7821,1908.2835,1907.2565,1907.7818,1906.028,216.0,1907.256,1908.2836,1908.7849,1908.7851,1910.3652,1073.8,1910.3657,2.0,1911.3685,7.0,28.0,238.0,22.0,1.0,1.2,0.3,Time
,,S14,1,female,28,anonymized,Serial_Dependence_U,2023.2.3,Win32,39.84063745,,,,,,,,,,,,1911.3706,7.0,1911.3716,,,,1914.1534,1914.6536,1913.6265,1914.1531,1912.3984,155.0,1913.6261,1914.6536,1915.1558,1915.156,1916.9119,1155.9,1916.9125,3.0,1917.9156,7.0,29.0,239.0,27.0,1.0,1.2,0.7,Time
,,S14,1,female,28,anonymized,Serial_Dependence_U,2023.2.3,Win32,39.84063745,,,,,,,,,,,,1917.9179,8.0,1920.7243,s,2.7651,,1923.0833,1923.5832,1922.5582,1923.0829,1921.7292,62.0,1922.5576,1923.5832,1924.0858,1924.0859,1925.5409,722.5,1925.5416,2.0,1926.5435,8.0,0.0,240.0,5.0,1.0,0.8,0.7,Time
,,S14,1,female,28,anonymized,Serial_Dependence_U,2023.2.3,Win32,39.84063745,,,,,,,,,,,,1926.5445,8.0,1926.55,,,,1929.0778,1929.5786,1928.5535,1929.0777,1927.5486,300.0,1928.5532,1929.5789,1930.0805,1930.0807,1931.7872,1005.6,1931.7875,3.0,1932.7896,8.0,1.0,241.0,6.0,1.0,1.0,0.7,Time
,,S14,1,female,28,anonymized,Serial_Dependence_U,2023.2.3,Win32,39.84063745,,,,,,,,,,,,1932.7908,8.0,1932.7917,,,,1935.9033,1936.4013,1935.3996,1935.903,1933.7941,291.0,1935.3994,1936.4015,1936.9032,1936.9034,1939.1373,1354.7,1939.1377,2.0,1940.1391,8.0,2.0,242.0,14.0,1.0,1.6,0.3,Time
,,S14,1,female,28,anonymized,Serial_Dependence_U,2023.2.3,Win32,39.84063745,,,,,,,,,,,,1940.1406,8.0,1940.142,,,,1942.6486,1943.149,1942.1468,1942.6484,1941.1449,212.0,1942.1466,1943.1492,1943.6509,1943.6511,1945.4075,1126.2,1945.4078,4.0,1946.4099,8.0,3.0,243.0,11.0,1.0,1.0,0.3,Time
,,S14,1,female,28,anonymized,Serial_Dependence_U,2023.2.3,Win32,39.84063745,,,,,,,,,,,,1946.4115,8.0,1946.4122,,,,1949.1443,1949.6457,1948.6183,1949.1441,1947.4134,335.0,1948.6182,1949.6458,1950.1471,1950.1474,1951.8545,1180.2,1951.8549,3.0,1952.8563,8.0,4.0,244.0,2.0,1.0,1.2,0.3,Time
,,S14,1,female,28,anonymized,Serial_Dependence_U,2023.2.3,Win32,39.84063745,,,,,,,,,,,,1952.8577,8.0,1952.8584,,,,1955.993,1956.4931,1955.4679,1955.9929,1953.8621,104.0,1955.4676,1956.4931,1956.9947,1956.9948,1958.5766,1076.5,1958.5769,1.0,1959.5786,8.0,5.0,245.0,9.0,1.0,1.6,0.7,Time
,,S14,1,female,28,anonymized,Serial_Dependence_U,2023.2.3,Win32,39.84063745,,,,,,,,,,,,1959.5806,8.0,1959.5818,,,,1962.4903,1962.9902,1961.9881,1962.49,1960.5835,196.0,1961.9879,1962.9903,1963.4919,1963.492,1965.0982,1174.8,1965.0986,2.0,1966.1004,8.0,6.0,246.0,3.0,1.0,1.4,0.3,Time
,,S14,1,female,28,anonymized,Serial_Dependence_U,2023.2.3,Win32,39.84063745,,,,,,,,,,,,1966.1024,8.0,1966.1036,,,,1969.2387,1969.7374,1968.7124,1969.2384,1967.1065,160.0,1968.712,1969.7375,1970.2393,1970.2395,1971.7956,1073.1,1971.7961,1.0,1972.7978,8.0,7.0,247.0,24.0,1.0,1.6,0.3,Time
,,S14,1,female,28,anonymized,Serial_Dependence_U,2023.2.3,Win32,39.84063745,,,,,,,,,,,,1972.7992,8.0,1972.8001,,,,1975.3324,1975.8332,1974.8069,1975.3321,1973.8038,353.0,1974.8066,1975.8334,1976.3352,1976.3355,1978.5179,1103.6,1978.5183,4.0,1979.5198,8.0,8.0,248.0,1.0,1.0,1.0,0.3,Time
,,S14,1,female,28,anonymized,Serial_Dependence_U,2023.2.3,Win32,39.84063745,,,,,,,,,,,,1979.5208,8.0,1979.5212,,,,1981.8542,1982.3546,1981.3287,1981.8541,1980.5262,180.0,1981.3285,1982.3547,1982.8564,1982.8566,1984.2375,979.0,1984.2378,4.0,1985.2393,8.0,9.0,249.0,25.0,1.0,0.8,0.7,Time
,,S14,1,female,28,anonymized,Serial_Dependence_U,2023.2.3,Win32,39.84063745,,,,,,,,,,,,1985.241,8.0,1985.2419,,,,1988.3773,1988.8762,1987.8504,1988.3771,1986.2451,142.0,1987.8501,1988.8765,1989.3781,1989.3782,1991.0848,1350.8,1991.0852,2.0,1992.0873,8.0,10.0,250.0,19.0,1.0,1.6,0.7,Time
,,S14,1,female,28,anonymized,Serial_Dependence_U,2023.2.3,Win32,39.84063745,,,,,,,,,,,,1992.0888,8.0,1992.0895,,,,1995.0,1995.4987,1994.4955,1994.9997,1993.0923,100.0,1994.4954,1995.4987,1996.0001,1996.0004,1997.8825,1502.3,1997.8829,4.0,1998.8847,8.0,11.0,251.0,18.0,1.0,1.4,0.7,Time
,,S14,1,female,28,anonymized,Serial_Dependence_U,2023.2.3,Win32,39.84063745,,,,,,,,,,,,1998.8866,8.0,1998.8878,,,,2001.6205,2002.1204,2001.0939,2001.6201,1999.8911,6.0,2001.0936,2002.1207,2002.6215,2002.6217,2004.3291,1375.5,2004.3295,4.0,2005.3322,8.0,12.0,252.0,7.0,1.0,1.2,0.7,Time
,,S14,1,female,28,anonymized,Serial_Dependence_U,2023.2.3,Win32,39.84063745,,,,,,,,,,,,2005.3348,8.0,2005.3362,,,,2008.0667,2008.5672,2007.5417,2008.0665,2006.3359,238.0,2007.5414,2008.5672,2009.0685,2009.0688,2010.65,1202.1,2010.6503,3.0,2011.6526,8.0,13.0,253.0,12.0,1.0,1.2,0.3,Time
,,S14,1,female,28,anonymized,Serial_Dependence_U,2023.2.3,Win32,39.84063745,,,,,,,,,,,,2011.6546,8.0,2011.656,,,,2014.1883,2014.6873,2013.6849,2014.1881,2012.6821,114.0,2013.6847,2014.6876,2015.189,2015.1893,2016.5187,805.7,2016.519,2.0,2017.5221,8.0,14.0,254.0,26.0,1.0,1.0,0.7,Time
,,S14,1,female,28,anonymized,Serial_Dependence_U,2023.2.3,Win32,39.84063745,,,,,,,,,,,,2017.5239,8.0,2017.5247,,,,2019.8814,2020.3814,2019.3554,2019.8812,2018.5506,178.0,2019.3551,2020.3815,2020.8833,2020.8834,2022.113,830.3,2022.1135,3.0,2023.1156,8.0,15.0,255.0,0.0,1.0,0.8,0.3,Time
,,S14,1,female,28,anonymized,Serial_Dependence_U,2023.2.3,Win32,39.84063745,,,,,,,,,,,,2023.1175,8.0,2023.1183,,,,2025.4508,2025.9494,2024.947,2025.4506,2024.1216,96.0,2024.9468,2025.9494,2026.4516,2026.4518,2027.7067,830.2,2027.707,3.0,2028.7094,8.0,16.0,256.0,15.0,1.0,0.8,0.7,Time
,,S14,1,female,28,anonymized,Serial_Dependence_U,2023.2.3,Win32,39.84063745,,,,,,,,,,,,2028.7111,8.0,2028.7121,,,,2031.4464,2031.9449,2030.9189,2031.4462,2029.7157,226.0,2030.9187,2031.9451,2032.4465,2032.4467,2034.0529,1122.1,2034.0532,2.0,2035.055,8.0,17.0,257.0,27.0,1.0,1.2,0.7,Time
,,S14,1,female,28,anonymized,Serial_Dependence_U,2023.2.3,Win32,39.84063745,,,,,,,,,,,,2035.056,8.0,2035.0566,,,,2037.9917,2038.4918,2037.4651,2037.9915,2036.0592,103.0,2037.4649,2038.492,2038.9936,2038.9938,2040.8255,1375.8,2040.8258,3.0,2041.8276,8.0,18.0,258.0,28.0,1.0,1.4,0.7,Time
,,S14,1,female,28,anonymized,Serial_Dependence_U,2023.2.3,Win32,39.84063745,,,,,,,,,,,,2041.8289,8.0,2041.8298,,,,2044.7656,2045.2644,2044.2391,2044.7652,2042.8334,292.0,2044.2388,2045.2646,2045.7662,2045.7664,2047.5981,1324.5,2047.5985,2.0,2048.6007,8.0,19.0,259.0,23.0,1.0,1.4,0.3,Time
,,S14,1,female,28,anonymized,Serial_Dependence_U,2023.2.3,Win32,39.84063745,,,,,,,,,,,,2048.6024,8.0,2048.6038,,,,2051.738,2052.2372,2051.2116,2051.7378,2049.6065,198.0,2051.2114,2052.2372,2052.7392,2052.7394,2055.249,1598.2,2055.2494,3.0,2056.2511,8.0,20.0,260.0,29.0,1.0,1.6,0.7,Time
,,S14,1,female,28,anonymized,Serial_Dependence_U,2023.2.3,Win32,39.84063745,,,,,,,,,,,,2056.2524,8.0,2056.2536,,,,2058.7611,2059.2603,2058.2579,2058.7609,2057.2546,44.0,2058.2578,2059.2603,2059.7629,2059.7632,2061.2928,1073.7,2061.2931,4.0,2062.2961,8.0,21.0,261.0,21.0,1.0,1.0,0.3,Time
,,S14,1,female,28,anonymized,Serial_Dependence_U,2023.2.3,Win32,39.84063745,,,,,,,,,,,,2062.2977,8.0,2062.2988,,,,2065.033,2065.5318,2064.5062,2065.0328,2063.3008,56.0,2064.506,2065.532,2066.0337,2066.0339,2067.8408,1250.5,2067.8412,3.0,2068.843,8.0,22.0,262.0,22.0,1.0,1.2,0.3,Time
,,S14,1,female,28,anonymized,Serial_Dependence_U,2023.2.3,Win32,39.84063745,,,,,,,,,,,,2068.8444,8.0,2068.8451,,,,2071.2028,2071.7027,2070.6757,2071.2025,2069.8717,0.0,2070.6755,2071.7028,2072.2039,2072.2039,2073.3594,748.2,2073.3598,2.0,2074.3619,8.0,23.0,263.0,10.0,1.0,0.8,0.3,Time
,,S14,1,female,28,anonymized,Serial_Dependence_U,2023.2.3,Win32,39.84063745,,,,,,,,,,,,2074.3633,8.0,2074.3642,,,,2077.0964,2077.5967,2076.5704,2077.0961,2075.3669,204.0,2076.5699,2077.5968,2078.0984,2078.0984,2080.031,1377.1,2080.0317,4.0,2081.0336,8.0,24.0,264.0,17.0,1.0,1.2,0.7,Time
,,S14,1,female,28,anonymized,Serial_Dependence_U,2023.2.3,Win32,39.84063745,,,,,,,,,,,,2081.0348,8.0,2081.0353,,,,2083.3676,2083.8687,2082.8407,2083.3672,2082.0381,134.0,2082.8404,2083.8689,2084.3707,2084.3712,2085.7498,878.7,2085.7505,4.0,2086.7527,8.0,25.0,265.0,20.0,1.0,0.8,0.3,Time
,,S14,1,female,28,anonymized,Serial_Dependence_U,2023.2.3,Win32,39.84063745,,,,,,,,,,,,2086.7543,8.0,2086.7551,,,,2089.7136,2090.2142,2089.1882,2089.7133,2087.7832,297.0,2089.1877,2090.2143,2090.716,2090.7161,2092.7983,1278.8,2092.7991,2.0,2093.8018,8.0,26.0,266.0,13.0,1.0,1.4,0.3,Time
,,S14,1,female,28,anonymized,Serial_Dependence_U,2023.2.3,Win32,39.84063745,,,,,,,,,,,,2093.8041,8.0,2093.8049,,,,2096.9628,2097.464,2096.4366,2096.9624,2094.8307,93.0,2096.4363,2097.464,2097.966,2097.9661,2099.8718,1252.1,2099.8726,2.0,2100.8744,8.0,27.0,267.0,4.0,1.0,1.6,0.3,Time
,,S14,1,female,28,anonymized,Serial_Dependence_U,2023.2.3,Win32,39.84063745,,,,,,,,,,,,2100.8754,8.0,2100.876,,,,2103.8106,2104.3117,2103.2841,2103.8103,2101.8792,108.0,2103.2836,2104.3118,2104.8132,2104.8134,2106.5703,1233.4,2106.5712,2.0,2107.5718,8.0,28.0,268.0,8.0,1.0,1.4,0.7,Time
,,S14,1,female,28,anonymized,Serial_Dependence_U,2023.2.3,Win32,39.84063745,,,,,,,,,,,,2107.5733,8.0,2107.5739,,,,2110.1065,2110.6068,2109.5799,2110.1061,2108.5765,117.0,2109.5795,2110.6068,2111.1096,2111.1098,2112.7661,1055.3,2112.767,4.0,2113.7679,8.0,29.0,269.0,16.0,1.0,1.0,0.7,Time
