Scale_setup.started,Scale_setup.stopped,participant,expid,session,sex,age,date,expName,psychopyVersion,OS,frameRate,Intro.started,Intro.stopped,key_resp_2.keys,key_resp_2.rt,key_resp_2.duration,block.started,direction,Block_id,block.stopped,trial_direction,Block_resp_2.keys,Block_resp_2.rt,Block_resp_2.duration,ITI.started,ITI.stopped,Mask_2.started,Mask_2.stopped,encoding.started,encoding.stopped,Cue.started,Cue.stopped,Response.started,Response.stopped,keyDuration,Feedback_Time.started,FeedbackID_T,Feedback_Time.stopped,trials.thisRepN,trials.thisTrialN,trials.thisN,trials.thisIndex,trials.ran,TimeDur,Coherence1,TrialType
0.0003000000119186552,0.0005000000000165983,S15,787955,001,男,21,2025-06-04_20h54.11.234,Serial_Dependence_U,2023.2.3,Win32,60.60606060606061,,,,,,,,,,,,,,,,,,,,,,,,,,,,,,,,,,,
,,S15,787955,001,男,21,2025-06-04_20h54.11.234,Serial_Dependence_U,2023.2.3,Win32,60.60606060606061,9.177600000023858,10.327300000011917,space,1.1154000000357769,,,,,,,,,,,,,,,,,,,,,,,,,,,,,,,
,,S15,787955,001,男,21,2025-06-04_20h54.11.234,Serial_Dependence_U,2023.2.3,Win32,60.60606060606061,,,,,,10.332100000023843,205,0,12.640699999988072,205,s,2.2776999999881014,,16.61289999997615,17.10499999999999,16.10489999997617,16.61280000001193,13.642800000011931,16.10480000001192,17.10510000002384,17.597199999988078,17.597499999999997,19.23819999998807,1198,19.238500000000016,2,20.24000000000001,0,0,0,23,1,1.4,0.3,Time
,,S15,787955,001,男,21,2025-06-04_20h54.11.234,Serial_Dependence_U,2023.2.3,Win32,60.60606060606061,,,,,,20.240699999988095,59,0,20.24210000002384,59,,,,24.424800000011913,24.916699999988083,23.916199999988095,24.424800000011913,21.240899999976165,23.916199999988095,24.916699999988083,25.40889999997617,25.40889999997617,26.985399999976153,1160,26.985500000000002,2,27.98569999998807,0,1,1,14,1,1.6,0.3,Time
,,S15,787955,001,男,21,2025-06-04_20h54.11.234,Serial_Dependence_U,2023.2.3,Win32,60.60606060606061,,,,,,27.98610000002384,72,0,27.98610000002384,72,,,,31.56430000001191,32.05589999997616,31.055800000011914,31.564100000023842,28.986999999999995,31.055800000011914,32.05589999997616,32.54810000002385,32.54819999998807,33.882199999988075,1019,33.882199999988075,3,34.87880000001192,0,2,2,21,1,1,0.3,Time
,,S15,787955,001,男,21,2025-06-04_20h54.11.234,Serial_Dependence_U,2023.2.3,Win32,60.60606060606061,,,,,,34.87930000001191,319,0,34.87939999997616,319,,,,38.62100000000001,39.113699999988086,38.11519999998808,38.62080000001191,35.880100000023845,38.11519999998808,39.113699999988086,39.60539999997616,39.60539999997616,41.82469999998807,1576,41.82469999998807,5,42.82269999998809,0,3,3,27,1,1.2,0.7,Time
,,S15,787955,001,男,21,2025-06-04_20h54.11.234,Serial_Dependence_U,2023.2.3,Win32,60.60606060606061,,,,,,42.82300000000001,272,0,42.82319999998808,272,,,,46.76189999997615,47.25330000001193,46.25569999998808,46.76180000001193,43.8245,46.25560000002383,47.25330000001193,47.74580000001191,47.74580000001191,49.46930000001191,1265,49.46930000001191,2,50.47019999998807,0,4,4,28,1,1.4,0.7,Time
,,S15,787955,001,男,21,2025-06-04_20h54.11.234,Serial_Dependence_U,2023.2.3,Win32,60.60606060606061,,,,,,50.470699999988085,209,0,50.470800000011934,209,,,,54.660399999976164,55.16710000002385,54.14989999997616,54.660399999976164,51.47189999997616,54.14969999998809,55.16710000002385,55.65899999999999,55.65899999999999,57.33080000001192,1167,57.33080000001192,2,58.331500000000005,0,5,5,4,1,1.6,0.3,Time
,,S15,787955,001,男,21,2025-06-04_20h54.11.234,Serial_Dependence_U,2023.2.3,Win32,60.60606060606061,,,,,,58.331800000011924,275,0,58.331999999999994,275,,,,61.87680000001191,62.36960000002384,61.37069999998809,61.87669999998809,59.33319999998807,61.37069999998809,62.369699999988086,62.86119999998809,62.86130000001194,64.588,1251,64.588,4,65.58560000002385,0,6,6,6,1,1,0.7,Time
,,S15,787955,001,男,21,2025-06-04_20h54.11.234,Serial_Dependence_U,2023.2.3,Win32,60.60606060606061,,,,,,65.58600000000001,86,0,65.58630000001193,86,,,,68.97,69.45880000001193,68.458,68.96989999997615,66.58689999997617,68.45789999997615,69.45880000001193,69.95130000001191,69.95150000000001,71.21830000001194,856,71.21839999997616,4,72.21619999998808,0,7,7,10,1,0.8,0.3,Time
,,S15,787955,001,男,21,2025-06-04_20h54.11.234,Serial_Dependence_U,2023.2.3,Win32,60.60606060606061,,,,,,72.2165,119,0,72.21660000002385,119,,,,76.40430000001192,76.89360000002384,75.89330000001192,76.40430000001192,73.22189999997616,75.89330000001192,76.89360000002384,77.38580000001193,77.38589999997615,78.87939999997616,1054,78.87950000000001,1,79.88069999998808,0,8,8,24,1,1.6,0.3,Time
,,S15,787955,001,男,21,2025-06-04_20h54.11.234,Serial_Dependence_U,2023.2.3,Win32,60.60606060606061,,,,,,79.88110000002385,20,0,79.88119999998807,20,,,,83.459,83.95130000001191,82.95360000002384,83.45889999997615,80.88499999999999,82.95349999999999,83.95130000001191,84.44319999998808,84.44339999997615,86.03510000002385,1245,86.03519999998807,4,87.0361999999881,0,9,9,11,1,1,0.3,Time
,,S15,787955,001,男,21,2025-06-04_20h54.11.234,Serial_Dependence_U,2023.2.3,Win32,60.60606060606061,,,,,,87.03680000001194,153,0,87.03689999997616,153,,,,90.99199999999999,91.48380000001194,90.4831999999881,90.99189999997614,88.0395,90.48310000002382,91.48380000001194,91.9761999999881,91.9761999999881,93.76849999999999,1360,93.76860000002384,3,94.76610000002384,0,10,10,18,1,1.4,0.7,Time
,,S15,787955,001,男,21,2025-06-04_20h54.11.234,Serial_Dependence_U,2023.2.3,Win32,60.60606060606061,,,,,,94.76639999997619,116,0,94.76649999999998,116,,,,98.7551999999881,99.24689999997614,98.24839999997616,98.7551999999881,95.77030000001193,98.24830000001194,99.24689999997614,99.73910000002385,99.73919999998807,101.20039999997616,1109,101.20039999997616,2,102.19560000002386,0,11,11,13,1,1.4,0.3,Time
,,S15,787955,001,男,21,2025-06-04_20h54.11.234,Serial_Dependence_U,2023.2.3,Win32,60.60606060606061,,,,,,102.196,340,0,102.19610000002385,340,,,,105.5495,106.042,105.04419999998808,105.54939999997615,103.20360000002384,105.04410000002386,106.042,106.5336999999881,106.5336999999881,108.01119999998807,1005,108.01119999998807,4,109.01210000002382,0,12,12,5,1,0.8,0.7,Time
,,S15,787955,001,男,21,2025-06-04_20h54.11.234,Serial_Dependence_U,2023.2.3,Win32,60.60606060606061,,,,,,109.01260000002387,32,0,109.01280000001194,32,,,,112.55699999999999,113.04969999998806,112.05119999998809,112.55689999997614,110.01639999997619,112.05110000002387,113.04969999998806,113.54160000002386,113.54169999998808,115.13769999998809,1136,115.13769999998809,4,116.13449999999997,0,13,13,26,1,1,0.7,Time
,,S15,787955,001,男,21,2025-06-04_20h54.11.234,Serial_Dependence_U,2023.2.3,Win32,60.60606060606061,,,,,,116.13480000001195,38,0,116.13500000000002,38,,,,119.90989999997615,120.40310000002384,119.4041999999881,119.90989999997615,117.13630000001191,119.40410000002382,120.40310000002384,120.8941999999881,120.8941999999881,122.3715,978,122.37160000002385,2,123.3723000000119,0,14,14,2,1,1.2,0.3,Time
,,S15,787955,001,男,21,2025-06-04_20h54.11.234,Serial_Dependence_U,2023.2.3,Win32,60.60606060606061,,,,,,123.3726999999881,318,0,123.37280000001195,318,,,,127.52530000001192,128.01700000000002,127.01889999997618,127.52530000001192,124.37380000001193,127.01889999997618,128.01700000000002,128.5093000000119,128.50939999997618,130.64319999998807,1479,130.64319999998807,2,131.6443000000119,0,15,15,9,1,1.6,0.7,Time
,,S15,787955,001,男,21,2025-06-04_20h54.11.234,Serial_Dependence_U,2023.2.3,Win32,60.60606060606061,,,,,,131.64450000000002,92,0,131.6446999999881,92,,,,134.99289999997617,135.48710000002384,134.4845,134.99289999997617,132.64589999997614,134.48439999997615,135.48710000002384,135.977,135.977,137.60210000002385,1205,137.60210000002385,5,138.60310000002383,0,16,16,25,1,0.8,0.7,Time
,,S15,787955,001,男,21,2025-06-04_20h54.11.234,Serial_Dependence_U,2023.2.3,Win32,60.60606060606061,,,,,,138.60380000001194,178,0,138.604,178,,,,141.984,142.47610000002382,141.4753000000119,141.98389999997616,139.60410000002386,141.4753000000119,142.4761999999881,142.96860000002383,142.96860000002383,144.00739999997617,604,144.00739999997617,2,145.00339999997615,0,17,17,20,1,0.8,0.3,Time
,,S15,787955,001,男,21,2025-06-04_20h54.11.234,Serial_Dependence_U,2023.2.3,Win32,60.60606060606061,,,,,,145.004,281,0,145.00410000002384,281,,,,148.74560000002387,149.23789999997618,148.23719999998806,148.74560000002387,146.0055,148.23710000002384,149.23789999997618,149.73010000002384,149.73010000002384,151.11210000002384,902,151.11219999998806,2,152.10989999997614,0,18,18,7,1,1.2,0.7,Time
,,S15,787955,001,男,21,2025-06-04_20h54.11.234,Serial_Dependence_U,2023.2.3,Win32,60.60606060606061,,,,,,152.1103000000119,12,0,152.11050000000003,12,,,,155.45839999997614,155.9501999999881,154.9496999999881,155.45839999997614,153.11430000001192,154.9496999999881,155.9501999999881,156.44289999997616,156.443,157.77280000001193,870,157.77280000001193,4,158.77339999997614,0,19,19,15,1,0.8,0.7,Time
,,S15,787955,001,男,21,2025-06-04_20h54.11.234,Serial_Dependence_U,2023.2.3,Win32,60.60606060606061,,,,,,158.7738000000119,51,0,158.77400000000003,51,,,,162.54850000000002,163.0403000000119,162.04289999997619,162.54839999997617,159.77710000002386,162.04269999998806,163.0403000000119,163.53360000002382,163.5336999999881,164.833,857,164.83310000002385,2,165.83060000002385,0,20,20,22,1,1.2,0.3,Time
,,S15,787955,001,男,21,2025-06-04_20h54.11.234,Serial_Dependence_U,2023.2.3,Win32,60.60606060606061,,,,,,165.831,212,0,165.83119999998806,212,,,,169.77239999997616,170.26139999997613,169.2638000000119,169.77239999997616,166.83160000002383,169.26369999998806,170.26139999997613,170.754,170.75410000002384,172.39900000000003,1285,172.39900000000003,2,173.39619999998806,0,21,21,8,1,1.4,0.7,Time
,,S15,787955,001,男,21,2025-06-04_20h54.11.234,Serial_Dependence_U,2023.2.3,Win32,60.60606060606061,,,,,,173.39660000002382,193,0,173.3966999999881,193,,,,177.17419999998808,177.66360000002382,176.66310000002383,177.17419999998808,174.39789999997615,176.66299999999998,177.66360000002382,178.15589999997619,178.15589999997619,179.47230000001193,932,179.47230000001193,2,180.47,0,22,22,12,1,1.2,0.3,Time
,,S15,787955,001,男,21,2025-06-04_20h54.11.234,Serial_Dependence_U,2023.2.3,Win32,60.60606060606061,,,,,,180.4705,91,0,180.47069999998806,91,,,,184.4426999999881,184.934,183.93300000000002,184.4426999999881,181.47189999997616,183.93300000000002,184.934,185.42619999998809,185.42630000001193,187.00510000002382,1140,187.0051999999881,2,188.00319999998808,0,23,23,3,1,1.4,0.3,Time
,,S15,787955,001,男,21,2025-06-04_20h54.11.234,Serial_Dependence_U,2023.2.3,Win32,60.60606060606061,,,,,,188.00360000002385,141,0,188.00380000001192,141,,,,191.74869999998808,192.23760000002383,191.23960000002384,191.74869999998808,189.00489999997617,191.23960000002384,192.2376999999881,192.72969999998807,192.72980000001192,194.0623000000119,1033,194.0623000000119,2,195.06030000001195,0,24,24,17,1,1.2,0.7,Time
,,S15,787955,001,男,21,2025-06-04_20h54.11.234,Serial_Dependence_U,2023.2.3,Win32,60.60606060606061,,,,,,195.06080000001194,91,0,195.061,91,,,,199.1965,199.68869999998807,198.68750000000003,199.1965,196.05580000001194,198.68750000000003,199.68880000001192,200.18089999997616,200.181,201.7406999999881,1202,201.7406999999881,2,202.74110000002386,0,25,25,19,1,1.6,0.7,Time
,,S15,787955,001,男,21,2025-06-04_20h54.11.234,Serial_Dependence_U,2023.2.3,Win32,60.60606060606061,,,,,,202.74130000001193,3,0,202.7415,3,,,,206.12219999998806,206.61419999998807,205.61660000002385,206.12219999998806,203.74249999999998,205.61660000002385,206.61419999998807,207.10680000001193,207.10689999997615,208.32119999998807,882,208.32119999998807,4,209.32230000001195,0,26,26,0,1,0.8,0.3,Time
,,S15,787955,001,男,21,2025-06-04_20h54.11.234,Serial_Dependence_U,2023.2.3,Win32,60.60606060606061,,,,,,209.32260000002387,243,0,209.3226999999881,243,,,,212.90319999998806,213.393,212.39730000001194,212.90310000002384,210.32380000001191,212.39730000001194,213.393,213.8851999999881,213.88530000001194,214.8893000000119,720,214.8893000000119,2,215.88710000002382,0,27,27,1,1,1,0.3,Time
,,S15,787955,001,男,21,2025-06-04_20h54.11.234,Serial_Dependence_U,2023.2.3,Win32,60.60606060606061,,,,,,215.88760000002387,150,0,215.8876999999881,150,,,,220.04060000002383,220.53239999997615,219.5308000000119,220.04060000002383,216.88860000002384,219.5308000000119,220.53239999997615,221.02410000002382,221.02410000002382,222.48510000002383,1130,222.48510000002383,2,223.48639999997616,0,28,28,29,1,1.6,0.7,Time
,,S15,787955,001,男,21,2025-06-04_20h54.11.234,Serial_Dependence_U,2023.2.3,Win32,60.60606060606061,,,,,,223.48669999998808,180,0,223.48689999997615,180,,,,227.03110000002383,227.5238000000119,226.52519999998808,227.03110000002383,224.48749999999998,226.52510000002385,227.5238000000119,228.01569999998807,228.01569999998807,229.44380000001192,1055,229.44389999997614,4,230.44449999999998,0,29,29,16,1,1,0.7,Time
,,S15,787955,001,男,21,2025-06-04_20h54.11.234,Serial_Dependence_U,2023.2.3,Win32,60.60606060606061,,,,,,230.4448000000119,236,1,292.05550000000005,236,s,61.59919999998806,,296.241,296.7328999999762,295.73489999997616,296.241,293.05880000001196,295.73489999997616,296.7328999999762,297.2253000000119,297.2253000000119,298.63989999997614,1048,298.64,1,298.6401999999881,1,0,30,24,1,1.6,0.3,Time
,,S15,787955,001,男,21,2025-06-04_20h54.11.234,Serial_Dependence_U,2023.2.3,Win32,60.60606060606061,,,,,,298.6403999999761,255,1,298.6411000000238,255,,,,302.03439999997613,302.52630000001193,301.5258999999761,302.03430000001197,299.654300000012,301.5258999999761,302.52630000001193,303.01860000002387,303.01869999998803,304.32210000002385,923,304.32219999998813,4,304.32239999997614,1,1,31,0,1,0.8,0.3,Time
,,S15,787955,001,男,21,2025-06-04_20h54.11.234,Serial_Dependence_U,2023.2.3,Win32,60.60606060606061,,,,,,304.32260000002384,102,1,304.3226999999881,102,,,,308.07610000002387,308.56730000001187,307.56780000001197,308.07610000002387,305.3328999999761,307.56780000001197,308.56730000001187,309.05839999997613,309.05839999997613,310.4536000000238,1042,310.4536999999881,2,310.4538999999762,1,2,32,27,1,1.2,0.7,Time
,,S15,787955,001,男,21,2025-06-04_20h54.11.234,Serial_Dependence_U,2023.2.3,Win32,60.60606060606061,,,,,,310.4541000000238,312,1,310.4541999999881,312,,,,314.2311999999881,314.72039999997617,313.7226999999881,314.2311999999881,311.45849999999996,313.7226999999881,314.72039999997617,315.2128999999761,315.2128999999761,316.64369999998803,1017,316.64369999998803,2,316.64389999997616,1,3,33,22,1,1.2,0.3,Time
,,S15,787955,001,男,21,2025-06-04_20h54.11.234,Serial_Dependence_U,2023.2.3,Win32,60.60606060606061,,,,,,316.64410000002385,269,1,316.64419999998813,269,,,,320.41880000001197,320.9076000000239,319.9098999999761,320.4186999999881,317.6423000000119,319.9098999999761,320.90769999998804,321.4011000000238,321.4011000000238,322.7493000000119,1036,322.74939999997616,2,322.7495,1,4,34,12,1,1.2,0.3,Time
,,S15,787955,001,男,21,2025-06-04_20h54.11.234,Serial_Dependence_U,2023.2.3,Win32,60.60606060606061,,,,,,322.7498000000119,341,1,322.7498000000119,341,,,,326.68500000000006,327.1773000000119,326.1803000000119,326.6848999999762,323.74919999998804,326.1803000000119,327.1773000000119,327.66949999999997,327.66949999999997,329.2811000000238,1308,329.2811000000238,2,329.2813000000119,1,5,35,28,1,1.4,0.7,Time
,,S15,787955,001,男,21,2025-06-04_20h54.11.234,Serial_Dependence_U,2023.2.3,Win32,60.60606060606061,,,,,,329.28150000000005,311,1,329.2816000000239,311,,,,333.250300000012,333.7433999999762,332.74369999998805,333.2501999999881,330.2796999999881,332.7436000000239,333.7433999999762,334.2345,334.2345,335.5311000000238,977,335.5311999999881,1,335.53150000000005,1,6,36,23,1,1.4,0.3,Time
,,S15,787955,001,男,21,2025-06-04_20h54.11.234,Serial_Dependence_U,2023.2.3,Win32,60.60606060606061,,,,,,335.5318000000119,86,1,335.5318000000119,86,,,,339.1121000000238,339.6033999999762,338.6031999999881,339.1121000000238,336.5325,338.6031000000238,339.60350000000005,340.0933999999762,340.09349999999995,341.4258999999762,902,341.4258999999762,2,341.42619999998806,1,7,37,21,1,1,0.3,Time
,,S15,787955,001,男,21,2025-06-04_20h54.11.234,Serial_Dependence_U,2023.2.3,Win32,60.60606060606061,,,,,,341.4263999999762,264,1,341.42650000000003,264,,,,345.6081999999881,346.1001000000239,345.1025000000001,345.6081000000239,342.4241999999881,345.1023999999762,346.10019999998815,346.5926000000238,346.5926000000238,347.663300000012,755,347.663300000012,1,347.66339999997615,1,8,38,14,1,1.6,0.3,Time
,,S15,787955,001,男,21,2025-06-04_20h54.11.234,Serial_Dependence_U,2023.2.3,Win32,60.60606060606061,,,,,,347.6636999999881,134,1,347.663800000012,134,,,,351.61519999998814,352.10689999997624,351.1065,351.61510000002386,348.66410000002384,351.10639999997613,352.1070000000001,352.5993999999762,352.59950000000003,353.8960000000001,1013,353.8961000000239,2,353.89630000001193,1,9,39,18,1,1.4,0.7,Time
,,S15,787955,001,男,21,2025-06-04_20h54.11.234,Serial_Dependence_U,2023.2.3,Win32,60.60606060606061,,,,,,353.8963999999762,103,1,353.8963999999762,103,,,,357.6406000000238,358.1301999999881,357.1306999999881,357.6406000000238,354.8978999999762,357.1306999999881,358.1301999999881,358.6236000000239,358.6236000000239,360.0345,1005,360.0345,2,360.03480000001196,1,10,40,17,1,1.2,0.7,Time
,,S15,787955,001,男,21,2025-06-04_20h54.11.234,Serial_Dependence_U,2023.2.3,Win32,60.60606060606061,,,,,,360.0351999999881,342,1,360.03530000001194,342,,,,363.57950000000005,364.0715,363.07639999997616,363.5793999999762,361.0385,363.07639999997616,364.0715,364.56430000001194,364.5643999999762,365.8636000000239,986,365.8636000000239,3,365.8638000000119,1,11,41,6,1,1,0.7,Time
,,S15,787955,001,男,21,2025-06-04_20h54.11.234,Serial_Dependence_U,2023.2.3,Win32,60.60606060606061,,,,,,365.8638999999762,249,1,365.86400000000003,249,,,,369.2086999999881,369.7008000000119,368.7031000000238,369.2086999999881,366.8621999999881,368.703,369.7008000000119,370.19330000001196,370.19330000001196,371.4311000000239,975,371.4311000000239,4,371.4313999999762,1,12,42,25,1,0.8,0.7,Time
,,S15,787955,001,男,21,2025-06-04_20h54.11.234,Serial_Dependence_U,2023.2.3,Win32,60.60606060606061,,,,,,371.4315,156,1,371.43169999998815,156,,,,374.78889999997614,375.28080000001194,374.28289999997617,374.78889999997614,372.4448999999762,374.282800000012,375.2808999999762,375.773300000012,375.77339999997616,377.0373000000119,892,377.0373999999762,4,377.03769999998815,1,13,43,5,1,0.8,0.7,Time
,,S15,787955,001,男,21,2025-06-04_20h54.11.234,Serial_Dependence_U,2023.2.3,Win32,60.60606060606061,,,,,,377.03789999997616,342,1,377.038,342,,,,380.615300000012,381.1071000000238,380.10869999998806,380.61510000002386,378.0396000000238,380.10869999998806,381.1071999999881,381.5996000000239,381.59969999998816,382.716,839,382.71610000002386,2,382.71639999997615,1,14,44,11,1,1,0.3,Time
,,S15,787955,001,男,21,2025-06-04_20h54.11.234,Serial_Dependence_U,2023.2.3,Win32,60.60606060606061,,,,,,382.71660000002385,249,1,382.71660000002385,249,,,,386.09689999997624,386.5893999999762,385.58780000001195,386.09680000001197,383.71739999997624,385.58780000001195,386.5893999999762,387.081300000012,387.08139999997616,388.03310000002386,608,388.03310000002386,2,388.033300000012,1,15,45,10,1,0.8,0.3,Time
,,S15,787955,001,男,21,2025-06-04_20h54.11.234,Serial_Dependence_U,2023.2.3,Win32,60.60606060606061,,,,,,388.03369999998813,131,1,388.033800000012,131,,,,392.00530000001197,392.49700000000007,391.4965000000001,392.0051999999881,389.0346999999881,391.49639999997623,392.4971999999881,392.98960000002387,392.98969999998815,394.58160000002385,1188,394.58169999998813,2,394.5821999999881,1,16,46,13,1,1.4,0.3,Time
,,S15,787955,001,男,21,2025-06-04_20h54.11.234,Serial_Dependence_U,2023.2.3,Win32,60.60606060606061,,,,,,394.5825,85,1,394.5825,85,,,,398.7338000000119,399.2271999999881,398.22569999998814,398.7338000000119,395.58289999997623,398.22569999998814,399.2271999999881,399.71850000000006,399.71850000000006,401.21230000001196,1168,401.21239999997624,2,401.2126000000238,1,17,47,29,1,1.6,0.7,Time
,,S15,787955,001,男,21,2025-06-04_20h54.11.234,Serial_Dependence_U,2023.2.3,Win32,60.60606060606061,,,,,,401.21280000001195,292,1,401.21289999997623,292,,,,404.76,405.2518999999762,404.251,404.76,402.2165,404.251,405.2518999999762,405.7441000000239,405.7441000000239,407.28769999998815,1264,407.28769999998815,4,407.287800000012,1,18,48,16,1,1,0.7,Time
,,S15,787955,001,男,21,2025-06-04_20h54.11.234,Serial_Dependence_U,2023.2.3,Win32,60.60606060606061,,,,,,407.288,207,1,407.288,207,,,,410.6356000000238,411.1268999999762,410.1268999999762,410.6355,408.28839999997615,410.1268999999762,411.1268999999762,411.61960000002387,411.61960000002387,412.9498000000119,1067,412.9498999999762,5,412.9498999999762,1,19,49,15,1,0.8,0.7,Time
,,S15,787955,001,男,21,2025-06-04_20h54.11.234,Serial_Dependence_U,2023.2.3,Win32,60.60606060606061,,,,,,412.95019999998806,151,1,412.9503000000119,151,,,,417.135,417.626,416.6261000000238,417.13489999997614,413.95160000002386,416.6261000000238,417.6261000000238,418.11850000000004,418.1186000000239,419.1698999999762,771,419.1700000000001,1,419.1701000000239,1,20,50,4,1,1.6,0.3,Time
,,S15,787955,001,男,21,2025-06-04_20h54.11.234,Serial_Dependence_U,2023.2.3,Win32,60.60606060606061,,,,,,419.1701999999881,112,1,419.1701999999881,112,,,,422.7476000000239,423.24019999998814,422.2393999999762,422.7476000000239,420.1708999999762,422.2393999999762,423.24019999998814,423.73139999997613,423.7315,425.062,1000,425.062,3,425.06219999998814,1,21,51,1,1,1,0.3,Time
,,S15,787955,001,男,21,2025-06-04_20h54.11.234,Serial_Dependence_U,2023.2.3,Win32,60.60606060606061,,,,,,425.062300000012,102,1,425.06239999997615,102,,,,428.836800000012,429.32780000001196,428.32760000002384,428.83660000002385,426.063,428.32760000002384,429.32780000001196,429.8203000000119,429.8203000000119,430.9701000000239,869,430.97019999998815,2,430.970300000012,1,22,52,2,1,1.2,0.3,Time
,,S15,787955,001,男,21,2025-06-04_20h54.11.234,Serial_Dependence_U,2023.2.3,Win32,60.60606060606061,,,,,,430.9705,98,1,430.9705,98,,,,435.1226000000239,435.6138999999762,434.61350000000004,435.12250000000006,431.971,434.61350000000004,435.61400000000003,436.105800000012,436.105800000012,437.5841000000239,1182,437.5841000000239,2,437.5843000000119,1,23,53,19,1,1.6,0.7,Time
,,S15,787955,001,男,21,2025-06-04_20h54.11.234,Serial_Dependence_U,2023.2.3,Win32,60.60606060606061,,,,,,437.58450000000005,156,1,437.58450000000005,156,,,,440.9648999999762,441.45639999997616,440.45780000001196,440.9648999999762,438.58519999998816,440.4576999999881,441.45639999997616,441.94880000001194,441.94880000001194,443.1313999999762,870,443.1313999999762,4,443.1316000000239,1,24,54,20,1,0.8,0.3,Time
,,S15,787955,001,男,21,2025-06-04_20h54.11.234,Serial_Dependence_U,2023.2.3,Win32,60.60606060606061,,,,,,443.13180000001194,247,1,443.1318999999762,247,,,,446.8733000000119,447.36469999998815,446.36489999997616,446.87319999998806,444.13269999998806,446.364800000012,447.36469999998815,447.8571999999881,447.85730000001195,449.46660000002385,1248,449.46660000002385,3,449.466800000012,1,25,55,7,1,1.2,0.7,Time
,,S15,787955,001,男,21,2025-06-04_20h54.11.234,Serial_Dependence_U,2023.2.3,Win32,60.60606060606061,,,,,,449.467,179,1,449.46710000002383,179,,,,453.4221000000239,453.91319999998814,452.912800000012,453.4221000000239,450.4676999999881,452.912800000012,453.913300000012,454.4053999999762,454.4053999999762,455.965800000012,1215,455.965800000012,2,455.966,1,26,56,8,1,1.4,0.7,Time
,,S15,787955,001,男,21,2025-06-04_20h54.11.234,Serial_Dependence_U,2023.2.3,Win32,60.60606060606061,,,,,,455.96610000002386,141,1,455.96610000002386,141,,,,460.1183999999762,460.6093999999762,459.6091000000239,460.1183999999762,456.9671999999881,459.60900000000004,460.6093999999762,461.10160000002384,461.10160000002384,462.8588999999762,1376,462.8588999999762,2,462.8591000000239,1,27,57,9,1,1.6,0.7,Time
,,S15,787955,001,男,21,2025-06-04_20h54.11.234,Serial_Dependence_U,2023.2.3,Win32,60.60606060606061,,,,,,462.85919999998816,69,1,462.8593000000119,69,,,,466.40369999998813,466.89530000001196,465.89489999997613,466.40360000002386,463.8620000000001,465.89480000001197,466.89530000001196,467.3873000000119,467.3873000000119,468.81660000002387,1132,468.81660000002387,4,468.816800000012,1,28,58,26,1,1,0.7,Time
,,S15,787955,001,男,21,2025-06-04_20h54.11.234,Serial_Dependence_U,2023.2.3,Win32,60.60606060606061,,,,,,468.817,216,1,468.817,216,,,,472.78789999997616,473.2795,472.28080000001194,472.78789999997616,469.817300000012,472.28080000001194,473.2795,473.7718000000119,473.7718999999762,475.1383999999762,1037,475.1385,2,475.1385,1,29,59,3,1,1.4,0.3,Time
,,S15,787955,001,男,21,2025-06-04_20h54.11.234,Serial_Dependence_U,2023.2.3,Win32,60.60606060606061,,,,,,475.138800000012,338,2,506.0546999999881,338,s,30.903600000023857,,509.4011999999881,509.8926000000239,508.8918000000119,509.4011000000239,507.05360000002383,508.8918000000119,509.89269999998805,510.38469999998813,510.384800000012,511.8486000000239,1018,511.8486000000239,4,511.8488000000119,2,0,60,15,1,0.8,0.7,Time
,,S15,787955,001,男,21,2025-06-04_20h54.11.234,Serial_Dependence_U,2023.2.3,Win32,60.60606060606061,,,,,,511.84900000000005,139,2,511.8498000000119,139,,,,515.423800000012,515.9156999999881,514.9175,515.4236999999881,512.8471999999881,514.9175,515.9158000000119,516.4083999999762,516.4083999999762,518.6271000000239,867,518.6271000000239,2,518.6273000000119,2,1,61,1,1,1,0.3,Time
,,S15,787955,001,男,21,2025-06-04_20h54.11.234,Serial_Dependence_U,2023.2.3,Win32,60.60606060606061,,,,,,518.6275,332,2,518.6276000000239,332,,,,522.3986999999881,522.8908999999762,521.8928000000119,522.3986999999881,519.6278000000119,521.8928000000119,522.8910000000001,523.3831000000239,523.3831999999882,524.7985,962,524.7985,2,524.7986999999881,2,2,62,2,1,1.2,0.3,Time
,,S15,787955,001,男,21,2025-06-04_20h54.11.234,Serial_Dependence_U,2023.2.3,Win32,60.60606060606061,,,,,,524.799,117,2,524.799,117,,,,528.1766999999882,528.668,527.6695000000001,528.1766000000239,525.7958000000119,527.6695000000001,528.6681000000239,529.160300000012,529.1603999999762,530.3453999999762,860,530.3455,4,530.3456000000239,2,3,63,20,1,0.8,0.3,Time
,,S15,787955,001,男,21,2025-06-04_20h54.11.234,Serial_Dependence_U,2023.2.3,Win32,60.60606060606061,,,,,,530.3461000000239,201,2,530.3461999999881,201,,,,534.1036999999881,534.5925000000001,533.5948000000119,534.1036000000239,531.3463999999761,533.5946999999882,534.5925000000001,535.0846999999881,535.0848000000119,536.3518999999762,969,536.3518999999762,2,536.3521000000238,2,4,64,7,1,1.2,0.7,Time
,,S15,787955,001,男,21,2025-06-04_20h54.11.234,Serial_Dependence_U,2023.2.3,Win32,60.60606060606061,,,,,,536.3521999999881,344,2,536.352300000012,344,,,,540.5345,541.0261000000239,540.0285,540.5343999999762,537.3533999999762,540.0285,541.0261000000239,541.5185,541.5185,542.9355,1026,542.9355,1,542.9356999999881,2,5,65,24,1,1.6,0.3,Time
,,S15,787955,001,男,21,2025-06-04_20h54.11.234,Serial_Dependence_U,2023.2.3,Win32,60.60606060606061,,,,,,542.9358000000119,13,2,542.9358999999762,13,,,,547.0986999999881,547.591,546.590300000012,547.0986999999881,543.9485000000001,546.590300000012,547.591,548.083300000012,548.0833999999762,549.5275,1108,549.5275,1,549.5276999999882,2,6,66,19,1,1.6,0.7,Time
,,S15,787955,001,男,21,2025-06-04_20h54.11.234,Serial_Dependence_U,2023.2.3,Win32,60.60606060606061,,,,,,549.5278999999762,126,2,549.528,126,,,,552.9091000000238,553.4013999999762,552.4005000000001,552.909,550.5296999999881,552.4003999999762,553.4013999999762,553.8931999999882,553.893300000012,555.2728999999762,970,555.2728999999762,4,555.2731000000239,2,7,67,0,1,0.8,0.3,Time
,,S15,787955,001,男,21,2025-06-04_20h54.11.234,Serial_Dependence_U,2023.2.3,Win32,60.60606060606061,,,,,,555.273300000012,17,2,555.2733999999762,17,,,,559.457300000012,559.95,558.9486000000238,559.4571999999881,556.273300000012,558.9485000000001,559.95,560.4416999999881,560.4416999999881,561.7710000000001,996,561.7710000000001,1,561.7711999999881,2,8,68,4,1,1.6,0.3,Time
,,S15,787955,001,男,21,2025-06-04_20h54.11.234,Serial_Dependence_U,2023.2.3,Win32,60.60606060606061,,,,,,561.7713999999762,255,2,561.7715000000001,255,,,,565.7266000000238,566.2186000000239,565.2178999999762,565.7266000000238,562.7721999999881,565.217800000012,566.2186000000239,566.7111999999881,566.711300000012,568.4181000000239,1339,568.4181000000239,3,568.4185,2,9,69,18,1,1.4,0.7,Time
,,S15,787955,001,男,21,2025-06-04_20h54.11.234,Serial_Dependence_U,2023.2.3,Win32,60.60606060606061,,,,,,568.419,185,2,568.4191000000238,185,,,,571.7668000000119,572.2581000000239,571.2576000000239,571.7666999999881,569.4231000000239,571.2575,572.2581000000239,572.7508999999762,572.751,574.0308000000119,1002,574.0308000000119,4,574.0310000000001,2,10,70,25,1,0.8,0.7,Time
,,S15,787955,001,男,21,2025-06-04_20h54.11.234,Serial_Dependence_U,2023.2.3,Win32,60.60606060606061,,,,,,574.0311999999881,294,2,574.0313000000119,294,,,,577.7728000000119,578.264800000012,577.2646000000238,577.7726999999882,575.0323000000119,577.2645,578.264800000012,578.7573000000119,578.7573000000119,580.12,1066,580.12,2,580.120300000012,2,11,71,27,1,1.2,0.7,Time
,,S15,787955,001,男,21,2025-06-04_20h54.11.234,Serial_Dependence_U,2023.2.3,Win32,60.60606060606061,,,,,,580.1203999999761,180,2,580.1206000000238,180,,,,584.0916000000238,584.5838000000119,583.5830000000001,584.0915,581.120800000012,583.5830000000001,584.5838000000119,585.0758999999762,585.0758999999762,586.1921000000239,820,586.1921000000239,1,586.192300000012,2,12,72,23,1,1.4,0.3,Time
,,S15,787955,001,男,21,2025-06-04_20h54.11.234,Serial_Dependence_U,2023.2.3,Win32,60.60606060606061,,,,,,586.1925,280,2,586.1926000000238,280,,,,589.967300000012,590.4598000000119,589.4583999999762,589.9671999999881,587.1935000000001,589.458300000012,590.4598000000119,590.951800000012,590.951800000012,592.2656000000238,1015,592.2656000000238,2,592.2658999999762,2,13,73,12,1,1.2,0.3,Time
,,S15,787955,001,男,21,2025-06-04_20h54.11.234,Serial_Dependence_U,2023.2.3,Win32,60.60606060606061,,,,,,592.2661999999881,28,2,592.2663000000119,28,,,,596.220300000012,596.7126999999881,595.712,596.2201999999882,593.2665000000001,595.712,596.712800000012,597.2045,597.2045,599.092300000012,1581,599.0923999999762,4,599.0926999999881,2,14,74,28,1,1.4,0.7,Time
,,S15,787955,001,男,21,2025-06-04_20h54.11.234,Serial_Dependence_U,2023.2.3,Win32,60.60606060606061,,,,,,599.0930000000001,193,2,599.0931999999881,193,,,,602.4411999999882,602.9328999999761,601.9321000000239,602.4411000000239,600.0938000000119,601.9321000000239,602.9328999999761,603.4246999999881,603.4246999999881,604.7868999999762,1068,604.7868999999762,5,604.7871000000239,2,15,75,5,1,0.8,0.7,Time
,,S15,787955,001,男,21,2025-06-04_20h54.11.234,Serial_Dependence_U,2023.2.3,Win32,60.60606060606061,,,,,,604.7873000000119,89,2,604.7873999999762,89,,,,608.332300000012,608.8246000000239,607.8243999999762,608.332300000012,605.7883999999761,607.8241999999881,608.8246000000239,609.3165,609.3166000000239,610.679300000012,1115,610.679300000012,4,610.6795000000001,2,16,76,26,1,1,0.7,Time
,,S15,787955,001,男,21,2025-06-04_20h54.11.234,Serial_Dependence_U,2023.2.3,Win32,60.60606060606061,,,,,,610.6796999999881,28,2,610.6798000000119,28,,,,614.456800000012,614.946,613.948300000012,614.456800000012,611.6801000000239,613.9481999999881,614.9461000000239,615.4386000000238,615.4386000000238,616.6078000000119,886,616.6078000000119,2,616.6078999999762,2,17,77,22,1,1.2,0.3,Time
,,S15,787955,001,男,21,2025-06-04_20h54.11.234,Serial_Dependence_U,2023.2.3,Win32,60.60606060606061,,,,,,616.6081000000239,96,2,616.6081999999881,96,,,,619.9958999999762,620.4938000000119,619.476800000012,619.995800000012,617.6076000000239,619.4766999999881,620.4938000000119,620.9856000000239,620.9856000000239,622.0066000000239,671,622.0066000000239,2,622.0068000000119,2,18,78,10,1,0.8,0.3,Time
,,S15,787955,001,男,21,2025-06-04_20h54.11.234,Serial_Dependence_U,2023.2.3,Win32,60.60606060606061,,,,,,622.0071000000239,80,2,622.0071000000239,80,,,,625.5821000000238,626.073300000012,625.0756999999882,625.5821000000238,623.0046999999881,625.0756000000239,626.073300000012,626.5656000000239,626.5656000000239,627.8826000000239,1009,627.8826000000239,3,627.8828000000119,2,19,79,21,1,1,0.3,Time
,,S15,787955,001,男,21,2025-06-04_20h54.11.234,Serial_Dependence_U,2023.2.3,Win32,60.60606060606061,,,,,,627.883,145,2,627.8831000000239,145,,,,631.8536999999881,632.3433999999762,631.3448000000119,631.8536000000239,628.8801999999881,631.3446999999882,632.3433999999762,632.8351999999882,632.8351999999882,634.3015,1117,634.3015,2,634.3016999999882,2,20,80,3,1,1.4,0.3,Time
,,S15,787955,001,男,21,2025-06-04_20h54.11.234,Serial_Dependence_U,2023.2.3,Win32,60.60606060606061,,,,,,634.3018999999762,327,2,634.302,327,,,,638.4978000000119,638.9895,637.9888000000119,638.4976000000239,635.3148999999762,637.9886999999881,638.9895,639.4818999999762,639.4818999999762,640.9983000000119,1194,640.9983000000119,2,640.9986000000239,2,21,81,14,1,1.6,0.3,Time
,,S15,787955,001,男,21,2025-06-04_20h54.11.234,Serial_Dependence_U,2023.2.3,Win32,60.60606060606061,,,,,,640.9986999999882,110,2,640.9988000000119,110,,,,644.559300000012,645.061800000012,644.0481000000239,644.559300000012,642.0103999999762,644.048,645.0618999999762,645.5546000000239,645.5546999999881,646.9993999999762,1106,646.9996000000239,4,646.9998999999762,2,22,82,16,1,1,0.7,Time
,,S15,787955,001,男,21,2025-06-04_20h54.11.234,Serial_Dependence_U,2023.2.3,Win32,60.60606060606061,,,,,,647.0001999999881,242,2,647.000300000012,242,,,,650.7606000000238,651.249300000012,650.2521000000239,650.7606000000238,648.003,650.2520000000001,651.249300000012,651.741800000012,651.741800000012,653.1563999999762,1144,653.1563999999762,3,653.1566999999881,2,23,83,17,1,1.2,0.7,Time
,,S15,787955,001,男,21,2025-06-04_20h54.11.234,Serial_Dependence_U,2023.2.3,Win32,60.60606060606061,,,,,,653.1568999999762,88,2,653.1571000000239,88,,,,657.1285,657.6171999999881,656.6165000000001,657.1283999999762,654.1555000000001,656.6165000000001,657.6171999999881,658.109800000012,658.1098999999762,659.4783000000119,1094,659.4783000000119,2,659.4783999999762,2,24,84,13,1,1.4,0.3,Time
,,S15,787955,001,男,21,2025-06-04_20h54.11.234,Serial_Dependence_U,2023.2.3,Win32,60.60606060606061,,,,,,659.4786000000239,23,2,659.4786999999881,23,,,,663.428300000012,663.9193999999762,662.9215,663.428300000012,660.4905,662.9215,663.9193999999762,664.412,664.4121000000239,666.1191999999882,1402,666.1191999999882,3,666.1196000000239,2,25,85,8,1,1.4,0.7,Time
,,S15,787955,001,男,21,2025-06-04_20h54.11.234,Serial_Dependence_U,2023.2.3,Win32,60.60606060606061,,,,,,666.1198999999762,246,2,666.12,246,,,,669.6668000000119,670.1561000000239,669.1583999999762,669.666699999988,667.1201999999881,669.1583999999762,670.1561999999881,670.6486000000239,670.6486000000239,672.1771999999881,1312,672.1771999999881,5,672.1773999999762,2,26,86,6,1,1,0.7,Time
,,S15,787955,001,男,21,2025-06-04_20h54.11.234,Serial_Dependence_U,2023.2.3,Win32,60.60606060606061,,,,,,672.1776000000239,2,2,672.1776999999881,2,,,,675.756300000012,676.2448999999762,675.2468999999762,675.7561999999881,673.1765,675.246800000012,676.2448999999762,676.7373000000119,676.7373000000119,678.0863999999762,1065,678.0863999999762,4,678.0866000000239,2,27,87,11,1,1,0.3,Time
,,S15,787955,001,男,21,2025-06-04_20h54.11.234,Serial_Dependence_U,2023.2.3,Win32,60.60606060606061,,,,,,678.0866999999881,102,2,678.0868999999761,102,,,,682.235300000012,682.7276999999881,681.7271000000238,682.2351999999881,679.085800000012,681.7271000000238,682.7276999999881,683.2201000000239,683.2201999999882,685.0111000000238,1483,685.0111999999881,2,685.0113000000119,2,28,88,9,1,1.6,0.7,Time
,,S15,787955,001,男,21,2025-06-04_20h54.11.234,Serial_Dependence_U,2023.2.3,Win32,60.60606060606061,,,,,,685.0115000000001,125,2,685.0116000000239,125,,,,689.1451000000238,689.6371999999881,688.6415000000001,689.145,686.0105,688.6415000000001,689.6371999999881,690.1295,690.1295,691.9216999999882,1396,691.9218000000119,2,691.9218999999762,2,29,89,29,1,1.6,0.7,Time
,,S15,787955,001,男,21,2025-06-04_20h54.11.234,Serial_Dependence_U,2023.2.3,Win32,60.60606060606061,,,,,,691.922,309,3,714.9781999999881,309,s,23.026800000011917,,718.753800000012,719.244300000012,718.2465000000001,718.753800000012,715.9816000000238,718.2463999999762,719.244300000012,719.7368999999762,719.7368999999762,721.0341000000238,968,721.0341000000238,2,721.0343999999762,3,0,90,12,1,1.2,0.3,Time
,,S15,787955,001,男,21,2025-06-04_20h54.11.234,Serial_Dependence_U,2023.2.3,Win32,60.60606060606061,,,,,,721.0345,335,3,721.0353999999762,335,,,,725.1721999999882,725.662,724.6656999999881,725.1721000000239,722.0351000000238,724.6655000000001,725.662,726.1543999999761,726.1545,727.7006000000239,1215,727.7006999999882,2,727.7008000000119,3,1,91,29,1,1.6,0.7,Time
,,S15,787955,001,男,21,2025-06-04_20h54.11.234,Serial_Dependence_U,2023.2.3,Win32,60.60606060606061,,,,,,727.7011000000239,286,3,727.7011999999881,286,,,,731.4886000000239,731.980300000012,730.9788999999762,731.4885,728.7145,730.9788999999762,731.9803999999762,732.4725000000001,732.4726000000238,733.7556000000238,968,733.7556999999881,2,733.755800000012,3,2,92,2,1,1.2,0.3,Time
,,S15,787955,001,男,21,2025-06-04_20h54.11.234,Serial_Dependence_U,2023.2.3,Win32,60.60606060606061,,,,,,733.7560000000001,203,3,733.7560000000001,203,,,,737.1036999999881,737.5931000000239,736.5923999999762,737.1036999999881,734.7573000000119,736.5923999999762,737.5931000000239,738.085800000012,738.0858999999762,739.4511000000239,1026,739.4511000000239,4,739.4513999999762,3,3,93,15,1,0.8,0.7,Time
,,S15,787955,001,男,21,2025-06-04_20h54.11.234,Serial_Dependence_U,2023.2.3,Win32,60.60606060606061,,,,,,739.4515,262,3,739.4516999999881,262,,,,743.193,743.6838999999762,742.6845000000001,743.193,740.4508999999762,742.6843999999762,743.6838999999762,744.178800000012,744.1788999999762,745.7860000000001,1182,745.7861000000239,3,745.7863000000119,3,4,94,17,1,1.2,0.7,Time
,,S15,787955,001,男,21,2025-06-04_20h54.11.234,Serial_Dependence_U,2023.2.3,Win32,60.60606060606061,,,,,,745.7863999999762,3,3,745.7865,3,,,,749.7573999999762,750.249,749.2488000000119,749.7573000000119,746.7871999999882,749.2486999999882,750.249,750.7416999999881,750.7416999999881,752.1708000000119,1084,752.1708999999762,2,752.1711000000239,3,5,95,23,1,1.4,0.3,Time
,,S15,787955,001,男,21,2025-06-04_20h54.11.234,Serial_Dependence_U,2023.2.3,Win32,60.60606060606061,,,,,,752.1711999999881,316,3,752.1711999999881,316,,,,756.1226000000239,756.6156000000238,755.6141000000239,756.1225000000001,753.171,755.6138999999762,756.6156000000238,757.1093999999762,757.1093999999762,758.8141999999881,1398,758.8143000000119,3,758.8146999999881,3,6,96,18,1,1.4,0.7,Time
,,S15,787955,001,男,21,2025-06-04_20h54.11.234,Serial_Dependence_U,2023.2.3,Win32,60.60606060606061,,,,,,758.815,41,3,758.8151999999881,41,,,,762.5563999999762,763.0483999999761,762.0503999999762,762.5563000000119,759.8151000000239,762.0503999999762,763.0483999999761,763.5408000000119,763.5408000000119,765.1363000000119,1304,765.1363000000119,4,765.1365000000001,3,7,97,7,1,1.2,0.7,Time
,,S15,787955,001,男,21,2025-06-04_20h54.11.234,Serial_Dependence_U,2023.2.3,Win32,60.60606060606061,,,,,,765.1366000000239,82,3,765.1366999999881,82,,,,768.6778999999761,769.169800000012,768.1713999999762,768.677800000012,766.134300000012,768.1713000000119,769.169800000012,769.6626000000239,769.6626000000239,770.9096000000238,1011,770.9096000000238,3,770.909800000012,3,8,98,16,1,1,0.7,Time
,,S15,787955,001,男,21,2025-06-04_20h54.11.234,Serial_Dependence_U,2023.2.3,Win32,60.60606060606061,,,,,,770.9100000000001,317,3,770.9101000000238,317,,,,774.849,775.340800000012,774.3455,774.849,771.9118000000119,774.3453999999762,775.3408999999762,775.833300000012,775.833300000012,777.3593999999762,1247,777.3593999999762,2,777.3596000000239,3,9,99,8,1,1.4,0.7,Time
,,S15,787955,001,男,21,2025-06-04_20h54.11.234,Serial_Dependence_U,2023.2.3,Win32,60.60606060606061,,,,,,777.359800000012,112,3,777.36,112,,,,780.9416999999881,781.4295000000001,780.4290000000001,780.9416000000239,778.3606999999881,780.4288999999762,781.4295000000001,781.922,781.922,783.1246999999881,892,783.124800000012,2,783.1248999999762,3,10,100,1,1,1,0.3,Time
,,S15,787955,001,男,21,2025-06-04_20h54.11.234,Serial_Dependence_U,2023.2.3,Win32,60.60606060606061,,,,,,783.1251000000238,353,3,783.1251000000238,353,,,,787.0935000000001,787.5843000000119,786.583300000012,787.0935000000001,784.1445,786.5831999999881,787.5843000000119,788.0771000000238,788.0771999999881,789.7541999999881,1395,789.7541999999881,3,789.754300000012,3,11,101,28,1,1.4,0.7,Time
,,S15,787955,001,男,21,2025-06-04_20h54.11.234,Serial_Dependence_U,2023.2.3,Win32,60.60606060606061,,,,,,789.7546000000239,298,3,789.7546000000239,298,,,,793.3291000000239,793.8206999999882,792.8231000000238,793.3290000000001,790.7523000000119,792.823,793.8208000000119,794.3143000000119,794.3143999999762,795.6953000000119,944,795.6953999999762,2,795.6955,3,12,102,11,1,1,0.3,Time
,,S15,787955,001,男,21,2025-06-04_20h54.11.234,Serial_Dependence_U,2023.2.3,Win32,60.60606060606061,,,,,,795.6956999999882,159,3,795.6958999999762,159,,,,799.861300000012,800.3526999999881,799.3546000000239,799.8611999999881,796.693,799.3545,800.3528000000119,800.845300000012,800.8453999999762,802.3568999999762,1177,802.3568999999762,2,802.3571000000238,3,13,103,4,1,1.6,0.3,Time
,,S15,787955,001,男,21,2025-06-04_20h54.11.234,Serial_Dependence_U,2023.2.3,Win32,60.60606060606061,,,,,,802.357300000012,122,3,802.3573999999762,122,,,,805.9333999999762,806.4251999999881,805.427300000012,805.933300000012,803.3585,805.427300000012,806.4251999999881,806.9173999999762,806.9173999999762,808.2178999999762,921,808.2180000000001,2,808.2180000000001,3,14,104,21,1,1,0.3,Time
,,S15,787955,001,男,21,2025-06-04_20h54.11.234,Serial_Dependence_U,2023.2.3,Win32,60.60606060606061,,,,,,808.2183000000119,84,3,808.2183999999762,84,,,,812.3665000000001,812.8593999999762,811.8631999999881,812.3663999999762,809.217300000012,811.8631999999881,812.8593999999762,813.3508999999761,813.351,815.1631000000239,1528,815.1631000000239,3,815.163300000012,3,15,105,9,1,1.6,0.7,Time
,,S15,787955,001,男,21,2025-06-04_20h54.11.234,Serial_Dependence_U,2023.2.3,Win32,60.60606060606061,,,,,,815.1635,44,3,815.1636000000238,44,,,,819.3651999999881,819.8666999999881,818.8546999999882,819.3651999999881,816.1745000000001,818.8546999999882,819.8666999999881,820.3591000000239,820.3591999999882,821.8068999999762,1103,821.807,1,821.8071000000239,3,16,106,14,1,1.6,0.3,Time
,,S15,787955,001,男,21,2025-06-04_20h54.11.234,Serial_Dependence_U,2023.2.3,Win32,60.60606060606061,,,,,,821.807300000012,314,3,821.8073999999762,314,,,,825.7756999999881,826.268300000012,825.2693999999761,825.7756999999881,822.8081999999881,825.2693999999761,826.268300000012,826.759800000012,826.759800000012,828.0111999999881,900,828.0113000000119,1,828.0113999999762,3,17,107,13,1,1.4,0.3,Time
,,S15,787955,001,男,21,2025-06-04_20h54.11.234,Serial_Dependence_U,2023.2.3,Win32,60.60606060606061,,,,,,828.0116999999881,310,3,828.0116999999881,310,,,,831.5525,832.0441999999881,831.0441000000238,831.5525,829.0118999999762,831.044,832.044300000012,832.5371999999882,832.5371999999882,833.8530000000001,1094,833.8530000000001,4,833.8531999999881,3,18,108,6,1,1,0.7,Time
,,S15,787955,001,男,21,2025-06-04_20h54.11.234,Serial_Dependence_U,2023.2.3,Win32,60.60606060606061,,,,,,833.8533000000119,168,3,833.8535,168,,,,838.0381000000239,838.527,837.529300000012,838.038,834.8516999999881,837.529300000012,838.5271000000239,839.0193999999761,839.0193999999761,840.480300000012,1190,840.480300000012,2,840.4806000000239,3,19,109,24,1,1.6,0.3,Time
,,S15,787955,001,男,21,2025-06-04_20h54.11.234,Serial_Dependence_U,2023.2.3,Win32,60.60606060606061,,,,,,840.480800000012,329,3,840.480800000012,329,,,,844.0281999999881,844.5175,843.5168999999762,844.0281000000239,841.482300000012,843.5168999999762,844.5175,845.009800000012,845.0098999999761,846.259300000012,1014,846.259300000012,3,846.2595,3,20,110,26,1,1,0.7,Time
,,S15,787955,001,男,21,2025-06-04_20h54.11.234,Serial_Dependence_U,2023.2.3,Win32,60.60606060606061,,,,,,846.2596999999881,193,3,846.259800000012,193,,,,849.639800000012,850.1301999999881,849.129800000012,849.6396999999881,847.2593999999762,849.1296999999881,850.130300000012,850.6228999999762,850.6228999999762,851.6078000000119,635,851.6078999999762,2,851.6081999999881,3,21,111,10,1,0.8,0.3,Time
,,S15,787955,001,男,21,2025-06-04_20h54.11.234,Serial_Dependence_U,2023.2.3,Win32,60.60606060606061,,,,,,851.6083999999762,223,3,851.6085,223,,,,854.9563999999762,855.4480000000001,854.4496999999881,854.9563999999762,852.609,854.4496000000238,855.4480000000001,855.940300000012,855.940300000012,857.2081000000239,912,857.2081999999882,4,857.2083000000121,3,22,112,25,1,0.8,0.7,Time
,,S15,787955,001,男,21,2025-06-04_20h54.11.234,Serial_Dependence_U,2023.2.3,Win32,60.60606060606061,,,,,,857.2086000000238,16,3,857.2086000000238,16,,,,861.3566999999882,861.8493000000119,860.8491999999881,861.356600000024,858.2083000000121,860.8491000000238,861.8493000000119,862.341199999988,862.3413000000119,863.8048000000119,1181,863.8048000000119,2,863.8051000000239,3,23,113,19,1,1.6,0.7,Time
,,S15,787955,001,男,21,2025-06-04_20h54.11.234,Serial_Dependence_U,2023.2.3,Win32,60.60606060606061,,,,,,863.8051999999882,20,3,863.805300000012,20,,,,867.5796000000239,868.0691000000238,867.0681999999881,867.5795,864.8030000000001,867.0681000000238,868.0691000000238,868.561199999988,868.561199999988,869.9105,1073,869.9105,2,869.9106000000238,3,24,114,22,1,1.2,0.3,Time
,,S15,787955,001,男,21,2025-06-04_20h54.11.234,Serial_Dependence_U,2023.2.3,Win32,60.60606060606061,,,,,,869.9108999999762,45,3,869.9108999999762,45,,,,873.255199999988,873.7478000000119,872.746800000012,873.255199999988,870.9085,872.7466999999881,873.7478999999762,874.2398000000119,874.2398000000119,875.4056000000239,866,875.4056999999882,4,875.406,3,25,115,5,1,0.8,0.7,Time
,,S15,787955,001,男,21,2025-06-04_20h54.11.234,Serial_Dependence_U,2023.2.3,Win32,60.60606060606061,,,,,,875.4063000000119,104,3,875.4063000000119,104,,,,879.3771999999881,879.8696999999881,878.8693999999762,879.3771000000238,876.4066999999882,878.8693000000119,879.8696999999881,880.3613000000119,880.3613000000119,882.1506999999881,1535,882.1506999999881,4,882.1508000000119,3,26,116,3,1,1.4,0.3,Time
,,S15,787955,001,男,21,2025-06-04_20h54.11.234,Serial_Dependence_U,2023.2.3,Win32,60.60606060606061,,,,,,882.1511000000239,274,3,882.1511999999882,274,,,,885.532199999988,886.0243000000119,885.0233000000119,885.532199999988,883.152,885.0233000000119,886.0243000000119,886.5158999999762,886.5158999999762,887.7141999999881,804,887.7143000000119,3,887.7146000000239,3,27,117,0,1,0.8,0.3,Time
,,S15,787955,001,男,21,2025-06-04_20h54.11.234,Serial_Dependence_U,2023.2.3,Win32,60.60606060606061,,,,,,887.7148999999763,205,3,887.7149999999999,205,,,,891.456800000012,891.9486999999881,890.9476999999881,891.4566999999881,888.7156000000239,890.9476000000238,891.9486999999881,892.4404999999999,892.4404999999999,893.967100000024,1217,893.967100000024,3,893.9673000000118,3,28,118,27,1,1.2,0.7,Time
,,S15,787955,001,男,21,2025-06-04_20h54.11.234,Serial_Dependence_U,2023.2.3,Win32,60.60606060606061,,,,,,893.9676000000238,83,3,893.9676999999881,83,,,,897.3483999999763,897.8403999999761,896.8398000000121,897.3481999999882,894.9688000000119,896.8398000000121,897.8404999999999,898.332600000024,898.3326999999882,899.448800000012,760,899.448800000012,2,899.4488999999763,3,29,119,20,1,0.8,0.3,Time
,,S15,787955,001,男,21,2025-06-04_20h54.11.234,Serial_Dependence_U,2023.2.3,Win32,60.60606060606061,,,,,,899.4491999999883,241,4,944.5326000000238,241,s,45.07040000003599,,948.274600000024,948.7671000000238,947.766699999988,948.2745000000001,945.534399999976,947.7666000000237,948.7671000000238,949.259100000024,949.259100000024,950.8348999999763,1160,950.8348999999763,3,950.835100000024,4,0,120,27,1,1.2,0.7,Time
,,S15,787955,001,男,21,2025-06-04_20h54.11.234,Serial_Dependence_U,2023.2.3,Win32,60.60606060606061,,,,,,950.8353999999764,110,4,950.836199999988,110,,,,955.0200000000001,955.5126000000238,954.5124999999999,955.0198999999762,951.8365,954.5123999999761,955.5126000000238,956.0045000000001,956.0045000000001,957.4494999999998,1084,957.4496000000237,1,957.4498000000118,4,1,121,14,1,1.6,0.3,Time
,,S15,787955,001,男,21,2025-06-04_20h54.11.234,Serial_Dependence_U,2023.2.3,Win32,60.60606060606061,,,,,,957.4499999999999,82,4,957.4499999999999,82,,,,960.9951000000239,961.4861000000238,960.4851999999879,960.995,958.451100000024,960.4851000000241,961.4861000000238,961.9786000000237,961.9786000000237,963.2946999999882,942,963.2946999999882,2,963.2948000000121,4,2,122,16,1,1,0.7,Time
,,S15,787955,001,男,21,2025-06-04_20h54.11.234,Serial_Dependence_U,2023.2.3,Win32,60.60606060606061,,,,,,963.2950000000002,124,4,963.2951999999883,124,,,,967.4603000000121,967.9531000000239,966.9568000000119,967.4601999999883,964.293399999976,966.956699999988,967.9531000000239,968.444899999976,968.444899999976,969.827199999988,1095,969.827199999988,1,969.8273000000119,4,3,123,24,1,1.6,0.3,Time
,,S15,787955,001,男,21,2025-06-04_20h54.11.234,Serial_Dependence_U,2023.2.3,Win32,60.60606060606061,,,,,,969.8276000000238,248,4,969.8276999999881,248,,,,973.2051999999882,973.6971000000241,972.6961999999882,973.2051000000239,970.8253000000119,972.6961999999882,973.6971000000241,974.1891000000238,974.1891999999881,975.1613000000121,657,975.161399999976,2,975.1614999999998,4,4,124,20,1,0.8,0.3,Time
,,S15,787955,001,男,21,2025-06-04_20h54.11.234,Serial_Dependence_U,2023.2.3,Win32,60.60606060606061,,,,,,975.161699999988,82,4,975.161699999988,82,,,,978.5066000000239,978.997800000012,977.9988999999761,978.5065000000001,976.1590000000002,977.9988000000118,978.997800000012,979.4899999999999,979.4899999999999,980.7703999999763,947,980.7703999999763,4,980.7706999999883,4,5,125,15,1,0.8,0.7,Time
,,S15,787955,001,男,21,2025-06-04_20h54.11.234,Serial_Dependence_U,2023.2.3,Win32,60.60606060606061,,,,,,980.770899999976,153,4,980.7709999999998,153,,,,984.513,985.0046999999882,984.010199999988,984.513,981.7718999999762,984.010199999988,985.0046999999882,985.497,985.497,987.072699999988,1226,987.072699999988,3,987.0731000000238,4,6,126,7,1,1.2,0.7,Time
,,S15,787955,001,男,21,2025-06-04_20h54.11.234,Serial_Dependence_U,2023.2.3,Win32,60.60606060606061,,,,,,987.0733999999762,250,4,987.0736000000239,250,,,,991.028800000012,991.520100000024,990.5163000000122,991.028800000012,988.076899999976,990.5161999999883,991.520100000024,992.013,992.0131000000239,993.4905,1197,993.4905,2,993.490800000012,4,7,127,28,1,1.4,0.7,Time
,,S15,787955,001,男,21,2025-06-04_20h54.11.234,Serial_Dependence_U,2023.2.3,Win32,60.60606060606061,,,,,,993.4910000000001,187,4,993.4910000000001,187,,,,997.034699999988,997.5270000000002,996.5263000000119,997.0346000000237,994.494399999976,996.5263000000119,997.5270000000002,998.0196999999881,998.019800000012,999.449399999976,1160,999.4494999999998,4,999.4496000000237,4,8,128,26,1,1,0.7,Time
,,S15,787955,001,男,21,2025-06-04_20h54.11.234,Serial_Dependence_U,2023.2.3,Win32,60.60606060606061,,,,,,999.449699999988,258,4,999.4498000000118,258,,,,1003.419,1003.9116000000237,1002.9135000000002,1003.419,1000.4490000000002,1002.9135000000002,1003.911699999988,1004.4036000000239,1004.4036000000239,1005.7368999999763,1092,1005.7368999999763,2,1005.7370000000002,4,9,129,13,1,1.4,0.3,Time
,,S15,787955,001,男,21,2025-06-04_20h54.11.234,Serial_Dependence_U,2023.2.3,Win32,60.60606060606061,,,,,,1005.7371999999883,259,4,1005.7373000000122,259,,,,1009.5111999999882,1010.0006999999879,1008.9993000000119,1009.5111000000239,1006.7350000000002,1008.9993000000119,1010.0008000000117,1010.4923999999761,1010.4923999999761,1011.9731000000239,1198,1011.9731999999882,3,1011.9733999999763,4,10,130,22,1,1.2,0.3,Time
,,S15,787955,001,男,21,2025-06-04_20h54.11.234,Serial_Dependence_U,2023.2.3,Win32,60.60606060606061,,,,,,1011.973600000024,50,4,1011.973600000024,50,,,,1015.7448999999762,1016.2370000000002,1015.2361000000238,1015.7448999999762,1012.9713000000121,1015.236,1016.2370000000002,1016.729199999988,1016.729199999988,1018.1288000000119,1093,1018.1288999999762,2,1018.1291000000239,4,11,131,2,1,1.2,0.3,Time
,,S15,787955,001,男,21,2025-06-04_20h54.11.234,Serial_Dependence_U,2023.2.3,Win32,60.60606060606061,,,,,,1018.129300000012,269,4,1018.129300000012,269,,,,1021.5053000000117,1021.9973999999762,1020.9993000000119,1021.5053000000117,1019.1258000000117,1020.999199999988,1021.9973999999762,1022.489899999976,1022.489899999976,1023.6880000000002,882,1023.6880000000002,4,1023.6881000000241,4,12,132,10,1,0.8,0.3,Time
,,S15,787955,001,男,21,2025-06-04_20h54.11.234,Serial_Dependence_U,2023.2.3,Win32,60.60606060606061,,,,,,1023.6883000000117,256,4,1023.688399999976,256,,,,1027.843399999976,1028.3323000000119,1027.331899999976,1027.8433000000118,1024.6918999999762,1027.3318000000118,1028.3323999999761,1028.8246999999878,1028.8248000000117,1030.4041000000238,1275,1030.4041999999881,2,1030.404300000012,4,13,133,19,1,1.6,0.7,Time
,,S15,787955,001,男,21,2025-06-04_20h54.11.234,Serial_Dependence_U,2023.2.3,Win32,60.60606060606061,,,,,,1030.4045,82,4,1030.404600000024,82,,,,1034.372800000012,1034.864600000024,1033.8646999999878,1034.372699999988,1031.4036000000237,1033.8646999999878,1034.864600000024,1035.3568000000118,1035.3568999999761,1036.6701999999882,1023,1036.670300000012,2,1036.6703999999759,4,14,134,3,1,1.4,0.3,Time
,,S15,787955,001,男,21,2025-06-04_20h54.11.234,Serial_Dependence_U,2023.2.3,Win32,60.60606060606061,,,,,,1036.6706000000236,255,4,1036.6706000000236,255,,,,1040.8555000000001,1041.3471000000236,1040.349399999976,1040.8555000000001,1037.672,1040.349399999976,1041.3471999999879,1041.839800000012,1041.8398999999763,1043.468199999988,1260,1043.4683000000118,2,1043.468399999976,4,15,135,4,1,1.6,0.3,Time
,,S15,787955,001,男,21,2025-06-04_20h54.11.234,Serial_Dependence_U,2023.2.3,Win32,60.60606060606061,,,,,,1043.4686000000238,331,4,1043.468699999988,331,,,,1047.6166999999882,1048.109300000012,1047.108399999976,1047.6166999999882,1044.4658000000118,1047.1083000000117,1048.109300000012,1048.601399999976,1048.6014999999998,1050.340899999976,1522,1050.340899999976,3,1050.3411000000237,4,16,136,29,1,1.6,0.7,Time
,,S15,787955,001,男,21,2025-06-04_20h54.11.234,Serial_Dependence_U,2023.2.3,Win32,60.60606060606061,,,,,,1050.341199999988,354,4,1050.3413000000119,354,,,,1053.8869999999997,1054.3786000000237,1053.3776999999882,1053.8868999999759,1051.3423000000116,1053.3776999999882,1054.3786000000237,1054.870800000012,1054.870800000012,1056.2338000000118,1100,1056.233899999976,4,1056.234199999988,4,17,137,6,1,1,0.7,Time
,,S15,787955,001,男,21,2025-06-04_20h54.11.234,Serial_Dependence_U,2023.2.3,Win32,60.60606060606061,,,,,,1056.2345,168,4,1056.2346000000239,168,,,,1059.9753000000119,1060.4671999999878,1059.4665,1059.975199999988,1057.2345,1059.4663999999761,1060.4671999999878,1060.9601999999882,1060.9601999999882,1062.5026999999882,1312,1062.5026999999882,4,1062.5029999999997,4,18,138,17,1,1.2,0.7,Time
,,S15,787955,001,男,21,2025-06-04_20h54.11.234,Serial_Dependence_U,2023.2.3,Win32,60.60606060606061,,,,,,1062.5033000000117,100,4,1062.503399999976,100,,,,1066.458100000024,1066.9499999999998,1065.949300000012,1066.458,1063.503899999976,1065.949300000012,1066.9501000000237,1067.4425,1067.4425,1069.1331000000237,1412,1069.1331000000237,3,1069.133399999976,4,19,139,8,1,1.4,0.7,Time
,,S15,787955,001,男,21,2025-06-04_20h54.11.234,Serial_Dependence_U,2023.2.3,Win32,60.60606060606061,,,,,,1069.133699999988,259,4,1069.133800000012,259,,,,1072.907699999988,1073.3998999999762,1072.3996999999881,1072.9076000000236,1070.134300000012,1072.3996999999881,1073.3998999999762,1073.8925,1073.8925,1075.2878000000119,1130,1075.2878000000119,2,1075.288,4,20,140,12,1,1.2,0.3,Time
,,S15,787955,001,男,21,2025-06-04_20h54.11.234,Serial_Dependence_U,2023.2.3,Win32,60.60606060606061,,,,,,1075.2881999999881,42,4,1075.288300000012,42,,,,1078.865699999988,1079.357600000024,1078.357300000012,1078.8656000000237,1076.288600000024,1078.3571000000238,1079.357600000024,1079.849699999988,1079.849699999988,1080.8676000000237,743,1080.867699999988,2,1080.8678000000118,4,21,141,11,1,1,0.3,Time
,,S15,787955,001,男,21,2025-06-04_20h54.11.234,Serial_Dependence_U,2023.2.3,Win32,60.60606060606061,,,,,,1080.868,143,4,1080.868,143,,,,1084.4456000000237,1084.938,1083.9373999999762,1084.4456000000237,1081.8688999999763,1083.9373000000119,1084.938100000024,1085.4303000000118,1085.4303000000118,1086.5166000000236,833,1086.5166000000236,2,1086.5168000000117,4,22,142,21,1,1,0.3,Time
,,S15,787955,001,男,21,2025-06-04_20h54.11.234,Serial_Dependence_U,2023.2.3,Win32,60.60606060606061,,,,,,1086.5169999999998,118,4,1086.5171000000237,118,,,,1089.8781999999878,1090.369899999976,1089.3755,1089.8781999999878,1087.5148000000117,1089.3753999999763,1090.369899999976,1090.862100000024,1090.8621999999882,1091.9654999999998,845,1091.9654999999998,4,1091.9656000000236,4,23,143,0,1,0.8,0.3,Time
,,S15,787955,001,男,21,2025-06-04_20h54.11.234,Serial_Dependence_U,2023.2.3,Win32,60.60606060606061,,,,,,1091.9658000000118,348,4,1091.966,348,,,,1095.5433000000116,1096.0326000000236,1095.031600000024,1095.5431999999878,1092.9634999999998,1095.0315,1096.032699999988,1096.529899999976,1096.5299999999997,1097.758800000012,931,1097.758800000012,2,1097.759,4,24,144,1,1,1,0.3,Time
,,S15,787955,001,男,21,2025-06-04_20h54.11.234,Serial_Dependence_U,2023.2.3,Win32,60.60606060606061,,,,,,1097.7591999999881,250,4,1097.759300000012,250,,,,1101.1041000000237,1101.5958999999762,1100.598,1101.1039999999998,1098.758399999976,1100.598,1101.596,1102.088399999976,1102.088399999976,1103.2046000000237,877,1103.204699999988,4,1103.205,4,25,145,5,1,0.8,0.7,Time
,,S15,787955,001,男,21,2025-06-04_20h54.11.234,Serial_Dependence_U,2023.2.3,Win32,60.60606060606061,,,,,,1103.205199999988,283,4,1103.2053999999762,283,,,,1107.196300000012,1107.6844999999998,1106.6873000000119,1107.1961000000238,1104.2084999999997,1106.6873000000119,1107.6844999999998,1108.1774999999998,1108.1776000000236,1109.3623999999759,886,1109.3624999999997,1,1109.3626999999879,4,26,146,23,1,1.4,0.3,Time
,,S15,787955,001,男,21,2025-06-04_20h54.11.234,Serial_Dependence_U,2023.2.3,Win32,60.60606060606061,,,,,,1109.362899999976,341,4,1109.3629999999998,341,,,,1112.7073000000119,1113.199100000024,1112.201600000024,1112.707199999988,1110.3626999999879,1112.2015000000001,1113.1991999999882,1113.6918000000119,1113.6918999999762,1115.090399999976,1133,1115.0904999999998,5,1115.0906000000236,4,27,147,25,1,0.8,0.7,Time
,,S15,787955,001,男,21,2025-06-04_20h54.11.234,Serial_Dependence_U,2023.2.3,Win32,60.60606060606061,,,,,,1115.0908000000118,113,4,1115.090899999976,113,,,,1119.239300000012,1119.7311000000236,1118.7329999999997,1119.239300000012,1116.0895,1118.7328999999759,1119.7311000000236,1120.2248000000118,1120.2248000000118,1121.868,1326,1121.8681000000238,2,1121.868300000012,4,28,148,9,1,1.6,0.7,Time
,,S15,787955,001,男,21,2025-06-04_20h54.11.234,Serial_Dependence_U,2023.2.3,Win32,60.60606060606061,,,,,,1121.8685,345,4,1121.8685,345,,,,1125.804,1126.2961000000237,1125.297899999976,1125.804,1122.8658999999761,1125.2978000000116,1126.2961000000237,1126.788899999976,1126.788899999976,1128.4631999999879,1363,1128.4633000000117,3,1128.4636000000237,4,29,149,18,1,1.4,0.7,Time
,,S15,787955,001,男,21,2025-06-04_20h54.11.234,Serial_Dependence_U,2023.2.3,Win32,60.60606060606061,,,,,,1128.463899999976,203,5,1297.9003000000116,203,s,169.40599999999995,,1301.839199999988,1302.3313000000117,1301.333300000012,1301.839199999988,1298.901699999988,1301.3331999999882,1302.3313000000117,1302.8238999999762,1302.8238999999762,1304.2721000000238,1163,1304.272199999988,2,1304.272300000012,5,0,150,8,1,1.4,0.7,Time
,,S15,787955,001,男,21,2025-06-04_20h54.11.234,Serial_Dependence_U,2023.2.3,Win32,60.60606060606061,,,,,,1304.2726000000239,14,5,1304.2734999999998,14,,,,1308.2399999999998,1308.732199999988,1307.7316000000237,1308.239899999976,1305.288899999976,1307.7314999999999,1308.732300000012,1309.224399999976,1309.224399999976,1310.8663999999762,1315,1310.8663999999762,2,1310.866600000024,5,1,151,28,1,1.4,0.7,Time
,,S15,787955,001,男,21,2025-06-04_20h54.11.234,Serial_Dependence_U,2023.2.3,Win32,60.60606060606061,,,,,,1310.8668999999759,29,5,1310.8668999999759,29,,,,1315.0353000000118,1315.5266000000238,1314.5288000000119,1315.0351000000237,1311.8669999999997,1314.528699999988,1315.526699999988,1316.0191000000236,1316.0191000000236,1317.4346000000237,1154,1317.434699999988,2,1317.434899999976,5,2,152,14,1,1.6,0.3,Time
,,S15,787955,001,男,21,2025-06-04_20h54.11.234,Serial_Dependence_U,2023.2.3,Win32,60.60606060606061,,,,,,1317.4351000000238,70,5,1317.435199999988,70,,,,1320.781800000012,1321.2713000000117,1320.272800000012,1320.781800000012,1318.4336999999882,1320.2726999999882,1321.271399999976,1321.763300000012,1321.763300000012,1323.081699999988,1052,1323.081699999988,5,1323.081899999976,5,3,153,25,1,0.8,0.7,Time
,,S15,787955,001,男,21,2025-06-04_20h54.11.234,Serial_Dependence_U,2023.2.3,Win32,60.60606060606061,,,,,,1323.0821000000237,359,5,1323.0821000000237,359,,,,1326.6381000000238,1327.1304999999998,1326.131800000012,1326.6381000000238,1324.0998000000118,1326.131800000012,1327.1304999999998,1327.6223000000118,1327.622399999976,1329.0701000000236,1154,1329.0701999999878,4,1329.0703000000117,5,4,154,16,1,1,0.7,Time
,,S15,787955,001,男,21,2025-06-04_20h54.11.234,Serial_Dependence_U,2023.2.3,Win32,60.60606060606061,,,,,,1329.0706000000237,327,5,1329.070699999988,327,,,,1333.222399999976,1333.7115,1332.7145,1333.222399999976,1330.0684999999999,1332.7143999999762,1333.7115,1334.2039999999997,1334.2039999999997,1336.1111000000237,1563,1336.111199999988,3,1336.1113000000119,5,5,155,19,1,1.6,0.7,Time
,,S15,787955,001,男,21,2025-06-04_20h54.11.234,Serial_Dependence_U,2023.2.3,Win32,60.60606060606061,,,,,,1336.1115,209,5,1336.1116000000238,209,,,,1339.899199999988,1340.3908999999762,1339.393600000024,1339.8991000000237,1337.1263000000117,1339.393600000024,1340.391,1340.883399999976,1340.8835,1342.3801999999878,1224,1342.3803000000116,3,1342.3804999999998,5,6,156,2,1,1.2,0.3,Time
,,S15,787955,001,男,21,2025-06-04_20h54.11.234,Serial_Dependence_U,2023.2.3,Win32,60.60606060606061,,,,,,1342.3808000000117,344,5,1342.380899999976,344,,,,1346.1191999999878,1346.6109999999999,1345.6136000000238,1346.1191000000235,1343.381699999988,1345.6135,1346.6109999999999,1347.1036999999878,1347.1036999999878,1348.5478000000116,1159,1348.547899999976,3,1348.5481000000236,5,7,157,27,1,1.2,0.7,Time
,,S15,787955,001,男,21,2025-06-04_20h54.11.234,Serial_Dependence_U,2023.2.3,Win32,60.60606060606061,,,,,,1348.5483000000117,88,5,1348.5483000000117,88,,,,1352.1266000000237,1352.6183999999762,1351.62,1352.1264999999999,1349.549,1351.62,1352.6183999999762,1353.1103000000116,1353.1103000000116,1354.3281000000238,866,1354.3281000000238,2,1354.328300000012,5,8,158,11,1,1,0.3,Time
,,S15,787955,001,男,21,2025-06-04_20h54.11.234,Serial_Dependence_U,2023.2.3,Win32,60.60606060606061,,,,,,1354.3285,276,5,1354.3285,276,,,,1357.9031000000236,1358.395300000012,1357.397800000012,1357.9029999999998,1355.3291000000236,1357.397800000012,1358.395300000012,1358.8873000000117,1358.8873000000117,1360.1396000000236,969,1360.1396000000236,3,1360.1398000000117,5,9,159,1,1,1,0.3,Time
,,S15,787955,001,男,21,2025-06-04_20h54.11.234,Serial_Dependence_U,2023.2.3,Win32,60.60606060606061,,,,,,1360.1401000000237,191,5,1360.1401000000237,191,,,,1364.108699999988,1364.5986999999882,1363.5991999999878,1364.1086000000237,1361.1586000000239,1363.5991999999878,1364.5986999999882,1365.0911000000237,1365.0911000000237,1366.6839999999997,1348,1366.6839999999997,3,1366.6841999999879,5,10,160,18,1,1.4,0.7,Time
,,S15,787955,001,男,21,2025-06-04_20h54.11.234,Serial_Dependence_U,2023.2.3,Win32,60.60606060606061,,,,,,1366.6843000000117,118,5,1366.684399999976,118,,,,1370.067600000024,1370.5563999999763,1369.5583999999762,1370.0675,1367.6844999999998,1369.5583999999762,1370.5565000000001,1371.0488000000119,1371.0488000000119,1372.234300000012,883,1372.234300000012,4,1372.2345,5,11,161,20,1,0.8,0.3,Time
,,S15,787955,001,男,21,2025-06-04_20h54.11.234,Serial_Dependence_U,2023.2.3,Win32,60.60606060606061,,,,,,1372.234800000012,118,5,1372.2348999999763,118,,,,1375.6279999999997,1376.119899999976,1375.1221000000237,1375.6278999999759,1373.2483999999763,1375.1221000000237,1376.1201000000237,1376.6124999999997,1376.6124999999997,1377.732199999988,887,1377.732199999988,4,1377.7323999999762,5,12,162,0,1,0.8,0.3,Time
,,S15,787955,001,男,21,2025-06-04_20h54.11.234,Serial_Dependence_U,2023.2.3,Win32,60.60606060606061,,,,,,1377.732600000024,354,5,1377.7326999999882,354,,,,1381.9136999999878,1382.4056000000237,1381.4085,1381.9136999999878,1378.7298999999762,1381.4083999999762,1382.405699999988,1382.8981000000235,1382.8981000000235,1384.2828000000118,1115,1384.282899999976,1,1384.283,5,13,163,4,1,1.6,0.3,Time
,,S15,787955,001,男,21,2025-06-04_20h54.11.234,Serial_Dependence_U,2023.2.3,Win32,60.60606060606061,,,,,,1384.283199999988,56,5,1384.2833000000119,56,,,,1387.6414999999997,1388.133699999988,1387.1336000000238,1387.6413999999759,1385.2943999999761,1387.1335,1388.133699999988,1388.6258000000116,1388.6258000000116,1389.939800000012,1004,1389.939800000012,4,1389.94,5,14,164,5,1,0.8,0.7,Time
,,S15,787955,001,男,21,2025-06-04_20h54.11.234,Serial_Dependence_U,2023.2.3,Win32,60.60606060606061,,,,,,1389.9401999999882,79,5,1389.940300000012,79,,,,1393.929100000024,1394.419699999988,1393.4186000000236,1393.929100000024,1390.9421000000239,1393.4186000000236,1394.419699999988,1394.9116000000236,1394.9116999999878,1396.310300000012,1141,1396.310300000012,2,1396.3105,5,15,165,13,1,1.4,0.3,Time
,,S15,787955,001,男,21,2025-06-04_20h54.11.234,Serial_Dependence_U,2023.2.3,Win32,60.60606060606061,,,,,,1396.3106999999882,274,5,1396.3106999999882,274,,,,1400.0498999999759,1400.5411999999878,1399.5433000000116,1400.049800000012,1397.3081000000238,1399.5431999999878,1400.5411999999878,1401.0333999999762,1401.0335,1402.4975,1213,1402.4976000000238,3,1402.497699999988,5,16,166,7,1,1.2,0.7,Time
,,S15,787955,001,男,21,2025-06-04_20h54.11.234,Serial_Dependence_U,2023.2.3,Win32,60.60606060606061,,,,,,1402.4978999999762,216,5,1402.498,216,,,,1406.6636999999878,1407.1554999999998,1406.157399999976,1406.6636999999878,1403.512399999976,1406.1573000000117,1407.1554999999998,1407.6473999999762,1407.6475,1409.292199999988,1392,1409.292199999988,2,1409.2923999999762,5,17,167,29,1,1.6,0.7,Time
,,S15,787955,001,男,21,2025-06-04_20h54.11.234,Serial_Dependence_U,2023.2.3,Win32,60.60606060606061,,,,,,1409.2926000000239,24,5,1409.2926000000239,24,,,,1413.0636999999879,1413.555800000012,1412.5578999999761,1413.0636000000236,1410.292800000012,1412.5578000000119,1413.5558999999762,1414.048399999976,1414.048399999976,1415.3286999999882,1023,1415.3288999999759,2,1415.3288999999759,5,18,168,12,1,1.2,0.3,Time
,,S15,787955,001,男,21,2025-06-04_20h54.11.234,Serial_Dependence_U,2023.2.3,Win32,60.60606060606061,,,,,,1415.3291999999878,109,5,1415.3291999999878,109,,,,1419.070699999988,1419.5626000000238,1418.5621000000237,1419.0706000000237,1416.3298000000118,1418.562,1419.5626000000238,1420.0551000000237,1420.0551000000237,1421.598,1285,1421.598,4,1421.5983999999762,5,19,169,17,1,1.2,0.7,Time
,,S15,787955,001,男,21,2025-06-04_20h54.11.234,Serial_Dependence_U,2023.2.3,Win32,60.60606060606061,,,,,,1421.5986999999882,196,5,1421.5988999999759,196,,,,1425.3728999999762,1425.864899999976,1424.864300000012,1425.372800000012,1422.5989999999997,1424.8641999999882,1425.864899999976,1426.357199999988,1426.357199999988,1427.7358000000117,985,1427.735899999976,2,1427.7361000000237,5,20,170,22,1,1.2,0.3,Time
,,S15,787955,001,男,21,2025-06-04_20h54.11.234,Serial_Dependence_U,2023.2.3,Win32,60.60606060606061,,,,,,1427.7363000000119,260,5,1427.7363999999761,260,,,,1431.281199999988,1431.7733000000117,1430.7721000000238,1431.281199999988,1428.7373999999759,1430.7721000000238,1431.7733000000117,1432.2655,1432.2656000000238,1433.6444999999999,1163,1433.6446000000237,4,1433.6448000000119,5,21,171,6,1,1,0.7,Time
,,S15,787955,001,男,21,2025-06-04_20h54.11.234,Serial_Dependence_U,2023.2.3,Win32,60.60606060606061,,,,,,1433.6451000000238,143,5,1433.645199999988,143,,,,1437.6161000000238,1438.108399999976,1437.107800000012,1437.616,1434.6458999999759,1437.107600000024,1438.108399999976,1438.6003999999762,1438.6005,1439.9801999999881,1179,1439.9801999999881,2,1439.9805000000001,5,22,172,3,1,1.4,0.3,Time
,,S15,787955,001,男,21,2025-06-04_20h54.11.234,Serial_Dependence_U,2023.2.3,Win32,60.60606060606061,,,,,,1439.9806999999878,226,5,1439.9808000000116,226,,,,1443.360699999988,1443.852800000012,1442.8521000000237,1443.360699999988,1440.980899999976,1442.8519999999999,1443.852800000012,1444.344899999976,1444.3449999999998,1445.2971000000239,823,1445.2971999999882,3,1445.2973999999763,5,23,173,10,1,0.8,0.3,Time
,,S15,787955,001,男,21,2025-06-04_20h54.11.234,Serial_Dependence_U,2023.2.3,Win32,60.60606060606061,,,,,,1445.297600000024,90,5,1445.2976999999878,90,,,,1449.2694999999999,1449.7613999999762,1448.760199999988,1449.269399999976,1446.2983000000117,1448.7601000000236,1449.7613999999762,1450.2533000000117,1450.2533000000117,1451.6646000000237,1159,1451.664699999988,2,1451.6648000000118,5,24,174,23,1,1.4,0.3,Time
,,S15,787955,001,男,21,2025-06-04_20h54.11.234,Serial_Dependence_U,2023.2.3,Win32,60.60606060606061,,,,,,1451.665,322,5,1451.6651000000238,322,,,,1455.209800000012,1455.7028000000118,1454.701899999976,1455.209800000012,1452.6661999999878,1454.7018000000116,1455.7028000000118,1456.194199999988,1456.194300000012,1457.770199999988,1320,1457.770300000012,5,1457.7705,5,25,175,26,1,1,0.7,Time
,,S15,787955,001,男,21,2025-06-04_20h54.11.234,Serial_Dependence_U,2023.2.3,Win32,60.60606060606061,,,,,,1457.7706999999882,78,5,1457.770800000012,78,,,,1461.9555,1462.447899999976,1461.446800000012,1461.9553999999762,1458.7714999999998,1461.446800000012,1462.447899999976,1462.939699999988,1462.939699999988,1464.4496999999878,1214,1464.4496999999878,2,1464.4499999999998,5,26,176,24,1,1.6,0.3,Time
,,S15,787955,001,男,21,2025-06-04_20h54.11.234,Serial_Dependence_U,2023.2.3,Win32,60.60606060606061,,,,,,1464.450199999988,306,5,1464.4503000000118,306,,,,1468.0278000000117,1468.5198999999761,1467.5189999999998,1468.0276999999878,1465.4515000000001,1467.518899999976,1468.5198999999761,1469.0124999999998,1469.0124999999998,1470.440300000012,1029,1470.440300000012,3,1470.4406999999878,5,27,177,21,1,1,0.3,Time
,,S15,787955,001,男,21,2025-06-04_20h54.11.234,Serial_Dependence_U,2023.2.3,Win32,60.60606060606061,,,,,,1470.440899999976,293,5,1470.4409999999998,293,,,,1473.7888000000116,1474.281300000012,1473.2795,1473.7886999999878,1471.4418999999762,1473.2793999999762,1474.281300000012,1474.7733000000117,1474.7733000000117,1476.1191000000235,1053,1476.1191000000235,5,1476.1193000000117,5,28,178,15,1,0.8,0.7,Time
,,S15,787955,001,男,21,2025-06-04_20h54.11.234,Serial_Dependence_U,2023.2.3,Win32,60.60606060606061,,,,,,1476.1194999999998,38,5,1476.1196000000236,38,,,,1480.2711000000236,1480.7635,1479.763,1480.2709999999997,1477.1201000000237,1479.762899999976,1480.7636000000239,1481.2554999999998,1481.2554999999998,1482.7988000000119,1186,1482.7988000000119,2,1482.799,5,29,179,9,1,1.6,0.7,Time
,,S15,787955,001,男,21,2025-06-04_20h54.11.234,Serial_Dependence_U,2023.2.3,Win32,60.60606060606061,,,,,,1482.799199999988,51,6,1534.8736000000235,51,s,52.0652000000473,,1539.0605,1539.5513999999762,1538.5503000000117,1539.0603999999762,1535.879800000012,1538.5503000000117,1539.5515,1540.043399999976,1540.0434999999998,1541.589800000012,1158,1541.589800000012,2,1541.5899999999997,6,0,180,4,1,1.6,0.3,Time
,,S15,787955,001,男,21,2025-06-04_20h54.11.234,Serial_Dependence_U,2023.2.3,Win32,60.60606060606061,,,,,,1541.5901999999878,195,6,1541.590899999976,195,,,,1545.5581000000238,1546.0503000000117,1545.052399999976,1545.558,1542.587600000024,1545.0523000000117,1546.050399999976,1546.5426000000239,1546.5426000000239,1547.8918000000117,1083,1547.8918000000117,2,1547.8919999999998,6,1,181,3,1,1.4,0.3,Time
,,S15,787955,001,男,21,2025-06-04_20h54.11.234,Serial_Dependence_U,2023.2.3,Win32,60.60606060606061,,,,,,1547.8921000000237,127,6,1547.892199999988,127,,,,1551.2730000000001,1551.761600000024,1550.763,1551.2730000000001,1548.8919999999998,1550.762899999976,1551.761600000024,1552.2548999999763,1552.255,1553.5841000000237,851,1553.584199999988,4,1553.5845,6,2,182,20,1,0.8,0.3,Time
,,S15,787955,001,男,21,2025-06-04_20h54.11.234,Serial_Dependence_U,2023.2.3,Win32,60.60606060606061,,,,,,1553.584699999988,309,6,1553.584699999988,309,,,,1556.9318000000117,1557.424300000012,1556.4231000000236,1556.9316000000235,1554.585,1556.4231000000236,1557.424300000012,1557.9163000000117,1557.9163000000117,1559.278699999988,1016,1559.2788000000119,4,1559.2791999999881,6,3,183,25,1,0.8,0.7,Time
,,S15,787955,001,男,21,2025-06-04_20h54.11.234,Serial_Dependence_U,2023.2.3,Win32,60.60606060606061,,,,,,1559.2795,146,6,1559.279600000024,146,,,,1563.2345,1563.726100000024,1562.7253000000119,1563.2343999999762,1560.2796999999878,1562.725199999988,1563.7261999999878,1564.218699999988,1564.218699999988,1565.745,1214,1565.7451000000237,2,1565.7455,6,4,184,18,1,1.4,0.7,Time
,,S15,787955,001,男,21,2025-06-04_20h54.11.234,Serial_Dependence_U,2023.2.3,Win32,60.60606060606061,,,,,,1565.7456000000238,53,6,1565.7456999999881,53,,,,1569.3235,1569.815,1568.8143000000118,1569.3233999999761,1566.746,1568.8143000000118,1569.815,1570.307199999988,1570.3073000000118,1571.538300000012,988,1571.5383999999763,3,1571.538600000024,6,5,185,1,1,1,0.3,Time
,,S15,787955,001,男,21,2025-06-04_20h54.11.234,Serial_Dependence_U,2023.2.3,Win32,60.60606060606061,,,,,,1571.538899999976,240,6,1571.5389999999998,240,,,,1575.494699999988,1575.9858000000117,1574.9851999999878,1575.4946000000236,1572.5396000000237,1574.9851999999878,1575.9858000000117,1576.4783999999759,1576.4784999999997,1578.1523999999763,1385,1578.1523999999763,3,1578.1526000000235,6,6,186,8,1,1.4,0.7,Time
,,S15,787955,001,男,21,2025-06-04_20h54.11.234,Serial_Dependence_U,2023.2.3,Win32,60.60606060606061,,,,,,1578.1528000000117,184,6,1578.152899999976,184,,,,1582.3046999999879,1582.7971999999882,1581.796199999988,1582.3046000000236,1579.1549999999997,1581.7961000000237,1582.7971999999882,1583.289699999988,1583.289699999988,1584.996399999976,1391,1584.9964999999997,2,1584.9966999999879,6,7,187,29,1,1.6,0.7,Time
,,S15,787955,001,男,21,2025-06-04_20h54.11.234,Serial_Dependence_U,2023.2.3,Win32,60.60606060606061,,,,,,1584.9971000000237,91,6,1584.9971000000237,91,,,,1588.5414999999998,1589.0333999999762,1588.032699999988,1588.541399999976,1585.998,1588.0326000000236,1589.0335,1589.525899999976,1589.5259999999998,1591.036,1165,1591.036,4,1591.036300000012,6,8,188,6,1,1,0.7,Time
,,S15,787955,001,男,21,2025-06-04_20h54.11.234,Serial_Dependence_U,2023.2.3,Win32,60.60606060606061,,,,,,1591.0364999999997,284,6,1591.0364999999997,284,,,,1594.6138999999762,1595.1058000000116,1594.1051999999881,1594.613699999988,1592.037199999988,1594.1051000000239,1595.105899999976,1595.598199999988,1595.598300000012,1596.763800000012,851,1596.7638999999763,2,1596.7641999999878,6,9,189,11,1,1,0.3,Time
,,S15,787955,001,男,21,2025-06-04_20h54.11.234,Serial_Dependence_U,2023.2.3,Win32,60.60606060606061,,,,,,1596.764399999976,251,6,1596.764399999976,251,,,,1600.1121999999882,1600.6046000000238,1599.6034999999997,1600.1121999999882,1597.765699999988,1599.6033999999759,1600.6046000000238,1601.0963999999763,1601.0965,1602.409399999976,1043,1602.4094999999998,5,1602.4096000000236,6,10,190,15,1,0.8,0.7,Time
,,S15,787955,001,男,21,2025-06-04_20h54.11.234,Serial_Dependence_U,2023.2.3,Win32,60.60606060606061,,,,,,1602.4098000000117,267,6,1602.4099999999999,267,,,,1606.562199999988,1607.0538999999762,1606.053199999988,1606.5621000000237,1603.4106000000238,1606.0531000000237,1607.0538999999762,1607.5466000000238,1607.5466000000238,1609.269699999988,1351,1609.2698000000119,2,1609.27,6,11,191,9,1,1.6,0.7,Time
,,S15,787955,001,男,21,2025-06-04_20h54.11.234,Serial_Dependence_U,2023.2.3,Win32,60.60606060606061,,,,,,1609.270199999988,161,6,1609.2703999999762,161,,,,1613.422,1613.9141000000236,1612.913300000012,1613.422,1610.2711999999879,1612.913300000012,1613.9141000000236,1614.4063999999762,1614.4065,1615.9333999999762,1316,1615.9333999999762,2,1615.933600000024,6,12,192,19,1,1.6,0.7,Time
,,S15,787955,001,男,21,2025-06-04_20h54.11.234,Serial_Dependence_U,2023.2.3,Win32,60.60606060606061,,,,,,1615.9338000000116,333,6,1615.933899999976,333,,,,1619.707699999988,1620.199899999976,1619.1988999999762,1619.7076000000238,1616.934399999976,1619.1988999999762,1620.1999999999998,1620.6921999999881,1620.6921999999881,1622.071,1107,1622.0711000000238,2,1622.071300000012,6,13,193,2,1,1.2,0.3,Time
,,S15,787955,001,男,21,2025-06-04_20h54.11.234,Serial_Dependence_U,2023.2.3,Win32,60.60606060606061,,,,,,1622.0715,130,6,1622.0716000000239,130,,,,1625.6491000000237,1626.1411999999882,1625.140199999988,1625.649,1623.0721999999878,1625.140199999988,1626.1411999999882,1626.633399999976,1626.633399999976,1627.683899999976,820,1627.6839999999997,2,1627.6841999999879,6,14,194,21,1,1,0.3,Time
,,S15,787955,001,男,21,2025-06-04_20h54.11.234,Serial_Dependence_U,2023.2.3,Win32,60.60606060606061,,,,,,1627.6843000000117,222,6,1627.6844999999998,222,,,,1631.4589999999998,1631.9508999999762,1630.950399999976,1631.458899999976,1628.685300000012,1630.950199999988,1631.951,1632.443399999976,1632.443399999976,1633.6741000000238,1004,1633.674199999988,2,1633.674300000012,6,15,195,12,1,1.2,0.3,Time
,,S15,787955,001,男,21,2025-06-04_20h54.11.234,Serial_Dependence_U,2023.2.3,Win32,60.60606060606061,,,,,,1633.6745,277,6,1633.6746999999882,277,,,,1637.646699999988,1638.138300000012,1637.1378000000118,1637.646699999988,1634.675699999988,1637.137699999988,1638.138300000012,1638.6304999999998,1638.6304999999998,1640.009300000012,1090,1640.009300000012,2,1640.0095000000001,6,16,196,13,1,1.4,0.3,Time
,,S15,787955,001,男,21,2025-06-04_20h54.11.234,Serial_Dependence_U,2023.2.3,Win32,60.60606060606061,,,,,,1640.0096999999878,171,6,1640.009899999976,171,,,,1643.3906000000238,1643.8828000000117,1642.8816000000238,1643.3905,1641.011,1642.8815,1643.8828000000117,1644.375,1644.375,1645.540800000012,922,1645.5408999999759,4,1645.5409999999997,6,17,197,0,1,0.8,0.3,Time
,,S15,787955,001,男,21,2025-06-04_20h54.11.234,Serial_Dependence_U,2023.2.3,Win32,60.60606060606061,,,,,,1645.5411999999878,328,6,1645.541399999976,328,,,,1649.282699999988,1649.7743000000119,1648.7734999999998,1649.282699999988,1646.541699999988,1648.773399999976,1649.7743999999761,1650.267199999988,1650.2673000000118,1651.5639999999999,1051,1651.5639999999999,2,1651.564199999988,6,18,198,7,1,1.2,0.7,Time
,,S15,787955,001,男,21,2025-06-04_20h54.11.234,Serial_Dependence_U,2023.2.3,Win32,60.60606060606061,,,,,,1651.564399999976,38,6,1651.5645,38,,,,1655.305699999988,1655.7983000000117,1654.797,1655.3056000000238,1652.564699999988,1654.797,1655.7983000000117,1656.2901000000238,1656.2901000000238,1657.898399999976,1191,1657.898399999976,3,1657.8986000000236,6,19,199,27,1,1.2,0.7,Time
,,S15,787955,001,男,21,2025-06-04_20h54.11.234,Serial_Dependence_U,2023.2.3,Win32,60.60606060606061,,,,,,1657.8988000000118,33,6,1657.899,33,,,,1662.083899999976,1662.5768000000116,1661.5749999999998,1662.0838000000117,1658.900100000024,1661.5748000000117,1662.5768000000116,1663.0681000000236,1663.0681999999879,1664.5456000000236,1147,1664.5456000000236,2,1664.545899999976,6,20,200,24,1,1.6,0.3,Time
,,S15,787955,001,男,21,2025-06-04_20h54.11.234,Serial_Dependence_U,2023.2.3,Win32,60.60606060606061,,,,,,1664.5461000000237,32,6,1664.5463000000118,32,,,,1667.8936999999878,1668.386,1667.384899999976,1667.893600000024,1665.546800000012,1667.3848000000116,1668.386,1668.8778999999759,1668.8779999999997,1670.1748999999759,1107,1670.1749999999997,5,1670.1753000000117,6,21,201,5,1,0.8,0.7,Time
,,S15,787955,001,男,21,2025-06-04_20h54.11.234,Serial_Dependence_U,2023.2.3,Win32,60.60606060606061,,,,,,1670.1754999999998,173,6,1670.1756000000237,173,,,,1673.916899999976,1674.4086999999881,1673.408,1673.9168000000118,1671.1763999999762,1673.408,1674.4086999999881,1674.901399999976,1674.901399999976,1676.3291999999878,1089,1676.3291999999878,2,1676.3293000000117,6,22,202,17,1,1.2,0.7,Time
,,S15,787955,001,男,21,2025-06-04_20h54.11.234,Serial_Dependence_U,2023.2.3,Win32,60.60606060606061,,,,,,1676.3296000000237,262,6,1676.3298000000118,262,,,,1679.7101999999882,1680.2028000000118,1679.2018000000116,1679.7101000000239,1677.3306000000239,1679.2018000000116,1680.2028999999761,1680.6946999999882,1680.694800000012,1681.8111000000235,866,1681.8111000000235,4,1681.811399999976,6,23,203,10,1,0.8,0.3,Time
,,S15,787955,001,男,21,2025-06-04_20h54.11.234,Serial_Dependence_U,2023.2.3,Win32,60.60606060606061,,,,,,1681.811899999976,309,6,1681.8121000000237,309,,,,1685.3561000000236,1685.848,1684.8476000000237,1685.3559999999998,1682.8123999999762,1684.8474999999999,1685.848,1686.3406000000236,1686.3406000000236,1687.7846999999879,1306,1687.7846999999879,5,1687.784899999976,6,24,204,26,1,1,0.7,Time
,,S15,787955,001,男,21,2025-06-04_20h54.11.234,Serial_Dependence_U,2023.2.3,Win32,60.60606060606061,,,,,,1687.785199999988,235,6,1687.7853000000118,235,,,,1691.7404999999999,1692.232800000012,1691.232300000012,1691.7403000000118,1688.7861999999882,1691.232300000012,1692.232800000012,1692.7246000000237,1692.724699999988,1694.0214999999998,1024,1694.0214999999998,2,1694.021899999976,6,25,205,28,1,1.4,0.7,Time
,,S15,787955,001,男,21,2025-06-04_20h54.11.234,Serial_Dependence_U,2023.2.3,Win32,60.60606060606061,,,,,,1694.022199999988,45,6,1694.0225,45,,,,1697.567300000012,1698.0586999999882,1697.0581000000238,1697.5671999999881,1695.0226999999882,1697.058,1698.0586999999882,1698.551,1698.551,1699.864600000024,1024,1699.864600000024,3,1699.8648000000117,6,26,206,16,1,1,0.7,Time
,,S15,787955,001,男,21,2025-06-04_20h54.11.234,Serial_Dependence_U,2023.2.3,Win32,60.60606060606061,,,,,,1699.8649999999998,49,6,1699.8651000000236,49,,,,1703.836199999988,1704.328199999988,1703.327399999976,1703.836199999988,1700.8656000000237,1703.327399999976,1704.328300000012,1704.820399999976,1704.820399999976,1706.1006000000239,1004,1706.1006999999881,2,1706.1008999999763,6,27,207,23,1,1.4,0.3,Time
,,S15,787955,001,男,21,2025-06-04_20h54.11.234,Serial_Dependence_U,2023.2.3,Win32,60.60606060606061,,,,,,1706.1011999999878,85,6,1706.101399999976,85,,,,1709.878699999988,1710.369899999976,1709.3694999999998,1709.878699999988,1707.1026000000238,1709.369399999976,1710.369899999976,1710.8624999999997,1710.8624999999997,1712.274800000012,1097,1712.274800000012,2,1712.2748999999762,6,28,208,22,1,1.2,0.3,Time
,,S15,787955,001,男,21,2025-06-04_20h54.11.234,Serial_Dependence_U,2023.2.3,Win32,60.60606060606061,,,,,,1712.275100000024,232,6,1712.2751999999882,232,,,,1716.4573999999761,1716.948800000012,1715.9513999999763,1716.4573000000119,1713.2759999999998,1715.951300000012,1716.948800000012,1717.441399999976,1717.4415,1718.8203000000117,1106,1718.8203000000117,1,1718.8204999999998,6,29,209,14,1,1.6,0.3,Time
,,S15,787955,001,男,21,2025-06-04_20h54.11.234,Serial_Dependence_U,2023.2.3,Win32,60.60606060606061,,,,,,1718.820699999988,195,7,1770.9773000000118,195,s,52.136599999964346,,1774.952399999976,1775.4413000000118,1774.4436000000237,1774.9523000000117,1771.978899999976,1774.4436000000237,1775.4413000000118,1775.9341000000236,1775.9341000000236,1777.463399999976,1129,1777.463399999976,2,1777.4634999999998,7,0,210,23,1,1.4,0.3,Time
,,S15,787955,001,男,21,2025-06-04_20h54.11.234,Serial_Dependence_U,2023.2.3,Win32,60.60606060606061,,,,,,1777.463699999988,57,7,1777.464600000024,57,,,,1781.0056000000236,1781.497399999976,1780.4968000000117,1781.005399999976,1778.461699999988,1780.4968000000117,1781.497399999976,1781.990699999988,1781.990699999988,1783.188,926,1783.188100000024,2,1783.1886000000236,7,1,211,16,1,1,0.7,Time
,,S15,787955,001,男,21,2025-06-04_20h54.11.234,Serial_Dependence_U,2023.2.3,Win32,60.60606060606061,,,,,,1783.1891000000237,240,7,1783.1893000000118,240,,,,1786.930199999988,1787.4221000000239,1786.4213000000118,1786.930199999988,1784.1896000000238,1786.4213000000118,1787.4221000000239,1787.914699999988,1787.914699999988,1789.145800000012,1012,1789.145800000012,2,1789.1461000000236,7,2,212,7,1,1.2,0.7,Time
,,S15,787955,001,男,21,2025-06-04_20h54.11.234,Serial_Dependence_U,2023.2.3,Win32,60.60606060606061,,,,,,1789.1464999999998,143,7,1789.1464999999998,143,,,,1793.101,1793.5929999999998,1792.5921999999878,1793.1008999999763,1790.1468000000118,1792.592100000024,1793.593199999988,1794.0853999999763,1794.0853999999763,1795.5459999999998,1241,1795.5461000000237,2,1795.5463000000118,7,3,213,28,1,1.4,0.7,Time
,,S15,787955,001,男,21,2025-06-04_20h54.11.234,Serial_Dependence_U,2023.2.3,Win32,60.60606060606061,,,,,,1795.5465,248,7,1795.5466000000238,248,,,,1799.092,1799.5836999999879,1798.584800000012,1799.092,1796.5506000000237,1798.584800000012,1799.5836999999879,1800.075800000012,1800.075800000012,1801.520800000012,1152,1801.5208999999759,4,1801.5211999999879,7,4,214,26,1,1,0.7,Time
,,S15,787955,001,男,21,2025-06-04_20h54.11.234,Serial_Dependence_U,2023.2.3,Win32,60.60606060606061,,,,,,1801.521399999976,250,7,1801.5214999999998,250,,,,1805.4921999999879,1805.9846000000239,1804.984,1805.4921999999879,1802.5223999999762,1804.983899999976,1805.9846000000239,1806.4764999999998,1806.4766000000236,1807.8881000000238,1183,1807.888199999988,2,1807.888300000012,7,5,215,3,1,1.4,0.3,Time
,,S15,787955,001,男,21,2025-06-04_20h54.11.234,Serial_Dependence_U,2023.2.3,Win32,60.60606060606061,,,,,,1807.8886000000239,69,7,1807.8886999999881,69,,,,1811.236699999988,1811.728899999976,1810.7278999999762,1811.2365,1808.889399999976,1810.7278999999762,1811.728899999976,1812.2208999999762,1812.221,1813.471600000024,972,1813.471600000024,4,1813.4718000000116,7,6,216,5,1,0.8,0.7,Time
,,S15,787955,001,男,21,2025-06-04_20h54.11.234,Serial_Dependence_U,2023.2.3,Win32,60.60606060606061,,,,,,1813.471899999976,2,7,1813.4719999999998,2,,,,1817.226899999976,1817.718699999988,1816.7181000000237,1817.226899999976,1814.470399999976,1816.7179999999998,1817.718800000012,1818.210899999976,1818.210899999976,1819.770600000024,1300,1819.770600000024,4,1819.7708999999759,7,7,217,27,1,1.2,0.7,Time
,,S15,787955,001,男,21,2025-06-04_20h54.11.234,Serial_Dependence_U,2023.2.3,Win32,60.60606060606061,,,,,,1819.7714999999998,157,7,1819.7716000000237,157,,,,1823.1513000000118,1823.6435000000001,1822.6428999999762,1823.1511000000237,1820.772800000012,1822.642800000012,1823.6435000000001,1824.1358999999761,1824.1358999999761,1825.3011000000238,876,1825.3011000000238,4,1825.301300000012,7,8,218,10,1,0.8,0.3,Time
,,S15,787955,001,男,21,2025-06-04_20h54.11.234,Serial_Dependence_U,2023.2.3,Win32,60.60606060606061,,,,,,1825.3015,185,7,1825.3016000000239,185,,,,1829.4863999999761,1829.9784999999997,1828.9805000000001,1829.4863000000119,1826.305199999988,1828.9805000000001,1829.9784999999997,1830.4718000000116,1830.4718000000116,1832.083,1280,1832.083,2,1832.0831999999882,7,9,219,4,1,1.6,0.3,Time
,,S15,787955,001,男,21,2025-06-04_20h54.11.234,Serial_Dependence_U,2023.2.3,Win32,60.60606060606061,,,,,,1832.0833999999759,207,7,1832.0834999999997,207,,,,1836.232,1836.723800000012,1835.726,1836.2318999999761,1833.0836999999879,1835.7258999999763,1836.723800000012,1837.2165,1837.2165,1839.172899999976,1437,1839.172899999976,2,1839.1731000000236,7,10,220,9,1,1.6,0.7,Time
,,S15,787955,001,男,21,2025-06-04_20h54.11.234,Serial_Dependence_U,2023.2.3,Win32,60.60606060606061,,,,,,1839.1733000000117,204,7,1839.1734999999999,204,,,,1843.338399999976,1843.8303999999762,1842.8323999999761,1843.3381999999879,1840.1706000000236,1842.8323000000119,1843.8303999999762,1844.3233000000118,1844.3233000000118,1845.7379999999998,1230,1845.7381000000237,2,1845.738199999988,7,11,221,14,1,1.6,0.3,Time
,,S15,787955,001,男,21,2025-06-04_20h54.11.234,Serial_Dependence_U,2023.2.3,Win32,60.60606060606061,,,,,,1845.738399999976,268,7,1845.7385,268,,,,1849.3121000000237,1849.8043999999759,1848.8066000000235,1849.312,1846.7373999999759,1848.8065000000001,1849.8043999999759,1850.296800000012,1850.296800000012,1851.4995,1000,1851.4995,3,1851.499699999988,7,12,222,1,1,1,0.3,Time
,,S15,787955,001,男,21,2025-06-04_20h54.11.234,Serial_Dependence_U,2023.2.3,Win32,60.60606060606061,,,,,,1851.4998999999762,330,7,1851.4998999999762,330,,,,1855.040600000024,1855.5323000000117,1854.5316999999882,1855.0403999999762,1852.496399999976,1854.531600000024,1855.5323000000117,1856.0246999999881,1856.0246999999881,1857.3213999999762,1142,1857.3215,4,1857.321800000012,7,13,223,6,1,1,0.7,Time
,,S15,787955,001,男,21,2025-06-04_20h54.11.234,Serial_Dependence_U,2023.2.3,Win32,60.60606060606061,,,,,,1857.3220000000001,66,7,1857.3221999999878,66,,,,1860.8995,1861.3913999999759,1860.3911999999882,1860.8993999999761,1858.3224999999998,1860.391,1861.3913999999759,1861.8835,1861.8835,1863.2961000000237,1123,1863.2961000000237,4,1863.2965,7,14,224,11,1,1,0.3,Time
,,S15,787955,001,男,21,2025-06-04_20h54.11.234,Serial_Dependence_U,2023.2.3,Win32,60.60606060606061,,,,,,1863.296800000012,93,7,1863.297,93,,,,1866.873300000012,1867.3653000000118,1866.3648000000117,1866.873300000012,1864.2965,1866.3646999999878,1867.3653000000118,1867.8573999999762,1867.8573999999762,1869.1873999999762,972,1869.1875,3,1869.1876999999881,7,15,225,21,1,1,0.3,Time
,,S15,787955,001,男,21,2025-06-04_20h54.11.234,Serial_Dependence_U,2023.2.3,Win32,60.60606060606061,,,,,,1869.1878999999763,177,7,1869.188100000024,177,,,,1872.964600000024,1873.4539999999997,1872.453199999988,1872.9645,1870.1886999999879,1872.453199999988,1873.4539999999997,1873.9466000000239,1873.9466000000239,1875.7716000000237,1067,1875.7716000000237,2,1875.771699999988,7,16,226,12,1,1.2,0.3,Time
,,S15,787955,001,男,21,2025-06-04_20h54.11.234,Serial_Dependence_U,2023.2.3,Win32,60.60606060606061,,,,,,1875.771899999976,164,7,1875.772,164,,,,1879.9208000000117,1880.4131000000239,1879.4148000000118,1879.9208000000117,1876.7718000000118,1879.4148000000118,1880.4131000000239,1880.905399999976,1880.905399999976,1882.5825,1444,1882.5825,2,1882.5826000000238,7,17,227,19,1,1.6,0.7,Time
,,S15,787955,001,男,21,2025-06-04_20h54.11.234,Serial_Dependence_U,2023.2.3,Win32,60.60606060606061,,,,,,1882.5828000000115,290,7,1882.5828999999758,290,,,,1886.7316000000237,1887.224699999988,1886.2256000000239,1886.7314999999999,1883.582199999988,1886.2255,1887.224699999988,1887.7171999999878,1887.7173000000116,1889.3446000000235,1385,1889.3446999999878,2,1889.3448000000117,7,18,228,29,1,1.6,0.7,Time
,,S15,787955,001,男,21,2025-06-04_20h54.11.234,Serial_Dependence_U,2023.2.3,Win32,60.60606060606061,,,,,,1889.3451000000236,222,7,1889.345199999988,222,,,,1893.5269999999996,1894.0183000000115,1893.022,1893.526800000012,1890.3426000000236,1893.022,1894.0183000000115,1894.5108999999761,1894.5108999999761,1896.286899999976,1461,1896.286899999976,2,1896.2871000000237,7,19,229,24,1,1.6,0.3,Time
,,S15,787955,001,男,21,2025-06-04_20h54.11.234,Serial_Dependence_U,2023.2.3,Win32,60.60606060606061,,,,,,1896.287399999976,225,7,1896.2875,225,,,,1900.025399999976,1900.5173000000118,1899.5201000000238,1900.025399999976,1897.2876000000238,1899.52,1900.5173000000118,1901.010399999976,1901.0104999999999,1902.5564999999997,1309,1902.5564999999997,4,1902.5566000000235,7,20,230,17,1,1.2,0.7,Time
,,S15,787955,001,男,21,2025-06-04_20h54.11.234,Serial_Dependence_U,2023.2.3,Win32,60.60606060606061,,,,,,1902.556899999976,190,7,1902.556899999976,190,,,,1905.9009999999998,1906.3931000000234,1905.3953000000115,1905.900899999976,1903.5543000000116,1905.3953000000115,1906.3931000000234,1906.885699999988,1906.885699999988,1908.1858999999758,1006,1908.1859999999997,4,1908.1861000000235,7,21,231,25,1,0.8,0.7,Time
,,S15,787955,001,男,21,2025-06-04_20h54.11.234,Serial_Dependence_U,2023.2.3,Win32,60.60606060606061,,,,,,1908.1861999999878,318,7,1908.186399999976,318,,,,1911.5636999999879,1912.0561999999877,1911.0571000000236,1911.5634999999997,1909.1833999999758,1911.0571000000236,1912.0563000000116,1912.5476000000235,1912.5476000000235,1913.7461999999878,933,1913.746399999976,4,1913.7466999999879,7,22,232,0,1,0.8,0.3,Time
,,S15,787955,001,男,21,2025-06-04_20h54.11.234,Serial_Dependence_U,2023.2.3,Win32,60.60606060606061,,,,,,1913.746899999976,37,7,1913.7469999999998,37,,,,1917.7181000000237,1918.209800000012,1917.2116000000237,1917.7181000000237,1914.7493000000118,1917.2115,1918.2098999999762,1918.7023000000117,1918.7023000000117,1920.0513999999762,1114,1920.0513999999762,2,1920.0514999999996,7,23,233,13,1,1.4,0.3,Time
,,S15,787955,001,男,21,2025-06-04_20h54.11.234,Serial_Dependence_U,2023.2.3,Win32,60.60606060606061,,,,,,1920.0516999999877,121,7,1920.0518000000116,121,,,,1923.396399999976,1923.888300000012,1922.892800000012,1923.3963000000117,1921.0523000000117,1922.892800000012,1923.888300000012,1924.3813000000118,1924.3813000000118,1925.7791999999877,1100,1925.7793000000115,5,1925.7793999999758,7,24,234,15,1,0.8,0.7,Time
,,S15,787955,001,男,21,2025-06-04_20h54.11.234,Serial_Dependence_U,2023.2.3,Win32,60.60606060606061,,,,,,1925.7794999999996,54,7,1925.7798000000116,54,,,,1929.7311000000236,1930.2238000000116,1929.2281000000235,1929.7309999999998,1926.7803000000117,1929.2281000000235,1930.2238999999759,1930.7156000000236,1930.7156000000236,1932.2788999999761,1281,1932.2788999999761,2,1932.2791000000238,7,25,235,18,1,1.4,0.7,Time
,,S15,787955,001,男,21,2025-06-04_20h54.11.234,Serial_Dependence_U,2023.2.3,Win32,60.60606060606061,,,,,,1932.2793000000115,189,7,1932.2794999999996,189,,,,1936.0501000000236,1936.5428000000115,1935.541699999988,1936.0498999999759,1933.2761000000237,1935.541699999988,1936.5428000000115,1937.0346000000236,1937.0346000000236,1938.5316999999877,1261,1938.5316999999877,4,1938.5318000000116,7,26,236,22,1,1.2,0.3,Time
,,S15,787955,001,男,21,2025-06-04_20h54.11.234,Serial_Dependence_U,2023.2.3,Win32,60.60606060606061,,,,,,1938.5319999999997,317,7,1938.5321999999878,317,,,,1942.3029999999999,1942.7949999999996,1941.797,1942.3029999999999,1939.5323000000117,1941.7968999999762,1942.7951000000235,1943.287199999988,1943.2873000000118,1944.6371999999878,1120,1944.6371999999878,2,1944.637399999976,7,27,237,2,1,1.2,0.3,Time
,,S15,787955,001,男,21,2025-06-04_20h54.11.234,Serial_Dependence_U,2023.2.3,Win32,60.60606060606061,,,,,,1944.6376000000237,329,7,1944.637699999988,329,,,,1948.588699999988,1949.0806000000234,1948.0833000000116,1948.5886000000237,1945.6374999999998,1948.0833000000116,1949.0806999999877,1949.5731000000237,1949.5731000000237,1951.099899999976,1269,1951.099899999976,2,1951.100199999988,7,28,238,8,1,1.4,0.7,Time
,,S15,787955,001,男,21,2025-06-04_20h54.11.234,Serial_Dependence_U,2023.2.3,Win32,60.60606060606061,,,,,,1951.1003999999762,244,7,1951.1005,244,,,,1954.4806000000235,1954.9728000000118,1953.9719999999998,1954.4806000000235,1952.1013000000116,1953.9719999999998,1954.9728000000118,1955.4651999999878,1955.4653000000117,1956.762699999988,974,1956.7628000000118,4,1956.7631000000238,7,29,239,20,1,0.8,0.3,Time
,,S15,787955,001,男,21,2025-06-04_20h54.11.234,Serial_Dependence_U,2023.2.3,Win32,60.60606060606061,,,,,,1956.7633999999762,313,8,1961.488199999988,313,s,4.708300000011604,,1965.2635,1965.755399999976,1964.7549999999997,1965.2633999999762,1962.4894999999997,1964.7548999999758,1965.755399999976,1966.2478999999757,1966.2478999999757,1967.5606999999877,986,1967.5608000000116,2,1967.5609999999997,8,0,240,2,1,1.2,0.3,Time
,,S15,787955,001,男,21,2025-06-04_20h54.11.234,Serial_Dependence_U,2023.2.3,Win32,60.60606060606061,,,,,,1967.5611999999878,38,8,1967.5621000000237,38,,,,1971.5333999999762,1972.0246999999877,1971.0243000000119,1971.5333000000119,1968.562,1971.0243000000119,1972.0246999999877,1972.517399999976,1972.517399999976,1973.8961000000236,1123,1973.8961999999879,2,1973.896399999976,8,1,241,23,1,1.4,0.3,Time
,,S15,787955,001,男,21,2025-06-04_20h54.11.234,Serial_Dependence_U,2023.2.3,Win32,60.60606060606061,,,,,,1973.8964999999998,354,8,1973.8968000000118,354,,,,1978.0813000000117,1978.573199999988,1977.572699999988,1978.0811999999878,1974.8973999999762,1977.5726000000236,1978.573199999988,1979.0653999999759,1979.0654999999997,1980.509899999976,1188,1980.509899999976,2,1980.5101000000236,8,2,242,14,1,1.6,0.3,Time
,,S15,787955,001,男,21,2025-06-04_20h54.11.234,Serial_Dependence_U,2023.2.3,Win32,60.60606060606061,,,,,,1980.510199999988,225,8,1980.510399999976,225,,,,1984.2526999999877,1984.744399999976,1983.7436999999877,1984.2526000000234,1981.511199999988,1983.7434999999996,1984.7444999999998,1985.2363000000119,1985.2363000000119,1986.992899999976,1142,1986.992899999976,3,1986.993300000012,8,3,243,17,1,1.2,0.7,Time
,,S15,787955,001,男,21,2025-06-04_20h54.11.234,Serial_Dependence_U,2023.2.3,Win32,60.60606060606061,,,,,,1986.9936000000234,281,8,1986.9938000000116,281,,,,1990.3751000000238,1990.866,1989.8651000000236,1990.3751000000238,1987.9939999999997,1989.8651000000236,1990.866,1991.358699999988,1991.358699999988,1992.6391000000235,859,1992.6391000000235,4,1992.6394999999998,8,4,244,20,1,0.8,0.3,Time
,,S15,787955,001,男,21,2025-06-04_20h54.11.234,Serial_Dependence_U,2023.2.3,Win32,60.60606060606061,,,,,,1992.6398000000117,285,8,1992.6398000000117,285,,,,1996.380899999976,1996.8725,1995.8718000000117,1996.380899999976,1993.6403000000118,1995.8716999999879,1996.8726000000238,1997.3651000000236,1997.3651000000236,1998.8914999999997,1255,1998.8916000000236,3,1998.8918000000117,8,5,245,7,1,1.2,0.7,Time
,,S15,787955,001,男,21,2025-06-04_20h54.11.234,Serial_Dependence_U,2023.2.3,Win32,60.60606060606061,,,,,,1998.8919999999998,308,8,1998.892199999988,308,,,,2003.0439999999999,2003.5358999999758,2002.535199999988,2003.0439999999999,1999.8928999999762,2002.5351000000237,2003.5358999999758,2004.0283000000118,2004.0283000000118,2005.7351999999878,1491,2005.7351999999878,2,2005.7354999999998,8,6,246,9,1,1.6,0.7,Time
,,S15,787955,001,男,21,2025-06-04_20h54.11.234,Serial_Dependence_U,2023.2.3,Win32,60.60606060606061,,,,,,2005.735699999988,350,8,2005.7358000000117,350,,,,2009.0836999999879,2009.5755,2008.5749999999998,2009.0836999999879,2006.7365,2008.5749999999998,2009.5755,2010.0678000000116,2010.067899999976,2011.3151999999877,916,2011.3151999999877,4,2011.3154999999997,8,7,247,25,1,0.8,0.7,Time
,,S15,787955,001,男,21,2025-06-04_20h54.11.234,Serial_Dependence_U,2023.2.3,Win32,60.60606060606061,,,,,,2011.3156999999878,216,8,2011.3158000000117,216,,,,2014.6636999999878,2015.1556000000237,2014.1558000000118,2014.6636999999878,2012.3168999999762,2014.155699999988,2015.1556000000237,2015.6483000000117,2015.6483000000117,2016.8308999999758,950,2016.8309999999997,4,2016.8313000000117,8,8,248,15,1,0.8,0.7,Time
,,S15,787955,001,男,21,2025-06-04_20h54.11.234,Serial_Dependence_U,2023.2.3,Win32,60.60606060606061,,,,,,2016.8314999999998,280,8,2016.8316000000236,280,,,,2020.7853000000118,2021.2781000000236,2020.2765,2020.785199999988,2017.8318000000118,2020.276399999976,2021.2781000000236,2021.769699999988,2021.769699999988,2023.3453000000118,1343,2023.3453000000118,3,2023.3455,8,9,249,28,1,1.4,0.7,Time
,,S15,787955,001,男,21,2025-06-04_20h54.11.234,Serial_Dependence_U,2023.2.3,Win32,60.60606060606061,,,,,,2023.3458000000119,103,8,2023.346,103,,,,2026.694,2027.1861000000235,2026.185199999988,2026.693899999976,2024.346899999976,2026.185,2027.1861000000235,2027.6788999999758,2027.6788999999758,2029.122699999988,1127,2029.122800000012,5,2029.1231000000234,8,10,250,5,1,0.8,0.7,Time
