Scale_setup.started,Scale_setup.stopped,participant,session,sex,age,date,expName,psychopyVersion,OS,frameRate,screen_scale_keys.started,screen_scale_keys.stopped,X Scale,Y Scale,rectangel_keys.started,rectangel_keys.stopped,Intro.started,Intro.stopped,key_resp_2.keys,key_resp_2.rt,key_resp_2.duration,block.started,Block_id,block.stopped,Block_resp_2.keys,Block_resp_2.rt,Block_resp_2.duration,ITI.started,ITI.stopped,Mask_2.started,Mask_2.stopped,M2.started,direction,M2.stopped,Cue.started,Cue.stopped,Response.started,Response.stopped,keyDuration,Feedback_Time.started,FeedbackID_T,Feedback_Time.stopped,trials.thisRepN,trials.thisTrialN,trials.thisN,trials.thisIndex,trials.ran,TimeDur,Coherence1,TrialType,trials.order
0.0005,0.0012,S15,1,,,anonymized,Serial_Dependence_U,2023.2.3,Win32,30.12048193,,,,,,,,,,,,,,,,,,,,,,,,,,,,,,,,,,,,,,,,,
,,S15,1,,,anonymized,Serial_Dependence_U,2023.2.3,Win32,30.12048193,0.005,4.183,0.05,0.05,4.1835,12.9129,12.9132,80.0901,space,67.1118,,,,,,,,,,,,,,,,,,,,,,,,,,,,,,,
,,S15,1,,,anonymized,Serial_Dependence_U,2023.2.3,Win32,30.12048193,,,,,,,,,,,,80.1003,0.0,82.9556,s,2.8268,,86.1549,86.6545,85.6221,86.1548,83.9899,232.0,85.622,86.6549,87.1545,87.1549,89.4209,1890.9,89.4214,4.0,90.4196,0.0,0.0,0.0,14.0,1.0,1.6,0.3,Time,
,,S15,1,,,anonymized,Serial_Dependence_U,2023.2.3,Win32,30.12048193,,,,,,,,,,,,90.4204,0.0,90.4248,,,,93.5691,94.0684,93.0524,93.569,91.4364,223.0,93.0523,94.0684,94.5682,94.5683,95.2182,400.8,95.2186,1.0,96.2176,0.0,1.0,1.0,19.0,1.0,1.6,0.7,Time,
,,S15,1,,,anonymized,Serial_Dependence_U,2023.2.3,Win32,30.12048193,,,,,,,,,,,,96.2181,0.0,96.2183,,,,99.3672,99.8665,98.8506,99.3671,97.2345,93.0,98.8505,99.8665,100.3662,100.3662,101.9495,1299.0,101.9498,2.0,102.9486,0.0,2.0,2.0,29.0,1.0,1.6,0.7,Time,
,,S15,1,,,anonymized,Serial_Dependence_U,2023.2.3,Win32,30.12048193,,,,,,,,,,,,102.949,0.0,102.9495,,,,105.2985,105.7977,104.782,105.2985,103.9655,287.0,104.782,105.7977,106.2974,106.2974,106.5976,270.5,106.5979,1.0,107.597,0.0,3.0,3.0,10.0,1.0,0.8,0.3,Time,
,,S15,1,,,anonymized,Serial_Dependence_U,2023.2.3,Win32,30.12048193,,,,,,,,,,,,107.5975,0.0,107.5977,,,,110.1467,110.6459,109.6302,110.1466,108.6139,60.0,109.63,110.646,111.1457,111.1457,111.9792,817.2,111.9795,2.0,112.9788,0.0,4.0,4.0,26.0,1.0,1.0,0.7,Time,
,,S15,1,,,anonymized,Serial_Dependence_U,2023.2.3,Win32,30.12048193,,,,,,,,,,,,112.9792,0.0,112.9797,,,,115.5284,116.0274,115.0118,115.5284,113.9953,151.0,115.0117,116.0275,116.5275,116.5275,117.494,955.8,117.4943,3.0,118.4933,0.0,5.0,5.0,6.0,1.0,1.0,0.7,Time,
,,S15,1,,,anonymized,Serial_Dependence_U,2023.2.3,Win32,30.12048193,,,,,,,,,,,,118.4939,0.0,118.4942,,,,120.8432,121.3423,120.3265,120.8432,119.51,57.0,120.3263,121.3423,121.8421,121.8422,123.1419,802.8,123.1421,3.0,124.1414,0.0,6.0,6.0,25.0,1.0,0.8,0.7,Time,
,,S15,1,,,anonymized,Serial_Dependence_U,2023.2.3,Win32,30.12048193,,,,,,,,,,,,124.1418,0.0,124.1421,,,,127.0917,127.5903,126.5746,127.0914,125.1583,9.0,126.5745,127.5904,128.0903,128.0904,129.5233,1395.9,129.5236,3.0,130.5226,0.0,7.0,7.0,13.0,1.0,1.4,0.3,Time,
,,S15,1,,,anonymized,Serial_Dependence_U,2023.2.3,Win32,30.12048193,,,,,,,,,,,,130.5231,0.0,130.5237,,,,132.8724,133.3718,132.3559,132.8724,131.5396,57.0,132.3558,133.3718,133.8714,133.8715,134.1553,246.5,134.1556,1.0,135.1574,0.0,8.0,8.0,5.0,1.0,0.8,0.7,Time,
,,S15,1,,,anonymized,Serial_Dependence_U,2023.2.3,Win32,30.12048193,,,,,,,,,,,,135.1584,0.0,135.1596,,,,137.7118,138.2097,137.1954,137.7117,136.1812,116.0,137.1953,138.2097,138.71,138.71,139.5617,833.0,139.5618,2.0,140.5586,0.0,9.0,9.0,21.0,1.0,1.0,0.3,Time,
,,S15,1,,,anonymized,Serial_Dependence_U,2023.2.3,Win32,30.12048193,,,,,,,,,,,,140.559,0.0,140.5593,,,,143.0871,143.5749,142.5764,143.0868,141.56,58.0,142.5762,143.5749,144.0691,144.0693,145.176,966.8,145.1762,3.0,146.1675,0.0,10.0,10.0,16.0,1.0,1.0,0.7,Time,
,,S15,1,,,anonymized,Serial_Dependence_U,2023.2.3,Win32,30.12048193,,,,,,,,,,,,146.1695,0.0,146.1703,,,,148.4916,148.9893,147.988,148.4915,147.1754,120.0,147.9879,148.9893,149.4892,149.4893,149.8076,300.3,149.8078,1.0,150.8056,0.0,11.0,11.0,15.0,1.0,0.8,0.7,Time,
,,S15,1,,,anonymized,Serial_Dependence_U,2023.2.3,Win32,30.12048193,,,,,,,,,,,,150.806,0.0,150.8063,,,,153.5397,154.0314,153.0229,153.5396,151.8065,224.0,153.0227,154.0315,154.5209,154.521,158.9378,4399.1,158.9379,5.0,159.9291,0.0,12.0,12.0,2.0,1.0,1.2,0.3,Time,
,,S15,1,,,anonymized,Serial_Dependence_U,2023.2.3,Win32,30.12048193,,,,,,,,,,,,159.9296,0.0,159.9298,,,,162.879,163.3782,162.3622,162.8789,160.9462,274.0,162.3621,163.3782,163.8779,163.8779,164.4447,544.8,164.4449,1.0,165.4343,0.0,13.0,13.0,18.0,1.0,1.4,0.7,Time,
,,S15,1,,,anonymized,Serial_Dependence_U,2023.2.3,Win32,30.12048193,,,,,,,,,,,,165.4348,0.0,165.435,,,,167.9513,168.4502,167.4454,167.9512,166.4352,126.0,167.445,168.4502,168.95,168.95,174.1496,2009.1,174.1498,5.0,175.1474,0.0,14.0,14.0,1.0,1.0,1.0,0.3,Time,
,,S15,1,,,anonymized,Serial_Dependence_U,2023.2.3,Win32,30.12048193,,,,,,,,,,,,175.1479,0.0,175.1481,,,,178.2806,178.78,177.7646,178.2805,176.1485,313.0,177.7646,178.7801,179.2792,179.2794,180.2137,549.4,180.2139,1.0,181.2094,0.0,15.0,15.0,4.0,1.0,1.6,0.3,Time,
,,S15,1,,,anonymized,Serial_Dependence_U,2023.2.3,Win32,30.12048193,,,,,,,,,,,,181.2099,0.0,181.2101,,,,183.9292,184.4275,183.4127,183.9292,182.21,319.0,183.4126,184.4275,184.9275,184.9275,185.4788,65.10000002,185.4789,1.0,186.4767,0.0,16.0,16.0,27.0,1.0,1.2,0.7,Time,
,,S15,1,,,anonymized,Serial_Dependence_U,2023.2.3,Win32,30.12048193,,,,,,,,,,,,186.4772,0.0,186.4774,,,,189.2107,189.7027,188.6912,189.2106,187.478,333.0,188.691,189.7028,190.1928,190.1929,191.2603,1033.3,191.2604,2.0,192.2518,0.0,17.0,17.0,17.0,1.0,1.2,0.7,Time,
,,S15,1,,,anonymized,Serial_Dependence_U,2023.2.3,Win32,30.12048193,,,,,,,,,,,,192.2538,0.0,192.255,,,,195.1777,195.6706,194.6733,195.1776,193.2592,115.0,194.6732,195.6707,196.1678,196.1679,198.7664,205.1,198.7665,1.0,199.7658,0.0,18.0,18.0,3.0,1.0,1.4,0.3,Time,
,,S15,1,,,anonymized,Serial_Dependence_U,2023.2.3,Win32,30.12048193,,,,,,,,,,,,199.7664,0.0,199.7666,,,,202.5154,203.0148,201.9991,202.5154,200.7829,209.0,201.999,203.0148,203.5146,203.5147,205.4975,1716.1,205.4976,5.0,206.4969,0.0,19.0,19.0,12.0,1.0,1.2,0.3,Time,
,,S15,1,,,anonymized,Serial_Dependence_U,2023.2.3,Win32,30.12048193,,,,,,,,,,,,206.4975,0.0,206.4976,,,,209.6464,210.1457,209.13,209.6463,207.5139,295.0,209.1298,210.1458,210.6454,210.6455,210.6792,18.0,210.6794,1.0,211.6783,0.0,20.0,20.0,9.0,1.0,1.6,0.7,Time,
,,S15,1,,,anonymized,Serial_Dependence_U,2023.2.3,Win32,30.12048193,,,,,,,,,,,,211.6788,0.0,211.6792,,,,214.228,214.7272,213.7115,214.228,212.6953,319.0,213.7114,214.7273,215.2271,215.2271,217.8932,1288.3,217.8933,4.0,218.8928,0.0,21.0,21.0,11.0,1.0,1.0,0.3,Time,
,,S15,1,,,anonymized,Serial_Dependence_U,2023.2.3,Win32,30.12048193,,,,,,,,,,,,218.8933,0.0,218.8937,,,,221.842,222.3414,221.3255,221.842,219.9093,320.0,221.3254,222.3414,222.8413,222.8414,225.091,2180.9,225.0912,5.0,226.0904,0.0,22.0,22.0,28.0,1.0,1.4,0.7,Time,
,,S15,1,,,anonymized,Serial_Dependence_U,2023.2.3,Win32,30.12048193,,,,,,,,,,,,226.0909,0.0,226.0911,,,,228.84,229.3389,228.3233,228.8398,227.1072,195.0,228.3232,229.339,229.8393,229.8395,230.006,151.4,230.0061,1.0,231.0052,0.0,23.0,23.0,7.0,1.0,1.2,0.7,Time,
,,S15,1,,,anonymized,Serial_Dependence_U,2023.2.3,Win32,30.12048193,,,,,,,,,,,,231.0057,0.0,231.0059,,,,233.9548,234.454,233.4386,233.9547,232.0224,232.0,233.4385,234.454,234.9538,234.9539,236.7371,1664.1,236.7373,4.0,237.7361,0.0,24.0,24.0,23.0,1.0,1.4,0.3,Time,
,,S15,1,,,anonymized,Serial_Dependence_U,2023.2.3,Win32,30.12048193,,,,,,,,,,,,237.7367,0.0,237.7369,,,,240.8857,241.3851,240.3694,240.8856,238.7531,36.0,240.3693,241.3851,241.8848,241.8849,242.485,533.3,242.4851,1.0,243.4844,0.0,25.0,25.0,24.0,1.0,1.6,0.3,Time,
,,S15,1,,,anonymized,Serial_Dependence_U,2023.2.3,Win32,30.12048193,,,,,,,,,,,,243.4849,0.0,243.4851,,,,246.4339,246.933,245.9175,246.4339,244.5016,87.0,245.9174,246.933,247.4329,247.433,248.6664,1217.2,248.6667,2.0,249.6654,0.0,26.0,26.0,8.0,1.0,1.4,0.7,Time,
,,S15,1,,,anonymized,Serial_Dependence_U,2023.2.3,Win32,30.12048193,,,,,,,,,,,,249.6658,0.0,249.666,,,,252.0152,252.5146,251.4989,252.0152,250.6825,182.0,251.4988,252.5146,253.0143,253.0143,255.0582,2012.1,255.0587,5.0,256.054,0.0,27.0,27.0,0.0,1.0,0.8,0.3,Time,
,,S15,1,,,anonymized,Serial_Dependence_U,2023.2.3,Win32,30.12048193,,,,,,,,,,,,256.0546,0.0,256.0549,,,,258.7705,259.269,258.2645,258.7704,257.0544,91.0,258.264,259.269,259.7658,259.7658,261.42,1433.1,261.4202,4.0,262.4178,0.0,28.0,28.0,22.0,1.0,1.2,0.3,Time,
,,S15,1,,,anonymized,Serial_Dependence_U,2023.2.3,Win32,30.12048193,,,,,,,,,,,,262.4184,0.0,262.4186,,,,264.7487,265.2442,264.2462,264.7486,263.433,94.0,264.2458,265.2445,265.7338,265.7338,266.3179,549.3,266.318,1.0,267.3163,0.0,29.0,29.0,20.0,1.0,0.8,0.3,Time,
,,S15,1,,,anonymized,Serial_Dependence_U,2023.2.3,Win32,30.12048193,,,,,,,,,,,,267.3168,1.0,272.1143,s,4.7774,,274.8483,275.3467,274.3315,274.8482,273.1156,109.0,274.3315,275.3468,275.8469,275.847,275.8983,33.30000001,275.8987,1.0,276.8963,1.0,0.0,30.0,22.0,1.0,1.2,0.3,Time,
,,S15,1,,,anonymized,Serial_Dependence_U,2023.2.3,Win32,30.12048193,,,,,,,,,,,,276.8967,1.0,276.8979,,,,279.4132,279.9118,278.9002,279.4132,277.8977,291.0,278.9001,279.9118,280.4059,280.406,280.5639,117.1,280.564,1.0,281.5609,1.0,1.0,31.0,11.0,1.0,1.0,0.3,Time,
,,S15,1,,,anonymized,Serial_Dependence_U,2023.2.3,Win32,30.12048193,,,,,,,,,,,,281.5616,1.0,281.5618,,,,284.6782,285.1759,284.1735,284.6782,282.5627,8.0,284.1729,285.1759,285.6769,285.6769,285.9448,233.4,285.9449,1.0,286.9428,1.0,2.0,32.0,9.0,1.0,1.6,0.7,Time,
,,S15,1,,,anonymized,Serial_Dependence_U,2023.2.3,Win32,30.12048193,,,,,,,,,,,,286.9432,1.0,286.9435,,,,289.2591,289.7558,288.7574,289.2589,287.9438,140.0,288.7574,289.7558,290.2583,290.2584,291.5927,1315.4,291.5929,5.0,292.5922,1.0,3.0,33.0,15.0,1.0,0.8,0.7,Time,
,,S15,1,,,anonymized,Serial_Dependence_U,2023.2.3,Win32,30.12048193,,,,,,,,,,,,292.5926,1.0,292.5928,,,,295.5249,296.0234,295.008,295.5249,293.5925,227.0,295.0079,296.0234,296.5229,296.5229,298.454,1862.4,298.4542,5.0,299.4492,1.0,4.0,34.0,23.0,1.0,1.4,0.3,Time,
,,S15,1,,,anonymized,Serial_Dependence_U,2023.2.3,Win32,30.12048193,,,,,,,,,,,,299.4508,1.0,299.4518,,,,301.9724,302.4718,301.4696,301.9723,300.4567,30.0,301.4696,302.4718,302.9704,302.9705,304.3555,236.6,304.3557,1.0,305.3535,1.0,5.0,35.0,26.0,1.0,1.0,0.7,Time,
,,S15,1,,,anonymized,Serial_Dependence_U,2023.2.3,Win32,30.12048193,,,,,,,,,,,,305.3539,1.0,305.3542,,,,308.0964,308.5957,307.5798,308.0964,306.3635,280.0,307.5797,308.5957,309.0956,309.0957,311.2785,1605.3,311.2786,5.0,312.2778,1.0,6.0,36.0,17.0,1.0,1.2,0.7,Time,
,,S15,1,,,anonymized,Serial_Dependence_U,2023.2.3,Win32,30.12048193,,,,,,,,,,,,312.2784,1.0,312.2787,,,,315.218,315.7109,314.7041,315.2175,313.2949,153.0,314.704,315.7109,316.2127,316.2128,319.9426,1998.8,319.9427,5.0,320.9414,1.0,7.0,37.0,18.0,1.0,1.4,0.7,Time,
,,S15,1,,,anonymized,Serial_Dependence_U,2023.2.3,Win32,30.12048193,,,,,,,,,,,,320.942,1.0,320.9423,,,,323.2916,323.7907,322.7757,323.2915,321.9583,190.0,322.7754,323.7907,324.2903,324.2904,325.3405,1032.5,325.3408,4.0,326.3395,1.0,8.0,38.0,0.0,1.0,0.8,0.3,Time,
,,S15,1,,,anonymized,Serial_Dependence_U,2023.2.3,Win32,30.12048193,,,,,,,,,,,,326.3401,1.0,326.3404,,,,329.4892,329.9885,328.9728,329.4891,327.3566,291.0,328.9727,329.9885,330.4883,330.4883,330.7728,274.3,330.7731,1.0,331.7715,1.0,9.0,39.0,14.0,1.0,1.6,0.3,Time,
,,S15,1,,,anonymized,Serial_Dependence_U,2023.2.3,Win32,30.12048193,,,,,,,,,,,,331.7721,1.0,331.7726,,,,334.9208,335.4201,334.4046,334.9208,332.7882,273.0,334.4044,335.4201,335.92,335.92,337.3697,1349.2,337.3699,2.0,338.3691,1.0,10.0,40.0,19.0,1.0,1.6,0.7,Time,
,,S15,1,,,anonymized,Serial_Dependence_U,2023.2.3,Win32,30.12048193,,,,,,,,,,,,338.3698,1.0,338.3701,,,,341.1192,341.6179,340.6024,341.119,339.3858,213.0,340.6022,341.618,342.1178,342.1179,344.1672,1995.3,344.1673,5.0,345.1669,1.0,11.0,41.0,7.0,1.0,1.2,0.7,Time,
,,S15,1,,,anonymized,Serial_Dependence_U,2023.2.3,Win32,30.12048193,,,,,,,,,,,,345.1674,1.0,345.1676,,,,348.3163,348.8153,347.7997,348.3162,346.1837,67.0,347.7995,348.8154,349.3151,349.3151,350.2319,904.4,350.2331,1.0,351.2313,1.0,12.0,42.0,4.0,1.0,1.6,0.3,Time,
,,S15,1,,,anonymized,Serial_Dependence_U,2023.2.3,Win32,30.12048193,,,,,,,,,,,,351.232,1.0,351.2322,,,,353.5809,354.0803,353.0644,353.5809,352.2482,49.0,353.0643,354.0804,354.5801,354.5802,355.8132,1065.2,355.8134,5.0,356.8126,1.0,13.0,43.0,20.0,1.0,0.8,0.3,Time,
,,S15,1,,,anonymized,Serial_Dependence_U,2023.2.3,Win32,30.12048193,,,,,,,,,,,,356.8131,1.0,356.8135,,,,359.9455,360.4446,359.4292,359.9454,357.8132,71.0,359.4291,360.4447,360.9445,360.9447,362.4445,1483.7,362.4447,2.0,363.4439,1.0,14.0,44.0,29.0,1.0,1.6,0.7,Time,
,,S15,1,,,anonymized,Serial_Dependence_U,2023.2.3,Win32,30.12048193,,,,,,,,,,,,363.4443,1.0,363.4447,,,,366.1932,366.6929,365.6768,366.1932,364.4605,356.0,365.6768,366.6929,367.1925,367.1926,368.5092,839.1,368.5094,1.0,369.5085,1.0,15.0,45.0,12.0,1.0,1.2,0.3,Time,
,,S15,1,,,anonymized,Serial_Dependence_U,2023.2.3,Win32,30.12048193,,,,,,,,,,,,369.5089,1.0,369.5092,,,,372.058,372.5574,371.5417,372.0579,370.5252,240.0,371.5416,372.5574,373.0572,373.0574,374.8478,1506.5,374.8484,5.0,375.8402,1.0,16.0,46.0,16.0,1.0,1.0,0.7,Time,
,,S15,1,,,anonymized,Serial_Dependence_U,2023.2.3,Win32,30.12048193,,,,,,,,,,,,375.8407,1.0,375.841,,,,378.5797,379.0785,378.0628,378.5797,376.8607,155.0,378.0628,379.0785,379.5783,379.5783,380.696,1100.1,380.6961,2.0,381.6944,1.0,17.0,47.0,2.0,1.0,1.2,0.3,Time,
,,S15,1,,,anonymized,Serial_Dependence_U,2023.2.3,Win32,30.12048193,,,,,,,,,,,,381.6951,1.0,381.6954,,,,384.228,384.7269,383.7224,384.2278,382.7117,344.0,383.722,384.727,385.2266,385.2267,386.3107,769.1,386.3108,2.0,387.3059,1.0,18.0,48.0,6.0,1.0,1.0,0.7,Time,
,,S15,1,,,anonymized,Serial_Dependence_U,2023.2.3,Win32,30.12048193,,,,,,,,,,,,387.3063,1.0,387.3065,,,,390.4264,390.9243,389.9249,390.4263,388.3094,352.0,389.9249,390.9243,391.4178,391.4183,392.8253,1233.4,392.8256,2.0,393.8171,1.0,19.0,49.0,24.0,1.0,1.6,0.3,Time,
,,S15,1,,,anonymized,Serial_Dependence_U,2023.2.3,Win32,30.12048193,,,,,,,,,,,,393.8192,1.0,393.8199,,,,396.7371,397.2336,396.2235,396.737,394.8213,219.0,396.2234,397.2337,397.7329,397.7331,399.6563,1499.4,399.6564,4.0,400.6484,1.0,20.0,50.0,3.0,1.0,1.4,0.3,Time,
,,S15,1,,,anonymized,Serial_Dependence_U,2023.2.3,Win32,30.12048193,,,,,,,,,,,,400.6498,1.0,400.6509,,,,402.9856,403.4867,402.4723,402.9856,401.6553,206.0,402.4721,403.4867,403.9801,403.9803,405.9208,1499.2,405.9209,5.0,406.9189,1.0,21.0,51.0,10.0,1.0,0.8,0.3,Time,
,,S15,1,,,anonymized,Serial_Dependence_U,2023.2.3,Win32,30.12048193,,,,,,,,,,,,406.9194,1.0,406.9196,,,,409.8526,410.3512,409.3334,409.8526,407.9309,44.0,409.3334,410.3512,410.8514,410.8515,411.9687,1098.8,411.9688,2.0,412.9671,1.0,22.0,52.0,13.0,1.0,1.4,0.3,Time,
,,S15,1,,,anonymized,Serial_Dependence_U,2023.2.3,Win32,30.12048193,,,,,,,,,,,,412.9676,1.0,412.9678,,,,415.3008,415.7932,414.7837,415.3008,413.9813,154.0,414.7836,415.7933,416.2993,416.2994,417.8508,1432.5,417.851,5.0,418.8482,1.0,23.0,53.0,25.0,1.0,0.8,0.7,Time,
,,S15,1,,,anonymized,Serial_Dependence_U,2023.2.3,Win32,30.12048193,,,,,,,,,,,,418.8487,1.0,418.8489,,,,421.3838,421.8807,420.8662,421.3834,419.8493,179.0,420.866,421.8807,422.3805,422.3806,423.8651,1316.7,423.8653,5.0,424.8565,1.0,24.0,54.0,1.0,1.0,1.0,0.3,Time,
,,S15,1,,,anonymized,Serial_Dependence_U,2023.2.3,Win32,30.12048193,,,,,,,,,,,,424.8586,1.0,424.8598,,,,427.7972,428.2955,427.2805,427.7972,425.8637,5.0,427.2804,428.2955,428.7948,428.7948,430.2127,1149.3,430.2129,2.0,431.2106,1.0,25.0,55.0,8.0,1.0,1.4,0.7,Time,
,,S15,1,,,anonymized,Serial_Dependence_U,2023.2.3,Win32,30.12048193,,,,,,,,,,,,431.2111,1.0,431.2114,,,,433.7288,434.2201,433.2282,433.7287,432.2255,209.0,433.228,434.2203,434.7108,434.7109,435.1115,49.60000002,435.1123,1.0,436.1097,1.0,26.0,56.0,21.0,1.0,1.0,0.3,Time,
,,S15,1,,,anonymized,Serial_Dependence_U,2023.2.3,Win32,30.12048193,,,,,,,,,,,,436.1104,1.0,436.1106,,,,439.0573,439.5582,438.5425,439.0572,437.1263,269.0,438.5423,439.5582,440.0585,440.0586,440.9089,833.1,440.9091,1.0,441.9045,1.0,27.0,57.0,28.0,1.0,1.4,0.7,Time,
,,S15,1,,,anonymized,Serial_Dependence_U,2023.2.3,Win32,30.12048193,,,,,,,,,,,,441.9049,1.0,441.9051,,,,444.6414,445.1397,444.1245,444.6413,442.9085,296.0,444.1244,445.1397,445.6365,445.6366,447.057,1332.6,447.0571,4.0,448.0484,1.0,28.0,58.0,27.0,1.0,1.2,0.7,Time,
,,S15,1,,,anonymized,Serial_Dependence_U,2023.2.3,Win32,30.12048193,,,,,,,,,,,,448.0499,1.0,448.0509,,,,450.4055,450.9011,449.8894,450.4054,449.0727,88.0,449.8893,450.9011,451.4038,451.4039,451.9219,449.5,451.922,1.0,452.92,1.0,29.0,59.0,5.0,1.0,0.8,0.7,Time,
,,S15,1,,,anonymized,Serial_Dependence_U,2023.2.3,Win32,30.12048193,,,,,,,,,,,,452.9204,2.0,457.602,s,4.6627,,460.1369,460.6312,459.636,460.1368,458.6144,78.0,459.636,460.6313,461.1342,461.1342,461.4022,199.7,461.4025,1.0,462.4001,2.0,0.0,60.0,6.0,1.0,1.0,0.7,Time,
,,S15,1,,,anonymized,Serial_Dependence_U,2023.2.3,Win32,30.12048193,,,,,,,,,,,,462.4006,2.0,462.4021,,,,465.1345,465.6327,464.6181,465.1345,463.4157,70.0,464.618,465.6328,466.1323,466.1323,467.0003,849.3,467.0004,2.0,467.9921,2.0,1.0,61.0,27.0,1.0,1.2,0.7,Time,
,,S15,1,,,anonymized,Serial_Dependence_U,2023.2.3,Win32,30.12048193,,,,,,,,,,,,467.9946,2.0,467.9952,,,,470.9488,471.4473,470.4335,470.9487,469.0159,68.0,470.4334,471.4474,471.9474,471.9474,472.7989,400.3,472.799,1.0,473.7962,2.0,2.0,62.0,28.0,1.0,1.4,0.7,Time,
,,S15,1,,,anonymized,Serial_Dependence_U,2023.2.3,Win32,30.12048193,,,,,,,,,,,,473.7967,2.0,473.7968,,,,476.3302,476.8223,475.8136,476.3301,474.7974,75.0,475.8135,476.8224,477.323,477.3232,477.7629,259.2,477.7631,1.0,478.7553,2.0,3.0,63.0,1.0,1.0,1.0,0.3,Time,
,,S15,1,,,anonymized,Serial_Dependence_U,2023.2.3,Win32,30.12048193,,,,,,,,,,,,478.7577,2.0,478.7582,,,,481.0952,481.5934,480.5791,481.0951,479.7619,290.0,480.5791,481.5934,482.0937,482.0938,482.295,145.1,482.2951,1.0,483.2902,2.0,4.0,64.0,0.0,1.0,0.8,0.3,Time,
,,S15,1,,,anonymized,Serial_Dependence_U,2023.2.3,Win32,30.12048193,,,,,,,,,,,,483.2909,2.0,483.2912,,,,486.2435,486.7358,485.7272,486.2435,484.3105,95.0,485.7272,486.736,487.2406,487.2406,488.1929,932.6,488.1931,1.0,489.1915,2.0,5.0,65.0,8.0,1.0,1.4,0.7,Time,
,,S15,1,,,anonymized,Serial_Dependence_U,2023.2.3,Win32,30.12048193,,,,,,,,,,,,489.192,2.0,489.1922,,,,492.3248,492.817,491.8203,492.3248,490.2093,264.0,491.8201,492.8174,493.3064,493.3064,493.9747,633.5,493.975,1.0,494.9731,2.0,6.0,66.0,24.0,1.0,1.6,0.3,Time,
,,S15,1,,,anonymized,Serial_Dependence_U,2023.2.3,Win32,30.12048193,,,,,,,,,,,,494.9735,2.0,494.9737,,,,497.7059,498.1984,497.1892,497.7057,495.9745,56.0,497.1892,498.1984,498.6881,498.6882,499.9232,1027.7,499.9234,2.0,500.9211,2.0,7.0,67.0,7.0,1.0,1.2,0.7,Time,
,,S15,1,,,anonymized,Serial_Dependence_U,2023.2.3,Win32,30.12048193,,,,,,,,,,,,500.9216,2.0,500.9219,,,,503.8545,504.3524,503.3378,503.8545,501.9222,224.0,503.3377,504.3524,504.8529,504.8529,510.8691,9999.0,510.8693,0.0,511.8606,2.0,8.0,68.0,3.0,1.0,1.4,0.3,Time,
,,S15,1,,,anonymized,Serial_Dependence_U,2023.2.3,Win32,30.12048193,,,,,,,,,,,,511.8631,2.0,511.8636,,,,514.601,515.0991,514.0845,514.601,512.8684,198.0,514.0845,515.0991,515.5993,515.5993,520.0829,4149.5,520.0831,5.0,521.0802,2.0,9.0,69.0,2.0,1.0,1.2,0.3,Time,
,,S15,1,,,anonymized,Serial_Dependence_U,2023.2.3,Win32,30.12048193,,,,,,,,,,,,521.0806,2.0,521.0809,,,,524.1974,524.6958,523.6944,524.1973,522.0818,50.0,523.6943,524.6958,525.1958,525.1958,527.48,850.3,527.4802,1.0,528.4714,2.0,10.0,70.0,19.0,1.0,1.6,0.7,Time,
,,S15,1,,,anonymized,Serial_Dependence_U,2023.2.3,Win32,30.12048193,,,,,,,,,,,,528.4736,2.0,528.4745,,,,531.0126,531.5102,530.4957,531.0125,529.4793,35.0,530.4956,531.5103,532.0102,532.0102,535.6606,2216.3,535.6609,5.0,536.6587,2.0,11.0,71.0,26.0,1.0,1.0,0.7,Time,
,,S15,1,,,anonymized,Serial_Dependence_U,2023.2.3,Win32,30.12048193,,,,,,,,,,,,536.6591,2.0,536.6593,,,,539.5895,540.0908,539.0757,539.5895,537.6595,102.0,539.0756,540.0909,540.584,540.5842,540.7086,94.59999996,540.7086,1.0,541.7004,2.0,12.0,72.0,13.0,1.0,1.4,0.3,Time,
,,S15,1,,,anonymized,Serial_Dependence_U,2023.2.3,Win32,30.12048193,,,,,,,,,,,,541.7024,2.0,541.7036,,,,544.8581,545.3559,544.3404,544.8581,542.7253,83.0,544.3403,545.3559,545.8557,545.8558,547.5202,216.6,547.5203,1.0,548.5211,2.0,13.0,73.0,4.0,1.0,1.6,0.3,Time,
,,S15,1,,,anonymized,Serial_Dependence_U,2023.2.3,Win32,30.12048193,,,,,,,,,,,,548.5215,2.0,548.5217,,,,551.2547,551.7533,550.7392,551.2547,549.5221,332.0,550.7392,551.7533,552.2467,552.2469,553.1374,152.4,553.1376,1.0,554.1305,2.0,14.0,74.0,17.0,1.0,1.2,0.7,Time,
,,S15,1,,,anonymized,Serial_Dependence_U,2023.2.3,Win32,30.12048193,,,,,,,,,,,,554.1328,2.0,554.133,,,,556.4901,556.9781,555.9734,556.4901,555.1567,296.0,555.9733,556.9782,557.4685,557.4685,558.6691,783.1,558.6694,3.0,559.6615,2.0,15.0,75.0,5.0,1.0,0.8,0.7,Time,
,,S15,1,,,anonymized,Serial_Dependence_U,2023.2.3,Win32,30.12048193,,,,,,,,,,,,559.6642,2.0,559.6645,,,,562.201,562.6995,561.6844,562.201,560.6686,136.0,561.6844,562.6995,563.1937,563.1941,564.9839,1432.5,564.9841,5.0,565.9817,2.0,16.0,76.0,21.0,1.0,1.0,0.3,Time,
,,S15,1,,,anonymized,Serial_Dependence_U,2023.2.3,Win32,30.12048193,,,,,,,,,,,,565.9822,2.0,565.9824,,,,569.1153,569.6139,568.599,569.1153,566.9827,193.0,568.5989,569.6139,570.1141,570.1141,571.1648,1032.8,571.1649,1.0,572.1631,2.0,17.0,77.0,14.0,1.0,1.6,0.3,Time,
,,S15,1,,,anonymized,Serial_Dependence_U,2023.2.3,Win32,30.12048193,,,,,,,,,,,,572.1636,2.0,572.1638,,,,575.2772,575.7759,574.7633,575.2771,573.162,158.0,574.7633,575.776,576.2788,576.2788,577.6126,1298.8,577.6127,2.0,578.6044,2.0,18.0,78.0,9.0,1.0,1.6,0.7,Time,
,,S15,1,,,anonymized,Serial_Dependence_U,2023.2.3,Win32,30.12048193,,,,,,,,,,,,578.6063,2.0,578.6074,,,,581.3442,581.8404,580.8279,581.3442,579.6237,158.0,580.8279,581.8405,582.3431,582.3432,583.6779,1316.4,583.6781,4.0,584.6751,2.0,19.0,79.0,22.0,1.0,1.2,0.3,Time,
,,S15,1,,,anonymized,Serial_Dependence_U,2023.2.3,Win32,30.12048193,,,,,,,,,,,,584.6757,2.0,584.676,,,,587.0261,587.5243,586.5093,587.026,585.6934,250.0,586.5093,587.5243,588.0245,588.0245,588.126,84.30000001,588.1262,1.0,589.1179,2.0,20.0,80.0,20.0,1.0,0.8,0.3,Time,
,,S15,1,,,anonymized,Serial_Dependence_U,2023.2.3,Win32,30.12048193,,,,,,,,,,,,589.1197,2.0,589.1206,,,,591.4739,591.9736,590.9585,591.4738,590.1415,72.0,590.9584,591.9736,592.4734,592.4735,592.6409,139.8,592.6411,1.0,593.6391,2.0,21.0,81.0,10.0,1.0,0.8,0.3,Time,
,,S15,1,,,anonymized,Serial_Dependence_U,2023.2.3,Win32,30.12048193,,,,,,,,,,,,593.6396,2.0,593.6398,,,,595.9573,596.4543,595.4407,595.9571,594.6373,153.0,595.4401,596.4543,596.9554,596.9554,597.4563,483.2,597.4566,1.0,598.4481,2.0,22.0,82.0,25.0,1.0,0.8,0.7,Time,
,,S15,1,,,anonymized,Serial_Dependence_U,2023.2.3,Win32,30.12048193,,,,,,,,,,,,598.4505,2.0,598.4509,,,,601.3882,601.8865,600.8708,601.3882,599.4552,43.0,600.8708,601.8866,602.3862,602.3863,603.1709,766.3,603.1711,1.0,604.166,2.0,23.0,83.0,18.0,1.0,1.4,0.7,Time,
,,S15,1,,,anonymized,Serial_Dependence_U,2023.2.3,Win32,30.12048193,,,,,,,,,,,,604.1665,2.0,604.1668,,,,606.5198,607.0182,605.9998,606.5196,605.187,197.0,605.9997,607.0183,607.5183,607.5184,608.069,516.2,608.069,1.0,609.0609,2.0,24.0,84.0,15.0,1.0,0.8,0.7,Time,
,,S15,1,,,anonymized,Serial_Dependence_U,2023.2.3,Win32,30.12048193,,,,,,,,,,,,609.063,2.0,609.0641,,,,611.7852,612.2767,611.2846,611.7852,610.0682,154.0,611.2844,612.2768,612.7664,612.7664,614.2173,1416.4,614.2175,4.0,615.2117,2.0,25.0,85.0,12.0,1.0,1.2,0.3,Time,
,,S15,1,,,anonymized,Serial_Dependence_U,2023.2.3,Win32,30.12048193,,,,,,,,,,,,615.2123,2.0,615.2125,,,,617.7655,618.2577,617.2493,617.7655,616.2284,182.0,617.2492,618.2578,618.7478,618.7478,620.232,1449.6,620.2324,5.0,621.2299,2.0,26.0,86.0,16.0,1.0,1.0,0.7,Time,
,,S15,1,,,anonymized,Serial_Dependence_U,2023.2.3,Win32,30.12048193,,,,,,,,,,,,621.2303,2.0,621.2304,,,,623.7624,624.2623,623.2575,623.7624,622.2476,57.0,623.2572,624.2623,624.7555,624.7556,627.08,1883.4,627.0801,5.0,628.0778,2.0,27.0,87.0,11.0,1.0,1.0,0.3,Time,
,,S15,1,,,anonymized,Serial_Dependence_U,2023.2.3,Win32,30.12048193,,,,,,,,,,,,628.0783,2.0,628.0785,,,,630.9944,631.4935,630.4933,630.9943,629.0785,105.0,630.4933,631.4935,631.9935,631.9936,633.7273,1683.0,633.7275,4.0,634.726,2.0,28.0,88.0,23.0,1.0,1.4,0.3,Time,
,,S15,1,,,anonymized,Serial_Dependence_U,2023.2.3,Win32,30.12048193,,,,,,,,,,,,634.7266,2.0,634.727,,,,637.8589,638.3513,637.343,637.8588,635.7267,147.0,637.3428,638.3515,638.8409,638.841,642.241,3349.3,642.2411,5.0,643.2331,2.0,29.0,89.0,29.0,1.0,1.6,0.7,Time,
,,S15,1,,,anonymized,Serial_Dependence_U,2023.2.3,Win32,30.12048193,,,,,,,,,,,,643.235,3.0,647.1387,s,3.8826,,649.6885,650.1871,649.1723,649.6884,648.1554,84.0,649.1721,650.1871,650.6873,650.6873,651.4877,782.5,651.4879,2.0,652.4793,3.0,0.0,90.0,11.0,1.0,1.0,0.3,Time,
,,S15,1,,,anonymized,Serial_Dependence_U,2023.2.3,Win32,30.12048193,,,,,,,,,,,,652.4797,3.0,652.4823,,,,655.429,655.9283,654.9125,655.4288,653.4964,267.0,654.9124,655.9283,656.4281,656.4282,657.4782,1038.7,657.4783,2.0,658.4775,3.0,1.0,91.0,28.0,1.0,1.4,0.7,Time,
,,S15,1,,,anonymized,Serial_Dependence_U,2023.2.3,Win32,30.12048193,,,,,,,,,,,,658.4779,3.0,658.4781,,,,661.6271,662.1261,661.1103,661.627,659.4945,340.0,661.1102,662.1263,662.6259,662.6259,664.3257,1689.2,664.3258,4.0,665.3153,3.0,2.0,92.0,19.0,1.0,1.6,0.7,Time,
,,S15,1,,,anonymized,Serial_Dependence_U,2023.2.3,Win32,30.12048193,,,,,,,,,,,,665.3156,3.0,665.3158,,,,668.4618,668.9637,667.9486,668.4618,666.3321,94.0,667.9484,668.9637,669.464,669.4641,672.0779,2579.8,672.0781,5.0,673.0725,3.0,3.0,93.0,24.0,1.0,1.6,0.3,Time,
,,S15,1,,,anonymized,Serial_Dependence_U,2023.2.3,Win32,30.12048193,,,,,,,,,,,,673.0729,3.0,673.0733,,,,676.0154,676.5118,675.5006,676.0154,674.0903,315.0,675.5005,676.5118,677.0107,677.0107,678.6292,1599.4,678.6293,4.0,679.6271,3.0,4.0,94.0,3.0,1.0,1.4,0.3,Time,
,,S15,1,,,anonymized,Serial_Dependence_U,2023.2.3,Win32,30.12048193,,,,,,,,,,,,679.6278,3.0,679.6281,,,,681.9748,682.4696,681.4607,681.9747,680.6443,161.0,681.4606,682.4697,682.9599,682.96,684.6939,1683.2,684.6941,5.0,685.6849,3.0,5.0,95.0,15.0,1.0,0.8,0.7,Time,
,,S15,1,,,anonymized,Serial_Dependence_U,2023.2.3,Win32,30.12048193,,,,,,,,,,,,685.6865,3.0,685.6875,,,,688.4262,688.9173,687.9088,688.4261,686.6928,256.0,687.9087,688.9174,689.4078,689.4078,691.0084,1566.9,691.0086,5.0,692.006,3.0,6.0,96.0,17.0,1.0,1.2,0.7,Time,
,,S15,1,,,anonymized,Serial_Dependence_U,2023.2.3,Win32,30.12048193,,,,,,,,,,,,692.0064,3.0,692.0066,,,,695.1393,695.6384,694.623,695.1393,693.0071,260.0,694.623,695.6384,696.1386,696.1386,697.9553,1782.4,697.9556,4.0,698.9471,3.0,7.0,97.0,29.0,1.0,1.6,0.7,Time,
,,S15,1,,,anonymized,Serial_Dependence_U,2023.2.3,Win32,30.12048193,,,,,,,,,,,,698.9475,3.0,698.9478,,,,701.4967,701.9959,700.9803,701.4966,699.9638,178.0,700.9801,701.9959,702.4959,702.496,704.4955,1977.4,704.4957,5.0,705.5004,3.0,8.0,98.0,1.0,1.0,1.0,0.3,Time,
,,S15,1,,,anonymized,Serial_Dependence_U,2023.2.3,Win32,30.12048193,,,,,,,,,,,,705.5008,3.0,705.501,,,,708.2349,708.7344,707.7184,708.2348,706.5023,180.0,707.7184,708.7345,709.2276,709.2278,711.4676,2215.8,711.4677,5.0,712.4595,3.0,9.0,99.0,22.0,1.0,1.2,0.3,Time,
,,S15,1,,,anonymized,Serial_Dependence_U,2023.2.3,Win32,30.12048193,,,,,,,,,,,,712.4624,3.0,712.4627,,,,715.1823,715.675,714.6662,715.1822,713.4643,287.0,714.6662,715.6751,716.1653,716.1653,717.816,1616.5,717.8161,5.0,718.814,3.0,10.0,100.0,2.0,1.0,1.2,0.3,Time,
,,S15,1,,,anonymized,Serial_Dependence_U,2023.2.3,Win32,30.12048193,,,,,,,,,,,,718.8145,3.0,718.8147,,,,721.5307,722.03,721.025,721.5307,719.8145,286.0,721.0246,722.03,722.5294,722.5294,723.5312,967.3,723.5314,2.0,724.5281,3.0,11.0,101.0,7.0,1.0,1.2,0.7,Time,
,,S15,1,,,anonymized,Serial_Dependence_U,2023.2.3,Win32,30.12048193,,,,,,,,,,,,724.5286,3.0,724.5289,,,,726.862,727.3608,726.3455,726.862,725.5294,163.0,726.3454,727.3608,727.8607,727.8607,728.6616,783.1,728.6618,3.0,729.6538,3.0,12.0,102.0,10.0,1.0,0.8,0.3,Time,
,,S15,1,,,anonymized,Serial_Dependence_U,2023.2.3,Win32,30.12048193,,,,,,,,,,,,729.6559,3.0,729.6565,,,,732.1936,732.6866,731.6779,732.1935,730.6609,234.0,731.6779,732.6867,733.1757,733.1758,734.3271,1132.5,734.3272,4.0,735.3268,3.0,13.0,103.0,16.0,1.0,1.0,0.7,Time,
,,S15,1,,,anonymized,Serial_Dependence_U,2023.2.3,Win32,30.12048193,,,,,,,,,,,,735.3277,3.0,735.3283,,,,737.6593,738.1576,737.1588,737.6592,736.3422,317.0,737.1587,738.1576,738.6582,738.6582,740.5581,1533.7,740.5584,5.0,741.5527,3.0,14.0,104.0,25.0,1.0,0.8,0.7,Time,
,,S15,1,,,anonymized,Serial_Dependence_U,2023.2.3,Win32,30.12048193,,,,,,,,,,,,741.5531,3.0,741.5534,,,,744.2895,744.7881,743.7739,744.2894,742.5568,238.0,743.7739,744.7881,745.2883,745.2884,746.4892,849.7,746.4894,2.0,747.4809,3.0,15.0,105.0,12.0,1.0,1.2,0.3,Time,
,,S15,1,,,anonymized,Serial_Dependence_U,2023.2.3,Win32,30.12048193,,,,,,,,,,,,747.4825,3.0,747.4836,,,,749.8051,750.3034,749.3042,749.8051,748.4884,192.0,749.3041,750.3035,750.8027,750.8028,752.1878,1250.0,752.188,5.0,753.1795,3.0,16.0,106.0,0.0,1.0,0.8,0.3,Time,
,,S15,1,,,anonymized,Serial_Dependence_U,2023.2.3,Win32,30.12048193,,,,,,,,,,,,753.1818,3.0,753.1821,,,,755.5024,755.9945,755.0001,755.5024,754.1972,348.0,755.0,755.9946,756.4846,756.4846,757.8692,1200.0,757.8694,5.0,758.8671,3.0,17.0,107.0,5.0,1.0,0.8,0.7,Time,
,,S15,1,,,anonymized,Serial_Dependence_U,2023.2.3,Win32,30.12048193,,,,,,,,,,,,758.8677,3.0,758.8679,,,,761.3835,761.883,760.8809,761.3835,759.8678,306.0,760.8809,761.8831,762.3822,762.3822,764.6162,1935.8,764.6164,5.0,765.6079,3.0,18.0,108.0,26.0,1.0,1.0,0.7,Time,
,,S15,1,,,anonymized,Serial_Dependence_U,2023.2.3,Win32,30.12048193,,,,,,,,,,,,765.6095,3.0,765.6105,,,,768.7648,769.2629,768.248,768.7648,766.632,230.0,768.2478,769.2629,769.7629,769.7629,770.9636,1182.5,770.9638,2.0,771.9562,3.0,19.0,109.0,4.0,1.0,1.6,0.3,Time,
,,S15,1,,,anonymized,Serial_Dependence_U,2023.2.3,Win32,30.12048193,,,,,,,,,,,,771.9581,3.0,771.9589,,,,774.4961,774.9943,773.9798,774.496,772.9633,213.0,773.9797,774.9944,775.4945,775.4945,777.3786,1866.1,777.3788,5.0,778.3707,3.0,20.0,110.0,6.0,1.0,1.0,0.7,Time,
,,S15,1,,,anonymized,Serial_Dependence_U,2023.2.3,Win32,30.12048193,,,,,,,,,,,,778.3729,3.0,778.3736,,,,781.2937,781.7925,780.7912,781.2937,779.3777,261.0,780.791,781.7925,782.2928,782.2928,783.6765,1361.2,783.6767,3.0,784.6681,3.0,21.0,111.0,8.0,1.0,1.4,0.7,Time,
,,S15,1,,,anonymized,Serial_Dependence_U,2023.2.3,Win32,30.12048193,,,,,,,,,,,,784.6696,3.0,784.6709,,,,787.8247,788.3239,787.3084,787.8246,785.6919,57.0,787.3084,788.324,788.8234,788.8234,790.8911,2015.8,790.8912,4.0,791.8888,3.0,22.0,112.0,14.0,1.0,1.6,0.3,Time,
,,S15,1,,,anonymized,Serial_Dependence_U,2023.2.3,Win32,30.12048193,,,,,,,,,,,,791.8894,3.0,791.8897,,,,795.0435,795.5412,794.5354,795.0433,792.8894,70.0,794.5353,795.5412,796.0388,796.0388,797.5055,1431.2,797.5056,2.0,798.5035,3.0,23.0,113.0,9.0,1.0,1.6,0.7,Time,
,,S15,1,,,anonymized,Serial_Dependence_U,2023.2.3,Win32,30.12048193,,,,,,,,,,,,798.5038,3.0,798.5041,,,,801.4379,801.9358,800.9205,801.4377,799.5043,57.0,800.9204,801.9358,802.4354,802.4355,803.5368,1083.6,803.537,2.0,804.5358,3.0,24.0,114.0,23.0,1.0,1.4,0.3,Time,
,,S15,1,,,anonymized,Serial_Dependence_U,2023.2.3,Win32,30.12048193,,,,,,,,,,,,804.5362,3.0,804.5364,,,,806.8507,807.351,806.3465,806.8506,805.5361,159.0,806.3458,807.351,807.8508,807.8508,809.3851,1515.9,809.3853,5.0,810.3825,3.0,25.0,115.0,20.0,1.0,0.8,0.3,Time,
,,S15,1,,,anonymized,Serial_Dependence_U,2023.2.3,Win32,30.12048193,,,,,,,,,,,,810.3829,3.0,810.3832,,,,812.9167,813.4153,812.4002,812.9166,811.3835,89.0,812.4001,813.4154,813.9153,813.9154,815.7582,1820.6,815.7585,5.0,816.7572,3.0,26.0,116.0,21.0,1.0,1.0,0.3,Time,
,,S15,1,,,anonymized,Serial_Dependence_U,2023.2.3,Win32,30.12048193,,,,,,,,,,,,816.7578,3.0,816.7581,,,,819.7067,820.206,819.1901,819.7067,817.7739,220.0,819.19,820.206,820.7057,820.7057,822.056,1333.1,822.056,3.0,823.0552,3.0,27.0,117.0,18.0,1.0,1.4,0.7,Time,
,,S15,1,,,anonymized,Serial_Dependence_U,2023.2.3,Win32,30.12048193,,,,,,,,,,,,823.0557,3.0,823.0559,,,,826.0045,826.504,825.4882,826.0045,824.0721,189.0,825.4882,826.504,827.0039,827.004,828.637,149.3,828.6372,1.0,829.6363,3.0,28.0,118.0,13.0,1.0,1.4,0.3,Time,
,,S15,1,,,anonymized,Serial_Dependence_U,2023.2.3,Win32,30.12048193,,,,,,,,,,,,829.6369,3.0,829.6372,,,,832.3858,832.885,831.8695,832.3858,830.6534,227.0,831.8694,832.885,833.3848,833.3848,834.6516,133.3,834.6518,1.0,835.6508,3.0,29.0,119.0,27.0,1.0,1.2,0.7,Time,
,,S15,1,,,anonymized,Serial_Dependence_U,2023.2.3,Win32,30.12048193,,,,,,,,,,,,835.6512,4.0,838.4168,s,2.745,,841.5662,842.0652,841.0496,841.5661,839.4333,94.0,841.0495,842.0652,842.5652,842.5653,843.3987,271.1,843.3989,1.0,844.3979,4.0,0.0,120.0,29.0,1.0,1.6,0.7,Time,
,,S15,1,,,anonymized,Serial_Dependence_U,2023.2.3,Win32,30.12048193,,,,,,,,,,,,844.3983,4.0,844.4001,,,,847.1473,847.6466,846.6311,847.1473,845.4148,123.0,846.6311,847.6466,848.1464,848.1465,848.8635,683.4,848.8636,1.0,849.8626,4.0,1.0,121.0,2.0,1.0,1.2,0.3,Time,
,,S15,1,,,anonymized,Serial_Dependence_U,2023.2.3,Win32,30.12048193,,,,,,,,,,,,849.8631,4.0,849.8634,,,,852.6124,853.1115,852.0958,852.6123,850.8796,29.0,852.0958,853.1116,853.6114,853.6114,854.1947,547.2,854.1951,1.0,855.1865,4.0,2.0,122.0,12.0,1.0,1.2,0.3,Time,
,,S15,1,,,anonymized,Serial_Dependence_U,2023.2.3,Win32,30.12048193,,,,,,,,,,,,855.1877,4.0,855.1883,,,,857.7344,858.2267,857.218,857.7344,856.1972,90.0,857.2179,858.2268,858.7152,858.7153,860.6168,1548.9,860.6169,5.0,861.6088,4.0,3.0,123.0,11.0,1.0,1.0,0.3,Time,
,,S15,1,,,anonymized,Serial_Dependence_U,2023.2.3,Win32,30.12048193,,,,,,,,,,,,861.6102,4.0,861.6111,,,,864.1661,864.6643,863.6442,864.166,862.6268,255.0,863.6429,864.6644,865.1641,865.1641,867.3315,1807.4,867.3317,5.0,868.3233,4.0,4.0,124.0,16.0,1.0,1.0,0.7,Time,
,,S15,1,,,anonymized,Serial_Dependence_U,2023.2.3,Win32,30.12048193,,,,,,,,,,,,868.3252,4.0,868.326,,,,870.8467,871.3397,870.3414,870.8467,869.3304,172.0,870.341,871.3397,871.8389,871.8391,874.3295,1059.1,874.3298,4.0,875.3273,4.0,5.0,125.0,26.0,1.0,1.0,0.7,Time,
,,S15,1,,,anonymized,Serial_Dependence_U,2023.2.3,Win32,30.12048193,,,,,,,,,,,,875.3277,4.0,875.328,,,,878.2777,878.7729,877.7616,878.2777,876.3444,148.0,877.7615,878.7729,879.2731,879.2731,880.2774,816.5,880.2776,1.0,881.2756,4.0,6.0,126.0,18.0,1.0,1.4,0.7,Time,
,,S15,1,,,anonymized,Serial_Dependence_U,2023.2.3,Win32,30.12048193,,,,,,,,,,,,881.276,4.0,881.2762,,,,884.2091,884.701,883.6922,884.2091,882.2764,15.0,883.6922,884.7011,885.1895,885.1896,886.3088,983.2,886.3091,2.0,887.3001,4.0,7.0,127.0,8.0,1.0,1.4,0.7,Time,
,,S15,1,,,anonymized,Serial_Dependence_U,2023.2.3,Win32,30.12048193,,,,,,,,,,,,887.3015,4.0,887.3029,,,,889.8236,890.3226,889.3225,889.8235,888.3076,277.0,889.3224,890.3227,890.8219,890.822,892.5565,1682.4,892.5569,5.0,893.5484,4.0,8.0,128.0,6.0,1.0,1.0,0.7,Time,
,,S15,1,,,anonymized,Serial_Dependence_U,2023.2.3,Win32,30.12048193,,,,,,,,,,,,893.55,4.0,893.551,,,,896.7046,897.1967,896.1831,896.7046,894.573,40.0,896.1828,897.1967,897.6866,897.6866,899.8707,2016.4,899.8709,4.0,900.8629,4.0,9.0,129.0,9.0,1.0,1.6,0.7,Time,
,,S15,1,,,anonymized,Serial_Dependence_U,2023.2.3,Win32,30.12048193,,,,,,,,,,,,900.865,4.0,900.8656,,,,903.1995,903.6946,902.6863,903.1995,901.87,6.0,902.6863,903.6947,904.1845,904.1846,907.4517,1449.5,907.4519,5.0,908.4466,4.0,10.0,130.0,10.0,1.0,0.8,0.3,Time,
,,S15,1,,,anonymized,Serial_Dependence_U,2023.2.3,Win32,30.12048193,,,,,,,,,,,,908.4469,4.0,908.4471,,,,910.7832,911.2787,910.2667,910.7831,909.451,143.0,910.2666,911.2787,911.7814,911.7814,912.1507,150.8,912.1509,1.0,913.1486,4.0,11.0,131.0,20.0,1.0,0.8,0.3,Time,
,,S15,1,,,anonymized,Serial_Dependence_U,2023.2.3,Win32,30.12048193,,,,,,,,,,,,913.149,4.0,913.1493,,,,916.0746,916.5669,915.5621,916.0744,914.1491,230.0,915.562,916.5669,917.0643,917.0643,917.232,150.7,917.2321,1.0,918.2296,4.0,12.0,132.0,28.0,1.0,1.4,0.7,Time,
,,S15,1,,,anonymized,Serial_Dependence_U,2023.2.3,Win32,30.12048193,,,,,,,,,,,,918.23,4.0,918.2302,,,,921.1638,921.6615,920.6473,921.1637,919.2307,213.0,920.6472,921.6616,922.1617,922.1617,923.6628,1332.4,923.663,3.0,924.6577,4.0,13.0,133.0,23.0,1.0,1.4,0.3,Time,
,,S15,1,,,anonymized,Serial_Dependence_U,2023.2.3,Win32,30.12048193,,,,,,,,,,,,924.6581,4.0,924.6583,,,,927.7793,928.2698,927.278,927.7793,925.6623,34.0,927.2779,928.2698,928.7763,928.7763,931.86,3049.0,931.8601,5.0,932.858,4.0,14.0,134.0,4.0,1.0,1.6,0.3,Time,
,,S15,1,,,anonymized,Serial_Dependence_U,2023.2.3,Win32,30.12048193,,,,,,,,,,,,932.8586,4.0,932.8589,,,,935.9888,936.4899,935.4748,935.9887,933.8699,334.0,935.4748,936.4899,936.9832,936.9833,942.9891,9999.0,942.9892,0.0,943.9875,4.0,15.0,135.0,14.0,1.0,1.6,0.3,Time,
,,S15,1,,,anonymized,Serial_Dependence_U,2023.2.3,Win32,30.12048193,,,,,,,,,,,,943.988,4.0,943.9882,,,,947.1211,947.6194,946.6045,947.121,944.9883,193.0,946.6045,947.6194,948.1193,948.1194,949.8367,1632.6,949.8369,3.0,950.8352,4.0,16.0,136.0,19.0,1.0,1.6,0.7,Time,
,,S15,1,,,anonymized,Serial_Dependence_U,2023.2.3,Win32,30.12048193,,,,,,,,,,,,950.8356,4.0,950.8358,,,,953.9694,954.4685,953.4521,953.9694,951.8361,200.0,953.452,954.4685,954.9683,954.9683,955.4692,483.8,955.4693,1.0,956.4667,4.0,17.0,137.0,24.0,1.0,1.6,0.3,Time,
,,S15,1,,,anonymized,Serial_Dependence_U,2023.2.3,Win32,30.12048193,,,,,,,,,,,,956.4672,4.0,956.4675,,,,959.217,959.7155,958.7007,959.2169,957.4848,114.0,958.7006,959.7155,960.2153,960.2153,961.5326,1165.7,961.5327,3.0,962.5248,4.0,18.0,138.0,7.0,1.0,1.2,0.7,Time,
,,S15,1,,,anonymized,Serial_Dependence_U,2023.2.3,Win32,30.12048193,,,,,,,,,,,,962.5264,4.0,962.5274,,,,964.8648,965.3635,964.3487,964.8648,963.5324,135.0,964.3487,965.3635,965.8632,965.8632,965.998,116.5,965.9982,1.0,966.9935,4.0,19.0,139.0,0.0,1.0,0.8,0.3,Time,
,,S15,1,,,anonymized,Serial_Dependence_U,2023.2.3,Win32,30.12048193,,,,,,,,,,,,966.9938,4.0,966.9941,,,,969.747,970.2387,969.2305,969.747,968.0134,52.0,969.2304,970.2387,970.729,970.729,971.2965,149.5,971.2968,1.0,972.2882,4.0,20.0,140.0,22.0,1.0,1.2,0.3,Time,
,,S15,1,,,anonymized,Serial_Dependence_U,2023.2.3,Win32,30.12048193,,,,,,,,,,,,972.2898,4.0,972.2909,,,,975.2308,975.7214,974.7135,975.2307,973.2955,114.0,974.7134,975.7215,976.2201,976.2202,976.8772,162.6,976.8775,1.0,977.8758,4.0,21.0,141.0,13.0,1.0,1.4,0.3,Time,
,,S15,1,,,anonymized,Serial_Dependence_U,2023.2.3,Win32,30.12048193,,,,,,,,,,,,977.8762,4.0,977.8764,,,,980.4105,980.9089,979.8938,980.4103,978.8771,76.0,979.8938,980.9089,981.4081,981.4081,984.1091,1766.3,984.1093,5.0,985.1071,4.0,22.0,142.0,21.0,1.0,1.0,0.3,Time,
,,S15,1,,,anonymized,Serial_Dependence_U,2023.2.3,Win32,30.12048193,,,,,,,,,,,,985.1074,4.0,985.1077,,,,988.0236,988.5224,987.5212,988.0236,986.1079,196.0,987.5211,988.5224,989.0229,989.0229,990.3579,1316.7,990.3581,2.0,991.3486,4.0,23.0,143.0,3.0,1.0,1.4,0.3,Time,
,,S15,1,,,anonymized,Serial_Dependence_U,2023.2.3,Win32,30.12048193,,,,,,,,,,,,991.3504,4.0,991.3513,,,,993.6834,994.1807,993.1718,993.683,992.3558,96.0,993.1717,994.1808,994.6709,994.6709,996.4382,1732.6,996.4384,5.0,997.4296,4.0,24.0,144.0,25.0,1.0,0.8,0.7,Time,
,,S15,1,,,anonymized,Serial_Dependence_U,2023.2.3,Win32,30.12048193,,,,,,,,,,,,997.4314,4.0,997.4326,,,,999.7531,1000.2454,999.2504,999.7531,998.437,74.0,999.2503,1000.2456,1000.7356,1000.7356,1002.2861,1532.4,1002.2863,5.0,1003.2778,4.0,25.0,145.0,5.0,1.0,0.8,0.7,Time,
,,S15,1,,,anonymized,Serial_Dependence_U,2023.2.3,Win32,30.12048193,,,,,,,,,,,,1003.2795,4.0,1003.2805,,,,1005.802,1006.3005,1005.3007,1005.8019,1004.299,43.0,1005.3007,1006.3006,1006.8,1006.8001,1009.0337,2182.2,1009.0339,5.0,1010.0317,4.0,26.0,146.0,1.0,1.0,1.0,0.3,Time,
,,S15,1,,,anonymized,Serial_Dependence_U,2023.2.3,Win32,30.12048193,,,,,,,,,,,,1010.0323,4.0,1010.0325,,,,1012.3496,1012.8415,1011.8469,1012.3495,1011.033,11.0,1011.8468,1012.8416,1013.3314,1013.3314,1014.8151,1449.3,1014.8153,5.0,1015.8068,4.0,27.0,147.0,15.0,1.0,0.8,0.7,Time,
,,S15,1,,,anonymized,Serial_Dependence_U,2023.2.3,Win32,30.12048193,,,,,,,,,,,,1015.8088,4.0,1015.8096,,,,1018.5469,1019.039,1018.041,1018.5467,1016.8278,181.0,1018.0407,1019.0391,1019.5429,1019.543,1021.8125,1982.3,1021.8126,5.0,1022.8044,4.0,28.0,148.0,27.0,1.0,1.2,0.7,Time,
,,S15,1,,,anonymized,Serial_Dependence_U,2023.2.3,Win32,30.12048193,,,,,,,,,,,,1022.8062,4.0,1022.8073,,,,1025.5446,1026.0433,1025.0288,1025.5445,1023.8118,292.0,1025.0287,1026.0433,1026.5432,1026.5432,1028.9777,2236.6,1028.9778,5.0,1029.9747,4.0,29.0,149.0,17.0,1.0,1.2,0.7,Time,
,,S15,1,,,anonymized,Serial_Dependence_U,2023.2.3,Win32,30.12048193,,,,,,,,,,,,1029.9753,5.0,1031.9076,s,1.9119,,1035.0302,1035.5245,1034.5138,1035.0302,1032.9083,12.0,1034.5137,1035.5245,1036.0242,1036.0242,1037.8406,1308.8,1037.8408,2.0,1038.839,5.0,0.0,150.0,14.0,1.0,1.6,0.3,Time,
,,S15,1,,,anonymized,Serial_Dependence_U,2023.2.3,Win32,30.12048193,,,,,,,,,,,,1038.8394,5.0,1038.8405,,,,1041.5723,1042.071,1041.0557,1041.5722,1039.8391,159.0,1041.0556,1042.071,1042.568,1042.568,1044.8546,2265.4,1044.8548,5.0,1045.8466,5.0,1.0,151.0,17.0,1.0,1.2,0.7,Time,
,,S15,1,,,anonymized,Serial_Dependence_U,2023.2.3,Win32,30.12048193,,,,,,,,,,,,1045.8483,5.0,1045.8494,,,,1048.1694,1048.6686,1047.6674,1048.1693,1046.8541,348.0,1047.6673,1048.6687,1049.1686,1049.1686,1050.0869,769.3,1050.0871,3.0,1051.0849,5.0,2.0,152.0,20.0,1.0,0.8,0.3,Time,
,,S15,1,,,anonymized,Serial_Dependence_U,2023.2.3,Win32,30.12048193,,,,,,,,,,,,1051.0853,5.0,1051.0857,,,,1053.4154,1053.9105,1052.9021,1053.4154,1052.0858,65.0,1052.9021,1053.9105,1054.4005,1054.4005,1056.5677,1732.3,1056.5678,5.0,1057.5658,5.0,3.0,153.0,0.0,1.0,0.8,0.3,Time,
,,S15,1,,,anonymized,Serial_Dependence_U,2023.2.3,Win32,30.12048193,,,,,,,,,,,,1057.5662,5.0,1057.5665,,,,1060.6828,1061.1747,1060.1795,1060.6828,1058.5666,321.0,1060.1794,1061.1748,1061.6642,1061.6642,1064.2316,2548.3,1064.2319,5.0,1065.2298,5.0,4.0,154.0,19.0,1.0,1.6,0.7,Time,
,,S15,1,,,anonymized,Serial_Dependence_U,2023.2.3,Win32,30.12048193,,,,,,,,,,,,1065.2303,5.0,1065.2305,,,,1067.7475,1068.2461,1067.2469,1067.7475,1066.2306,30.0,1067.2469,1068.2461,1068.7456,1068.7456,1068.9296,149.3,1068.9298,1.0,1069.9273,5.0,5.0,155.0,6.0,1.0,1.0,0.7,Time,
,,S15,1,,,anonymized,Serial_Dependence_U,2023.2.3,Win32,30.12048193,,,,,,,,,,,,1069.9278,5.0,1069.928,,,,1073.0453,1073.5434,1072.5426,1073.0453,1070.9292,187.0,1072.5426,1073.5435,1074.0437,1074.0437,1076.294,1768.8,1076.2941,4.0,1077.2923,5.0,6.0,156.0,9.0,1.0,1.6,0.7,Time,
,,S15,1,,,anonymized,Serial_Dependence_U,2023.2.3,Win32,30.12048193,,,,,,,,,,,,1077.2928,5.0,1077.2929,,,,1080.0262,1080.525,1079.5101,1080.0262,1078.2934,169.0,1079.5099,1080.525,1081.0248,1081.0248,1082.6093,1565.8,1082.6094,5.0,1083.6072,5.0,7.0,157.0,22.0,1.0,1.2,0.3,Time,
,,S15,1,,,anonymized,Serial_Dependence_U,2023.2.3,Win32,30.12048193,,,,,,,,,,,,1083.6077,5.0,1083.6079,,,,1086.124,1086.6227,1085.6189,1086.1239,1084.6079,294.0,1085.6187,1086.6227,1087.116,1087.1163,1089.6733,1483.0,1089.6734,5.0,1090.6712,5.0,8.0,158.0,26.0,1.0,1.0,0.7,Time,
,,S15,1,,,anonymized,Serial_Dependence_U,2023.2.3,Win32,30.12048193,,,,,,,,,,,,1090.6717,5.0,1090.6721,,,,1093.3892,1093.887,1092.8886,1093.3891,1091.672,153.0,1092.8885,1093.8871,1094.3872,1094.3873,1095.9878,1556.3,1095.9887,4.0,1096.9793,5.0,9.0,159.0,7.0,1.0,1.2,0.7,Time,
,,S15,1,,,anonymized,Serial_Dependence_U,2023.2.3,Win32,30.12048193,,,,,,,,,,,,1096.9796,5.0,1096.9799,,,,1099.5292,1100.0283,1099.0123,1099.5292,1097.9961,165.0,1099.0123,1100.0283,1100.5282,1100.5283,1102.5443,1736.3,1102.5446,5.0,1103.5439,5.0,10.0,160.0,11.0,1.0,1.0,0.3,Time,
,,S15,1,,,anonymized,Serial_Dependence_U,2023.2.3,Win32,30.12048193,,,,,,,,,,,,1103.5445,5.0,1103.5448,,,,1106.6766,1107.1759,1106.1602,1106.6766,1104.544,273.0,1106.16,1107.1759,1107.6755,1107.6756,1109.5921,1877.3,1109.5924,4.0,1110.5915,5.0,11.0,161.0,24.0,1.0,1.6,0.3,Time,
,,S15,1,,,anonymized,Serial_Dependence_U,2023.2.3,Win32,30.12048193,,,,,,,,,,,,1110.5922,5.0,1110.5926,,,,1113.5409,1114.0403,1113.0245,1113.5409,1111.6084,100.0,1113.0245,1114.0403,1114.5402,1114.5404,1116.2567,1694.6,1116.2569,4.0,1117.2559,5.0,12.0,162.0,23.0,1.0,1.4,0.3,Time,
,,S15,1,,,anonymized,Serial_Dependence_U,2023.2.3,Win32,30.12048193,,,,,,,,,,,,1117.2564,5.0,1117.2566,,,,1120.2054,1120.7047,1119.6889,1120.2053,1118.273,313.0,1119.6888,1120.7047,1121.2044,1121.2044,1123.0208,1803.8,1123.0209,4.0,1124.02,5.0,13.0,163.0,18.0,1.0,1.4,0.7,Time,
,,S15,1,,,anonymized,Serial_Dependence_U,2023.2.3,Win32,30.12048193,,,,,,,,,,,,1124.0204,5.0,1124.0207,,,,1126.3701,1126.8693,1125.8536,1126.3701,1125.037,174.0,1125.8536,1126.8693,1127.3691,1127.3691,1128.3192,931.5,1128.3195,4.0,1129.3186,5.0,14.0,164.0,10.0,1.0,0.8,0.3,Time,
,,S15,1,,,anonymized,Serial_Dependence_U,2023.2.3,Win32,30.12048193,,,,,,,,,,,,1129.319,5.0,1129.3192,,,,1132.0681,1132.5673,1131.5517,1132.0681,1130.3349,123.0,1131.5516,1132.5673,1133.0672,1133.0672,1134.1172,1033.3,1134.1175,2.0,1135.1163,5.0,15.0,165.0,12.0,1.0,1.2,0.3,Time,
,,S15,1,,,anonymized,Serial_Dependence_U,2023.2.3,Win32,30.12048193,,,,,,,,,,,,1135.1168,5.0,1135.117,,,,1137.866,1138.3651,1137.3498,1137.8659,1136.1335,39.0,1137.3496,1138.3651,1138.8649,1138.865,1139.9984,1118.1,1139.9989,2.0,1140.9978,5.0,16.0,166.0,27.0,1.0,1.2,0.7,Time,
,,S15,1,,,anonymized,Serial_Dependence_U,2023.2.3,Win32,30.12048193,,,,,,,,,,,,1140.9982,5.0,1140.9984,,,,1144.1472,1144.6464,1143.6307,1144.1471,1142.0147,200.0,1143.6306,1144.6464,1145.1464,1145.1464,1146.0462,888.3,1146.0464,1.0,1147.0457,5.0,17.0,167.0,4.0,1.0,1.6,0.3,Time,
,,S15,1,,,anonymized,Serial_Dependence_U,2023.2.3,Win32,30.12048193,,,,,,,,,,,,1147.0461,5.0,1147.0465,,,,1149.3952,1149.8947,1148.8789,1149.3952,1148.0626,231.0,1148.8789,1149.8947,1150.3945,1150.3946,1151.7279,1317.7,1151.728,5.0,1152.7271,5.0,18.0,168.0,15.0,1.0,0.8,0.7,Time,
,,S15,1,,,anonymized,Serial_Dependence_U,2023.2.3,Win32,30.12048193,,,,,,,,,,,,1152.7276,5.0,1152.7279,,,,1155.6646,1156.1667,1155.1534,1155.6645,1153.7441,354.0,1155.1533,1156.1667,1156.666,1156.666,1158.2001,1516.5,1158.2003,4.0,1159.1983,5.0,19.0,169.0,3.0,1.0,1.4,0.3,Time,
,,S15,1,,,anonymized,Serial_Dependence_U,2023.2.3,Win32,30.12048193,,,,,,,,,,,,1159.1988,5.0,1159.199,,,,1162.3322,1162.8307,1161.8149,1162.332,1160.1993,56.0,1161.8148,1162.8307,1163.3303,1163.3303,1164.4141,1032.2,1164.4141,1.0,1165.4062,5.0,20.0,170.0,29.0,1.0,1.6,0.7,Time,
,,S15,1,,,anonymized,Serial_Dependence_U,2023.2.3,Win32,30.12048193,,,,,,,,,,,,1165.4081,5.0,1165.409,,,,1168.3298,1168.8294,1167.8249,1168.3298,1166.4135,281.0,1167.8245,1168.8294,1169.3288,1169.3288,1169.9965,633.6,1169.9966,1.0,1170.9877,5.0,21.0,171.0,8.0,1.0,1.4,0.7,Time,
,,S15,1,,,anonymized,Serial_Dependence_U,2023.2.3,Win32,30.12048193,,,,,,,,,,,,1170.9891,5.0,1170.9899,,,,1173.3278,1173.8273,1172.8114,1173.3277,1171.994,151.0,1172.8113,1173.8274,1174.3265,1174.3265,1175.3278,983.3,1175.3281,4.0,1176.3193,5.0,22.0,172.0,25.0,1.0,0.8,0.7,Time,
,,S15,1,,,anonymized,Serial_Dependence_U,2023.2.3,Win32,30.12048193,,,,,,,,,,,,1176.3208,5.0,1176.3223,,,,1178.6598,1179.1582,1178.1431,1178.6596,1177.3263,281.0,1178.1431,1179.1583,1179.6513,1179.6515,1181.2261,1416.4,1181.2264,5.0,1182.2174,5.0,23.0,173.0,5.0,1.0,0.8,0.7,Time,
,,S15,1,,,anonymized,Serial_Dependence_U,2023.2.3,Win32,30.12048193,,,,,,,,,,,,1182.219,5.0,1182.2199,,,,1185.1578,1185.6498,1184.6406,1185.1577,1183.2244,89.0,1184.6405,1185.65,1186.1401,1186.1401,1186.5736,383.0,1186.5739,1.0,1187.5655,5.0,24.0,174.0,13.0,1.0,1.4,0.3,Time,
,,S15,1,,,anonymized,Serial_Dependence_U,2023.2.3,Win32,30.12048193,,,,,,,,,,,,1187.5672,5.0,1187.5683,,,,1190.1054,1190.5976,1189.589,1190.1053,1188.5726,265.0,1189.5889,1190.5978,1191.0877,1191.0877,1192.7549,1649.2,1192.7551,5.0,1193.7467,5.0,25.0,175.0,21.0,1.0,1.0,0.3,Time,
,,S15,1,,,anonymized,Serial_Dependence_U,2023.2.3,Win32,30.12048193,,,,,,,,,,,,1193.7488,5.0,1193.7495,,,,1196.4876,1196.9855,1195.9818,1196.4875,1194.7706,353.0,1195.9813,1196.9855,1197.4859,1197.486,1199.5032,1983.0,1199.5033,5.0,1200.4944,5.0,26.0,176.0,2.0,1.0,1.2,0.3,Time,
,,S15,1,,,anonymized,Serial_Dependence_U,2023.2.3,Win32,30.12048193,,,,,,,,,,,,1200.4962,5.0,1200.4972,,,,1203.4179,1203.9166,1202.9123,1203.4178,1201.5017,342.0,1202.912,1203.9166,1204.4167,1204.4168,1205.9338,1498.8,1205.9339,4.0,1206.9254,5.0,27.0,177.0,28.0,1.0,1.4,0.7,Time,
,,S15,1,,,anonymized,Serial_Dependence_U,2023.2.3,Win32,30.12048193,,,,,,,,,,,,1206.927,5.0,1206.9279,,,,1209.4657,1209.9643,1208.9491,1209.4656,1207.9444,86.0,1208.9491,1209.9643,1210.4577,1210.4577,1213.4317,1733.1,1213.4319,5.0,1214.4229,5.0,28.0,178.0,16.0,1.0,1.0,0.7,Time,
,,S15,1,,,anonymized,Serial_Dependence_U,2023.2.3,Win32,30.12048193,,,,,,,,,,,,1214.4255,5.0,1214.426,,,,1216.9633,1217.4613,1216.4512,1216.9632,1215.4333,45.0,1216.4511,1217.4613,1217.9616,1217.9617,1220.0797,1766.6,1220.0799,5.0,1221.0772,5.0,29.0,179.0,1.0,1.0,1.0,0.3,Time,
,,S15,1,,,anonymized,Serial_Dependence_U,2023.2.3,Win32,30.12048193,,,,,,,,,,,,1221.0777,6.0,1222.7433,s,1.6329,,1225.294,1225.7931,1224.7771,1225.2939,1223.7606,93.0,1224.777,1225.7932,1226.2917,1226.2917,1227.6433,1166.4,1227.6434,4.0,1228.6346,6.0,0.0,180.0,21.0,1.0,1.0,0.3,Time,
,,S15,1,,,anonymized,Serial_Dependence_U,2023.2.3,Win32,30.12048193,,,,,,,,,,,,1228.635,6.0,1228.6371,,,,1230.9846,1231.4839,1230.4681,1230.9845,1229.6516,107.0,1230.468,1231.484,1231.9834,1231.9835,1234.2497,1332.7,1234.2499,5.0,1235.2493,6.0,1.0,181.0,15.0,1.0,0.8,0.7,Time,
,,S15,1,,,anonymized,Serial_Dependence_U,2023.2.3,Win32,30.12048193,,,,,,,,,,,,1235.2497,6.0,1235.25,,,,1238.1986,1238.6979,1237.6821,1238.1985,1236.2661,248.0,1237.682,1238.6979,1239.1982,1239.1983,1239.7811,553.3,1239.7814,1.0,1240.7805,6.0,2.0,182.0,23.0,1.0,1.4,0.3,Time,
,,S15,1,,,anonymized,Serial_Dependence_U,2023.2.3,Win32,30.12048193,,,,,,,,,,,,1240.781,6.0,1240.7814,,,,1243.1303,1243.6298,1242.6137,1243.1302,1241.7975,17.0,1242.6136,1243.6298,1244.1294,1244.1295,1245.6627,1370.6,1245.6629,5.0,1246.6619,6.0,3.0,183.0,10.0,1.0,0.8,0.3,Time,
,,S15,1,,,anonymized,Serial_Dependence_U,2023.2.3,Win32,30.12048193,,,,,,,,,,,,1246.6627,6.0,1246.6629,,,,1249.2116,1249.7111,1248.6953,1249.2115,1247.679,329.0,1248.6952,1249.7111,1250.2108,1250.2109,1250.9941,766.6,1250.9943,2.0,1251.9933,6.0,4.0,184.0,16.0,1.0,1.0,0.7,Time,
,,S15,1,,,anonymized,Serial_Dependence_U,2023.2.3,Win32,30.12048193,,,,,,,,,,,,1251.9938,6.0,1251.994,,,,1255.1432,1255.6423,1254.6266,1255.1429,1253.0104,69.0,1254.6266,1255.6423,1256.1421,1256.1423,1256.3426,149.3,1256.3428,1.0,1257.3415,6.0,5.0,185.0,24.0,1.0,1.6,0.3,Time,
,,S15,1,,,anonymized,Serial_Dependence_U,2023.2.3,Win32,30.12048193,,,,,,,,,,,,1257.3421,6.0,1257.3424,,,,1260.4914,1260.9906,1259.9748,1260.4913,1258.3589,145.0,1259.9747,1260.9906,1261.4902,1261.4903,1262.7403,1214.4,1262.7405,2.0,1263.7394,6.0,6.0,186.0,9.0,1.0,1.6,0.7,Time,
,,S15,1,,,anonymized,Serial_Dependence_U,2023.2.3,Win32,30.12048193,,,,,,,,,,,,1263.74,6.0,1263.7403,,,,1266.6891,1267.1884,1266.1727,1266.6891,1264.7566,97.0,1266.1725,1267.1885,1267.6882,1267.6883,1268.9547,1249.9,1268.955,2.0,1269.9542,6.0,7.0,187.0,28.0,1.0,1.4,0.7,Time,
,,S15,1,,,anonymized,Serial_Dependence_U,2023.2.3,Win32,30.12048193,,,,,,,,,,,,1269.9546,6.0,1269.9549,,,,1272.5037,1273.0031,1271.9872,1272.5037,1270.971,119.0,1271.9871,1273.0031,1273.5029,1273.503,1275.0164,1431.6,1275.0167,5.0,1276.0195,6.0,8.0,188.0,6.0,1.0,1.0,0.7,Time,
,,S15,1,,,anonymized,Serial_Dependence_U,2023.2.3,Win32,30.12048193,,,,,,,,,,,,1276.0209,6.0,1276.0218,,,,1278.3424,1278.8407,1277.8266,1278.3423,1277.0101,126.0,1277.8266,1278.8408,1279.3411,1279.3411,1281.5428,1733.2,1281.5429,5.0,1282.5396,6.0,9.0,189.0,0.0,1.0,0.8,0.3,Time,
,,S15,1,,,anonymized,Serial_Dependence_U,2023.2.3,Win32,30.12048193,,,,,,,,,,,,1282.54,6.0,1282.54,,,,1285.0743,1285.5728,1284.5578,1285.0742,1283.5418,327.0,1284.5577,1285.5728,1286.0722,1286.0722,1286.6911,583.4,1286.6913,1.0,1287.6883,6.0,10.0,190.0,11.0,1.0,1.0,0.3,Time,
,,S15,1,,,anonymized,Serial_Dependence_U,2023.2.3,Win32,30.12048193,,,,,,,,,,,,1287.6892,6.0,1287.6895,,,,1290.6036,1291.1041,1290.1022,1290.6035,1288.6894,124.0,1290.1021,1291.1041,1291.6034,1291.6035,1292.6215,533.2,1292.6216,1.0,1293.6196,6.0,11.0,191.0,8.0,1.0,1.4,0.7,Time,
,,S15,1,,,anonymized,Serial_Dependence_U,2023.2.3,Win32,30.12048193,,,,,,,,,,,,1293.6199,6.0,1293.6203,,,,1296.5534,1297.0453,1296.0507,1296.5533,1294.637,297.0,1296.0506,1297.0453,1297.5504,1297.5504,1299.4191,1466.3,1299.4193,3.0,1300.4169,6.0,12.0,192.0,13.0,1.0,1.4,0.3,Time,
,,S15,1,,,anonymized,Serial_Dependence_U,2023.2.3,Win32,30.12048193,,,,,,,,,,,,1300.4174,6.0,1300.4176,,,,1302.7511,1303.2434,1302.2342,1302.7511,1301.4179,136.0,1302.2342,1303.2435,1303.7328,1303.7328,1306.0162,1907.7,1306.0163,5.0,1307.0149,6.0,13.0,193.0,20.0,1.0,0.8,0.3,Time,
,,S15,1,,,anonymized,Serial_Dependence_U,2023.2.3,Win32,30.12048193,,,,,,,,,,,,1307.0154,6.0,1307.0156,,,,1310.1452,1310.6466,1309.6322,1310.1451,1308.0155,331.0,1309.6321,1310.6468,1311.1403,1311.1405,1312.631,1374.4,1312.6312,2.0,1313.6228,6.0,14.0,194.0,29.0,1.0,1.6,0.7,Time,
,,S15,1,,,anonymized,Serial_Dependence_U,2023.2.3,Win32,30.12048193,,,,,,,,,,,,1313.6243,6.0,1313.6252,,,,1316.3629,1316.8548,1315.8466,1316.3628,1314.63,193.0,1315.8465,1316.8549,1317.3444,1317.3445,1318.7794,1415.7,1318.7797,4.0,1319.7771,6.0,15.0,195.0,7.0,1.0,1.2,0.7,Time,
,,S15,1,,,anonymized,Serial_Dependence_U,2023.2.3,Win32,30.12048193,,,,,,,,,,,,1319.7775,6.0,1319.7777,,,,1322.8939,1323.3862,1322.3884,1322.8939,1320.7789,217.0,1322.3881,1323.3863,1323.8762,1323.8762,1325.6765,1732.0,1325.6767,4.0,1326.6748,6.0,16.0,196.0,19.0,1.0,1.6,0.7,Time,
,,S15,1,,,anonymized,Serial_Dependence_U,2023.2.3,Win32,30.12048193,,,,,,,,,,,,1326.6754,6.0,1326.6756,,,,1329.425,1329.9234,1328.9086,1329.4248,1327.6923,262.0,1328.9085,1329.9234,1330.4244,1330.4244,1331.5083,1050.1,1331.5085,2.0,1332.4997,6.0,17.0,197.0,12.0,1.0,1.2,0.3,Time,
,,S15,1,,,anonymized,Serial_Dependence_U,2023.2.3,Win32,30.12048193,,,,,,,,,,,,1332.5011,6.0,1332.5019,,,,1334.8408,1335.3398,1334.3354,1334.8406,1333.5239,243.0,1334.3352,1335.3398,1335.8389,1335.839,1336.4232,564.5,1336.4234,2.0,1337.4146,6.0,18.0,198.0,25.0,1.0,0.8,0.7,Time,
,,S15,1,,,anonymized,Serial_Dependence_U,2023.2.3,Win32,30.12048193,,,,,,,,,,,,1337.4156,6.0,1337.4166,,,,1340.371,1340.8702,1339.8557,1340.371,1338.4388,142.0,1339.8556,1340.8702,1341.3697,1341.3697,1342.9873,1599.3,1342.9874,4.0,1343.979,6.0,19.0,199.0,18.0,1.0,1.4,0.7,Time,
,,S15,1,,,anonymized,Serial_Dependence_U,2023.2.3,Win32,30.12048193,,,,,,,,,,,,1343.9796,6.0,1343.9799,,,,1347.1286,1347.6279,1346.6122,1347.1285,1344.9959,67.0,1346.6121,1347.6279,1348.128,1348.128,1349.6275,1482.0,1349.6277,2.0,1350.6269,6.0,20.0,200.0,4.0,1.0,1.6,0.3,Time,
,,S15,1,,,anonymized,Serial_Dependence_U,2023.2.3,Win32,30.12048193,,,,,,,,,,,,1350.6273,6.0,1350.6276,,,,1353.7764,1354.2756,1353.26,1353.7763,1351.6438,129.0,1353.2599,1354.2756,1354.7753,1354.7753,1356.3918,1595.8,1356.392,3.0,1357.3912,6.0,21.0,201.0,14.0,1.0,1.6,0.3,Time,
,,S15,1,,,anonymized,Serial_Dependence_U,2023.2.3,Win32,30.12048193,,,,,,,,,,,,1357.3918,6.0,1357.392,,,,1359.9243,1360.4237,1359.4078,1359.9243,1358.3918,268.0,1359.4077,1360.4237,1360.9234,1360.9235,1361.8735,933.8,1361.8737,2.0,1362.8763,6.0,22.0,202.0,26.0,1.0,1.0,0.7,Time,
,,S15,1,,,anonymized,Serial_Dependence_U,2023.2.3,Win32,30.12048193,,,,,,,,,,,,1362.8767,6.0,1362.877,,,,1365.5962,1366.0938,1365.0906,1365.5962,1363.8808,17.0,1365.0904,1366.0938,1366.5947,1366.5948,1367.813,1183.5,1367.8132,3.0,1368.8043,6.0,23.0,203.0,2.0,1.0,1.2,0.3,Time,
,,S15,1,,,anonymized,Serial_Dependence_U,2023.2.3,Win32,30.12048193,,,,,,,,,,,,1368.8062,6.0,1368.8071,,,,1371.361,1371.8593,1370.8444,1371.361,1369.8225,100.0,1370.8444,1371.8594,1372.3597,1372.3597,1373.0774,700.5,1373.0776,2.0,1374.0689,6.0,24.0,204.0,1.0,1.0,1.0,0.3,Time,
,,S15,1,,,anonymized,Serial_Dependence_U,2023.2.3,Win32,30.12048193,,,,,,,,,,,,1374.07,6.0,1374.0709,,,,1377.0032,1377.5074,1376.4929,1377.003,1375.0767,282.0,1376.4929,1377.5074,1378.0075,1378.0076,1379.4418,1415.1,1379.4419,3.0,1380.4398,6.0,25.0,205.0,3.0,1.0,1.4,0.3,Time,
,,S15,1,,,anonymized,Serial_Dependence_U,2023.2.3,Win32,30.12048193,,,,,,,,,,,,1380.4402,6.0,1380.4404,,,,1383.1901,1383.6825,1382.6738,1383.1901,1381.4569,180.0,1382.6737,1383.6826,1384.1721,1384.1721,1385.3732,1183.5,1385.3734,3.0,1386.3711,6.0,26.0,206.0,17.0,1.0,1.2,0.7,Time,
,,S15,1,,,anonymized,Serial_Dependence_U,2023.2.3,Win32,30.12048193,,,,,,,,,,,,1386.3716,6.0,1386.3718,,,,1389.1048,1389.6033,1388.6023,1389.1047,1387.3887,179.0,1388.6022,1389.6033,1390.1031,1390.1032,1391.2047,1082.9,1391.2049,2.0,1392.2025,6.0,27.0,207.0,22.0,1.0,1.2,0.3,Time,
,,S15,1,,,anonymized,Serial_Dependence_U,2023.2.3,Win32,30.12048193,,,,,,,,,,,,1392.2029,6.0,1392.2032,,,,1394.5693,1395.0719,1394.0367,1394.5692,1393.2208,68.0,1394.0366,1395.072,1395.5698,1395.5699,1396.5197,815.1,1396.5199,3.0,1397.5175,6.0,28.0,208.0,5.0,1.0,0.8,0.7,Time,
,,S15,1,,,anonymized,Serial_Dependence_U,2023.2.3,Win32,30.12048193,,,,,,,,,,,,1397.518,6.0,1397.5181,,,,1400.2513,1400.7433,1399.7486,1400.2512,1398.535,41.0,1399.7485,1400.7433,1401.2336,1401.2336,1402.5012,1233.6,1402.5014,3.0,1403.4983,6.0,29.0,209.0,27.0,1.0,1.2,0.7,Time,
,,S15,1,,,anonymized,Serial_Dependence_U,2023.2.3,Win32,30.12048193,,,,,,,,,,,,1403.4987,7.0,1405.7927,s,2.2719,,1408.1317,1408.6303,1407.6123,1408.1317,1406.7991,140.0,1407.6123,1408.6304,1409.1307,1409.1308,1410.3484,949.5,1410.3485,4.0,1411.346,7.0,0.0,210.0,0.0,1.0,0.8,0.3,Time,
,,S15,1,,,anonymized,Serial_Dependence_U,2023.2.3,Win32,30.12048193,,,,,,,,,,,,1411.3465,7.0,1411.3478,,,,1414.4796,1414.9723,1413.974,1414.4796,1412.3635,263.0,1413.9734,1414.9725,1415.4612,1415.4612,1417.2459,1766.9,1417.246,4.0,1418.2377,7.0,1.0,211.0,14.0,1.0,1.6,0.3,Time,
,,S15,1,,,anonymized,Serial_Dependence_U,2023.2.3,Win32,30.12048193,,,,,,,,,,,,1418.2402,7.0,1418.2406,,,,1421.3938,1421.8926,1420.8774,1421.3937,1419.2614,246.0,1420.8772,1421.8926,1422.3926,1422.3926,1423.8109,1399.8,1423.8111,2.0,1424.8083,7.0,2.0,212.0,19.0,1.0,1.6,0.7,Time,
,,S15,1,,,anonymized,Serial_Dependence_U,2023.2.3,Win32,30.12048193,,,,,,,,,,,,1424.8089,7.0,1424.809,,,,1427.3421,1427.8342,1426.8256,1427.342,1425.809,303.0,1426.8255,1427.8342,1428.324,1428.324,1429.3246,965.8,1429.3248,3.0,1430.3167,7.0,3.0,213.0,21.0,1.0,1.0,0.3,Time,
,,S15,1,,,anonymized,Serial_Dependence_U,2023.2.3,Win32,30.12048193,,,,,,,,,,,,1430.3181,7.0,1430.3191,,,,1433.2566,1433.7551,1432.7406,1433.2565,1431.3237,62.0,1432.7404,1433.7551,1434.2553,1434.2553,1435.4395,1149.7,1435.4397,2.0,1436.4314,7.0,4.0,214.0,23.0,1.0,1.4,0.3,Time,
,,S15,1,,,anonymized,Serial_Dependence_U,2023.2.3,Win32,30.12048193,,,,,,,,,,,,1436.4341,7.0,1436.4346,,,,1439.1719,1439.6635,1438.6688,1439.1718,1437.4552,183.0,1438.6687,1439.6635,1440.1531,1440.1531,1441.3206,1132.9,1441.3208,2.0,1442.3128,7.0,5.0,215.0,7.0,1.0,1.2,0.7,Time,
,,S15,1,,,anonymized,Serial_Dependence_U,2023.2.3,Win32,30.12048193,,,,,,,,,,,,1442.3148,7.0,1442.3155,,,,1444.8529,1445.3451,1444.3361,1444.8528,1443.3198,138.0,1444.3359,1445.3453,1445.8353,1445.8353,1446.7524,883.2,1446.7526,2.0,1447.7444,7.0,6.0,216.0,26.0,1.0,1.0,0.7,Time,
,,S15,1,,,anonymized,Serial_Dependence_U,2023.2.3,Win32,30.12048193,,,,,,,,,,,,1447.7461,7.0,1447.7471,,,,1450.6784,1451.1827,1450.1672,1450.6781,1448.7515,157.0,1450.1671,1451.1828,1451.6827,1451.6827,1453.1333,1432.4,1453.1334,3.0,1454.132,7.0,7.0,217.0,8.0,1.0,1.4,0.7,Time,
,,S15,1,,,anonymized,Serial_Dependence_U,2023.2.3,Win32,30.12048193,,,,,,,,,,,,1454.1324,7.0,1454.1326,,,,1456.6821,1457.1803,1456.1664,1456.6821,1455.1643,176.0,1456.1664,1457.1803,1457.681,1457.681,1459.1153,1416.3,1459.1154,5.0,1460.1127,7.0,8.0,218.0,6.0,1.0,1.0,0.7,Time,
,,S15,1,,,anonymized,Serial_Dependence_U,2023.2.3,Win32,30.12048193,,,,,,,,,,,,1460.113,7.0,1460.1132,,,,1463.0466,1463.545,1462.5294,1463.0466,1461.1146,292.0,1462.5293,1463.545,1464.0447,1464.0448,1465.2959,1233.0,1465.2961,2.0,1466.2948,7.0,9.0,219.0,18.0,1.0,1.4,0.7,Time,
,,S15,1,,,anonymized,Serial_Dependence_U,2023.2.3,Win32,30.12048193,,,,,,,,,,,,1466.2951,7.0,1466.2955,,,,1468.6284,1469.1272,1468.1108,1468.6284,1467.2949,315.0,1468.1107,1469.1272,1469.626,1469.626,1470.2617,617.3,1470.2619,2.0,1471.256,7.0,10.0,220.0,10.0,1.0,0.8,0.3,Time,
,,S15,1,,,anonymized,Serial_Dependence_U,2023.2.3,Win32,30.12048193,,,,,,,,,,,,1471.2564,7.0,1471.2567,,,,1474.4034,1474.9084,1473.8931,1474.403,1472.2759,62.0,1473.893,1474.9084,1475.4082,1475.4083,1476.3588,916.3,1476.3589,1.0,1477.3571,7.0,11.0,221.0,9.0,1.0,1.6,0.7,Time,
,,S15,1,,,anonymized,Serial_Dependence_U,2023.2.3,Win32,30.12048193,,,,,,,,,,,,1477.3575,7.0,1477.3577,,,,1479.8744,1480.3673,1479.3696,1479.8743,1478.3583,166.0,1479.3693,1480.3673,1480.8562,1480.8562,1482.0496,1168.1,1482.0499,4.0,1483.0488,7.0,12.0,222.0,1.0,1.0,1.0,0.3,Time,
,,S15,1,,,anonymized,Serial_Dependence_U,2023.2.3,Win32,30.12048193,,,,,,,,,,,,1483.0492,7.0,1483.0494,,,,1485.7985,1486.2978,1485.2821,1485.7984,1484.0657,285.0,1485.282,1486.2979,1486.7977,1486.7977,1488.0143,1166.1,1488.0145,3.0,1489.0136,7.0,13.0,223.0,17.0,1.0,1.2,0.7,Time,
,,S15,1,,,anonymized,Serial_Dependence_U,2023.2.3,Win32,30.12048193,,,,,,,,,,,,1489.0142,7.0,1489.0143,,,,1491.9628,1492.4628,1491.4468,1491.9627,1490.0308,294.0,1491.4466,1492.4629,1492.9621,1492.9621,1493.979,980.5,1493.9792,2.0,1494.9783,7.0,14.0,224.0,28.0,1.0,1.4,0.7,Time,
,,S15,1,,,anonymized,Serial_Dependence_U,2023.2.3,Win32,30.12048193,,,,,,,,,,,,1494.9788,7.0,1494.9789,,,,1497.9278,1498.4271,1497.4113,1497.9278,1495.9947,41.0,1497.4112,1498.4271,1498.9267,1498.9267,1500.1268,1162.7,1500.127,2.0,1501.1261,7.0,15.0,225.0,13.0,1.0,1.4,0.3,Time,
,,S15,1,,,anonymized,Serial_Dependence_U,2023.2.3,Win32,30.12048193,,,,,,,,,,,,1501.1267,7.0,1501.1269,,,,1503.6758,1504.1752,1503.1592,1503.6757,1502.1431,325.0,1503.1592,1504.1752,1504.675,1504.675,1505.5585,795.5,1505.5587,2.0,1506.5576,7.0,16.0,226.0,16.0,1.0,1.0,0.7,Time,
,,S15,1,,,anonymized,Serial_Dependence_U,2023.2.3,Win32,30.12048193,,,,,,,,,,,,1506.5581,7.0,1506.5583,,,,1509.3073,1509.8066,1508.7908,1509.3072,1507.5747,264.0,1508.7907,1509.8066,1510.3064,1510.3065,1511.2564,933.8,1511.2566,2.0,1512.2557,7.0,17.0,227.0,12.0,1.0,1.2,0.3,Time,
,,S15,1,,,anonymized,Serial_Dependence_U,2023.2.3,Win32,30.12048193,,,,,,,,,,,,1512.2563,7.0,1512.2565,,,,1515.4004,1515.8947,1514.8827,1515.4003,1513.2736,13.0,1514.8826,1515.8947,1516.3939,1516.3939,1517.7782,1365.4,1517.7783,2.0,1518.7764,7.0,18.0,228.0,29.0,1.0,1.6,0.7,Time,
,,S15,1,,,anonymized,Serial_Dependence_U,2023.2.3,Win32,30.12048193,,,,,,,,,,,,1518.7769,7.0,1518.7771,,,,1521.4939,1521.9918,1520.9907,1521.4939,1519.7774,68.0,1520.9906,1521.9919,1522.4919,1522.4919,1523.5105,1000.1,1523.5107,2.0,1524.5078,7.0,19.0,229.0,2.0,1.0,1.2,0.3,Time,
,,S15,1,,,anonymized,Serial_Dependence_U,2023.2.3,Win32,30.12048193,,,,,,,,,,,,1524.5082,7.0,1524.5084,,,,1527.0418,1527.5404,1526.5249,1527.0417,1525.5086,34.0,1526.5249,1527.5404,1528.0397,1528.0398,1529.4413,1252.3,1529.4414,4.0,1530.4393,7.0,20.0,230.0,11.0,1.0,1.0,0.3,Time,
,,S15,1,,,anonymized,Serial_Dependence_U,2023.2.3,Win32,30.12048193,,,,,,,,,,,,1530.4398,7.0,1530.4399,,,,1533.5696,1534.0714,1533.0562,1533.5695,1531.4403,272.0,1533.0561,1534.0714,1534.5713,1534.5713,1536.0054,1415.1,1536.0056,2.0,1537.0035,7.0,21.0,231.0,24.0,1.0,1.6,0.3,Time,
,,S15,1,,,anonymized,Serial_Dependence_U,2023.2.3,Win32,30.12048193,,,,,,,,,,,,1537.0039,7.0,1537.0042,,,,1539.3372,1539.836,1538.8211,1539.3372,1538.0046,249.0,1538.821,1539.836,1540.3362,1540.3363,1541.3038,949.3,1541.3039,4.0,1542.2964,7.0,22.0,232.0,5.0,1.0,0.8,0.7,Time,
,,S15,1,,,anonymized,Serial_Dependence_U,2023.2.3,Win32,30.12048193,,,,,,,,,,,,1542.2981,7.0,1542.2985,,,,1545.0356,1545.5276,1544.5191,1545.0355,1543.3025,93.0,1544.5191,1545.5276,1546.0342,1546.0343,1547.3518,1232.4,1547.352,3.0,1548.3436,7.0,23.0,233.0,27.0,1.0,1.2,0.7,Time,
,,S15,1,,,anonymized,Serial_Dependence_U,2023.2.3,Win32,30.12048193,,,,,,,,,,,,1548.3451,7.0,1548.3463,,,,1550.6806,1551.1822,1550.1673,1550.6805,1549.3512,109.0,1550.1672,1551.1822,1551.6818,1551.6819,1553.3658,1202.2,1553.366,5.0,1554.3647,7.0,24.0,234.0,20.0,1.0,0.8,0.3,Time,
,,S15,1,,,anonymized,Serial_Dependence_U,2023.2.3,Win32,30.12048193,,,,,,,,,,,,1554.3651,7.0,1554.3653,,,,1557.4822,1557.9808,1556.9812,1557.4821,1555.3648,4.0,1556.9812,1557.9809,1558.4803,1558.4803,1559.1132,615.7,1559.1134,1.0,1560.1061,7.0,25.0,235.0,4.0,1.0,1.6,0.3,Time,
,,S15,1,,,anonymized,Serial_Dependence_U,2023.2.3,Win32,30.12048193,,,,,,,,,,,,1560.108,7.0,1560.1089,,,,1562.8462,1563.3452,1562.3307,1562.8462,1561.1134,205.0,1562.3307,1563.3453,1563.8458,1563.8458,1565.0957,1215.8,1565.0958,3.0,1566.0936,7.0,26.0,236.0,22.0,1.0,1.2,0.3,Time,
,,S15,1,,,anonymized,Serial_Dependence_U,2023.2.3,Win32,30.12048193,,,,,,,,,,,,1566.094,7.0,1566.0942,,,,1568.4108,1568.9099,1567.9084,1568.4108,1567.0949,96.0,1567.9082,1568.9099,1569.4107,1569.4107,1570.4936,1048.8,1570.4937,5.0,1571.4856,7.0,27.0,237.0,25.0,1.0,0.8,0.7,Time,
,,S15,1,,,anonymized,Serial_Dependence_U,2023.2.3,Win32,30.12048193,,,,,,,,,,,,1571.4873,7.0,1571.4882,,,,1574.4263,1574.9168,1573.91,1574.4262,1572.4931,202.0,1573.9099,1574.9168,1575.4099,1575.4099,1576.8179,1352.8,1576.8181,3.0,1577.8168,7.0,28.0,238.0,3.0,1.0,1.4,0.3,Time,
,,S15,1,,,anonymized,Serial_Dependence_U,2023.2.3,Win32,30.12048193,,,,,,,,,,,,1577.8172,7.0,1577.8175,,,,1580.1666,1580.666,1579.6501,1580.1664,1578.8336,141.0,1579.65,1580.666,1581.1658,1581.1658,1582.3155,1111.8,1582.3157,5.0,1583.315,7.0,29.0,239.0,15.0,1.0,0.8,0.7,Time,
,,S15,1,,,anonymized,Serial_Dependence_U,2023.2.3,Win32,30.12048193,,,,,,,,,,,,1583.3156,8.0,1698.9777,s,115.6355,,1698.9782,1699.4756,1701.0093,1699.9928,1699.993,339.0,1701.0092,,,,,,,,,8.0,0.0,240.0,16.0,1.0,1.0,0.7,Time,269.0
