Scale_setup.started,Scale_setup.stopped,participant,session,sex,age,date,expName,psychopyVersion,OS,frameRate,screen_scale_keys.started,screen_scale_keys.stopped,X Scale,Y Scale,rectangel_keys.started,rectangel_keys.stopped,Intro.started,Intro.stopped,key_resp_2.keys,key_resp_2.rt,key_resp_2.duration,block.started,Block_id,block.stopped,Block_resp_2.keys,Block_resp_2.rt,Block_resp_2.duration,ITI.started,ITI.stopped,Mask_2.started,Mask_2.stopped,M2.started,direction,M2.stopped,Cue.started,Cue.stopped,Response.started,Response.stopped,keyDuration,Feedback_Time.started,FeedbackID_T,Feedback_Time.stopped,trials.thisRepN,trials.thisTrialN,trials.thisN,trials.thisIndex,trials.ran,TimeDur,Coherence1,TrialType
0.0004,0.0008,S16,1,male,33,anonymized,Serial_Dependence_U,2023.2.3,Win32,60.24096386,,,,,,,,,,,,,,,,,,,,,,,,,,,,,,,,,,,,,,,,
,,S16,1,male,33,anonymized,Serial_Dependence_U,2023.2.3,Win32,60.24096386,0.0043,80.1853,0.05,0.0473,80.1862,90.7678,90.7687,174.5102,space,83.6534,,,,,,,,,,,,,,,,,,,,,,,,,,,,,,
,,S16,1,male,33,anonymized,Serial_Dependence_U,2023.2.3,Win32,60.24096386,,,,,,,,,,,,174.5432,0.0,177.86,s,3.252,,180.4207,180.9265,179.9011,180.4204,178.8816,350.0,179.9008,180.9272,181.4331,181.4341,182.6032,933.6,182.6037,2.0,183.6153,0.0,0.0,0.0,26.0,1.0,1.0,0.7,Time
,,S16,1,male,33,anonymized,Serial_Dependence_U,2023.2.3,Win32,60.24096386,,,,,,,,,,,,183.6166,0.0,183.622,,,,186.7583,187.2467,186.2474,186.758,184.6282,334.0,186.2472,187.2595,187.7408,187.741,193.7585,9999.0,193.759,0.0,194.7586,0.0,1.0,1.0,19.0,1.0,1.6,0.7,Time
,,S16,1,male,33,anonymized,Serial_Dependence_U,2023.2.3,Win32,60.24096386,,,,,,,,,,,,194.7602,0.0,194.7609,,,,197.2868,197.7767,196.7696,197.2866,195.7637,251.0,196.7692,197.7768,198.2757,198.276,202.5495,1667.0,202.5497,5.0,203.5425,0.0,2.0,2.0,6.0,1.0,1.0,0.7,Time
,,S16,1,male,33,anonymized,Serial_Dependence_U,2023.2.3,Win32,60.24096386,,,,,,,,,,,,203.5447,0.0,203.5459,,,,206.2764,206.7751,205.7691,206.2761,204.5538,65.0,205.769,206.7752,207.2752,207.2753,208.8442,421.6,208.8449,1.0,209.8431,0.0,3.0,3.0,12.0,1.0,1.2,0.3,Time
,,S16,1,male,33,anonymized,Serial_Dependence_U,2023.2.3,Win32,60.24096386,,,,,,,,,,,,209.8451,0.0,209.8455,,,,212.7854,213.277,212.2699,212.7851,210.8514,281.0,212.2692,213.2771,213.7679,213.7679,216.3055,2068.8,216.3063,5.0,217.2959,0.0,4.0,4.0,28.0,1.0,1.4,0.7,Time
,,S16,1,male,33,anonymized,Serial_Dependence_U,2023.2.3,Win32,60.24096386,,,,,,,,,,,,217.297,0.0,217.2978,,,,219.6721,220.1606,219.1563,219.6718,218.3075,43.0,219.1562,220.1606,220.6624,220.6625,225.9298,3884.5,225.9305,5.0,226.9277,0.0,5.0,5.0,20.0,1.0,0.8,0.3,Time
,,S16,1,male,33,anonymized,Serial_Dependence_U,2023.2.3,Win32,60.24096386,,,,,,,,,,,,226.9294,0.0,226.9303,,,,229.2711,229.7616,228.7563,229.2709,227.9463,111.0,228.7558,229.7617,230.2617,230.2618,233.5559,764.2,233.5565,3.0,234.5572,0.0,6.0,6.0,0.0,1.0,0.8,0.3,Time
,,S16,1,male,33,anonymized,Serial_Dependence_U,2023.2.3,Win32,60.24096386,,,,,,,,,,,,234.558,0.0,234.5586,,,,237.0785,237.5778,236.5743,237.0784,235.5676,296.0,236.5741,237.5779,238.0779,238.078,239.8732,845.0,239.874,2.0,240.8707,0.0,7.0,7.0,1.0,1.0,1.0,0.3,Time
,,S16,1,male,33,anonymized,Serial_Dependence_U,2023.2.3,Win32,60.24096386,,,,,,,,,,,,240.8715,0.0,240.872,,,,243.8714,244.3624,243.3487,243.871,241.9285,12.0,243.3484,244.3626,244.8626,244.8628,246.8867,781.2,246.887,1.0,247.8789,0.0,8.0,8.0,8.0,1.0,1.4,0.7,Time
,,S16,1,male,33,anonymized,Serial_Dependence_U,2023.2.3,Win32,60.24096386,,,,,,,,,,,,247.8794,0.0,247.8797,,,,250.2037,250.696,249.6979,250.2035,248.8963,152.0,249.6976,250.6961,251.1961,251.1962,253.4462,1192.5,253.4465,5.0,254.4461,0.0,9.0,9.0,10.0,1.0,0.8,0.3,Time
,,S16,1,male,33,anonymized,Serial_Dependence_U,2023.2.3,Win32,60.24096386,,,,,,,,,,,,254.4467,0.0,254.447,,,,257.1864,257.6802,256.672,257.1862,255.4636,347.0,256.6714,257.6805,258.1807,258.181,260.3082,988.7,260.3085,2.0,261.2974,0.0,10.0,10.0,17.0,1.0,1.2,0.7,Time
,,S16,1,male,33,anonymized,Serial_Dependence_U,2023.2.3,Win32,60.24096386,,,,,,,,,,,,261.2992,0.0,261.2999,,,,264.4241,264.9199,263.9124,264.4239,262.3094,301.0,263.912,264.9201,265.414,265.4141,267.2933,1218.6,267.2935,2.0,268.2973,0.0,11.0,11.0,24.0,1.0,1.6,0.3,Time
,,S16,1,male,33,anonymized,Serial_Dependence_U,2023.2.3,Win32,60.24096386,,,,,,,,,,,,268.298,0.0,268.2986,,,,271.0362,271.5366,270.5251,271.036,269.3094,261.0,270.5248,271.5367,272.0389,272.0392,273.801,648.1,273.8014,1.0,274.7987,0.0,12.0,12.0,7.0,1.0,1.2,0.7,Time
,,S16,1,male,33,anonymized,Serial_Dependence_U,2023.2.3,Win32,60.24096386,,,,,,,,,,,,274.8002,0.0,274.8009,,,,277.7325,278.2321,277.2262,277.7324,275.8175,266.0,277.2258,278.2324,278.7324,278.7326,281.1019,1559.1,281.1022,4.0,282.1001,0.0,13.0,13.0,13.0,1.0,1.4,0.3,Time
,,S16,1,male,33,anonymized,Serial_Dependence_U,2023.2.3,Win32,60.24096386,,,,,,,,,,,,282.1007,0.0,282.101,,,,284.8389,285.3333,284.3217,284.8387,283.0994,128.0,284.3214,285.3335,285.8331,285.8332,288.8585,2365.3,288.8588,5.0,289.857,0.0,14.0,14.0,2.0,1.0,1.2,0.3,Time
,,S16,1,male,33,anonymized,Serial_Dependence_U,2023.2.3,Win32,60.24096386,,,,,,,,,,,,289.8583,0.0,289.859,,,,292.1857,292.6839,291.6691,292.1855,290.8548,77.0,291.6689,292.6841,293.1848,293.185,296.3957,1133.3,296.3959,5.0,297.3942,0.0,15.0,15.0,15.0,1.0,0.8,0.7,Time
,,S16,1,male,33,anonymized,Serial_Dependence_U,2023.2.3,Win32,60.24096386,,,,,,,,,,,,297.3946,0.0,297.3948,,,,299.9258,300.4173,299.414,299.9257,298.3922,318.0,299.4138,300.4174,300.9176,300.9177,304.1082,1551.0,304.1085,5.0,305.1012,0.0,16.0,16.0,21.0,1.0,1.0,0.3,Time
,,S16,1,male,33,anonymized,Serial_Dependence_U,2023.2.3,Win32,60.24096386,,,,,,,,,,,,305.1022,0.0,305.1028,,,,307.4521,307.9511,306.9475,307.4519,306.1181,358.0,306.9347,307.9512,308.4512,308.4512,308.8685,364.1,308.8688,1.0,309.8677,0.0,17.0,17.0,5.0,1.0,0.8,0.7,Time
,,S16,1,male,33,anonymized,Serial_Dependence_U,2023.2.3,Win32,60.24096386,,,,,,,,,,,,309.8683,0.0,309.8684,,,,312.4187,312.9178,311.9029,312.4185,310.8853,92.0,311.9018,312.9179,313.418,313.4181,314.552,511.1,314.5522,1.0,315.5541,0.0,18.0,18.0,16.0,1.0,1.0,0.7,Time
,,S16,1,male,33,anonymized,Serial_Dependence_U,2023.2.3,Win32,60.24096386,,,,,,,,,,,,315.5548,0.0,315.5551,,,,318.505,319.0027,317.9877,318.5049,316.571,38.0,317.9875,319.0028,319.5021,319.5022,320.6189,388.5,320.6192,1.0,321.6195,0.0,19.0,19.0,18.0,1.0,1.4,0.7,Time
,,S16,1,male,33,anonymized,Serial_Dependence_U,2023.2.3,Win32,60.24096386,,,,,,,,,,,,321.6209,0.0,321.6216,,,,324.7496,325.2534,324.2446,324.7492,322.6294,328.0,324.2443,325.2535,325.7627,325.7627,326.8904,425.0,326.8906,1.0,327.8978,0.0,20.0,20.0,29.0,1.0,1.6,0.7,Time
,,S16,1,male,33,anonymized,Serial_Dependence_U,2023.2.3,Win32,60.24096386,,,,,,,,,,,,327.8982,0.0,327.8984,,,,330.8235,331.328,330.3117,330.8233,328.8983,216.0,330.3115,331.3281,331.8205,331.8211,337.8345,9999.0,337.8348,0.0,338.8227,0.0,21.0,21.0,3.0,1.0,1.4,0.3,Time
,,S16,1,male,33,anonymized,Serial_Dependence_U,2023.2.3,Win32,60.24096386,,,,,,,,,,,,338.8236,0.0,338.8239,,,,341.999,342.4901,341.4848,341.999,339.8535,344.0,341.471,342.4902,342.9881,342.9882,345.9226,987.6,345.9233,1.0,346.9148,0.0,22.0,22.0,14.0,1.0,1.6,0.3,Time
,,S16,1,male,33,anonymized,Serial_Dependence_U,2023.2.3,Win32,60.24096386,,,,,,,,,,,,346.9156,0.0,346.9162,,,,350.0744,350.5724,349.5627,350.0742,347.9184,21.0,349.5285,350.5725,351.0742,351.0744,351.5295,65.10000002,351.5299,1.0,352.5249,0.0,23.0,23.0,4.0,1.0,1.6,0.3,Time
,,S16,1,male,33,anonymized,Serial_Dependence_U,2023.2.3,Win32,60.24096386,,,,,,,,,,,,352.5258,0.0,352.5265,,,,355.4899,355.9886,354.9773,355.4897,353.5318,184.0,354.9444,355.9888,356.4792,356.4792,358.6504,1451.7,358.6506,3.0,359.6396,0.0,24.0,24.0,23.0,1.0,1.4,0.3,Time
,,S16,1,male,33,anonymized,Serial_Dependence_U,2023.2.3,Win32,60.24096386,,,,,,,,,,,,359.6412,0.0,359.6418,,,,362.3771,362.874,361.8641,362.3768,360.6447,14.0,361.8639,362.8741,363.3627,363.3628,365.1511,1200.0,365.1516,3.0,366.1396,0.0,25.0,25.0,22.0,1.0,1.2,0.3,Time
,,S16,1,male,33,anonymized,Serial_Dependence_U,2023.2.3,Win32,60.24096386,,,,,,,,,,,,366.1406,0.0,366.1411,,,,369.2848,369.7729,368.7792,369.2846,367.1677,110.0,368.7791,369.773,370.2757,370.2758,371.5305,958.0,371.5307,1.0,372.5232,0.0,26.0,26.0,9.0,1.0,1.6,0.7,Time
,,S16,1,male,33,anonymized,Serial_Dependence_U,2023.2.3,Win32,60.24096386,,,,,,,,,,,,372.5239,0.0,372.5244,,,,375.2742,375.7736,374.7576,375.2741,373.5406,128.0,374.7575,375.7736,376.2736,376.2737,377.742,862.2,377.7423,2.0,378.7414,0.0,27.0,27.0,27.0,1.0,1.2,0.7,Time
,,S16,1,male,33,anonymized,Serial_Dependence_U,2023.2.3,Win32,60.24096386,,,,,,,,,,,,378.7427,0.0,378.7433,,,,381.262,381.7581,380.7606,381.2618,379.7488,314.0,380.759,381.7582,382.2584,382.2585,383.5264,608.9,383.5268,1.0,384.5261,0.0,28.0,28.0,11.0,1.0,1.0,0.3,Time
,,S16,1,male,33,anonymized,Serial_Dependence_U,2023.2.3,Win32,60.24096386,,,,,,,,,,,,384.5275,0.0,384.5279,,,,386.8752,387.3746,386.3596,386.8751,385.542,246.0,386.3585,387.3746,387.8745,387.8746,389.0336,665.4000001,389.0338,2.0,390.0253,0.0,29.0,29.0,25.0,1.0,0.8,0.7,Time
,,S16,1,male,33,anonymized,Serial_Dependence_U,2023.2.3,Win32,60.24096386,,,,,,,,,,,,390.0268,1.0,393.0777,s,3.0096,,395.835,396.332,395.3285,395.8347,394.0869,38.0,395.2949,396.3321,396.8274,396.8277,399.0452,660.2,399.0456,1.0,400.0433,1.0,0.0,30.0,2.0,1.0,1.2,0.3,Time
,,S16,1,male,33,anonymized,Serial_Dependence_U,2023.2.3,Win32,60.24096386,,,,,,,,,,,,400.0449,1.0,400.0491,,,,402.5713,403.0707,402.0684,402.5712,401.0599,23.0,402.0683,403.0707,403.5704,403.5704,404.3221,299.8,404.3222,1.0,405.316,1.0,1.0,31.0,21.0,1.0,1.0,0.3,Time
,,S16,1,male,33,anonymized,Serial_Dependence_U,2023.2.3,Win32,60.24096386,,,,,,,,,,,,405.3163,1.0,405.3166,,,,408.2865,408.7784,407.7692,408.2863,406.3163,49.0,407.7688,408.7788,409.2787,409.2789,410.6453,1014.4,410.6458,2.0,411.6444,1.0,2.0,32.0,13.0,1.0,1.4,0.3,Time
,,S16,1,male,33,anonymized,Serial_Dependence_U,2023.2.3,Win32,60.24096386,,,,,,,,,,,,411.646,1.0,411.6466,,,,414.1944,414.6944,413.691,414.1942,412.6608,213.0,413.6775,414.6944,415.1944,415.1945,416.2668,646.8,416.2672,1.0,417.2604,1.0,3.0,33.0,6.0,1.0,1.0,0.7,Time
,,S16,1,male,33,anonymized,Serial_Dependence_U,2023.2.3,Win32,60.24096386,,,,,,,,,,,,417.261,1.0,417.2612,,,,419.5948,420.0939,419.0898,419.5947,418.2732,44.0,419.0897,420.094,420.5969,420.597,421.2614,223.3000001,421.2621,1.0,422.262,1.0,4.0,34.0,15.0,1.0,0.8,0.7,Time
,,S16,1,male,33,anonymized,Serial_Dependence_U,2023.2.3,Win32,60.24096386,,,,,,,,,,,,422.2629,1.0,422.2632,,,,424.6303,425.1284,424.0817,424.6301,423.279,350.0,424.0814,425.1285,425.6284,425.6286,426.8029,650.2,426.8031,2.0,427.7948,1.0,5.0,35.0,20.0,1.0,0.8,0.3,Time
,,S16,1,male,33,anonymized,Serial_Dependence_U,2023.2.3,Win32,60.24096386,,,,,,,,,,,,427.7953,1.0,427.7956,,,,430.7317,431.2289,430.2233,430.7316,428.8047,203.0,430.2231,431.2291,431.7343,431.7343,433.2293,816.7,433.2295,1.0,434.2286,1.0,6.0,36.0,8.0,1.0,1.4,0.7,Time
,,S16,1,male,33,anonymized,Serial_Dependence_U,2023.2.3,Win32,60.24096386,,,,,,,,,,,,434.2291,1.0,434.2296,,,,436.9797,437.4788,436.463,436.9796,435.2463,289.0,436.4629,437.4789,437.9789,437.979,439.8462,800.8,439.8465,1.0,440.8463,1.0,7.0,37.0,7.0,1.0,1.2,0.7,Time
,,S16,1,male,33,anonymized,Serial_Dependence_U,2023.2.3,Win32,60.24096386,,,,,,,,,,,,440.8476,1.0,440.8479,,,,443.5754,444.0798,443.0614,443.5753,441.8585,152.0,443.0613,444.0799,444.571,444.571,445.7647,751.6999999,445.7651,1.0,446.763,1.0,8.0,38.0,27.0,1.0,1.2,0.7,Time
,,S16,1,male,33,anonymized,Serial_Dependence_U,2023.2.3,Win32,60.24096386,,,,,,,,,,,,446.7636,1.0,446.7639,,,,449.1038,449.5971,448.5978,449.1037,447.7807,230.0,448.5974,449.5971,450.0971,450.0973,451.3473,710.1999999,451.3476,2.0,452.347,1.0,9.0,39.0,5.0,1.0,0.8,0.7,Time
,,S16,1,male,33,anonymized,Serial_Dependence_U,2023.2.3,Win32,60.24096386,,,,,,,,,,,,452.3475,1.0,452.3479,,,,455.298,455.7972,454.7824,455.2979,453.3644,292.0,454.7811,455.7973,456.2974,456.2974,456.9476,116.7,456.9479,1.0,457.9402,1.0,10.0,40.0,18.0,1.0,1.4,0.7,Time
,,S16,1,male,33,anonymized,Serial_Dependence_U,2023.2.3,Win32,60.24096386,,,,,,,,,,,,457.9407,1.0,457.941,,,,460.265,460.7642,459.7482,460.2649,458.9435,113.0,459.748,460.7643,461.2642,461.2644,462.4441,450.9,462.4443,1.0,463.4424,1.0,11.0,41.0,10.0,1.0,0.8,0.3,Time
,,S16,1,male,33,anonymized,Serial_Dependence_U,2023.2.3,Win32,60.24096386,,,,,,,,,,,,463.4429,1.0,463.4432,,,,466.1721,466.6653,465.6563,466.1719,464.4404,24.0,465.6561,466.6654,467.1715,467.1716,468.5158,627.3,468.5161,1.0,469.5151,1.0,12.0,42.0,22.0,1.0,1.2,0.3,Time
,,S16,1,male,33,anonymized,Serial_Dependence_U,2023.2.3,Win32,60.24096386,,,,,,,,,,,,469.5157,1.0,469.516,,,,472.6662,473.1654,472.1584,472.6661,470.5328,79.0,472.1584,473.1654,473.6655,473.6656,475.8493,1373.4,475.8497,2.0,476.8602,1.0,13.0,43.0,24.0,1.0,1.6,0.3,Time
,,S16,1,male,33,anonymized,Serial_Dependence_U,2023.2.3,Win32,60.24096386,,,,,,,,,,,,476.8607,1.0,476.8609,,,,479.9953,480.4881,479.491,479.9953,477.8672,287.0,479.4908,480.4881,480.9837,480.9837,483.2404,1483.4,483.2406,2.0,484.2339,1.0,14.0,44.0,14.0,1.0,1.6,0.3,Time
,,S16,1,male,33,anonymized,Serial_Dependence_U,2023.2.3,Win32,60.24096386,,,,,,,,,,,,484.2346,1.0,484.2349,,,,487.3673,487.8667,486.8507,487.3672,485.2423,158.0,486.8506,487.8669,488.3673,488.3673,490.3601,1592.7,490.3605,3.0,491.3504,1.0,15.0,45.0,19.0,1.0,1.6,0.7,Time
,,S16,1,male,33,anonymized,Serial_Dependence_U,2023.2.3,Win32,60.24096386,,,,,,,,,,,,491.351,1.0,491.3512,,,,494.503,495.0014,493.9849,494.5028,492.3679,46.0,493.9847,495.0016,495.5018,495.5019,497.6847,1164.8,497.6849,2.0,498.6938,1.0,16.0,46.0,4.0,1.0,1.6,0.3,Time
,,S16,1,male,33,anonymized,Serial_Dependence_U,2023.2.3,Win32,60.24096386,,,,,,,,,,,,498.6947,1.0,498.6954,,,,501.4142,501.9019,500.9088,501.4141,499.6943,262.0,500.9087,501.902,502.4036,502.4037,504.2297,1358.5,504.2302,4.0,505.2322,1.0,17.0,47.0,12.0,1.0,1.2,0.3,Time
,,S16,1,male,33,anonymized,Serial_Dependence_U,2023.2.3,Win32,60.24096386,,,,,,,,,,,,505.2333,1.0,505.2337,,,,507.5811,508.0713,507.0595,507.581,506.2424,112.0,507.0593,508.0714,508.5726,508.5727,510.0733,1039.7,510.074,4.0,511.0791,1.0,18.0,48.0,0.0,1.0,0.8,0.3,Time
,,S16,1,male,33,anonymized,Serial_Dependence_U,2023.2.3,Win32,60.24096386,,,,,,,,,,,,511.0804,1.0,511.0812,,,,514.0176,514.5203,513.514,514.0174,512.0756,79.0,513.5136,514.5204,515.0201,515.0203,516.0719,476.6999999,516.0734,1.0,517.0717,1.0,19.0,49.0,3.0,1.0,1.4,0.3,Time
,,S16,1,male,33,anonymized,Serial_Dependence_U,2023.2.3,Win32,60.24096386,,,,,,,,,,,,517.0728,1.0,517.0738,,,,519.6387,520.1374,519.1248,519.6385,518.0763,231.0,519.0919,520.1375,520.6373,520.6375,521.9372,651.4,521.9374,1.0,522.9367,1.0,20.0,50.0,11.0,1.0,1.0,0.3,Time
,,S16,1,male,33,anonymized,Serial_Dependence_U,2023.2.3,Win32,60.24096386,,,,,,,,,,,,522.9373,1.0,522.9376,,,,525.86,526.3582,525.3557,525.8597,523.9422,306.0,525.3555,526.3583,526.8634,526.8635,528.3466,1017.4,528.347,2.0,529.3385,1.0,21.0,51.0,28.0,1.0,1.4,0.7,Time
,,S16,1,male,33,anonymized,Serial_Dependence_U,2023.2.3,Win32,60.24096386,,,,,,,,,,,,529.3399,1.0,529.3406,,,,531.8644,532.3552,531.3472,531.864,530.3434,154.0,531.3467,532.3552,532.8637,532.8638,534.1998,979.5,534.2002,3.0,535.1882,1.0,22.0,52.0,26.0,1.0,1.0,0.7,Time
,,S16,1,male,33,anonymized,Serial_Dependence_U,2023.2.3,Win32,60.24096386,,,,,,,,,,,,535.1901,1.0,535.1907,,,,538.1282,538.6317,537.6192,538.1281,536.2053,320.0,537.6183,538.6317,539.1223,539.1225,540.6337,1112.5,540.6349,2.0,541.6236,1.0,23.0,53.0,23.0,1.0,1.4,0.3,Time
,,S16,1,male,33,anonymized,Serial_Dependence_U,2023.2.3,Win32,60.24096386,,,,,,,,,,,,541.6248,1.0,541.6255,,,,544.2055,544.6956,543.6909,544.2042,542.635,32.0,543.6904,544.6957,545.19,545.19,546.7726,1135.4,546.7728,4.0,547.7721,1.0,24.0,54.0,16.0,1.0,1.0,0.7,Time
,,S16,1,male,33,anonymized,Serial_Dependence_U,2023.2.3,Win32,60.24096386,,,,,,,,,,,,547.7727,1.0,547.7729,,,,550.9068,551.4062,550.398,550.9066,548.7933,239.0,550.3954,551.4062,551.906,551.9062,553.8399,1417.2,553.8403,2.0,554.8393,1.0,25.0,55.0,9.0,1.0,1.6,0.7,Time
,,S16,1,male,33,anonymized,Serial_Dependence_U,2023.2.3,Win32,60.24096386,,,,,,,,,,,,554.8399,1.0,554.8402,,,,557.5759,558.0746,557.0596,557.5756,555.8497,246.0,557.0594,558.0747,558.574,558.5741,561.2847,1654.3,561.285,5.0,562.2745,1.0,26.0,56.0,17.0,1.0,1.2,0.7,Time
,,S16,1,male,33,anonymized,Serial_Dependence_U,2023.2.3,Win32,60.24096386,,,,,,,,,,,,562.2759,1.0,562.2765,,,,564.8269,565.3269,564.3161,564.8266,563.282,244.0,564.2875,565.3269,565.8244,565.8247,568.0035,1102.3,568.0036,4.0,569.0183,1.0,27.0,57.0,1.0,1.0,1.0,0.3,Time
,,S16,1,male,33,anonymized,Serial_Dependence_U,2023.2.3,Win32,60.24096386,,,,,,,,,,,,569.0191,1.0,569.0196,,,,571.351,571.8508,570.8459,571.3509,570.0277,233.0,570.8438,571.8508,572.3427,572.3429,576.2982,1411.2,576.2986,5.0,577.3012,1.0,28.0,58.0,25.0,1.0,0.8,0.7,Time
,,S16,1,male,33,anonymized,Serial_Dependence_U,2023.2.3,Win32,60.24096386,,,,,,,,,,,,577.3022,1.0,577.3031,,,,580.4569,580.9612,579.9283,580.4566,578.3106,300.0,579.9253,580.9612,581.4612,581.4613,583.2819,1409.5,583.2822,2.0,584.2781,1.0,29.0,59.0,29.0,1.0,1.6,0.7,Time
,,S16,1,male,33,anonymized,Serial_Dependence_U,2023.2.3,Win32,60.24096386,,,,,,,,,,,,584.2792,2.0,586.4115,s,2.0993,,589.6076,590.1101,589.0908,589.6073,587.4715,164.0,589.0905,590.1101,590.6099,590.61,592.3602,1324.0,592.3605,2.0,593.3616,2.0,0.0,60.0,14.0,1.0,1.6,0.3,Time
,,S16,1,male,33,anonymized,Serial_Dependence_U,2023.2.3,Win32,60.24096386,,,,,,,,,,,,593.3626,2.0,593.3662,,,,596.1108,596.6099,595.5958,596.1106,594.3788,117.0,595.5956,596.6101,597.1105,597.1105,598.7944,1219.0,598.7946,3.0,599.8045,2.0,1.0,61.0,27.0,1.0,1.2,0.7,Time
,,S16,1,male,33,anonymized,Serial_Dependence_U,2023.2.3,Win32,60.24096386,,,,,,,,,,,,599.8049,2.0,599.8051,,,,602.3359,602.8275,601.8334,602.3357,600.8258,316.0,601.8333,602.8277,603.3338,603.334,604.6952,967.1999999,604.6961,3.0,605.6947,2.0,2.0,62.0,21.0,1.0,1.0,0.3,Time
,,S16,1,male,33,anonymized,Serial_Dependence_U,2023.2.3,Win32,60.24096386,,,,,,,,,,,,605.696,2.0,605.6964,,,,608.8251,609.3201,608.3196,608.8247,606.7113,15.0,608.3193,609.3202,609.8129,609.8131,611.8192,1456.9,611.8197,2.0,612.8121,2.0,3.0,63.0,29.0,1.0,1.6,0.7,Time
,,S16,1,male,33,anonymized,Serial_Dependence_U,2023.2.3,Win32,60.24096386,,,,,,,,,,,,612.8139,2.0,612.8145,,,,615.5642,616.0626,615.0472,615.564,613.8301,89.0,615.0468,616.0627,616.5624,616.5626,618.4643,1232.3,618.4648,3.0,619.4627,2.0,4.0,64.0,17.0,1.0,1.2,0.7,Time
,,S16,1,male,33,anonymized,Serial_Dependence_U,2023.2.3,Win32,60.24096386,,,,,,,,,,,,619.4643,2.0,619.4649,,,,622.2077,622.7059,621.6974,622.2072,620.4794,59.0,621.6971,622.7059,623.198,623.1981,624.6397,945.5,624.6401,2.0,625.6296,2.0,5.0,65.0,2.0,1.0,1.2,0.3,Time
,,S16,1,male,33,anonymized,Serial_Dependence_U,2023.2.3,Win32,60.24096386,,,,,,,,,,,,625.6313,2.0,625.6321,,,,628.5512,629.0466,628.0478,628.5509,626.6383,33.0,628.0476,629.0467,629.5531,629.5531,631.8662,1588.0,631.8666,4.0,632.8639,2.0,6.0,66.0,23.0,1.0,1.4,0.3,Time
,,S16,1,male,33,anonymized,Serial_Dependence_U,2023.2.3,Win32,60.24096386,,,,,,,,,,,,632.8656,2.0,632.866,,,,635.6013,636.099,635.089,635.601,633.8731,348.0,635.0887,636.0994,636.5981,636.5982,638.6912,1618.7,638.6918,5.0,639.6811,2.0,7.0,67.0,7.0,1.0,1.2,0.7,Time
,,S16,1,male,33,anonymized,Serial_Dependence_U,2023.2.3,Win32,60.24096386,,,,,,,,,,,,639.6827,2.0,639.6831,,,,642.6098,643.0997,642.0981,642.6097,640.6934,307.0,642.0979,643.0998,643.6071,643.6072,645.4299,1369.2,645.4316,3.0,646.433,2.0,8.0,68.0,28.0,1.0,1.4,0.7,Time
,,S16,1,male,33,anonymized,Serial_Dependence_U,2023.2.3,Win32,60.24096386,,,,,,,,,,,,646.4339,2.0,646.4345,,,,649.1715,649.6658,648.669,649.1714,647.4613,37.0,648.6688,649.666,650.1685,650.1686,651.8086,1259.4,651.809,3.0,652.8064,2.0,9.0,69.0,12.0,1.0,1.2,0.3,Time
,,S16,1,male,33,anonymized,Serial_Dependence_U,2023.2.3,Win32,60.24096386,,,,,,,,,,,,652.8074,2.0,652.808,,,,655.1748,655.6675,654.6616,655.1747,653.8175,179.0,654.6262,655.6676,656.1584,656.1584,657.5968,1085.2,657.5971,5.0,658.6125,2.0,10.0,70.0,0.0,1.0,0.8,0.3,Time
,,S16,1,male,33,anonymized,Serial_Dependence_U,2023.2.3,Win32,60.24096386,,,,,,,,,,,,658.6138,2.0,658.6146,,,,660.9425,661.4329,660.4331,660.942,659.6139,46.0,660.4329,661.4329,661.9215,661.9217,663.318,1043.4,663.3185,5.0,664.3162,2.0,11.0,71.0,10.0,1.0,0.8,0.3,Time
,,S16,1,male,33,anonymized,Serial_Dependence_U,2023.2.3,Win32,60.24096386,,,,,,,,,,,,664.3179,2.0,664.3185,,,,666.8668,667.3663,666.35,666.8668,665.3335,237.0,666.3498,667.3663,667.8665,667.8666,669.088,851.6,669.0885,2.0,670.0926,2.0,12.0,72.0,26.0,1.0,1.0,0.7,Time
,,S16,1,male,33,anonymized,Serial_Dependence_U,2023.2.3,Win32,60.24096386,,,,,,,,,,,,670.0934,2.0,670.0938,,,,672.4366,672.9336,671.9232,672.4365,671.1064,228.0,671.9231,672.9336,673.4334,673.4336,674.5276,666.5,674.5279,2.0,675.5179,2.0,13.0,73.0,25.0,1.0,0.8,0.7,Time
,,S16,1,male,33,anonymized,Serial_Dependence_U,2023.2.3,Win32,60.24096386,,,,,,,,,,,,675.5198,2.0,675.5205,,,,678.4595,678.9517,677.9427,678.4593,676.5359,268.0,677.9424,678.9517,679.4513,679.4516,680.9264,1067.5,680.9265,2.0,681.9234,2.0,14.0,74.0,8.0,1.0,1.4,0.7,Time
,,S16,1,male,33,anonymized,Serial_Dependence_U,2023.2.3,Win32,60.24096386,,,,,,,,,,,,681.9239,2.0,681.9242,,,,684.4542,684.9583,683.9436,684.454,682.935,273.0,683.9434,684.9583,685.4518,685.452,686.3088,482.9000001,686.3089,1.0,687.301,2.0,15.0,75.0,11.0,1.0,1.0,0.3,Time
,,S16,1,male,33,anonymized,Serial_Dependence_U,2023.2.3,Win32,60.24096386,,,,,,,,,,,,687.3016,2.0,687.3019,,,,689.8385,690.3355,689.3265,689.8383,688.3059,16.0,689.3264,690.3357,690.8354,690.8356,692.5782,839.0999999,692.5788,2.0,693.5711,2.0,16.0,76.0,6.0,1.0,1.0,0.7,Time
,,S16,1,male,33,anonymized,Serial_Dependence_U,2023.2.3,Win32,60.24096386,,,,,,,,,,,,693.5725,2.0,693.5732,,,,696.1292,696.6197,695.6109,696.1289,694.5858,347.0,695.6106,696.6197,697.1243,697.1245,698.4132,894.8,698.4136,2.0,699.4049,2.0,17.0,77.0,16.0,1.0,1.0,0.7,Time
,,S16,1,male,33,anonymized,Serial_Dependence_U,2023.2.3,Win32,60.24096386,,,,,,,,,,,,699.4064,2.0,699.4073,,,,702.5305,703.0193,702.0293,702.5305,700.413,4.0,702.0292,703.0194,703.5304,703.5304,705.2429,1350.9,705.2437,2.0,706.2372,2.0,18.0,78.0,9.0,1.0,1.6,0.7,Time
,,S16,1,male,33,anonymized,Serial_Dependence_U,2023.2.3,Win32,60.24096386,,,,,,,,,,,,706.2387,2.0,706.2392,,,,708.9636,709.4547,708.4464,708.9633,707.2408,333.0,708.4461,709.4549,709.9547,709.9547,711.8492,1600.7,711.8497,5.0,712.8379,2.0,19.0,79.0,22.0,1.0,1.2,0.3,Time
,,S16,1,male,33,anonymized,Serial_Dependence_U,2023.2.3,Win32,60.24096386,,,,,,,,,,,,712.8394,2.0,712.8401,,,,715.9784,716.4759,715.4662,715.9782,713.858,210.0,715.4661,716.4759,716.9815,716.9815,718.796,1161.8,718.7964,2.0,719.7878,2.0,20.0,80.0,24.0,1.0,1.6,0.3,Time
,,S16,1,male,33,anonymized,Serial_Dependence_U,2023.2.3,Win32,60.24096386,,,,,,,,,,,,719.7895,2.0,719.7905,,,,722.1229,722.6222,721.6123,722.1225,720.7938,7.0,721.612,722.6223,723.1341,723.1342,724.5023,1015.9,724.503,4.0,725.5055,2.0,21.0,81.0,15.0,1.0,0.8,0.7,Time
,,S16,1,male,33,anonymized,Serial_Dependence_U,2023.2.3,Win32,60.24096386,,,,,,,,,,,,725.5066,2.0,725.5076,,,,728.6555,729.1547,728.1389,728.6555,726.5221,237.0,728.1388,729.1547,729.6559,729.656,731.4073,1392.0,731.4078,2.0,732.4052,2.0,22.0,82.0,19.0,1.0,1.6,0.7,Time
,,S16,1,male,33,anonymized,Serial_Dependence_U,2023.2.3,Win32,60.24096386,,,,,,,,,,,,732.4057,2.0,732.406,,,,735.3581,735.8562,734.8405,735.3579,733.4226,319.0,734.8404,735.8565,736.3561,736.3563,739.0491,1344.2,739.0495,3.0,740.0393,2.0,23.0,83.0,18.0,1.0,1.4,0.7,Time
,,S16,1,male,33,anonymized,Serial_Dependence_U,2023.2.3,Win32,60.24096386,,,,,,,,,,,,740.0398,2.0,740.0401,,,,742.3829,742.8818,741.8797,742.3826,741.0414,269.0,741.8795,742.8819,743.3739,743.3741,745.7343,1055.5,745.7346,5.0,746.723,2.0,24.0,84.0,5.0,1.0,0.8,0.7,Time
,,S16,1,male,33,anonymized,Serial_Dependence_U,2023.2.3,Win32,60.24096386,,,,,,,,,,,,746.7236,2.0,746.724,,,,749.6706,750.1703,749.1578,749.6706,747.7356,67.0,749.1577,750.1703,750.6651,750.6652,752.1669,716.1999999,752.1674,1.0,753.1586,2.0,25.0,85.0,13.0,1.0,1.4,0.3,Time
,,S16,1,male,33,anonymized,Serial_Dependence_U,2023.2.3,Win32,60.24096386,,,,,,,,,,,,753.16,2.0,753.1606,,,,755.7011,756.1914,755.1855,755.7009,754.1763,294.0,755.1836,756.1914,756.6816,756.6818,758.0768,925.9000001,758.0774,2.0,759.0758,2.0,26.0,86.0,1.0,1.0,1.0,0.3,Time
,,S16,1,male,33,anonymized,Serial_Dependence_U,2023.2.3,Win32,60.24096386,,,,,,,,,,,,759.0775,2.0,759.0783,,,,762.255,762.7577,761.7395,762.2548,760.1062,316.0,761.7391,762.7579,763.2578,763.258,763.7871,166.3,763.7872,1.0,764.7915,2.0,27.0,87.0,4.0,1.0,1.6,0.3,Time
,,S16,1,male,33,anonymized,Serial_Dependence_U,2023.2.3,Win32,60.24096386,,,,,,,,,,,,764.7924,2.0,764.7929,,,,767.136,767.6345,766.6232,767.1356,765.8126,25.0,766.6229,767.6345,768.1318,768.132,769.149,647.9000001,769.1494,2.0,770.1424,2.0,28.0,88.0,20.0,1.0,0.8,0.3,Time
,,S16,1,male,33,anonymized,Serial_Dependence_U,2023.2.3,Win32,60.24096386,,,,,,,,,,,,770.1432,2.0,770.1436,,,,773.084,773.5778,772.5678,773.0837,771.1613,332.0,772.5675,773.5778,774.0664,774.0665,775.4344,966.8,775.4345,1.0,776.4256,2.0,29.0,89.0,3.0,1.0,1.4,0.3,Time
,,S16,1,male,33,anonymized,Serial_Dependence_U,2023.2.3,Win32,60.24096386,,,,,,,,,,,,776.4262,3.0,778.5776,s,2.1327,,781.107,781.6058,780.5983,781.1068,779.5935,247.0,780.5982,781.6058,782.0938,782.0939,783.5243,1030.8,783.5246,3.0,784.527,3.0,0.0,90.0,6.0,1.0,1.0,0.7,Time
,,S16,1,male,33,anonymized,Serial_Dependence_U,2023.2.3,Win32,60.24096386,,,,,,,,,,,,784.5279,3.0,784.5296,,,,787.0774,787.5766,786.5606,787.0773,785.5439,121.0,786.5606,787.5766,788.0769,788.0769,789.5123,984.1,789.5127,3.0,790.5111,3.0,1.0,91.0,21.0,1.0,1.0,0.3,Time
,,S16,1,male,33,anonymized,Serial_Dependence_U,2023.2.3,Win32,60.24096386,,,,,,,,,,,,790.5127,3.0,790.5133,,,,792.8447,793.3438,792.3279,792.8446,791.5178,291.0,792.3278,793.3438,793.8439,793.8439,794.6832,427.5,794.684,1.0,795.6813,3.0,2.0,92.0,25.0,1.0,0.8,0.7,Time
,,S16,1,male,33,anonymized,Serial_Dependence_U,2023.2.3,Win32,60.24096386,,,,,,,,,,,,795.6822,3.0,795.6825,,,,798.0175,798.5122,797.5038,798.0168,796.6968,290.0,797.5035,798.5123,799.012,799.0121,800.5034,1118.6,800.5035,5.0,801.5033,3.0,3.0,93.0,15.0,1.0,0.8,0.7,Time
,,S16,1,male,33,anonymized,Serial_Dependence_U,2023.2.3,Win32,60.24096386,,,,,,,,,,,,801.5042,3.0,801.5048,,,,804.2304,804.7286,803.7289,804.2302,802.5123,354.0,803.7288,804.7286,805.2382,805.2383,806.9244,1306.7,806.9246,4.0,807.9125,3.0,4.0,94.0,17.0,1.0,1.2,0.7,Time
,,S16,1,male,33,anonymized,Serial_Dependence_U,2023.2.3,Win32,60.24096386,,,,,,,,,,,,807.9139,3.0,807.9144,,,,810.4608,810.9626,809.9344,810.4605,808.9275,350.0,809.9321,810.9627,811.4631,811.4632,812.9162,982.1999999,812.9167,3.0,813.9131,3.0,5.0,95.0,26.0,1.0,1.0,0.7,Time
,,S16,1,male,33,anonymized,Serial_Dependence_U,2023.2.3,Win32,60.24096386,,,,,,,,,,,,813.9147,3.0,813.9151,,,,816.8536,817.3469,816.3495,816.8533,814.9363,26.0,816.3494,817.3469,817.8464,817.8465,819.2966,1049.2,819.297,2.0,820.2963,3.0,6.0,96.0,23.0,1.0,1.4,0.3,Time
,,S16,1,male,33,anonymized,Serial_Dependence_U,2023.2.3,Win32,60.24096386,,,,,,,,,,,,820.297,3.0,820.2972,,,,823.4306,823.9297,822.92,823.4306,821.3031,236.0,822.92,823.9299,824.4298,824.43,826.3305,1518.1,826.3308,2.0,827.3302,3.0,7.0,97.0,9.0,1.0,1.6,0.7,Time
,,S16,1,male,33,anonymized,Serial_Dependence_U,2023.2.3,Win32,60.24096386,,,,,,,,,,,,827.3308,3.0,827.331,,,,830.0813,830.5806,829.5645,830.0812,828.3477,17.0,829.5645,830.5806,831.0804,831.0807,832.331,901.2,832.3314,2.0,833.3308,3.0,8.0,98.0,27.0,1.0,1.2,0.7,Time
,,S16,1,male,33,anonymized,Serial_Dependence_U,2023.2.3,Win32,60.24096386,,,,,,,,,,,,833.3315,3.0,833.3317,,,,836.2437,836.7477,835.7425,836.2436,834.3363,8.0,835.7424,836.7478,837.2507,837.2507,838.8218,1150.0,838.8219,2.0,839.8151,3.0,9.0,99.0,28.0,1.0,1.4,0.7,Time
,,S16,1,male,33,anonymized,Serial_Dependence_U,2023.2.3,Win32,60.24096386,,,,,,,,,,,,839.8162,3.0,839.8166,,,,842.5658,843.065,842.049,842.5656,840.8323,102.0,842.0488,843.065,843.5649,843.565,844.8493,967.9,844.8495,2.0,845.8485,3.0,10.0,100.0,22.0,1.0,1.2,0.3,Time
,,S16,1,male,33,anonymized,Serial_Dependence_U,2023.2.3,Win32,60.24096386,,,,,,,,,,,,845.8492,3.0,845.8494,,,,848.6089,849.1006,848.0967,848.6087,846.8661,339.0,848.0827,849.1007,849.5926,849.5927,851.216,1266.8,851.2163,4.0,852.2158,3.0,11.0,101.0,7.0,1.0,1.2,0.7,Time
,,S16,1,male,33,anonymized,Serial_Dependence_U,2023.2.3,Win32,60.24096386,,,,,,,,,,,,852.2163,3.0,852.2167,,,,855.352,855.8502,854.835,855.3518,853.2333,301.0,854.8349,855.8503,856.3506,856.3506,857.8916,1209.3,857.8921,2.0,858.8836,3.0,12.0,102.0,14.0,1.0,1.6,0.3,Time
,,S16,1,male,33,anonymized,Serial_Dependence_U,2023.2.3,Win32,60.24096386,,,,,,,,,,,,858.8852,3.0,858.8856,,,,861.6441,862.1336,861.1267,861.644,859.9005,280.0,861.1264,862.1336,862.6339,862.634,864.041,1020.0,864.0411,2.0,865.0392,3.0,13.0,103.0,2.0,1.0,1.2,0.3,Time
,,S16,1,male,33,anonymized,Serial_Dependence_U,2023.2.3,Win32,60.24096386,,,,,,,,,,,,865.0396,3.0,865.0398,,,,867.9745,868.4676,867.4679,867.9743,866.0512,222.0,867.4679,868.4677,868.9721,868.9722,870.9677,767.8,870.9682,1.0,871.9685,3.0,14.0,104.0,3.0,1.0,1.4,0.3,Time
,,S16,1,male,33,anonymized,Serial_Dependence_U,2023.2.3,Win32,60.24096386,,,,,,,,,,,,871.9698,3.0,871.9704,,,,874.9292,875.4188,874.422,874.9291,872.974,25.0,874.3862,875.4188,875.9085,875.9087,877.4941,1192.2,877.4946,2.0,878.4857,3.0,15.0,105.0,18.0,1.0,1.4,0.7,Time
,,S16,1,male,33,anonymized,Serial_Dependence_U,2023.2.3,Win32,60.24096386,,,,,,,,,,,,878.4874,3.0,878.4882,,,,881.6608,882.1586,881.1439,881.6606,879.4925,274.0,881.1438,882.1586,882.653,882.6532,883.8639,841.7,883.8641,1.0,884.8574,3.0,16.0,106.0,4.0,1.0,1.6,0.3,Time
,,S16,1,male,33,anonymized,Serial_Dependence_U,2023.2.3,Win32,60.24096386,,,,,,,,,,,,884.8581,3.0,884.8586,,,,887.6053,888.1031,887.1011,887.6048,885.8724,240.0,887.1006,888.1031,888.6032,888.6034,890.4219,1443.9,890.4223,4.0,891.4204,3.0,17.0,107.0,12.0,1.0,1.2,0.3,Time
,,S16,1,male,33,anonymized,Serial_Dependence_U,2023.2.3,Win32,60.24096386,,,,,,,,,,,,891.4217,3.0,891.4223,,,,893.79,894.2864,893.2787,893.7898,892.4287,286.0,893.2786,894.2865,894.7955,894.7956,895.8656,667.5,895.8657,2.0,896.8698,3.0,18.0,108.0,0.0,1.0,0.8,0.3,Time
,,S16,1,male,33,anonymized,Serial_Dependence_U,2023.2.3,Win32,60.24096386,,,,,,,,,,,,896.8705,3.0,896.8709,,,,900.0074,900.5043,899.4871,900.0071,897.873,29.0,899.4859,900.5044,901.0176,901.0177,902.8218,1437.8,902.8224,2.0,903.8215,3.0,19.0,109.0,19.0,1.0,1.6,0.7,Time
,,S16,1,male,33,anonymized,Serial_Dependence_U,2023.2.3,Win32,60.24096386,,,,,,,,,,,,903.8231,3.0,903.8236,,,,906.388,906.8871,905.8726,906.3879,904.8253,293.0,905.8723,906.8871,907.3874,907.3875,909.2056,1468.7,909.206,5.0,910.2052,3.0,20.0,110.0,1.0,1.0,1.0,0.3,Time
,,S16,1,male,33,anonymized,Serial_Dependence_U,2023.2.3,Win32,60.24096386,,,,,,,,,,,,910.2068,3.0,910.2075,,,,912.5551,913.0552,912.0412,912.5551,911.2157,126.0,912.0411,913.0553,913.5556,913.5557,916.1166,1593.1,916.1169,5.0,917.1059,3.0,21.0,111.0,20.0,1.0,0.8,0.3,Time
,,S16,1,male,33,anonymized,Serial_Dependence_U,2023.2.3,Win32,60.24096386,,,,,,,,,,,,917.1075,3.0,917.1092,,,,919.426,919.922,918.9148,919.4259,918.1099,237.0,918.9145,919.9221,920.4223,920.4224,922.1909,886.9,922.1912,4.0,923.1897,3.0,22.0,112.0,5.0,1.0,0.8,0.7,Time
,,S16,1,male,33,anonymized,Serial_Dependence_U,2023.2.3,Win32,60.24096386,,,,,,,,,,,,923.1916,3.0,923.1924,,,,925.7327,926.2235,925.2174,925.7326,924.2082,88.0,925.2172,926.2236,926.7131,926.7131,928.4288,1080.2,928.4291,4.0,929.4253,3.0,23.0,113.0,16.0,1.0,1.0,0.7,Time
,,S16,1,male,33,anonymized,Serial_Dependence_U,2023.2.3,Win32,60.24096386,,,,,,,,,,,,929.4257,3.0,929.426,,,,932.5966,933.093,932.083,932.5964,930.4324,38.0,932.0828,933.0931,933.5905,933.5908,935.0587,966.1999999,935.059,1.0,936.0576,3.0,24.0,114.0,24.0,1.0,1.6,0.3,Time
,,S16,1,male,33,anonymized,Serial_Dependence_U,2023.2.3,Win32,60.24096386,,,,,,,,,,,,936.059,3.0,936.0596,,,,939.1908,939.6835,938.6793,939.1895,937.0767,337.0,938.6792,939.6836,940.1838,940.1838,942.0031,1426.5,942.0033,2.0,943.0016,3.0,25.0,115.0,29.0,1.0,1.6,0.7,Time
,,S16,1,male,33,anonymized,Serial_Dependence_U,2023.2.3,Win32,60.24096386,,,,,,,,,,,,943.0022,3.0,943.0024,,,,945.9395,946.4506,945.4192,945.9391,944.0035,100.0,945.419,946.4506,946.9419,946.942,948.6479,1317.8,948.6482,2.0,949.6503,3.0,26.0,116.0,8.0,1.0,1.4,0.7,Time
,,S16,1,male,33,anonymized,Serial_Dependence_U,2023.2.3,Win32,60.24096386,,,,,,,,,,,,949.6511,3.0,949.6515,,,,952.6016,953.0925,952.0794,952.6013,950.6686,324.0,952.0791,953.0926,953.5927,953.5927,955.1606,1260.1,955.1613,2.0,956.1582,3.0,27.0,117.0,13.0,1.0,1.4,0.3,Time
,,S16,1,male,33,anonymized,Serial_Dependence_U,2023.2.3,Win32,60.24096386,,,,,,,,,,,,956.1589,3.0,956.1592,,,,958.7045,959.1945,958.188,958.7044,957.1853,200.0,958.1878,959.1945,959.6929,959.6934,961.8148,1789.8,961.8155,5.0,962.8153,3.0,28.0,118.0,11.0,1.0,1.0,0.3,Time
,,S16,1,male,33,anonymized,Serial_Dependence_U,2023.2.3,Win32,60.24096386,,,,,,,,,,,,962.8162,3.0,962.8169,,,,965.1487,965.6441,964.6452,965.1485,963.8315,331.0,964.645,965.6442,966.1429,966.143,967.6932,950.7,967.6935,4.0,968.6928,3.0,29.0,119.0,10.0,1.0,0.8,0.3,Time
,,S16,1,male,33,anonymized,Serial_Dependence_U,2023.2.3,Win32,60.24096386,,,,,,,,,,,,968.6933,4.0,970.6432,s,1.9338,,973.1939,973.6933,972.6773,973.1938,971.6603,54.0,972.6772,973.6933,974.1932,974.1933,976.6804,947.8,976.6809,2.0,977.6685,4.0,0.0,120.0,21.0,1.0,1.0,0.3,Time
,,S16,1,male,33,anonymized,Serial_Dependence_U,2023.2.3,Win32,60.24096386,,,,,,,,,,,,977.6695,4.0,977.673,,,,980.3851,980.8778,979.884,980.3849,978.6693,170.0,979.8839,980.8779,981.3848,981.3849,983.0551,1250.5,983.0555,3.0,984.0453,4.0,1.0,121.0,2.0,1.0,1.2,0.3,Time
,,S16,1,male,33,anonymized,Serial_Dependence_U,2023.2.3,Win32,60.24096386,,,,,,,,,,,,984.0467,4.0,984.0473,,,,986.3857,986.8812,985.8715,986.3856,985.0526,166.0,985.8713,986.8812,987.3778,987.3779,988.3407,551.6999999,988.3409,1.0,989.3334,4.0,2.0,122.0,5.0,1.0,0.8,0.7,Time
,,S16,1,male,33,anonymized,Serial_Dependence_U,2023.2.3,Win32,60.24096386,,,,,,,,,,,,989.3347,4.0,989.3353,,,,992.5212,993.0128,992.0125,992.521,990.3435,27.0,992.0122,993.0129,993.5137,993.5138,995.6887,1683.0,995.689,4.0,996.6796,4.0,3.0,123.0,29.0,1.0,1.6,0.7,Time
,,S16,1,male,33,anonymized,Serial_Dependence_U,2023.2.3,Win32,60.24096386,,,,,,,,,,,,996.6811,4.0,996.6817,,,,999.0038,999.4995,998.5,999.0033,997.6845,10.0,998.4994,999.4996,999.9966,999.9969,1001.3461,933.2,1001.3463,4.0,1002.3456,4.0,4.0,124.0,0.0,1.0,0.8,0.3,Time
,,S16,1,male,33,anonymized,Serial_Dependence_U,2023.2.3,Win32,60.24096386,,,,,,,,,,,,1002.3463,4.0,1002.3466,,,,1004.8658,1005.3538,1004.3634,1004.8656,1003.3549,304.0,1004.3633,1005.354,1005.8468,1005.8471,1007.2655,1006.5,1007.2663,3.0,1008.2637,4.0,5.0,125.0,16.0,1.0,1.0,0.7,Time
,,S16,1,male,33,anonymized,Serial_Dependence_U,2023.2.3,Win32,60.24096386,,,,,,,,,,,,1008.2657,4.0,1008.2666,,,,1011.4087,1011.8973,1010.8912,1011.4085,1009.2737,220.0,1010.8909,1011.8974,1012.3973,1012.3974,1014.6961,1651.0,1014.6976,3.0,1015.6981,4.0,6.0,126.0,14.0,1.0,1.6,0.3,Time
,,S16,1,male,33,anonymized,Serial_Dependence_U,2023.2.3,Win32,60.24096386,,,,,,,,,,,,1015.6998,4.0,1015.7003,,,,1018.2433,1018.7358,1017.7263,1018.2433,1016.7098,229.0,1017.7262,1018.7359,1019.2313,1019.2314,1020.7933,1073.5,1020.7936,4.0,1021.7858,4.0,7.0,127.0,1.0,1.0,1.0,0.3,Time
,,S16,1,male,33,anonymized,Serial_Dependence_U,2023.2.3,Win32,60.24096386,,,,,,,,,,,,1021.7867,4.0,1021.7876,,,,1024.9207,1025.4156,1024.4016,1024.9201,1022.7917,198.0,1024.4014,1025.4162,1025.9149,1025.915,1027.4329,1101.7,1027.4332,1.0,1028.4314,4.0,8.0,128.0,19.0,1.0,1.6,0.7,Time
,,S16,1,male,33,anonymized,Serial_Dependence_U,2023.2.3,Win32,60.24096386,,,,,,,,,,,,1028.4321,4.0,1028.4323,,,,1031.3727,1031.866,1030.8671,1031.3725,1029.449,112.0,1030.8669,1031.866,1032.3654,1032.3655,1034.1842,1457.2,1034.1845,3.0,1035.1831,4.0,9.0,129.0,18.0,1.0,1.4,0.7,Time
,,S16,1,male,33,anonymized,Serial_Dependence_U,2023.2.3,Win32,60.24096386,,,,,,,,,,,,1035.1852,4.0,1035.1857,,,,1037.5368,1038.0357,1037.0299,1037.5364,1036.211,343.0,1037.0297,1038.0358,1038.5239,1038.5239,1040.0694,1000.0,1040.0699,4.0,1041.0659,4.0,10.0,130.0,10.0,1.0,0.8,0.3,Time
,,S16,1,male,33,anonymized,Serial_Dependence_U,2023.2.3,Win32,60.24096386,,,,,,,,,,,,1041.0668,4.0,1041.0672,,,,1043.4002,1043.8993,1042.8835,1043.4001,1042.0672,73.0,1042.8834,1043.8994,1044.3994,1044.3994,1045.9197,1157.3,1045.9201,5.0,1046.9164,4.0,11.0,131.0,15.0,1.0,0.8,0.7,Time
,,S16,1,male,33,anonymized,Serial_Dependence_U,2023.2.3,Win32,60.24096386,,,,,,,,,,,,1046.9169,4.0,1046.9171,,,,1049.4693,1049.9764,1048.9567,1049.469,1047.9289,233.0,1048.9564,1049.9765,1050.4678,1050.4679,1052.2907,1452.1,1052.2911,5.0,1053.292,4.0,12.0,132.0,11.0,1.0,1.0,0.3,Time
,,S16,1,male,33,anonymized,Serial_Dependence_U,2023.2.3,Win32,60.24096386,,,,,,,,,,,,1053.2931,4.0,1053.2937,,,,1055.6238,1056.1577,1055.1098,1055.6235,1054.2932,18.0,1055.1096,1056.1578,1056.6345,1056.6346,1058.3702,1299.8,1058.3706,5.0,1059.368,4.0,13.0,133.0,25.0,1.0,0.8,0.7,Time
,,S16,1,male,33,anonymized,Serial_Dependence_U,2023.2.3,Win32,60.24096386,,,,,,,,,,,,1059.3696,4.0,1059.37,,,,1062.1303,1062.6373,1061.6136,1062.1301,1060.39,329.0,1061.6135,1062.6373,1063.1461,1063.1462,1064.8623,963.4,1064.8628,2.0,1065.8521,4.0,14.0,134.0,22.0,1.0,1.2,0.3,Time
,,S16,1,male,33,anonymized,Serial_Dependence_U,2023.2.3,Win32,60.24096386,,,,,,,,,,,,1065.8541,4.0,1065.8546,,,,1069.0086,1069.5108,1068.5041,1069.0083,1066.8557,240.0,1068.5038,1069.511,1070.0029,1070.003,1071.7749,1366.9,1071.7754,2.0,1072.7767,4.0,15.0,135.0,9.0,1.0,1.6,0.7,Time
,,S16,1,male,33,anonymized,Serial_Dependence_U,2023.2.3,Win32,60.24096386,,,,,,,,,,,,1072.7777,4.0,1072.7787,,,,1075.9034,1076.4029,1075.3941,1075.9032,1073.7786,222.0,1075.3941,1076.4029,1076.9029,1076.903,1078.4407,1154.7,1078.4417,2.0,1079.4388,4.0,16.0,136.0,4.0,1.0,1.6,0.3,Time
,,S16,1,male,33,anonymized,Serial_Dependence_U,2023.2.3,Win32,60.24096386,,,,,,,,,,,,1079.4397,4.0,1079.4401,,,,1082.3924,1082.8885,1081.8896,1082.3923,1080.4836,176.0,1081.8893,1082.8887,1083.3889,1083.389,1085.4205,1581.0,1085.4207,4.0,1086.4197,4.0,17.0,137.0,28.0,1.0,1.4,0.7,Time
,,S16,1,male,33,anonymized,Serial_Dependence_U,2023.2.3,Win32,60.24096386,,,,,,,,,,,,1086.4204,4.0,1086.4207,,,,1089.3508,1089.8545,1088.839,1089.3505,1087.4375,92.0,1088.8388,1089.8546,1090.3458,1090.3459,1091.994,1261.0,1091.9943,2.0,1092.9882,4.0,18.0,138.0,23.0,1.0,1.4,0.3,Time
,,S16,1,male,33,anonymized,Serial_Dependence_U,2023.2.3,Win32,60.24096386,,,,,,,,,,,,1092.9896,4.0,1092.9903,,,,1095.5127,1096.0056,1095.0065,1095.5124,1094.0047,334.0,1095.0063,1096.006,1096.4961,1096.4962,1098.4001,1500.8,1098.4005,5.0,1099.405,4.0,19.0,139.0,6.0,1.0,1.0,0.7,Time
,,S16,1,male,33,anonymized,Serial_Dependence_U,2023.2.3,Win32,60.24096386,,,,,,,,,,,,1099.4061,4.0,1099.4067,,,,1101.7554,1102.2545,1101.2386,1101.7552,1100.4219,201.0,1101.2385,1102.2546,1102.7546,1102.7547,1104.3995,1347.8,1104.3999,5.0,1105.3954,4.0,20.0,140.0,20.0,1.0,0.8,0.3,Time
,,S16,1,male,33,anonymized,Serial_Dependence_U,2023.2.3,Win32,60.24096386,,,,,,,,,,,,1105.3961,4.0,1105.3965,,,,1108.1151,1108.6059,1107.6097,1108.1149,1106.4058,60.0,1107.6095,1108.606,1109.0954,1109.0955,1110.7127,1212.0,1110.713,3.0,1111.7069,4.0,21.0,141.0,27.0,1.0,1.2,0.7,Time
,,S16,1,male,33,anonymized,Serial_Dependence_U,2023.2.3,Win32,60.24096386,,,,,,,,,,,,1111.7083,4.0,1111.7087,,,,1114.6326,1115.1235,1114.1275,1114.6323,1112.725,1.0,1114.1273,1115.1236,1115.6152,1115.6154,1117.5318,1580.7,1117.5322,4.0,1118.5257,4.0,22.0,142.0,13.0,1.0,1.4,0.3,Time
,,S16,1,male,33,anonymized,Serial_Dependence_U,2023.2.3,Win32,60.24096386,,,,,,,,,,,,1118.5267,4.0,1118.5271,,,,1121.107,1121.6062,1120.5553,1121.107,1119.5382,86.0,1120.555,1121.6062,1122.1063,1122.1063,1123.1608,669.8,1123.1612,1.0,1124.1572,4.0,23.0,143.0,26.0,1.0,1.0,0.7,Time
,,S16,1,male,33,anonymized,Serial_Dependence_U,2023.2.3,Win32,60.24096386,,,,,,,,,,,,1124.1584,4.0,1124.1591,,,,1127.1269,1127.6257,1126.6164,1127.1265,1125.1719,52.0,1126.6163,1127.6258,1128.1259,1128.126,1130.0091,1046.5,1130.0095,2.0,1131.0096,4.0,24.0,144.0,8.0,1.0,1.4,0.7,Time
,,S16,1,male,33,anonymized,Serial_Dependence_U,2023.2.3,Win32,60.24096386,,,,,,,,,,,,1131.0104,4.0,1131.0108,,,,1134.1747,1134.6665,1133.6556,1134.1734,1132.0133,351.0,1133.6552,1134.6666,1135.1604,1135.1605,1137.3704,1229.5,1137.3706,2.0,1138.3584,4.0,25.0,145.0,24.0,1.0,1.6,0.3,Time
,,S16,1,male,33,anonymized,Serial_Dependence_U,2023.2.3,Win32,60.24096386,,,,,,,,,,,,1138.3592,4.0,1138.3595,,,,1141.094,1141.5921,1140.5842,1141.0938,1139.3679,276.0,1140.584,1141.5921,1142.0926,1142.0927,1144.1371,1285.5,1144.1376,4.0,1145.126,4.0,26.0,146.0,17.0,1.0,1.2,0.7,Time
,,S16,1,male,33,anonymized,Serial_Dependence_U,2023.2.3,Win32,60.24096386,,,,,,,,,,,,1145.1275,4.0,1145.1282,,,,1147.888,1148.392,1147.3799,1147.888,1146.1376,189.0,1147.3797,1148.392,1148.8844,1148.8844,1150.5445,1146.4,1150.5448,3.0,1151.5435,4.0,27.0,147.0,12.0,1.0,1.2,0.3,Time
,,S16,1,male,33,anonymized,Serial_Dependence_U,2023.2.3,Win32,60.24096386,,,,,,,,,,,,1151.5452,4.0,1151.5457,,,,1154.4843,1154.9771,1153.9799,1154.4841,1152.5732,107.0,1153.9797,1154.9771,1155.4839,1155.484,1157.0018,1064.6,1157.0023,2.0,1157.9939,4.0,28.0,148.0,3.0,1.0,1.4,0.3,Time
,,S16,1,male,33,anonymized,Serial_Dependence_U,2023.2.3,Win32,60.24096386,,,,,,,,,,,,1157.9953,4.0,1157.996,,,,1160.7446,1161.2362,1160.2328,1160.7444,1159.0132,176.0,1160.2327,1161.2362,1161.729,1161.7291,1163.6855,1566.4,1163.6858,5.0,1164.6775,4.0,29.0,149.0,7.0,1.0,1.2,0.7,Time
,,S16,1,male,33,anonymized,Serial_Dependence_U,2023.2.3,Win32,60.24096386,,,,,,,,,,,,1164.6797,5.0,1166.2616,s,1.551,,1168.8066,1169.3107,1168.3056,1168.8065,1167.2779,279.0,1168.3055,1169.3108,1169.8107,1169.8108,1171.6873,898.8,1171.6877,2.0,1172.6788,5.0,0.0,150.0,26.0,1.0,1.0,0.7,Time
,,S16,1,male,33,anonymized,Serial_Dependence_U,2023.2.3,Win32,60.24096386,,,,,,,,,,,,1172.6803,5.0,1172.6844,,,,1175.0476,1175.5463,1174.5335,1175.0473,1173.6838,97.0,1174.533,1175.547,1176.0467,1176.0469,1177.1671,803.2,1177.1675,3.0,1178.1627,5.0,1.0,151.0,25.0,1.0,0.8,0.7,Time
,,S16,1,male,33,anonymized,Serial_Dependence_U,2023.2.3,Win32,60.24096386,,,,,,,,,,,,1178.1634,5.0,1178.1637,,,,1180.8924,1181.3839,1180.3811,1180.8921,1179.1789,277.0,1180.3809,1181.3839,1181.8783,1181.8784,1183.3163,1129.7,1183.3166,2.0,1184.305,5.0,2.0,152.0,22.0,1.0,1.2,0.3,Time
,,S16,1,male,33,anonymized,Serial_Dependence_U,2023.2.3,Win32,60.24096386,,,,,,,,,,,,1184.306,5.0,1184.3068,,,,1187.2793,1187.7794,1186.7603,1187.2792,1185.3075,217.0,1186.7599,1187.7794,1188.272,1188.2721,1190.2698,1684.2,1190.2702,4.0,1191.2634,5.0,3.0,153.0,13.0,1.0,1.4,0.3,Time
,,S16,1,male,33,anonymized,Serial_Dependence_U,2023.2.3,Win32,60.24096386,,,,,,,,,,,,1191.2655,5.0,1191.2662,,,,1194.4042,1194.8964,1193.8889,1194.4039,1192.2692,315.0,1193.8886,1194.8965,1195.4031,1195.4031,1197.0134,1284.2,1197.0137,2.0,1198.0135,5.0,4.0,154.0,24.0,1.0,1.6,0.3,Time
,,S16,1,male,33,anonymized,Serial_Dependence_U,2023.2.3,Win32,60.24096386,,,,,,,,,,,,1198.0142,5.0,1198.0149,,,,1201.1862,1201.68,1200.6705,1201.186,1199.0268,184.0,1200.6701,1201.6801,1202.1807,1202.1807,1204.0067,1453.5,1204.0071,2.0,1204.9978,5.0,5.0,155.0,29.0,1.0,1.6,0.7,Time
,,S16,1,male,33,anonymized,Serial_Dependence_U,2023.2.3,Win32,60.24096386,,,,,,,,,,,,1204.9988,5.0,1204.9991,,,,1207.348,1207.8473,1206.8313,1207.3479,1206.0146,110.0,1206.8312,1207.8473,1208.3472,1208.3473,1210.1323,1403.1,1210.133,5.0,1211.1386,5.0,6.0,156.0,20.0,1.0,0.8,0.3,Time
,,S16,1,male,33,anonymized,Serial_Dependence_U,2023.2.3,Win32,60.24096386,,,,,,,,,,,,1211.1394,5.0,1211.1399,,,,1213.4819,1213.9811,1212.965,1213.4818,1212.1485,80.0,1212.9648,1213.9811,1214.4822,1214.4822,1216.373,1221.0,1216.3734,5.0,1217.3664,5.0,7.0,157.0,15.0,1.0,0.8,0.7,Time
,,S16,1,male,33,anonymized,Serial_Dependence_U,2023.2.3,Win32,60.24096386,,,,,,,,,,,,1217.3683,5.0,1217.3689,,,,1220.0922,1220.5826,1219.5753,1220.0921,1218.3727,216.0,1219.575,1220.5827,1221.0723,1221.0724,1222.8671,1469.6,1222.8679,4.0,1223.8756,5.0,8.0,158.0,27.0,1.0,1.2,0.7,Time
,,S16,1,male,33,anonymized,Serial_Dependence_U,2023.2.3,Win32,60.24096386,,,,,,,,,,,,1223.8765,5.0,1223.8772,,,,1226.1965,1226.6936,1225.6869,1226.1963,1224.8827,79.0,1225.6866,1226.6937,1227.1934,1227.1934,1228.5118,965.1,1228.5121,4.0,1229.5017,5.0,9.0,159.0,5.0,1.0,0.8,0.7,Time
,,S16,1,male,33,anonymized,Serial_Dependence_U,2023.2.3,Win32,60.24096386,,,,,,,,,,,,1229.5026,5.0,1229.5032,,,,1232.6312,1233.121,1232.1186,1232.631,1230.5056,185.0,1232.1184,1233.121,1233.6296,1233.6297,1235.6905,1750.4,1235.6908,4.0,1236.6833,5.0,10.0,160.0,9.0,1.0,1.6,0.7,Time
,,S16,1,male,33,anonymized,Serial_Dependence_U,2023.2.3,Win32,60.24096386,,,,,,,,,,,,1236.6841,5.0,1236.6845,,,,1239.8114,1240.3025,1239.3022,1239.8113,1237.696,248.0,1239.302,1240.3026,1240.7969,1240.797,1243.1382,1607.6,1243.1387,3.0,1244.1345,5.0,11.0,161.0,4.0,1.0,1.6,0.3,Time
,,S16,1,male,33,anonymized,Serial_Dependence_U,2023.2.3,Win32,60.24096386,,,,,,,,,,,,1244.1361,5.0,1244.1365,,,,1246.7299,1247.222,1246.2163,1246.7295,1245.1437,48.0,1246.2161,1247.2221,1247.7108,1247.7109,1249.5881,1432.3,1249.5886,5.0,1250.579,5.0,12.0,162.0,1.0,1.0,1.0,0.3,Time
,,S16,1,male,33,anonymized,Serial_Dependence_U,2023.2.3,Win32,60.24096386,,,,,,,,,,,,1250.5798,5.0,1250.5801,,,,1253.0881,1253.5877,1252.585,1253.088,1251.579,205.0,1252.5837,1253.5878,1254.0879,1254.088,1255.6737,1172.8,1255.674,4.0,1256.6685,5.0,13.0,163.0,21.0,1.0,1.0,0.3,Time
,,S16,1,male,33,anonymized,Serial_Dependence_U,2023.2.3,Win32,60.24096386,,,,,,,,,,,,1256.6693,5.0,1256.6698,,,,1259.8275,1260.3323,1259.3113,1259.8272,1257.6818,318.0,1259.311,1260.3325,1260.8205,1260.8206,1262.3721,1236.0,1262.3724,2.0,1263.3695,5.0,14.0,164.0,14.0,1.0,1.6,0.3,Time
,,S16,1,male,33,anonymized,Serial_Dependence_U,2023.2.3,Win32,60.24096386,,,,,,,,,,,,1263.3711,5.0,1263.3716,,,,1266.1012,1266.6119,1265.579,1266.1009,1264.3721,307.0,1265.5787,1266.6119,1267.1078,1267.1079,1268.4321,849.9000001,1268.4323,2.0,1269.4362,5.0,15.0,165.0,2.0,1.0,1.2,0.3,Time
,,S16,1,male,33,anonymized,Serial_Dependence_U,2023.2.3,Win32,60.24096386,,,,,,,,,,,,1269.4371,5.0,1269.4376,,,,1272.5722,1273.0708,1272.0615,1272.5721,1270.4467,83.0,1272.0613,1273.0708,1273.5702,1273.5703,1275.4711,1583.6,1275.4714,3.0,1276.4833,5.0,16.0,166.0,19.0,1.0,1.6,0.7,Time
,,S16,1,male,33,anonymized,Serial_Dependence_U,2023.2.3,Win32,60.24096386,,,,,,,,,,,,1276.4842,5.0,1276.4848,,,,1279.0152,1279.5038,1278.4973,1279.0149,1277.4908,74.0,1278.4972,1279.5038,1279.9986,1279.9986,1281.3591,1006.0,1281.3595,3.0,1282.351,5.0,17.0,167.0,6.0,1.0,1.0,0.7,Time
,,S16,1,male,33,anonymized,Serial_Dependence_U,2023.2.3,Win32,60.24096386,,,,,,,,,,,,1282.3523,5.0,1282.353,,,,1285.1472,1285.6378,1284.6277,1285.147,1283.4129,359.0,1284.6274,1285.6378,1286.1319,1286.132,1287.6201,1102.5,1287.6203,2.0,1288.6219,5.0,18.0,168.0,12.0,1.0,1.2,0.3,Time
,,S16,1,male,33,anonymized,Serial_Dependence_U,2023.2.3,Win32,60.24096386,,,,,,,,,,,,1288.6237,5.0,1288.6243,,,,1291.5781,1292.0747,1291.0534,1291.5778,1289.6371,204.0,1291.0532,1292.0749,1292.5748,1292.5763,1294.5753,1542.7,1294.5762,4.0,1295.5717,5.0,19.0,169.0,3.0,1.0,1.4,0.3,Time
,,S16,1,male,33,anonymized,Serial_Dependence_U,2023.2.3,Win32,60.24096386,,,,,,,,,,,,1295.5723,5.0,1295.5726,,,,1298.1042,1298.5949,1297.5929,1298.1039,1296.5843,92.0,1297.5925,1298.5949,1299.0988,1299.0989,1300.7338,1290.0,1300.734,4.0,1301.7225,5.0,20.0,170.0,16.0,1.0,1.0,0.7,Time
,,S16,1,male,33,anonymized,Serial_Dependence_U,2023.2.3,Win32,60.24096386,,,,,,,,,,,,1301.7233,5.0,1301.7237,,,,1304.1075,1304.6161,1303.5463,1304.1072,1302.7409,354.0,1303.5458,1304.6161,1305.1069,1305.1071,1306.7022,1150.0,1306.7025,5.0,1307.7062,5.0,21.0,171.0,10.0,1.0,0.8,0.3,Time
,,S16,1,male,33,anonymized,Serial_Dependence_U,2023.2.3,Win32,60.24096386,,,,,,,,,,,,1307.7071,5.0,1307.7074,,,,1310.4404,1310.942,1309.9356,1310.4403,1308.719,245.0,1309.9355,1310.9421,1311.4408,1311.4409,1313.3664,1169.0,1313.3668,3.0,1314.3664,5.0,22.0,172.0,7.0,1.0,1.2,0.7,Time
,,S16,1,male,33,anonymized,Serial_Dependence_U,2023.2.3,Win32,60.24096386,,,,,,,,,,,,1314.3673,5.0,1314.3679,,,,1316.9079,1317.4076,1316.3875,1316.9077,1315.3727,282.0,1316.3874,1317.4076,1317.9073,1317.9075,1320.1509,870.6,1320.1513,2.0,1321.1408,5.0,23.0,173.0,11.0,1.0,1.0,0.3,Time
,,S16,1,male,33,anonymized,Serial_Dependence_U,2023.2.3,Win32,60.24096386,,,,,,,,,,,,1321.1416,5.0,1321.1422,,,,1323.906,1324.3966,1323.4014,1323.9057,1322.155,222.0,1323.4012,1324.3966,1324.8938,1324.8939,1326.692,1293.5,1326.6921,4.0,1327.6916,5.0,24.0,174.0,17.0,1.0,1.2,0.7,Time
,,S16,1,male,33,anonymized,Serial_Dependence_U,2023.2.3,Win32,60.24096386,,,,,,,,,,,,1327.6922,5.0,1327.6928,,,,1330.6541,1331.1418,1330.1375,1330.654,1328.7009,31.0,1330.1374,1331.1419,1331.6445,1331.6446,1333.6881,1363.3,1333.6883,3.0,1334.693,5.0,25.0,175.0,18.0,1.0,1.4,0.7,Time
,,S16,1,male,33,anonymized,Serial_Dependence_U,2023.2.3,Win32,60.24096386,,,,,,,,,,,,1334.6946,5.0,1334.6952,,,,1337.6342,1338.1264,1337.1312,1337.6339,1335.7154,234.0,1337.131,1338.1267,1338.6264,1338.6265,1340.3432,1361.9,1340.3435,3.0,1341.3443,5.0,26.0,176.0,28.0,1.0,1.4,0.7,Time
,,S16,1,male,33,anonymized,Serial_Dependence_U,2023.2.3,Win32,60.24096386,,,,,,,,,,,,1341.3459,5.0,1341.3463,,,,1343.7168,1344.2126,1343.1784,1343.7166,1342.3658,191.0,1343.1781,1344.2126,1344.7124,1344.7125,1346.0272,966.5,1346.0279,4.0,1347.0267,5.0,27.0,177.0,0.0,1.0,0.8,0.3,Time
,,S16,1,male,33,anonymized,Serial_Dependence_U,2023.2.3,Win32,60.24096386,,,,,,,,,,,,1347.0283,5.0,1347.0287,,,,1349.9613,1350.4608,1349.4551,1349.9609,1348.0391,179.0,1349.455,1350.4609,1350.9571,1350.9573,1352.8712,1409.9,1352.8715,3.0,1353.8662,5.0,28.0,178.0,23.0,1.0,1.4,0.3,Time
,,S16,1,male,33,anonymized,Serial_Dependence_U,2023.2.3,Win32,60.24096386,,,,,,,,,,,,1353.8672,5.0,1353.8678,,,,1356.8072,1357.2996,1356.2926,1356.8069,1354.8683,230.0,1356.2922,1357.2997,1357.7988,1357.7989,1359.1947,1058.4,1359.1949,2.0,1360.1942,5.0,29.0,179.0,8.0,1.0,1.4,0.7,Time
,,S16,1,male,33,anonymized,Serial_Dependence_U,2023.2.3,Win32,60.24096386,,,,,,,,,,,,1360.195,6.0,1362.0613,s,1.8358,,1364.3993,1364.899,1363.8788,1364.3993,1363.0739,49.0,1363.8787,1364.899,1365.3956,1365.3958,1367.2075,1153.9,1367.2079,5.0,1368.1995,6.0,0.0,180.0,15.0,1.0,0.8,0.7,Time
,,S16,1,male,33,anonymized,Serial_Dependence_U,2023.2.3,Win32,60.24096386,,,,,,,,,,,,1368.2005,6.0,1368.2039,,,,1370.9653,1371.4628,1370.4607,1370.9651,1369.2002,251.0,1370.4603,1371.4629,1371.9641,1371.9642,1374.2647,1349.2,1374.2651,4.0,1375.2627,6.0,1.0,181.0,12.0,1.0,1.2,0.3,Time
,,S16,1,male,33,anonymized,Serial_Dependence_U,2023.2.3,Win32,60.24096386,,,,,,,,,,,,1375.2644,6.0,1375.2656,,,,1377.8206,1378.3124,1377.3083,1377.8205,1376.2748,40.0,1377.3082,1378.3125,1378.8127,1378.8128,1380.7076,1494.5,1380.7079,5.0,1381.6967,6.0,2.0,182.0,21.0,1.0,1.0,0.3,Time
,,S16,1,male,33,anonymized,Serial_Dependence_U,2023.2.3,Win32,60.24096386,,,,,,,,,,,,1381.6986,6.0,1381.6992,,,,1384.8742,1385.3637,1384.3548,1384.8736,1382.7118,354.0,1384.3547,1385.3639,1385.872,1385.8721,1387.5266,1373.8,1387.5268,2.0,1388.5338,6.0,3.0,183.0,29.0,1.0,1.6,0.7,Time
,,S16,1,male,33,anonymized,Serial_Dependence_U,2023.2.3,Win32,60.24096386,,,,,,,,,,,,1388.5347,6.0,1388.5354,,,,1391.6902,1392.1882,1391.1852,1391.69,1389.565,213.0,1391.1849,1392.1883,1392.6831,1392.6831,1394.5933,1416.6,1394.5935,2.0,1395.5826,6.0,4.0,184.0,4.0,1.0,1.6,0.3,Time
,,S16,1,male,33,anonymized,Serial_Dependence_U,2023.2.3,Win32,60.24096386,,,,,,,,,,,,1395.5837,6.0,1395.5841,,,,1397.9264,1398.4169,1397.4129,1397.9262,1396.5957,9.0,1397.4126,1398.417,1398.9148,1398.9148,1400.6881,1263.9,1400.6885,5.0,1401.6832,6.0,5.0,185.0,10.0,1.0,0.8,0.3,Time
,,S16,1,male,33,anonymized,Serial_Dependence_U,2023.2.3,Win32,60.24096386,,,,,,,,,,,,1401.6842,6.0,1401.6846,,,,1404.2107,1404.6992,1403.7022,1404.2107,1402.697,64.0,1403.7018,1404.6992,1405.1992,1405.1993,1406.9944,1199.5,1406.9946,4.0,1407.9903,6.0,6.0,186.0,16.0,1.0,1.0,0.7,Time
,,S16,1,male,33,anonymized,Serial_Dependence_U,2023.2.3,Win32,60.24096386,,,,,,,,,,,,1407.991,6.0,1407.9914,,,,1410.2947,1410.7864,1409.7881,1410.2945,1408.9855,234.0,1409.788,1410.7864,1411.2831,1411.2832,1412.9424,1250.0,1412.9427,5.0,1413.9331,6.0,7.0,187.0,0.0,1.0,0.8,0.3,Time
,,S16,1,male,33,anonymized,Serial_Dependence_U,2023.2.3,Win32,60.24096386,,,,,,,,,,,,1413.9347,6.0,1413.9353,,,,1416.8618,1417.35,1416.3441,1416.8616,1414.9414,335.0,1416.3437,1417.3501,1417.8504,1417.8505,1419.4713,1264.1,1419.4718,2.0,1420.4668,6.0,8.0,188.0,8.0,1.0,1.4,0.7,Time
,,S16,1,male,33,anonymized,Serial_Dependence_U,2023.2.3,Win32,60.24096386,,,,,,,,,,,,1420.4684,6.0,1420.4689,,,,1423.3895,1423.8918,1422.8841,1423.3893,1421.4788,58.0,1422.884,1423.8918,1424.3907,1424.3908,1425.9017,1100.2,1425.9024,2.0,1426.9014,6.0,9.0,189.0,3.0,1.0,1.4,0.3,Time
,,S16,1,male,33,anonymized,Serial_Dependence_U,2023.2.3,Win32,60.24096386,,,,,,,,,,,,1426.9029,6.0,1426.9034,,,,1429.4393,1429.9349,1428.9288,1429.439,1427.911,356.0,1428.9285,1429.9351,1430.4253,1430.4254,1431.6897,945.5,1431.6901,2.0,1432.685,6.0,10.0,190.0,11.0,1.0,1.0,0.3,Time
,,S16,1,male,33,anonymized,Serial_Dependence_U,2023.2.3,Win32,60.24096386,,,,,,,,,,,,1432.6868,6.0,1432.6874,,,,1435.2459,1435.7346,1434.704,1435.2458,1433.69,292.0,1434.7037,1435.7347,1436.2346,1436.2347,1437.7523,1171.5,1437.7526,4.0,1438.7511,6.0,11.0,191.0,6.0,1.0,1.0,0.7,Time
,,S16,1,male,33,anonymized,Serial_Dependence_U,2023.2.3,Win32,60.24096386,,,,,,,,,,,,1438.7519,6.0,1438.7526,,,,1441.3034,1441.8021,1440.7857,1441.3032,1439.766,165.0,1440.7853,1441.8022,1442.31,1442.3101,1444.0789,1233.9,1444.0794,4.0,1445.0767,6.0,12.0,192.0,1.0,1.0,1.0,0.3,Time
,,S16,1,male,33,anonymized,Serial_Dependence_U,2023.2.3,Win32,60.24096386,,,,,,,,,,,,1445.0782,6.0,1445.0791,,,,1447.8194,1448.3185,1447.3026,1447.8193,1446.0877,97.0,1447.3025,1448.3186,1448.8186,1448.8187,1450.1525,986.5,1450.1528,2.0,1451.1525,6.0,13.0,193.0,2.0,1.0,1.2,0.3,Time
,,S16,1,male,33,anonymized,Serial_Dependence_U,2023.2.3,Win32,60.24096386,,,,,,,,,,,,1451.1534,6.0,1451.1539,,,,1453.4744,1453.9691,1452.9649,1453.4742,1452.1483,8.0,1452.9649,1453.9692,1454.4695,1454.4696,1455.9299,1046.1,1455.9303,5.0,1456.9198,6.0,14.0,194.0,25.0,1.0,0.8,0.7,Time
,,S16,1,male,33,anonymized,Serial_Dependence_U,2023.2.3,Win32,60.24096386,,,,,,,,,,,,1456.921,6.0,1456.9215,,,,1459.8565,1460.3555,1459.3439,1459.8564,1457.9373,241.0,1459.3438,1460.3555,1460.8539,1460.8539,1462.0796,756.3000001,1462.0799,1.0,1463.0706,6.0,15.0,195.0,23.0,1.0,1.4,0.3,Time
,,S16,1,male,33,anonymized,Serial_Dependence_U,2023.2.3,Win32,60.24096386,,,,,,,,,,,,1463.0719,6.0,1463.0722,,,,1465.8043,1466.3035,1465.2986,1465.8042,1464.0828,61.0,1465.2985,1466.3035,1466.8037,1466.8039,1468.3666,1216.7,1468.3667,3.0,1469.3709,6.0,16.0,196.0,22.0,1.0,1.2,0.3,Time
,,S16,1,male,33,anonymized,Serial_Dependence_U,2023.2.3,Win32,60.24096386,,,,,,,,,,,,1469.3715,6.0,1469.3721,,,,1472.1218,1472.6209,1471.6049,1472.1216,1470.3881,150.0,1471.6048,1472.621,1473.1209,1473.1209,1474.6719,1214.7,1474.6722,3.0,1475.6711,6.0,17.0,197.0,7.0,1.0,1.2,0.7,Time
,,S16,1,male,33,anonymized,Serial_Dependence_U,2023.2.3,Win32,60.24096386,,,,,,,,,,,,1475.6717,6.0,1475.6719,,,,1478.4202,1478.9221,1477.8856,1478.4199,1476.6766,326.0,1477.8852,1478.9223,1479.4349,1479.435,1481.4342,1380.9,1481.4343,4.0,1482.4464,6.0,18.0,198.0,17.0,1.0,1.2,0.7,Time
,,S16,1,male,33,anonymized,Serial_Dependence_U,2023.2.3,Win32,60.24096386,,,,,,,,,,,,1482.4469,6.0,1482.4471,,,,1485.3638,1485.8559,1484.8613,1485.3636,1483.4539,20.0,1484.8609,1485.8561,1486.3583,1486.3584,1488.0648,1003.1,1488.0654,2.0,1489.0565,6.0,19.0,199.0,13.0,1.0,1.4,0.3,Time
,,S16,1,male,33,anonymized,Serial_Dependence_U,2023.2.3,Win32,60.24096386,,,,,,,,,,,,1489.0586,6.0,1489.0596,,,,1491.3824,1491.8736,1490.8752,1491.3822,1490.059,217.0,1490.875,1491.8737,1492.3736,1492.3738,1494.0117,1174.6,1494.0121,5.0,1495.0017,6.0,20.0,200.0,20.0,1.0,0.8,0.3,Time
,,S16,1,male,33,anonymized,Serial_Dependence_U,2023.2.3,Win32,60.24096386,,,,,,,,,,,,1495.0025,6.0,1495.0032,,,,1498.1358,1498.6262,1497.6291,1498.1357,1496.007,61.0,1497.6289,1498.6262,1499.1313,1499.1313,1501.1583,1286.1,1501.1592,2.0,1502.1589,6.0,21.0,201.0,9.0,1.0,1.6,0.7,Time
,,S16,1,male,33,anonymized,Serial_Dependence_U,2023.2.3,Win32,60.24096386,,,,,,,,,,,,1502.16,6.0,1502.1604,,,,1504.9006,1505.3906,1504.3843,1504.9002,1503.1671,313.0,1504.3839,1505.3907,1505.8907,1505.891,1508.3031,1118.2,1508.3033,2.0,1509.2931,6.0,22.0,202.0,27.0,1.0,1.2,0.7,Time
,,S16,1,male,33,anonymized,Serial_Dependence_U,2023.2.3,Win32,60.24096386,,,,,,,,,,,,1509.2935,6.0,1509.2937,,,,1512.4417,1512.9409,1511.9252,1512.4416,1510.3083,104.0,1511.925,1512.941,1513.4412,1513.4412,1515.0083,1254.7,1515.0086,2.0,1516.0081,6.0,23.0,203.0,14.0,1.0,1.6,0.3,Time
,,S16,1,male,33,anonymized,Serial_Dependence_U,2023.2.3,Win32,60.24096386,,,,,,,,,,,,1516.0086,6.0,1516.0088,,,,1519.1374,1519.6258,1518.6318,1519.1372,1517.0285,272.0,1518.6315,1519.626,1520.1255,1520.1257,1521.8826,1300.2,1521.8828,2.0,1522.8758,6.0,24.0,204.0,24.0,1.0,1.6,0.3,Time
,,S16,1,male,33,anonymized,Serial_Dependence_U,2023.2.3,Win32,60.24096386,,,,,,,,,,,,1522.877,6.0,1522.8775,,,,1525.4097,1525.9088,1524.8948,1525.4095,1523.8838,292.0,1524.8946,1525.9088,1526.4089,1526.409,1528.0713,1273.9,1528.0717,4.0,1529.0605,6.0,25.0,205.0,26.0,1.0,1.0,0.7,Time
,,S16,1,male,33,anonymized,Serial_Dependence_U,2023.2.3,Win32,60.24096386,,,,,,,,,,,,1529.0622,6.0,1529.0627,,,,1532.2458,1532.7453,1531.7293,1532.2455,1530.073,105.0,1531.7291,1532.7454,1533.246,1533.2461,1534.8375,1166.8,1534.8378,2.0,1535.8289,6.0,26.0,206.0,19.0,1.0,1.6,0.7,Time
,,S16,1,male,33,anonymized,Serial_Dependence_U,2023.2.3,Win32,60.24096386,,,,,,,,,,,,1535.8302,6.0,1535.831,,,,1538.1441,1538.6436,1537.6375,1538.1441,1536.8325,287.0,1537.6374,1538.6437,1539.1448,1539.145,1541.0366,1643.9,1541.0368,5.0,1542.037,6.0,27.0,207.0,5.0,1.0,0.8,0.7,Time
,,S16,1,male,33,anonymized,Serial_Dependence_U,2023.2.3,Win32,60.24096386,,,,,,,,,,,,1542.0374,6.0,1542.0376,,,,1544.9929,1545.482,1544.4678,1544.9927,1543.0466,290.0,1544.4667,1545.4821,1545.9709,1545.971,1547.9043,1477.0,1547.9048,4.0,1548.8951,6.0,28.0,208.0,28.0,1.0,1.4,0.7,Time
,,S16,1,male,33,anonymized,Serial_Dependence_U,2023.2.3,Win32,60.24096386,,,,,,,,,,,,1548.8968,6.0,1548.8973,,,,1551.822,1552.3122,1551.3057,1551.8216,1549.9004,143.0,1551.3054,1552.3122,1552.813,1552.8134,1554.0162,925.5999999,1554.0168,1.0,1555.0113,6.0,29.0,209.0,18.0,1.0,1.4,0.7,Time
,,S16,1,male,33,anonymized,Serial_Dependence_U,2023.2.3,Win32,60.24096386,,,,,,,,,,,,1555.012,7.0,1558.4967,s,3.4636,,1561.0444,1561.5458,1560.5274,1561.0441,1559.5144,114.0,1560.5273,1561.5458,1562.0459,1562.046,1563.4225,982.4000001,1563.4229,3.0,1564.4135,7.0,0.0,210.0,1.0,1.0,1.0,0.3,Time
,,S16,1,male,33,anonymized,Serial_Dependence_U,2023.2.3,Win32,60.24096386,,,,,,,,,,,,1564.415,7.0,1564.4185,,,,1567.5633,1568.0626,1567.0466,1567.5631,1565.4316,36.0,1567.0465,1568.0627,1568.5626,1568.5626,1569.859,991.3,1569.8592,1.0,1570.849,7.0,1.0,211.0,19.0,1.0,1.6,0.7,Time
,,S16,1,male,33,anonymized,Serial_Dependence_U,2023.2.3,Win32,60.24096386,,,,,,,,,,,,1570.8493,7.0,1570.8495,,,,1573.3805,1573.8801,1572.8666,1573.3803,1571.8535,195.0,1572.8665,1573.8801,1574.3798,1574.3798,1576.0554,1312.2,1576.0558,5.0,1577.0488,7.0,2.0,212.0,26.0,1.0,1.0,0.7,Time
,,S16,1,male,33,anonymized,Serial_Dependence_U,2023.2.3,Win32,60.24096386,,,,,,,,,,,,1577.0505,7.0,1577.0509,,,,1579.3872,1579.881,1578.883,1579.3871,1578.0757,79.0,1578.8828,1579.8812,1580.3843,1580.3844,1581.7911,1060.5,1581.7915,5.0,1582.7836,7.0,3.0,213.0,15.0,1.0,0.8,0.7,Time
,,S16,1,male,33,anonymized,Serial_Dependence_U,2023.2.3,Win32,60.24096386,,,,,,,,,,,,1582.7847,7.0,1582.7857,,,,1585.1156,1585.6356,1584.601,1585.1153,1583.789,21.0,1584.6007,1585.6357,1586.1309,1586.131,1587.9801,971.5999999,1587.9813,4.0,1588.9699,7.0,4.0,214.0,0.0,1.0,0.8,0.3,Time
,,S16,1,male,33,anonymized,Serial_Dependence_U,2023.2.3,Win32,60.24096386,,,,,,,,,,,,1588.9711,7.0,1588.9716,,,,1591.4878,1591.9842,1590.984,1591.4876,1589.9709,261.0,1590.9838,1591.9842,1592.4722,1592.4722,1594.2441,1143.1,1594.2449,4.0,1595.2342,7.0,5.0,215.0,21.0,1.0,1.0,0.3,Time
,,S16,1,male,33,anonymized,Serial_Dependence_U,2023.2.3,Win32,60.24096386,,,,,,,,,,,,1595.2351,7.0,1595.2356,,,,1597.7705,1598.2672,1597.2531,1597.7703,1596.247,148.0,1597.2528,1598.2675,1598.7679,1598.768,1600.6995,1258.3,1600.6997,4.0,1601.6988,7.0,6.0,216.0,16.0,1.0,1.0,0.7,Time
,,S16,1,male,33,anonymized,Serial_Dependence_U,2023.2.3,Win32,60.24096386,,,,,,,,,,,,1601.6995,7.0,1601.6997,,,,1604.6355,1605.1351,1604.1188,1604.6353,1602.7097,341.0,1604.1186,1605.1352,1605.6334,1605.6337,1607.2622,1272.2,1607.2624,2.0,1608.2664,7.0,7.0,217.0,13.0,1.0,1.4,0.3,Time
,,S16,1,male,33,anonymized,Serial_Dependence_U,2023.2.3,Win32,60.24096386,,,,,,,,,,,,1608.267,7.0,1608.2673,,,,1611.2215,1611.7177,1610.7005,1611.221,1609.2838,10.0,1610.7004,1611.7177,1612.2178,1612.2179,1613.6448,1033.6,1613.6453,2.0,1614.6342,7.0,8.0,218.0,18.0,1.0,1.4,0.7,Time
,,S16,1,male,33,anonymized,Serial_Dependence_U,2023.2.3,Win32,60.24096386,,,,,,,,,,,,1614.6362,7.0,1614.6365,,,,1617.7629,1618.2504,1617.2462,1617.7628,1615.6343,341.0,1617.2461,1618.2505,1618.7386,1618.7387,1620.4762,1425.0,1620.4766,2.0,1621.4679,7.0,9.0,219.0,4.0,1.0,1.6,0.3,Time
,,S16,1,male,33,anonymized,Serial_Dependence_U,2023.2.3,Win32,60.24096386,,,,,,,,,,,,1621.4698,7.0,1621.4703,,,,1624.2069,1624.7014,1623.7021,1624.2068,1622.4858,236.0,1623.702,1624.7016,1625.2016,1625.2016,1626.7273,1201.2,1626.7275,3.0,1627.7178,7.0,10.0,220.0,7.0,1.0,1.2,0.7,Time
,,S16,1,male,33,anonymized,Serial_Dependence_U,2023.2.3,Win32,60.24096386,,,,,,,,,,,,1627.7185,7.0,1627.7188,,,,1630.6601,1631.1577,1630.1445,1630.6599,1628.7289,33.0,1630.1443,1631.1577,1631.6542,1631.6542,1633.3854,1365.0,1633.3858,3.0,1634.3852,7.0,11.0,221.0,28.0,1.0,1.4,0.7,Time
,,S16,1,male,33,anonymized,Serial_Dependence_U,2023.2.3,Win32,60.24096386,,,,,,,,,,,,1634.3857,7.0,1634.3859,,,,1637.3157,1637.8198,1636.7985,1637.3154,1635.3874,33.0,1636.7983,1637.8198,1638.3235,1638.3236,1640.3928,1791.4,1640.393,4.0,1641.3866,7.0,12.0,222.0,3.0,1.0,1.4,0.3,Time
,,S16,1,male,33,anonymized,Serial_Dependence_U,2023.2.3,Win32,60.24096386,,,,,,,,,,,,1641.3884,7.0,1641.3891,,,,1643.9277,1644.4274,1643.4136,1643.9276,1642.4052,354.0,1643.4134,1644.4274,1644.9202,1644.9204,1646.2469,1018.4,1646.2471,3.0,1647.2363,7.0,13.0,223.0,6.0,1.0,1.0,0.7,Time
,,S16,1,male,33,anonymized,Serial_Dependence_U,2023.2.3,Win32,60.24096386,,,,,,,,,,,,1647.2369,7.0,1647.2371,,,,1650.1691,1650.6635,1649.667,1650.1687,1648.2492,208.0,1649.6667,1650.6636,1651.1545,1651.1547,1652.9043,1386.6,1652.9054,3.0,1653.9043,7.0,14.0,224.0,8.0,1.0,1.4,0.7,Time
,,S16,1,male,33,anonymized,Serial_Dependence_U,2023.2.3,Win32,60.24096386,,,,,,,,,,,,1653.9061,7.0,1653.9067,,,,1657.0396,1657.5382,1656.5235,1657.0393,1654.9081,256.0,1656.5232,1657.5382,1658.0387,1658.0388,1659.6153,1225.0,1659.6157,2.0,1660.6044,7.0,15.0,225.0,9.0,1.0,1.6,0.7,Time
,,S16,1,male,33,anonymized,Serial_Dependence_U,2023.2.3,Win32,60.24096386,,,,,,,,,,,,1660.6051,7.0,1660.6056,,,,1662.9669,1663.4572,1662.4498,1662.9668,1661.632,31.0,1662.4497,1663.4572,1663.9546,1663.9547,1664.8724,521.0,1664.8733,1.0,1665.872,7.0,16.0,226.0,20.0,1.0,0.8,0.3,Time
,,S16,1,male,33,anonymized,Serial_Dependence_U,2023.2.3,Win32,60.24096386,,,,,,,,,,,,1665.874,7.0,1665.8751,,,,1669.0309,1669.523,1668.5176,1669.0306,1666.9008,180.0,1668.5175,1669.5232,1670.0229,1670.0231,1672.016,1666.6,1672.0166,3.0,1673.0059,7.0,17.0,227.0,29.0,1.0,1.6,0.7,Time
,,S16,1,male,33,anonymized,Serial_Dependence_U,2023.2.3,Win32,60.24096386,,,,,,,,,,,,1673.0079,7.0,1673.0083,,,,1675.7486,1676.2416,1675.2245,1675.7484,1674.016,348.0,1675.2243,1676.2416,1676.7456,1676.7456,1678.1185,964.5,1678.1187,2.0,1679.1103,7.0,18.0,228.0,2.0,1.0,1.2,0.3,Time
,,S16,1,male,33,anonymized,Serial_Dependence_U,2023.2.3,Win32,60.24096386,,,,,,,,,,,,1679.1112,7.0,1679.1117,,,,1681.8378,1682.3302,1681.3271,1681.8374,1680.1233,167.0,1681.3267,1682.3302,1682.8305,1682.8306,1684.3803,1182.1,1684.3804,3.0,1685.3739,7.0,19.0,229.0,22.0,1.0,1.2,0.3,Time
,,S16,1,male,33,anonymized,Serial_Dependence_U,2023.2.3,Win32,60.24096386,,,,,,,,,,,,1685.3758,7.0,1685.3765,,,,1687.7242,1688.2235,1687.2077,1687.7241,1686.391,37.0,1687.2073,1688.2237,1688.7238,1688.7238,1691.2075,1418.8,1691.2078,5.0,1692.2181,7.0,20.0,230.0,5.0,1.0,0.8,0.7,Time
,,S16,1,male,33,anonymized,Serial_Dependence_U,2023.2.3,Win32,60.24096386,,,,,,,,,,,,1692.2184,7.0,1692.2187,,,,1694.5606,1695.0599,1694.0308,1694.5602,1693.2188,185.0,1694.0307,1695.0599,1695.5598,1695.5599,1697.0847,1116.0,1697.0854,5.0,1698.0815,7.0,21.0,231.0,25.0,1.0,0.8,0.7,Time
,,S16,1,male,33,anonymized,Serial_Dependence_U,2023.2.3,Win32,60.24096386,,,,,,,,,,,,1698.083,7.0,1698.0838,,,,1700.5953,1701.0938,1700.0922,1700.5952,1699.0788,250.0,1700.092,1701.0939,1701.5936,1701.5937,1702.9028,869.0,1702.9031,2.0,1703.8918,7.0,22.0,232.0,11.0,1.0,1.0,0.3,Time
,,S16,1,male,33,anonymized,Serial_Dependence_U,2023.2.3,Win32,60.24096386,,,,,,,,,,,,1703.8928,7.0,1703.8931,,,,1707.0175,1707.5086,1706.504,1707.0173,1704.8998,90.0,1706.5039,1707.5087,1708.0084,1708.0086,1709.3715,1000.1,1709.3717,1.0,1710.3608,7.0,23.0,233.0,24.0,1.0,1.6,0.3,Time
,,S16,1,male,33,anonymized,Serial_Dependence_U,2023.2.3,Win32,60.24096386,,,,,,,,,,,,1710.3617,7.0,1710.3624,,,,1713.1188,1713.61,1712.599,1713.1186,1711.3782,137.0,1712.5985,1713.6101,1714.1129,1714.113,1715.6198,916.7,1715.62,2.0,1716.619,7.0,24.0,234.0,12.0,1.0,1.2,0.3,Time
,,S16,1,male,33,anonymized,Serial_Dependence_U,2023.2.3,Win32,60.24096386,,,,,,,,,,,,1716.6199,7.0,1716.6203,,,,1718.9574,1719.4627,1718.4388,1718.9572,1717.6213,70.0,1718.4387,1719.4627,1719.9621,1719.9621,1721.4389,883.0,1721.4392,4.0,1722.4432,7.0,25.0,235.0,10.0,1.0,0.8,0.3,Time
,,S16,1,male,33,anonymized,Serial_Dependence_U,2023.2.3,Win32,60.24096386,,,,,,,,,,,,1722.4439,7.0,1722.4444,,,,1725.3965,1725.894,1724.8809,1725.3962,1723.4696,127.0,1724.8808,1725.8942,1726.3953,1726.3954,1727.6551,834.3000001,1727.6555,1.0,1728.6493,7.0,26.0,236.0,23.0,1.0,1.4,0.3,Time
,,S16,1,male,33,anonymized,Serial_Dependence_U,2023.2.3,Win32,60.24096386,,,,,,,,,,,,1728.6502,7.0,1728.6506,,,,1731.783,1732.2812,1731.2703,1731.7828,1729.6633,64.0,1731.27,1732.2813,1732.7845,1732.7846,1734.2525,1063.5,1734.2528,1.0,1735.2482,7.0,27.0,237.0,14.0,1.0,1.6,0.3,Time
,,S16,1,male,33,anonymized,Serial_Dependence_U,2023.2.3,Win32,60.24096386,,,,,,,,,,,,1735.2492,7.0,1735.2497,,,,1737.9702,1738.4611,1737.4567,1737.97,1736.2525,212.0,1737.4567,1738.4612,1738.9612,1738.9613,1740.4184,1146.3,1740.4189,3.0,1741.4182,7.0,28.0,238.0,27.0,1.0,1.2,0.7,Time
,,S16,1,male,33,anonymized,Serial_Dependence_U,2023.2.3,Win32,60.24096386,,,,,,,,,,,,1741.4193,7.0,1741.4204,,,,1744.2004,1744.7032,1743.6548,1744.2002,1742.4322,188.0,1743.6545,1744.7033,1745.2033,1745.2034,1746.8127,1161.6,1746.8131,3.0,1747.8125,7.0,29.0,239.0,17.0,1.0,1.2,0.7,Time
,,S16,1,male,33,anonymized,Serial_Dependence_U,2023.2.3,Win32,60.24096386,,,,,,,,,,,,1747.8134,8.0,1749.6809,s,1.8475,,1752.4253,1752.9327,1751.9074,1752.4252,1750.6963,17.0,1751.9072,1752.9327,1753.4293,1753.4295,1755.047,914.1,1755.0476,2.0,1756.0472,8.0,0.0,240.0,17.0,1.0,1.2,0.7,Time
,,S16,1,male,33,anonymized,Serial_Dependence_U,2023.2.3,Win32,60.24096386,,,,,,,,,,,,1756.0492,8.0,1756.0529,,,,1759.2226,1759.7138,1758.7164,1759.2224,1757.0564,265.0,1758.716,1759.7141,1760.2032,1760.2033,1761.8222,1267.5,1761.8225,2.0,1762.8158,8.0,1.0,241.0,4.0,1.0,1.6,0.3,Time
,,S16,1,male,33,anonymized,Serial_Dependence_U,2023.2.3,Win32,60.24096386,,,,,,,,,,,,1762.817,8.0,1762.8177,,,,1765.9809,1766.4802,1765.442,1765.9808,1763.8308,157.0,1765.4415,1766.4802,1766.9803,1766.9803,1768.6365,1142.9,1768.6372,2.0,1769.6333,8.0,2.0,242.0,19.0,1.0,1.6,0.7,Time
,,S16,1,male,33,anonymized,Serial_Dependence_U,2023.2.3,Win32,60.24096386,,,,,,,,,,,,1769.6341,8.0,1769.6346,,,,1771.9964,1772.5072,1771.4742,1771.996,1770.6722,264.0,1771.4738,1772.5072,1773.003,1773.0031,1774.624,948.6,1774.6244,4.0,1775.6155,8.0,3.0,243.0,0.0,1.0,0.8,0.3,Time
,,S16,1,male,33,anonymized,Serial_Dependence_U,2023.2.3,Win32,60.24096386,,,,,,,,,,,,1775.617,8.0,1775.6174,,,,1778.3592,1778.8489,1777.8507,1778.359,1776.635,286.0,1777.8505,1778.849,1779.349,1779.3492,1781.004,1175.1,1781.0044,3.0,1781.9995,8.0,4.0,244.0,27.0,1.0,1.2,0.7,Time
,,S16,1,male,33,anonymized,Serial_Dependence_U,2023.2.3,Win32,60.24096386,,,,,,,,,,,,1782.0004,8.0,1782.0007,,,,1784.7446,1785.2425,1784.2379,1784.7446,1783.0158,303.0,1784.2377,1785.2426,1785.7335,1785.7336,1787.6838,1215.7,1787.6842,3.0,1788.6832,8.0,5.0,245.0,7.0,1.0,1.2,0.7,Time
,,S16,1,male,33,anonymized,Serial_Dependence_U,2023.2.3,Win32,60.24096386,,,,,,,,,,,,1788.6844,8.0,1788.6851,,,,1791.6607,1792.1503,1791.1061,1791.6605,1789.6926,298.0,1791.1058,1792.1503,1792.6591,1792.6593,1794.5951,1432.4,1794.5956,3.0,1795.6026,8.0,6.0,246.0,8.0,1.0,1.4,0.7,Time
,,S16,1,male,33,anonymized,Serial_Dependence_U,2023.2.3,Win32,60.24096386,,,,,,,,,,,,1795.603,8.0,1795.6032,,,,1798.7489,1799.2383,1798.2337,1798.7487,1796.6059,179.0,1798.2321,1799.2384,1799.7359,1799.736,1801.2403,769.7,1801.2407,1.0,1802.2335,8.0,7.0,247.0,9.0,1.0,1.6,0.7,Time
,,S16,1,male,33,anonymized,Serial_Dependence_U,2023.2.3,Win32,60.24096386,,,,,,,,,,,,1802.2342,8.0,1802.2346,,,,1804.9744,1805.4709,1804.4563,1804.9743,1803.2407,194.0,1804.4562,1805.4709,1805.9696,1805.9696,1807.2922,971.0,1807.2924,2.0,1808.2841,8.0,8.0,248.0,2.0,1.0,1.2,0.3,Time
,,S16,1,male,33,anonymized,Serial_Dependence_U,2023.2.3,Win32,60.24096386,,,,,,,,,,,,1808.2852,8.0,1808.2857,,,,1811.2017,1811.701,1810.689,1811.2015,1809.2865,113.0,1810.6888,1811.701,1812.2009,1812.201,1813.4198,953.8,1813.4202,1.0,1814.419,8.0,9.0,249.0,23.0,1.0,1.4,0.3,Time
,,S16,1,male,33,anonymized,Serial_Dependence_U,2023.2.3,Win32,60.24096386,,,,,,,,,,,,1814.4204,8.0,1814.421,,,,1816.9787,1817.4721,1816.4707,1816.9785,1815.4253,9.0,1816.4704,1817.4722,1817.9735,1817.9736,1819.4614,1116.6,1819.4618,4.0,1820.452,8.0,10.0,250.0,11.0,1.0,1.0,0.3,Time
,,S16,1,male,33,anonymized,Serial_Dependence_U,2023.2.3,Win32,60.24096386,,,,,,,,,,,,1820.4529,8.0,1820.4535,,,,1822.7798,1823.2775,1822.2719,1822.7795,1821.4584,326.0,1822.2715,1823.2777,1823.7694,1823.7695,1825.0649,934.5,1825.0653,4.0,1826.0691,8.0,11.0,251.0,20.0,1.0,0.8,0.3,Time
,,S16,1,male,33,anonymized,Serial_Dependence_U,2023.2.3,Win32,60.24096386,,,,,,,,,,,,1826.0703,8.0,1826.0708,,,,1828.6179,1829.112,1828.0949,1828.6176,1827.0807,10.0,1828.0946,1829.112,1829.6085,1829.6085,1830.826,800.3,1830.8264,2.0,1831.8203,8.0,12.0,252.0,21.0,1.0,1.0,0.3,Time
,,S16,1,male,33,anonymized,Serial_Dependence_U,2023.2.3,Win32,60.24096386,,,,,,,,,,,,1831.8219,8.0,1831.8224,,,,1834.3888,1834.8871,1833.8463,1834.3887,1832.839,7.0,1833.8455,1834.8872,1835.3875,1835.3875,1836.582,750.6999999,1836.5825,2.0,1837.572,8.0,13.0,253.0,1.0,1.0,1.0,0.3,Time
,,S16,1,male,33,anonymized,Serial_Dependence_U,2023.2.3,Win32,60.24096386,,,,,,,,,,,,1837.5733,8.0,1837.5739,,,,1840.5077,1841.0044,1840.0023,1840.5074,1838.5853,5.0,1840.0019,1841.0045,1841.4949,1841.495,1842.7634,911.5,1842.7637,1.0,1843.755,8.0,14.0,254.0,18.0,1.0,1.4,0.7,Time
,,S16,1,male,33,anonymized,Serial_Dependence_U,2023.2.3,Win32,60.24096386,,,,,,,,,,,,1843.7566,8.0,1843.7573,,,,1846.3053,1846.8048,1845.7927,1846.3051,1844.7756,63.0,1845.7925,1846.8048,1847.2944,1847.2945,1848.6152,933.5999999,1848.6154,2.0,1849.6057,8.0,15.0,255.0,6.0,1.0,1.0,0.7,Time
,,S16,1,male,33,anonymized,Serial_Dependence_U,2023.2.3,Win32,60.24096386,,,,,,,,,,,,1849.607,8.0,1849.6076,,,,1852.5314,1853.0221,1852.0249,1852.5312,1850.6148,141.0,1852.0248,1853.0223,1853.5218,1853.522,1854.9675,1092.9,1854.9676,2.0,1855.9553,8.0,16.0,256.0,13.0,1.0,1.4,0.3,Time
,,S16,1,male,33,anonymized,Serial_Dependence_U,2023.2.3,Win32,60.24096386,,,,,,,,,,,,1855.9571,8.0,1855.9576,,,,1858.4891,1858.9883,1857.9727,1858.489,1856.9677,283.0,1857.9726,1858.9883,1859.4895,1859.4895,1861.5096,1358.4,1861.51,5.0,1862.5061,8.0,17.0,257.0,26.0,1.0,1.0,0.7,Time
,,S16,1,male,33,anonymized,Serial_Dependence_U,2023.2.3,Win32,60.24096386,,,,,,,,,,,,1862.5078,8.0,1862.5084,,,,1864.8755,1865.3742,1864.3455,1864.8753,1863.5228,54.0,1864.3454,1865.3743,1865.8742,1865.8743,1867.5798,1299.1,1867.58,5.0,1868.5729,8.0,18.0,258.0,15.0,1.0,0.8,0.7,Time
,,S16,1,male,33,anonymized,Serial_Dependence_U,2023.2.3,Win32,60.24096386,,,,,,,,,,,,1868.574,8.0,1868.5745,,,,1871.5132,1872.0065,1870.9913,1871.513,1869.5901,203.0,1870.9911,1872.0066,1872.5088,1872.5089,1873.7472,925.4,1873.7473,1.0,1874.7407,8.0,19.0,259.0,3.0,1.0,1.4,0.3,Time
,,S16,1,male,33,anonymized,Serial_Dependence_U,2023.2.3,Win32,60.24096386,,,,,,,,,,,,1874.742,8.0,1874.7424,,,,1877.6934,1878.1929,1877.1771,1877.6932,1875.7603,312.0,1877.1769,1878.193,1878.692,1878.6926,1880.2084,1063.4,1880.2087,2.0,1881.2081,8.0,20.0,260.0,28.0,1.0,1.4,0.7,Time
,,S16,1,male,33,anonymized,Serial_Dependence_U,2023.2.3,Win32,60.24096386,,,,,,,,,,,,1881.2094,8.0,1881.2101,,,,1883.5358,1884.024,1883.0313,1883.5358,1882.227,4.0,1883.0311,1884.0241,1884.5155,1884.5155,1885.7036,891.2,1885.7038,4.0,1886.6961,8.0,21.0,261.0,10.0,1.0,0.8,0.3,Time
,,S16,1,male,33,anonymized,Serial_Dependence_U,2023.2.3,Win32,60.24096386,,,,,,,,,,,,1886.6966,8.0,1886.6969,,,,1889.8767,1890.3841,1889.3159,1889.8765,1887.6942,133.0,1889.3155,1890.3842,1890.8757,1890.8758,1892.1937,866.6,1892.1941,1.0,1893.1942,8.0,22.0,262.0,14.0,1.0,1.6,0.3,Time
,,S16,1,male,33,anonymized,Serial_Dependence_U,2023.2.3,Win32,60.24096386,,,,,,,,,,,,1893.1956,8.0,1893.1961,,,,1895.9187,1896.4098,1895.4018,1895.9183,1894.1983,111.0,1895.4014,1896.4098,1896.8991,1896.8992,1898.7303,1511.9,1898.7307,4.0,1899.7189,8.0,23.0,263.0,22.0,1.0,1.2,0.3,Time
,,S16,1,male,33,anonymized,Serial_Dependence_U,2023.2.3,Win32,60.24096386,,,,,,,,,,,,1899.72,8.0,1899.7208,,,,1902.0548,1902.5441,1901.5379,1902.0546,1900.7215,165.0,1901.5378,1902.5441,1903.0337,1903.0337,1904.272,903.2,1904.2722,4.0,1905.2698,8.0,24.0,264.0,25.0,1.0,0.8,0.7,Time
,,S16,1,male,33,anonymized,Serial_Dependence_U,2023.2.3,Win32,60.24096386,,,,,,,,,,,,1905.271,8.0,1905.2714,,,,1907.7935,1908.2933,1907.2741,1907.7921,1906.2643,109.0,1907.2738,1908.2934,1908.7938,1908.7941,1910.35,1248.6,1910.3502,4.0,1911.3436,8.0,25.0,265.0,16.0,1.0,1.0,0.7,Time
,,S16,1,male,33,anonymized,Serial_Dependence_U,2023.2.3,Win32,60.24096386,,,,,,,,,,,,1911.3448,8.0,1911.345,,,,1913.6953,1914.2014,1913.1531,1913.6952,1912.3492,289.0,1913.1529,1914.2014,1914.6938,1914.6939,1916.0548,1051.7,1916.055,5.0,1917.0516,8.0,26.0,266.0,5.0,1.0,0.8,0.7,Time
,,S16,1,male,33,anonymized,Serial_Dependence_U,2023.2.3,Win32,60.24096386,,,,,,,,,,,,1917.0519,8.0,1917.0521,,,,1919.8247,1920.3281,1919.3084,1919.8245,1918.0584,267.0,1919.308,1920.3282,1920.8281,1920.8282,1922.4203,1251.8,1922.4206,3.0,1923.4207,8.0,27.0,267.0,12.0,1.0,1.2,0.3,Time
,,S16,1,male,33,anonymized,Serial_Dependence_U,2023.2.3,Win32,60.24096386,,,,,,,,,,,,1923.4217,8.0,1923.4225,,,,1926.5678,1927.0635,1926.0457,1926.5677,1924.4182,49.0,1926.0456,1927.0636,1927.5621,1927.5621,1929.2319,1379.3,1929.2322,2.0,1930.2288,8.0,28.0,268.0,24.0,1.0,1.6,0.3,Time
,,S16,1,male,33,anonymized,Serial_Dependence_U,2023.2.3,Win32,60.24096386,,,,,,,,,,,,1930.23,8.0,1930.2305,,,,1933.3656,1933.8689,1932.8525,1933.3654,1931.236,232.0,1932.8524,1933.869,1934.3628,1934.3629,1936.0861,1357.4,1936.0864,2.0,1937.0793,8.0,29.0,269.0,29.0,1.0,1.6,0.7,Time
