Scale_setup.started,Scale_setup.stopped,participant,expid,session,sex,age,date,expName,psychopyVersion,OS,frameRate,Intro.started,Intro.stopped,key_resp_2.keys,key_resp_2.rt,key_resp_2.duration,block.started,direction,Block_id,block.stopped,trial_direction,Block_resp_2.keys,Block_resp_2.rt,Block_resp_2.duration,ITI.started,ITI.stopped,Mask_2.started,Mask_2.stopped,encoding.started,encoding.stopped,Cue.started,Cue.stopped,Response.started,Response.stopped,keyDuration,Feedback_Time.started,FeedbackID_T,Feedback_Time.stopped,trials.thisRepN,trials.thisTrialN,trials.thisN,trials.thisIndex,trials.ran,TimeDur,Coherence1,TrialType
0.0004999999999881766,0.0009000000952710252,S16,803870,001,F,22,2025-06-04_22h15.36.515,Serial_Dependence_U,2023.2.3,Win32,60.24096385550618,,,,,,,,,,,,,,,,,,,,,,,,,,,,,,,,,,,
,,S16,803870,001,F,22,2025-06-04_22h15.36.515,Serial_Dependence_U,2023.2.3,Win32,60.24096385550618,338.66140000009534,422.49179999995226,space,83.79060000014306,,,,,,,,,,,,,,,,,,,,,,,,,,,,,,,
,,S16,803870,001,F,22,2025-06-04_22h15.36.515,Serial_Dependence_U,2023.2.3,Win32,60.24096385550618,,,,,,422.5099000000953,76,0,439.9945,76,s,17.45679999995218,,443.96270000004756,444.4612999999522,443.4457999999522,443.96249999999986,441.0132000000476,443.44560000014303,444.4617000000476,444.9659000000954,444.9662000000476,447.6057999999523,2081,447.6062000000477,5,448.6009999999999,0,0,0,18,1,1.4,0.7,Time
,,S16,803870,001,F,22,2025-06-04_22h15.36.515,Serial_Dependence_U,2023.2.3,Win32,60.24096385550618,,,,,,448.60179999995216,170,0,448.6046000001429,170,,,,452.75329999995233,453.25149999999985,452.2359999999999,452.7531000001429,449.60300000000007,452.2357999999522,453.25170000004755,453.75170000004755,453.75179999995225,455.403100000143,1138,455.4032999999522,2,456.40070000004766,0,1,1,9,1,1.6,0.7,Time
,,S16,803870,001,F,22,2025-06-04_22h15.36.515,Serial_Dependence_U,2023.2.3,Win32,60.24096385550618,,,,,,456.40120000004754,251,0,456.40140000009524,251,,,,460.1859000000952,460.68479999995225,459.6691000001431,460.18570000004775,457.4026000001429,459.6689000000954,460.68479999995225,461.18470000004754,461.18479999995225,462.7847999999524,514,462.78520000004755,1,463.7847000000477,0,2,2,12,1,1.2,0.3,Time
,,S16,803870,001,F,22,2025-06-04_22h15.36.515,Serial_Dependence_U,2023.2.3,Win32,60.24096385550618,,,,,,463.78529999995226,133,0,463.78549999999996,133,,,,467.9357999999522,468.43460000014306,467.41940000009527,467.93560000014304,464.78620000004776,467.4192999999523,468.43470000004754,468.93460000014306,468.93470000004754,469.9855,315,469.9857000000477,1,470.9845,0,3,3,29,1,1.6,0.7,Time
,,S16,803870,001,F,22,2025-06-04_22h15.36.515,Serial_Dependence_U,2023.2.3,Win32,60.24096385550618,,,,,,470.9855,328,0,470.985600000143,328,,,,474.36740000009536,474.86729999995237,473.85270000004766,474.36720000004766,471.9862000000476,473.85249999999996,474.86729999995237,475.36760000014306,475.36760000014306,477.03499999999985,533,477.03520000004755,1,478.0339999999999,0,4,4,10,1,0.8,0.3,Time
,,S16,803870,001,F,22,2025-06-04_22h15.36.515,Serial_Dependence_U,2023.2.3,Win32,60.24096385550618,,,,,,478.0345,55,0,478.034600000143,55,,,,481.3847000000476,481.88270000004763,480.86760000014306,481.3846000001431,479.03520000004755,480.86729999995237,481.88279999995234,482.38320000004774,482.38320000004774,483.19990000009534,289,483.20020000004774,1,484.2007000000476,0,5,5,5,1,0.8,0.7,Time
,,S16,803870,001,F,22,2025-06-04_22h15.36.515,Serial_Dependence_U,2023.2.3,Win32,60.24096385550618,,,,,,484.2012999999522,130,0,484.2016000001431,130,,,,488.3854000000954,488.8837000000476,487.86810000014293,488.38529999995217,485.2016000001431,487.86799999999994,488.8837000000476,489.3836000001429,489.3837999999523,491.08410000014305,933,491.08420000004753,1,492.08340000009525,0,6,6,4,1,1.6,0.3,Time
,,S16,803870,001,F,22,2025-06-04_22h15.36.515,Serial_Dependence_U,2023.2.3,Win32,60.24096385550618,,,,,,492.08400000000006,282,0,492.08420000004753,282,,,,496.2344000000953,496.73340000009534,495.71840000009524,496.2342999999523,493.08479999995234,495.71829999995225,496.73350000000005,497.23370000004775,497.23370000004775,499.7012000000477,1516,499.7014000000954,2,500.69990000009534,0,7,7,19,1,1.6,0.7,Time
,,S16,803870,001,F,22,2025-06-04_22h15.36.515,Serial_Dependence_U,2023.2.3,Win32,60.24096385550618,,,,,,500.7006000001429,296,0,500.7007000000476,296,,,,504.251,504.7497000000476,503.7344000000953,504.25090000009527,501.7012000000477,503.7342999999523,504.7497999999523,505.2497999999523,505.25,506.91690000009544,1251,506.9169999999999,4,507.91690000009544,0,8,8,16,1,1,0.7,Time
,,S16,803870,001,F,22,2025-06-04_22h15.36.515,Serial_Dependence_U,2023.2.3,Win32,60.24096385550618,,,,,,507.9177999999522,62,0,507.9182000000476,62,,,,511.46790000009537,511.966600000143,510.9516000001431,511.4677999999524,508.918600000143,510.9514999999999,511.9667000000477,512.4665,512.4667000000477,514.4009000000954,1283,514.4010000000001,4,515.3999999999999,0,9,9,6,1,1,0.7,Time
,,S16,803870,001,F,22,2025-06-04_22h15.36.515,Serial_Dependence_U,2023.2.3,Win32,60.24096385550618,,,,,,515.4007999999524,39,0,515.4010000000001,39,,,,518.7679000000953,519.2665,518.2517000000475,518.7677000000476,516.4181000001431,518.2514999999999,519.266600000143,519.7661000001431,519.7661000001431,521.3675000000001,1051,521.3677000000475,5,522.3662999999524,0,10,10,25,1,0.8,0.7,Time
,,S16,803870,001,F,22,2025-06-04_22h15.36.515,Serial_Dependence_U,2023.2.3,Win32,60.24096385550618,,,,,,522.367,266,0,522.3672999999524,266,,,,526.3511000001431,526.8494000000953,525.8342000000475,526.3509000000954,523.3677000000475,525.834100000143,526.8494000000953,527.3497000000477,527.3497000000477,529.0667000000476,689,529.0667999999523,1,530.0662000000477,0,11,11,13,1,1.4,0.3,Time
,,S16,803870,001,F,22,2025-06-04_22h15.36.515,Serial_Dependence_U,2023.2.3,Win32,60.24096385550618,,,,,,530.0667999999523,112,0,530.067,112,,,,533.8504000000953,534.3491000001429,533.3337000000477,533.8504000000953,531.0674000000954,533.3335,534.3492000000476,534.8494000000953,534.8495,537.0162999999523,1546,537.0165,4,538.0157999999524,0,12,12,2,1,1.2,0.3,Time
,,S16,803870,001,F,22,2025-06-04_22h15.36.515,Serial_Dependence_U,2023.2.3,Win32,60.24096385550618,,,,,,538.0167000000476,135,0,538.0167999999524,135,,,,541.367,541.8654999999999,540.8507000000477,541.3669000000953,539.0174000000952,540.8505,541.8654999999999,542.3662000000477,542.3662000000477,543.684,849,543.684100000143,4,544.6819000000953,0,13,13,15,1,0.8,0.7,Time
,,S16,803870,001,F,22,2025-06-04_22h15.36.515,Serial_Dependence_U,2023.2.3,Win32,60.24096385550618,,,,,,544.6824000000954,277,0,544.6826000001431,277,,,,548.650600000143,549.1487000000477,548.1492999999523,548.6504000000953,545.6837000000476,548.1492000000476,549.1487999999522,549.6489000000954,549.6491000001431,551.4169000000954,1296,551.4169999999999,2,552.415,0,14,14,23,1,1.4,0.3,Time
,,S16,803870,001,F,22,2025-06-04_22h15.36.515,Serial_Dependence_U,2023.2.3,Win32,60.24096385550618,,,,,,552.4155000000001,14,0,552.4156000001431,14,,,,556.1662999999523,556.6652000000477,555.6502999999523,556.1661000001429,553.4169999999999,555.6501000001431,556.6654000000954,557.1647999999523,557.165,558.9169000000954,1351,558.9169000000954,4,559.915100000143,0,15,15,17,1,1.2,0.7,Time
,,S16,803870,001,F,22,2025-06-04_22h15.36.515,Serial_Dependence_U,2023.2.3,Win32,60.24096385550618,,,,,,559.9157999999522,45,0,559.9159000000952,45,,,,563.299,563.798,562.7832000000476,563.2987000000476,560.9159999999999,562.7829000000954,563.798100000143,564.2982999999522,564.2984999999999,566.6154999999999,1565,566.6156000001431,5,567.6149000000953,0,16,16,20,1,0.8,0.3,Time
,,S16,803870,001,F,22,2025-06-04_22h15.36.515,Serial_Dependence_U,2023.2.3,Win32,60.24096385550618,,,,,,567.6156000001431,12,0,567.6157000000476,12,,,,571.6157999999523,572.1147999999523,571.0995,571.6154999999999,568.6315,571.0995,572.1149000000953,572.6147000000476,572.6149000000953,574.7649000000954,1215,574.7651000001431,2,575.7644000000953,0,17,17,3,1,1.4,0.3,Time
,,S16,803870,001,F,22,2025-06-04_22h15.36.515,Serial_Dependence_U,2023.2.3,Win32,60.24096385550618,,,,,,575.7649000000954,321,0,575.7649999999999,321,,,,579.3492999999523,579.8479000000953,578.8327999999524,579.3492000000476,576.7657000000477,578.832600000143,579.8479000000953,580.3477999999523,580.3479000000953,581.5809999999999,900,581.5811000001431,2,582.5801000001429,0,18,18,11,1,1,0.3,Time
,,S16,803870,001,F,22,2025-06-04_22h15.36.515,Serial_Dependence_U,2023.2.3,Win32,60.24096385550618,,,,,,582.580600000143,51,0,582.5807999999522,51,,,,586.1652000000477,586.6637999999523,585.6494000000953,586.165100000143,583.5824000000953,585.6492000000476,586.6639000000953,587.1642999999522,587.1644000000954,589.3317000000477,1803,589.3317000000477,5,590.3307000000477,0,19,19,21,1,1,0.3,Time
,,S16,803870,001,F,22,2025-06-04_22h15.36.515,Serial_Dependence_U,2023.2.3,Win32,60.24096385550618,,,,,,590.3317000000477,85,0,590.3317999999522,85,,,,593.9312000000477,594.432,593.4154000000954,593.931100000143,591.3489999999999,593.4154000000954,594.432,594.9304000000952,594.9304000000952,596.6984000000953,1381,596.6984000000953,5,597.6969999999999,0,20,20,1,1,1,0.3,Time
,,S16,803870,001,F,22,2025-06-04_22h15.36.515,Serial_Dependence_U,2023.2.3,Win32,60.24096385550618,,,,,,597.6975,4,0,597.697600000143,4,,,,601.248100000143,601.7469000000954,600.7309000000953,601.2479000000953,598.6979000000954,600.7307000000476,601.7470000000001,602.2467999999524,602.2470000000001,604.431,1599,604.4312000000477,5,605.4299000000954,0,21,21,26,1,1,0.7,Time
,,S16,803870,001,F,22,2025-06-04_22h15.36.515,Serial_Dependence_U,2023.2.3,Win32,60.24096385550618,,,,,,605.4307000000476,204,0,605.4307999999523,204,,,,609.381600000143,609.8802000000476,608.8644000000954,609.3815,606.4314999999999,608.8642000000477,609.8802999999523,610.3797999999522,610.3799000000954,612.4637000000475,1488,612.4637999999522,4,613.4629000000953,0,22,22,8,1,1.4,0.7,Time
,,S16,803870,001,F,22,2025-06-04_22h15.36.515,Serial_Dependence_U,2023.2.3,Win32,60.24096385550618,,,,,,613.4634000000954,275,0,613.4635000000001,275,,,,617.2147000000477,617.7129000000953,616.6974000000953,617.2145,614.4642000000476,616.6972999999523,617.713,618.213,618.213100000143,620.3972000000476,1400,620.3972999999523,4,621.3964000000954,0,23,23,7,1,1.2,0.7,Time
,,S16,803870,001,F,22,2025-06-04_22h15.36.515,Serial_Dependence_U,2023.2.3,Win32,60.24096385550618,,,,,,621.3972000000476,359,0,621.3972999999523,359,,,,625.3474999999999,625.8457000000476,624.830600000143,625.3472999999524,622.397600000143,624.8305,625.8457999999523,626.346,626.346100000143,628.3967000000475,1633,628.3967999999522,4,629.3957999999523,0,24,24,28,1,1.4,0.7,Time
,,S16,803870,001,F,22,2025-06-04_22h15.36.515,Serial_Dependence_U,2023.2.3,Win32,60.24096385550618,,,,,,629.3967000000475,207,0,629.3969000000952,207,,,,633.597,634.0959000000953,633.0809000000954,633.5967999999523,630.4139000000953,633.0807000000477,634.0959000000953,634.596100000143,634.5962000000477,636.9127999999523,1620,636.9129000000953,3,637.912,0,25,25,14,1,1.6,0.3,Time
,,S16,803870,001,F,22,2025-06-04_22h15.36.515,Serial_Dependence_U,2023.2.3,Win32,60.24096385550618,,,,,,637.9124000000954,112,0,637.9124999999999,112,,,,642.0967000000476,642.5946000001429,641.5797999999522,642.0966000001431,638.9137000000476,641.5797000000478,642.5947999999523,643.0952999999522,643.0952999999522,645.546,2020,645.546100000143,4,646.5454000000952,0,26,26,24,1,1.6,0.3,Time
,,S16,803870,001,F,22,2025-06-04_22h15.36.515,Serial_Dependence_U,2023.2.3,Win32,60.24096385550618,,,,,,646.546100000143,151,0,646.5462999999522,151,,,,650.2962000000477,650.7947000000477,649.780100000143,650.296100000143,647.5467000000476,649.7799000000953,650.7947000000477,651.2947000000477,651.2947000000477,653.6957000000477,2003,653.6957999999522,5,654.6947999999522,0,27,27,27,1,1.2,0.7,Time
,,S16,803870,001,F,22,2025-06-04_22h15.36.515,Serial_Dependence_U,2023.2.3,Win32,60.24096385550618,,,,,,654.6952999999523,18,0,654.6954000000953,18,,,,658.4796000001429,658.9782000000475,657.9627999999523,658.4794999999999,655.6965,657.9627000000476,658.9782000000475,659.4782000000475,659.4782000000475,661.9292000000476,1963,661.9292999999523,5,662.9282000000476,0,28,28,22,1,1.2,0.3,Time
,,S16,803870,001,F,22,2025-06-04_22h15.36.515,Serial_Dependence_U,2023.2.3,Win32,60.24096385550618,,,,,,662.9289000000954,240,0,662.9289999999999,240,,,,666.3127000000477,666.8112000000476,665.7952000000475,666.3127000000477,663.9292999999523,665.7950000000001,666.8112000000476,667.3107000000477,667.3107999999522,670.2617000000475,1752,670.2617999999522,5,671.2612999999524,0,29,29,0,1,0.8,0.3,Time
,,S16,803870,001,F,22,2025-06-04_22h15.36.515,Serial_Dependence_U,2023.2.3,Win32,60.24096385550618,,,,,,671.2617999999522,106,1,682.2189000000953,106,s,10.932899999856772,,685.7737000000477,686.2647000000477,685.2559000000954,685.7735,683.212,685.2557000000477,686.2647999999522,686.7645,686.764600000143,688.6392000000476,1465,688.6392999999523,5,688.6464000000954,1,0,30,26,1,1,0.7,Time
,,S16,803870,001,F,22,2025-06-04_22h15.36.515,Serial_Dependence_U,2023.2.3,Win32,60.24096385550618,,,,,,688.6469000000952,130,1,688.6492000000476,130,,,,692.4389000000954,692.9312999999522,691.9226000001431,692.4387000000477,689.6554000000954,691.9224999999999,692.9314000000954,693.4309000000953,693.431,695.5882999999524,1614,695.5885000000001,5,695.5954999999999,1,1,31,22,1,1.2,0.3,Time
,,S16,803870,001,F,22,2025-06-04_22h15.36.515,Serial_Dependence_U,2023.2.3,Win32,60.24096385550618,,,,,,695.5959000000953,84,1,695.5959000000953,84,,,,699.588100000143,700.0809999999999,699.0727999999522,699.5879000000953,696.6072999999524,699.072600000143,700.0811000001431,700.5811000001431,700.5812000000476,702.6882999999523,1448,702.6884000000953,3,702.6952999999523,1,2,32,3,1,1.4,0.3,Time
,,S16,803870,001,F,22,2025-06-04_22h15.36.515,Serial_Dependence_U,2023.2.3,Win32,60.24096385550618,,,,,,702.695600000143,279,1,702.6957999999522,279,,,,706.288100000143,706.7806000001431,705.7729000000954,706.288,703.7061000001431,705.7727000000477,706.7807999999523,707.2807000000475,707.2807000000475,709.3884000000953,1616,709.3885,5,709.3952999999524,1,3,33,21,1,1,0.3,Time
,,S16,803870,001,F,22,2025-06-04_22h15.36.515,Serial_Dependence_U,2023.2.3,Win32,60.24096385550618,,,,,,709.3954999999999,94,1,709.3957000000476,94,,,,712.753600000143,713.2467000000477,712.2394000000954,712.753600000143,710.4059000000952,712.2392000000477,713.2467999999524,713.7472999999522,713.7472999999522,716.4206000001429,1533,716.4207999999524,5,716.4275,1,4,34,15,1,0.8,0.7,Time
,,S16,803870,001,F,22,2025-06-04_22h15.36.515,Serial_Dependence_U,2023.2.3,Win32,60.24096385550618,,,,,,716.4277999999522,7,1,716.4279999999999,7,,,,720.1867000000477,720.680100000143,719.6724999999999,720.186600000143,717.4391000001431,719.6724000000954,720.6802000000475,721.1800000000001,721.180100000143,723.4551000001429,1800,723.4552999999523,5,723.4627000000476,1,5,35,17,1,1.2,0.7,Time
,,S16,803870,001,F,22,2025-06-04_22h15.36.515,Serial_Dependence_U,2023.2.3,Win32,60.24096385550618,,,,,,723.4632999999524,309,1,723.4636000001431,309,,,,727.4207999999524,727.9132000000477,726.9056000001431,727.4207000000476,724.472,726.9052999999524,727.9132999999522,728.4134999999999,728.4134999999999,730.2542999999523,1433,730.2542999999523,3,730.2612000000477,1,6,36,28,1,1.4,0.7,Time
,,S16,803870,001,F,22,2025-06-04_22h15.36.515,Serial_Dependence_U,2023.2.3,Win32,60.24096385550618,,,,,,730.2615000000001,87,1,730.2615000000001,87,,,,734.2387999999523,734.7296000001429,733.7377000000477,734.2386000001429,731.2722000000476,733.7375,734.7297000000476,735.2297000000476,735.2297000000476,737.9392000000475,1901,737.9394000000952,5,737.9477000000477,1,7,37,13,1,1.4,0.3,Time
,,S16,803870,001,F,22,2025-06-04_22h15.36.515,Serial_Dependence_U,2023.2.3,Win32,60.24096385550618,,,,,,737.9481000001431,69,1,737.9482000000476,69,,,,742.1382999999523,742.6294000000953,741.6197000000477,742.1382000000476,738.9534000000954,741.619600000143,742.6294000000953,743.1292999999523,743.1294000000953,744.653100000143,1182,744.6532000000477,2,744.6602000000476,1,8,38,4,1,1.6,0.3,Time
,,S16,803870,001,F,22,2025-06-04_22h15.36.515,Serial_Dependence_U,2023.2.3,Win32,60.24096385550618,,,,,,744.6605,218,1,744.660600000143,218,,,,748.6187999999522,749.1127999999524,748.1042000000477,748.6187000000477,745.6714999999999,748.104,749.1129000000954,749.6124000000952,749.6125,752.0537000000477,1867,752.0537999999524,5,752.0607000000477,1,9,39,8,1,1.4,0.7,Time
,,S16,803870,001,F,22,2025-06-04_22h15.36.515,Serial_Dependence_U,2023.2.3,Win32,60.24096385550618,,,,,,752.0611000001429,232,1,752.0611000001429,232,,,,756.2532000000476,756.7452999999523,755.7377000000477,756.2531000001429,753.0711000001429,755.737600000143,756.7452999999523,757.2459999999999,757.2461000001431,760.0715,2385,760.071600000143,5,760.0799999999999,1,10,40,24,1,1.6,0.3,Time
,,S16,803870,001,F,22,2025-06-04_22h15.36.515,Serial_Dependence_U,2023.2.3,Win32,60.24096385550618,,,,,,760.0804000000953,248,1,760.080600000143,248,,,,764.2371000001431,764.7281000001431,763.7192999999522,764.2369000000954,761.0864000000954,763.719100000143,764.7281000001431,765.2287000000476,765.2287999999523,777.8367999999523,900,777.8369000000953,1,777.8446000001429,1,11,41,9,1,1.6,0.7,Time
,,S16,803870,001,F,22,2025-06-04_22h15.36.515,Serial_Dependence_U,2023.2.3,Win32,60.24096385550618,,,,,,777.8452999999522,35,1,777.8454999999999,35,,,,781.2377999999524,781.7272999999523,780.719100000143,781.2377000000477,778.8524000000953,780.7189000000953,781.7272999999523,782.2277999999524,782.2280000000001,783.970100000143,1333,783.970100000143,5,783.9772000000476,1,12,42,10,1,0.8,0.3,Time
,,S16,803870,001,F,22,2025-06-04_22h15.36.515,Serial_Dependence_U,2023.2.3,Win32,60.24096385550618,,,,,,783.977600000143,199,1,783.9777999999524,199,,,,787.7362999999523,788.2277999999524,787.2179999999998,787.7361000001431,784.9852000000476,787.2179000000954,788.2279000000954,788.7272000000476,788.7272999999523,790.7524000000953,1649,790.752600000143,5,790.7592000000477,1,13,43,7,1,1.2,0.7,Time
,,S16,803870,001,F,22,2025-06-04_22h15.36.515,Serial_Dependence_U,2023.2.3,Win32,60.24096385550618,,,,,,790.7596000001431,291,1,790.7597000000476,291,,,,794.9179999999999,795.4107999999524,794.4026000001429,794.9179000000954,791.7702000000477,794.4024000000954,795.4107999999524,795.9107000000477,795.9107999999524,798.1177000000475,1766,798.1177999999522,4,798.1246000001431,1,14,44,29,1,1.6,0.7,Time
,,S16,803870,001,F,22,2025-06-04_22h15.36.515,Serial_Dependence_U,2023.2.3,Win32,60.24096385550618,,,,,,798.125,333,1,798.125100000143,333,,,,801.6839000000953,802.1772000000476,801.1694000000953,801.6837000000476,799.1362000000477,801.1692999999523,802.1772999999523,802.6765,802.6765,804.6697000000477,1567,804.6697999999524,5,804.6787000000477,1,15,45,6,1,1,0.7,Time
,,S16,803870,001,F,22,2025-06-04_22h15.36.515,Serial_Dependence_U,2023.2.3,Win32,60.24096385550618,,,,,,804.6791000001431,0,1,804.6792999999523,0,,,,808.469100000143,808.9602000000477,807.9506000001429,808.4689000000953,805.6847000000475,807.9504999999999,808.9602000000477,809.4597999999523,809.4597999999523,811.7179999999998,1767,811.7181000001431,5,811.7251000001429,1,16,46,2,1,1.2,0.3,Time
,,S16,803870,001,F,22,2025-06-04_22h15.36.515,Serial_Dependence_U,2023.2.3,Win32,60.24096385550618,,,,,,811.7254000000953,227,1,811.7255,227,,,,815.3174000000954,815.8099000000952,814.8022999999523,815.3172999999522,812.7355,814.8022000000476,815.81,816.3097999999522,816.3099000000952,818.7355,1999,818.735600000143,5,818.742600000143,1,17,47,1,1,1,0.3,Time
,,S16,803870,001,F,22,2025-06-04_22h15.36.515,Serial_Dependence_U,2023.2.3,Win32,60.24096385550618,,,,,,818.7429999999999,328,1,818.7432000000476,328,,,,822.1354999999999,822.6262999999524,821.6172999999524,822.1354000000954,819.7507000000476,821.617100000143,822.6262999999524,823.1262999999524,823.1262999999524,825.0844000000952,1467,825.0844999999999,5,825.0914000000953,1,18,48,20,1,0.8,0.3,Time
,,S16,803870,001,F,22,2025-06-04_22h15.36.515,Serial_Dependence_U,2023.2.3,Win32,60.24096385550618,,,,,,825.0917000000477,276,1,825.0917999999522,276,,,,828.8837999999523,829.376100000143,828.3682999999523,828.8837999999523,826.1017000000477,828.3679999999999,829.376100000143,829.876,829.876,831.8169000000953,1233,831.817100000143,3,831.8240000000001,1,19,49,12,1,1.2,0.3,Time
,,S16,803870,001,F,22,2025-06-04_22h15.36.515,Serial_Dependence_U,2023.2.3,Win32,60.24096385550618,,,,,,831.8242999999522,75,1,831.8242999999522,75,,,,835.816,836.3092000000477,835.3015,835.8159000000953,832.8347999999523,835.3014000000953,836.3092000000477,836.8092000000477,836.8092999999524,838.9347000000475,1684,838.9347999999522,4,838.9416000001429,1,20,50,23,1,1.4,0.3,Time
,,S16,803870,001,F,22,2025-06-04_22h15.36.515,Serial_Dependence_U,2023.2.3,Win32,60.24096385550618,,,,,,838.942,154,1,838.942100000143,154,,,,842.5151000001431,843.0090000000001,842.0012000000477,842.5149999999999,839.9677000000477,842.0012000000477,843.0090000000001,843.5090000000001,843.5090000000001,845.7347000000478,1684,845.7347999999521,5,845.7444999999999,1,21,51,16,1,1,0.7,Time
,,S16,803870,001,F,22,2025-06-04_22h15.36.515,Serial_Dependence_U,2023.2.3,Win32,60.24096385550618,,,,,,845.7449000000953,73,1,845.745,73,,,,849.4917000000474,849.9914999999997,848.9826000001432,849.4914999999997,846.7487000000475,848.9824000000955,849.9914999999997,850.4919000000951,850.4919999999998,852.2686000001432,1334,852.2687000000475,4,852.2767999999525,1,22,52,27,1,1.2,0.7,Time
,,S16,803870,001,F,22,2025-06-04_22h15.36.515,Serial_Dependence_U,2023.2.3,Win32,60.24096385550618,,,,,,852.2772000000479,333,1,852.2772999999521,333,,,,855.6344999999998,856.1251000001431,855.1161000001431,855.6344000000955,853.2816000001432,855.1160000000001,856.1252000000478,856.6237999999522,856.6237999999522,858.2002999999523,1218,858.2005,5,858.2075000000001,1,23,53,5,1,0.8,0.7,Time
,,S16,803870,001,F,22,2025-06-04_22h15.36.515,Serial_Dependence_U,2023.2.3,Win32,60.24096385550618,,,,,,858.2079999999997,141,1,858.2082000000474,141,,,,861.6007000000478,862.0916000001431,861.0822999999524,861.6005000000001,859.2157000000476,861.0822000000477,862.0916000001431,862.591,862.591100000143,864.7010000000001,1618,864.7010000000001,5,864.7082999999521,1,24,54,0,1,0.8,0.3,Time
,,S16,803870,001,F,22,2025-06-04_22h15.36.515,Serial_Dependence_U,2023.2.3,Win32,60.24096385550618,,,,,,864.7089000000952,97,1,864.7092000000476,97,,,,868.6672000000477,869.1567000000479,868.1482000000475,868.667100000143,865.7152999999522,868.1479999999998,869.1567000000479,869.6569999999998,869.6571000001428,870.2672000000476,235,870.2672999999523,1,870.2746000001431,1,25,55,18,1,1.4,0.7,Time
,,S16,803870,001,F,22,2025-06-04_22h15.36.515,Serial_Dependence_U,2023.2.3,Win32,60.24096385550618,,,,,,870.2754000000951,345,1,870.2757000000476,345,,,,873.6339000000954,874.1241000001429,873.1149999999999,873.6337999999524,871.2819000000951,873.1147999999522,874.1241000001429,874.6244000000953,874.6244000000953,877.6326000001428,1951,877.6326000001428,5,877.6396000001429,1,26,56,25,1,0.8,0.7,Time
,,S16,803870,001,F,22,2025-06-04_22h15.36.515,Serial_Dependence_U,2023.2.3,Win32,60.24096385550618,,,,,,877.6399000000953,342,1,877.64,342,,,,881.2144000000955,881.7077000000478,880.7137000000477,881.2142999999525,878.647,880.7135,881.7077000000478,882.2075000000001,882.2075000000001,884.2484000000951,1500,884.2484000000951,5,884.2552999999522,1,27,57,11,1,1,0.3,Time
,,S16,803870,001,F,22,2025-06-04_22h15.36.515,Serial_Dependence_U,2023.2.3,Win32,60.24096385550618,,,,,,884.2556000001429,226,1,884.2557999999523,226,,,,888.3999999999997,888.8906000001431,887.8992000000477,888.399799999952,885.2662999999521,887.899,888.8907000000478,889.3905000000001,889.3906000001431,891.6152000000476,1516,891.6154000000953,2,891.622100000143,1,28,58,19,1,1.6,0.7,Time
,,S16,803870,001,F,22,2025-06-04_22h15.36.515,Serial_Dependence_U,2023.2.3,Win32,60.24096385550618,,,,,,891.6224000000954,241,1,891.6225000000001,241,,,,895.8152999999521,896.3071000001429,895.2994999999997,895.8151000001432,892.6332999999523,895.2994000000955,896.3071000001429,896.8072000000476,896.8072999999523,899.1661000001428,1518,899.1662000000475,2,899.1737000000477,1,29,59,14,1,1.6,0.3,Time
,,S16,803870,001,F,22,2025-06-04_22h15.36.515,Serial_Dependence_U,2023.2.3,Win32,60.24096385550618,,,,,,899.1744000000955,322,2,903.9474999999999,322,s,4.745700000047691,,907.3322999999524,907.8227000000476,906.814100000143,907.3322000000477,904.9477999999523,906.814,907.8227000000476,908.3232999999524,908.3235000000001,910.3987999999523,1601,910.3989000000953,5,910.4064000000955,2,0,60,10,1,0.8,0.3,Time
,,S16,803870,001,F,22,2025-06-04_22h15.36.515,Serial_Dependence_U,2023.2.3,Win32,60.24096385550618,,,,,,910.4072000000475,193,2,910.4091000001432,193,,,,914.3984999999999,914.8892000000475,913.8804999999999,914.3982999999522,911.4132999999521,913.8804000000952,914.8892999999522,915.3892000000475,915.3892000000475,917.147,1301,917.1472000000477,2,917.1537999999524,2,1,61,23,1,1.4,0.3,Time
,,S16,803870,001,F,22,2025-06-04_22h15.36.515,Serial_Dependence_U,2023.2.3,Win32,60.24096385550618,,,,,,917.1541000001431,40,2,917.1542000000478,40,,,,921.3129999999998,921.8061000001431,920.7979999999999,921.3129000000955,918.1649000000954,920.7977999999522,921.8061000001431,922.3060000000002,922.3061000001431,924.5139000000955,1634,924.5139000000955,3,924.5207999999521,2,2,62,19,1,1.6,0.7,Time
,,S16,803870,001,F,22,2025-06-04_22h15.36.515,Serial_Dependence_U,2023.2.3,Win32,60.24096385550618,,,,,,924.5211000001428,320,2,924.5212000000475,320,,,,928.5132999999524,929.0045000000001,927.9982000000479,928.513100000143,925.5315000000002,927.9981000001432,929.0046000001431,929.5057999999523,929.5057999999523,931.8796000001431,1866,931.8797000000478,5,931.8862999999525,2,3,63,3,1,1.4,0.3,Time
,,S16,803870,001,F,22,2025-06-04_22h15.36.515,Serial_Dependence_U,2023.2.3,Win32,60.24096385550618,,,,,,931.8867000000474,339,2,931.8867999999521,339,,,,935.6397999999523,936.1387999999521,935.1312000000477,935.6397000000476,932.8974000000954,935.1312000000477,936.1389000000955,936.6387000000478,936.6389000000955,938.8467999999522,1783,938.8469000000952,5,938.8539000000952,2,4,64,17,1,1.2,0.7,Time
,,S16,803870,001,F,22,2025-06-04_22h15.36.515,Serial_Dependence_U,2023.2.3,Win32,60.24096385550618,,,,,,938.8542999999523,260,2,938.8544000000953,260,,,,943.0645000000001,943.5549000000952,942.5467000000477,943.0644000000954,939.8792999999524,942.546600000143,943.555,944.0549000000952,944.0549000000952,946.1312999999524,1567,946.1312999999524,3,946.1385000000001,2,5,65,24,1,1.6,0.3,Time
,,S16,803870,001,F,22,2025-06-04_22h15.36.515,Serial_Dependence_U,2023.2.3,Win32,60.24096385550618,,,,,,946.1394999999999,232,2,946.1397000000476,232,,,,949.9127000000477,950.4046000001432,949.4112999999521,949.9125,947.1464000000952,949.4112000000479,950.4047000000475,950.9049999999999,950.9051000001429,951.9787000000475,566,951.9787000000475,1,951.9857000000476,2,6,66,22,1,1.2,0.3,Time
,,S16,803870,001,F,22,2025-06-04_22h15.36.515,Serial_Dependence_U,2023.2.3,Win32,60.24096385550618,,,,,,951.986,4,2,951.9862000000477,4,,,,955.5454999999998,956.0382000000478,955.0312000000478,955.5452999999521,952.9969000000953,955.031100000143,956.0382000000478,956.5384000000955,956.5384999999998,959.1306000001429,2052,959.1307000000476,5,959.1377000000476,2,7,67,26,1,1,0.7,Time
,,S16,803870,001,F,22,2025-06-04_22h15.36.515,Serial_Dependence_U,2023.2.3,Win32,60.24096385550618,,,,,,959.138100000143,165,2,959.1382999999524,165,,,,962.7301000001431,963.2211000001431,962.2119000000954,962.7300000000001,960.1457999999521,962.2117999999524,963.2211000001431,963.7214000000955,963.7214000000955,966.3975000000002,1919,966.3975000000002,5,966.4049000000952,2,8,68,1,1,1,0.3,Time
,,S16,803870,001,F,22,2025-06-04_22h15.36.515,Serial_Dependence_U,2023.2.3,Win32,60.24096385550618,,,,,,966.4057000000477,310,2,966.4060000000001,310,,,,969.763,970.2539000000953,969.245100000143,969.763,967.4114000000951,969.245,970.254,970.754,970.754100000143,973.1630000000001,1352,973.1631000001431,5,973.1701000001432,2,9,69,25,1,0.8,0.7,Time
,,S16,803870,001,F,22,2025-06-04_22h15.36.515,Serial_Dependence_U,2023.2.3,Win32,60.24096385550618,,,,,,973.1706000001428,210,2,973.1707000000475,210,,,,976.7632999999524,977.2539000000953,976.2452999999524,976.763100000143,974.1786000001431,976.2452000000477,977.254100000143,977.7539000000953,977.754,995.0626000001431,1167,995.0627000000478,4,995.071100000143,2,10,70,21,1,1,0.3,Time
,,S16,803870,001,F,22,2025-06-04_22h15.36.515,Serial_Dependence_U,2023.2.3,Win32,60.24096385550618,,,,,,995.0716000001431,119,2,995.0717999999521,119,,,,999.0294999999998,999.5197000000477,998.5104000000953,999.0292999999521,996.0774000000953,998.5102999999523,999.5197999999524,1000.0197999999524,1000.0199000000954,1001.9624999999997,1485,1001.9626000001432,4,1001.9699000000952,2,11,71,18,1,1.4,0.7,Time
,,S16,803870,001,F,22,2025-06-04_22h15.36.515,Serial_Dependence_U,2023.2.3,Win32,60.24096385550618,,,,,,1001.970600000143,204,2,1001.9707999999524,204,,,,1005.3612999999524,1005.8527000000478,1004.843,1005.3612000000477,1002.977100000143,1004.8427999999523,1005.8527000000478,1006.3530000000002,1006.3530000000002,1007.5951000001429,833,1007.5952000000476,3,1007.6022000000477,2,12,72,0,1,0.8,0.3,Time
,,S16,803870,001,F,22,2025-06-04_22h15.36.515,Serial_Dependence_U,2023.2.3,Win32,60.24096385550618,,,,,,1007.6027999999525,131,2,1007.6030000000002,131,,,,1011.7942999999524,1012.2860000000002,1011.2764000000954,1011.7942000000477,1008.6099000000955,1011.2762000000477,1012.2860000000002,1012.7862000000479,1012.7862000000479,1014.910100000143,1334,1014.9102000000477,2,1014.917,2,13,73,4,1,1.6,0.3,Time
,,S16,803870,001,F,22,2025-06-04_22h15.36.515,Serial_Dependence_U,2023.2.3,Win32,60.24096385550618,,,,,,1014.9172999999524,291,2,1014.9175000000001,291,,,,1018.2754000000951,1018.7689999999999,1017.7614000000955,1018.2752999999522,1015.9274999999999,1017.7612999999525,1018.7689999999999,1019.2694000000953,1019.2694000000953,1020.6946000001432,1000,1020.6947000000474,4,1020.7014999999998,2,14,74,15,1,0.8,0.7,Time
,,S16,803870,001,F,22,2025-06-04_22h15.36.515,Serial_Dependence_U,2023.2.3,Win32,60.24096385550618,,,,,,1020.7019000000952,123,2,1020.7021000001429,123,,,,1024.9094999999998,1025.4024000000954,1024.3944999999999,1024.909400000095,1021.7277000000478,1024.3944000000952,1025.4024000000954,1025.9022000000477,1025.902299999952,1028.2277000000477,1833,1028.2277999999524,4,1028.2349999999997,2,15,75,14,1,1.6,0.3,Time
,,S16,803870,001,F,22,2025-06-04_22h15.36.515,Serial_Dependence_U,2023.2.3,Win32,60.24096385550618,,,,,,1028.2357000000475,253,2,1028.2359000000952,253,,,,1032.3941000001428,1032.8852000000475,1031.8761000001427,1032.3939999999998,1029.2424999999998,1031.8759999999997,1032.8852000000475,1033.3851000001428,1033.3852000000475,1035.842400000095,1581,1035.8424999999997,3,1035.8492000000474,2,16,76,29,1,1.6,0.7,Time
,,S16,803870,001,F,22,2025-06-04_22h15.36.515,Serial_Dependence_U,2023.2.3,Win32,60.24096385550618,,,,,,1035.8494999999998,356,2,1035.8496000001428,356,,,,1039.5942000000477,1040.085,1039.0932999999523,1039.594100000143,1036.8594000000953,1039.0931000001428,1040.085100000143,1040.5849000000953,1040.585100000143,1042.9759000000954,1916,1042.9759000000954,5,1042.9827000000473,2,17,77,7,1,1.2,0.7,Time
,,S16,803870,001,F,22,2025-06-04_22h15.36.515,Serial_Dependence_U,2023.2.3,Win32,60.24096385550618,,,,,,1042.9831000001427,173,2,1042.9832000000474,173,,,,1046.7427999999522,1047.2347000000477,1046.2264999999998,1046.7426000001428,1043.9932000000476,1046.226299999952,1047.234799999952,1047.734600000143,1047.734799999952,1049.893799999952,1367,1049.893900000095,4,1049.9007999999521,2,18,78,27,1,1.2,0.7,Time
,,S16,803870,001,F,22,2025-06-04_22h15.36.515,Serial_Dependence_U,2023.2.3,Win32,60.24096385550618,,,,,,1049.9011000001428,181,2,1049.9012000000475,181,,,,1053.6932999999522,1054.1842999999521,1053.176100000143,1053.6932000000475,1050.9079000000952,1053.1759000000952,1054.1844000000951,1054.6844000000951,1054.6844999999998,1057.0935,1851,1057.0935,5,1057.1009000000954,2,19,79,12,1,1.2,0.3,Time
,,S16,803870,001,F,22,2025-06-04_22h15.36.515,Serial_Dependence_U,2023.2.3,Win32,60.24096385550618,,,,,,1057.1016000001428,185,2,1057.1017999999522,185,,,,1060.4589999999998,1060.9501000001428,1059.9419000000953,1060.4587999999521,1058.1082999999521,1059.9417000000476,1060.9502000000475,1061.4504000000952,1061.4505,1063.0082999999522,1100,1063.0082999999522,5,1063.0154000000953,2,20,80,5,1,0.8,0.7,Time
,,S16,803870,001,F,22,2025-06-04_22h15.36.515,Serial_Dependence_U,2023.2.3,Win32,60.24096385550618,,,,,,1063.0157000000477,62,2,1063.0157999999524,62,,,,1066.808,1067.3007000000475,1066.2929999999997,1066.8077999999523,1064.0245,1066.2929000000954,1067.3007000000475,1067.801,1067.801100000143,1069.7264999999998,1519,1069.7266000001428,4,1069.7342999999523,2,21,81,2,1,1.2,0.3,Time
,,S16,803870,001,F,22,2025-06-04_22h15.36.515,Serial_Dependence_U,2023.2.3,Win32,60.24096385550618,,,,,,1069.7349999999997,118,2,1069.735299999952,118,,,,1073.3084999999996,1073.8004000000951,1072.8072000000475,1073.308299999952,1070.7409000000953,1072.8071000001428,1073.8004000000951,1074.3004000000951,1074.3004999999998,1075.8415,1167,1075.841600000143,4,1075.8487000000478,2,22,82,11,1,1,0.3,Time
,,S16,803870,001,F,22,2025-06-04_22h15.36.515,Serial_Dependence_U,2023.2.3,Win32,60.24096385550618,,,,,,1075.8491000001427,203,2,1075.8492000000474,203,,,,1079.4065,1079.8987999999522,1078.8909000000954,1079.4064000000953,1076.859100000143,1078.8907999999524,1079.8987999999522,1080.3989000000952,1080.3989000000952,1082.524,1751,1082.5241000001429,5,1082.5306000001428,2,23,83,16,1,1,0.7,Time
,,S16,803870,001,F,22,2025-06-04_22h15.36.515,Serial_Dependence_U,2023.2.3,Win32,60.24096385550618,,,,,,1082.5307999999523,82,2,1082.5309000000952,82,,,,1086.0904999999998,1086.583100000143,1085.574299999952,1086.090400000095,1083.5392999999522,1085.574299999952,1086.5832000000473,1087.0829999999996,1087.083100000143,1089.141299999952,1633,1089.141299999952,5,1089.1487000000475,2,24,84,6,1,1,0.7,Time
,,S16,803870,001,F,22,2025-06-04_22h15.36.515,Serial_Dependence_U,2023.2.3,Win32,60.24096385550618,,,,,,1089.1492999999523,101,2,1089.1494000000953,101,,,,1093.1402000000476,1093.6329999999998,1092.625299999952,1093.1401000001429,1090.1592000000473,1092.625100000143,1093.6331000001428,1094.1332000000475,1094.1332999999522,1095.8577000000473,1283,1095.857900000095,2,1095.8662999999524,2,25,85,13,1,1.4,0.3,Time
,,S16,803870,001,F,22,2025-06-04_22h15.36.515,Serial_Dependence_U,2023.2.3,Win32,60.24096385550618,,,,,,1095.8669999999997,316,2,1095.8672999999521,316,,,,1100.0067999999524,1100.4992999999522,1099.5062000000476,1100.0067000000477,1096.8736000001427,1099.5061000001429,1100.4994000000952,1100.9994000000952,1100.9995,1104.1742000000477,2699,1104.1742000000477,5,1104.181799999952,2,26,86,9,1,1.6,0.7,Time
,,S16,803870,001,F,22,2025-06-04_22h15.36.515,Serial_Dependence_U,2023.2.3,Win32,60.24096385550618,,,,,,1104.1822999999522,299,2,1104.1825,299,,,,1108.1396000001428,1108.6317000000477,1107.6249000000953,1108.1394999999998,1105.1912999999522,1107.6247999999523,1108.6317000000477,1109.132400000095,1109.1326000001427,1111.7722999999523,2115,1111.7725,5,1111.779299999952,2,27,87,28,1,1.4,0.7,Time
,,S16,803870,001,F,22,2025-06-04_22h15.36.515,Serial_Dependence_U,2023.2.3,Win32,60.24096385550618,,,,,,1111.7797000000473,51,2,1111.779799999952,51,,,,1115.1577000000475,1115.6487999999522,1114.6399000000952,1115.1574999999998,1112.7732000000474,1114.6397000000475,1115.6487999999522,1116.1486000001428,1116.1487000000475,1118.0922000000473,1286,1118.092299999952,5,1118.100600000143,2,28,88,20,1,0.8,0.3,Time
,,S16,803870,001,F,22,2025-06-04_22h15.36.515,Serial_Dependence_U,2023.2.3,Win32,60.24096385550618,,,,,,1118.1009000000954,188,2,1118.101100000143,188,,,,1122.0576000001429,1122.5484000000952,1121.5389999999998,1122.0574000000952,1119.1064999999999,1121.538900000095,1122.5484999999999,1123.0481000001428,1123.0481000001428,1125.0241000001429,1585,1125.0241000001429,4,1125.0312000000476,2,29,89,8,1,1.4,0.7,Time
,,S16,803870,001,F,22,2025-06-04_22h15.36.515,Serial_Dependence_U,2023.2.3,Win32,60.24096385550618,,,,,,1125.031600000143,174,3,1315.4147999999523,174,s,190.36059999990448,,1318.9974000000952,1319.4912999999524,1318.4844000000953,1318.9972999999522,1316.4167000000475,1318.4842000000476,1319.4914000000954,1319.9907999999523,1319.9907999999523,1321.5499999999997,1085,1321.5501000001427,4,1321.5571000001428,3,0,90,21,1,1,0.3,Time
,,S16,803870,001,F,22,2025-06-04_22h15.36.515,Serial_Dependence_U,2023.2.3,Win32,60.24096385550618,,,,,,1321.5577000000476,347,3,1321.560900000095,347,,,,1324.9154000000954,1325.407400000095,1324.3991000001429,1324.9152000000477,1322.5657000000474,1324.399,1325.407400000095,1325.9077999999522,1325.9079000000952,1327.783600000143,1367,1327.783600000143,5,1327.7905,3,1,91,5,1,0.8,0.7,Time
,,S16,803870,001,F,22,2025-06-04_22h15.36.515,Serial_Dependence_U,2023.2.3,Win32,60.24096385550618,,,,,,1327.790900000095,16,3,1327.7911000001427,16,,,,1331.9834000000951,1332.4739999999997,1331.4649999999997,1331.9832000000474,1328.7979999999998,1331.464799999952,1332.4741000001427,1332.974299999952,1332.974299999952,1334.9167999999522,1485,1334.9169000000952,2,1334.9244999999996,3,2,92,24,1,1.6,0.3,Time
,,S16,803870,001,F,22,2025-06-04_22h15.36.515,Serial_Dependence_U,2023.2.3,Win32,60.24096385550618,,,,,,1334.9251000001427,203,3,1334.9252999999521,203,,,,1338.3165,1338.8072999999522,1337.7984999999999,1338.3164000000952,1335.9312000000477,1337.7984000000952,1338.8072999999522,1339.306299999952,1339.3064000000954,1340.6652000000477,982,1340.6654000000954,4,1340.6722000000477,3,3,93,20,1,0.8,0.3,Time
,,S16,803870,001,F,22,2025-06-04_22h15.36.515,Serial_Dependence_U,2023.2.3,Win32,60.24096385550618,,,,,,1340.6726000001431,271,3,1340.672799999952,271,,,,1344.4645,1344.9572999999523,1343.9497999999521,1344.4642999999523,1341.6822000000475,1343.9497000000474,1344.9572999999523,1345.457600000143,1345.457600000143,1347.4649999999997,1482,1347.4651000001427,4,1347.471799999952,3,4,94,2,1,1.2,0.3,Time
,,S16,803870,001,F,22,2025-06-04_22h15.36.515,Serial_Dependence_U,2023.2.3,Win32,60.24096385550618,,,,,,1347.4722000000475,14,3,1347.4722999999522,14,,,,1351.2497000000476,1351.7402000000475,1350.748900000095,1351.249600000143,1348.4822999999524,1350.7487000000474,1351.7402999999522,1352.239900000095,1352.239900000095,1354.0829999999996,1400,1354.0832000000473,4,1354.0915,3,5,95,12,1,1.2,0.3,Time
,,S16,803870,001,F,22,2025-06-04_22h15.36.515,Serial_Dependence_U,2023.2.3,Win32,60.24096385550618,,,,,,1354.091799999952,47,3,1354.0919999999996,47,,,,1358.0849000000953,1358.5732000000476,1357.565100000143,1358.0847000000476,1355.0971000001427,1357.565,1358.5732000000476,1359.0731000001429,1359.0732999999523,1361.1307000000475,1582,1361.1307999999522,4,1361.1377000000475,3,6,96,3,1,1.4,0.3,Time
,,S16,803870,001,F,22,2025-06-04_22h15.36.515,Serial_Dependence_U,2023.2.3,Win32,60.24096385550618,,,,,,1361.138,89,3,1361.1382000000476,89,,,,1364.529900000095,1365.0229000000954,1364.0152000000476,1364.529799999952,1362.1486000001428,1364.0151000001429,1365.0229000000954,1365.523299999952,1365.523299999952,1367.3305,1341,1367.3305,5,1367.3374999999996,3,7,97,10,1,0.8,0.3,Time
,,S16,803870,001,F,22,2025-06-04_22h15.36.515,Serial_Dependence_U,2023.2.3,Win32,60.24096385550618,,,,,,1367.337799999952,29,3,1367.3379999999997,29,,,,1371.096600000143,1371.5895,1370.5817999999522,1371.0964999999997,1368.3484000000954,1370.5816000001428,1371.589600000143,1372.0895,1372.089600000143,1373.8299000000952,1365,1373.8299000000952,4,1373.8366000001429,3,8,98,17,1,1.2,0.7,Time
,,S16,803870,001,F,22,2025-06-04_22h15.36.515,Serial_Dependence_U,2023.2.3,Win32,60.24096385550618,,,,,,1373.8369000000953,187,3,1373.837100000143,187,,,,1377.4147999999523,1377.906,1376.913799999952,1377.4147000000476,1374.8474000000951,1376.9137000000478,1377.906100000143,1378.4059000000952,1378.4059000000952,1379.9824000000954,1152,1379.9824000000954,4,1379.9899000000955,3,9,99,1,1,1,0.3,Time
,,S16,803870,001,F,22,2025-06-04_22h15.36.515,Serial_Dependence_U,2023.2.3,Win32,60.24096385550618,,,,,,1379.9906000001429,228,3,1379.9907000000476,228,,,,1383.781,1384.2722000000476,1383.2632999999523,1383.7807999999523,1380.9952999999523,1383.2632000000476,1384.2722000000476,1384.772100000143,1384.7722999999523,1386.2634000000953,1233,1386.2635,3,1386.27,3,10,100,22,1,1.2,0.3,Time
,,S16,803870,001,F,22,2025-06-04_22h15.36.515,Serial_Dependence_U,2023.2.3,Win32,60.24096385550618,,,,,,1386.2702999999524,49,3,1386.2704000000954,49,,,,1389.8632000000475,1390.3554000000954,1389.3474999999999,1389.8631000001428,1387.2806000001428,1389.3474000000951,1390.3555000000001,1390.8555000000001,1390.8557000000478,1392.4297999999521,1167,1392.4299000000951,4,1392.437100000143,3,11,101,11,1,1,0.3,Time
,,S16,803870,001,F,22,2025-06-04_22h15.36.515,Serial_Dependence_U,2023.2.3,Win32,60.24096385550618,,,,,,1392.4375,33,3,1392.437600000143,33,,,,1396.3975,1396.8889000000954,1395.8804000000955,1396.3969000000952,1393.4474000000955,1395.8802000000478,1396.8890000000001,1397.3884000000953,1397.3887000000477,1399.0949000000955,1299,1399.0949999999998,2,1399.1016000001432,3,12,102,8,1,1.4,0.7,Time
,,S16,803870,001,F,22,2025-06-04_22h15.36.515,Serial_Dependence_U,2023.2.3,Win32,60.24096385550618,,,,,,1399.1019999999999,194,3,1399.1021000001429,194,,,,1403.0622999999523,1403.5551000001428,1402.5464000000952,1403.062100000143,1400.1137000000476,1402.5462999999522,1403.5551000001428,1404.0547999999521,1404.0549000000951,1406.130100000143,1450,1406.1302000000478,3,1406.1369000000955,3,13,103,28,1,1.4,0.7,Time
,,S16,803870,001,F,22,2025-06-04_22h15.36.515,Serial_Dependence_U,2023.2.3,Win32,60.24096385550618,,,,,,1406.1372999999521,179,3,1406.137400000095,179,,,,1409.6947000000478,1410.188,1409.1802000000475,1409.6945,1407.1467000000475,1409.1801000001428,1410.188,1410.688,1410.688100000143,1412.547799999952,1252,1412.547799999952,4,1412.5557999999523,3,14,104,26,1,1,0.7,Time
,,S16,803870,001,F,22,2025-06-04_22h15.36.515,Serial_Dependence_U,2023.2.3,Win32,60.24096385550618,,,,,,1412.5562999999524,347,3,1412.5564000000954,347,,,,1416.513,1417.0037999999522,1415.9949000000952,1416.5129000000952,1413.561299999952,1415.9947999999522,1417.0037999999522,1417.5044000000953,1417.5044000000953,1419.3959000000955,1449,1419.3959000000955,3,1419.4026000001431,3,15,105,18,1,1.4,0.7,Time
,,S16,803870,001,F,22,2025-06-04_22h15.36.515,Serial_Dependence_U,2023.2.3,Win32,60.24096385550618,,,,,,1419.4029000000955,324,3,1419.4029999999998,324,,,,1422.7947999999524,1423.2875,1422.2792000000477,1422.794600000143,1420.413100000143,1422.279,1423.287600000143,1423.7874000000952,1423.7875,1424.9797999999523,766,1424.9799000000953,3,1424.987,3,16,106,0,1,0.8,0.3,Time
,,S16,803870,001,F,22,2025-06-04_22h15.36.515,Serial_Dependence_U,2023.2.3,Win32,60.24096385550618,,,,,,1424.9875000000002,55,3,1424.9877999999521,55,,,,1428.346100000143,1428.837,1427.8279000000953,1428.346,1425.995600000143,1427.8277999999523,1428.837,1429.3372999999524,1429.3372999999524,1431.0794999999998,1318,1431.0796000001428,5,1431.0862999999522,3,17,107,25,1,0.8,0.7,Time
,,S16,803870,001,F,22,2025-06-04_22h15.36.515,Serial_Dependence_U,2023.2.3,Win32,60.24096385550618,,,,,,1431.0869000000953,274,3,1431.087,274,,,,1434.428600000143,1434.9209000000951,1433.9277999999522,1434.4285,1432.0947000000479,1433.9277000000475,1434.9209000000951,1435.4204000000955,1435.4205000000002,1437.2285000000002,1349,1437.2286000001432,5,1437.2354000000955,3,18,108,15,1,0.8,0.7,Time
,,S16,803870,001,F,22,2025-06-04_22h15.36.515,Serial_Dependence_U,2023.2.3,Win32,60.24096385550618,,,,,,1437.2357000000475,270,3,1437.2359000000952,270,,,,1440.7927000000477,1441.2869999999998,1440.278600000143,1440.792600000143,1438.2447999999522,1440.2785,1441.2869999999998,1441.786799999952,1441.786900000095,1443.5275000000001,1233,1443.5276000001431,4,1443.5342000000478,3,19,109,16,1,1,0.7,Time
,,S16,803870,001,F,22,2025-06-04_22h15.36.515,Serial_Dependence_U,2023.2.3,Win32,60.24096385550618,,,,,,1443.5344999999998,40,3,1443.5346000001432,40,,,,1447.5122999999521,1448.0032000000479,1447.0114000000954,1447.5122000000479,1444.5461000001428,1447.0112999999524,1448.003299999952,1448.5032000000479,1448.5032000000479,1450.661100000143,1467,1450.661100000143,3,1450.668100000143,3,20,110,13,1,1.4,0.3,Time
,,S16,803870,001,F,22,2025-06-04_22h15.36.515,Serial_Dependence_U,2023.2.3,Win32,60.24096385550618,,,,,,1450.6686000001432,186,3,1450.6687000000475,186,,,,1454.6601000001428,1455.1529999999998,1454.1454000000954,1454.6599999999999,1451.6787000000477,1454.1452000000477,1455.1531000001428,1455.6531000001428,1455.6532000000475,1457.4127999999523,1386,1457.4129000000953,3,1457.4202000000478,3,21,111,23,1,1.4,0.3,Time
,,S16,803870,001,F,22,2025-06-04_22h15.36.515,Serial_Dependence_U,2023.2.3,Win32,60.24096385550618,,,,,,1457.4209000000951,292,3,1457.4209999999998,292,,,,1461.5782999999524,1462.0692999999524,1461.0602999999523,1461.5782000000477,1458.4267999999524,1461.0602999999523,1462.0692999999524,1462.5692999999524,1462.5694000000954,1464.345600000143,1400,1464.3457999999523,2,1464.3527999999524,3,22,112,9,1,1.6,0.7,Time
,,S16,803870,001,F,22,2025-06-04_22h15.36.515,Serial_Dependence_U,2023.2.3,Win32,60.24096385550618,,,,,,1464.3535000000002,359,3,1464.3537000000479,359,,,,1468.5262000000475,1469.0192000000475,1468.0247000000477,1468.5259999999998,1465.360299999952,1468.0245,1469.0192999999522,1469.5191000001432,1469.5192000000475,1471.2787000000476,1352,1471.2787999999523,2,1471.2864000000955,3,23,113,4,1,1.6,0.3,Time
,,S16,803870,001,F,22,2025-06-04_22h15.36.515,Serial_Dependence_U,2023.2.3,Win32,60.24096385550618,,,,,,1471.2872000000475,53,3,1471.2872999999522,53,,,,1475.4444000000954,1475.9352000000476,1474.9264000000953,1475.4442000000477,1472.2930000000001,1474.9262999999523,1475.9352000000476,1476.435100000143,1476.4352000000476,1478.426600000143,1648,1478.426600000143,3,1478.4332999999524,3,24,114,19,1,1.6,0.7,Time
,,S16,803870,001,F,22,2025-06-04_22h15.36.515,Serial_Dependence_U,2023.2.3,Win32,60.24096385550618,,,,,,1478.4337000000478,120,3,1478.4337000000478,120,,,,1482.5927999999521,1483.0855000000001,1482.0777999999523,1482.5927000000474,1479.4442000000477,1482.0776000001429,1483.0855000000001,1483.5856000001431,1483.5856000001431,1485.6929999999998,1799,1485.6931000001432,4,1485.7001000001428,3,25,115,29,1,1.6,0.7,Time
,,S16,803870,001,F,22,2025-06-04_22h15.36.515,Serial_Dependence_U,2023.2.3,Win32,60.24096385550618,,,,,,1485.7004000000952,70,3,1485.7005,70,,,,1489.4597000000476,1489.9517000000478,1488.9442999999524,1489.4589000000951,1486.7105000000001,1488.9442000000477,1489.9517000000478,1490.4517000000478,1490.4519000000955,1492.0934000000952,1315,1492.0935,4,1492.1002000000476,3,26,116,7,1,1.2,0.7,Time
,,S16,803870,001,F,22,2025-06-04_22h15.36.515,Serial_Dependence_U,2023.2.3,Win32,60.24096385550618,,,,,,1492.1005,318,3,1492.1007000000477,318,,,,1495.859,1496.3514000000955,1495.344,1495.8589000000952,1493.1101000001431,1495.3437999999524,1496.3514999999998,1496.8514000000955,1496.8516000001432,1498.6439000000955,1400,1498.6441000001432,4,1498.6512000000475,3,27,117,27,1,1.2,0.7,Time
,,S16,803870,001,F,22,2025-06-04_22h15.36.515,Serial_Dependence_U,2023.2.3,Win32,60.24096385550618,,,,,,1498.6519000000953,340,3,1498.652100000143,340,,,,1502.2102999999524,1502.7012000000477,1501.7089999999998,1502.210100000143,1499.659299999952,1501.7087999999521,1502.7012999999524,1503.2016000001431,1503.2017000000478,1505.092,1532,1505.092,5,1505.0990000000002,3,28,118,6,1,1,0.7,Time
,,S16,803870,001,F,22,2025-06-04_22h15.36.515,Serial_Dependence_U,2023.2.3,Win32,60.24096385550618,,,,,,1505.099400000095,73,3,1505.0994999999998,73,,,,1509.2917000000475,1509.7844999999998,1508.7767000000476,1509.2916000001428,1506.1100000000001,1508.776600000143,1509.7846000001432,1510.284299999952,1510.2844000000955,1511.7437000000477,1033,1511.7437000000477,1,1511.750799999952,3,29,119,14,1,1.6,0.3,Time
,,S16,803870,001,F,22,2025-06-04_22h15.36.515,Serial_Dependence_U,2023.2.3,Win32,60.24096385550618,,,,,,1511.7517000000475,189,4,1536.8745,189,s,25.0949999999998,,1540.2237000000478,1540.7165,1539.7082000000478,1540.2235,1537.8754000000954,1539.708100000143,1540.716600000143,1541.2167000000477,1541.2167999999524,1543.1909000000956,1567,1543.1909000000956,5,1543.1977000000475,4,0,120,25,1,0.8,0.7,Time
,,S16,803870,001,F,22,2025-06-04_22h15.36.515,Serial_Dependence_U,2023.2.3,Win32,60.24096385550618,,,,,,1543.1979999999999,204,4,1543.1996000001432,204,,,,1547.3567000000476,1547.8494999999998,1546.8417000000477,1547.3564999999999,1544.2084000000955,1546.8415,1547.8494999999998,1548.3497000000475,1548.3497000000475,1550.3569000000953,1581,1550.357,3,1550.3637000000476,4,1,121,29,1,1.6,0.7,Time
,,S16,803870,001,F,22,2025-06-04_22h15.36.515,Serial_Dependence_U,2023.2.3,Win32,60.24096385550618,,,,,,1550.364,70,4,1550.364100000143,70,,,,1553.9564000000955,1554.4494000000955,1553.4417999999523,1553.956299999952,1551.375,1553.441600000143,1554.4494000000955,1554.9494000000955,1554.9495000000002,1556.2752999999525,967,1556.2754000000955,3,1556.2826000001428,4,2,122,1,1,1,0.3,Time
,,S16,803870,001,F,22,2025-06-04_22h15.36.515,Serial_Dependence_U,2023.2.3,Win32,60.24096385550618,,,,,,1556.283100000143,173,4,1556.2832999999523,173,,,,1560.0747000000479,1560.565799999952,1559.5567000000478,1560.0745000000002,1557.290600000143,1559.5565000000001,1560.565799999952,1561.0659000000956,1561.0659999999998,1562.6904000000955,1267,1562.6904000000955,4,1562.6972000000478,4,3,123,2,1,1.2,0.3,Time
,,S16,803870,001,F,22,2025-06-04_22h15.36.515,Serial_Dependence_U,2023.2.3,Win32,60.24096385550618,,,,,,1562.6974999999998,266,4,1562.6976000001432,266,,,,1566.4561000001431,1566.9477000000475,1565.9412999999522,1566.4560000000001,1563.7072000000476,1565.9411000001428,1566.9479000000952,1567.4489000000954,1567.449,1569.408,1599,1569.408100000143,5,1569.415,4,4,124,27,1,1.2,0.7,Time
,,S16,803870,001,F,22,2025-06-04_22h15.36.515,Serial_Dependence_U,2023.2.3,Win32,60.24096385550618,,,,,,1569.415600000143,99,4,1569.4157000000478,99,,,,1573.1565,1573.6487000000475,1572.6557999999523,1573.1564000000953,1570.4229000000955,1572.6557000000475,1573.6487000000475,1574.1487999999522,1574.1489000000952,1576.1752999999521,1700,1576.1754999999998,5,1576.1834000000954,4,5,125,7,1,1.2,0.7,Time
,,S16,803870,001,F,22,2025-06-04_22h15.36.515,Serial_Dependence_U,2023.2.3,Win32,60.24096385550618,,,,,,1576.1837999999525,114,4,1576.1839999999997,114,,,,1579.5410000000002,1580.0317999999525,1579.0227000000477,1579.5409000000955,1577.1892999999523,1579.022600000143,1580.0317999999525,1580.531600000143,1580.5317000000477,1582.6565,1115,1582.6567000000477,5,1582.6632999999524,4,6,126,5,1,0.8,0.7,Time
,,S16,803870,001,F,22,2025-06-04_22h15.36.515,Serial_Dependence_U,2023.2.3,Win32,60.24096385550618,,,,,,1582.6637000000478,251,4,1582.663799999952,251,,,,1586.6556000001428,1587.148299999952,1586.140600000143,1586.6554999999998,1583.6729999999998,1586.1404000000953,1587.1484000000955,1587.6482000000478,1587.648299999952,1589.3899000000952,1367,1589.3899999999999,3,1589.397100000143,4,7,127,3,1,1.4,0.3,Time
,,S16,803870,001,F,22,2025-06-04_22h15.36.515,Serial_Dependence_U,2023.2.3,Win32,60.24096385550618,,,,,,1589.3974000000953,239,4,1589.397600000143,239,,,,1593.1884999999997,1593.6812999999524,1592.6736000001429,1593.1884999999997,1590.4067999999525,1592.6734999999999,1593.6812999999524,1594.181100000143,1594.1812999999524,1596.1401000001429,1652,1596.1402000000476,5,1596.147600000143,4,8,128,12,1,1.2,0.3,Time
,,S16,803870,001,F,22,2025-06-04_22h15.36.515,Serial_Dependence_U,2023.2.3,Win32,60.24096385550618,,,,,,1596.148299999952,357,4,1596.1484999999998,357,,,,1599.7062000000478,1600.1974999999998,1599.1882000000478,1599.7061000001431,1597.1557000000475,1599.188100000143,1600.1976000001432,1600.6977000000475,1600.6979000000952,1602.5072999999525,1252,1602.5074000000955,4,1602.515600000143,4,9,129,16,1,1,0.7,Time
,,S16,803870,001,F,22,2025-06-04_22h15.36.515,Serial_Dependence_U,2023.2.3,Win32,60.24096385550618,,,,,,1602.5162999999525,233,4,1602.5165000000002,233,,,,1606.2722000000476,1606.7632000000476,1605.7549000000954,1606.272100000143,1603.5211000001432,1605.7547999999524,1606.7632000000476,1607.2635,1607.2635,1608.9749000000952,1400,1608.975,4,1608.9829000000955,4,10,130,17,1,1.2,0.7,Time
,,S16,803870,001,F,22,2025-06-04_22h15.36.515,Serial_Dependence_U,2023.2.3,Win32,60.24096385550618,,,,,,1608.9832000000474,325,4,1608.9832999999521,325,,,,1613.1732000000475,1613.663600000143,1612.6544000000954,1613.1731000001432,1609.9875000000002,1612.6542999999524,1613.663600000143,1614.163600000143,1614.163600000143,1615.9065,1234,1615.906600000143,2,1615.9142999999522,4,11,131,14,1,1.6,0.3,Time
,,S16,803870,001,F,22,2025-06-04_22h15.36.515,Serial_Dependence_U,2023.2.3,Win32,60.24096385550618,,,,,,1615.915,229,4,1615.9152000000477,229,,,,1620.0539000000954,1620.5467999999523,1619.5529999999999,1620.0537999999524,1616.9207000000474,1619.5529000000952,1620.5469000000953,1621.047100000143,1621.047100000143,1623.1727000000478,1752,1623.1727000000478,4,1623.1799000000951,4,12,132,9,1,1.6,0.7,Time
,,S16,803870,001,F,22,2025-06-04_22h15.36.515,Serial_Dependence_U,2023.2.3,Win32,60.24096385550618,,,,,,1623.1804000000952,252,4,1623.180600000143,252,,,,1626.5720000000001,1627.0627000000477,1626.054,1626.5719000000954,1624.181100000143,1626.0539000000954,1627.0629000000954,1627.5632000000478,1627.5634999999997,1629.4724000000951,1521,1629.4724000000951,5,1629.4794000000952,4,13,133,10,1,0.8,0.3,Time
,,S16,803870,001,F,22,2025-06-04_22h15.36.515,Serial_Dependence_U,2023.2.3,Win32,60.24096385550618,,,,,,1629.48,130,4,1629.480100000143,130,,,,1633.6725000000001,1634.163100000143,1633.154600000143,1633.6722999999524,1630.4869000000954,1633.1544000000954,1634.163100000143,1634.6621000001428,1634.6621000001428,1636.8727999999523,1869,1636.8727999999523,4,1636.8811000001429,4,14,134,24,1,1.6,0.3,Time
,,S16,803870,001,F,22,2025-06-04_22h15.36.515,Serial_Dependence_U,2023.2.3,Win32,60.24096385550618,,,,,,1636.8815,258,4,1636.8817000000477,258,,,,1640.2294000000952,1640.7294000000952,1639.720600000143,1640.2292999999522,1637.8871000001432,1639.7204000000952,1640.7294000000952,1641.2295,1641.2295,1642.6717000000476,884,1642.6717999999523,4,1642.6785,4,15,135,15,1,0.8,0.7,Time
,,S16,803870,001,F,22,2025-06-04_22h15.36.515,Serial_Dependence_U,2023.2.3,Win32,60.24096385550618,,,,,,1642.6787999999524,357,4,1642.6789000000954,357,,,,1646.6714000000952,1647.162600000143,1646.1532000000475,1646.6712000000475,1643.6864000000955,1646.1529000000955,1647.162600000143,1647.6625,1647.662600000143,1649.7376000001432,1433,1649.7377000000474,3,1649.7444999999998,4,16,136,23,1,1.4,0.3,Time
,,S16,803870,001,F,22,2025-06-04_22h15.36.515,Serial_Dependence_U,2023.2.3,Win32,60.24096385550618,,,,,,1649.745,276,4,1649.7451000001429,276,,,,1653.3381000001432,1653.8289000000955,1652.8197999999525,1653.3379000000955,1650.7530000000002,1652.819600000143,1653.8290000000002,1654.3287999999525,1654.3289000000955,1655.7857000000477,1147,1655.7857000000477,4,1655.7924000000953,4,17,137,11,1,1,0.3,Time
,,S16,803870,001,F,22,2025-06-04_22h15.36.515,Serial_Dependence_U,2023.2.3,Win32,60.24096385550618,,,,,,1655.7927000000477,239,4,1655.7927999999524,239,,,,1659.3532000000478,1659.8452999999522,1658.837100000143,1659.353100000143,1656.8044999999997,1658.837100000143,1659.8454000000952,1660.3452999999522,1660.3454000000952,1662.0197999999523,1334,1662.0199000000953,5,1662.0269000000953,4,18,138,26,1,1,0.7,Time
,,S16,803870,001,F,22,2025-06-04_22h15.36.515,Serial_Dependence_U,2023.2.3,Win32,60.24096385550618,,,,,,1662.0272999999524,174,4,1662.0275000000001,174,,,,1665.6187999999524,1666.112,1665.1047000000476,1665.6187000000477,1663.037600000143,1665.1045,1666.112100000143,1666.6117999999524,1666.6119000000954,1668.5866000001429,1349,1668.5867000000476,5,1668.5932999999523,4,19,139,21,1,1,0.3,Time
,,S16,803870,001,F,22,2025-06-04_22h15.36.515,Serial_Dependence_U,2023.2.3,Win32,60.24096385550618,,,,,,1668.5937000000476,98,4,1668.5937999999524,98,,,,1672.5519000000954,1673.045,1672.0372999999522,1672.5517000000477,1669.6037999999521,1672.0371000001428,1673.045100000143,1673.5449000000954,1673.545100000143,1675.3862000000477,1533,1675.3862999999524,4,1675.3932999999524,4,20,140,28,1,1.4,0.7,Time
,,S16,803870,001,F,22,2025-06-04_22h15.36.515,Serial_Dependence_U,2023.2.3,Win32,60.24096385550618,,,,,,1675.3937000000478,358,4,1675.393799999952,358,,,,1679.5517999999524,1680.0447000000477,1679.0372999999522,1679.5517000000477,1676.4025000000001,1679.0372000000475,1680.0447000000477,1680.5447000000477,1680.5447000000477,1682.5699000000955,1718,1682.5700000000002,4,1682.5771000001432,4,21,141,19,1,1.6,0.7,Time
,,S16,803870,001,F,22,2025-06-04_22h15.36.515,Serial_Dependence_U,2023.2.3,Win32,60.24096385550618,,,,,,1682.5774000000952,324,4,1682.5776000001429,324,,,,1685.9524000000952,1686.4444000000954,1685.4516000001431,1685.9522999999522,1683.5849000000953,1685.4514000000954,1686.4444000000954,1686.944600000143,1686.944600000143,1687.9849000000954,833,1687.9850000000001,3,1687.9919999999997,4,22,142,0,1,0.8,0.3,Time
,,S16,803870,001,F,22,2025-06-04_22h15.36.515,Serial_Dependence_U,2023.2.3,Win32,60.24096385550618,,,,,,1687.9922999999521,121,4,1687.9922999999521,121,,,,1691.536799999952,1692.0272999999524,1691.0354000000953,1691.5367000000479,1689.0037000000475,1691.0352000000476,1692.0272999999524,1692.527100000143,1692.5272000000477,1694.238600000143,1401,1694.2387000000476,5,1694.2466000001432,4,23,143,6,1,1,0.7,Time
,,S16,803870,001,F,22,2025-06-04_22h15.36.515,Serial_Dependence_U,2023.2.3,Win32,60.24096385550618,,,,,,1694.2469000000951,298,4,1694.2469999999998,298,,,,1698.4372999999523,1698.9272000000478,1697.918100000143,1698.4372000000476,1695.2522000000477,1697.9179000000954,1698.927299999952,1699.4271000001431,1699.4272000000478,1701.5699000000955,1800,1701.5701000001432,4,1701.5774000000952,4,24,144,4,1,1.6,0.3,Time
,,S16,803870,001,F,22,2025-06-04_22h15.36.515,Serial_Dependence_U,2023.2.3,Win32,60.24096385550618,,,,,,1701.5782000000477,203,4,1701.5784000000954,203,,,,1704.955100000143,1705.4437000000476,1704.451,1704.9547999999522,1702.5845,1704.4509000000953,1705.4437999999523,1705.9437999999523,1705.9439000000953,1707.4357999999525,1151,1707.4359000000954,5,1707.4429999999998,4,25,145,20,1,0.8,0.3,Time
,,S16,803870,001,F,22,2025-06-04_22h15.36.515,Serial_Dependence_U,2023.2.3,Win32,60.24096385550618,,,,,,1707.4437000000476,354,4,1707.4439000000953,354,,,,1711.3837000000476,1711.8762000000474,1710.8690000000001,1711.3835,1708.4354000000953,1710.8687999999524,1711.8762999999522,1712.377,1712.377100000143,1714.2694999999999,1585,1714.2696000001429,4,1714.277,4,26,146,8,1,1.4,0.7,Time
,,S16,803870,001,F,22,2025-06-04_22h15.36.515,Serial_Dependence_U,2023.2.3,Win32,60.24096385550618,,,,,,1714.2777000000478,294,4,1714.2779000000955,294,,,,1718.2342999999523,1718.7266000001432,1717.7177999999521,1718.234100000143,1715.284299999952,1717.7177000000474,1718.7267000000475,1719.2264999999998,1719.2266000001432,1721.1504000000955,1648,1721.1506000001432,4,1721.1574000000955,4,27,147,18,1,1.4,0.7,Time
,,S16,803870,001,F,22,2025-06-04_22h15.36.515,Serial_Dependence_U,2023.2.3,Win32,60.24096385550618,,,,,,1721.1577999999522,107,4,1721.1577999999522,107,,,,1725.1492999999523,1725.643100000143,1724.6352999999522,1725.1491000001429,1722.1686000001432,1724.6351000001432,1725.6432999999524,1726.1432000000477,1726.1434000000954,1728.0362000000478,1567,1728.0364000000955,4,1728.045100000143,4,28,148,13,1,1.4,0.3,Time
,,S16,803870,001,F,22,2025-06-04_22h15.36.515,Serial_Dependence_U,2023.2.3,Win32,60.24096385550618,,,,,,1728.0455000000002,290,4,1728.0456000001432,290,,,,1731.8349000000953,1732.3259000000953,1731.3169000000953,1731.8347999999523,1729.0506000001428,1731.3167000000476,1732.326100000143,1732.8259000000953,1732.826,1734.536,1351,1734.536,4,1734.5430000000001,4,29,149,22,1,1.2,0.3,Time
,,S16,803870,001,F,22,2025-06-04_22h15.36.515,Serial_Dependence_U,2023.2.3,Win32,60.24096385550618,,,,,,1734.5436000001432,328,5,1752.6497000000477,328,s,18.07900000000018,,1756.2007999999523,1756.6919000000953,1755.6827000000476,1756.200600000143,1753.6494000000953,1755.6826000001429,1756.6919000000953,1757.1917999999523,1757.1917999999523,1759.0159000000954,1449,1759.016,5,1759.0227999999524,5,0,150,6,1,1,0.7,Time
,,S16,803870,001,F,22,2025-06-04_22h15.36.515,Serial_Dependence_U,2023.2.3,Win32,60.24096385550618,,,,,,1759.0231000001431,75,5,1759.0247000000477,75,,,,1763.034100000143,1763.5249000000954,1762.5157000000477,1763.0337999999524,1760.0481000001432,1762.5155,1763.5249000000954,1764.025,1764.025,1765.717100000143,1367,1765.7172000000478,3,1765.7252000000476,5,1,151,3,1,1.4,0.3,Time
,,S16,803870,001,F,22,2025-06-04_22h15.36.515,Serial_Dependence_U,2023.2.3,Win32,60.24096385550618,,,,,,1765.7257000000477,248,5,1765.7257999999524,248,,,,1769.5155,1770.0079999999998,1769.0002999999524,1769.5152999999523,1766.7322000000477,1769.0002000000477,1770.0079999999998,1770.5082999999522,1770.5084000000952,1772.0344000000955,1233,1772.0344999999998,3,1772.0417000000475,5,2,152,12,1,1.2,0.3,Time
,,S16,803870,001,F,22,2025-06-04_22h15.36.515,Serial_Dependence_U,2023.2.3,Win32,60.24096385550618,,,,,,1772.0425,230,5,1772.0427999999524,230,,,,1775.433,1775.9242999999524,1774.915100000143,1775.4329000000953,1773.0487999999523,1774.915,1775.9242999999524,1776.4242999999524,1776.4245,1777.5819999999999,848,1777.5821000001429,4,1777.5887999999522,5,3,153,20,1,0.8,0.3,Time
,,S16,803870,001,F,22,2025-06-04_22h15.36.515,Serial_Dependence_U,2023.2.3,Win32,60.24096385550618,,,,,,1777.589100000143,146,5,1777.5892999999523,146,,,,1780.9487000000477,1781.4409000000956,1780.4329000000953,1780.948600000143,1778.5994999999998,1780.4327999999523,1781.4409999999998,1781.940100000143,1781.9402000000478,1783.5012000000474,1251,1783.5012999999522,5,1783.5092000000477,5,4,154,25,1,0.8,0.7,Time
,,S16,803870,001,F,22,2025-06-04_22h15.36.515,Serial_Dependence_U,2023.2.3,Win32,60.24096385550618,,,,,,1783.509600000143,177,5,1783.5097000000478,177,,,,1787.2662999999525,1787.757100000143,1786.748,1787.266100000143,1784.514299999952,1786.7479000000953,1787.757100000143,1788.2572000000478,1788.2572999999525,1790.2487000000478,1649,1790.248799999952,5,1790.2556000001432,5,5,155,7,1,1.2,0.7,Time
,,S16,803870,001,F,22,2025-06-04_22h15.36.515,Serial_Dependence_U,2023.2.3,Win32,60.24096385550618,,,,,,1790.2559999999999,199,5,1790.2562000000476,199,,,,1793.6080000000002,1794.1072999999524,1793.099299999952,1793.607600000143,1791.2666000001432,1793.0991000001432,1794.1074000000954,1794.607100000143,1794.6072999999524,1796.5990000000002,1351,1796.5991000001432,5,1796.6061000001432,5,6,156,5,1,0.8,0.7,Time
,,S16,803870,001,F,22,2025-06-04_22h15.36.515,Serial_Dependence_U,2023.2.3,Win32,60.24096385550618,,,,,,1796.6064000000952,261,5,1796.6066000001429,261,,,,1799.9991000001428,1800.4902000000475,1799.4812000000475,1799.9989999999998,1797.6139000000953,1799.4809999999998,1800.4902999999522,1800.9901000001432,1800.9902000000475,1802.5994999999998,1266,1802.5996000001428,5,1802.6064999999999,5,7,157,10,1,0.8,0.3,Time
,,S16,803870,001,F,22,2025-06-04_22h15.36.515,Serial_Dependence_U,2023.2.3,Win32,60.24096385550618,,,,,,1802.607,349,5,1802.6072000000477,349,,,,1806.3657000000476,1806.8567999999523,1805.8474999999999,1806.3656000001429,1803.6137000000476,1805.8472999999522,1806.8567999999523,1807.3554000000954,1807.3554000000954,1809.0322000000479,1333,1809.032299999952,4,1809.0391000001432,5,8,158,27,1,1.2,0.7,Time
,,S16,803870,001,F,22,2025-06-04_22h15.36.515,Serial_Dependence_U,2023.2.3,Win32,60.24096385550618,,,,,,1809.0394000000952,58,5,1809.0396000001429,58,,,,1812.9986000001431,1813.4894000000954,1812.4805000000001,1812.9985000000001,1810.0467000000476,1812.4802999999524,1813.4894000000954,1813.9889000000953,1813.989,1815.781100000143,1467,1815.7812000000476,3,1815.7882999999524,5,9,159,18,1,1.4,0.7,Time
,,S16,803870,001,F,22,2025-06-04_22h15.36.515,Serial_Dependence_U,2023.2.3,Win32,60.24096385550618,,,,,,1815.7887000000478,99,5,1815.788799999952,99,,,,1819.9802999999524,1820.4727999999523,1819.4652000000478,1819.9802000000477,1816.7982000000475,1819.4651000001431,1820.4727999999523,1820.9726000001428,1820.9727000000476,1822.5139000000954,1215,1822.5140000000001,2,1822.5207000000478,5,10,160,14,1,1.6,0.3,Time
,,S16,803870,001,F,22,2025-06-04_22h15.36.515,Serial_Dependence_U,2023.2.3,Win32,60.24096385550618,,,,,,1822.5210000000002,169,5,1822.5211000001432,169,,,,1826.0794999999998,1826.5724999999998,1825.5652000000478,1826.0792999999521,1823.5314000000953,1825.565100000143,1826.5726000001432,1827.0727000000475,1827.0727999999522,1829.2984999999999,1600,1829.2986000001429,5,1829.3055,5,11,161,16,1,1,0.7,Time
,,S16,803870,001,F,22,2025-06-04_22h15.36.515,Serial_Dependence_U,2023.2.3,Win32,60.24096385550618,,,,,,1829.3059000000953,354,5,1829.306,354,,,,1833.297799999952,1833.7882999999524,1832.7792999999524,1833.2976000001431,1830.3132000000478,1832.7792000000477,1833.7882999999524,1834.2885,1834.288600000143,1836.0799000000952,1433,1836.08,3,1836.0867000000476,5,12,162,23,1,1.4,0.3,Time
,,S16,803870,001,F,22,2025-06-04_22h15.36.515,Serial_Dependence_U,2023.2.3,Win32,60.24096385550618,,,,,,1836.087100000143,349,5,1836.0872000000477,349,,,,1840.2452000000476,1840.7407999999523,1839.7312000000475,1840.2451000001429,1837.0982000000477,1839.7309999999998,1840.7407999999523,1841.2387000000476,1841.2389000000953,1843.4982000000477,1967,1843.4982000000477,4,1843.506600000143,5,13,163,19,1,1.6,0.7,Time
,,S16,803870,001,F,22,2025-06-04_22h15.36.515,Serial_Dependence_U,2023.2.3,Win32,60.24096385550618,,,,,,1843.507,312,5,1843.507100000143,312,,,,1847.0972999999522,1847.5875,1846.5792999999521,1847.0971000001432,1844.512400000095,1846.5792000000474,1847.587600000143,1848.0884000000951,1848.0884999999998,1849.5137000000477,1115,1849.5137999999524,4,1849.5207000000478,5,14,164,1,1,1,0.3,Time
,,S16,803870,001,F,22,2025-06-04_22h15.36.515,Serial_Dependence_U,2023.2.3,Win32,60.24096385550618,,,,,,1849.5211000001432,320,5,1849.5212999999521,320,,,,1853.4797000000476,1853.971600000143,1852.964,1853.4795,1850.5307000000475,1852.9639000000952,1853.971600000143,1854.471600000143,1854.471799999952,1856.464600000143,1684,1856.464600000143,4,1856.4727999999523,5,15,165,8,1,1.4,0.7,Time
,,S16,803870,001,F,22,2025-06-04_22h15.36.515,Serial_Dependence_U,2023.2.3,Win32,60.24096385550618,,,,,,1856.473100000143,109,5,1856.4732999999524,109,,,,1860.0457999999521,1860.538100000143,1859.545,1860.0457000000474,1857.4784000000955,1859.5447999999524,1860.538100000143,1861.038,1861.038100000143,1862.8642000000477,1485,1862.8642999999524,5,1862.8727000000476,5,16,166,21,1,1,0.3,Time
,,S16,803870,001,F,22,2025-06-04_22h15.36.515,Serial_Dependence_U,2023.2.3,Win32,60.24096385550618,,,,,,1862.873,163,5,1862.873100000143,163,,,,1866.83,1867.321100000143,1866.312,1866.8299000000952,1863.879600000143,1866.3119000000952,1867.3212000000476,1867.821100000143,1867.821100000143,1869.4462000000476,1334,1869.4462999999523,3,1869.4535,5,17,167,28,1,1.4,0.7,Time
,,S16,803870,001,F,22,2025-06-04_22h15.36.515,Serial_Dependence_U,2023.2.3,Win32,60.24096385550618,,,,,,1869.4539000000955,232,5,1869.4540000000002,232,,,,1873.6446000001429,1874.137400000095,1873.130100000143,1873.6444999999999,1870.4632000000474,1873.1299000000954,1874.1374999999998,1874.6374999999998,1874.6376000001428,1876.730100000143,1500,1876.730100000143,2,1876.7382000000475,5,18,168,24,1,1.6,0.3,Time
,,S16,803870,001,F,22,2025-06-04_22h15.36.515,Serial_Dependence_U,2023.2.3,Win32,60.24096385550618,,,,,,1876.7387000000476,94,5,1876.7389000000953,94,,,,1880.5292999999524,1881.0204000000954,1880.0112999999524,1880.5292000000477,1877.7441000001431,1880.011100000143,1881.0205,1881.520600000143,1881.520600000143,1883.6295,1418,1883.629600000143,4,1883.6367000000478,5,19,169,2,1,1.2,0.3,Time
,,S16,803870,001,F,22,2025-06-04_22h15.36.515,Serial_Dependence_U,2023.2.3,Win32,60.24096385550618,,,,,,1883.6371000001432,21,5,1883.6372999999521,21,,,,1887.2292000000475,1887.7199999999998,1886.7107000000478,1887.2289999999998,1884.6432999999524,1886.7105000000001,1887.7201000001428,1888.2199999999998,1888.2201000001428,1889.962600000143,1218,1889.9627000000478,4,1889.9701000001428,5,20,170,11,1,1,0.3,Time
,,S16,803870,001,F,22,2025-06-04_22h15.36.515,Serial_Dependence_U,2023.2.3,Win32,60.24096385550618,,,,,,1889.9707000000476,115,5,1889.971,115,,,,1894.1292000000476,1894.6202000000476,1893.6109999999999,1894.129100000143,1890.9777000000477,1893.6109000000952,1894.6202000000476,1895.1197999999522,1895.1199000000952,1897.23,1811,1897.230100000143,4,1897.2376000001432,5,21,171,29,1,1.6,0.7,Time
,,S16,803870,001,F,22,2025-06-04_22h15.36.515,Serial_Dependence_U,2023.2.3,Win32,60.24096385550618,,,,,,1897.2379999999998,113,5,1897.2379999999998,113,,,,1900.9951000001429,1901.4865,1900.4772999999523,1900.9949000000952,1898.2439000000954,1900.4772000000476,1901.4865,1901.9865,1901.986600000143,1904.0445,1734,1904.0445,5,1904.0514000000953,5,22,172,17,1,1.2,0.7,Time
,,S16,803870,001,F,22,2025-06-04_22h15.36.515,Serial_Dependence_U,2023.2.3,Win32,60.24096385550618,,,,,,1904.0517000000477,343,5,1904.0517999999524,343,,,,1908.0436000001432,1908.5362999999525,1907.529,1908.0434000000955,1905.062100000143,1907.5289000000953,1908.5364000000955,1909.036100000143,1909.0362999999525,1911.2947999999524,1933,1911.2949000000954,5,1911.3024999999998,5,23,173,13,1,1.4,0.3,Time
,,S16,803870,001,F,22,2025-06-04_22h15.36.515,Serial_Dependence_U,2023.2.3,Win32,60.24096385550618,,,,,,1911.3029999999999,162,5,1911.3031000001429,162,,,,1914.6607999999524,1915.1525000000001,1914.1434000000954,1914.6607999999524,1912.3109000000954,1914.1432000000477,1915.1525000000001,1915.6526000001431,1915.6527000000478,1917.8954000000954,1918,1917.8954000000954,5,1917.903600000143,5,24,174,15,1,0.8,0.7,Time
,,S16,803870,001,F,22,2025-06-04_22h15.36.515,Serial_Dependence_U,2023.2.3,Win32,60.24096385550618,,,,,,1917.904100000143,10,5,1917.9042000000477,10,,,,1922.0609000000954,1922.5521000001431,1921.543299999952,1922.0607999999525,1918.9104000000953,1921.5432000000478,1922.5522000000478,1923.0524000000955,1923.0524999999998,1925.7437999999524,2133,1925.7440000000001,5,1925.7519000000952,5,25,175,9,1,1.6,0.7,Time
,,S16,803870,001,F,22,2025-06-04_22h15.36.515,Serial_Dependence_U,2023.2.3,Win32,60.24096385550618,,,,,,1925.7525,17,5,1925.7527000000478,17,,,,1929.1436000001431,1929.6352999999522,1928.628299999952,1929.1434000000954,1926.7589000000953,1928.6282000000479,1929.6354000000952,1930.1354999999999,1930.1354999999999,1931.1774999999998,767,1931.1776000001432,3,1931.1855,5,26,176,0,1,0.8,0.3,Time
,,S16,803870,001,F,22,2025-06-04_22h15.36.515,Serial_Dependence_U,2023.2.3,Win32,60.24096385550618,,,,,,1931.1859000000954,279,5,1931.1860000000001,279,,,,1934.7421000001432,1935.2352000000478,1934.2279000000954,1934.7419000000955,1932.194,1934.2277999999524,1935.2352000000478,1935.735299999952,1935.735299999952,1937.6951000001432,1651,1937.6952000000479,5,1937.7019999999998,5,27,177,26,1,1,0.7,Time
,,S16,803870,001,F,22,2025-06-04_22h15.36.515,Serial_Dependence_U,2023.2.3,Win32,60.24096385550618,,,,,,1937.7026000001429,134,5,1937.7029000000953,134,,,,1941.8936000001431,1942.3851000001432,1941.3761000001432,1941.8934000000954,1938.7086000001432,1941.3759999999997,1942.3852000000475,1942.8849999999998,1942.8851000001432,1944.3612000000476,1185,1944.3612999999523,2,1944.3689000000954,5,28,178,4,1,1.6,0.3,Time
,,S16,803870,001,F,22,2025-06-04_22h15.36.515,Serial_Dependence_U,2023.2.3,Win32,60.24096385550618,,,,,,1944.3696000001432,276,5,1944.3697000000475,276,,,,1948.160600000143,1948.6502999999525,1947.6417999999521,1948.1604000000953,1945.3752000000477,1947.6416000001432,1948.6502999999525,1949.1512000000475,1949.1512999999522,1950.8759999999997,1400,1950.8761000001432,4,1950.8829999999998,5,29,179,22,1,1.2,0.3,Time
,,S16,803870,001,F,22,2025-06-04_22h15.36.515,Serial_Dependence_U,2023.2.3,Win32,60.24096385550618,,,,,,1950.8832999999522,355,6,1996.5566000001431,355,s,45.644100000143226,,2000.7069999999999,2001.1996000001432,2000.1915,2000.7069000000952,1997.5589000000955,2000.1914000000952,2001.1996000001432,2001.6996000001432,2001.6997000000479,2003.7741000001429,1700,2003.7741000001429,4,2003.7807999999523,6,0,180,9,1,1.6,0.7,Time
,,S16,803870,001,F,22,2025-06-04_22h15.36.515,Serial_Dependence_U,2023.2.3,Win32,60.24096385550618,,,,,,2003.7812000000476,174,6,2003.7834000000953,174,,,,2007.1582000000476,2007.6489000000952,2006.6574999999998,2007.158100000143,2004.7914999999998,2006.657299999952,2007.6489000000952,2008.1492000000476,2008.1492000000476,2009.326,868,2009.326100000143,4,2009.3344000000952,6,1,181,20,1,0.8,0.3,Time
,,S16,803870,001,F,22,2025-06-04_22h15.36.515,Serial_Dependence_U,2023.2.3,Win32,60.24096385550618,,,,,,2009.3347999999523,238,6,2009.3349000000953,238,,,,2013.3242000000478,2013.8154000000955,2012.8066000001431,2013.324100000143,2010.3406000001428,2012.8064000000954,2013.8155000000002,2014.3155000000002,2014.3156000001431,2015.8402000000478,1233,2015.8402000000478,2,2015.8469999999998,6,2,182,23,1,1.4,0.3,Time
,,S16,803870,001,F,22,2025-06-04_22h15.36.515,Serial_Dependence_U,2023.2.3,Win32,60.24096385550618,,,,,,2015.8472999999522,314,6,2015.8474999999999,314,,,,2019.239100000143,2019.7314999999999,2018.7240000000002,2019.239,2016.8577000000478,2018.7239000000955,2019.7314999999999,2020.2324000000954,2020.2325,2021.440100000143,933,2021.4402000000478,4,2021.4469000000954,6,3,183,10,1,0.8,0.3,Time
,,S16,803870,001,F,22,2025-06-04_22h15.36.515,Serial_Dependence_U,2023.2.3,Win32,60.24096385550618,,,,,,2021.4472000000478,77,6,2021.4474000000955,77,,,,2025.4327999999523,2025.9319999999998,2024.9239000000953,2025.4326000001429,2022.4562000000478,2024.9237000000476,2025.9321000001432,2026.4321000001432,2026.4321000001432,2027.8736000001431,1049,2027.8737000000478,2,2027.880299999952,6,4,184,13,1,1.4,0.3,Time
,,S16,803870,001,F,22,2025-06-04_22h15.36.515,Serial_Dependence_U,2023.2.3,Win32,60.24096385550618,,,,,,2027.8807000000475,353,6,2027.8807999999522,353,,,,2031.6729000000955,2032.1655,2031.1574999999998,2031.672799999952,2028.8905,2031.1574000000955,2032.1655,2032.665100000143,2032.665100000143,2034.3907999999524,1352,2034.3909000000954,4,2034.3975,6,5,185,12,1,1.2,0.3,Time
,,S16,803870,001,F,22,2025-06-04_22h15.36.515,Serial_Dependence_U,2023.2.3,Win32,60.24096385550618,,,,,,2034.3979000000954,230,6,2034.3981000001431,230,,,,2037.9571000001429,2038.4479000000952,2037.4391000001428,2037.9569000000952,2035.4057000000475,2037.4389000000951,2038.4479999999999,2038.9482000000476,2038.9482000000476,2040.523299999952,1199,2040.5234000000955,4,2040.531,6,6,186,6,1,1,0.7,Time
,,S16,803870,001,F,22,2025-06-04_22h15.36.515,Serial_Dependence_U,2023.2.3,Win32,60.24096385550618,,,,,,2040.5314000000953,280,6,2040.531600000143,280,,,,2044.123100000143,2044.6147000000478,2043.605600000143,2044.123,2041.5385,2043.6054000000954,2044.614799999952,2045.1147000000478,2045.1147000000478,2046.2387999999523,882,2046.2389000000953,2,2046.245600000143,6,7,187,1,1,1,0.3,Time
,,S16,803870,001,F,22,2025-06-04_22h15.36.515,Serial_Dependence_U,2023.2.3,Win32,60.24096385550618,,,,,,2046.2459000000954,207,6,2046.246,207,,,,2049.637799999952,2050.1304999999998,2049.1227000000476,2049.6377000000475,2047.2569000000954,2049.1227000000476,2050.130600000143,2050.6304999999998,2050.6304999999998,2052.205600000143,1214,2052.205600000143,5,2052.2122999999524,6,8,188,0,1,0.8,0.3,Time
,,S16,803870,001,F,22,2025-06-04_22h15.36.515,Serial_Dependence_U,2023.2.3,Win32,60.24096385550618,,,,,,2052.212700000048,324,6,2052.2127999999525,324,,,,2055.5717000000477,2056.0642000000475,2055.0562999999524,2055.571600000143,2053.2225,2055.0562999999524,2056.0642999999523,2056.563799999952,2056.563900000095,2058.1382999999523,1199,2058.1382999999523,5,2058.145100000143,6,9,189,15,1,0.8,0.7,Time
,,S16,803870,001,F,22,2025-06-04_22h15.36.515,Serial_Dependence_U,2023.2.3,Win32,60.24096385550618,,,,,,2058.1454000000954,80,6,2058.1455,80,,,,2062.337,2062.8297999999522,2061.8227000000475,2062.3369000000953,2059.156600000143,2061.822600000143,2062.8297999999522,2063.3307000000477,2063.3307999999524,2064.99,1251,2064.99,2,2064.998100000143,6,10,190,4,1,1.6,0.3,Time
,,S16,803870,001,F,22,2025-06-04_22h15.36.515,Serial_Dependence_U,2023.2.3,Win32,60.24096385550618,,,,,,2064.998799999952,260,6,2064.999,260,,,,2068.537299999952,2069.0305,2068.036100000143,2068.537299999952,2066.0045,2068.036,2069.030600000143,2069.5309000000952,2069.531,2071.1902000000478,1368,2071.1904000000955,5,2071.198100000143,6,11,191,16,1,1,0.7,Time
,,S16,803870,001,F,22,2025-06-04_22h15.36.515,Serial_Dependence_U,2023.2.3,Win32,60.24096385550618,,,,,,2071.198600000143,306,6,2071.1987000000477,306,,,,2074.9889000000953,2075.48,2074.4709000000953,2074.9887999999523,2072.204100000143,2074.4707000000476,2075.48,2075.9797000000476,2075.9797999999523,2076.639299999952,268,2076.6394999999998,1,2076.6465,6,12,192,22,1,1.2,0.3,Time
,,S16,803870,001,F,22,2025-06-04_22h15.36.515,Serial_Dependence_U,2023.2.3,Win32,60.24096385550618,,,,,,2076.6469000000952,11,6,2076.647100000143,11,,,,2080.2367000000477,2080.7295,2079.721700000048,2080.2365,2077.655600000143,2079.7215,2080.7295,2081.2297999999523,2081.23,2082.99,1219,2082.9901000001432,4,2082.998,6,13,193,21,1,1,0.3,Time
,,S16,803870,001,F,22,2025-06-04_22h15.36.515,Serial_Dependence_U,2023.2.3,Win32,60.24096385550618,,,,,,2082.9984000000954,119,6,2082.998600000143,119,,,,2087.155400000095,2087.646299999952,2086.636600000143,2087.1552000000474,2084.0034000000956,2086.6364000000954,2087.646299999952,2088.146299999952,2088.146299999952,2090.1712000000475,1516,2090.171299999952,2,2090.1784000000953,6,14,194,29,1,1.6,0.7,Time
,,S16,803870,001,F,22,2025-06-04_22h15.36.515,Serial_Dependence_U,2023.2.3,Win32,60.24096385550618,,,,,,2090.1787999999524,14,6,2090.1789000000954,14,,,,2094.137200000048,2094.6294000000953,2093.6214999999997,2094.137100000143,2091.188200000048,2093.6212999999525,2094.6294000000953,2095.1294000000953,2095.129600000143,2097.0222000000476,1318,2097.0222999999523,2,2097.0294000000954,6,15,195,28,1,1.4,0.7,Time
,,S16,803870,001,F,22,2025-06-04_22h15.36.515,Serial_Dependence_U,2023.2.3,Win32,60.24096385550618,,,,,,2097.030100000143,91,6,2097.0302000000474,91,,,,2100.788100000143,2101.2789000000953,2100.27,2100.7879000000953,2098.0365,2100.2699000000953,2101.2789000000953,2101.7792000000477,2101.7794000000954,2103.922,1518,2103.9222000000477,4,2103.9294000000955,6,16,196,27,1,1.2,0.7,Time
,,S16,803870,001,F,22,2025-06-04_22h15.36.515,Serial_Dependence_U,2023.2.3,Win32,60.24096385550618,,,,,,2103.930100000143,263,6,2103.9302999999522,263,,,,2107.719799999952,2108.2115,2107.2032000000477,2107.719700000048,2104.9365,2107.203100000143,2108.2115,2108.7122999999524,2108.7124000000954,2110.7022000000475,966,2110.702299999952,2,2110.708900000095,6,17,197,2,1,1.2,0.3,Time
,,S16,803870,001,F,22,2025-06-04_22h15.36.515,Serial_Dependence_U,2023.2.3,Win32,60.24096385550618,,,,,,2110.7092999999522,1,6,2110.7094000000952,1,,,,2114.4692000000477,2114.962100000143,2113.9542000000474,2114.469100000143,2111.721100000143,2113.954100000143,2114.962100000143,2115.462,2115.462100000143,2118.3214000000953,1334,2118.3215,4,2118.3289000000955,6,18,198,17,1,1.2,0.7,Time
,,S16,803870,001,F,22,2025-06-04_22h15.36.515,Serial_Dependence_U,2023.2.3,Win32,60.24096385550618,,,,,,2118.3297999999522,132,6,2118.33,132,,,,2122.512600000143,2123.0114000000954,2122.002600000143,2122.512400000095,2119.3362000000475,2122.0024000000953,2123.0115,2123.511600000143,2123.511600000143,2125.5957999999523,1402,2125.5959000000953,2,2125.6034000000955,6,19,199,14,1,1.6,0.3,Time
,,S16,803870,001,F,22,2025-06-04_22h15.36.515,Serial_Dependence_U,2023.2.3,Win32,60.24096385550618,,,,,,2125.603700000048,343,6,2125.603900000095,343,,,,2128.9462999999523,2129.4447999999525,2128.429600000143,2128.946100000143,2126.5964000000954,2128.4292999999525,2129.4449000000955,2129.945,2129.945100000143,2131.5782999999524,1255,2131.5784000000954,5,2131.5855,6,20,200,25,1,0.8,0.7,Time
,,S16,803870,001,F,22,2025-06-04_22h15.36.515,Serial_Dependence_U,2023.2.3,Win32,60.24096385550618,,,,,,2131.585799999952,24,6,2131.586,24,,,,2135.162100000143,2135.661100000143,2134.646,2135.161900000095,2132.5792000000474,2134.6459000000955,2135.6612000000478,2136.1612999999525,2136.1614000000955,2137.8289000000955,1320,2137.8289000000955,5,2137.836299999952,6,21,201,11,1,1,0.3,Time
,,S16,803870,001,F,22,2025-06-04_22h15.36.515,Serial_Dependence_U,2023.2.3,Win32,60.24096385550618,,,,,,2137.836600000143,201,6,2137.8367999999523,201,,,,2141.5624000000953,2142.061100000143,2141.0614000000955,2141.5622999999523,2138.829100000143,2141.061200000048,2142.061100000143,2142.5609000000954,2142.561100000143,2144.495600000143,1517,2144.495600000143,4,2144.5027000000478,6,22,202,7,1,1.2,0.7,Time
,,S16,803870,001,F,22,2025-06-04_22h15.36.515,Serial_Dependence_U,2023.2.3,Win32,60.24096385550618,,,,,,2144.503,323,6,2144.503100000143,323,,,,2148.045799999952,2148.543900000095,2147.5285,2148.045600000143,2145.4957000000477,2147.528299999952,2148.544,2149.043900000095,2149.044,2150.828700000048,1418,2150.8287999999525,5,2150.8362000000475,6,23,203,26,1,1,0.7,Time
,,S16,803870,001,F,22,2025-06-04_22h15.36.515,Serial_Dependence_U,2023.2.3,Win32,60.24096385550618,,,,,,2150.836600000143,55,6,2150.836600000143,55,,,,2154.778400000095,2155.2772000000477,2154.2607999999523,2154.778299999952,2151.828700000048,2154.2607000000476,2155.2772000000477,2155.776,2155.776100000143,2158.2102999999524,1887,2158.2104000000954,5,2158.217600000143,6,24,204,8,1,1.4,0.7,Time
,,S16,803870,001,F,22,2025-06-04_22h15.36.515,Serial_Dependence_U,2023.2.3,Win32,60.24096385550618,,,,,,2158.217900000095,8,6,2158.218,8,,,,2162.3952999999524,2162.8935,2161.8777999999525,2162.3952000000477,2159.2117999999523,2161.877600000143,2162.893600000143,2163.3935,2163.393600000143,2165.4267000000477,1623,2165.4267000000477,3,2165.4337999999525,6,25,205,24,1,1.6,0.3,Time
,,S16,803870,001,F,22,2025-06-04_22h15.36.515,Serial_Dependence_U,2023.2.3,Win32,60.24096385550618,,,,,,2165.4342000000474,31,6,2165.434299999952,31,,,,2169.3777999999525,2169.8767999999523,2168.860900000095,2169.377600000143,2166.4276000001432,2168.860799999952,2169.8769000000952,2170.3765,2170.376600000143,2172.3114000000955,1607,2172.311600000143,4,2172.3189000000953,6,26,206,18,1,1.4,0.7,Time
,,S16,803870,001,F,22,2025-06-04_22h15.36.515,Serial_Dependence_U,2023.2.3,Win32,60.24096385550618,,,,,,2172.3192000000477,140,6,2172.3194000000954,140,,,,2176.294600000143,2176.7929000000954,2175.7779000000955,2176.2945,2173.311100000143,2175.777700000048,2176.7929000000954,2177.2929000000954,2177.2929000000954,2179.476100000143,1435,2179.476200000048,3,2179.4835,6,27,207,3,1,1.4,0.3,Time
,,S16,803870,001,F,22,2025-06-04_22h15.36.515,Serial_Dependence_U,2023.2.3,Win32,60.24096385550618,,,,,,2179.483900000095,99,6,2179.483900000095,99,,,,2183.6277000000478,2184.126100000143,2183.110799999952,2183.6275,2180.477600000143,2183.1107000000475,2184.1262000000474,2184.6262000000474,2184.626299999952,2186.6267999999523,1635,2186.6267999999523,3,2186.634100000143,6,28,208,19,1,1.6,0.7,Time
,,S16,803870,001,F,22,2025-06-04_22h15.36.515,Serial_Dependence_U,2023.2.3,Win32,60.24096385550618,,,,,,2186.6345,105,6,2186.634600000143,105,,,,2189.977,2190.475600000143,2189.460700000048,2189.976900000095,2187.6269000000952,2189.460600000143,2190.475600000143,2190.976,2190.976100000143,2192.3265,996,2192.326700000048,4,2192.333799999952,6,29,209,5,1,0.8,0.7,Time
,,S16,803870,001,F,22,2025-06-04_22h15.36.515,Serial_Dependence_U,2023.2.3,Win32,60.24096385550618,,,,,,2192.334100000143,312,7,2203.282799999952,312,s,10.927300000190826,,2206.6267000000475,2207.125100000143,2206.11,2206.6265,2204.2764000000952,2206.1097999999524,2207.125100000143,2207.6252999999524,2207.6254000000954,2209.275200000048,1315,2209.2752999999525,5,2209.282200000048,7,0,210,25,1,0.8,0.7,Time
,,S16,803870,001,F,22,2025-06-04_22h15.36.515,Serial_Dependence_U,2023.2.3,Win32,60.24096385550618,,,,,,2209.282600000143,9,7,2209.284299999952,9,,,,2213.2592000000477,2213.7582000000475,2212.7432999999523,2213.259100000143,2210.2765,2212.743,2213.758299999952,2214.2585,2214.2585,2215.8759999999997,1296,2215.876100000143,2,2215.883600000143,7,1,211,13,1,1.4,0.3,Time
,,S16,803870,001,F,22,2025-06-04_22h15.36.515,Serial_Dependence_U,2023.2.3,Win32,60.24096385550618,,,,,,2215.8839000000953,156,7,2215.884100000143,156,,,,2220.0762999999524,2220.574900000095,2219.559299999952,2220.076100000143,2216.891600000143,2219.559100000143,2220.574900000095,2221.074799999952,2221.074900000095,2222.9085,1548,2222.9087000000477,3,2222.9159000000955,7,2,212,24,1,1.6,0.3,Time
,,S16,803870,001,F,22,2025-06-04_22h15.36.515,Serial_Dependence_U,2023.2.3,Win32,60.24096385550618,,,,,,2222.916299999952,86,7,2222.916400000095,86,,,,2226.658600000143,2227.1577000000475,2226.1422999999522,2226.6585,2223.9094999999998,2226.142100000143,2227.157799999952,2227.6575,2227.657600000143,2229.0924999999997,1167,2229.0927000000474,3,2229.0997000000475,7,3,213,27,1,1.2,0.7,Time
,,S16,803870,001,F,22,2025-06-04_22h15.36.515,Serial_Dependence_U,2023.2.3,Win32,60.24096385550618,,,,,,2229.1,163,7,2229.100100000143,163,,,,2232.8745,2233.374100000143,2232.359100000143,2232.874400000095,2230.0919000000954,2232.359,2233.374100000143,2233.874100000143,2233.8742000000475,2235.3579000000955,1121,2235.358,2,2235.3652000000475,7,4,214,2,1,1.2,0.3,Time
,,S16,803870,001,F,22,2025-06-04_22h15.36.515,Serial_Dependence_U,2023.2.3,Win32,60.24096385550618,,,,,,2235.3655,294,7,2235.365600000143,294,,,,2239.342100000143,2239.8407000000475,2238.825299999952,2239.3419000000954,2236.3587000000475,2238.8252000000475,2239.840799999952,2240.340600000143,2240.3407000000475,2242.2582000000475,1317,2242.2582000000475,2,2242.265600000143,7,5,215,23,1,1.4,0.3,Time
,,S16,803870,001,F,22,2025-06-04_22h15.36.515,Serial_Dependence_U,2023.2.3,Win32,60.24096385550618,,,,,,2242.2659000000954,32,7,2242.266100000143,32,,,,2246.0075,2246.5069000000954,2245.491600000143,2246.0072999999525,2243.2582000000475,2245.4914000000954,2246.5069000000954,2247.0062000000476,2247.0062999999523,2248.691299999952,1301,2248.691400000095,4,2248.698600000143,7,6,216,7,1,1.2,0.7,Time
,,S16,803870,001,F,22,2025-06-04_22h15.36.515,Serial_Dependence_U,2023.2.3,Win32,60.24096385550618,,,,,,2248.6987999999524,75,7,2248.6989000000954,75,,,,2252.641600000143,2253.1404000000953,2252.1249000000953,2252.6414000000955,2249.691400000095,2252.1247999999523,2253.1404000000953,2253.640600000143,2253.6407000000477,2255.3907999999524,1435,2255.3909000000954,3,2255.398299999952,7,7,217,18,1,1.4,0.7,Time
,,S16,803870,001,F,22,2025-06-04_22h15.36.515,Serial_Dependence_U,2023.2.3,Win32,60.24096385550618,,,,,,2255.3986000001432,322,7,2255.3987000000475,322,,,,2259.157600000143,2259.6567000000477,2258.641200000048,2259.1575,2256.408,2258.641100000143,2259.6569000000954,2260.1567000000477,2260.1567000000477,2261.6574000000955,1145,2261.6575,3,2261.6647999999523,7,8,218,17,1,1.2,0.7,Time
,,S16,803870,001,F,22,2025-06-04_22h15.36.515,Serial_Dependence_U,2023.2.3,Win32,60.24096385550618,,,,,,2261.6652999999524,93,7,2261.6654000000954,93,,,,2265.2077999999524,2265.7064000000955,2264.6909000000956,2265.207600000143,2262.657799999952,2264.690799999952,2265.7065,2266.2067000000475,2266.206799999952,2268.0577000000476,1334,2268.0577999999523,5,2268.0649000000953,7,9,219,16,1,1,0.7,Time
,,S16,803870,001,F,22,2025-06-04_22h15.36.515,Serial_Dependence_U,2023.2.3,Win32,60.24096385550618,,,,,,2268.0652000000478,278,7,2268.0652999999525,278,,,,2271.840600000143,2272.3395,2271.324100000143,2271.8405,2269.0579000000953,2271.324,2272.339600000143,2272.8394000000953,2272.8394000000953,2274.4909000000953,1221,2274.491,3,2274.4982999999525,7,10,220,22,1,1.2,0.3,Time
,,S16,803870,001,F,22,2025-06-04_22h15.36.515,Serial_Dependence_U,2023.2.3,Win32,60.24096385550618,,,,,,2274.498700000048,244,7,2274.498799999952,244,,,,2278.674,2279.1724000000954,2278.157,2278.6739000000953,2275.4909000000953,2278.1567999999525,2279.172600000143,2279.672700000048,2279.6729000000955,2281.2722000000476,1235,2281.2722999999523,2,2281.279600000143,7,11,221,4,1,1.6,0.3,Time
,,S16,803870,001,F,22,2025-06-04_22h15.36.515,Serial_Dependence_U,2023.2.3,Win32,60.24096385550618,,,,,,2281.2799000000955,250,7,2281.2799999999997,250,,,,2284.6569000000954,2285.155600000143,2284.1402999999523,2284.6567999999525,2282.2724000000953,2284.1402000000476,2285.1557000000475,2285.655400000095,2285.6555,2287.022600000143,1039,2287.0227000000477,4,2287.0297999999525,7,12,222,20,1,0.8,0.3,Time
,,S16,803870,001,F,22,2025-06-04_22h15.36.515,Serial_Dependence_U,2023.2.3,Win32,60.24096385550618,,,,,,2287.0302000000474,181,7,2287.030299999952,181,,,,2290.5737999999524,2291.0719000000954,2290.057,2290.573600000143,2288.023900000095,2290.0569000000955,2291.072,2291.572200000048,2291.5724000000955,2293.505900000095,1270,2293.506,4,2293.512900000095,7,13,223,26,1,1,0.7,Time
,,S16,803870,001,F,22,2025-06-04_22h15.36.515,Serial_Dependence_U,2023.2.3,Win32,60.24096385550618,,,,,,2293.5132999999523,343,7,2293.5134000000953,343,,,,2296.856100000143,2297.3552999999524,2296.340299999952,2296.8559000000955,2294.5067999999524,2296.340100000143,2297.3554000000954,2297.8552000000477,2297.8552999999524,2299.889600000143,1617,2299.8897000000475,5,2299.8972000000476,7,14,224,15,1,0.8,0.7,Time
,,S16,803870,001,F,22,2025-06-04_22h15.36.515,Serial_Dependence_U,2023.2.3,Win32,60.24096385550618,,,,,,2299.8975,296,7,2299.8977000000477,296,,,,2303.672600000143,2304.1717000000476,2303.1559000000952,2303.6725,2300.8894000000955,2303.1557999999523,2304.1717999999523,2304.6717000000476,2304.6717000000476,2306.6227999999523,1517,2306.623,4,2306.630100000143,7,15,225,12,1,1.2,0.3,Time
,,S16,803870,001,F,22,2025-06-04_22h15.36.515,Serial_Dependence_U,2023.2.3,Win32,60.24096385550618,,,,,,2306.6304999999998,52,7,2306.630600000143,52,,,,2310.7727999999524,2311.272,2310.256100000143,2310.7727000000477,2307.6224000000952,2310.255900000095,2311.272100000143,2311.771400000095,2311.771400000095,2313.737799999952,1639,2313.737900000095,3,2313.7452999999523,7,16,226,19,1,1.6,0.7,Time
,,S16,803870,001,F,22,2025-06-04_22h15.36.515,Serial_Dependence_U,2023.2.3,Win32,60.24096385550618,,,,,,2313.745600000143,35,7,2313.7457000000477,35,,,,2317.321100000143,2317.8212000000476,2316.8062999999524,2317.320900000095,2314.7392999999524,2316.8062000000477,2317.8212000000476,2318.3212000000476,2318.3212000000476,2320.0217999999522,1369,2320.0219000000952,5,2320.0292999999524,7,17,227,1,1,1,0.3,Time
,,S16,803870,001,F,22,2025-06-04_22h15.36.515,Serial_Dependence_U,2023.2.3,Win32,60.24096385550618,,,,,,2320.029600000143,102,7,2320.029700000048,102,,,,2323.5892000000476,2324.087700000048,2323.0882000000474,2323.589100000143,2321.0225,2323.0879999999997,2324.087700000048,2324.5875,2324.5875,2326.3054000000952,1383,2326.3055,5,2326.3127999999524,7,18,228,21,1,1,0.3,Time
,,S16,803870,001,F,22,2025-06-04_22h15.36.515,Serial_Dependence_U,2023.2.3,Win32,60.24096385550618,,,,,,2326.313200000048,324,7,2326.313200000048,324,,,,2330.287299999952,2330.7872000000475,2329.7725,2330.2872000000475,2327.3054000000952,2329.7722999999523,2330.787299999952,2331.287299999952,2331.287400000095,2333.3377999999525,1682,2333.3379000000955,4,2333.345,7,19,229,3,1,1.4,0.3,Time
,,S16,803870,001,F,22,2025-06-04_22h15.36.515,Serial_Dependence_U,2023.2.3,Win32,60.24096385550618,,,,,,2333.345299999952,192,7,2333.345400000095,192,,,,2336.7382999999522,2337.237,2336.221799999952,2336.738100000143,2334.353900000095,2336.221700000048,2337.237,2337.737,2337.737100000143,2339.3217000000477,1080,2339.3217999999524,5,2339.329100000143,7,20,230,0,1,0.8,0.3,Time
,,S16,803870,001,F,22,2025-06-04_22h15.36.515,Serial_Dependence_U,2023.2.3,Win32,60.24096385550618,,,,,,2339.3295,282,7,2339.3295,282,,,,2343.505100000143,2344.003600000143,2342.987799999952,2343.5049000000954,2340.3219000000954,2342.9877000000474,2344.0037000000475,2344.503299999952,2344.5034000000956,2346.4212000000475,1566,2346.421400000095,3,2346.4287999999524,7,21,231,14,1,1.6,0.3,Time
,,S16,803870,001,F,22,2025-06-04_22h15.36.515,Serial_Dependence_U,2023.2.3,Win32,60.24096385550618,,,,,,2346.429100000143,3,7,2346.429200000048,3,,,,2349.9875,2350.4862000000476,2349.471700000048,2349.9872999999525,2347.436900000095,2349.471600000143,2350.4862000000476,2350.986600000143,2350.9867000000477,2352.786900000095,1480,2352.787,5,2352.7942999999523,7,22,232,6,1,1,0.7,Time
,,S16,803870,001,F,22,2025-06-04_22h15.36.515,Serial_Dependence_U,2023.2.3,Win32,60.24096385550618,,,,,,2352.7947000000477,203,7,2352.7947999999524,203,,,,2356.938100000143,2357.4364000000955,2356.4212000000475,2356.9377999999524,2353.786900000095,2356.421,2357.4364000000955,2357.9364000000955,2357.9365,2360.036600000143,1779,2360.036700000048,4,2360.043799999952,7,23,233,29,1,1.6,0.7,Time
,,S16,803870,001,F,22,2025-06-04_22h15.36.515,Serial_Dependence_U,2023.2.3,Win32,60.24096385550618,,,,,,2360.0442000000476,142,7,2360.0442000000476,142,,,,2363.4212000000475,2363.9194000000953,2362.9042000000477,2363.420900000095,2361.0375,2362.904100000143,2363.9194000000953,2364.4192999999523,2364.4194000000953,2366.3869000000955,1612,2366.387100000143,5,2366.3942000000475,7,24,234,10,1,0.8,0.3,Time
,,S16,803870,001,F,22,2025-06-04_22h15.36.515,Serial_Dependence_U,2023.2.3,Win32,60.24096385550618,,,,,,2366.3945,273,7,2366.394600000143,273,,,,2370.3372999999524,2370.8359000000955,2369.821,2370.337100000143,2367.387600000143,2369.820900000095,2370.836,2371.336,2371.336,2373.470299999952,1566,2373.470400000095,4,2373.4772999999523,7,25,235,8,1,1.4,0.7,Time
,,S16,803870,001,F,22,2025-06-04_22h15.36.515,Serial_Dependence_U,2023.2.3,Win32,60.24096385550618,,,,,,2373.477600000143,321,7,2373.4777000000477,321,,,,2376.820600000143,2377.3187999999523,2376.3039000000954,2376.820400000095,2374.470400000095,2376.3037000000477,2377.3187999999523,2377.818600000143,2377.8187000000476,2379.8025,1482,2379.8026000001432,5,2379.8097999999522,7,26,236,5,1,0.8,0.7,Time
,,S16,803870,001,F,22,2025-06-04_22h15.36.515,Serial_Dependence_U,2023.2.3,Win32,60.24096385550618,,,,,,2379.81,306,7,2379.8102000000476,306,,,,2383.953,2384.4519000000955,2383.436799999952,2383.9529000000953,2380.8034000000953,2383.436600000143,2384.4519999999998,2384.9519999999998,2384.9519999999998,2387.402600000143,2069,2387.402799999952,4,2387.409900000095,7,27,237,9,1,1.6,0.7,Time
,,S16,803870,001,F,22,2025-06-04_22h15.36.515,Serial_Dependence_U,2023.2.3,Win32,60.24096385550618,,,,,,2387.4102000000476,344,7,2387.4102999999523,344,,,,2390.9869000000954,2391.485100000143,2390.4699000000955,2390.9867999999524,2388.403100000143,2390.469799999952,2391.485100000143,2391.9847999999524,2391.9849000000954,2393.786100000143,1330,2393.786100000143,5,2393.793200000048,7,28,238,11,1,1,0.3,Time
,,S16,803870,001,F,22,2025-06-04_22h15.36.515,Serial_Dependence_U,2023.2.3,Win32,60.24096385550618,,,,,,2393.7934999999998,189,7,2393.793600000143,189,,,,2397.7362000000476,2398.235,2397.219700000048,2397.736100000143,2394.7865,2397.2195,2398.235,2398.7349000000954,2398.7349000000954,2400.535600000143,1298,2400.535600000143,2,2400.5427999999524,7,29,239,28,1,1.4,0.7,Time
,,S16,803870,001,F,22,2025-06-04_22h15.36.515,Serial_Dependence_U,2023.2.3,Win32,60.24096385550618,,,,,,2400.543100000143,201,8,2548.403,201,s,147.83349999999973,,2552.580100000143,2553.079,2552.063900000095,2552.58,2549.3974000000953,2552.0637000000474,2553.079100000143,2553.5792000000474,2553.5792000000474,2555.646600000143,1634,2555.646600000143,3,2555.6537000000476,8,0,240,14,1,1.6,0.3,Time
,,S16,803870,001,F,22,2025-06-04_22h15.36.515,Serial_Dependence_U,2023.2.3,Win32,60.24096385550618,,,,,,2555.654,322,8,2555.655600000143,322,,,,2559.6304999999998,2560.129,2559.1132999999522,2559.630299999952,2556.647100000143,2559.113100000143,2560.129100000143,2560.628900000095,2560.629,2562.6132999999522,1577,2562.6132999999522,4,2562.620600000143,8,1,241,13,1,1.4,0.3,Time
,,S16,803870,001,F,22,2025-06-04_22h15.36.515,Serial_Dependence_U,2023.2.3,Win32,60.24096385550618,,,,,,2562.6209000000954,220,8,2562.621100000143,220,,,,2566.3625,2566.8617999999524,2565.8457999999523,2566.3624000000955,2563.613600000143,2565.845600000143,2566.8619000000954,2567.362100000143,2567.362100000143,2568.9462999999523,1231,2568.9464000000953,3,2568.9534000000954,8,2,242,7,1,1.2,0.7,Time
,,S16,803870,001,F,22,2025-06-04_22h15.36.515,Serial_Dependence_U,2023.2.3,Win32,60.24096385550618,,,,,,2568.953700000048,283,8,2568.9537999999525,283,,,,2572.5297999999525,2573.028400000095,2572.0132000000476,2572.529700000048,2569.9467999999524,2572.013,2573.0285,2573.5282000000475,2573.528400000095,2574.7124000000954,852,2574.7125,2,2574.719600000143,8,3,243,11,1,1,0.3,Time
,,S16,803870,001,F,22,2025-06-04_22h15.36.515,Serial_Dependence_U,2023.2.3,Win32,60.24096385550618,,,,,,2574.72,26,8,2574.72,26,,,,2578.496200000048,2578.9947000000475,2577.979100000143,2578.496100000143,2575.713100000143,2577.979,2578.994799999952,2579.495100000143,2579.495100000143,2581.2457999999524,1398,2581.2459000000954,4,2581.253100000143,8,4,244,12,1,1.2,0.3,Time
,,S16,803870,001,F,22,2025-06-04_22h15.36.515,Serial_Dependence_U,2023.2.3,Win32,60.24096385550618,,,,,,2581.2534000000956,286,8,2581.2535,286,,,,2585.196100000143,2585.6947999999525,2584.679799999952,2585.195900000095,2582.2462999999525,2584.679600000143,2585.6947999999525,2586.194600000143,2586.194600000143,2588.0955,1600,2588.095600000143,4,2588.1027000000477,8,5,245,18,1,1.4,0.7,Time
,,S16,803870,001,F,22,2025-06-04_22h15.36.515,Serial_Dependence_U,2023.2.3,Win32,60.24096385550618,,,,,,2588.103,233,8,2588.103,233,,,,2592.0789000000955,2592.577400000095,2591.5627000000477,2592.0787999999525,2589.0959000000953,2591.5625,2592.5775,2593.077600000143,2593.077600000143,2594.995600000143,1395,2594.9957999999524,3,2595.0027999999525,8,6,246,3,1,1.4,0.3,Time
,,S16,803870,001,F,22,2025-06-04_22h15.36.515,Serial_Dependence_U,2023.2.3,Win32,60.24096385550618,,,,,,2595.003100000143,347,8,2595.003299999952,347,,,,2598.3444000000954,2598.844,2597.8287999999525,2598.3442999999525,2595.9957000000477,2597.828600000143,2598.844100000143,2599.343600000143,2599.3437000000476,2600.844700000048,1183,2600.8449000000955,5,2600.852100000143,8,7,247,25,1,0.8,0.7,Time
,,S16,803870,001,F,22,2025-06-04_22h15.36.515,Serial_Dependence_U,2023.2.3,Win32,60.24096385550618,,,,,,2600.8524000000953,286,8,2600.8525,286,,,,2604.8287999999525,2605.327299999952,2604.312,2604.828600000143,2601.8452000000475,2604.311799999952,2605.327400000095,2605.8272000000475,2605.827299999952,2607.0272000000477,914,2607.0272999999524,1,2607.034600000143,8,8,248,23,1,1.4,0.3,Time
,,S16,803870,001,F,22,2025-06-04_22h15.36.515,Serial_Dependence_U,2023.2.3,Win32,60.24096385550618,,,,,,2607.035,251,8,2607.0352000000476,251,,,,2610.9785,2611.477100000143,2610.4619000000953,2610.9784000000955,2608.0282000000475,2610.4617000000476,2611.4772000000476,2611.976799999952,2611.976900000095,2613.677299999952,1366,2613.6774000000955,3,2613.684400000095,8,9,249,28,1,1.4,0.7,Time
