Scale_setup.started,Scale_setup.stopped,participant,session,sex,age,date,expName,psychopyVersion,OS,frameRate,screen_scale_keys.started,screen_scale_keys.stopped,X Scale,Y Scale,rectangel_keys.started,rectangel_keys.stopped,Intro.started,Intro.stopped,key_resp_2.keys,key_resp_2.rt,key_resp_2.duration,block.started,Block_id,block.stopped,Block_resp_2.keys,Block_resp_2.rt,Block_resp_2.duration,ITI.started,ITI.stopped,Mask_2.started,Mask_2.stopped,M2.started,direction,M2.stopped,Cue.started,Cue.stopped,Response.started,Response.stopped,keyDuration,Feedback_Time.started,FeedbackID_T,Feedback_Time.stopped,trials.thisRepN,trials.thisTrialN,trials.thisN,trials.thisIndex,trials.ran,TimeDur,Coherence1,TrialType
0.0005,0.0009,S17,1,Female,36,anonymized,Serial_Dependence_U,2023.2.3,Win32,59.52380952,,,,,,,,,,,,,,,,,,,,,,,,,,,,,,,,,,,,,,,,
,,S17,1,Female,36,anonymized,Serial_Dependence_U,2023.2.3,Win32,59.52380952,0.0047,29.9599,0.0659,0.0578,29.9601,32.8735,32.8739,47.4062,space,14.4931,,,,,,,,,,,,,,,,,,,,,,,,,,,,,,
,,S17,1,Female,36,anonymized,Serial_Dependence_U,2023.2.3,Win32,59.52380952,,,,,,,,,,,,47.4166,0.0,50.6727,s,3.2311,,53.6223,54.1214,53.1063,53.622,51.6904,325.0,53.1059,54.1216,54.6216,54.622,60.6395,9999.0,60.6412,0.0,61.6394,0.0,0.0,0.0,28.0,1.0,1.4,0.7,Time
,,S17,1,Female,36,anonymized,Serial_Dependence_U,2023.2.3,Win32,59.52380952,,,,,,,,,,,,61.6417,0.0,61.6464,,,,64.591,65.0888,64.072,64.5906,62.6576,311.0,64.0717,65.089,65.5887,65.5889,71.6052,9999.0,71.6056,0.0,72.6045,0.0,1.0,1.0,3.0,1.0,1.4,0.3,Time
,,S17,1,Female,36,anonymized,Serial_Dependence_U,2023.2.3,Win32,59.52380952,,,,,,,,,,,,72.6062,0.0,72.607,,,,75.5569,76.0539,75.0397,75.5565,73.6237,239.0,75.0394,76.054,76.5545,76.5546,82.5708,9999.0,82.571,0.0,83.5701,0.0,2.0,2.0,23.0,1.0,1.4,0.3,Time
,,S17,1,Female,36,anonymized,Serial_Dependence_U,2023.2.3,Win32,59.52380952,,,,,,,,,,,,83.5707,0.0,83.5711,,,,86.5206,87.0196,86.0038,86.5205,84.5876,260.0,86.0037,87.0197,87.5198,87.5199,93.5367,9999.0,93.5369,0.0,94.536,0.0,3.0,3.0,8.0,1.0,1.4,0.7,Time
,,S17,1,Female,36,anonymized,Serial_Dependence_U,2023.2.3,Win32,59.52380952,,,,,,,,,,,,94.5367,0.0,94.5369,,,,96.8869,97.3861,96.3703,96.8868,95.5535,6.0,96.3702,97.3862,97.886,97.8861,103.9027,9999.0,103.9029,0.0,104.9021,0.0,4.0,4.0,20.0,1.0,0.8,0.3,Time
,,S17,1,Female,36,anonymized,Serial_Dependence_U,2023.2.3,Win32,59.52380952,,,,,,,,,,,,104.9025,0.0,104.9028,,,,107.853,108.3522,107.3359,107.8528,105.9203,133.0,107.3358,108.3523,108.8521,108.8524,114.8712,9999.0,114.8722,0.0,115.8702,0.0,5.0,5.0,18.0,1.0,1.4,0.7,Time
,,S17,1,Female,36,anonymized,Serial_Dependence_U,2023.2.3,Win32,59.52380952,,,,,,,,,,,,115.8711,0.0,115.8715,,,,118.9914,119.4875,118.4886,118.9912,116.8727,70.0,118.4883,119.4876,119.9881,119.9882,126.0054,9999.0,126.0058,0.0,127.0025,0.0,6.0,6.0,29.0,1.0,1.6,0.7,Time
,,S17,1,Female,36,anonymized,Serial_Dependence_U,2023.2.3,Win32,59.52380952,,,,,,,,,,,,127.0038,0.0,127.0045,,,,129.3414,129.8357,128.824,129.341,128.0072,141.0,128.8237,129.8359,130.3356,130.3358,136.34,9999.0,136.3406,0.0,137.3352,0.0,7.0,7.0,0.0,1.0,0.8,0.3,Time
,,S17,1,Female,36,anonymized,Serial_Dependence_U,2023.2.3,Win32,59.52380952,,,,,,,,,,,,137.3361,0.0,137.3365,,,,139.671,140.1679,139.1543,139.671,138.3377,133.0,139.1541,140.1679,140.6695,140.6696,146.6862,9999.0,146.6865,0.0,147.686,0.0,8.0,8.0,5.0,1.0,0.8,0.7,Time
,,S17,1,Female,36,anonymized,Serial_Dependence_U,2023.2.3,Win32,59.52380952,,,,,,,,,,,,147.6866,0.0,147.6868,,,,150.2371,150.7354,149.7203,150.237,148.7039,285.0,149.7201,150.7354,151.2339,151.234,157.2362,9999.0,157.2365,0.0,158.2349,0.0,9.0,9.0,16.0,1.0,1.0,0.7,Time
,,S17,1,Female,36,anonymized,Serial_Dependence_U,2023.2.3,Win32,59.52380952,,,,,,,,,,,,158.2359,0.0,158.2361,,,,160.9862,161.4833,160.4695,160.9861,159.2536,188.0,160.4694,161.4834,161.9829,161.9831,167.9851,9999.0,167.9853,0.0,168.9829,0.0,10.0,10.0,22.0,1.0,1.2,0.3,Time
,,S17,1,Female,36,anonymized,Serial_Dependence_U,2023.2.3,Win32,59.52380952,,,,,,,,,,,,168.9836,0.0,168.9837,,,,172.1032,172.5994,171.6001,172.1031,169.9861,222.0,171.5998,172.5996,173.0997,173.0998,179.1033,9999.0,179.1035,0.0,180.1014,0.0,11.0,11.0,9.0,1.0,1.6,0.7,Time
,,S17,1,Female,36,anonymized,Serial_Dependence_U,2023.2.3,Win32,59.52380952,,,,,,,,,,,,180.1022,0.0,180.1027,,,,183.2215,183.7166,182.7192,183.2212,181.1029,254.0,182.719,183.7176,184.2153,184.2154,190.2353,9999.0,190.2356,0.0,191.234,0.0,12.0,12.0,4.0,1.0,1.6,0.3,Time
,,S17,1,Female,36,anonymized,Serial_Dependence_U,2023.2.3,Win32,59.52380952,,,,,,,,,,,,191.2346,0.0,191.2349,,,,193.7683,194.2671,193.2515,193.7681,192.2347,108.0,193.2513,194.2671,194.7652,194.7653,200.7842,9999.0,200.7844,0.0,201.781,0.0,13.0,13.0,1.0,1.0,1.0,0.3,Time
,,S17,1,Female,36,anonymized,Serial_Dependence_U,2023.2.3,Win32,59.52380952,,,,,,,,,,,,201.7821,0.0,201.7823,,,,204.5007,205.0013,203.9863,204.5005,202.7848,286.0,203.9859,205.0014,205.5004,205.5005,211.517,9999.0,211.5172,0.0,212.5161,0.0,14.0,14.0,17.0,1.0,1.2,0.7,Time
,,S17,1,Female,36,anonymized,Serial_Dependence_U,2023.2.3,Win32,59.52380952,,,,,,,,,,,,212.5165,0.0,212.5169,,,,215.2327,215.7307,214.7314,215.2325,213.517,275.0,214.7312,215.7307,216.2303,216.2304,222.2477,9999.0,222.248,0.0,223.2465,0.0,15.0,15.0,27.0,1.0,1.2,0.7,Time
,,S17,1,Female,36,anonymized,Serial_Dependence_U,2023.2.3,Win32,59.52380952,,,,,,,,,,,,223.2472,0.0,223.2475,,,,225.5694,226.0642,225.0532,225.5691,224.2499,25.0,225.0531,226.0643,226.5671,226.5672,232.5825,9999.0,232.5826,0.0,233.5795,0.0,16.0,16.0,15.0,1.0,0.8,0.7,Time
,,S17,1,Female,36,anonymized,Serial_Dependence_U,2023.2.3,Win32,59.52380952,,,,,,,,,,,,233.5801,0.0,233.5804,,,,236.3325,236.8325,235.8133,236.3324,234.5986,308.0,235.8132,236.8327,237.3325,237.3327,243.3468,9999.0,243.347,0.0,244.3462,0.0,17.0,17.0,2.0,1.0,1.2,0.3,Time
,,S17,1,Female,36,anonymized,Serial_Dependence_U,2023.2.3,Win32,59.52380952,,,,,,,,,,,,244.3468,0.0,244.347,,,,247.0968,247.5961,246.5819,247.0967,245.3666,258.0,246.5818,247.5962,248.0972,248.0972,254.1126,9999.0,254.1128,0.0,255.1118,0.0,18.0,18.0,7.0,1.0,1.2,0.7,Time
,,S17,1,Female,36,anonymized,Serial_Dependence_U,2023.2.3,Win32,59.52380952,,,,,,,,,,,,255.1124,0.0,255.1126,,,,258.2621,258.7614,257.7457,258.2619,256.1293,105.0,257.7457,258.7614,259.2626,259.2627,265.2785,9999.0,265.2788,0.0,266.2777,0.0,19.0,19.0,14.0,1.0,1.6,0.3,Time
,,S17,1,Female,36,anonymized,Serial_Dependence_U,2023.2.3,Win32,59.52380952,,,,,,,,,,,,266.2783,0.0,266.2785,,,,268.6286,269.1275,268.1119,268.6285,267.2954,195.0,268.1117,269.1276,269.6276,269.6277,275.6444,9999.0,275.6447,0.0,276.6436,0.0,20.0,20.0,25.0,1.0,0.8,0.7,Time
,,S17,1,Female,36,anonymized,Serial_Dependence_U,2023.2.3,Win32,59.52380952,,,,,,,,,,,,276.6445,0.0,276.6447,,,,279.7943,280.2935,279.2779,279.7941,277.6613,245.0,279.2777,280.2935,280.7933,280.7934,286.7967,9999.0,286.7972,0.0,287.794,0.0,21.0,21.0,24.0,1.0,1.6,0.3,Time
,,S17,1,Female,36,anonymized,Serial_Dependence_U,2023.2.3,Win32,59.52380952,,,,,,,,,,,,287.7962,0.0,287.7975,,,,290.5305,291.0292,290.0135,290.5303,288.7995,196.0,290.0134,291.0292,291.5268,291.527,297.5326,9999.0,297.5331,0.0,298.5301,0.0,22.0,22.0,12.0,1.0,1.2,0.3,Time
,,S17,1,Female,36,anonymized,Serial_Dependence_U,2023.2.3,Win32,59.52380952,,,,,,,,,,,,298.5317,0.0,298.5323,,,,301.4462,301.9452,300.9452,301.4461,299.531,298.0,300.945,301.9452,302.4428,302.443,308.4458,9999.0,308.4459,0.0,309.4426,0.0,23.0,23.0,13.0,1.0,1.4,0.3,Time
,,S17,1,Female,36,anonymized,Serial_Dependence_U,2023.2.3,Win32,59.52380952,,,,,,,,,,,,309.443,0.0,309.4433,,,,311.9767,312.478,311.4621,311.9766,310.4455,322.0,311.4619,312.4781,312.9754,312.9756,318.9786,9999.0,318.9788,0.0,319.9774,0.0,24.0,24.0,21.0,1.0,1.0,0.3,Time
,,S17,1,Female,36,anonymized,Serial_Dependence_U,2023.2.3,Win32,59.52380952,,,,,,,,,,,,319.9777,0.0,319.978,,,,322.5284,323.0289,322.0115,322.5282,320.9942,166.0,322.0114,323.029,323.5274,323.5275,329.5295,9999.0,329.5298,0.0,330.5268,0.0,25.0,25.0,11.0,1.0,1.0,0.3,Time
,,S17,1,Female,36,anonymized,Serial_Dependence_U,2023.2.3,Win32,59.52380952,,,,,,,,,,,,330.5276,0.0,330.5283,,,,333.6594,334.1582,333.1463,333.6592,331.5295,159.0,333.1462,334.1584,334.6596,334.6597,340.6773,9999.0,340.6776,0.0,341.6745,0.0,26.0,26.0,19.0,1.0,1.6,0.7,Time
,,S17,1,Female,36,anonymized,Serial_Dependence_U,2023.2.3,Win32,59.52380952,,,,,,,,,,,,341.6749,0.0,341.6752,,,,344.1939,344.6936,343.6921,344.1938,342.6772,75.0,343.6919,344.6937,345.1927,345.1927,351.2103,9999.0,351.2105,0.0,352.2079,0.0,27.0,27.0,26.0,1.0,1.0,0.7,Time
,,S17,1,Female,36,anonymized,Serial_Dependence_U,2023.2.3,Win32,59.52380952,,,,,,,,,,,,352.2084,0.0,352.2087,,,,354.5426,355.0403,354.0271,354.5425,353.2103,197.0,354.0269,355.0404,355.5406,355.5408,361.5597,9999.0,361.5599,0.0,362.5573,0.0,28.0,28.0,10.0,1.0,0.8,0.3,Time
,,S17,1,Female,36,anonymized,Serial_Dependence_U,2023.2.3,Win32,59.52380952,,,,,,,,,,,,362.5578,0.0,362.558,,,,365.0765,365.5735,364.5742,365.0764,363.5599,327.0,364.5741,365.5736,366.0733,366.0735,372.0761,9999.0,372.0763,0.0,373.0733,0.0,29.0,29.0,6.0,1.0,1.0,0.7,Time
,,S17,1,Female,36,anonymized,Serial_Dependence_U,2023.2.3,Win32,59.52380952,,,,,,,,,,,,373.0742,1.0,373.0939,s,0.0015,,375.6259,376.1247,375.1091,375.6257,374.0925,149.0,375.109,376.1247,376.6225,376.6227,382.6263,9999.0,382.6265,0.0,383.6227,1.0,0.0,30.0,16.0,1.0,1.0,0.7,Time
,,S17,1,Female,36,anonymized,Serial_Dependence_U,2023.2.3,Win32,59.52380952,,,,,,,,,,,,383.6234,1.0,383.6253,,,,386.3758,386.8726,385.8583,386.3758,384.6422,111.0,385.8581,386.8727,387.3735,387.3736,393.3918,9999.0,393.3919,0.0,394.3884,1.0,1.0,31.0,17.0,1.0,1.2,0.7,Time
,,S17,1,Female,36,anonymized,Serial_Dependence_U,2023.2.3,Win32,59.52380952,,,,,,,,,,,,394.3892,1.0,394.3895,,,,397.325,397.8219,396.8082,397.3249,395.3917,278.0,396.808,397.8221,398.3236,398.3237,404.3244,9999.0,404.3246,0.0,405.3218,1.0,2.0,32.0,13.0,1.0,1.4,0.3,Time
,,S17,1,Female,36,anonymized,Serial_Dependence_U,2023.2.3,Win32,59.52380952,,,,,,,,,,,,405.3229,1.0,405.3233,,,,408.2577,408.7543,407.7384,408.2575,406.3249,278.0,407.7382,408.7544,409.2598,409.2599,415.2739,9999.0,415.2742,0.0,416.2713,1.0,3.0,33.0,23.0,1.0,1.4,0.3,Time
,,S17,1,Female,36,anonymized,Serial_Dependence_U,2023.2.3,Win32,59.52380952,,,,,,,,,,,,416.2721,1.0,416.2724,,,,418.9908,419.4879,418.4766,418.9907,417.2746,200.0,418.4764,419.488,419.9875,419.9876,425.993,9999.0,425.9937,0.0,426.9866,1.0,4.0,34.0,7.0,1.0,1.2,0.7,Time
,,S17,1,Female,36,anonymized,Serial_Dependence_U,2023.2.3,Win32,59.52380952,,,,,,,,,,,,426.9881,1.0,426.9893,,,,429.5379,430.037,429.0233,429.5378,428.0055,137.0,429.0232,430.037,430.5392,430.5393,436.5563,9999.0,436.5566,0.0,437.5531,1.0,5.0,35.0,21.0,1.0,1.0,0.3,Time
,,S17,1,Female,36,anonymized,Serial_Dependence_U,2023.2.3,Win32,59.52380952,,,,,,,,,,,,437.5537,1.0,437.5539,,,,440.6739,441.1708,440.1588,440.6736,438.5562,12.0,440.1584,441.1709,441.6728,441.673,447.689,9999.0,447.6892,0.0,448.6869,1.0,6.0,36.0,9.0,1.0,1.6,0.7,Time
,,S17,1,Female,36,anonymized,Serial_Dependence_U,2023.2.3,Win32,59.52380952,,,,,,,,,,,,448.6886,1.0,448.6892,,,,451.6225,452.119,451.1059,451.6224,449.6915,211.0,451.1057,452.1191,452.6193,452.6193,458.6218,9999.0,458.622,0.0,459.6206,1.0,7.0,37.0,8.0,1.0,1.4,0.7,Time
,,S17,1,Female,36,anonymized,Serial_Dependence_U,2023.2.3,Win32,59.52380952,,,,,,,,,,,,459.6212,1.0,459.6215,,,,462.3548,462.8537,461.8381,462.3547,460.6217,291.0,461.838,462.8538,463.3522,463.3523,469.3534,9999.0,469.3537,0.0,470.3518,1.0,8.0,38.0,22.0,1.0,1.2,0.3,Time
,,S17,1,Female,36,anonymized,Serial_Dependence_U,2023.2.3,Win32,59.52380952,,,,,,,,,,,,470.3525,1.0,470.3527,,,,472.688,473.185,472.1713,472.688,471.3553,212.0,472.1712,473.185,473.6853,473.6853,479.6887,9999.0,479.689,0.0,480.687,1.0,9.0,39.0,20.0,1.0,0.8,0.3,Time
,,S17,1,Female,36,anonymized,Serial_Dependence_U,2023.2.3,Win32,59.52380952,,,,,,,,,,,,480.6879,1.0,480.6884,,,,483.2209,483.7172,482.7043,483.2207,481.6891,77.0,482.7041,483.7173,484.2191,484.2192,490.2232,9999.0,490.2237,0.0,491.2175,1.0,10.0,40.0,11.0,1.0,1.0,0.3,Time
,,S17,1,Female,36,anonymized,Serial_Dependence_U,2023.2.3,Win32,59.52380952,,,,,,,,,,,,491.2186,1.0,491.2192,,,,494.1533,494.6502,493.6366,494.1532,492.2232,313.0,493.6364,494.6502,495.1523,495.1523,501.1535,9999.0,501.1538,0.0,502.1519,1.0,11.0,41.0,18.0,1.0,1.4,0.7,Time
,,S17,1,Female,36,anonymized,Serial_Dependence_U,2023.2.3,Win32,59.52380952,,,,,,,,,,,,502.1524,1.0,502.1527,,,,505.0864,505.5832,504.5701,505.0863,503.1534,32.0,504.57,505.5835,506.0837,506.0837,512.0858,9999.0,512.086,0.0,513.083,1.0,12.0,42.0,3.0,1.0,1.4,0.3,Time
,,S17,1,Female,36,anonymized,Serial_Dependence_U,2023.2.3,Win32,59.52380952,,,,,,,,,,,,513.0834,1.0,513.0836,,,,515.6018,516.0992,515.1003,515.6016,514.0859,147.0,515.1,516.0993,516.6006,516.6007,522.6021,9999.0,522.6023,0.0,523.6011,1.0,13.0,43.0,26.0,1.0,1.0,0.7,Time
,,S17,1,Female,36,anonymized,Serial_Dependence_U,2023.2.3,Win32,59.52380952,,,,,,,,,,,,523.6015,1.0,523.6017,,,,526.136,526.6322,525.6186,526.1359,524.6043,193.0,525.6184,526.6324,527.1323,527.1323,533.1345,9999.0,533.1347,0.0,534.132,1.0,14.0,44.0,6.0,1.0,1.0,0.7,Time
,,S17,1,Female,36,anonymized,Serial_Dependence_U,2023.2.3,Win32,59.52380952,,,,,,,,,,,,534.1326,1.0,534.1328,,,,537.2678,537.767,536.7528,537.2677,535.1354,31.0,536.7525,537.7672,538.2681,538.2682,544.2845,9999.0,544.2847,0.0,545.2813,1.0,15.0,45.0,29.0,1.0,1.6,0.7,Time
,,S17,1,Female,36,anonymized,Serial_Dependence_U,2023.2.3,Win32,59.52380952,,,,,,,,,,,,545.2821,1.0,545.2825,,,,548.4165,548.9138,547.9009,548.4164,546.2846,293.0,547.9008,548.9139,549.4166,549.4166,555.4174,9999.0,555.4175,0.0,556.4137,1.0,16.0,46.0,24.0,1.0,1.6,0.3,Time
,,S17,1,Female,36,anonymized,Serial_Dependence_U,2023.2.3,Win32,59.52380952,,,,,,,,,,,,556.4144,1.0,556.4147,,,,559.1503,559.6468,558.6339,559.1502,557.417,8.0,558.6338,559.6469,560.1471,560.1473,566.1504,9999.0,566.1506,0.0,567.1476,1.0,17.0,47.0,2.0,1.0,1.2,0.3,Time
,,S17,1,Female,36,anonymized,Serial_Dependence_U,2023.2.3,Win32,59.52380952,,,,,,,,,,,,567.1487,1.0,567.1494,,,,569.6811,570.1818,569.1664,569.681,568.1514,239.0,569.1662,570.1818,570.6801,570.6802,576.699,9999.0,576.6993,0.0,577.6984,1.0,18.0,48.0,1.0,1.0,1.0,0.3,Time
,,S17,1,Female,36,anonymized,Serial_Dependence_U,2023.2.3,Win32,59.52380952,,,,,,,,,,,,577.6987,1.0,577.6991,,,,580.4156,580.9145,579.9149,580.4155,578.6993,314.0,579.9148,580.9145,581.4125,581.4126,587.4146,9999.0,587.4148,0.0,588.4145,1.0,19.0,49.0,27.0,1.0,1.2,0.7,Time
,,S17,1,Female,36,anonymized,Serial_Dependence_U,2023.2.3,Win32,59.52380952,,,,,,,,,,,,588.415,1.0,588.4153,,,,591.1463,591.6472,590.6319,591.1461,589.4161,292.0,590.6318,591.6473,592.1458,592.1459,598.1515,9999.0,598.152,0.0,599.1458,1.0,20.0,50.0,12.0,1.0,1.2,0.3,Time
,,S17,1,Female,36,anonymized,Serial_Dependence_U,2023.2.3,Win32,59.52380952,,,,,,,,,,,,599.1465,1.0,599.147,,,,602.2818,602.7803,601.7653,602.2817,600.1499,141.0,601.7652,602.7803,603.2806,603.2806,609.2981,9999.0,609.2982,0.0,610.2967,1.0,21.0,51.0,4.0,1.0,1.6,0.3,Time
,,S17,1,Female,36,anonymized,Serial_Dependence_U,2023.2.3,Win32,59.52380952,,,,,,,,,,,,610.2971,1.0,610.2974,,,,613.231,613.7275,612.7142,613.2309,611.2976,24.0,612.7142,613.7277,614.2278,614.228,620.2307,9999.0,620.231,0.0,621.2274,1.0,22.0,52.0,28.0,1.0,1.4,0.7,Time
,,S17,1,Female,36,anonymized,Serial_Dependence_U,2023.2.3,Win32,59.52380952,,,,,,,,,,,,621.2282,1.0,621.2285,,,,624.3641,624.8603,623.8471,624.3639,622.2313,65.0,623.8469,624.8604,625.3607,625.3608,631.3638,9999.0,631.3639,0.0,632.3607,1.0,23.0,53.0,19.0,1.0,1.6,0.7,Time
,,S17,1,Female,36,anonymized,Serial_Dependence_U,2023.2.3,Win32,59.52380952,,,,,,,,,,,,632.3613,1.0,632.3616,,,,634.6967,635.1943,634.1834,634.6966,633.3634,57.0,634.1834,635.1945,635.6954,635.6955,641.6962,9999.0,641.6963,0.0,642.6933,1.0,24.0,54.0,10.0,1.0,0.8,0.3,Time
,,S17,1,Female,36,anonymized,Serial_Dependence_U,2023.2.3,Win32,59.52380952,,,,,,,,,,,,642.6941,1.0,642.6943,,,,645.8283,646.3256,645.3267,645.8283,643.7134,141.0,645.3266,646.3258,646.8261,646.8262,652.8452,9999.0,652.8454,0.0,653.8426,1.0,25.0,55.0,14.0,1.0,1.6,0.3,Time
,,S17,1,Female,36,anonymized,Serial_Dependence_U,2023.2.3,Win32,59.52380952,,,,,,,,,,,,653.8433,1.0,653.8436,,,,656.1789,656.6757,655.6597,656.1789,654.8462,149.0,655.6596,656.6758,657.1753,657.1755,663.179,9999.0,663.1792,0.0,664.1757,1.0,26.0,56.0,5.0,1.0,0.8,0.7,Time
,,S17,1,Female,36,anonymized,Serial_Dependence_U,2023.2.3,Win32,59.52380952,,,,,,,,,,,,664.1762,1.0,664.1765,,,,666.5118,667.0097,665.9952,666.5117,665.1792,119.0,665.995,667.0097,667.5082,667.5083,673.5113,9999.0,673.5115,0.0,674.5078,1.0,27.0,57.0,25.0,1.0,0.8,0.7,Time
,,S17,1,Female,36,anonymized,Serial_Dependence_U,2023.2.3,Win32,59.52380952,,,,,,,,,,,,674.5089,1.0,674.5092,,,,676.8286,677.3261,676.3278,676.8285,675.5124,59.0,676.3276,677.3261,677.8261,677.8261,683.8285,9999.0,683.8289,0.0,684.8265,1.0,28.0,58.0,15.0,1.0,0.8,0.7,Time
,,S17,1,Female,36,anonymized,Serial_Dependence_U,2023.2.3,Win32,59.52380952,,,,,,,,,,,,684.827,1.0,684.8272,,,,687.1585,687.6576,686.6437,687.1582,685.8275,204.0,686.6436,687.6577,688.1579,688.158,694.1604,9999.0,694.1607,0.0,695.1573,1.0,29.0,59.0,0.0,1.0,0.8,0.3,Time
,,S17,1,Female,36,anonymized,Serial_Dependence_U,2023.2.3,Win32,59.52380952,,,,,,,,,,,,695.158,2.0,698.457,s,3.2676,,701.2101,701.7065,700.6934,701.2099,699.4767,12.0,700.6933,701.7067,702.2067,702.2067,708.2262,9999.0,708.2265,0.0,709.2229,2.0,0.0,60.0,27.0,1.0,1.2,0.7,Time
,,S17,1,Female,36,anonymized,Serial_Dependence_U,2023.2.3,Win32,59.52380952,,,,,,,,,,,,709.2237,2.0,709.2251,,,,711.5761,712.0729,711.0597,711.5759,710.2429,57.0,711.0595,712.073,712.5731,712.5732,718.577,9999.0,718.5775,0.0,719.5735,2.0,1.0,61.0,0.0,1.0,0.8,0.3,Time
,,S17,1,Female,36,anonymized,Serial_Dependence_U,2023.2.3,Win32,59.52380952,,,,,,,,,,,,719.5743,2.0,719.5748,,,,722.5258,723.0226,722.0096,722.5256,720.5937,18.0,722.0095,723.0227,723.5249,723.525,729.5392,9999.0,729.5394,0.0,730.5404,2.0,2.0,62.0,3.0,1.0,1.4,0.3,Time
,,S17,1,Female,36,anonymized,Serial_Dependence_U,2023.2.3,Win32,59.52380952,,,,,,,,,,,,730.5409,2.0,730.5411,,,,733.0742,733.5726,732.5588,733.0742,731.5422,162.0,732.5586,733.5726,734.0734,734.0734,740.0747,9999.0,740.0749,0.0,741.0717,2.0,3.0,63.0,6.0,1.0,1.0,0.7,Time
,,S17,1,Female,36,anonymized,Serial_Dependence_U,2023.2.3,Win32,59.52380952,,,,,,,,,,,,741.0725,2.0,741.0726,,,,744.2246,744.7211,743.7082,744.2244,742.0915,222.0,743.708,744.7212,745.2211,745.2212,751.2247,9999.0,751.2249,0.0,752.2211,2.0,4.0,64.0,19.0,1.0,1.6,0.7,Time
,,S17,1,Female,36,anonymized,Serial_Dependence_U,2023.2.3,Win32,59.52380952,,,,,,,,,,,,752.2221,2.0,752.2224,,,,754.955,755.454,754.4414,754.9549,753.2245,198.0,754.4413,755.4541,755.9544,755.9545,761.9736,9999.0,761.9739,0.0,762.9717,2.0,5.0,65.0,7.0,1.0,1.2,0.7,Time
,,S17,1,Female,36,anonymized,Serial_Dependence_U,2023.2.3,Win32,59.52380952,,,,,,,,,,,,762.9722,2.0,762.9725,,,,765.9041,766.4033,765.3915,765.9039,763.9749,266.0,765.3913,766.4035,766.9033,766.9036,772.9229,9999.0,772.9232,0.0,773.9197,2.0,6.0,66.0,8.0,1.0,1.4,0.7,Time
,,S17,1,Female,36,anonymized,Serial_Dependence_U,2023.2.3,Win32,59.52380952,,,,,,,,,,,,773.9205,2.0,773.9207,,,,776.2535,776.7531,775.74,776.2532,774.9233,61.0,775.7398,776.7532,777.2555,777.2556,783.2724,9999.0,783.2726,0.0,784.2696,2.0,7.0,67.0,15.0,1.0,0.8,0.7,Time
,,S17,1,Female,36,anonymized,Serial_Dependence_U,2023.2.3,Win32,59.52380952,,,,,,,,,,,,784.2703,2.0,784.2706,,,,786.8059,787.3024,786.2886,786.8058,785.2721,333.0,786.2885,787.3024,787.8024,787.8025,793.8193,9999.0,793.8196,0.0,794.8187,2.0,8.0,68.0,16.0,1.0,1.0,0.7,Time
,,S17,1,Female,36,anonymized,Serial_Dependence_U,2023.2.3,Win32,59.52380952,,,,,,,,,,,,794.8196,2.0,794.8199,,,,797.553,798.0519,797.036,797.5529,795.8225,58.0,797.0359,798.0521,798.5523,798.5524,804.5547,9999.0,804.5549,0.0,805.5538,2.0,9.0,69.0,2.0,1.0,1.2,0.3,Time
,,S17,1,Female,36,anonymized,Serial_Dependence_U,2023.2.3,Win32,59.52380952,,,,,,,,,,,,805.5545,2.0,805.5548,,,,807.9048,808.4013,807.3885,807.9046,806.572,238.0,807.3883,808.4014,808.9015,808.9016,814.9035,9999.0,814.9037,0.0,815.9019,2.0,10.0,70.0,10.0,1.0,0.8,0.3,Time
,,S17,1,Female,36,anonymized,Serial_Dependence_U,2023.2.3,Win32,59.52380952,,,,,,,,,,,,815.9027,2.0,815.903,,,,818.6376,819.1342,818.121,818.6375,816.9051,99.0,818.1209,819.1343,819.6365,819.6365,825.6375,9999.0,825.6377,0.0,826.6359,2.0,11.0,71.0,12.0,1.0,1.2,0.3,Time
,,S17,1,Female,36,anonymized,Serial_Dependence_U,2023.2.3,Win32,59.52380952,,,,,,,,,,,,826.6365,2.0,826.6368,,,,829.5702,830.0691,829.0679,829.57,827.654,154.0,829.0677,830.0691,830.5676,830.5678,836.5694,9999.0,836.5695,0.0,837.5669,2.0,12.0,72.0,23.0,1.0,1.4,0.3,Time
,,S17,1,Female,36,anonymized,Serial_Dependence_U,2023.2.3,Win32,59.52380952,,,,,,,,,,,,837.5677,2.0,837.568,,,,840.1023,840.602,839.5869,840.1022,838.5706,239.0,839.5868,840.6021,841.0999,841.0999,847.1196,9999.0,847.1198,0.0,848.1162,2.0,13.0,73.0,11.0,1.0,1.0,0.3,Time
,,S17,1,Female,36,anonymized,Serial_Dependence_U,2023.2.3,Win32,59.52380952,,,,,,,,,,,,848.1171,2.0,848.1173,,,,851.0694,851.5662,850.5528,851.0693,849.1367,221.0,850.5527,851.5664,852.0665,852.0667,858.0859,9999.0,858.0861,0.0,859.0826,2.0,14.0,74.0,13.0,1.0,1.4,0.3,Time
,,S17,1,Female,36,anonymized,Serial_Dependence_U,2023.2.3,Win32,59.52380952,,,,,,,,,,,,859.0832,2.0,859.0834,,,,861.6194,862.1179,861.1024,861.6192,860.086,39.0,861.1023,862.1179,862.6178,862.6178,868.6323,9999.0,868.6326,0.0,869.6317,2.0,15.0,75.0,21.0,1.0,1.0,0.3,Time
,,S17,1,Female,36,anonymized,Serial_Dependence_U,2023.2.3,Win32,59.52380952,,,,,,,,,,,,869.6327,2.0,869.6328,,,,872.7684,873.2655,872.2517,872.7683,870.6491,249.0,872.2516,873.2656,873.7658,873.7658,879.7671,9999.0,879.7673,0.0,880.7669,2.0,16.0,76.0,14.0,1.0,1.6,0.3,Time
,,S17,1,Female,36,anonymized,Serial_Dependence_U,2023.2.3,Win32,59.52380952,,,,,,,,,,,,880.7673,2.0,880.7676,,,,883.8847,884.3834,883.3836,883.8845,881.7678,181.0,883.3835,884.3834,884.8816,884.8817,890.9007,9999.0,890.9009,0.0,891.8973,2.0,17.0,77.0,29.0,1.0,1.6,0.7,Time
,,S17,1,Female,36,anonymized,Serial_Dependence_U,2023.2.3,Win32,59.52380952,,,,,,,,,,,,891.8983,2.0,891.8985,,,,894.2177,894.7161,893.7165,894.2176,892.9011,302.0,893.7164,894.7162,895.2139,895.214,901.2162,9999.0,901.2164,0.0,902.2137,2.0,18.0,78.0,20.0,1.0,0.8,0.3,Time
,,S17,1,Female,36,anonymized,Serial_Dependence_U,2023.2.3,Win32,59.52380952,,,,,,,,,,,,902.2144,2.0,902.2147,,,,905.3339,905.8297,904.8325,905.3338,903.218,341.0,904.8324,905.83,906.3303,906.3305,912.3328,9999.0,912.3331,0.0,913.3296,2.0,19.0,79.0,9.0,1.0,1.6,0.7,Time
,,S17,1,Female,36,anonymized,Serial_Dependence_U,2023.2.3,Win32,59.52380952,,,,,,,,,,,,913.3305,2.0,913.3308,,,,915.8496,916.3464,915.3471,915.8495,914.3329,261.0,915.3469,916.3465,916.8483,916.8484,922.8656,9999.0,922.8659,0.0,923.8626,2.0,20.0,80.0,1.0,1.0,1.0,0.3,Time
,,S17,1,Female,36,anonymized,Serial_Dependence_U,2023.2.3,Win32,59.52380952,,,,,,,,,,,,923.8633,2.0,923.8636,,,,926.1993,926.6969,925.6825,926.1992,924.8661,176.0,925.6823,926.697,927.197,927.197,933.1981,9999.0,933.1983,0.0,934.1959,2.0,21.0,81.0,5.0,1.0,0.8,0.7,Time
,,S17,1,Female,36,anonymized,Serial_Dependence_U,2023.2.3,Win32,59.52380952,,,,,,,,,,,,934.1964,2.0,934.1966,,,,936.946,937.4451,936.4294,936.9458,935.216,197.0,936.4292,937.4454,937.9456,937.9457,943.9486,9999.0,943.9488,0.0,944.9458,2.0,22.0,82.0,17.0,1.0,1.2,0.7,Time
,,S17,1,Female,36,anonymized,Serial_Dependence_U,2023.2.3,Win32,59.52380952,,,,,,,,,,,,944.9463,2.0,944.9464,,,,947.6813,948.1803,947.1649,947.6812,945.9474,166.0,947.1647,948.1803,948.6805,948.6806,954.6817,9999.0,954.682,0.0,955.6802,2.0,23.0,83.0,22.0,1.0,1.2,0.3,Time
,,S17,1,Female,36,anonymized,Serial_Dependence_U,2023.2.3,Win32,59.52380952,,,,,,,,,,,,955.6808,2.0,955.6811,,,,958.8124,959.3118,958.2984,958.8122,956.697,314.0,958.2982,959.3121,959.8124,959.8124,965.8141,9999.0,965.8143,0.0,966.8105,2.0,24.0,84.0,4.0,1.0,1.6,0.3,Time
,,S17,1,Female,36,anonymized,Serial_Dependence_U,2023.2.3,Win32,59.52380952,,,,,,,,,,,,966.8112,2.0,966.8116,,,,969.164,969.6607,968.6471,969.1639,967.8311,56.0,968.647,969.6607,970.161,970.1611,976.1624,9999.0,976.1627,0.0,977.1603,2.0,25.0,85.0,25.0,1.0,0.8,0.7,Time
,,S17,1,Female,36,anonymized,Serial_Dependence_U,2023.2.3,Win32,59.52380952,,,,,,,,,,,,977.1609,2.0,977.1613,,,,979.6796,980.1762,979.1773,979.6795,978.1633,292.0,979.1771,980.1764,980.6769,980.677,986.696,9999.0,986.6962,0.0,987.6931,2.0,26.0,86.0,26.0,1.0,1.0,0.7,Time
,,S17,1,Female,36,anonymized,Serial_Dependence_U,2023.2.3,Win32,59.52380952,,,,,,,,,,,,987.6937,2.0,987.6939,,,,990.6292,991.1257,990.1125,990.6291,988.6969,12.0,990.1123,991.1258,991.626,991.6261,997.6288,9999.0,997.6291,0.0,998.6255,2.0,27.0,87.0,18.0,1.0,1.4,0.7,Time
,,S17,1,Female,36,anonymized,Serial_Dependence_U,2023.2.3,Win32,59.52380952,,,,,,,,,,,,998.6263,2.0,998.6266,,,,1001.5622,1002.0588,1001.0455,1001.5621,999.6289,255.0,1001.0454,1002.0589,1002.5611,1002.5611,1008.5786,9999.0,1008.5787,0.0,1009.5751,2.0,28.0,88.0,28.0,1.0,1.4,0.7,Time
,,S17,1,Female,36,anonymized,Serial_Dependence_U,2023.2.3,Win32,59.52380952,,,,,,,,,,,,1009.5759,2.0,1009.5761,,,,1012.7112,1013.2089,1012.195,1012.7111,1010.5788,237.0,1012.1949,1013.209,1013.7083,1013.7084,1019.7114,9999.0,1019.7118,0.0,1020.708,2.0,29.0,89.0,24.0,1.0,1.6,0.3,Time
,,S17,1,Female,36,anonymized,Serial_Dependence_U,2023.2.3,Win32,59.52380952,,,,,,,,,,,,1020.7091,3.0,1023.5441,s,2.8168,,1025.892,1026.3909,1025.3784,1025.8918,1024.5616,129.0,1025.3783,1026.391,1026.8915,1026.8915,1032.8938,9999.0,1032.8942,0.0,1033.8908,3.0,0.0,90.0,15.0,1.0,0.8,0.7,Time
,,S17,1,Female,36,anonymized,Serial_Dependence_U,2023.2.3,Win32,59.52380952,,,,,,,,,,,,1033.8914,3.0,1033.8933,,,,1037.0275,1037.5237,1036.5107,1037.0273,1034.8945,60.0,1036.5105,1037.5238,1038.0237,1038.0239,1044.0265,9999.0,1044.0268,0.0,1045.0232,3.0,1.0,91.0,14.0,1.0,1.6,0.3,Time
,,S17,1,Female,36,anonymized,Serial_Dependence_U,2023.2.3,Win32,59.52380952,,,,,,,,,,,,1045.024,3.0,1045.0242,,,,1047.9599,1048.4566,1047.4432,1047.9599,1046.0265,249.0,1047.4431,1048.4567,1048.9572,1048.9573,1054.9737,9999.0,1054.9742,0.0,1055.9752,3.0,2.0,92.0,23.0,1.0,1.4,0.3,Time
,,S17,1,Female,36,anonymized,Serial_Dependence_U,2023.2.3,Win32,59.52380952,,,,,,,,,,,,1055.9756,3.0,1055.9758,,,,1058.3068,1058.8061,1057.792,1058.3066,1056.9762,92.0,1057.7919,1058.8061,1059.3059,1059.3061,1065.3255,9999.0,1065.3258,0.0,1066.3221,3.0,3.0,93.0,0.0,1.0,0.8,0.3,Time
,,S17,1,Female,36,anonymized,Serial_Dependence_U,2023.2.3,Win32,59.52380952,,,,,,,,,,,,1066.3232,3.0,1066.3237,,,,1068.8586,1069.356,1068.3564,1068.8585,1067.3426,8.0,1068.3562,1069.356,1069.8554,1069.8556,1075.8585,9999.0,1075.8587,0.0,1076.8552,3.0,4.0,94.0,6.0,1.0,1.0,0.7,Time
,,S17,1,Female,36,anonymized,Serial_Dependence_U,2023.2.3,Win32,59.52380952,,,,,,,,,,,,1076.856,3.0,1076.8563,,,,1079.5778,1080.0729,1079.0616,1079.5776,1077.8585,339.0,1079.0613,1080.0729,1080.5731,1080.5732,1086.5912,9999.0,1086.5915,0.0,1087.5903,3.0,5.0,95.0,27.0,1.0,1.2,0.7,Time
,,S17,1,Female,36,anonymized,Serial_Dependence_U,2023.2.3,Win32,59.52380952,,,,,,,,,,,,1087.5907,3.0,1087.591,,,,1090.5101,1091.0064,1090.0055,1090.5099,1088.5915,52.0,1090.0053,1091.0065,1091.5056,1091.5057,1097.5213,9999.0,1097.5217,0.0,1098.521,3.0,6.0,96.0,8.0,1.0,1.4,0.7,Time
,,S17,1,Female,36,anonymized,Serial_Dependence_U,2023.2.3,Win32,59.52380952,,,,,,,,,,,,1098.5218,3.0,1098.5221,,,,1101.2572,1101.7541,1100.7404,1101.257,1099.5241,212.0,1100.7403,1101.7541,1102.2564,1102.2565,1108.2733,9999.0,1108.2735,0.0,1109.2723,3.0,7.0,97.0,22.0,1.0,1.2,0.3,Time
,,S17,1,Female,36,anonymized,Serial_Dependence_U,2023.2.3,Win32,59.52380952,,,,,,,,,,,,1109.2728,3.0,1109.273,,,,1112.4082,1112.9034,1111.8906,1112.4081,1110.274,333.0,1111.8905,1112.9035,1113.4032,1113.4035,1119.4228,9999.0,1119.4231,0.0,1120.4197,3.0,8.0,98.0,9.0,1.0,1.6,0.7,Time
,,S17,1,Female,36,anonymized,Serial_Dependence_U,2023.2.3,Win32,59.52380952,,,,,,,,,,,,1120.4204,3.0,1120.4206,,,,1122.7564,1123.2528,1122.2388,1122.7562,1121.4229,329.0,1122.2386,1123.253,1123.755,1123.755,1129.7564,9999.0,1129.7566,0.0,1130.7551,3.0,9.0,99.0,25.0,1.0,0.8,0.7,Time
,,S17,1,Female,36,anonymized,Serial_Dependence_U,2023.2.3,Win32,59.52380952,,,,,,,,,,,,1130.7557,3.0,1130.756,,,,1133.4727,1133.9691,1132.9705,1133.4726,1131.7562,6.0,1132.9703,1133.9692,1134.4706,1134.4706,1140.4736,9999.0,1140.4738,0.0,1141.469,3.0,10.0,100.0,2.0,1.0,1.2,0.3,Time
,,S17,1,Female,36,anonymized,Serial_Dependence_U,2023.2.3,Win32,59.52380952,,,,,,,,,,,,1141.471,3.0,1141.4722,,,,1144.4079,1144.9047,1143.8913,1144.4076,1142.487,229.0,1143.8909,1144.9048,1145.4025,1145.4026,1151.405,9999.0,1151.4052,0.0,1152.4018,3.0,11.0,101.0,13.0,1.0,1.4,0.3,Time
,,S17,1,Female,36,anonymized,Serial_Dependence_U,2023.2.3,Win32,59.52380952,,,,,,,,,,,,1152.4025,3.0,1152.4027,,,,1155.5213,1156.0184,1155.0206,1155.5212,1153.4052,248.0,1155.0205,1156.0184,1156.5184,1156.5185,1162.5234,9999.0,1162.5239,0.0,1163.5193,3.0,12.0,102.0,19.0,1.0,1.6,0.7,Time
,,S17,1,Female,36,anonymized,Serial_Dependence_U,2023.2.3,Win32,59.52380952,,,,,,,,,,,,1163.5208,3.0,1163.5214,,,,1166.0713,1166.5704,1165.5555,1166.0711,1164.5403,318.0,1165.5552,1166.5705,1167.0676,1167.0678,1173.0698,9999.0,1173.0699,0.0,1174.0676,3.0,13.0,103.0,26.0,1.0,1.0,0.7,Time
,,S17,1,Female,36,anonymized,Serial_Dependence_U,2023.2.3,Win32,59.52380952,,,,,,,,,,,,1174.0682,3.0,1174.0685,,,,1177.2028,1177.7005,1176.6872,1177.2026,1175.0706,109.0,1176.687,1177.7006,1178.2005,1178.2007,1184.2024,9999.0,1184.2025,0.0,1185.2008,3.0,14.0,104.0,29.0,1.0,1.6,0.7,Time
,,S17,1,Female,36,anonymized,Serial_Dependence_U,2023.2.3,Win32,59.52380952,,,,,,,,,,,,1185.2015,3.0,1185.2018,,,,1188.1364,1188.6354,1187.6198,1188.1363,1186.2031,134.0,1187.6197,1188.6354,1189.1331,1189.1333,1195.1525,9999.0,1195.1527,0.0,1196.15,3.0,15.0,105.0,28.0,1.0,1.4,0.7,Time
,,S17,1,Female,36,anonymized,Serial_Dependence_U,2023.2.3,Win32,59.52380952,,,,,,,,,,,,1196.1506,3.0,1196.1508,,,,1198.6861,1199.1826,1198.1694,1198.686,1197.1531,338.0,1198.1693,1199.1827,1199.6829,1199.6831,1205.6859,9999.0,1205.6861,0.0,1206.6829,3.0,16.0,106.0,11.0,1.0,1.0,0.3,Time
,,S17,1,Female,36,anonymized,Serial_Dependence_U,2023.2.3,Win32,59.52380952,,,,,,,,,,,,1206.6836,3.0,1206.6838,,,,1209.402,1209.9011,1208.8999,1209.4019,1207.686,324.0,1208.8998,1209.9011,1210.3995,1210.3995,1216.4012,9999.0,1216.4014,0.0,1217.3986,3.0,17.0,107.0,17.0,1.0,1.2,0.7,Time
,,S17,1,Female,36,anonymized,Serial_Dependence_U,2023.2.3,Win32,59.52380952,,,,,,,,,,,,1217.3992,3.0,1217.3996,,,,1220.3339,1220.832,1219.8186,1220.3338,1218.4025,294.0,1219.8185,1220.832,1221.3339,1221.3341,1227.3514,9999.0,1227.3516,0.0,1228.3503,3.0,18.0,108.0,18.0,1.0,1.4,0.7,Time
,,S17,1,Female,36,anonymized,Serial_Dependence_U,2023.2.3,Win32,59.52380952,,,,,,,,,,,,1228.3508,3.0,1228.3511,,,,1230.8841,1231.3812,1230.3677,1230.884,1229.3517,160.0,1230.3676,1231.3813,1231.8816,1231.8817,1237.8832,9999.0,1237.8834,0.0,1238.881,3.0,19.0,109.0,16.0,1.0,1.0,0.7,Time
,,S17,1,Female,36,anonymized,Serial_Dependence_U,2023.2.3,Win32,59.52380952,,,,,,,,,,,,1238.882,3.0,1238.8823,,,,1241.6005,1242.0996,1241.0998,1241.6004,1239.8837,119.0,1241.0997,1242.0996,1242.5997,1242.5998,1248.6169,9999.0,1248.6171,0.0,1249.6141,3.0,20.0,110.0,12.0,1.0,1.2,0.3,Time
,,S17,1,Female,36,anonymized,Serial_Dependence_U,2023.2.3,Win32,59.52380952,,,,,,,,,,,,1249.6148,3.0,1249.615,,,,1252.7497,1253.2487,1252.2332,1252.7496,1250.617,206.0,1252.233,1253.2487,1253.7472,1253.7472,1259.7487,9999.0,1259.7492,0.0,1260.7473,3.0,21.0,111.0,24.0,1.0,1.6,0.3,Time
,,S17,1,Female,36,anonymized,Serial_Dependence_U,2023.2.3,Win32,59.52380952,,,,,,,,,,,,1260.7486,3.0,1260.7493,,,,1263.0691,1263.5637,1262.5667,1263.0689,1261.7527,181.0,1262.5666,1263.5638,1264.0661,1264.0661,1270.0824,9999.0,1270.0827,0.0,1271.0794,3.0,22.0,112.0,10.0,1.0,0.8,0.3,Time
,,S17,1,Female,36,anonymized,Serial_Dependence_U,2023.2.3,Win32,59.52380952,,,,,,,,,,,,1271.08,3.0,1271.0803,,,,1273.6156,1274.1122,1273.0994,1273.6156,1272.0825,305.0,1273.0992,1274.1122,1274.6127,1274.6128,1280.615,9999.0,1280.6153,0.0,1281.6122,3.0,23.0,113.0,1.0,1.0,1.0,0.3,Time
,,S17,1,Female,36,anonymized,Serial_Dependence_U,2023.2.3,Win32,59.52380952,,,,,,,,,,,,1281.613,3.0,1281.6134,,,,1283.9487,1284.4453,1283.4461,1283.9486,1282.6328,132.0,1283.446,1284.4455,1284.9476,1284.9477,1290.9647,9999.0,1290.9648,0.0,1291.9623,3.0,24.0,114.0,5.0,1.0,0.8,0.7,Time
,,S17,1,Female,36,anonymized,Serial_Dependence_U,2023.2.3,Win32,59.52380952,,,,,,,,,,,,1291.9627,3.0,1291.9631,,,,1294.8961,1295.397,1294.3817,1294.8959,1292.9653,51.0,1294.3815,1295.3971,1295.8969,1295.8969,1301.9129,9999.0,1301.9132,0.0,1302.9112,3.0,25.0,115.0,3.0,1.0,1.4,0.3,Time
,,S17,1,Female,36,anonymized,Serial_Dependence_U,2023.2.3,Win32,59.52380952,,,,,,,,,,,,1302.9119,3.0,1302.9121,,,,1305.6642,1306.1615,1305.1474,1305.664,1303.9307,121.0,1305.1473,1306.1615,1306.6631,1306.6632,1312.6804,9999.0,1312.6806,0.0,1313.6794,3.0,26.0,116.0,7.0,1.0,1.2,0.7,Time
,,S17,1,Female,36,anonymized,Serial_Dependence_U,2023.2.3,Win32,59.52380952,,,,,,,,,,,,1313.6799,3.0,1313.6802,,,,1316.1969,1316.6941,1315.6948,1316.1968,1314.6808,355.0,1315.6947,1316.6941,1317.1938,1317.1939,1323.1964,9999.0,1323.1965,0.0,1324.1939,3.0,27.0,117.0,21.0,1.0,1.0,0.3,Time
,,S17,1,Female,36,anonymized,Serial_Dependence_U,2023.2.3,Win32,59.52380952,,,,,,,,,,,,1324.1945,3.0,1324.1949,,,,1326.531,1327.0275,1326.0135,1326.5306,1325.1962,311.0,1326.0133,1327.0276,1327.5271,1327.5272,1333.5302,9999.0,1333.5303,0.0,1334.5263,3.0,28.0,118.0,20.0,1.0,0.8,0.3,Time
,,S17,1,Female,36,anonymized,Serial_Dependence_U,2023.2.3,Win32,59.52380952,,,,,,,,,,,,1334.5271,3.0,1334.5274,,,,1337.6608,1338.1597,1337.1461,1337.6607,1335.5326,103.0,1337.1459,1338.1597,1338.6592,1338.6594,1344.6619,9999.0,1344.6621,0.0,1345.6591,3.0,29.0,119.0,4.0,1.0,1.6,0.3,Time
,,S17,1,Female,36,anonymized,Serial_Dependence_U,2023.2.3,Win32,59.52380952,,,,,,,,,,,,1345.6598,4.0,1345.862,s,0.1838,,1348.7787,1349.278,1348.2767,1348.7786,1346.8621,244.0,1348.2765,1349.278,1349.7754,1349.7756,1355.7786,9999.0,1355.7787,0.0,1356.7754,4.0,0.0,120.0,3.0,1.0,1.4,0.3,Time
,,S17,1,Female,36,anonymized,Serial_Dependence_U,2023.2.3,Win32,59.52380952,,,,,,,,,,,,1356.776,4.0,1356.778,,,,1359.1113,1359.6082,1358.5954,1359.1112,1357.7789,107.0,1358.5953,1359.6082,1360.1093,1360.1093,1366.1101,9999.0,1366.1103,0.0,1367.1095,4.0,1.0,121.0,25.0,1.0,0.8,0.7,Time
,,S17,1,Female,36,anonymized,Serial_Dependence_U,2023.2.3,Win32,59.52380952,,,,,,,,,,,,1367.11,4.0,1367.1103,,,,1369.8436,1370.3416,1369.3271,1369.8435,1368.1116,223.0,1369.3269,1370.3416,1370.8431,1370.8431,1376.8439,9999.0,1376.8441,0.0,1377.8411,4.0,2.0,122.0,12.0,1.0,1.2,0.3,Time
,,S17,1,Female,36,anonymized,Serial_Dependence_U,2023.2.3,Win32,59.52380952,,,,,,,,,,,,1377.8417,4.0,1377.8419,,,,1380.778,1381.2743,1380.2612,1380.7778,1378.8443,191.0,1380.2609,1381.2743,1381.7761,1381.7763,1387.7771,9999.0,1387.7773,0.0,1388.7739,4.0,3.0,123.0,23.0,1.0,1.4,0.3,Time
,,S17,1,Female,36,anonymized,Serial_Dependence_U,2023.2.3,Win32,59.52380952,,,,,,,,,,,,1388.7745,4.0,1388.7748,,,,1391.4932,1391.99,1390.9766,1391.4929,1389.7749,162.0,1390.9765,1391.99,1392.4923,1392.4924,1398.507,9999.0,1398.5073,0.0,1399.5086,4.0,4.0,124.0,2.0,1.0,1.2,0.3,Time
,,S17,1,Female,36,anonymized,Serial_Dependence_U,2023.2.3,Win32,59.52380952,,,,,,,,,,,,1399.5092,4.0,1399.5094,,,,1402.6611,1403.157,1402.1447,1402.6609,1400.5263,173.0,1402.1444,1403.1571,1403.658,1403.6582,1409.6598,9999.0,1409.6601,0.0,1410.6561,4.0,5.0,125.0,29.0,1.0,1.6,0.7,Time
,,S17,1,Female,36,anonymized,Serial_Dependence_U,2023.2.3,Win32,59.52380952,,,,,,,,,,,,1410.6571,4.0,1410.6573,,,,1413.8093,1414.3079,1413.2922,1413.8092,1411.6758,359.0,1413.292,1414.308,1414.8072,1414.8073,1420.8087,9999.0,1420.8089,0.0,1421.8054,4.0,6.0,126.0,14.0,1.0,1.6,0.3,Time
,,S17,1,Female,36,anonymized,Serial_Dependence_U,2023.2.3,Win32,59.52380952,,,,,,,,,,,,1421.8062,4.0,1421.8065,,,,1424.7427,1425.2391,1424.2278,1424.7426,1422.8092,250.0,1424.2275,1425.2392,1425.7393,1425.7393,1431.7578,9999.0,1431.7581,0.0,1432.7552,4.0,7.0,127.0,8.0,1.0,1.4,0.7,Time
,,S17,1,Female,36,anonymized,Serial_Dependence_U,2023.2.3,Win32,59.52380952,,,,,,,,,,,,1432.7559,4.0,1432.7563,,,,1435.2911,1435.7904,1434.7741,1435.291,1433.7584,84.0,1434.7739,1435.7905,1436.2917,1436.2918,1442.3075,9999.0,1442.3077,0.0,1443.3064,4.0,8.0,128.0,21.0,1.0,1.0,0.3,Time
,,S17,1,Female,36,anonymized,Serial_Dependence_U,2023.2.3,Win32,59.52380952,,,,,,,,,,,,1443.307,4.0,1443.3074,,,,1445.8242,1446.3231,1445.3221,1445.824,1444.3081,312.0,1445.3217,1446.3231,1446.822,1446.8221,1452.8236,9999.0,1452.8239,0.0,1453.8225,4.0,9.0,129.0,26.0,1.0,1.0,0.7,Time
,,S17,1,Female,36,anonymized,Serial_Dependence_U,2023.2.3,Win32,59.52380952,,,,,,,,,,,,1453.823,4.0,1453.8233,,,,1456.157,1456.6534,1455.64,1456.1569,1454.8239,227.0,1455.6398,1456.6535,1457.1537,1457.1538,1463.157,9999.0,1463.1574,0.0,1464.1538,4.0,10.0,130.0,10.0,1.0,0.8,0.3,Time
,,S17,1,Female,36,anonymized,Serial_Dependence_U,2023.2.3,Win32,59.52380952,,,,,,,,,,,,1464.1547,4.0,1464.1549,,,,1466.8734,1467.3701,1466.3569,1466.8732,1465.1561,56.0,1466.3568,1467.3701,1467.87,1467.8701,1473.8746,9999.0,1473.8752,0.0,1474.8707,4.0,11.0,131.0,17.0,1.0,1.2,0.7,Time
,,S17,1,Female,36,anonymized,Serial_Dependence_U,2023.2.3,Win32,59.52380952,,,,,,,,,,,,1474.8721,4.0,1474.8727,,,,1477.8085,1478.3031,1477.292,1477.8082,1475.8757,155.0,1477.2917,1478.3033,1478.803,1478.8031,1484.8219,9999.0,1484.8222,0.0,1485.8195,4.0,12.0,132.0,13.0,1.0,1.4,0.3,Time
,,S17,1,Female,36,anonymized,Serial_Dependence_U,2023.2.3,Win32,59.52380952,,,,,,,,,,,,1485.8201,4.0,1485.8204,,,,1488.5697,1489.0692,1488.0554,1488.5696,1486.8389,20.0,1488.0553,1489.0692,1489.5691,1489.5691,1495.5728,9999.0,1495.5731,0.0,1496.5695,4.0,13.0,133.0,27.0,1.0,1.2,0.7,Time
,,S17,1,Female,36,anonymized,Serial_Dependence_U,2023.2.3,Win32,59.52380952,,,,,,,,,,,,1496.5703,4.0,1496.5706,,,,1499.1046,1499.6017,1498.5883,1499.1045,1497.5716,335.0,1498.5882,1499.6018,1500.1016,1500.1016,1506.1052,9999.0,1506.1054,0.0,1507.1033,4.0,14.0,134.0,1.0,1.0,1.0,0.3,Time
,,S17,1,Female,36,anonymized,Serial_Dependence_U,2023.2.3,Win32,59.52380952,,,,,,,,,,,,1507.1038,4.0,1507.1041,,,,1509.4352,1509.9348,1508.9203,1509.435,1508.1045,145.0,1508.9201,1509.9348,1510.4349,1510.435,1516.4368,9999.0,1516.4371,0.0,1517.4342,4.0,15.0,135.0,20.0,1.0,0.8,0.3,Time
,,S17,1,Female,36,anonymized,Serial_Dependence_U,2023.2.3,Win32,59.52380952,,,,,,,,,,,,1517.4348,4.0,1517.435,,,,1519.7538,1520.2511,1519.2514,1519.7537,1518.4381,53.0,1519.2511,1520.2512,1520.7528,1520.7529,1526.7696,9999.0,1526.7699,0.0,1527.7671,4.0,16.0,136.0,5.0,1.0,0.8,0.7,Time
,,S17,1,Female,36,anonymized,Serial_Dependence_U,2023.2.3,Win32,59.52380952,,,,,,,,,,,,1527.7677,4.0,1527.768,,,,1530.5031,1531.0001,1529.9872,1530.503,1528.7705,313.0,1529.987,1531.0001,1531.5012,1531.5012,1537.5032,9999.0,1537.5036,0.0,1538.4998,4.0,17.0,137.0,7.0,1.0,1.2,0.7,Time
,,S17,1,Female,36,anonymized,Serial_Dependence_U,2023.2.3,Win32,59.52380952,,,,,,,,,,,,1538.5005,4.0,1538.5009,,,,1541.02,1541.5173,1540.5052,1541.0199,1539.5027,280.0,1540.5049,1541.5174,1542.0162,1542.0164,1548.018,9999.0,1548.0185,0.0,1549.0163,4.0,18.0,138.0,6.0,1.0,1.0,0.7,Time
,,S17,1,Female,36,anonymized,Serial_Dependence_U,2023.2.3,Win32,59.52380952,,,,,,,,,,,,1549.018,4.0,1549.0186,,,,1551.5667,1552.0658,1551.0515,1551.5665,1550.0348,132.0,1551.0512,1552.0658,1552.5657,1552.5658,1558.5824,9999.0,1558.5825,0.0,1559.5812,4.0,19.0,139.0,11.0,1.0,1.0,0.3,Time
,,S17,1,Female,36,anonymized,Serial_Dependence_U,2023.2.3,Win32,59.52380952,,,,,,,,,,,,1559.5817,4.0,1559.582,,,,1561.9343,1562.4323,1561.4167,1561.9341,1560.5992,0.0,1561.4164,1562.4324,1562.9317,1562.9318,1568.9486,9999.0,1568.9489,0.0,1569.9479,4.0,20.0,140.0,0.0,1.0,0.8,0.3,Time
,,S17,1,Female,36,anonymized,Serial_Dependence_U,2023.2.3,Win32,59.52380952,,,,,,,,,,,,1569.9485,4.0,1569.9486,,,,1572.8986,1573.3976,1572.3818,1572.8984,1570.9654,53.0,1572.3817,1573.3977,1573.8977,1573.8978,1579.9146,9999.0,1579.9148,0.0,1580.914,4.0,21.0,141.0,18.0,1.0,1.4,0.7,Time
,,S17,1,Female,36,anonymized,Serial_Dependence_U,2023.2.3,Win32,59.52380952,,,,,,,,,,,,1580.9148,4.0,1580.915,,,,1583.4646,1583.9641,1582.9481,1583.4645,1581.9316,245.0,1582.9479,1583.9642,1584.4641,1584.4642,1590.4811,9999.0,1590.4813,0.0,1591.4801,4.0,22.0,142.0,16.0,1.0,1.0,0.7,Time
,,S17,1,Female,36,anonymized,Serial_Dependence_U,2023.2.3,Win32,59.52380952,,,,,,,,,,,,1591.4808,4.0,1591.481,,,,1594.631,1595.1301,1594.1142,1594.6308,1592.4975,325.0,1594.1141,1595.1301,1595.63,1595.63,1601.6466,9999.0,1601.6468,0.0,1602.6459,4.0,23.0,143.0,4.0,1.0,1.6,0.3,Time
,,S17,1,Female,36,anonymized,Serial_Dependence_U,2023.2.3,Win32,59.52380952,,,,,,,,,,,,1602.6465,4.0,1602.6468,,,,1605.3814,1605.8803,1604.8644,1605.3811,1603.6632,171.0,1604.8642,1605.8803,1606.3802,1606.3803,1612.3965,9999.0,1612.3966,0.0,1613.3957,4.0,24.0,144.0,22.0,1.0,1.2,0.3,Time
,,S17,1,Female,36,anonymized,Serial_Dependence_U,2023.2.3,Win32,59.52380952,,,,,,,,,,,,1613.3964,4.0,1613.3967,,,,1616.3464,1616.8457,1615.8298,1616.3463,1614.4134,251.0,1615.8296,1616.8458,1617.3458,1617.3458,1623.348,9999.0,1623.3484,0.0,1624.3462,4.0,25.0,145.0,28.0,1.0,1.4,0.7,Time
,,S17,1,Female,36,anonymized,Serial_Dependence_U,2023.2.3,Win32,59.52380952,,,,,,,,,,,,1624.3477,4.0,1624.3493,,,,1627.4963,1627.9958,1626.9814,1627.4962,1625.3645,280.0,1626.9811,1627.9959,1628.4958,1628.4963,1634.512,9999.0,1634.5122,0.0,1635.5111,4.0,26.0,146.0,24.0,1.0,1.6,0.3,Time
,,S17,1,Female,36,anonymized,Serial_Dependence_U,2023.2.3,Win32,59.52380952,,,,,,,,,,,,1635.5119,4.0,1635.5121,,,,1638.6622,1639.1614,1638.1454,1638.662,1636.5289,121.0,1638.1452,1639.1614,1639.6612,1639.6612,1645.6781,9999.0,1645.6784,0.0,1646.6775,4.0,27.0,147.0,19.0,1.0,1.6,0.7,Time
,,S17,1,Female,36,anonymized,Serial_Dependence_U,2023.2.3,Win32,59.52380952,,,,,,,,,,,,1646.6781,4.0,1646.6784,,,,1649.028,1649.5274,1648.5116,1649.0279,1647.6952,31.0,1648.5115,1649.5275,1650.027,1650.0271,1656.0443,9999.0,1656.0445,0.0,1657.0436,4.0,28.0,148.0,15.0,1.0,0.8,0.7,Time
,,S17,1,Female,36,anonymized,Serial_Dependence_U,2023.2.3,Win32,59.52380952,,,,,,,,,,,,1657.0441,4.0,1657.0444,,,,1660.1938,1660.6932,1659.6773,1660.1937,1658.061,33.0,1659.6772,1660.6933,1661.1931,1661.1932,1667.2102,9999.0,1667.2103,0.0,1668.2099,4.0,29.0,149.0,9.0,1.0,1.6,0.7,Time
,,S17,1,Female,36,anonymized,Serial_Dependence_U,2023.2.3,Win32,59.52380952,,,,,,,,,,,,1668.2105,5.0,1669.6269,s,1.4037,,1672.7769,1673.2763,1672.2608,1672.7768,1670.6443,112.0,1672.2602,1673.2763,1673.7762,1673.7763,1679.7929,9999.0,1679.7931,0.0,1680.793,5.0,0.0,150.0,14.0,1.0,1.6,0.3,Time
,,S17,1,Female,36,anonymized,Serial_Dependence_U,2023.2.3,Win32,59.52380952,,,,,,,,,,,,1680.7946,5.0,1680.799,,,,1683.3289,1683.826,1682.8271,1683.3286,1681.8117,11.0,1682.8268,1683.8263,1684.3262,1684.3264,1690.3432,9999.0,1690.3436,0.0,1691.3427,5.0,1.0,151.0,16.0,1.0,1.0,0.7,Time
,,S17,1,Female,36,anonymized,Serial_Dependence_U,2023.2.3,Win32,59.52380952,,,,,,,,,,,,1691.3448,5.0,1691.3461,,,,1693.8933,1694.3917,1693.3759,1693.8931,1692.3597,119.0,1693.3757,1694.3918,1694.892,1694.892,1700.9086,9999.0,1700.9089,0.0,1701.9083,5.0,2.0,152.0,21.0,1.0,1.0,0.3,Time
,,S17,1,Female,36,anonymized,Serial_Dependence_U,2023.2.3,Win32,59.52380952,,,,,,,,,,,,1701.9089,5.0,1701.9092,,,,1705.0436,1705.5419,1704.5283,1705.0435,1702.9254,99.0,1704.5277,1705.542,1706.0414,1706.0415,1712.0586,9999.0,1712.0589,0.0,1713.0572,5.0,3.0,153.0,4.0,1.0,1.6,0.3,Time
,,S17,1,Female,36,anonymized,Serial_Dependence_U,2023.2.3,Win32,59.52380952,,,,,,,,,,,,1713.0581,5.0,1713.0584,,,,1715.4079,1715.9072,1714.8915,1715.4078,1714.0753,297.0,1714.8914,1715.9074,1716.4075,1716.4075,1722.4241,9999.0,1722.4243,0.0,1723.4234,5.0,4.0,154.0,25.0,1.0,0.8,0.7,Time
,,S17,1,Female,36,anonymized,Serial_Dependence_U,2023.2.3,Win32,59.52380952,,,,,,,,,,,,1723.424,5.0,1723.4242,,,,1726.3743,1726.8735,1725.8578,1726.3742,1724.4408,221.0,1725.8576,1726.8736,1727.3733,1727.3734,1733.3906,9999.0,1733.3908,0.0,1734.3899,5.0,5.0,155.0,28.0,1.0,1.4,0.7,Time
,,S17,1,Female,36,anonymized,Serial_Dependence_U,2023.2.3,Win32,59.52380952,,,,,,,,,,,,1734.3905,5.0,1734.3908,,,,1737.1407,1737.6395,1736.6237,1737.1406,1735.4073,334.0,1736.6237,1737.6395,1738.1395,1738.1397,1744.1421,9999.0,1744.1427,0.0,1745.1399,5.0,6.0,156.0,12.0,1.0,1.2,0.3,Time
,,S17,1,Female,36,anonymized,Serial_Dependence_U,2023.2.3,Win32,59.52380952,,,,,,,,,,,,1745.1415,5.0,1745.1422,,,,1747.49,1747.9891,1746.9737,1747.4898,1746.1569,164.0,1746.9736,1747.9893,1748.4894,1748.4895,1754.5059,9999.0,1754.5062,0.0,1755.5054,5.0,7.0,157.0,10.0,1.0,0.8,0.3,Time
,,S17,1,Female,36,anonymized,Serial_Dependence_U,2023.2.3,Win32,59.52380952,,,,,,,,,,,,1755.5061,5.0,1755.5064,,,,1758.4556,1758.9551,1757.9419,1758.4555,1756.5229,209.0,1757.9416,1758.9551,1759.455,1759.455,1765.4722,9999.0,1765.4725,0.0,1766.4717,5.0,8.0,158.0,3.0,1.0,1.4,0.3,Time
,,S17,1,Female,36,anonymized,Serial_Dependence_U,2023.2.3,Win32,59.52380952,,,,,,,,,,,,1766.4721,5.0,1766.4723,,,,1768.8222,1769.3216,1768.3058,1768.8222,1767.4893,143.0,1768.3057,1769.3216,1769.8214,1769.8215,1775.8385,9999.0,1775.8386,0.0,1776.8379,5.0,9.0,159.0,0.0,1.0,0.8,0.3,Time
,,S17,1,Female,36,anonymized,Serial_Dependence_U,2023.2.3,Win32,59.52380952,,,,,,,,,,,,1776.8385,5.0,1776.8387,,,,1779.1883,1779.6874,1778.6719,1779.1882,1777.8552,253.0,1778.6717,1779.6875,1780.1873,1780.1874,1786.1881,9999.0,1786.1884,0.0,1787.1869,5.0,10.0,160.0,15.0,1.0,0.8,0.7,Time
,,S17,1,Female,36,anonymized,Serial_Dependence_U,2023.2.3,Win32,59.52380952,,,,,,,,,,,,1787.1875,5.0,1787.1877,,,,1789.9381,1790.4369,1789.4216,1789.9379,1788.2047,276.0,1789.4214,1790.4369,1790.937,1790.9371,1796.9545,9999.0,1796.9548,0.0,1797.9536,5.0,11.0,161.0,7.0,1.0,1.2,0.7,Time
,,S17,1,Female,36,anonymized,Serial_Dependence_U,2023.2.3,Win32,59.52380952,,,,,,,,,,,,1797.9542,5.0,1797.9544,,,,1800.5041,1801.003,1799.9876,1800.504,1798.971,279.0,1799.9873,1801.003,1801.5038,1801.5039,1807.523,9999.0,1807.524,0.0,1808.5194,5.0,12.0,162.0,26.0,1.0,1.0,0.7,Time
,,S17,1,Female,36,anonymized,Serial_Dependence_U,2023.2.3,Win32,59.52380952,,,,,,,,,,,,1808.5204,5.0,1808.5208,,,,1811.6723,1812.1703,1811.1557,1811.6721,1809.5372,42.0,1811.1553,1812.1704,1812.6701,1812.6701,1818.6865,9999.0,1818.6867,0.0,1819.686,5.0,13.0,163.0,9.0,1.0,1.6,0.7,Time
,,S17,1,Female,36,anonymized,Serial_Dependence_U,2023.2.3,Win32,59.52380952,,,,,,,,,,,,1819.6865,5.0,1819.6867,,,,1822.6361,1823.1352,1822.1198,1822.6359,1820.7031,191.0,1822.1197,1823.1353,1823.6353,1823.6353,1829.6525,9999.0,1829.6527,0.0,1830.6517,5.0,14.0,164.0,23.0,1.0,1.4,0.3,Time
,,S17,1,Female,36,anonymized,Serial_Dependence_U,2023.2.3,Win32,59.52380952,,,,,,,,,,,,1830.6525,5.0,1830.6526,,,,1833.602,1834.102,1833.0869,1833.6019,1831.6697,258.0,1833.0868,1834.102,1834.6023,1834.6023,1840.6185,9999.0,1840.6188,0.0,1841.6176,5.0,15.0,165.0,13.0,1.0,1.4,0.3,Time
,,S17,1,Female,36,anonymized,Serial_Dependence_U,2023.2.3,Win32,59.52380952,,,,,,,,,,,,1841.6182,5.0,1841.6184,,,,1844.7686,1845.2682,1844.2516,1844.7685,1842.6349,137.0,1844.2515,1845.2682,1845.7686,1845.7687,1851.7846,9999.0,1851.7849,0.0,1852.784,5.0,16.0,166.0,29.0,1.0,1.6,0.7,Time
,,S17,1,Female,36,anonymized,Serial_Dependence_U,2023.2.3,Win32,59.52380952,,,,,,,,,,,,1852.7848,5.0,1852.785,,,,1855.7347,1856.2339,1855.2184,1855.7346,1853.8015,82.0,1855.2182,1856.234,1856.7337,1856.7337,1862.7348,9999.0,1862.735,0.0,1863.7335,5.0,17.0,167.0,8.0,1.0,1.4,0.7,Time
,,S17,1,Female,36,anonymized,Serial_Dependence_U,2023.2.3,Win32,59.52380952,,,,,,,,,,,,1863.7346,5.0,1863.7349,,,,1866.6844,1867.1833,1866.1677,1866.6842,1864.7509,270.0,1866.1675,1867.1833,1867.6836,1867.6837,1873.6999,9999.0,1873.7001,0.0,1874.6995,5.0,18.0,168.0,18.0,1.0,1.4,0.7,Time
,,S17,1,Female,36,anonymized,Serial_Dependence_U,2023.2.3,Win32,59.52380952,,,,,,,,,,,,1874.7001,5.0,1874.7004,,,,1877.0503,1877.5495,1876.5338,1877.0502,1875.7172,46.0,1876.5337,1877.5496,1878.0494,1878.0494,1884.0667,9999.0,1884.0669,0.0,1885.0666,5.0,19.0,169.0,20.0,1.0,0.8,0.3,Time
,,S17,1,Female,36,anonymized,Serial_Dependence_U,2023.2.3,Win32,59.52380952,,,,,,,,,,,,1885.067,5.0,1885.0672,,,,1888.2168,1888.7155,1887.6999,1888.2166,1886.0835,257.0,1887.6997,1888.7155,1889.2156,1889.2157,1895.2325,9999.0,1895.2327,0.0,1896.2318,5.0,20.0,170.0,19.0,1.0,1.6,0.7,Time
,,S17,1,Female,36,anonymized,Serial_Dependence_U,2023.2.3,Win32,59.52380952,,,,,,,,,,,,1896.2325,5.0,1896.2327,,,,1898.9826,1899.4817,1898.4665,1898.9825,1897.2494,181.0,1898.4664,1899.4818,1899.9815,1899.9816,1905.9825,9999.0,1905.9828,0.0,1906.9816,5.0,21.0,171.0,2.0,1.0,1.2,0.3,Time
,,S17,1,Female,36,anonymized,Serial_Dependence_U,2023.2.3,Win32,59.52380952,,,,,,,,,,,,1906.9824,5.0,1906.9827,,,,1909.5318,1910.0311,1909.0156,1909.5317,1907.999,72.0,1909.0156,1910.0312,1910.531,1910.5311,1916.5484,9999.0,1916.5487,0.0,1917.5477,5.0,22.0,172.0,6.0,1.0,1.0,0.7,Time
,,S17,1,Female,36,anonymized,Serial_Dependence_U,2023.2.3,Win32,59.52380952,,,,,,,,,,,,1917.5484,5.0,1917.5486,,,,1920.0817,1920.5806,1919.5651,1920.0815,1918.5485,86.0,1919.5649,1920.5807,1921.081,1921.0811,1927.0979,9999.0,1927.0981,0.0,1928.0971,5.0,23.0,173.0,1.0,1.0,1.0,0.3,Time
,,S17,1,Female,36,anonymized,Serial_Dependence_U,2023.2.3,Win32,59.52380952,,,,,,,,,,,,1928.0978,5.0,1928.0982,,,,1931.2477,1931.747,1930.7311,1931.2476,1929.1146,146.0,1930.7309,1931.747,1932.2467,1932.2469,1938.2639,9999.0,1938.2641,0.0,1939.263,5.0,24.0,174.0,24.0,1.0,1.6,0.3,Time
,,S17,1,Female,36,anonymized,Serial_Dependence_U,2023.2.3,Win32,59.52380952,,,,,,,,,,,,1939.2636,5.0,1939.2638,,,,1941.8138,1942.3129,1941.2972,1941.8136,1940.2807,204.0,1941.2971,1942.3129,1942.8129,1942.8132,1948.8302,9999.0,1948.8304,0.0,1949.8294,5.0,25.0,175.0,11.0,1.0,1.0,0.3,Time
,,S17,1,Female,36,anonymized,Serial_Dependence_U,2023.2.3,Win32,59.52380952,,,,,,,,,,,,1949.83,5.0,1949.8302,,,,1952.58,1953.0796,1952.0635,1952.5799,1950.8467,355.0,1952.0633,1953.0796,1953.579,1953.5791,1959.5959,9999.0,1959.5961,0.0,1960.5953,5.0,26.0,176.0,22.0,1.0,1.2,0.3,Time
,,S17,1,Female,36,anonymized,Serial_Dependence_U,2023.2.3,Win32,59.52380952,,,,,,,,,,,,1960.5959,5.0,1960.596,,,,1962.9464,1963.4451,1962.4293,1962.9464,1961.6125,336.0,1962.4292,1963.4451,1963.945,1963.9451,1969.9462,9999.0,1969.9464,0.0,1970.9451,5.0,27.0,177.0,5.0,1.0,0.8,0.7,Time
,,S17,1,Female,36,anonymized,Serial_Dependence_U,2023.2.3,Win32,59.52380952,,,,,,,,,,,,1970.9456,5.0,1970.9462,,,,1973.6959,1974.1949,1973.179,1973.6957,1971.9628,198.0,1973.1788,1974.1949,1974.695,1974.6952,1980.712,9999.0,1980.7121,0.0,1981.7121,5.0,28.0,178.0,17.0,1.0,1.2,0.7,Time
,,S17,1,Female,36,anonymized,Serial_Dependence_U,2023.2.3,Win32,59.52380952,,,,,,,,,,,,1981.7136,5.0,1981.7142,,,,1984.4628,1984.9609,1983.9476,1984.4625,1982.731,323.0,1983.9472,1984.961,1985.4611,1985.4612,1991.4782,9999.0,1991.4785,0.0,1992.4775,5.0,29.0,179.0,27.0,1.0,1.2,0.7,Time
,,S17,1,Female,36,anonymized,Serial_Dependence_U,2023.2.3,Win32,59.52380952,,,,,,,,,,,,1992.478,6.0,1992.6607,s,0.1611,,1995.8113,1996.3105,1995.2948,1995.8111,1993.6787,78.0,1995.2946,1996.3105,1996.8107,1996.8107,2002.8275,9999.0,2002.8278,0.0,2003.8269,6.0,0.0,180.0,4.0,1.0,1.6,0.3,Time
,,S17,1,Female,36,anonymized,Serial_Dependence_U,2023.2.3,Win32,59.52380952,,,,,,,,,,,,2003.8275,6.0,2003.8298,,,,2006.5774,2007.0766,2006.0604,2006.5772,2004.8441,335.0,2006.0603,2007.0767,2007.5765,2007.5768,2013.5934,9999.0,2013.5936,0.0,2014.5927,6.0,1.0,181.0,7.0,1.0,1.2,0.7,Time
,,S17,1,Female,36,anonymized,Serial_Dependence_U,2023.2.3,Win32,59.52380952,,,,,,,,,,,,2014.5935,6.0,2014.5937,,,,2017.1436,2017.6427,2016.6269,2017.1436,2015.6113,145.0,2016.6268,2017.6428,2018.143,2018.143,2024.1599,9999.0,2024.1603,0.0,2025.1591,6.0,2.0,182.0,1.0,1.0,1.0,0.3,Time
,,S17,1,Female,36,anonymized,Serial_Dependence_U,2023.2.3,Win32,59.52380952,,,,,,,,,,,,2025.1598,6.0,2025.1602,,,,2027.6785,2028.1758,2027.1761,2027.6782,2026.1627,146.0,2027.1759,2028.1759,2028.6759,2028.6761,2034.6925,9999.0,2034.6928,0.0,2035.692,6.0,3.0,183.0,26.0,1.0,1.0,0.7,Time
,,S17,1,Female,36,anonymized,Serial_Dependence_U,2023.2.3,Win32,59.52380952,,,,,,,,,,,,2035.6925,6.0,2035.6927,,,,2038.8426,2039.3417,2038.3261,2038.8425,2036.7097,152.0,2038.3259,2039.3418,2039.8415,2039.8415,2045.8587,9999.0,2045.859,0.0,2046.858,6.0,4.0,184.0,9.0,1.0,1.6,0.7,Time
,,S17,1,Female,36,anonymized,Serial_Dependence_U,2023.2.3,Win32,59.52380952,,,,,,,,,,,,2046.8587,6.0,2046.859,,,,2049.6087,2050.1079,2049.0922,2049.6086,2047.8756,336.0,2049.0921,2050.1079,2050.6079,2050.6079,2056.6248,9999.0,2056.6251,0.0,2057.6242,6.0,5.0,185.0,12.0,1.0,1.2,0.3,Time
,,S17,1,Female,36,anonymized,Serial_Dependence_U,2023.2.3,Win32,59.52380952,,,,,,,,,,,,2057.6249,6.0,2057.6251,,,,2059.9749,2060.4742,2059.4583,2059.9747,2058.6419,217.0,2059.4582,2060.4743,2060.9741,2060.9742,2066.9911,9999.0,2066.9913,0.0,2067.9904,6.0,6.0,186.0,5.0,1.0,0.8,0.7,Time
,,S17,1,Female,36,anonymized,Serial_Dependence_U,2023.2.3,Win32,59.52380952,,,,,,,,,,,,2067.9912,6.0,2067.9915,,,,2070.7411,2071.2403,2070.2246,2070.7409,2069.008,246.0,2070.2244,2071.2403,2071.7401,2071.7402,2077.7573,9999.0,2077.7576,0.0,2078.7563,6.0,7.0,187.0,2.0,1.0,1.2,0.3,Time
,,S17,1,Female,36,anonymized,Serial_Dependence_U,2023.2.3,Win32,59.52380952,,,,,,,,,,,,2078.757,6.0,2078.7573,,,,2081.2903,2081.7893,2080.7736,2081.2901,2079.7571,156.0,2080.7733,2081.7894,2082.2895,2082.2896,2088.3066,9999.0,2088.3068,0.0,2089.306,6.0,8.0,188.0,21.0,1.0,1.0,0.3,Time
,,S17,1,Female,36,anonymized,Serial_Dependence_U,2023.2.3,Win32,59.52380952,,,,,,,,,,,,2089.3066,6.0,2089.3068,,,,2092.2566,2092.7564,2091.7398,2092.2565,2090.3232,198.0,2091.7397,2092.7565,2093.256,2093.2561,2099.2581,9999.0,2099.2592,0.0,2100.256,6.0,9.0,189.0,18.0,1.0,1.4,0.7,Time
,,S17,1,Female,36,anonymized,Serial_Dependence_U,2023.2.3,Win32,59.52380952,,,,,,,,,,,,2100.2575,6.0,2100.2581,,,,2102.8079,2103.3058,2102.2931,2102.8076,2101.2749,356.0,2102.2927,2103.3058,2103.8081,2103.8082,2109.8221,9999.0,2109.8224,0.0,2110.8215,6.0,10.0,190.0,6.0,1.0,1.0,0.7,Time
,,S17,1,Female,36,anonymized,Serial_Dependence_U,2023.2.3,Win32,59.52380952,,,,,,,,,,,,2110.8224,6.0,2110.8226,,,,2113.3722,2113.8716,2112.8555,2113.372,2111.8391,43.0,2112.8555,2113.8716,2114.3721,2114.3721,2120.3884,9999.0,2120.3886,0.0,2121.3876,6.0,11.0,191.0,16.0,1.0,1.0,0.7,Time
,,S17,1,Female,36,anonymized,Serial_Dependence_U,2023.2.3,Win32,59.52380952,,,,,,,,,,,,2121.3884,6.0,2121.3886,,,,2123.7384,2124.2376,2123.2218,2123.7383,2122.4053,185.0,2123.2217,2124.2376,2124.7387,2124.7387,2130.7545,9999.0,2130.7548,0.0,2131.7541,6.0,12.0,192.0,15.0,1.0,0.8,0.7,Time
,,S17,1,Female,36,anonymized,Serial_Dependence_U,2023.2.3,Win32,59.52380952,,,,,,,,,,,,2131.7547,6.0,2131.7549,,,,2134.7046,2135.2033,2134.1875,2134.7045,2132.7715,39.0,2134.1874,2135.2033,2135.7037,2135.7037,2141.7204,9999.0,2141.7207,0.0,2142.7198,6.0,13.0,193.0,3.0,1.0,1.4,0.3,Time
,,S17,1,Female,36,anonymized,Serial_Dependence_U,2023.2.3,Win32,59.52380952,,,,,,,,,,,,2142.7203,6.0,2142.7206,,,,2145.6538,2146.1534,2145.138,2145.6537,2143.737,130.0,2145.1378,2146.1535,2146.6531,2146.6531,2152.6708,9999.0,2152.6711,0.0,2153.6696,6.0,14.0,194.0,13.0,1.0,1.4,0.3,Time
,,S17,1,Female,36,anonymized,Serial_Dependence_U,2023.2.3,Win32,59.52380952,,,,,,,,,,,,2153.6703,6.0,2153.6707,,,,2156.0033,2156.5027,2155.4873,2156.0033,2154.6711,43.0,2155.4871,2156.5028,2157.0027,2157.0028,2163.0196,9999.0,2163.0199,0.0,2164.0193,6.0,15.0,195.0,10.0,1.0,0.8,0.3,Time
,,S17,1,Female,36,anonymized,Serial_Dependence_U,2023.2.3,Win32,59.52380952,,,,,,,,,,,,2164.0202,6.0,2164.0208,,,,2167.1695,2167.6687,2166.6529,2167.1694,2165.0375,155.0,2166.6528,2167.6689,2168.1688,2168.1689,2174.186,9999.0,2174.1863,0.0,2175.1852,6.0,16.0,196.0,19.0,1.0,1.6,0.7,Time
,,S17,1,Female,36,anonymized,Serial_Dependence_U,2023.2.3,Win32,59.52380952,,,,,,,,,,,,2175.1858,6.0,2175.1859,,,,2178.1358,2178.6349,2177.6193,2178.1356,2176.2025,261.0,2177.6191,2178.6349,2179.135,2179.135,2185.1518,9999.0,2185.1521,0.0,2186.1515,6.0,17.0,197.0,23.0,1.0,1.4,0.3,Time
,,S17,1,Female,36,anonymized,Serial_Dependence_U,2023.2.3,Win32,59.52380952,,,,,,,,,,,,2186.152,6.0,2186.1522,,,,2188.9019,2189.4011,2188.3854,2188.9018,2187.1689,296.0,2188.3852,2189.4011,2189.901,2189.901,2195.9183,9999.0,2195.9185,0.0,2196.9175,6.0,18.0,198.0,17.0,1.0,1.2,0.7,Time
,,S17,1,Female,36,anonymized,Serial_Dependence_U,2023.2.3,Win32,59.52380952,,,,,,,,,,,,2196.918,6.0,2196.9183,,,,2200.0677,2200.5669,2199.5511,2200.0675,2197.9351,217.0,2199.551,2200.5669,2201.067,2201.067,2207.0839,9999.0,2207.0842,0.0,2208.0839,6.0,19.0,199.0,29.0,1.0,1.6,0.7,Time
,,S17,1,Female,36,anonymized,Serial_Dependence_U,2023.2.3,Win32,59.52380952,,,,,,,,,,,,2208.0843,6.0,2208.0845,,,,2211.2342,2211.7331,2210.7181,2211.234,2209.1006,180.0,2210.7179,2211.7332,2212.2336,2212.2336,2218.2503,9999.0,2218.2506,0.0,2219.2496,6.0,20.0,200.0,24.0,1.0,1.6,0.3,Time
,,S17,1,Female,36,anonymized,Serial_Dependence_U,2023.2.3,Win32,59.52380952,,,,,,,,,,,,2219.2501,6.0,2219.2503,,,,2221.8002,2222.3001,2221.2836,2221.8001,2220.267,40.0,2221.2835,2222.3002,2222.7999,2222.8,2228.8163,9999.0,2228.8166,0.0,2229.8154,6.0,21.0,201.0,11.0,1.0,1.0,0.3,Time
,,S17,1,Female,36,anonymized,Serial_Dependence_U,2023.2.3,Win32,59.52380952,,,,,,,,,,,,2229.8161,6.0,2229.8162,,,,2232.7496,2233.2487,2232.2329,2232.7494,2230.8166,347.0,2232.2328,2233.2488,2233.7493,2233.7494,2239.7658,9999.0,2239.7661,0.0,2240.7659,6.0,22.0,202.0,8.0,1.0,1.4,0.7,Time
,,S17,1,Female,36,anonymized,Serial_Dependence_U,2023.2.3,Win32,59.52380952,,,,,,,,,,,,2240.7668,6.0,2240.7673,,,,2243.5159,2244.0155,2242.9995,2243.5158,2241.7828,128.0,2242.9993,2244.0155,2244.5153,2244.5153,2250.5184,9999.0,2250.5186,0.0,2251.5153,6.0,23.0,203.0,27.0,1.0,1.2,0.7,Time
,,S17,1,Female,36,anonymized,Serial_Dependence_U,2023.2.3,Win32,59.52380952,,,,,,,,,,,,2251.516,6.0,2251.5163,,,,2254.2514,2254.7486,2253.7348,2254.2513,2252.5181,191.0,2253.7347,2254.7486,2255.2495,2255.2495,2261.2677,9999.0,2261.2679,0.0,2262.2646,6.0,24.0,204.0,22.0,1.0,1.2,0.3,Time
,,S17,1,Female,36,anonymized,Serial_Dependence_U,2023.2.3,Win32,59.52380952,,,,,,,,,,,,2262.2652,6.0,2262.2654,,,,2264.601,2265.0974,2264.0844,2264.6009,2263.2673,182.0,2264.0842,2265.0976,2265.6005,2265.6006,2271.6173,9999.0,2271.6175,0.0,2272.6141,6.0,25.0,205.0,25.0,1.0,0.8,0.7,Time
,,S17,1,Female,36,anonymized,Serial_Dependence_U,2023.2.3,Win32,59.52380952,,,,,,,,,,,,2272.6148,6.0,2272.615,,,,2275.7329,2276.2305,2275.2314,2275.7328,2273.6169,7.0,2275.231,2276.2305,2276.731,2276.731,2282.7524,9999.0,2282.7529,0.0,2283.7472,6.0,26.0,206.0,14.0,1.0,1.6,0.3,Time
,,S17,1,Female,36,anonymized,Serial_Dependence_U,2023.2.3,Win32,59.52380952,,,,,,,,,,,,2283.7481,6.0,2283.7484,,,,2286.6995,2287.1987,2286.1831,2286.6993,2284.7672,233.0,2286.183,2287.1988,2287.6989,2287.6989,2293.7152,9999.0,2293.7153,0.0,2294.7132,6.0,27.0,207.0,28.0,1.0,1.4,0.7,Time
,,S17,1,Female,36,anonymized,Serial_Dependence_U,2023.2.3,Win32,59.52380952,,,,,,,,,,,,2294.7138,6.0,2294.714,,,,2297.0326,2297.5299,2296.5303,2297.0325,2295.7164,59.0,2296.53,2297.53,2298.0296,2298.0297,2304.0489,9999.0,2304.0498,0.0,2305.0467,6.0,28.0,208.0,20.0,1.0,0.8,0.3,Time
,,S17,1,Female,36,anonymized,Serial_Dependence_U,2023.2.3,Win32,59.52380952,,,,,,,,,,,,2305.0482,6.0,2305.0489,,,,2307.3821,2307.8793,2306.8655,2307.3819,2306.0506,355.0,2306.8653,2307.8794,2308.3786,2308.3788,2314.3818,9999.0,2314.382,0.0,2315.3789,6.0,29.0,209.0,0.0,1.0,0.8,0.3,Time
,,S17,1,Female,36,anonymized,Serial_Dependence_U,2023.2.3,Win32,59.52380952,,,,,,,,,,,,2315.3797,7.0,2317.129,s,1.7294,,2319.6482,2320.1452,2319.1458,2319.6481,2318.131,65.0,2319.1456,2320.1453,2320.646,2320.646,2326.6478,9999.0,2326.648,0.0,2327.6466,7.0,0.0,210.0,21.0,1.0,1.0,0.3,Time
,,S17,1,Female,36,anonymized,Serial_Dependence_U,2023.2.3,Win32,59.52380952,,,,,,,,,,,,2327.6471,7.0,2327.6489,,,,2330.5822,2331.079,2330.0653,2330.5821,2328.6485,16.0,2330.0652,2331.0791,2331.5801,2331.5803,2337.5831,9999.0,2337.5836,0.0,2338.578,7.0,1.0,211.0,18.0,1.0,1.4,0.7,Time
,,S17,1,Female,36,anonymized,Serial_Dependence_U,2023.2.3,Win32,59.52380952,,,,,,,,,,,,2338.5811,7.0,2338.5817,,,,2340.9166,2341.4136,2340.4001,2340.9163,2339.5817,86.0,2340.3997,2341.4136,2341.9134,2341.9135,2347.93,9999.0,2347.9302,0.0,2348.9271,7.0,2.0,212.0,15.0,1.0,0.8,0.7,Time
,,S17,1,Female,36,anonymized,Serial_Dependence_U,2023.2.3,Win32,59.52380952,,,,,,,,,,,,2348.9276,7.0,2348.9279,,,,2352.0632,2352.5604,2351.5446,2352.0631,2349.9296,299.0,2351.5444,2352.5604,2353.06,2353.0602,2359.0653,9999.0,2359.0659,0.0,2360.0601,7.0,3.0,213.0,24.0,1.0,1.6,0.3,Time
,,S17,1,Female,36,anonymized,Serial_Dependence_U,2023.2.3,Win32,59.52380952,,,,,,,,,,,,2360.0619,7.0,2360.0626,,,,2362.7962,2363.2933,2362.2827,2362.7961,2361.0795,277.0,2362.2825,2363.2933,2363.7945,2363.7945,2369.8001,9999.0,2369.8004,0.0,2370.7942,7.0,4.0,214.0,7.0,1.0,1.2,0.7,Time
,,S17,1,Female,36,anonymized,Serial_Dependence_U,2023.2.3,Win32,59.52380952,,,,,,,,,,,,2370.7947,7.0,2370.7949,,,,2373.7279,2374.2263,2373.2138,2373.7279,2371.7982,19.0,2373.2135,2374.2264,2374.7255,2374.7258,2380.7287,9999.0,2380.7288,0.0,2381.7269,7.0,5.0,215.0,13.0,1.0,1.4,0.3,Time
,,S17,1,Female,36,anonymized,Serial_Dependence_U,2023.2.3,Win32,59.52380952,,,,,,,,,,,,2381.7274,7.0,2381.7278,,,,2384.4627,2384.9589,2383.9495,2384.4625,2382.7292,262.0,2383.9493,2384.9589,2385.4589,2385.459,2391.461,9999.0,2391.4614,0.0,2392.4602,7.0,6.0,216.0,2.0,1.0,1.2,0.3,Time
,,S17,1,Female,36,anonymized,Serial_Dependence_U,2023.2.3,Win32,59.52380952,,,,,,,,,,,,2392.4607,7.0,2392.461,,,,2395.1794,2395.6752,2394.6641,2395.1793,2393.4617,44.0,2394.6639,2395.6752,2396.1755,2396.1755,2402.1773,9999.0,2402.1776,0.0,2403.1749,7.0,7.0,217.0,17.0,1.0,1.2,0.7,Time
,,S17,1,Female,36,anonymized,Serial_Dependence_U,2023.2.3,Win32,59.52380952,,,,,,,,,,,,2403.1761,7.0,2403.1768,,,,2406.2955,2406.793,2405.7936,2406.2952,2404.1797,262.0,2405.7934,2406.793,2407.2931,2407.2932,2413.2939,9999.0,2413.2941,0.0,2414.2907,7.0,8.0,218.0,4.0,1.0,1.6,0.3,Time
,,S17,1,Female,36,anonymized,Serial_Dependence_U,2023.2.3,Win32,59.52380952,,,,,,,,,,,,2414.2913,7.0,2414.2916,,,,2416.8243,2417.3238,2416.3102,2416.8241,2415.2961,191.0,2416.3102,2417.3238,2417.8259,2417.8259,2423.829,9999.0,2423.8295,0.0,2424.8244,7.0,9.0,219.0,6.0,1.0,1.0,0.7,Time
,,S17,1,Female,36,anonymized,Serial_Dependence_U,2023.2.3,Win32,59.52380952,,,,,,,,,,,,2424.8257,7.0,2424.8263,,,,2427.7429,2428.2401,2427.2404,2427.7427,2425.8274,204.0,2427.2403,2428.2401,2428.7415,2428.7416,2434.7568,9999.0,2434.757,0.0,2435.7569,7.0,10.0,220.0,8.0,1.0,1.4,0.7,Time
,,S17,1,Female,36,anonymized,Serial_Dependence_U,2023.2.3,Win32,59.52380952,,,,,,,,,,,,2435.7576,7.0,2435.7579,,,,2438.0923,2438.5893,2437.5906,2438.0923,2436.7764,0.0,2437.5904,2438.5895,2439.0897,2439.0899,2445.0924,9999.0,2445.0928,0.0,2446.0897,7.0,11.0,221.0,25.0,1.0,0.8,0.7,Time
,,S17,1,Female,36,anonymized,Serial_Dependence_U,2023.2.3,Win32,59.52380952,,,,,,,,,,,,2446.0905,7.0,2446.0909,,,,2449.2253,2449.7242,2448.7086,2449.2252,2447.0921,342.0,2448.7085,2449.7243,2450.2241,2450.2241,2456.2276,9999.0,2456.2282,0.0,2457.2227,7.0,12.0,222.0,14.0,1.0,1.6,0.3,Time
,,S17,1,Female,36,anonymized,Serial_Dependence_U,2023.2.3,Win32,59.52380952,,,,,,,,,,,,2457.2239,7.0,2457.2244,,,,2459.7589,2460.2553,2459.2435,2459.7588,2458.2277,61.0,2459.2433,2460.2553,2460.7554,2460.7555,2466.7584,9999.0,2466.7587,0.0,2467.755,7.0,13.0,223.0,26.0,1.0,1.0,0.7,Time
,,S17,1,Female,36,anonymized,Serial_Dependence_U,2023.2.3,Win32,59.52380952,,,,,,,,,,,,2467.7558,7.0,2467.756,,,,2470.291,2470.7879,2469.7743,2470.2909,2468.758,112.0,2469.7742,2470.788,2471.29,2471.29,2477.307,9999.0,2477.3071,0.0,2478.304,7.0,14.0,224.0,11.0,1.0,1.0,0.3,Time
,,S17,1,Female,36,anonymized,Serial_Dependence_U,2023.2.3,Win32,59.52380952,,,,,,,,,,,,2478.3046,7.0,2478.3048,,,,2481.2404,2481.7375,2480.724,2481.2402,2479.3078,255.0,2480.7238,2481.7375,2482.2392,2482.2393,2488.24,9999.0,2488.2402,0.0,2489.2372,7.0,15.0,225.0,3.0,1.0,1.4,0.3,Time
,,S17,1,Female,36,anonymized,Serial_Dependence_U,2023.2.3,Win32,59.52380952,,,,,,,,,,,,2489.2377,7.0,2489.2383,,,,2491.7735,2492.2702,2491.2568,2491.7734,2490.2408,38.0,2491.2566,2492.2702,2492.7703,2492.7705,2498.7726,9999.0,2498.7728,0.0,2499.7699,7.0,16.0,226.0,1.0,1.0,1.0,0.3,Time
,,S17,1,Female,36,anonymized,Serial_Dependence_U,2023.2.3,Win32,59.52380952,,,,,,,,,,,,2499.7705,7.0,2499.7708,,,,2502.3036,2502.8029,2501.7893,2502.3035,2500.7729,109.0,2501.7892,2502.8029,2503.3033,2503.3033,2509.3057,9999.0,2509.306,0.0,2510.3024,7.0,17.0,227.0,16.0,1.0,1.0,0.7,Time
,,S17,1,Female,36,anonymized,Serial_Dependence_U,2023.2.3,Win32,59.52380952,,,,,,,,,,,,2510.303,7.0,2510.3032,,,,2512.6238,2513.1212,2512.1227,2512.6236,2511.3062,45.0,2512.1226,2513.1214,2513.619,2513.6192,2519.6217,9999.0,2519.6219,0.0,2520.621,7.0,18.0,228.0,20.0,1.0,0.8,0.3,Time
,,S17,1,Female,36,anonymized,Serial_Dependence_U,2023.2.3,Win32,59.52380952,,,,,,,,,,,,2520.6215,7.0,2520.6217,,,,2523.7511,2524.2561,2523.2409,2523.7505,2521.6215,210.0,2523.2405,2524.2561,2524.7529,2524.753,2530.7554,9999.0,2530.7557,0.0,2531.7522,7.0,19.0,229.0,29.0,1.0,1.6,0.7,Time
,,S17,1,Female,36,anonymized,Serial_Dependence_U,2023.2.3,Win32,59.52380952,,,,,,,,,,,,2531.7529,7.0,2531.753,,,,2534.4718,2534.97,2533.9702,2534.4717,2532.7545,134.0,2533.97,2534.9701,2535.4681,2535.4682,2541.4718,9999.0,2541.472,0.0,2542.4681,7.0,20.0,230.0,27.0,1.0,1.2,0.7,Time
,,S17,1,Female,36,anonymized,Serial_Dependence_U,2023.2.3,Win32,59.52380952,,,,,,,,,,,,2542.4688,7.0,2542.4692,,,,2544.8031,2545.3009,2544.2872,2544.803,2543.4714,227.0,2544.2871,2545.301,2545.802,2545.802,2551.8034,9999.0,2551.8037,0.0,2552.8004,7.0,21.0,231.0,5.0,1.0,0.8,0.7,Time
,,S17,1,Female,36,anonymized,Serial_Dependence_U,2023.2.3,Win32,59.52380952,,,,,,,,,,,,2552.8011,7.0,2552.8014,,,,2555.1343,2555.6359,2554.6201,2555.1341,2553.8035,238.0,2554.6201,2555.6359,2556.1336,2556.1338,2562.1368,9999.0,2562.137,0.0,2563.1343,7.0,22.0,232.0,10.0,1.0,0.8,0.3,Time
,,S17,1,Female,36,anonymized,Serial_Dependence_U,2023.2.3,Win32,59.52380952,,,,,,,,,,,,2563.1348,7.0,2563.1352,,,,2566.0696,2566.5687,2565.5533,2566.0696,2564.1366,185.0,2565.5531,2566.5688,2567.067,2567.067,2573.0689,9999.0,2573.0692,0.0,2574.0663,7.0,23.0,233.0,23.0,1.0,1.4,0.3,Time
,,S17,1,Female,36,anonymized,Serial_Dependence_U,2023.2.3,Win32,59.52380952,,,,,,,,,,,,2574.0667,7.0,2574.067,,,,2577.217,2577.7178,2576.7024,2577.2169,2575.0857,32.0,2576.7023,2577.7179,2578.2159,2578.216,2584.2178,9999.0,2584.2181,0.0,2585.2159,7.0,24.0,234.0,19.0,1.0,1.6,0.7,Time
,,S17,1,Female,36,anonymized,Serial_Dependence_U,2023.2.3,Win32,59.52380952,,,,,,,,,,,,2585.2168,7.0,2585.2171,,,,2588.3341,2588.8319,2587.833,2588.334,2586.2187,342.0,2587.8329,2588.8319,2589.334,2589.334,2595.3347,9999.0,2595.335,0.0,2596.3319,7.0,25.0,235.0,9.0,1.0,1.6,0.7,Time
,,S17,1,Female,36,anonymized,Serial_Dependence_U,2023.2.3,Win32,59.52380952,,,,,,,,,,,,2596.3325,7.0,2596.3329,,,,2599.0659,2599.565,2598.5522,2599.0658,2597.3353,335.0,2598.5521,2599.5652,2600.0667,2600.0668,2606.0848,9999.0,2606.085,0.0,2607.0814,7.0,26.0,236.0,12.0,1.0,1.2,0.3,Time
,,S17,1,Female,36,anonymized,Serial_Dependence_U,2023.2.3,Win32,59.52380952,,,,,,,,,,,,2607.0818,7.0,2607.0821,,,,2610.0173,2610.5139,2609.501,2610.0172,2608.0843,200.0,2609.5008,2610.5141,2611.0141,2611.0143,2617.0171,9999.0,2617.0173,0.0,2618.0144,7.0,27.0,237.0,28.0,1.0,1.4,0.7,Time
,,S17,1,Female,36,anonymized,Serial_Dependence_U,2023.2.3,Win32,59.52380952,,,,,,,,,,,,2618.0149,7.0,2618.0153,,,,2620.367,2620.8642,2619.8505,2620.3669,2619.0338,145.0,2619.8504,2620.8642,2621.3656,2621.3656,2627.3665,9999.0,2627.3667,0.0,2628.3635,7.0,28.0,238.0,0.0,1.0,0.8,0.3,Time
,,S17,1,Female,36,anonymized,Serial_Dependence_U,2023.2.3,Win32,59.52380952,,,,,,,,,,,,2628.3641,7.0,2628.3644,,,,2631.083,2631.5807,2630.5806,2631.0828,2629.3665,3.0,2630.5804,2631.5807,2632.0801,2632.0802,2638.0829,9999.0,2638.083,0.0,2639.08,7.0,29.0,239.0,22.0,1.0,1.2,0.3,Time
,,S17,1,Female,36,anonymized,Serial_Dependence_U,2023.2.3,Win32,59.52380952,,,,,,,,,,,,2639.0805,8.0,2641.4301,s,2.3217,,2643.9655,2644.4628,2643.4496,2643.9653,2642.4333,223.0,2643.4495,2644.4629,2644.9649,2644.9651,2650.9822,9999.0,2650.9824,0.0,2651.9787,8.0,0.0,240.0,26.0,1.0,1.0,0.7,Time
,,S17,1,Female,36,anonymized,Serial_Dependence_U,2023.2.3,Win32,59.52380952,,,,,,,,,,,,2651.9795,8.0,2651.9813,,,,2654.5157,2655.013,2653.9986,2654.5155,2652.9822,322.0,2653.9985,2655.013,2655.5148,2655.5148,2661.5315,9999.0,2661.5316,0.0,2662.529,8.0,1.0,241.0,16.0,1.0,1.0,0.7,Time
,,S17,1,Female,36,anonymized,Serial_Dependence_U,2023.2.3,Win32,59.52380952,,,,,,,,,,,,2662.5297,8.0,2662.53,,,,2665.2649,2665.7622,2664.7488,2665.2648,2663.5323,235.0,2664.7487,2665.7622,2666.262,2666.2621,2672.2644,9999.0,2672.2646,0.0,2673.2617,8.0,2.0,242.0,2.0,1.0,1.2,0.3,Time
,,S17,1,Female,36,anonymized,Serial_Dependence_U,2023.2.3,Win32,59.52380952,,,,,,,,,,,,2673.2631,8.0,2673.2634,,,,2676.1976,2676.695,2675.6814,2676.1975,2674.2647,66.0,2675.6813,2676.6951,2677.1949,2677.195,2683.1974,9999.0,2683.1976,0.0,2684.1937,8.0,3.0,243.0,13.0,1.0,1.4,0.3,Time
,,S17,1,Female,36,anonymized,Serial_Dependence_U,2023.2.3,Win32,59.52380952,,,,,,,,,,,,2684.1944,8.0,2684.1947,,,,2686.9305,2687.429,2686.4128,2686.9304,2685.1972,83.0,2686.4126,2687.4291,2687.9276,2687.9276,2693.9296,9999.0,2693.9299,0.0,2694.9266,8.0,4.0,244.0,17.0,1.0,1.2,0.7,Time
,,S17,1,Female,36,anonymized,Serial_Dependence_U,2023.2.3,Win32,59.52380952,,,,,,,,,,,,2694.9275,8.0,2694.9277,,,,2698.0775,2698.5772,2697.5632,2698.0774,2695.9465,111.0,2697.5631,2698.5772,2699.077,2699.077,2705.08,9999.0,2705.0802,0.0,2706.0768,8.0,5.0,245.0,24.0,1.0,1.6,0.3,Time
,,S17,1,Female,36,anonymized,Serial_Dependence_U,2023.2.3,Win32,59.52380952,,,,,,,,,,,,2706.0776,8.0,2706.0778,,,,2708.4301,2708.927,2707.9134,2708.43,2707.0967,259.0,2707.9132,2708.927,2709.4288,2709.429,2715.4431,9999.0,2715.4434,0.0,2716.4424,8.0,6.0,246.0,0.0,1.0,0.8,0.3,Time
,,S17,1,Female,36,anonymized,Serial_Dependence_U,2023.2.3,Win32,59.52380952,,,,,,,,,,,,2716.4431,8.0,2716.4434,,,,2719.5789,2720.0774,2719.0624,2719.5788,2717.4458,136.0,2719.0623,2720.0774,2720.578,2720.578,2726.5954,9999.0,2726.5956,0.0,2727.5943,8.0,7.0,247.0,4.0,1.0,1.6,0.3,Time
,,S17,1,Female,36,anonymized,Serial_Dependence_U,2023.2.3,Win32,59.52380952,,,,,,,,,,,,2727.5949,8.0,2727.5953,,,,2729.945,2730.4439,2729.4283,2729.9448,2728.6097,84.0,2729.4281,2730.4439,2730.9439,2730.944,2736.9448,9999.0,2736.9449,0.0,2737.9418,8.0,8.0,248.0,15.0,1.0,0.8,0.7,Time
,,S17,1,Female,36,anonymized,Serial_Dependence_U,2023.2.3,Win32,59.52380952,,,,,,,,,,,,2737.9425,8.0,2737.9427,,,,2741.0777,2741.5742,2740.5613,2741.0777,2738.9444,280.0,2740.5612,2741.5743,2742.0746,2742.0747,2748.0773,9999.0,2748.0776,0.0,2749.0753,8.0,9.0,249.0,14.0,1.0,1.6,0.3,Time
,,S17,1,Female,36,anonymized,Serial_Dependence_U,2023.2.3,Win32,59.52380952,,,,,,,,,,,,2749.0758,8.0,2749.076,,,,2751.4087,2751.9075,2750.8933,2751.4085,2750.0798,0.0,2750.893,2751.9076,2752.4073,2752.4073,2758.4266,9999.0,2758.4268,0.0,2759.4251,8.0,10.0,250.0,10.0,1.0,0.8,0.3,Time
,,S17,1,Female,36,anonymized,Serial_Dependence_U,2023.2.3,Win32,59.52380952,,,,,,,,,,,,2759.4255,8.0,2759.4257,,,,2761.9603,2762.4569,2761.4434,2761.9602,2760.4266,355.0,2761.4433,2762.457,2762.9572,2762.9573,2768.9603,9999.0,2768.9605,0.0,2769.9569,8.0,11.0,251.0,21.0,1.0,1.0,0.3,Time
,,S17,1,Female,36,anonymized,Serial_Dependence_U,2023.2.3,Win32,59.52380952,,,,,,,,,,,,2769.9574,8.0,2769.9576,,,,2772.2934,2772.7902,2771.7763,2772.2933,2770.9604,97.0,2771.7762,2772.7903,2773.2904,2773.2904,2779.292,9999.0,2779.2922,0.0,2780.2898,8.0,12.0,252.0,5.0,1.0,0.8,0.7,Time
,,S17,1,Female,36,anonymized,Serial_Dependence_U,2023.2.3,Win32,59.52380952,,,,,,,,,,,,2780.2903,8.0,2780.2906,,,,2783.2262,2783.7227,2782.7091,2783.226,2781.2938,53.0,2782.709,2783.7228,2784.2227,2784.2228,2790.2253,9999.0,2790.2255,0.0,2791.2224,8.0,13.0,253.0,23.0,1.0,1.4,0.3,Time
,,S17,1,Female,36,anonymized,Serial_Dependence_U,2023.2.3,Win32,59.52380952,,,,,,,,,,,,2791.2232,8.0,2791.2235,,,,2794.1589,2794.6575,2793.6399,2794.1587,2792.2259,299.0,2793.6398,2794.6576,2795.1561,2795.1561,2801.158,9999.0,2801.1583,0.0,2802.1553,8.0,14.0,254.0,28.0,1.0,1.4,0.7,Time
,,S17,1,Female,36,anonymized,Serial_Dependence_U,2023.2.3,Win32,59.52380952,,,,,,,,,,,,2802.1559,8.0,2802.1562,,,,2804.6911,2805.1885,2804.1747,2804.6911,2803.1582,161.0,2804.1745,2805.1885,2805.6884,2805.6885,2811.6909,9999.0,2811.6911,0.0,2812.6881,8.0,15.0,255.0,1.0,1.0,1.0,0.3,Time
,,S17,1,Female,36,anonymized,Serial_Dependence_U,2023.2.3,Win32,59.52380952,,,,,,,,,,,,2812.6886,8.0,2812.689,,,,2815.4242,2815.921,2814.9078,2815.424,2813.6912,47.0,2814.9076,2815.9211,2816.4209,2816.4211,2822.4239,9999.0,2822.424,0.0,2823.4228,8.0,16.0,256.0,7.0,1.0,1.2,0.7,Time
,,S17,1,Female,36,anonymized,Serial_Dependence_U,2023.2.3,Win32,59.52380952,,,,,,,,,,,,2823.4232,8.0,2823.4234,,,,2826.557,2827.0539,2826.0407,2826.5568,2824.4234,322.0,2826.0406,2827.054,2827.554,2827.5541,2833.5729,9999.0,2833.5732,0.0,2834.5707,8.0,17.0,257.0,9.0,1.0,1.6,0.7,Time
,,S17,1,Female,36,anonymized,Serial_Dependence_U,2023.2.3,Win32,59.52380952,,,,,,,,,,,,2834.5713,8.0,2834.5716,,,,2837.7065,2838.2051,2837.19,2837.7063,2835.5737,89.0,2837.1899,2838.2051,2838.7031,2838.7032,2844.706,9999.0,2844.7061,0.0,2845.7032,8.0,18.0,258.0,19.0,1.0,1.6,0.7,Time
,,S17,1,Female,36,anonymized,Serial_Dependence_U,2023.2.3,Win32,59.52380952,,,,,,,,,,,,2845.7037,8.0,2845.7039,,,,2848.2395,2848.7365,2847.7229,2848.2394,2846.7065,42.0,2847.7228,2848.7365,2849.2364,2849.2365,2855.2559,9999.0,2855.2562,0.0,2856.2526,8.0,19.0,259.0,11.0,1.0,1.0,0.3,Time
,,S17,1,Female,36,anonymized,Serial_Dependence_U,2023.2.3,Win32,59.52380952,,,,,,,,,,,,2856.2532,8.0,2856.2534,,,,2858.9862,2859.4873,2858.472,2858.9859,2857.256,100.0,2858.472,2859.4873,2859.9853,2859.9854,2865.9885,9999.0,2865.9887,0.0,2866.9885,8.0,20.0,260.0,12.0,1.0,1.2,0.3,Time
,,S17,1,Female,36,anonymized,Serial_Dependence_U,2023.2.3,Win32,59.52380952,,,,,,,,,,,,2866.9892,8.0,2866.9895,,,,2869.9213,2870.4181,2869.4047,2869.9212,2867.9884,9.0,2869.4047,2870.4182,2870.9186,2870.9186,2876.9212,9999.0,2876.9213,0.0,2877.9182,8.0,21.0,261.0,18.0,1.0,1.4,0.7,Time
,,S17,1,Female,36,anonymized,Serial_Dependence_U,2023.2.3,Win32,59.52380952,,,,,,,,,,,,2877.9191,8.0,2877.9193,,,,2880.6386,2881.1371,2880.1248,2880.6385,2878.9215,43.0,2880.1245,2881.1371,2881.6349,2881.635,2887.6381,9999.0,2887.6383,0.0,2888.6343,8.0,22.0,262.0,27.0,1.0,1.2,0.7,Time
,,S17,1,Female,36,anonymized,Serial_Dependence_U,2023.2.3,Win32,59.52380952,,,,,,,,,,,,2888.6351,8.0,2888.6355,,,,2891.1534,2891.653,2890.64,2891.1533,2889.6381,299.0,2890.6397,2891.653,2892.1508,2892.1509,2898.1536,9999.0,2898.1538,0.0,2899.1509,8.0,23.0,263.0,6.0,1.0,1.0,0.7,Time
,,S17,1,Female,36,anonymized,Serial_Dependence_U,2023.2.3,Win32,59.52380952,,,,,,,,,,,,2899.1515,8.0,2899.1518,,,,2901.4698,2901.9688,2900.9679,2901.4696,2900.1538,80.0,2900.9677,2901.9689,2902.467,2902.4671,2908.4703,9999.0,2908.4704,0.0,2909.4668,8.0,24.0,264.0,20.0,1.0,0.8,0.3,Time
,,S17,1,Female,36,anonymized,Serial_Dependence_U,2023.2.3,Win32,59.52380952,,,,,,,,,,,,2909.4673,8.0,2909.4675,,,,2912.2195,2912.716,2911.7028,2912.2193,2910.4863,73.0,2911.7026,2912.716,2913.2175,2913.2175,2919.2192,9999.0,2919.2194,0.0,2920.2158,8.0,25.0,265.0,22.0,1.0,1.2,0.3,Time
,,S17,1,Female,36,anonymized,Serial_Dependence_U,2023.2.3,Win32,59.52380952,,,,,,,,,,,,2920.2165,8.0,2920.2168,,,,2922.552,2923.0511,2922.0353,2922.5519,2921.2191,344.0,2922.0352,2923.0511,2923.5493,2923.5494,2929.5519,9999.0,2929.5521,0.0,2930.5512,8.0,26.0,266.0,25.0,1.0,0.8,0.7,Time
,,S17,1,Female,36,anonymized,Serial_Dependence_U,2023.2.3,Win32,59.52380952,,,,,,,,,,,,2930.5518,8.0,2930.552,,,,2933.4849,2933.9841,2932.9684,2933.4848,2931.5522,294.0,2932.9683,2933.9841,2934.4835,2934.4836,2940.4866,9999.0,2940.4873,0.0,2941.483,8.0,27.0,267.0,3.0,1.0,1.4,0.3,Time
,,S17,1,Female,36,anonymized,Serial_Dependence_U,2023.2.3,Win32,59.52380952,,,,,,,,,,,,2941.4844,8.0,2941.4852,,,,2944.6035,2945.0984,2944.0987,2944.6032,2942.4847,236.0,2944.0985,2945.0985,2945.5984,2945.5985,2951.6017,9999.0,2951.6022,0.0,2952.5982,8.0,28.0,268.0,29.0,1.0,1.6,0.7,Time
,,S17,1,Female,36,anonymized,Serial_Dependence_U,2023.2.3,Win32,59.52380952,,,,,,,,,,,,2952.5989,8.0,2952.5994,,,,2955.5498,2956.0496,2955.0345,2955.5498,2953.6168,279.0,2955.0343,2956.0496,2956.5498,2956.5498,2962.5507,9999.0,2962.5509,0.0,2963.5475,8.0,29.0,269.0,8.0,1.0,1.4,0.7,Time
