Scale_setup.started,Scale_setup.stopped,participant,expid,session,sex,age,date,expName,psychopyVersion,OS,frameRate,Intro.started,Intro.stopped,key_resp_2.keys,key_resp_2.rt,key_resp_2.duration,block.started,direction,Block_id,block.stopped,trial_direction,Block_resp_2.keys,Block_resp_2.rt,Block_resp_2.duration,ITI.started,ITI.stopped,Mask_2.started,Mask_2.stopped,encoding.started,encoding.stopped,Cue.started,Cue.stopped,Response.started,Response.stopped,keyDuration,Feedback_Time.started,FeedbackID_T,Feedback_Time.stopped,trials.thisRepN,trials.thisTrialN,trials.thisN,trials.thisIndex,trials.ran,TimeDur,Coherence1,TrialType
9.99999642203e-05,0.000399999976139,S17,820531,1,男,20,anonymized,Serial_Dependence_U,2023.2.3,Win32,142.85714285714286,,,,,,,,,,,,,,,,,,,,,,,,,,,,,,,,,,,
,,S17,820531,1,男,20,anonymized,Serial_Dependence_U,2023.2.3,Win32,142.85714285714286,50.76479999995232,54.61169999998808,space,3.825800000011924,,,,,,,,,,,,,,,,,,,,,,,,,,,,,,,
,,S17,820531,1,男,20,anonymized,Serial_Dependence_U,2023.2.3,Win32,142.85714285714286,,,,,,54.61529999995233,329.0,0.0,58.36839999997616,329.0,s,3.735600000023851,,61.93359999996423,62.43069999998809,61.432199999988086,61.93350000000001,59.37119999998808,61.43209999996424,62.43089999997616,62.93069999998809,62.93079999995231,64.13499999999999,562.0,64.13519999998809,1.0,65.13219999998807,0.0,0.0,0.0,11.0,1.0,1.0,0.3,Time
,,S17,820531,1,男,20,anonymized,Serial_Dependence_U,2023.2.3,Win32,142.85714285714286,,,,,,65.13259999996424,8.0,0.0,65.13379999995232,8.0,,,,69.27789999997617,69.77309999996424,68.77359999996423,69.27789999997617,66.13909999996423,68.77359999996423,69.77309999996424,70.27079999995232,70.27079999995232,72.13459999996425,1272.0,72.13459999996425,2.0,73.1317999999523,0.0,1.0,1.0,9.0,1.0,1.6,0.7,Time
,,S17,820531,1,男,20,anonymized,Serial_Dependence_U,2023.2.3,Win32,142.85714285714286,,,,,,73.13209999996423,136.0,0.0,73.13209999996423,136.0,,,,76.4827999999523,76.97889999997616,75.97229999995233,76.4827999999523,74.13889999997616,75.97219999998808,76.97889999997616,77.47889999997616,77.47889999997616,78.77250000000001,882.0,78.77250000000001,4.0,79.7705,0.0,2.0,2.0,25.0,1.0,0.8,0.7,Time
,,S17,820531,1,男,20,anonymized,Serial_Dependence_U,2023.2.3,Win32,142.85714285714286,,,,,,79.77069999998807,313.0,0.0,79.77079999995232,313.0,,,,83.90950000000001,84.40929999995231,83.40519999998807,83.90939999997616,80.77339999997616,83.40509999996425,84.40929999995231,84.90919999998809,84.90919999998809,86.59879999995232,1304.0,86.59879999995232,2.0,87.59669999998809,0.0,3.0,3.0,29.0,1.0,1.6,0.7,Time
,,S17,820531,1,男,20,anonymized,Serial_Dependence_U,2023.2.3,Win32,142.85714285714286,,,,,,87.59700000000001,6.0,0.0,87.59709999996423,6.0,,,,90.97189999997616,91.47159999996424,90.46739999997617,90.97179999995232,88.60379999995232,90.46729999995232,91.47169999998808,91.97159999996424,91.97159999996424,92.77719999998808,535.0,92.77719999998808,1.0,93.77709999996424,0.0,4.0,4.0,0.0,1.0,0.8,0.3,Time
,,S17,820531,1,男,20,anonymized,Serial_Dependence_U,2023.2.3,Win32,142.85714285714286,,,,,,93.7772999999523,28.0,0.0,93.77739999997615,28.0,,,,97.95539999997617,98.45059999996424,97.44669999998808,97.95539999997617,94.77909999996425,97.44669999998808,98.45059999996424,98.95079999995232,98.95079999995232,100.16869999998808,911.0,100.16879999995233,1.0,101.16579999995233,0.0,5.0,5.0,4.0,1.0,1.6,0.3,Time
,,S17,820531,1,男,20,anonymized,Serial_Dependence_U,2023.2.3,Win32,142.85714285714286,,,,,,101.16609999996425,32.0,0.0,101.16609999996425,32.0,,,,104.91589999997616,105.41569999998808,104.409,104.91589999997616,102.17289999997617,104.40889999997616,105.41569999998808,105.91569999998808,105.91569999998808,107.49209999996424,1011.0,107.49209999996424,2.0,108.49189999997616,0.0,6.0,6.0,27.0,1.0,1.2,0.7,Time
,,S17,820531,1,男,20,anonymized,Serial_Dependence_U,2023.2.3,Win32,142.85714285714286,,,,,,108.49229999995232,127.0,0.0,108.49239999997616,127.0,,,,111.83939999997617,112.33909999996423,111.3325,111.83919999998808,109.49909999996424,111.33229999995233,112.33919999998808,112.83909999996423,112.83909999996423,114.43639999997616,1088.0,114.4365,5.0,115.432,0.0,7.0,7.0,5.0,1.0,0.8,0.7,Time
,,S17,820531,1,男,20,anonymized,Serial_Dependence_U,2023.2.3,Win32,142.85714285714286,,,,,,115.43219999998809,314.0,0.0,115.43239999997616,314.0,,,,119.20369999998807,119.7027999999523,118.69619999998808,119.20369999998807,116.43209999996424,118.69619999998808,119.7027999999523,120.20329999995232,120.20329999995232,121.19629999995232,563.0,121.19639999997617,1.0,122.19309999996425,0.0,8.0,8.0,2.0,1.0,1.2,0.3,Time
,,S17,820531,1,男,20,anonymized,Serial_Dependence_U,2023.2.3,Win32,142.85714285714286,,,,,,122.19329999995232,309.0,0.0,122.19339999997617,309.0,,,,126.13759999996424,126.63739999997615,125.63239999997616,126.13759999996424,123.20009999996424,125.63229999995232,126.63739999997615,127.13729999995232,127.13739999997615,128.58879999995233,1090.0,128.58879999995233,2.0,129.58879999995233,0.0,9.0,9.0,8.0,1.0,1.4,0.7,Time
,,S17,820531,1,男,20,anonymized,Serial_Dependence_U,2023.2.3,Win32,142.85714285714286,,,,,,129.589,6.0,0.0,129.58909999996425,6.0,,,,133.3622999999523,133.85939999997618,132.8585,133.3621999999881,130.59589999997615,132.8585,133.85939999997618,134.35939999997618,134.35939999997618,136.02619999998808,1016.0,136.02619999998808,2.0,137.026,0.0,10.0,10.0,12.0,1.0,1.2,0.3,Time
,,S17,820531,1,男,20,anonymized,Serial_Dependence_U,2023.2.3,Win32,142.85714285714286,,,,,,137.02619999998808,45.0,0.0,137.0262999999523,45.0,,,,140.99829999995234,141.4980999999642,140.49579999995234,140.99829999995234,138.02789999997617,140.49579999995234,141.4980999999642,141.9980999999642,141.9980999999642,143.18569999998806,889.0,143.18569999998806,1.0,144.1855,0.0,11.0,11.0,3.0,1.0,1.4,0.3,Time
,,S17,820531,1,男,20,anonymized,Serial_Dependence_U,2023.2.3,Win32,142.85714285714286,,,,,,144.18569999998806,218.0,0.0,144.1858999999762,218.0,,,,148.12609999996425,148.62289999997614,147.62489999997615,148.12609999996425,145.19259999996422,147.6247999999523,148.623,149.123,149.123,150.6367999999523,1201.0,150.63689999997615,2.0,151.6367999999523,0.0,12.0,12.0,28.0,1.0,1.4,0.7,Time
,,S17,820531,1,男,20,anonymized,Serial_Dependence_U,2023.2.3,Win32,142.85714285714286,,,,,,151.63709999996422,179.0,0.0,151.63719999998807,179.0,,,,155.616,156.11569999998807,155.10909999996426,155.616,152.64389999997616,155.10899999999998,156.11579999995234,156.61579999995234,156.61579999995234,158.3727999999523,1216.0,158.3727999999523,2.0,159.37269999998807,0.0,13.0,13.0,23.0,1.0,1.4,0.3,Time
,,S17,820531,1,男,20,anonymized,Serial_Dependence_U,2023.2.3,Win32,142.85714285714286,,,,,,159.37289999997614,228.0,0.0,159.37289999997614,228.0,,,,162.74789999997614,163.2475,162.24089999997614,162.7477999999523,160.38,162.24089999997614,163.2475,163.7475,163.7475,165.06009999996422,861.0,165.06019999998807,4.0,166.06009999996422,0.0,14.0,14.0,10.0,1.0,0.8,0.3,Time
,,S17,820531,1,男,20,anonymized,Serial_Dependence_U,2023.2.3,Win32,142.85714285714286,,,,,,166.0602999999523,263.0,0.0,166.06039999997614,263.0,,,,170.23369999998806,170.7335,169.72679999995233,170.23369999998806,167.06019999998807,169.72669999998806,170.7335999999642,171.23339999997614,171.23339999997614,174.92789999997615,1119.0,174.92789999997615,1.0,175.9277999999523,0.0,15.0,15.0,24.0,1.0,1.6,0.3,Time
,,S17,820531,1,男,20,anonymized,Serial_Dependence_U,2023.2.3,Win32,142.85714285714286,,,,,,175.928,207.0,0.0,175.92809999996422,207.0,,,,179.47659999996426,179.9762999999523,178.96949999999998,179.47659999996426,176.93489999997615,178.96949999999998,179.97639999997614,180.4763999999761,180.4763999999761,182.00259999996425,1224.0,182.00269999998807,4.0,183.00409999996424,0.0,16.0,16.0,6.0,1.0,1.0,0.7,Time
,,S17,820531,1,男,20,anonymized,Serial_Dependence_U,2023.2.3,Win32,142.85714285714286,,,,,,183.00439999997616,141.0,0.0,183.00439999997616,141.0,,,,187.157,187.6566999999881,186.64989999997616,187.15689999997613,184.0126999999881,186.64979999995236,187.65679999995237,188.1565999999642,188.1565999999642,189.747,1088.0,189.7470999999642,1.0,190.7468999999761,0.0,17.0,17.0,19.0,1.0,1.6,0.7,Time
,,S17,820531,1,男,20,anonymized,Serial_Dependence_U,2023.2.3,Win32,142.85714285714286,,,,,,190.74729999995228,295.0,0.0,190.74729999995228,295.0,,,,194.4917999999523,194.98979999995228,193.986,194.4917999999523,191.74869999998808,193.986,194.98979999995228,195.48979999995228,195.48979999995228,197.55239999997613,1052.0,197.55239999997613,2.0,198.55229999995228,0.0,18.0,18.0,7.0,1.0,1.2,0.7,Time
,,S17,820531,1,男,20,anonymized,Serial_Dependence_U,2023.2.3,Win32,142.85714285714286,,,,,,198.5525,204.0,0.0,198.5525999999642,204.0,,,,202.1008999999761,202.60069999998805,201.5940999999642,202.1008999999761,199.5592999999523,201.594,202.60069999998805,203.0965,203.0965,205.33959999996424,2004.0,205.33969999998803,5.0,206.33679999995223,0.0,19.0,19.0,16.0,1.0,1.0,0.7,Time
,,S17,820531,1,男,20,anonymized,Serial_Dependence_U,2023.2.3,Win32,142.85714285714286,,,,,,206.33709999996424,223.0,0.0,206.33709999996424,223.0,,,,209.908,210.4060999999642,209.40179999995232,209.908,207.33869999998805,209.40169999998804,210.4060999999642,210.906,210.906,212.58669999998804,1029.0,212.58669999998804,3.0,213.5865999999642,0.0,20.0,20.0,1.0,1.0,1.0,0.3,Time
,,S17,820531,1,男,20,anonymized,Serial_Dependence_U,2023.2.3,Win32,142.85714285714286,,,,,,213.58669999998804,71.0,0.0,213.58679999995223,71.0,,,,217.5310999999642,218.031,217.02419999998804,217.531,214.59379999995227,217.0240999999642,218.031,218.53079999995228,218.53079999995228,219.99619999998808,1110.0,219.99619999998808,2.0,220.99609999996423,0.0,21.0,21.0,18.0,1.0,1.4,0.7,Time
,,S17,820531,1,男,20,anonymized,Serial_Dependence_U,2023.2.3,Win32,142.85714285714286,,,,,,220.9962999999523,185.0,0.0,220.9962999999523,185.0,,,,224.97539999997613,225.4751999999881,224.4685999999642,224.97529999995228,222.00319999998803,224.46839999997613,225.4751999999881,225.9751999999881,225.9751999999881,227.3293999999761,988.0,227.3293999999761,2.0,228.32929999995227,0.0,22.0,22.0,13.0,1.0,1.4,0.3,Time
,,S17,820531,1,男,20,anonymized,Serial_Dependence_U,2023.2.3,Win32,142.85714285714286,,,,,,228.3295,125.0,0.0,228.3295999999642,125.0,,,,232.50979999995224,233.00969999998804,232.0028999999761,232.50979999995224,229.33639999997607,232.00279999995232,233.00969999998804,233.5095999999642,233.5095999999642,235.0720999999642,1093.0,235.07219999998804,1.0,236.0720999999642,0.0,23.0,23.0,14.0,1.0,1.6,0.3,Time
,,S17,820531,1,男,20,anonymized,Serial_Dependence_U,2023.2.3,Win32,142.85714285714286,,,,,,236.07229999995224,84.0,0.0,236.0723999999761,84.0,,,,239.85,240.3497999999523,239.3430999999642,239.85,237.07929999995227,239.343,240.3497999999523,240.84969999998808,240.8497999999523,242.30809999996416,1239.0,242.30819999998803,3.0,243.30809999996416,0.0,24.0,24.0,22.0,1.0,1.2,0.3,Time
,,S17,820531,1,男,20,anonymized,Serial_Dependence_U,2023.2.3,Win32,142.85714285714286,,,,,,243.30819999998803,319.0,0.0,243.3083999999761,319.0,,,,246.6552999999523,247.15519999998807,246.1485,246.6552999999523,244.3150999999642,246.1483999999761,247.1552999999523,247.6553999999761,247.6553999999761,249.16909999996423,1149.0,249.16909999996423,5.0,250.1688999999761,0.0,25.0,25.0,15.0,1.0,0.8,0.7,Time
,,S17,820531,1,男,20,anonymized,Serial_Dependence_U,2023.2.3,Win32,142.85714285714286,,,,,,250.169199999988,125.0,0.0,250.169199999988,125.0,,,,253.7455,254.24529999995227,253.23859999996424,253.7455,251.17619999998803,253.2385,254.24529999995227,254.74519999998805,254.74529999995227,255.89809999996424,736.0,255.89809999996424,2.0,256.898,0.0,26.0,26.0,21.0,1.0,1.0,0.3,Time
,,S17,820531,1,男,20,anonymized,Serial_Dependence_U,2023.2.3,Win32,142.85714285714286,,,,,,256.89819999998804,19.0,0.0,256.89819999998804,19.0,,,,260.2730999999642,260.7728999999762,259.76609999996424,260.273,257.905,259.766,260.7728999999762,261.273,261.273,262.0853999999762,534.0,262.0853999999762,1.0,263.0852999999523,0.0,27.0,27.0,20.0,1.0,0.8,0.3,Time
,,S17,820531,1,男,20,anonymized,Serial_Dependence_U,2023.2.3,Win32,142.85714285714286,,,,,,263.0855999999642,340.0,0.0,263.08569999998804,340.0,,,,266.8355,267.3352999999523,266.3285,266.8352999999523,264.0923999999761,266.3283999999761,267.3352999999523,267.83519999998805,267.83519999998805,269.404699999988,1185.0,269.404699999988,3.0,270.4045,0.0,28.0,28.0,17.0,1.0,1.2,0.7,Time
,,S17,820531,1,男,20,anonymized,Serial_Dependence_U,2023.2.3,Win32,142.85714285714286,,,,,,270.4047999999523,339.0,0.0,270.4048999999761,339.0,,,,273.9465,274.4460999999642,273.43949999999995,273.9462999999523,271.4047999999523,273.43949999999995,274.4460999999642,274.94619999998804,274.94619999998804,276.5016999999881,1178.0,276.50179999995225,4.0,277.5016999999881,0.0,29.0,29.0,26.0,1.0,1.0,0.7,Time
,,S17,820531,1,男,20,anonymized,Serial_Dependence_U,2023.2.3,Win32,142.85714285714286,,,,,,277.5018999999761,161.0,1.0,282.7792999999523,161.0,s,5.26400000000001,,286.3278999999761,286.8277999999523,285.8210999999642,286.3277999999523,283.7863999999761,285.821,286.8277999999523,287.3277999999523,287.3277999999523,288.7860999999642,1203.0,288.78619999998807,4.0,288.78629999995223,1.0,0.0,30.0,6.0,1.0,1.0,0.7,Time
,,S17,820531,1,男,20,anonymized,Serial_Dependence_U,2023.2.3,Win32,142.85714285714286,,,,,,288.78649999999993,321.0,1.0,288.78719999998805,321.0,,,,292.7653999999761,293.26509999996426,292.2583999999762,292.7653999999761,289.79339999997615,292.2582999999523,293.26509999996426,293.76509999996426,293.765199999988,295.2998999999761,1124.0,295.2998999999761,2.0,295.30009999996423,1.0,1.0,31.0,23.0,1.0,1.4,0.3,Time
,,S17,820531,1,男,20,anonymized,Serial_Dependence_U,2023.2.3,Win32,142.85714285714286,,,,,,295.3001999999881,70.0,1.0,295.30029999995224,70.0,,,,299.44569999998805,299.9454999999999,298.9388999999761,299.44569999998805,296.30689999997617,298.93879999995227,299.9455999999642,300.4453999999761,300.4454999999999,302.1886999999881,1513.0,302.1886999999881,2.0,302.18879999995227,1.0,2.0,32.0,9.0,1.0,1.6,0.7,Time
,,S17,820531,1,男,20,anonymized,Serial_Dependence_U,2023.2.3,Win32,142.85714285714286,,,,,,302.189,66.0,1.0,302.18909999996424,66.0,,,,305.7271999999881,306.2252999999523,305.226,305.7271999999881,303.19139999997617,305.226,306.2252999999523,306.7252999999523,306.7252999999523,308.39300000000003,1396.0,308.39300000000003,5.0,308.3930999999642,1.0,3.0,33.0,16.0,1.0,1.0,0.7,Time
,,S17,820531,1,男,20,anonymized,Serial_Dependence_U,2023.2.3,Win32,142.85714285714286,,,,,,308.3932999999523,236.0,1.0,308.39339999997617,236.0,,,,312.3272999999523,312.82709999996416,311.8241999999881,312.327199999988,309.3925999999642,311.82409999996423,312.827199999988,313.327,313.32709999996416,315.0215999999642,1298.0,315.0215999999642,2.0,315.0216999999881,1.0,4.0,34.0,28.0,1.0,1.4,0.7,Time
,,S17,820531,1,男,20,anonymized,Serial_Dependence_U,2023.2.3,Win32,142.85714285714286,,,,,,315.0218999999761,131.0,1.0,315.02199999999993,131.0,,,,318.598,319.0976999999881,318.0935999999642,318.5978999999761,316.03009999996425,318.0935999999642,319.09779999995226,319.5976999999881,319.59779999995226,321.115699999988,1022.0,321.115699999988,3.0,321.115699999988,1.0,5.0,35.0,21.0,1.0,1.0,0.3,Time
,,S17,820531,1,男,20,anonymized,Serial_Dependence_U,2023.2.3,Win32,142.85714285714286,,,,,,321.11589999997614,56.0,1.0,321.11589999997614,56.0,,,,325.0560999999642,325.5558999999761,324.5518999999762,325.0560999999642,322.1197999999523,324.5518999999762,325.5558999999761,326.0558999999761,326.0558999999761,327.9170999999642,1384.0,327.9170999999642,3.0,327.91719999998804,1.0,6.0,36.0,18.0,1.0,1.4,0.7,Time
,,S17,820531,1,男,20,anonymized,Serial_Dependence_U,2023.2.3,Win32,142.85714285714286,,,,,,327.9175,131.0,1.0,327.9175,131.0,,,,332.06289999997614,332.55789999997614,331.5572999999523,332.06289999997614,328.92409999996426,331.55719999998803,332.55789999997614,333.05309999996416,333.05309999996416,335.028,1628.0,335.0280999999642,3.0,335.02819999998803,1.0,7.0,37.0,19.0,1.0,1.6,0.7,Time
,,S17,820531,1,男,20,anonymized,Serial_Dependence_U,2023.2.3,Win32,142.85714285714286,,,,,,335.0285,242.0,1.0,335.0285,242.0,,,,338.9655999999642,339.46519999998804,338.4612999999523,338.9655,336.0280999999642,338.461199999988,339.4652999999523,339.96519999998804,339.9652999999523,341.65979999995227,1414.0,341.65979999995227,3.0,341.6598999999761,1.0,8.0,38.0,8.0,1.0,1.4,0.7,Time
,,S17,820531,1,男,20,anonymized,Serial_Dependence_U,2023.2.3,Win32,142.85714285714286,,,,,,341.66009999996425,321.0,1.0,341.66009999996425,321.0,,,,345.8117999999523,346.31079999995234,345.3014999999999,345.8117999999523,342.66679999995233,345.3014999999999,346.31079999995234,346.812,346.8120999999642,348.5485,1293.0,348.5485,2.0,348.5487999999523,1.0,9.0,39.0,29.0,1.0,1.6,0.7,Time
,,S17,820531,1,男,20,anonymized,Serial_Dependence_U,2023.2.3,Win32,142.85714285714286,,,,,,348.54889999997613,121.0,1.0,348.549,121.0,,,,352.11799999999994,352.6176999999881,351.6139999999999,352.1178999999761,349.5485999999641,351.6138999999762,352.6176999999881,353.1176999999881,353.11779999995224,354.4095,1002.0,354.4095,3.0,354.40959999996426,1.0,10.0,40.0,1.0,1.0,1.0,0.3,Time
,,S17,820531,1,男,20,anonymized,Serial_Dependence_U,2023.2.3,Win32,142.85714285714286,,,,,,354.4098999999761,95.0,1.0,354.4098999999761,95.0,,,,357.779,358.2773999999762,357.27179999995224,357.779,355.41149999999993,357.27179999995224,358.2773999999762,358.7773999999762,358.7773999999762,360.0342999999523,896.0,360.0342999999523,4.0,360.0345,1.0,11.0,41.0,10.0,1.0,0.8,0.3,Time
,,S17,820531,1,男,20,anonymized,Serial_Dependence_U,2023.2.3,Win32,142.85714285714286,,,,,,360.03459999996426,202.0,1.0,360.0346999999881,202.0,,,,364.0065,364.5063999999761,363.4995999999642,364.0065,361.03459999996426,363.4995999999642,364.5063999999761,365.00629999995226,365.00629999995226,366.3605,1062.0,366.36059999996417,2.0,366.360699999988,1.0,12.0,42.0,13.0,1.0,1.4,0.3,Time
,,S17,820531,1,男,20,anonymized,Serial_Dependence_U,2023.2.3,Win32,142.85714285714286,,,,,,366.36089999997614,157.0,1.0,366.36089999997614,157.0,,,,369.7355,370.2352999999523,369.22869999998807,369.7355,367.3675,369.2285999999642,370.23539999997615,370.73539999997615,370.73539999997615,371.8257999999523,818.0,371.8258999999762,3.0,371.826,1.0,13.0,43.0,20.0,1.0,0.8,0.3,Time
,,S17,820531,1,男,20,anonymized,Serial_Dependence_U,2023.2.3,Win32,142.85714285714286,,,,,,371.826199999988,96.0,1.0,371.8262999999523,96.0,,,,375.5686999999881,376.0685,375.0617999999523,375.5686999999881,372.8257999999523,375.061699999988,376.06859999996425,376.5685,376.5685,377.9990999999642,1181.0,377.999199999988,3.0,377.9992999999523,1.0,14.0,44.0,7.0,1.0,1.2,0.7,Time
,,S17,820531,1,男,20,anonymized,Serial_Dependence_U,2023.2.3,Win32,142.85714285714286,,,,,,377.9995999999642,277.0,1.0,377.9995999999642,277.0,,,,381.54359999996416,382.0427999999523,381.0387999999523,381.54359999996416,379.0061999999881,381.03859999996416,382.04289999997616,382.5427999999523,382.5427999999523,383.8947999999523,1091.0,383.8947999999523,4.0,383.89509999996426,1.0,15.0,45.0,26.0,1.0,1.0,0.7,Time
,,S17,820531,1,男,20,anonymized,Serial_Dependence_U,2023.2.3,Win32,142.85714285714286,,,,,,383.8951999999881,334.0,1.0,383.8952999999523,334.0,,,,387.867,388.3668999999761,387.3627999999522,387.8668999999761,384.9017999999524,387.3627999999522,388.3668999999761,388.86679999995226,388.86679999995226,390.1655,1027.0,390.1655,2.0,390.1656999999881,1.0,16.0,46.0,3.0,1.0,1.4,0.3,Time
,,S17,820531,1,男,20,anonymized,Serial_Dependence_U,2023.2.3,Win32,142.85714285714286,,,,,,390.1658999999762,32.0,1.0,390.16600000000005,32.0,,,,393.5405,394.0402999999524,393.0335999999643,393.5403999999761,391.1725,393.0335999999643,394.0402999999524,394.5405,394.5405,395.7140999999642,851.0,395.7140999999642,4.0,395.7142999999524,1.0,17.0,47.0,0.0,1.0,0.8,0.3,Time
,,S17,820531,1,男,20,anonymized,Serial_Dependence_U,2023.2.3,Win32,142.85714285714286,,,,,,395.7143999999762,110.0,1.0,395.7145,110.0,,,,399.48489999997616,399.984699999988,398.978,399.48489999997616,396.7140999999642,398.9777999999524,399.984699999988,400.4847999999523,400.4847999999523,401.8525999999642,947.0,401.8526999999881,2.0,401.8527999999524,1.0,18.0,48.0,12.0,1.0,1.2,0.3,Time
,,S17,820531,1,男,20,anonymized,Serial_Dependence_U,2023.2.3,Win32,142.85714285714286,,,,,,401.8528999999761,91.0,1.0,401.8528999999761,91.0,,,,405.6303999999761,406.1301999999881,405.1235999999642,405.6303999999761,402.8597999999523,405.1235,406.1301999999881,406.6301999999881,406.6302999999523,407.7760999999642,877.0,407.7761999999881,2.0,407.7762999999524,1.0,19.0,49.0,22.0,1.0,1.2,0.3,Time
,,S17,820531,1,男,20,anonymized,Serial_Dependence_U,2023.2.3,Win32,142.85714285714286,,,,,,407.7763999999762,114.0,1.0,407.77650000000006,114.0,,,,411.1233999999762,411.62329999995234,410.6165,411.1233999999762,408.783199999988,410.6165,411.62329999995234,412.12319999998806,412.12319999998806,413.68579999995234,1085.0,413.68579999995234,5.0,413.6858999999762,1.0,20.0,50.0,25.0,1.0,0.8,0.7,Time
,,S17,820531,1,男,20,anonymized,Serial_Dependence_U,2023.2.3,Win32,142.85714285714286,,,,,,413.6860999999642,185.0,1.0,413.6861999999881,185.0,,,,417.0330999999643,417.5327999999523,416.5260999999642,417.03289999997617,414.6926999999881,416.5260999999642,417.5327999999523,418.0327999999523,418.0327999999523,419.24179999995226,921.0,419.24179999995226,4.0,419.242,1.0,21.0,51.0,15.0,1.0,0.8,0.7,Time
,,S17,820531,1,男,20,anonymized,Serial_Dependence_U,2023.2.3,Win32,142.85714285714286,,,,,,419.2420999999642,266.0,1.0,419.2422999999524,266.0,,,,422.8175,423.3172999999523,422.3105999999642,422.8175,420.24829999995234,422.3105999999642,423.31739999997615,423.8172999999523,423.8172999999523,425.2062999999523,1064.0,425.2062999999523,4.0,425.2065,1.0,22.0,52.0,11.0,1.0,1.0,0.3,Time
,,S17,820531,1,男,20,anonymized,Serial_Dependence_U,2023.2.3,Win32,142.85714285714286,,,,,,425.2066999999881,282.0,1.0,425.2067999999523,282.0,,,,428.5535,429.0532999999523,428.0465999999642,428.5535,426.2133999999761,428.0465,429.0532999999523,429.5532999999523,429.55339999997614,431.1435999999643,1183.0,431.143699999988,5.0,431.143699999988,1.0,23.0,53.0,5.0,1.0,0.8,0.7,Time
,,S17,820531,1,男,20,anonymized,Serial_Dependence_U,2023.2.3,Win32,142.85714285714286,,,,,,431.14389999997616,266.0,1.0,431.144,266.0,,,,434.893699999988,435.3935,434.3866999999881,434.8935999999643,432.1506999999881,434.3866999999881,435.3935,435.89339999997617,435.8935,437.42119999998806,1273.0,437.42129999995234,4.0,437.4213999999762,1.0,24.0,54.0,27.0,1.0,1.2,0.7,Time
,,S17,820531,1,男,20,anonymized,Serial_Dependence_U,2023.2.3,Win32,142.85714285714286,,,,,,437.4216999999881,111.0,1.0,437.4217999999523,111.0,,,,441.6017999999523,442.10159999996426,441.0950999999642,441.6017999999523,438.4281999999881,441.095,442.10159999996426,442.60159999996426,442.60159999996426,443.7891999999881,972.0,443.7892999999523,1.0,443.7892999999523,1.0,25.0,55.0,24.0,1.0,1.6,0.3,Time
,,S17,820531,1,男,20,anonymized,Serial_Dependence_U,2023.2.3,Win32,142.85714285714286,,,,,,443.78959999996425,327.0,1.0,443.78959999996425,327.0,,,,447.53909999996426,448.039,447.03229999995233,447.53909999996426,444.79619999998806,447.03219999998805,448.039,448.53889999997614,448.539,450.1083999999762,1343.0,450.1085000000001,4.0,450.1085999999642,1.0,26.0,56.0,17.0,1.0,1.2,0.7,Time
,,S17,820531,1,男,20,anonymized,Serial_Dependence_U,2023.2.3,Win32,142.85714285714286,,,,,,450.10879999995234,149.0,1.0,450.1088999999762,149.0,,,,454.289,454.7887999999523,453.7820999999642,454.28889999997614,451.11539999997615,453.782,454.7887999999523,455.2887999999523,455.28889999997614,456.61539999997615,1031.0,456.61539999997615,1.0,456.6155,1.0,27.0,57.0,14.0,1.0,1.6,0.3,Time
,,S17,820531,1,男,20,anonymized,Serial_Dependence_U,2023.2.3,Win32,142.85714285714286,,,,,,456.6155999999643,2.0,1.0,456.6156999999881,2.0,,,,460.7957999999524,461.2955,460.28889999997614,460.7956999999881,457.6221999999881,460.28889999997614,461.2955999999642,461.7955,461.7955,463.0665,1011.0,463.0665,1.0,463.0665999999642,1.0,28.0,58.0,4.0,1.0,1.6,0.3,Time
,,S17,820531,1,男,20,anonymized,Serial_Dependence_U,2023.2.3,Win32,142.85714285714286,,,,,,463.0667999999523,161.0,1.0,463.0667999999523,161.0,,,,466.84429999995234,467.3440000000001,466.3372999999523,466.84419999998806,464.0735,466.3371999999881,467.3440000000001,467.8440000000001,467.8440000000001,469.1217999999524,1040.0,469.1217999999524,2.0,469.122,1.0,29.0,59.0,2.0,1.0,1.2,0.3,Time
,,S17,820531,1,男,20,anonymized,Serial_Dependence_U,2023.2.3,Win32,142.85714285714286,,,,,,469.1221999999881,154.0,2.0,520.2941999999881,154.0,s,51.16379999995229,,524.0777999999523,524.5786999999881,523.5677999999523,524.0777999999523,521.3010999999642,523.5676999999881,524.5786999999881,525.0787999999524,525.0787999999524,526.4745,1056.0,526.4745999999642,2.0,526.474699999988,2.0,0.0,60.0,12.0,1.0,1.2,0.3,Time
,,S17,820531,1,男,20,anonymized,Serial_Dependence_U,2023.2.3,Win32,142.85714285714286,,,,,,526.4747999999523,254.0,2.0,526.4753999999762,254.0,,,,529.8593999999762,530.3562999999523,529.3558999999761,529.8592999999523,527.4842999999523,529.3557999999523,530.3562999999523,530.8562999999523,530.8562999999523,531.9535999999642,849.0,531.9535999999642,4.0,531.9536999999881,2.0,1.0,61.0,10.0,1.0,0.8,0.3,Time
,,S17,820531,1,男,20,anonymized,Serial_Dependence_U,2023.2.3,Win32,142.85714285714286,,,,,,531.9538999999762,307.0,2.0,531.9540999999642,307.0,,,,536.0993999999762,536.5992999999523,535.5925999999642,536.0992999999523,532.9605,535.5925,536.5992999999523,537.0957999999523,537.0957999999523,538.7103999999762,1388.0,538.7103999999762,2.0,538.7105,2.0,2.0,62.0,9.0,1.0,1.6,0.7,Time
,,S17,820531,1,男,20,anonymized,Serial_Dependence_U,2023.2.3,Win32,142.85714285714286,,,,,,538.710699999988,121.0,2.0,538.710699999988,121.0,,,,542.259,542.758699999988,541.7520999999642,542.2588999999762,539.7172999999523,541.752,542.758699999988,543.2587999999523,543.2587999999523,544.7935999999643,1356.0,544.7935999999643,5.0,544.7936999999881,2.0,3.0,63.0,26.0,1.0,1.0,0.7,Time
,,S17,820531,1,男,20,anonymized,Serial_Dependence_U,2023.2.3,Win32,142.85714285714286,,,,,,544.7938999999761,291.0,2.0,544.7938999999761,291.0,,,,548.1407999999523,548.6405999999643,547.6338999999762,548.1406999999881,545.8005,547.6337999999523,548.6405999999643,549.1405999999643,549.1405999999643,550.3558999999761,1012.0,550.3558999999761,4.0,550.3560999999643,2.0,4.0,64.0,5.0,1.0,0.8,0.7,Time
,,S17,820531,1,男,20,anonymized,Serial_Dependence_U,2023.2.3,Win32,142.85714285714286,,,,,,550.3561999999881,127.0,2.0,550.3561999999881,127.0,,,,554.5295,555.0292999999523,554.022699999988,554.5295,551.3558999999761,554.0225999999642,555.0292999999523,555.5292999999523,555.5292999999523,557.0432999999523,1312.0,557.0432999999523,2.0,557.0435,2.0,5.0,65.0,14.0,1.0,1.6,0.3,Time
,,S17,820531,1,男,20,anonymized,Serial_Dependence_U,2023.2.3,Win32,142.85714285714286,,,,,,557.0435999999643,107.0,2.0,557.0436999999881,107.0,,,,561.2237999999523,561.7235999999642,560.7168999999761,561.2236999999881,558.0502999999524,560.7167999999523,561.7235999999642,562.2235999999642,562.2235999999642,563.7096999999881,1235.0,563.7097999999523,2.0,563.7097999999523,2.0,6.0,66.0,24.0,1.0,1.6,0.3,Time
,,S17,820531,1,男,20,anonymized,Serial_Dependence_U,2023.2.3,Win32,142.85714285714286,,,,,,563.71,237.0,2.0,563.7100999999642,237.0,,,,567.8555,568.3553999999762,567.3487999999523,567.8555,564.7166999999881,567.3486999999881,568.3553999999762,568.8553999999762,568.8553999999762,570.3205999999642,1203.0,570.320699999988,2.0,570.3207999999523,2.0,7.0,67.0,19.0,1.0,1.6,0.7,Time
,,S17,820531,1,男,20,anonymized,Serial_Dependence_U,2023.2.3,Win32,142.85714285714286,,,,,,570.321,272.0,2.0,570.321,272.0,,,,574.070699999988,574.5705,573.5637999999523,574.070699999988,571.3276999999881,573.5635999999643,574.5705,575.0705,575.0705,576.5635999999643,1249.0,576.5635999999643,3.0,576.5637999999523,2.0,8.0,68.0,7.0,1.0,1.2,0.7,Time
,,S17,820531,1,男,20,anonymized,Serial_Dependence_U,2023.2.3,Win32,142.85714285714286,,,,,,576.564,75.0,2.0,576.564,75.0,,,,580.14,580.6397999999523,579.6330999999642,580.1398999999761,577.5705999999642,579.633,580.6397999999523,581.1397999999523,581.1398999999761,582.5078999999762,1084.0,582.5078999999762,4.0,582.5080999999642,2.0,9.0,69.0,1.0,1.0,1.0,0.3,Time
,,S17,820531,1,男,20,anonymized,Serial_Dependence_U,2023.2.3,Win32,142.85714285714286,,,,,,582.508199999988,148.0,2.0,582.5082999999523,148.0,,,,586.4803999999762,586.9797999999523,585.9800999999642,586.4803999999762,583.5148999999761,585.98,586.9798999999762,587.4798999999762,587.4798999999762,588.8478999999761,1140.0,588.848,2.0,588.848,2.0,10.0,70.0,13.0,1.0,1.4,0.3,Time
,,S17,820531,1,男,20,anonymized,Serial_Dependence_U,2023.2.3,Win32,142.85714285714286,,,,,,588.8481999999881,189.0,2.0,588.8481999999881,189.0,,,,592.2230999999642,592.7226999999881,591.7160999999643,592.223,589.855,591.716,592.7227999999524,593.2227999999524,593.2227999999524,594.4033999999762,930.0,594.4035,4.0,594.4035999999643,2.0,11.0,71.0,20.0,1.0,0.8,0.3,Time
,,S17,820531,1,男,20,anonymized,Serial_Dependence_U,2023.2.3,Win32,142.85714285714286,,,,,,594.4037999999523,54.0,2.0,594.4037999999523,54.0,,,,598.3755999999643,598.8752999999523,597.8688999999762,598.3755999999643,595.4035,597.8687999999523,598.8753999999761,599.3752999999523,599.3753999999761,600.792199999988,1181.0,600.792199999988,2.0,600.7923999999762,2.0,12.0,72.0,23.0,1.0,1.4,0.3,Time
,,S17,820531,1,男,20,anonymized,Serial_Dependence_U,2023.2.3,Win32,142.85714285714286,,,,,,600.7925,327.0,2.0,600.7925999999642,327.0,,,,604.1393999999761,604.6391999999881,603.6323999999762,604.1392999999523,601.7991999999881,603.6323999999762,604.6391999999881,605.1391999999881,605.1391999999881,606.4931999999881,1132.0,606.4932999999523,5.0,606.4933999999762,2.0,13.0,73.0,25.0,1.0,0.8,0.7,Time
,,S17,820531,1,男,20,anonymized,Serial_Dependence_U,2023.2.3,Win32,142.85714285714286,,,,,,606.4935999999642,224.0,2.0,606.4935999999642,224.0,,,,610.035,610.5347999999523,609.528199999988,610.035,607.4935,609.528199999988,610.5348999999761,611.0347999999523,611.0347999999523,612.5695,1299.0,612.5695,4.0,612.5696999999881,2.0,14.0,74.0,6.0,1.0,1.0,0.7,Time
,,S17,820531,1,男,20,anonymized,Serial_Dependence_U,2023.2.3,Win32,142.85714285714286,,,,,,612.5698999999762,62.0,2.0,612.5698999999762,62.0,,,,616.1390999999643,616.6388999999762,615.6320999999642,616.139,613.5697999999524,615.6320999999642,616.6388999999762,617.1388999999762,617.1388999999762,618.2777999999523,925.0,618.2777999999523,2.0,618.278,2.0,15.0,75.0,21.0,1.0,1.0,0.3,Time
,,S17,820531,1,男,20,anonymized,Serial_Dependence_U,2023.2.3,Win32,142.85714285714286,,,,,,618.2780999999642,291.0,2.0,618.278199999988,291.0,,,,622.2222999999523,622.722,621.7152999999523,622.2222999999523,619.2847999999523,621.715199999988,622.722,623.222,623.222,624.9095,1472.0,624.9095999999643,4.0,624.9097999999523,2.0,16.0,76.0,8.0,1.0,1.4,0.7,Time
,,S17,820531,1,男,20,anonymized,Serial_Dependence_U,2023.2.3,Win32,142.85714285714286,,,,,,624.91,282.0,2.0,624.91,282.0,,,,628.6873999999762,629.187199999988,628.1805,628.6872999999523,625.9165999999642,628.1805,629.187199999988,629.6870999999643,629.6870999999643,630.9302999999524,984.0,630.9303999999762,2.0,630.9305999999642,2.0,17.0,77.0,2.0,1.0,1.2,0.3,Time
,,S17,820531,1,男,20,anonymized,Serial_Dependence_U,2023.2.3,Win32,142.85714285714286,,,,,,630.9306999999881,86.0,2.0,630.9307999999523,86.0,,,,634.5066999999881,635.0065999999642,633.999699999988,634.5066999999881,631.9372999999523,633.999699999988,635.0065999999642,635.5065,635.5065,636.7703999999761,1040.0,636.7703999999761,3.0,636.7705999999642,2.0,18.0,78.0,11.0,1.0,1.0,0.3,Time
,,S17,820531,1,男,20,anonymized,Serial_Dependence_U,2023.2.3,Win32,142.85714285714286,,,,,,636.7707999999524,264.0,2.0,636.7708999999761,264.0,,,,640.7113999999762,641.2107999999523,640.2037999999524,640.7112999999523,637.7705,640.2036999999881,641.2107999999523,641.7103999999762,641.7103999999762,643.4745999999642,1514.0,643.474699999988,4.0,643.4748999999762,2.0,19.0,79.0,28.0,1.0,1.4,0.7,Time
,,S17,820531,1,男,20,anonymized,Serial_Dependence_U,2023.2.3,Win32,142.85714285714286,,,,,,643.475,302.0,2.0,643.4750999999642,302.0,,,,646.8187999999523,647.3185,646.3178999999761,646.8187999999523,644.4785999999642,646.3177999999523,647.3185,647.8185999999642,647.8185999999642,649.6065,1443.0,649.6065,5.0,649.6065999999643,2.0,20.0,80.0,15.0,1.0,0.8,0.7,Time
,,S17,820531,1,男,20,anonymized,Serial_Dependence_U,2023.2.3,Win32,142.85714285714286,,,,,,649.6067999999523,141.0,2.0,649.6067999999523,141.0,,,,653.749199999988,654.249,653.2433999999762,653.7490999999642,650.6103999999762,653.2433999999762,654.249,654.749,654.749,656.7105,1734.0,656.7105999999642,4.0,656.7105999999642,2.0,21.0,81.0,29.0,1.0,1.6,0.7,Time
,,S17,820531,1,男,20,anonymized,Serial_Dependence_U,2023.2.3,Win32,142.85714285714286,,,,,,656.7107999999523,336.0,2.0,656.7107999999523,336.0,,,,660.4572999999523,660.9571999999881,659.9537999999524,660.4572999999523,657.7142999999523,659.9537999999524,660.9571999999881,661.4571999999881,661.4571999999881,662.8765999999642,1212.0,662.8765999999642,3.0,662.8766999999881,2.0,22.0,82.0,27.0,1.0,1.2,0.7,Time
,,S17,820531,1,男,20,anonymized,Serial_Dependence_U,2023.2.3,Win32,142.85714285714286,,,,,,662.8767999999524,131.0,2.0,662.8767999999524,131.0,,,,666.6446999999881,667.1445,666.1405999999643,666.6445999999643,663.8738999999762,666.1403999999761,667.1445,667.6445,667.6445,668.9182999999523,1066.0,668.9182999999523,2.0,668.9183999999761,2.0,23.0,83.0,22.0,1.0,1.2,0.3,Time
,,S17,820531,1,男,20,anonymized,Serial_Dependence_U,2023.2.3,Win32,142.85714285714286,,,,,,668.9185999999643,326.0,2.0,668.9186999999881,326.0,,,,672.8945,673.3942999999523,672.3907999999523,672.8945,669.9223999999762,672.3906999999881,673.3942999999523,673.8943999999761,673.8943999999761,675.3735,1257.0,675.3735999999642,2.0,675.373699999988,2.0,24.0,84.0,3.0,1.0,1.4,0.3,Time
,,S17,820531,1,男,20,anonymized,Serial_Dependence_U,2023.2.3,Win32,142.85714285714286,,,,,,675.3738999999762,326.0,2.0,675.3738999999762,326.0,,,,678.922199999988,679.4218999999762,678.4151999999881,678.922199999988,676.3823999999762,678.4150999999642,679.4218999999762,679.9218999999762,679.9218999999762,681.5015999999642,1385.0,681.5015999999642,5.0,681.5016999999881,2.0,25.0,85.0,16.0,1.0,1.0,0.7,Time
,,S17,820531,1,男,20,anonymized,Serial_Dependence_U,2023.2.3,Win32,142.85714285714286,,,,,,681.5018999999761,180.0,2.0,681.5018999999761,180.0,,,,685.4428999999761,685.9425999999643,684.9385,685.4428999999761,682.5053999999761,684.9385,685.9425999999643,686.4425999999643,686.4425999999643,687.9875999999642,1354.0,687.9875999999642,3.0,687.9876999999881,2.0,26.0,86.0,18.0,1.0,1.4,0.7,Time
,,S17,820531,1,男,20,anonymized,Serial_Dependence_U,2023.2.3,Win32,142.85714285714286,,,,,,687.9878999999762,236.0,2.0,687.9878999999762,236.0,,,,692.158,692.6577999999523,691.6537999999523,692.1578999999762,688.9930999999642,691.6536999999881,692.6577999999523,693.157699999988,693.157699999988,694.5427999999523,1139.0,694.5428999999762,2.0,694.5428999999762,2.0,27.0,87.0,4.0,1.0,1.6,0.3,Time
,,S17,820531,1,男,20,anonymized,Serial_Dependence_U,2023.2.3,Win32,142.85714285714286,,,,,,694.5430999999643,320.0,2.0,694.5431999999881,320.0,,,,698.2827999999523,698.7825999999642,697.7787999999523,698.282699999988,695.546699999988,697.7787999999523,698.7825999999642,699.2825999999642,699.2825999999642,701.0497999999524,1533.0,701.0497999999524,4.0,701.0497999999524,2.0,28.0,88.0,17.0,1.0,1.2,0.7,Time
,,S17,820531,1,男,20,anonymized,Serial_Dependence_U,2023.2.3,Win32,142.85714285714286,,,,,,701.0498999999761,248.0,2.0,701.05,248.0,,,,704.4215,704.9213999999762,703.9145999999643,704.4215,702.0483999999761,703.9145,704.9213999999762,705.4213999999762,705.4213999999762,706.609,965.0,706.609,4.0,706.6090999999642,2.0,29.0,89.0,0.0,1.0,0.8,0.3,Time
,,S17,820531,1,男,20,anonymized,Serial_Dependence_U,2023.2.3,Win32,142.85714285714286,,,,,,706.6092999999523,308.0,3.0,748.1591999999881,308.0,s,41.53810000002386,0.0003000000118618,751.927199999988,752.427,751.4202999999524,751.927199999988,749.1593999999761,751.4202999999524,752.427,752.9270999999642,752.9270999999642,754.3437999999524,1140.0,754.3437999999524,2.0,754.3438999999762,3.0,0.0,90.0,2.0,1.0,1.2,0.3,Time
,,S17,820531,1,男,20,anonymized,Serial_Dependence_U,2023.2.3,Win32,142.85714285714286,,,,,,754.3440999999642,17.0,3.0,754.344699999988,17.0,,,,758.1162999999523,758.6145,757.6145999999642,758.1162999999523,755.3507999999523,757.6145,758.6145999999642,759.1143999999762,759.1143999999762,760.302,951.0,760.302,2.0,760.302199999988,3.0,1.0,91.0,12.0,1.0,1.2,0.3,Time
,,S17,820531,1,男,20,anonymized,Serial_Dependence_U,2023.2.3,Win32,142.85714285714286,,,,,,760.3022999999523,318.0,3.0,760.3023999999762,318.0,,,,764.4717999999523,764.9683999999762,763.9711999999881,764.4716999999881,761.309,763.9711999999881,764.9685,765.4683999999762,765.4683999999762,766.7947999999523,1080.0,766.7948999999761,1.0,766.7950999999642,3.0,2.0,92.0,4.0,1.0,1.6,0.3,Time
,,S17,820531,1,男,20,anonymized,Serial_Dependence_U,2023.2.3,Win32,142.85714285714286,,,,,,766.7951999999881,208.0,3.0,766.7952999999524,208.0,,,,770.767,771.2668999999762,770.263,770.767,767.8011999999881,770.2628999999762,771.2668999999762,771.7668999999762,771.7668999999762,773.2598999999761,1273.0,773.26,2.0,773.2600999999643,3.0,3.0,93.0,13.0,1.0,1.4,0.3,Time
,,S17,820531,1,男,20,anonymized,Serial_Dependence_U,2023.2.3,Win32,142.85714285714286,,,,,,773.2602999999523,199.0,3.0,773.2602999999523,199.0,,,,777.4403999999762,777.9401999999881,776.9380999999643,777.4403999999762,774.2668999999762,776.9380999999643,777.9402999999523,778.4402999999523,778.4403999999762,780.086199999988,1431.0,780.0862999999523,2.0,780.0863999999762,3.0,4.0,94.0,24.0,1.0,1.6,0.3,Time
,,S17,820531,1,男,20,anonymized,Serial_Dependence_U,2023.2.3,Win32,142.85714285714286,,,,,,780.0865999999643,167.0,3.0,780.0865999999643,167.0,,,,783.8292999999524,784.3290999999642,783.325,783.8290999999642,781.0930999999642,783.3248999999762,784.3290999999642,784.829,784.829,786.5950999999642,1567.0,786.5950999999642,5.0,786.595199999988,3.0,5.0,95.0,7.0,1.0,1.2,0.7,Time
,,S17,820531,1,男,20,anonymized,Serial_Dependence_U,2023.2.3,Win32,142.85714285714286,,,,,,786.5953999999762,285.0,3.0,786.5955,285.0,,,,790.3375999999643,790.8357999999523,789.834,790.3375,787.593,789.8338999999762,790.8357999999523,791.3357999999523,791.3358999999762,793.1332999999523,1597.0,793.1333999999762,5.0,793.1333999999762,3.0,6.0,96.0,27.0,1.0,1.2,0.7,Time
,,S17,820531,1,男,20,anonymized,Serial_Dependence_U,2023.2.3,Win32,142.85714285714286,,,,,,793.1335999999642,327.0,3.0,793.133699999988,327.0,,,,797.2741999999881,797.7730999999642,796.7716999999881,797.2741999999881,794.1371999999881,796.7716999999881,797.7730999999642,798.2730999999642,798.2730999999642,800.071699999988,1616.0,800.071699999988,3.0,800.0718999999762,3.0,7.0,97.0,9.0,1.0,1.6,0.7,Time
,,S17,820531,1,男,20,anonymized,Serial_Dependence_U,2023.2.3,Win32,142.85714285714286,,,,,,800.0720999999643,274.0,3.0,800.0721999999881,274.0,,,,803.6480999999642,804.148,803.1445,803.6480999999642,801.0788999999762,803.1445,804.148,804.648,804.648,806.0993999999762,1256.0,806.0993999999762,4.0,806.0995999999642,3.0,8.0,98.0,21.0,1.0,1.0,0.3,Time
,,S17,820531,1,男,20,anonymized,Serial_Dependence_U,2023.2.3,Win32,142.85714285714286,,,,,,806.0997999999523,117.0,3.0,806.0998999999762,117.0,,,,810.2798999999761,810.7797999999523,809.7730999999642,810.2797999999523,807.1063999999761,809.7730999999642,810.7797999999523,811.2796999999881,811.2797999999523,813.0853999999762,1421.0,813.0853999999762,2.0,813.0855999999642,3.0,9.0,99.0,14.0,1.0,1.6,0.3,Time
,,S17,820531,1,男,20,anonymized,Serial_Dependence_U,2023.2.3,Win32,142.85714285714286,,,,,,813.085699999988,228.0,3.0,813.0857999999523,228.0,,,,816.8630999999642,817.3628999999762,816.3562999999523,816.8630999999642,814.0922999999523,816.3561999999881,817.363,817.8628999999762,817.8628999999762,819.6198999999762,1448.0,819.6198999999762,4.0,819.6200999999643,3.0,10.0,100.0,22.0,1.0,1.2,0.3,Time
,,S17,820531,1,男,20,anonymized,Serial_Dependence_U,2023.2.3,Win32,142.85714285714286,,,,,,819.6201999999881,94.0,3.0,819.6202999999523,94.0,,,,823.1893999999761,823.6891999999881,822.6825,823.1892999999524,820.6200999999643,822.6823999999762,823.6892999999524,824.1890999999642,824.1890999999642,825.4737999999523,1070.0,825.4738999999762,4.0,825.474,3.0,11.0,101.0,1.0,1.0,1.0,0.3,Time
,,S17,820531,1,男,20,anonymized,Serial_Dependence_U,2023.2.3,Win32,142.85714285714286,,,,,,825.4742999999523,23.0,3.0,825.4742999999523,23.0,,,,829.453,829.9528999999761,828.946199999988,829.453,826.4808999999761,828.946,829.9528999999761,830.4528999999761,830.4528999999761,831.9876999999881,1323.0,831.9876999999881,2.0,831.9877999999524,3.0,12.0,102.0,23.0,1.0,1.4,0.3,Time
,,S17,820531,1,男,20,anonymized,Serial_Dependence_U,2023.2.3,Win32,142.85714285714286,,,,,,831.988,342.0,3.0,831.9880999999642,342.0,,,,835.5293999999761,836.0290999999643,835.0223999999762,835.5292999999523,832.9877999999524,835.0222999999523,836.0290999999643,836.5290999999643,836.5290999999643,837.9490999999642,1185.0,837.9490999999642,4.0,837.9492999999524,3.0,13.0,103.0,6.0,1.0,1.0,0.7,Time
,,S17,820531,1,男,20,anonymized,Serial_Dependence_U,2023.2.3,Win32,142.85714285714286,,,,,,837.9495000000001,266.0,3.0,837.9495000000001,266.0,,,,841.6888999999761,842.1885999999643,841.1847999999524,841.6887999999523,838.9487999999524,841.1847999999524,842.1885999999643,842.6886999999881,842.6886999999881,844.3830999999642,1495.0,844.3830999999642,4.0,844.383199999988,3.0,14.0,104.0,17.0,1.0,1.2,0.7,Time
,,S17,820531,1,男,20,anonymized,Serial_Dependence_U,2023.2.3,Win32,142.85714285714286,,,,,,844.3832999999523,56.0,3.0,844.3833999999762,56.0,,,,848.3553999999762,848.855199999988,847.8483999999762,848.3553999999762,845.3830999999642,847.8483999999762,848.855199999988,849.3550999999642,849.355199999988,851.258,1465.0,851.258,3.0,851.258199999988,3.0,15.0,105.0,3.0,1.0,1.4,0.3,Time
,,S17,820531,1,男,20,anonymized,Serial_Dependence_U,2023.2.3,Win32,142.85714285714286,,,,,,851.2583999999762,254.0,3.0,851.2583999999762,254.0,,,,854.6261999999881,855.1258999999761,854.1190999999642,854.6261999999881,852.2580999999642,854.1190999999642,855.1258999999761,855.6257999999523,855.6257999999523,856.8162999999523,957.0,856.8162999999523,4.0,856.8163999999762,3.0,16.0,106.0,10.0,1.0,0.8,0.3,Time
,,S17,820531,1,男,20,anonymized,Serial_Dependence_U,2023.2.3,Win32,142.85714285714286,,,,,,856.8165,333.0,3.0,856.8165,333.0,,,,860.3578999999762,860.8570999999642,859.8521999999881,860.3577999999524,857.816199999988,859.8521999999881,860.8570999999642,861.3571999999881,861.3571999999881,862.6881999999881,1122.0,862.6882999999523,4.0,862.6883999999761,3.0,17.0,107.0,16.0,1.0,1.0,0.7,Time
,,S17,820531,1,男,20,anonymized,Serial_Dependence_U,2023.2.3,Win32,142.85714285714286,,,,,,862.6885999999643,253.0,3.0,862.6885999999643,253.0,,,,866.0301999999881,866.5282999999523,865.5285,866.0301999999881,863.6978999999761,865.5285,866.5282999999523,867.0283999999762,867.0285,868.4547999999523,1222.0,868.4548999999762,5.0,868.455,3.0,18.0,108.0,15.0,1.0,0.8,0.7,Time
,,S17,820531,1,男,20,anonymized,Serial_Dependence_U,2023.2.3,Win32,142.85714285714286,,,,,,868.455199999988,232.0,3.0,868.455199999988,232.0,,,,871.827,872.3267999999523,871.323,871.8267999999523,869.4588999999762,871.323,872.3267999999523,872.8267999999523,872.8267999999523,873.9072999999523,791.0,873.9073999999762,3.0,873.9073999999762,3.0,19.0,109.0,0.0,1.0,0.8,0.3,Time
,,S17,820531,1,男,20,anonymized,Serial_Dependence_U,2023.2.3,Win32,142.85714285714286,,,,,,873.9075999999642,3.0,3.0,873.907699999988,3.0,,,,878.0490999999643,878.5487999999523,877.5458999999762,878.0490999999643,874.9115999999642,877.5458999999762,878.5487999999523,879.0487999999523,879.0487999999523,881.0726999999881,1820.0,881.0726999999881,4.0,881.0728999999761,3.0,20.0,110.0,29.0,1.0,1.6,0.7,Time
,,S17,820531,1,男,20,anonymized,Serial_Dependence_U,2023.2.3,Win32,142.85714285714286,,,,,,881.0730999999643,170.0,3.0,881.0731999999881,170.0,,,,884.6183999999762,885.1181999999881,884.114199999988,884.6183999999762,882.0766999999881,884.1140999999642,885.1181999999881,885.6181999999881,885.6181999999881,887.4167999999523,1477.0,887.4168999999762,5.0,887.417,3.0,21.0,111.0,26.0,1.0,1.0,0.7,Time
,,S17,820531,1,男,20,anonymized,Serial_Dependence_U,2023.2.3,Win32,142.85714285714286,,,,,,887.417199999988,219.0,3.0,887.417199999988,219.0,,,,890.7640999999643,891.263699999988,890.2612999999524,890.7640999999643,888.4238999999761,890.2612999999524,891.2637999999523,891.763699999988,891.763699999988,893.3916999999881,1350.0,893.3916999999881,5.0,893.3917999999524,3.0,22.0,112.0,25.0,1.0,0.8,0.7,Time
,,S17,820531,1,男,20,anonymized,Serial_Dependence_U,2023.2.3,Win32,142.85714285714286,,,,,,893.392,221.0,3.0,893.3920999999642,221.0,,,,896.7360999999643,897.2358999999761,896.232,896.736,894.3958999999761,896.2318999999761,897.2358999999761,897.7358999999761,897.7358999999761,899.2637999999523,1286.0,899.2637999999523,5.0,899.264,3.0,23.0,113.0,5.0,1.0,0.8,0.7,Time
,,S17,820531,1,男,20,anonymized,Serial_Dependence_U,2023.2.3,Win32,142.85714285714286,,,,,,899.2640999999643,205.0,3.0,899.2640999999643,205.0,,,,903.2037999999524,903.700899999976,902.7013999999762,903.203699999988,900.2706999999881,902.7013999999762,903.701,904.201,904.201,906.0620999999644,1633.0,906.0620999999644,4.0,906.062199999988,3.0,24.0,114.0,18.0,1.0,1.4,0.7,Time
,,S17,820531,1,男,20,anonymized,Serial_Dependence_U,2023.2.3,Win32,142.85714285714286,,,,,,906.0625,331.0,3.0,906.0625999999642,331.0,,,,910.0065999999644,910.5063999999762,909.499699999988,910.0065999999644,907.069199999988,909.499699999988,910.5065,911.0062999999524,911.0062999999524,912.503,1283.0,912.503,2.0,912.5030999999644,3.0,25.0,115.0,8.0,1.0,1.4,0.7,Time
,,S17,820531,1,男,20,anonymized,Serial_Dependence_U,2023.2.3,Win32,142.85714285714286,,,,,,912.5031999999882,203.0,3.0,912.5031999999882,203.0,,,,916.0775999999644,916.5755999999644,915.571699999988,916.0775999999644,913.5065,915.5715999999642,916.5756999999882,917.0756999999882,917.0756999999882,918.812,1140.0,918.812,4.0,918.812199999988,3.0,26.0,116.0,11.0,1.0,1.0,0.3,Time
,,S17,820531,1,男,20,anonymized,Serial_Dependence_U,2023.2.3,Win32,142.85714285714286,,,,,,918.8122999999524,59.0,3.0,918.8123999999764,59.0,,,,922.187,922.6865999999642,921.679899999976,922.1868999999762,919.8187999999524,921.679899999976,922.686699999988,923.1865999999642,923.1865999999642,924.3323999999762,876.0,924.3323999999762,4.0,924.3325,3.0,27.0,117.0,20.0,1.0,0.8,0.3,Time
,,S17,820531,1,男,20,anonymized,Serial_Dependence_U,2023.2.3,Win32,142.85714285714286,,,,,,924.332699999988,60.0,3.0,924.332699999988,60.0,,,,928.27,928.7697999999524,927.767,928.27,925.3305,927.766899999976,928.7697999999524,929.2697999999524,929.2697999999524,930.95,1434.0,930.95,3.0,930.9500999999642,3.0,28.0,118.0,28.0,1.0,1.4,0.7,Time
,,S17,820531,1,男,20,anonymized,Serial_Dependence_U,2023.2.3,Win32,142.85714285714286,,,,,,930.950199999988,254.0,3.0,930.9502999999524,254.0,,,,935.0891999999882,935.5890999999644,934.588399999976,935.0891999999882,931.9573999999762,934.5882999999524,935.5890999999644,936.089,936.089,937.9395,1575.0,937.9395999999643,3.0,937.9396999999882,3.0,29.0,119.0,19.0,1.0,1.6,0.7,Time
,,S17,820531,1,男,20,anonymized,Serial_Dependence_U,2023.2.3,Win32,142.85714285714286,,,,,,937.939899999976,279.0,4.0,989.219899999976,279.0,s,51.268300000012005,,992.5946999999882,993.0945999999644,992.0910999999644,992.5946999999882,990.226699999988,992.0910999999644,993.0945999999644,993.5945999999644,993.5945999999644,994.7820999999644,930.0,994.7820999999644,4.0,994.7821999999882,4.0,0.0,120.0,20.0,1.0,0.8,0.3,Time
,,S17,820531,1,男,20,anonymized,Serial_Dependence_U,2023.2.3,Win32,142.85714285714286,,,,,,994.782399999976,12.0,4.0,994.7828999999762,12.0,,,,998.726699999988,999.2265,998.2195999999644,998.7265999999642,995.789,998.2195999999644,999.2265,999.7263999999764,999.7263999999764,1001.3542999999524,1374.0,1001.3542999999524,3.0,1001.3543999999762,4.0,1.0,121.0,18.0,1.0,1.4,0.7,Time
,,S17,820531,1,男,20,anonymized,Serial_Dependence_U,2023.2.3,Win32,142.85714285714286,,,,,,1001.3546999999882,103.0,4.0,1001.3546999999882,103.0,,,,1005.3247999999522,1005.828099999964,1004.823,1005.3246999999882,1002.354199999988,1004.823,1005.828099999964,1006.3233999999762,1006.3233999999762,1007.6637999999524,1070.0,1007.6638999999764,2.0,1007.6638999999764,4.0,2.0,122.0,13.0,1.0,1.4,0.3,Time
,,S17,820531,1,男,20,anonymized,Serial_Dependence_U,2023.2.3,Win32,142.85714285714286,,,,,,1007.6640999999642,230.0,4.0,1007.664199999988,230.0,,,,1011.4283999999764,1011.9275,1010.927699999988,1011.4282999999524,1008.6665999999642,1010.9275999999642,1011.9275,1012.427399999976,1012.4275,1013.6635999999644,979.0,1013.6635999999644,2.0,1013.6637999999524,4.0,3.0,123.0,2.0,1.0,1.2,0.3,Time
,,S17,820531,1,男,20,anonymized,Serial_Dependence_U,2023.2.3,Win32,142.85714285714286,,,,,,1013.664,220.0,4.0,1013.664,220.0,,,,1017.608,1018.1078999999762,1017.1010999999644,1017.608,1014.6705999999645,1017.101,1018.1078999999762,1018.6078999999762,1018.6078999999762,1020.3577999999524,1514.0,1020.3577999999524,4.0,1020.358,4.0,4.0,124.0,8.0,1.0,1.4,0.7,Time
,,S17,820531,1,男,20,anonymized,Serial_Dependence_U,2023.2.3,Win32,142.85714285714286,,,,,,1020.3581999999882,343.0,4.0,1020.3582999999522,343.0,,,,1023.7050999999644,1024.2047999999522,1023.198199999988,1023.705,1021.364899999976,1023.1980999999644,1024.2047999999522,1024.704899999976,1024.704899999976,1026.045199999988,1125.0,1026.045199999988,5.0,1026.0455,4.0,5.0,125.0,5.0,1.0,0.8,0.7,Time
,,S17,820531,1,男,20,anonymized,Serial_Dependence_U,2023.2.3,Win32,142.85714285714286,,,,,,1026.045699999988,265.0,4.0,1026.045799999952,265.0,,,,1030.225899999976,1030.7207999999523,1029.718899999976,1030.225899999976,1027.052199999988,1029.718799999952,1030.7207999999523,1031.220699999988,1031.220699999988,1032.6174999999998,1139.0,1032.6174999999998,2.0,1032.617599999964,4.0,6.0,126.0,24.0,1.0,1.6,0.3,Time
,,S17,820531,1,男,20,anonymized,Serial_Dependence_U,2023.2.3,Win32,142.85714285714286,,,,,,1032.6177999999522,279.0,4.0,1032.6177999999522,279.0,,,,1036.760399999976,1037.260099999964,1036.253299999952,1036.7602999999522,1033.6215,1036.253299999952,1037.260099999964,1037.760099999964,1037.760099999964,1039.579599999964,1579.0,1039.579599999964,3.0,1039.579699999988,4.0,7.0,127.0,29.0,1.0,1.6,0.7,Time
,,S17,820531,1,男,20,anonymized,Serial_Dependence_U,2023.2.3,Win32,142.85714285714286,,,,,,1039.579899999976,15.0,4.0,1039.579899999976,15.0,,,,1043.5532999999523,1044.051599999964,1043.049,1043.5532999999523,1040.5865999999642,1043.048899999976,1044.051599999964,1044.5514999999998,1044.5514999999998,1046.5845,1195.0,1046.5845999999642,2.0,1046.584699999988,4.0,8.0,128.0,23.0,1.0,1.4,0.3,Time
,,S17,820531,1,男,20,anonymized,Serial_Dependence_U,2023.2.3,Win32,142.85714285714286,,,,,,1046.584899999976,276.0,4.0,1046.5849999999998,276.0,,,,1050.725199999988,1051.225,1050.222,1050.725199999988,1047.5855999999642,1050.222,1051.225,1051.7209999999998,1051.721099999964,1053.523699999988,1559.0,1053.523699999988,3.0,1053.5237999999522,4.0,9.0,129.0,9.0,1.0,1.6,0.7,Time
,,S17,820531,1,男,20,anonymized,Serial_Dependence_U,2023.2.3,Win32,142.85714285714286,,,,,,1053.524,152.0,4.0,1053.5240999999642,152.0,,,,1056.8932999999522,1057.3915999999642,1056.384899999976,1056.8932999999522,1054.523699999988,1056.3847999999523,1057.3915999999642,1057.8915999999642,1057.8915999999642,1059.1695,1017.0,1059.1695,4.0,1059.169599999964,4.0,10.0,130.0,0.0,1.0,0.8,0.3,Time
,,S17,820531,1,男,20,anonymized,Serial_Dependence_U,2023.2.3,Win32,142.85714285714286,,,,,,1059.169799999952,102.0,4.0,1059.169799999952,102.0,,,,1062.940199999988,1063.4399999999998,1062.4377999999522,1062.940099999964,1060.1719999999998,1062.437699999988,1063.4399999999998,1063.9399999999998,1063.9399999999998,1065.3567999999525,1213.0,1065.3567999999525,3.0,1065.357,4.0,11.0,131.0,12.0,1.0,1.2,0.3,Time
,,S17,820531,1,男,20,anonymized,Serial_Dependence_U,2023.2.3,Win32,142.85714285714286,,,,,,1065.357099999964,258.0,4.0,1065.357199999988,258.0,,,,1068.704,1069.203699999988,1068.197,1068.703899999976,1066.363699999988,1068.197,1069.203699999988,1069.7060999999642,1069.7060999999642,1071.035099999964,1180.0,1071.035199999988,5.0,1071.0352999999525,4.0,12.0,132.0,25.0,1.0,0.8,0.7,Time
,,S17,820531,1,男,20,anonymized,Serial_Dependence_U,2023.2.3,Win32,142.85714285714286,,,,,,1071.0355,67.0,4.0,1071.0355999999642,67.0,,,,1074.609599999964,1075.1062999999522,1074.099699999988,1074.6094999999998,1072.037199999988,1074.099699999988,1075.1062999999522,1075.606399999976,1075.606399999976,1077.127199999988,833.0,1077.127199999988,2.0,1077.127399999976,4.0,13.0,133.0,21.0,1.0,1.0,0.3,Time
,,S17,820531,1,男,20,anonymized,Serial_Dependence_U,2023.2.3,Win32,142.85714285714286,,,,,,1077.127599999964,215.0,4.0,1077.127699999988,215.0,,,,1081.071599999964,1081.571599999964,1080.5675999999642,1081.071599999964,1078.134199999988,1080.5675,1081.571599999964,1082.071399999976,1082.0714999999998,1083.613099999964,1348.0,1083.613099999964,3.0,1083.613199999988,4.0,14.0,134.0,28.0,1.0,1.4,0.7,Time
,,S17,820531,1,男,20,anonymized,Serial_Dependence_U,2023.2.3,Win32,142.85714285714286,,,,,,1083.613399999976,104.0,4.0,1083.6135,104.0,,,,1086.988199999988,1087.4879999999998,1086.481199999988,1086.988099999964,1084.620199999988,1086.481199999988,1087.488099999964,1087.9879999999998,1087.9879999999998,1089.1615999999642,902.0,1089.1615999999642,4.0,1089.161899999976,4.0,15.0,135.0,10.0,1.0,0.8,0.3,Time
,,S17,820531,1,男,20,anonymized,Serial_Dependence_U,2023.2.3,Win32,142.85714285714286,,,,,,1089.1619999999998,221.0,4.0,1089.1619999999998,221.0,,,,1092.508899999976,1093.0087999999523,1092.0065999999642,1092.508899999976,1090.168699999988,1092.0065,1093.0087999999523,1093.508699999988,1093.508699999988,1094.6615999999642,915.0,1094.6615999999642,4.0,1094.661699999988,4.0,16.0,136.0,15.0,1.0,0.8,0.7,Time
,,S17,820531,1,男,20,anonymized,Serial_Dependence_U,2023.2.3,Win32,142.85714285714286,,,,,,1094.6619999999998,145.0,4.0,1094.6619999999998,145.0,,,,1098.198899999976,1098.698199999988,1097.692199999988,1098.198899999976,1095.661699999988,1097.6919999999998,1098.698199999988,1099.1982999999525,1099.1982999999525,1100.868199999988,1329.0,1100.868299999952,5.0,1100.868399999976,4.0,17.0,137.0,16.0,1.0,1.0,0.7,Time
,,S17,820531,1,男,20,anonymized,Serial_Dependence_U,2023.2.3,Win32,142.85714285714286,,,,,,1100.868599999964,305.0,4.0,1100.868599999964,305.0,,,,1105.0510999999642,1105.55,1104.545899999976,1105.051,1101.8767999999525,1104.545799999952,1105.55,1106.05,1106.05,1107.411199999988,1156.0,1107.4112999999522,2.0,1107.411399999976,4.0,18.0,138.0,4.0,1.0,1.6,0.3,Time
,,S17,820531,1,男,20,anonymized,Serial_Dependence_U,2023.2.3,Win32,142.85714285714286,,,,,,1107.4115999999642,294.0,4.0,1107.411699999988,294.0,,,,1111.5569999999998,1112.056799999952,1111.052899999976,1111.556899999976,1108.418199999988,1111.052899999976,1112.056799999952,1112.556799999952,1112.556799999952,1114.412699999988,1671.0,1114.412699999988,3.0,1114.412899999976,4.0,19.0,139.0,19.0,1.0,1.6,0.7,Time
,,S17,820531,1,男,20,anonymized,Serial_Dependence_U,2023.2.3,Win32,142.85714285714286,,,,,,1114.4129999999998,282.0,4.0,1114.413099999964,282.0,,,,1117.952699999988,1118.452399999976,1117.448399999976,1117.952699999988,1115.411099999964,1117.4482999999525,1118.452399999976,1118.9525,1118.9525,1120.6329999999998,1464.0,1120.633099999964,5.0,1120.6332999999522,4.0,20.0,140.0,26.0,1.0,1.0,0.7,Time
,,S17,820531,1,男,20,anonymized,Serial_Dependence_U,2023.2.3,Win32,142.85714285714286,,,,,,1120.633399999976,195.0,4.0,1120.6335,195.0,,,,1124.376099999964,1124.876,1123.8722999999522,1124.376099999964,1121.64,1123.872099999964,1124.876,1125.376599999964,1125.376599999964,1127.226399999976,1568.0,1127.226399999976,5.0,1127.2265,4.0,21.0,141.0,17.0,1.0,1.2,0.7,Time
,,S17,820531,1,男,20,anonymized,Serial_Dependence_U,2023.2.3,Win32,142.85714285714286,,,,,,1127.226699999988,261.0,4.0,1127.2267999999522,261.0,,,,1131.202399999976,1131.702099999964,1130.6954999999998,1131.202399999976,1128.230199999988,1130.695399999976,1131.702099999964,1132.202199999988,1132.2022999999522,1133.695199999988,1287.0,1133.695299999952,2.0,1133.695399999976,4.0,22.0,142.0,3.0,1.0,1.4,0.3,Time
,,S17,820531,1,男,20,anonymized,Serial_Dependence_U,2023.2.3,Win32,142.85714285714286,,,,,,1133.695599999964,178.0,4.0,1133.695699999988,178.0,,,,1137.445299999952,1137.945,1136.9382999999525,1137.445299999952,1134.702199999988,1136.9382999999525,1137.945,1138.445,1138.4450999999642,1140.236699999988,1602.0,1140.236699999988,5.0,1140.236899999976,4.0,23.0,143.0,27.0,1.0,1.2,0.7,Time
,,S17,820531,1,男,20,anonymized,Serial_Dependence_U,2023.2.3,Win32,142.85714285714286,,,,,,1140.237099999964,233.0,4.0,1140.237099999964,233.0,,,,1144.412199999988,1144.910099999964,1143.910399999976,1144.412099999964,1141.2437999999522,1143.9102999999525,1144.910199999988,1145.410099999964,1145.410099999964,1146.9708999999762,1339.0,1146.9708999999762,2.0,1146.9709999999998,4.0,24.0,144.0,14.0,1.0,1.6,0.3,Time
,,S17,820531,1,男,20,anonymized,Serial_Dependence_U,2023.2.3,Win32,142.85714285714286,,,,,,1146.971199999988,56.0,4.0,1146.971199999988,56.0,,,,1150.5142999999523,1151.0140999999642,1150.007399999976,1150.514199999988,1147.9754999999998,1150.0072999999522,1151.0140999999642,1151.5140999999642,1151.5140999999642,1153.042,1287.0,1153.042,4.0,1153.042199999988,4.0,25.0,145.0,6.0,1.0,1.0,0.7,Time
,,S17,820531,1,男,20,anonymized,Serial_Dependence_U,2023.2.3,Win32,142.85714285714286,,,,,,1153.042399999976,94.0,4.0,1153.0424999999998,94.0,,,,1156.792,1157.291699999988,1156.285099999964,1156.792,1154.049,1156.285,1157.2917999999522,1157.7917999999522,1157.7917999999522,1159.3542999999522,1333.0,1159.354399999976,4.0,1159.3545,4.0,26.0,146.0,7.0,1.0,1.2,0.7,Time
,,S17,820531,1,男,20,anonymized,Serial_Dependence_U,2023.2.3,Win32,142.85714285714286,,,,,,1159.354699999988,46.0,4.0,1159.354799999952,46.0,,,,1162.9237999999525,1163.4235999999642,1162.416899999976,1162.923699999988,1160.354399999976,1162.416899999976,1163.4235999999642,1163.9235999999642,1163.9235999999642,1165.4515,1051.0,1165.4515,4.0,1165.4515999999642,4.0,27.0,147.0,11.0,1.0,1.0,0.3,Time
,,S17,820531,1,男,20,anonymized,Serial_Dependence_U,2023.2.3,Win32,142.85714285714286,,,,,,1165.4517999999523,91.0,4.0,1165.451899999976,91.0,,,,1169.229199999988,1169.728899999976,1168.722199999988,1169.229099999964,1166.4582999999525,1168.722099999964,1169.7289999999998,1170.228899999976,1170.228899999976,1171.612,1132.0,1171.612099999964,2.0,1171.612199999988,4.0,28.0,148.0,22.0,1.0,1.2,0.3,Time
,,S17,820531,1,男,20,anonymized,Serial_Dependence_U,2023.2.3,Win32,142.85714285714286,,,,,,1171.612399999976,38.0,4.0,1171.6125,38.0,,,,1175.1873999999762,1175.6870999999642,1174.680399999976,1175.1872999999523,1172.618,1174.680399999976,1175.6870999999642,1176.1870999999642,1176.1870999999642,1177.312199999988,850.0,1177.312199999988,2.0,1177.3122999999523,4.0,29.0,149.0,1.0,1.0,1.0,0.3,Time
,,S17,820531,1,男,20,anonymized,Serial_Dependence_U,2023.2.3,Win32,142.85714285714286,,,,,,1177.3125,277.0,5.0,1243.1437999999523,277.0,s,65.82530000001202,,1247.1229999999998,1247.622799999952,1246.616199999988,1247.1229999999998,1244.150899999976,1246.616099999964,1247.622799999952,1248.122799999952,1248.122799999952,1249.553399999976,1172.0,1249.553399999976,2.0,1249.553599999964,5.0,0.0,150.0,23.0,1.0,1.4,0.3,Time
,,S17,820531,1,男,20,anonymized,Serial_Dependence_U,2023.2.3,Win32,142.85714285714286,,,,,,1249.5537999999522,15.0,5.0,1249.554399999976,15.0,,,,1253.327,1253.826099999964,1252.8242999999522,1253.327,1250.560399999976,1252.8242999999522,1253.826099999964,1254.326399999976,1254.326399999976,1255.625699999988,1069.0,1255.6257999999525,2.0,1255.625899999976,5.0,1.0,151.0,12.0,1.0,1.2,0.3,Time
,,S17,820531,1,男,20,anonymized,Serial_Dependence_U,2023.2.3,Win32,142.85714285714286,,,,,,1255.626,187.0,5.0,1255.626,187.0,,,,1259.567099999964,1260.0669999999998,1259.063,1259.5669999999998,1256.6255,1259.063,1260.0669999999998,1260.5668999999762,1260.5669999999998,1262.334099999964,1506.0,1262.334199999988,4.0,1262.3342999999522,5.0,2.0,152.0,8.0,1.0,1.4,0.7,Time
,,S17,820531,1,男,20,anonymized,Serial_Dependence_U,2023.2.3,Win32,142.85714285714286,,,,,,1262.334399999976,179.0,5.0,1262.3345,179.0,,,,1266.31,1266.8097999999522,1265.805799999952,1266.31,1263.3394999999998,1265.805699999988,1266.8097999999522,1267.3097999999522,1267.3097999999522,1268.715899999976,1220.0,1268.715899999976,2.0,1268.716,5.0,3.0,153.0,13.0,1.0,1.4,0.3,Time
,,S17,820531,1,男,20,anonymized,Serial_Dependence_U,2023.2.3,Win32,142.85714285714286,,,,,,1268.716199999988,61.0,5.0,1268.716199999988,61.0,,,,1272.462699999988,1272.962399999976,1271.955699999988,1272.462599999964,1269.7212999999522,1271.955599999964,1272.962399999976,1273.462399999976,1273.462399999976,1275.210899999976,1471.0,1275.210899999976,4.0,1275.2109999999998,5.0,4.0,154.0,7.0,1.0,1.2,0.7,Time
,,S17,820531,1,男,20,anonymized,Serial_Dependence_U,2023.2.3,Win32,142.85714285714286,,,,,,1275.211199999988,100.0,5.0,1275.211199999988,100.0,,,,1278.990199999988,1279.4899999999998,1278.483299999952,1278.990199999988,1276.221199999988,1278.483199999988,1279.4899999999998,1279.990099999964,1279.990099999964,1281.3997999999522,1162.0,1281.399899999976,3.0,1281.4,5.0,5.0,155.0,22.0,1.0,1.2,0.3,Time
,,S17,820531,1,男,20,anonymized,Serial_Dependence_U,2023.2.3,Win32,142.85714285714286,,,,,,1281.400099999964,46.0,5.0,1281.400099999964,46.0,,,,1284.969399999976,1285.4689999999998,1284.462399999976,1284.969399999976,1282.4,1284.4622999999522,1285.469099999964,1285.969099999964,1285.969099999964,1287.0455999999642,829.0,1287.0455999999642,2.0,1287.045699999988,5.0,6.0,156.0,21.0,1.0,1.0,0.3,Time
,,S17,820531,1,男,20,anonymized,Serial_Dependence_U,2023.2.3,Win32,142.85714285714286,,,,,,1287.045899999976,221.0,5.0,1287.0459999999998,221.0,,,,1291.024599999964,1291.5245,1290.517899999976,1291.024599999964,1288.052599999964,1290.517799999952,1291.5245,1292.024399999976,1292.024399999976,1293.5245,1294.0,1293.5245,2.0,1293.524699999988,5.0,7.0,157.0,3.0,1.0,1.4,0.3,Time
,,S17,820531,1,男,20,anonymized,Serial_Dependence_U,2023.2.3,Win32,142.85714285714286,,,,,,1293.524899999976,245.0,5.0,1293.524899999976,245.0,,,,1297.6660999999642,1298.165399999976,1297.161799999952,1297.6660999999642,1294.524599999964,1297.161799999952,1298.165399999976,1298.6605999999642,1298.6605999999642,1300.434099999964,1459.0,1300.434099999964,2.0,1300.434199999988,5.0,8.0,158.0,29.0,1.0,1.6,0.7,Time
,,S17,820531,1,男,20,anonymized,Serial_Dependence_U,2023.2.3,Win32,142.85714285714286,,,,,,1300.434399999976,139.0,5.0,1300.434399999976,139.0,,,,1303.986,1304.4824999999998,1303.475699999988,1303.986,1301.441099999964,1303.475699999988,1304.4824999999998,1304.9824999999998,1304.9824999999998,1306.7185999999642,1516.0,1306.7185999999642,5.0,1306.7185999999642,5.0,9.0,159.0,6.0,1.0,1.0,0.7,Time
,,S17,820531,1,男,20,anonymized,Serial_Dependence_U,2023.2.3,Win32,142.85714285714286,,,,,,1306.718899999976,46.0,5.0,1306.7189999999998,46.0,,,,1310.8990999999642,1311.398899999976,1310.395099999964,1310.8990999999642,1307.725599999964,1310.395,1311.398899999976,1311.899,1311.899,1313.433699999988,1327.0,1313.4337999999525,2.0,1313.433899999976,5.0,10.0,160.0,14.0,1.0,1.6,0.3,Time
,,S17,820531,1,男,20,anonymized,Serial_Dependence_U,2023.2.3,Win32,142.85714285714286,,,,,,1313.434099999964,94.0,5.0,1313.434099999964,94.0,,,,1317.572699999988,1318.072399999976,1317.0685,1317.572599999964,1314.4364999999998,1317.0685,1318.072399999976,1318.567699999988,1318.567699999988,1320.6280999999642,1847.0,1320.6280999999642,4.0,1320.628199999988,5.0,11.0,161.0,9.0,1.0,1.6,0.7,Time
,,S17,820531,1,男,20,anonymized,Serial_Dependence_U,2023.2.3,Win32,142.85714285714286,,,,,,1320.628299999952,47.0,5.0,1320.628399999976,47.0,,,,1323.975199999988,1324.475,1323.4682999999525,1323.975199999988,1321.635,1323.468199999988,1324.475,1324.975,1324.975,1326.398699999988,1216.0,1326.398699999988,5.0,1326.398899999976,5.0,12.0,162.0,25.0,1.0,0.8,0.7,Time
,,S17,820531,1,男,20,anonymized,Serial_Dependence_U,2023.2.3,Win32,142.85714285714286,,,,,,1326.3990999999642,188.0,5.0,1326.3990999999642,188.0,,,,1329.745899999976,1330.245699999988,1329.2389999999998,1329.7457999999522,1327.4057999999525,1329.2389999999998,1330.245699999988,1330.7457999999522,1330.745899999976,1332.0582999999522,1124.0,1332.058399999976,5.0,1332.058399999976,5.0,13.0,163.0,15.0,1.0,0.8,0.7,Time
,,S17,820531,1,男,20,anonymized,Serial_Dependence_U,2023.2.3,Win32,142.85714285714286,,,,,,1332.058699999988,192.0,5.0,1332.058699999988,192.0,,,,1335.4054999999998,1335.905299999952,1334.898699999988,1335.4054999999998,1333.0652999999522,1334.898599999964,1335.905299999952,1336.405299999952,1336.405299999952,1337.655399999976,1041.0,1337.655399999976,5.0,1337.655599999964,5.0,14.0,164.0,5.0,1.0,0.8,0.7,Time
,,S17,820531,1,男,20,anonymized,Serial_Dependence_U,2023.2.3,Win32,142.85714285714286,,,,,,1337.655699999988,313.0,5.0,1337.6557999999525,313.0,,,,1341.405299999952,1341.905199999988,1340.898399999976,1341.405299999952,1338.6625,1340.8982999999523,1341.905199999988,1342.405199999988,1342.405199999988,1343.870399999976,1303.0,1343.870399999976,4.0,1343.870599999964,5.0,15.0,165.0,27.0,1.0,1.2,0.7,Time
,,S17,820531,1,男,20,anonymized,Serial_Dependence_U,2023.2.3,Win32,142.85714285714286,,,,,,1343.8707999999522,81.0,5.0,1343.8707999999522,81.0,,,,1347.419199999988,1347.9187999999522,1346.912199999988,1347.419099999964,1344.8774999999998,1346.912099999964,1347.9187999999522,1348.418899999976,1348.418899999976,1350.1757999999522,1467.0,1350.1757999999522,5.0,1350.176,5.0,16.0,166.0,26.0,1.0,1.0,0.7,Time
,,S17,820531,1,男,20,anonymized,Serial_Dependence_U,2023.2.3,Win32,142.85714285714286,,,,,,1350.176199999988,239.0,5.0,1350.176199999988,239.0,,,,1353.752299999952,1354.2520999999642,1353.245399999976,1353.752199999988,1351.182899999976,1353.245399999976,1354.2520999999642,1354.752,1354.752,1355.995199999988,1010.0,1355.995199999988,3.0,1355.9952999999523,5.0,17.0,167.0,1.0,1.0,1.0,0.3,Time
,,S17,820531,1,男,20,anonymized,Serial_Dependence_U,2023.2.3,Win32,142.85714285714286,,,,,,1355.9955,226.0,5.0,1355.995599999964,226.0,,,,1359.7415,1360.2402999999522,1359.2382999999522,1359.741399999976,1357.0020999999642,1359.2382999999522,1360.2402999999522,1360.740199999988,1360.740199999988,1362.389399999976,1349.0,1362.389399999976,4.0,1362.3895,5.0,18.0,168.0,17.0,1.0,1.2,0.7,Time
,,S17,820531,1,男,20,anonymized,Serial_Dependence_U,2023.2.3,Win32,142.85714285714286,,,,,,1362.389699999988,217.0,5.0,1362.3897999999522,217.0,,,,1365.7587999999523,1366.2587999999523,1365.254599999964,1365.7587999999523,1363.3905,1365.254599999964,1366.2587999999523,1366.7585999999642,1366.7585999999642,1367.935399999976,938.0,1367.9354999999998,4.0,1367.935599999964,5.0,19.0,169.0,0.0,1.0,0.8,0.3,Time
,,S17,820531,1,男,20,anonymized,Serial_Dependence_U,2023.2.3,Win32,142.85714285714286,,,,,,1367.935699999988,204.0,5.0,1367.935699999988,204.0,,,,1372.078199999988,1372.577899999976,1371.5710999999642,1372.078199999988,1368.9392999999525,1371.5710999999642,1372.577899999976,1373.078,1373.078,1374.7862999999522,1509.0,1374.7862999999522,2.0,1374.786399999976,5.0,20.0,170.0,19.0,1.0,1.6,0.7,Time
,,S17,820531,1,男,20,anonymized,Serial_Dependence_U,2023.2.3,Win32,142.85714285714286,,,,,,1374.7865999999642,112.0,5.0,1374.7865999999642,112.0,,,,1378.7307999999523,1379.2305999999642,1378.227599999964,1378.730699999988,1375.7879999999998,1378.2275,1379.2305999999642,1379.7305999999642,1379.7305999999642,1381.529199999988,1550.0,1381.5292999999522,4.0,1381.529399999976,5.0,21.0,171.0,28.0,1.0,1.4,0.7,Time
,,S17,820531,1,男,20,anonymized,Serial_Dependence_U,2023.2.3,Win32,142.85714285714286,,,,,,1381.529599999964,102.0,5.0,1381.529699999988,102.0,,,,1385.3,1385.7997999999525,1384.7930999999642,1385.299899999976,1382.529399999976,1384.7930999999642,1385.799899999976,1386.2997999999525,1386.2997999999525,1387.522199999988,1033.0,1387.522199999988,2.0,1387.522299999952,5.0,22.0,172.0,2.0,1.0,1.2,0.3,Time
,,S17,820531,1,男,20,anonymized,Serial_Dependence_U,2023.2.3,Win32,142.85714285714286,,,,,,1387.5224999999998,318.0,5.0,1387.522599999964,318.0,,,,1390.890199999988,1391.389899999976,1390.383199999988,1390.890099999964,1388.522199999988,1390.383199999988,1391.389899999976,1391.889899999976,1391.89,1392.9802999999522,847.0,1392.9802999999522,4.0,1392.9805,5.0,23.0,173.0,10.0,1.0,0.8,0.3,Time
,,S17,820531,1,男,20,anonymized,Serial_Dependence_U,2023.2.3,Win32,142.85714285714286,,,,,,1392.9805999999642,32.0,5.0,1392.980699999988,32.0,,,,1396.5497999999525,1397.049599999964,1396.042899999976,1396.5497999999525,1393.9805999999642,1396.042899999976,1397.049599999964,1397.5495,1397.5495,1398.875899999976,1086.0,1398.875899999976,4.0,1398.876199999988,5.0,24.0,174.0,11.0,1.0,1.0,0.3,Time
,,S17,820531,1,男,20,anonymized,Serial_Dependence_U,2023.2.3,Win32,142.85714285714286,,,,,,1398.876399999976,263.0,5.0,1398.876399999976,263.0,,,,1402.424699999988,1402.924399999976,1401.917699999988,1402.424599999964,1399.8829999999998,1401.917699999988,1402.9245,1403.424399999976,1403.424399999976,1405.0495,1326.0,1405.0495,5.0,1405.049699999988,5.0,25.0,175.0,16.0,1.0,1.0,0.7,Time
,,S17,820531,1,男,20,anonymized,Serial_Dependence_U,2023.2.3,Win32,142.85714285714286,,,,,,1405.049899999976,304.0,5.0,1405.049899999976,304.0,,,,1408.994,1409.493699999988,1408.487,1408.993899999976,1406.0565,1408.487,1409.493699999988,1409.993599999964,1409.993599999964,1411.952099999964,1744.0,1411.952099999964,4.0,1411.952199999988,5.0,26.0,176.0,18.0,1.0,1.4,0.7,Time
,,S17,820531,1,男,20,anonymized,Serial_Dependence_U,2023.2.3,Win32,142.85714285714286,,,,,,1411.9525,233.0,5.0,1411.952599999964,233.0,,,,1416.1325999999642,1416.632399999976,1415.625699999988,1416.1325,1412.959199999988,1415.625699999988,1416.632399999976,1417.1322999999522,1417.1322999999522,1418.5282999999522,1223.0,1418.528399999976,2.0,1418.528399999976,5.0,27.0,177.0,4.0,1.0,1.6,0.3,Time
,,S17,820531,1,男,20,anonymized,Serial_Dependence_U,2023.2.3,Win32,142.85714285714286,,,,,,1418.5285999999642,100.0,5.0,1418.528699999988,100.0,,,,1421.9032999999522,1422.403099999964,1421.3964999999998,1421.903199999988,1419.535399999976,1421.396399999976,1422.403099999964,1422.903099999964,1422.903099999964,1423.972899999976,763.0,1423.972899999976,3.0,1423.973,5.0,28.0,178.0,20.0,1.0,0.8,0.3,Time
,,S17,820531,1,男,20,anonymized,Serial_Dependence_U,2023.2.3,Win32,142.85714285714286,,,,,,1423.973199999988,221.0,5.0,1423.973299999952,221.0,,,,1428.153099999964,1428.652899999976,1427.6460999999642,1428.153099999964,1424.9795999999642,1427.6460999999642,1428.6529999999998,1429.152899999976,1429.152899999976,1430.687699999988,1327.0,1430.687699999988,2.0,1430.687899999976,5.0,29.0,179.0,24.0,1.0,1.6,0.3,Time
,,S17,820531,1,男,20,anonymized,Serial_Dependence_U,2023.2.3,Win32,142.85714285714286,,,,,,1430.687899999976,108.0,6.0,1433.996,108.0,s,3.302400000035732,,1437.5694999999998,1438.069399999976,1437.065399999976,1437.5694999999998,1435.000199999988,1437.065399999976,1438.069399999976,1438.569299999952,1438.569299999952,1439.8282999999522,955.0,1439.8282999999522,3.0,1439.828399999976,6.0,0.0,180.0,1.0,1.0,1.0,0.3,Time
,,S17,820531,1,男,20,anonymized,Serial_Dependence_U,2023.2.3,Win32,142.85714285714286,,,,,,1439.828599999964,225.0,6.0,1439.829199999988,225.0,,,,1443.773699999988,1444.270599999964,1443.2669999999998,1443.773599999964,1440.8325,1443.2669999999998,1444.270599999964,1444.770599999964,1444.770599999964,1446.451099999964,1425.0,1446.451199999988,3.0,1446.4512999999522,6.0,1.0,181.0,8.0,1.0,1.4,0.7,Time
,,S17,820531,1,男,20,anonymized,Serial_Dependence_U,2023.2.3,Win32,142.85714285714286,,,,,,1446.4515,273.0,6.0,1446.4515999999642,273.0,,,,1450.201099999964,1450.7009999999998,1449.696899999976,1450.201099999964,1447.458099999964,1449.696899999976,1450.7009999999998,1451.200899999976,1451.2009999999998,1453.1,1713.0,1453.1000999999642,5.0,1453.100199999988,6.0,2.0,182.0,27.0,1.0,1.2,0.7,Time
,,S17,820531,1,男,20,anonymized,Serial_Dependence_U,2023.2.3,Win32,142.85714285714286,,,,,,1453.100399999976,284.0,6.0,1453.1004999999998,284.0,,,,1456.839899999976,1457.339599999964,1456.335699999988,1456.839899999976,1454.103799999952,1456.335699999988,1457.339699999988,1457.839699999988,1457.839699999988,1459.568899999976,1468.0,1459.569,4.0,1459.5690999999642,6.0,3.0,183.0,17.0,1.0,1.2,0.7,Time
,,S17,820531,1,男,20,anonymized,Serial_Dependence_U,2023.2.3,Win32,142.85714285714286,,,,,,1459.569299999952,92.0,6.0,1459.569299999952,92.0,,,,1463.7457999999522,1464.242299999952,1463.238399999976,1463.7457999999522,1460.575899999976,1463.2382999999522,1464.242399999976,1464.742399999976,1464.742399999976,1466.1242999999522,1138.0,1466.1242999999522,2.0,1466.124399999976,6.0,4.0,184.0,14.0,1.0,1.6,0.3,Time
,,S17,820531,1,男,20,anonymized,Serial_Dependence_U,2023.2.3,Win32,142.85714285714286,,,,,,1466.1245999999642,131.0,6.0,1466.124699999988,131.0,,,,1470.068699999988,1470.5685,1469.5642999999525,1470.068599999964,1467.1312999999525,1469.564199999988,1470.568599999964,1471.0685,1471.068599999964,1472.6125,1297.0,1472.6125,2.0,1472.6125999999642,6.0,5.0,185.0,28.0,1.0,1.4,0.7,Time
,,S17,820531,1,男,20,anonymized,Serial_Dependence_U,2023.2.3,Win32,142.85714285714286,,,,,,1472.612699999988,132.0,6.0,1472.612799999952,132.0,,,,1476.3880999999642,1476.8877999999522,1475.883399999976,1476.388,1473.617199999988,1475.883399999976,1476.8877999999522,1477.387899999976,1477.387899999976,1478.668899999976,1053.0,1478.668899999976,2.0,1478.669099999964,6.0,6.0,186.0,22.0,1.0,1.2,0.3,Time
,,S17,820531,1,男,20,anonymized,Serial_Dependence_U,2023.2.3,Win32,142.85714285714286,,,,,,1478.669199999988,34.0,6.0,1478.669399999976,34.0,,,,1482.6447999999525,1483.1445999999642,1482.137899999976,1482.6447999999525,1479.6725999999642,1482.1377999999522,1483.1445999999642,1483.6445999999642,1483.6445999999642,1485.2904999999998,1382.0,1485.2904999999998,3.0,1485.290599999964,6.0,7.0,187.0,13.0,1.0,1.4,0.3,Time
,,S17,820531,1,男,20,anonymized,Serial_Dependence_U,2023.2.3,Win32,142.85714285714286,,,,,,1485.2907999999522,209.0,6.0,1485.2907999999522,209.0,,,,1489.4709999999998,1489.970699999988,1488.9640999999642,1489.4708999999762,1486.2975,1488.9640999999642,1489.9707999999523,1490.4707999999523,1490.4707999999523,1492.498799999952,1494.0,1492.498799999952,2.0,1492.498899999976,6.0,8.0,188.0,24.0,1.0,1.6,0.3,Time
,,S17,820531,1,男,20,anonymized,Serial_Dependence_U,2023.2.3,Win32,142.85714285714286,,,,,,1492.4989999999998,357.0,6.0,1492.4989999999998,357.0,,,,1495.873699999988,1496.373399999976,1495.3667999999525,1495.8735999999642,1493.505599999964,1495.366699999988,1496.373399999976,1496.873399999976,1496.873399999976,1498.0817999999522,938.0,1498.081899999976,4.0,1498.082,6.0,9.0,189.0,10.0,1.0,0.8,0.3,Time
,,S17,820531,1,男,20,anonymized,Serial_Dependence_U,2023.2.3,Win32,142.85714285714286,,,,,,1498.0820999999642,6.0,6.0,1498.082199999988,6.0,,,,1501.6582999999523,1502.158,1501.1512999999522,1501.6582999999523,1499.0887999999522,1501.1512999999522,1502.158,1502.658,1502.658,1504.3735,1398.0,1504.3735,5.0,1504.3735999999642,6.0,10.0,190.0,11.0,1.0,1.0,0.3,Time
,,S17,820531,1,男,20,anonymized,Serial_Dependence_U,2023.2.3,Win32,142.85714285714286,,,,,,1504.373799999952,296.0,6.0,1504.373799999952,296.0,,,,1508.519099999964,1509.0189999999998,1508.012299999952,1508.5189999999998,1505.380399999976,1508.012299999952,1509.0189999999998,1509.5189999999998,1509.5189999999998,1511.595399999976,1840.0,1511.595399999976,4.0,1511.5955999999642,6.0,11.0,191.0,29.0,1.0,1.6,0.7,Time
,,S17,820531,1,男,20,anonymized,Serial_Dependence_U,2023.2.3,Win32,142.85714285714286,,,,,,1511.595699999988,139.0,6.0,1511.595699999988,139.0,,,,1515.741199999988,1516.241,1515.234299999952,1515.741199999988,1512.602399999976,1515.234199999988,1516.241,1516.741,1516.741,1518.741,1769.0,1518.741,4.0,1518.741199999988,6.0,12.0,192.0,19.0,1.0,1.6,0.7,Time
,,S17,820531,1,男,20,anonymized,Serial_Dependence_U,2023.2.3,Win32,142.85714285714286,,,,,,1518.741399999976,192.0,6.0,1518.741399999976,192.0,,,,1522.886899999976,1523.386599999964,1522.3800999999642,1522.886899999976,1519.748199999988,1522.38,1523.386599999964,1523.886599999964,1523.886599999964,1525.553399999976,1390.0,1525.553399999976,2.0,1525.5535,6.0,13.0,193.0,9.0,1.0,1.6,0.7,Time
,,S17,820531,1,男,20,anonymized,Serial_Dependence_U,2023.2.3,Win32,142.85714285714286,,,,,,1525.553699999988,163.0,6.0,1525.5537999999522,163.0,,,,1529.299099999964,1529.798399999976,1528.792199999988,1529.299,1526.560399999976,1528.7920999999642,1529.7985,1530.2985999999642,1530.2985999999642,1531.9280999999642,1405.0,1531.928199999988,4.0,1531.9282999999523,6.0,14.0,194.0,7.0,1.0,1.2,0.7,Time
,,S17,820531,1,男,20,anonymized,Serial_Dependence_U,2023.2.3,Win32,142.85714285714286,,,,,,1531.9285,88.0,6.0,1531.928599999964,88.0,,,,1535.4767999999522,1535.976599999964,1534.972699999988,1535.4767999999522,1532.936899999976,1534.972599999964,1535.976599999964,1536.4765,1536.4765,1538.046099999964,1303.0,1538.046099999964,5.0,1538.0462999999522,6.0,15.0,195.0,26.0,1.0,1.0,0.7,Time
,,S17,820531,1,男,20,anonymized,Serial_Dependence_U,2023.2.3,Win32,142.85714285714286,,,,,,1538.0465,15.0,6.0,1538.0465999999642,15.0,,,,1541.9905,1542.4902999999522,1541.4834999999998,1541.990399999976,1539.0530999999642,1541.483399999976,1542.4902999999522,1542.9902999999522,1542.990399999976,1544.889399999976,1661.0,1544.8895,4.0,1544.8895,6.0,16.0,196.0,18.0,1.0,1.4,0.7,Time
,,S17,820531,1,男,20,anonymized,Serial_Dependence_U,2023.2.3,Win32,142.85714285714286,,,,,,1544.889699999988,25.0,6.0,1544.8897999999522,25.0,,,,1548.861199999988,1549.357099999964,1548.354799999952,1548.8610999999642,1545.893199999988,1548.354699999988,1549.357099999964,1549.856899999976,1549.856899999976,1551.167,1021.0,1551.1670999999642,2.0,1551.167199999988,6.0,17.0,197.0,23.0,1.0,1.4,0.3,Time
,,S17,820531,1,男,20,anonymized,Serial_Dependence_U,2023.2.3,Win32,142.85714285714286,,,,,,1551.167399999976,338.0,6.0,1551.167399999976,338.0,,,,1554.9305999999642,1555.429799999952,1554.430399999976,1554.9305999999642,1552.1667999999522,1554.4302999999522,1555.429799999952,1555.9299999999998,1555.9299999999998,1557.3135,1118.0,1557.313599999964,2.0,1557.313599999964,6.0,18.0,198.0,2.0,1.0,1.2,0.3,Time
,,S17,820531,1,男,20,anonymized,Serial_Dependence_U,2023.2.3,Win32,142.85714285714286,,,,,,1557.3137999999522,87.0,6.0,1557.313899999976,87.0,,,,1560.8607999999522,1561.360199999988,1560.355199999988,1560.860699999988,1558.319199999988,1560.355199999988,1561.360199999988,1561.86,1561.86,1563.416699999988,1271.0,1563.416699999988,4.0,1563.4167999999522,6.0,19.0,199.0,6.0,1.0,1.0,0.7,Time
,,S17,820531,1,男,20,anonymized,Serial_Dependence_U,2023.2.3,Win32,142.85714285714286,,,,,,1563.416899999976,44.0,6.0,1563.417,44.0,,,,1566.753699999988,1567.253599999964,1566.246799999952,1566.753699999988,1564.416299999952,1566.246799999952,1567.253599999964,1567.7534999999998,1567.7534999999998,1569.2357999999522,1160.0,1569.235899999976,5.0,1569.236,6.0,20.0,200.0,15.0,1.0,0.8,0.7,Time
,,S17,820531,1,男,20,anonymized,Serial_Dependence_U,2023.2.3,Win32,142.85714285714286,,,,,,1569.2360999999642,266.0,6.0,1569.236199999988,266.0,,,,1573.204899999976,1573.704699999988,1572.700799999952,1573.2047999999522,1570.235599999964,1572.7005999999642,1573.704699999988,1574.204699999988,1574.204699999988,1575.791199999988,1305.0,1575.791199999988,2.0,1575.791399999976,6.0,21.0,201.0,3.0,1.0,1.4,0.3,Time
,,S17,820531,1,男,20,anonymized,Serial_Dependence_U,2023.2.3,Win32,142.85714285714286,,,,,,1575.791599999964,250.0,6.0,1575.791699999988,250.0,,,,1579.135399999976,1579.635199999988,1578.6284999999998,1579.135399999976,1576.796899999976,1578.6284999999998,1579.635199999988,1580.135199999988,1580.1352999999522,1581.933899999976,1410.0,1581.933899999976,5.0,1581.934,6.0,22.0,202.0,25.0,1.0,0.8,0.7,Time
,,S17,820531,1,男,20,anonymized,Serial_Dependence_U,2023.2.3,Win32,142.85714285714286,,,,,,1581.934199999988,150.0,6.0,1581.934199999988,150.0,,,,1585.308899999976,1585.808699999988,1584.8020999999642,1585.308899999976,1582.940899999976,1584.801899999976,1585.808699999988,1586.3087999999525,1586.3087999999525,1587.2044999999998,670.0,1587.204599999964,2.0,1587.204699999988,6.0,23.0,203.0,0.0,1.0,0.8,0.3,Time
,,S17,820531,1,男,20,anonymized,Serial_Dependence_U,2023.2.3,Win32,142.85714285714286,,,,,,1587.205,0.0,6.0,1587.2050999999642,0.0,,,,1590.544899999976,1591.044599999964,1590.037899999976,1590.544799999952,1588.206599999964,1590.0377999999523,1591.044599999964,1591.544599999964,1591.544599999964,1593.051699999988,1292.0,1593.051699999988,5.0,1593.0517999999522,6.0,24.0,204.0,5.0,1.0,0.8,0.7,Time
,,S17,820531,1,男,20,anonymized,Serial_Dependence_U,2023.2.3,Win32,142.85714285714286,,,,,,1593.051899999976,14.0,6.0,1593.0520999999642,14.0,,,,1596.6002999999523,1597.1,1596.0932999999525,1596.600199999988,1594.058699999988,1596.093199999988,1597.1,1597.6000999999642,1597.600199999988,1599.121099999964,1312.0,1599.121099999964,5.0,1599.121199999988,6.0,25.0,205.0,16.0,1.0,1.0,0.7,Time
,,S17,820531,1,男,20,anonymized,Serial_Dependence_U,2023.2.3,Win32,142.85714285714286,,,,,,1599.1215,114.0,6.0,1599.121599999964,114.0,,,,1602.496099999964,1602.995699999988,1601.989099999964,1602.496,1600.128,1601.9889999999998,1602.995699999988,1603.4957999999522,1603.4957999999522,1604.996,1252.0,1604.996,5.0,1604.996099999964,6.0,26.0,206.0,20.0,1.0,0.8,0.3,Time
,,S17,820531,1,男,20,anonymized,Serial_Dependence_U,2023.2.3,Win32,142.85714285714286,,,,,,1604.9962999999525,260.0,6.0,1604.996399999976,260.0,,,,1609.176299999952,1609.6760999999642,1608.6695,1609.176299999952,1606.0027999999522,1608.669399999976,1609.6760999999642,1610.1760999999642,1610.1760999999642,1611.808199999988,1425.0,1611.808199999988,2.0,1611.808399999976,6.0,27.0,207.0,4.0,1.0,1.6,0.3,Time
,,S17,820531,1,男,20,anonymized,Serial_Dependence_U,2023.2.3,Win32,142.85714285714286,,,,,,1611.8085,141.0,6.0,1611.808699999988,141.0,,,,1615.3802999999525,1615.8797999999522,1614.876599999964,1615.3802999999525,1612.815199999988,1614.8765,1615.8797999999522,1616.379599999964,1616.379699999988,1617.7354999999998,1042.0,1617.7354999999998,3.0,1617.735599999964,6.0,28.0,208.0,21.0,1.0,1.0,0.3,Time
,,S17,820531,1,男,20,anonymized,Serial_Dependence_U,2023.2.3,Win32,142.85714285714286,,,,,,1617.7357999999522,290.0,6.0,1617.735899999976,290.0,,,,1621.4995,1621.995199999988,1620.9885999999642,1621.499399999976,1618.728199999988,1620.9885,1621.995199999988,1622.4952999999523,1622.4952999999523,1623.988399999976,1150.0,1623.988399999976,3.0,1623.9885,6.0,29.0,209.0,12.0,1.0,1.2,0.3,Time
,,S17,820531,1,男,20,anonymized,Serial_Dependence_U,2023.2.3,Win32,142.85714285714286,,,,,,1623.988699999988,176.0,7.0,1696.924,176.0,s,72.92919999998821,,1701.062899999976,1701.562699999988,1700.561899999976,1701.0627999999522,1697.931199999988,1700.5617999999522,1701.562699999988,1702.062599999964,1702.062599999964,1703.7917999999522,1529.0,1703.7917999999522,3.0,1703.792,7.0,0.0,210.0,9.0,1.0,1.6,0.7,Time
,,S17,820531,1,男,20,anonymized,Serial_Dependence_U,2023.2.3,Win32,142.85714285714286,,,,,,1703.792199999988,96.0,7.0,1703.7927999999522,96.0,,,,1707.534899999976,1708.034699999988,1707.030699999988,1707.5347999999522,1704.798899999976,1707.030599999964,1708.034699999988,1708.5347999999522,1708.5347999999522,1710.2462999999525,1458.0,1710.246399999976,4.0,1710.246399999976,7.0,1.0,211.0,27.0,1.0,1.2,0.7,Time
,,S17,820531,1,男,20,anonymized,Serial_Dependence_U,2023.2.3,Win32,142.85714285714286,,,,,,1710.246599999964,63.0,7.0,1710.246699999988,63.0,,,,1713.8194999999998,1714.319199999988,1713.3125,1713.819399999976,1711.250099999964,1713.3125,1714.319199999988,1714.819299999952,1714.819299999952,1716.360899999976,1248.0,1716.360899999976,4.0,1716.3610999999642,7.0,2.0,212.0,11.0,1.0,1.0,0.3,Time
,,S17,820531,1,男,20,anonymized,Serial_Dependence_U,2023.2.3,Win32,142.85714285714286,,,,,,1716.361199999988,305.0,7.0,1716.361399999976,305.0,,,,1720.131799999952,1720.6315,1719.6248999999762,1720.131799999952,1717.361,1719.6247999999523,1720.6315,1721.1315,1721.1315999999642,1722.596899999976,1244.0,1722.596899999976,3.0,1722.597099999964,7.0,3.0,213.0,2.0,1.0,1.2,0.3,Time
,,S17,820531,1,男,20,anonymized,Serial_Dependence_U,2023.2.3,Win32,142.85714285714286,,,,,,1722.5972999999522,69.0,7.0,1722.5972999999522,69.0,,,,1725.965,1726.4647999999522,1725.458199999988,1725.965,1723.597,1725.458099999964,1726.4647999999522,1726.964699999988,1726.9647999999522,1728.1315,912.0,1728.1315,4.0,1728.131699999988,7.0,4.0,214.0,20.0,1.0,0.8,0.3,Time
,,S17,820531,1,男,20,anonymized,Serial_Dependence_U,2023.2.3,Win32,142.85714285714286,,,,,,1728.131799999952,142.0,7.0,1728.131899999976,142.0,,,,1731.680099999964,1732.179899999976,1731.173199999988,1731.680099999964,1729.138599999964,1731.173099999964,1732.1799999999998,1732.679899999976,1732.679899999976,1734.179899999976,1272.0,1734.179899999976,4.0,1734.180099999964,7.0,5.0,215.0,6.0,1.0,1.0,0.7,Time
,,S17,820531,1,男,20,anonymized,Serial_Dependence_U,2023.2.3,Win32,142.85714285714286,,,,,,1734.180199999988,313.0,7.0,1734.180399999976,313.0,,,,1738.159199999988,1738.6590999999642,1737.652199999988,1738.1590999999642,1735.187,1737.652099999964,1738.6590999999642,1739.159,1739.159,1740.9853999999762,1131.0,1740.9853999999762,2.0,1740.985599999964,7.0,6.0,216.0,3.0,1.0,1.4,0.3,Time
,,S17,820531,1,男,20,anonymized,Serial_Dependence_U,2023.2.3,Win32,142.85714285714286,,,,,,1740.985699999988,6.0,7.0,1740.985899999976,6.0,,,,1744.929799999952,1745.429599999964,1744.4227999999523,1744.929799999952,1741.992299999952,1744.422699999988,1745.429699999988,1745.929599999964,1745.929599999964,1747.651799999952,1513.0,1747.651799999952,4.0,1747.6519999999998,7.0,7.0,217.0,28.0,1.0,1.4,0.7,Time
,,S17,820531,1,男,20,anonymized,Serial_Dependence_U,2023.2.3,Win32,142.85714285714286,,,,,,1747.652099999964,257.0,7.0,1747.6522999999522,257.0,,,,1751.8325,1752.3320999999642,1751.3255,1751.832399999976,1748.658899999976,1751.3255,1752.3320999999642,1752.832199999988,1752.832199999988,1754.7140999999642,1104.0,1754.714199999988,1.0,1754.714299999952,7.0,8.0,218.0,4.0,1.0,1.6,0.3,Time
,,S17,820531,1,男,20,anonymized,Serial_Dependence_U,2023.2.3,Win32,142.85714285714286,,,,,,1754.7144999999998,275.0,7.0,1754.714599999964,275.0,,,,1758.492,1758.991699999988,1757.985,1758.491899999976,1755.721099999964,1757.985,1758.991699999988,1759.491699999988,1759.4917999999525,1761.154699999988,1465.0,1761.154699999988,4.0,1761.154899999976,7.0,9.0,219.0,22.0,1.0,1.2,0.3,Time
,,S17,820531,1,男,20,anonymized,Serial_Dependence_U,2023.2.3,Win32,142.85714285714286,,,,,,1761.155,142.0,7.0,1761.155099999964,142.0,,,,1764.723699999988,1765.222899999976,1764.217099999964,1764.723699999988,1762.1542999999522,1764.217,1765.222899999976,1765.723,1765.723,1766.7727999999522,712.0,1766.772899999976,2.0,1766.773,7.0,10.0,220.0,1.0,1.0,1.0,0.3,Time
,,S17,820531,1,男,20,anonymized,Serial_Dependence_U,2023.2.3,Win32,142.85714285714286,,,,,,1766.773199999988,305.0,7.0,1766.773199999988,305.0,,,,1770.904199999988,1771.401099999964,1770.404,1770.904199999988,1767.772199999988,1770.403899999976,1771.401099999964,1771.901099999964,1771.901099999964,1773.7730999999642,1646.0,1773.773199999988,3.0,1773.7732999999523,7.0,11.0,221.0,19.0,1.0,1.6,0.7,Time
,,S17,820531,1,男,20,anonymized,Serial_Dependence_U,2023.2.3,Win32,142.85714285714286,,,,,,1773.7734999999998,229.0,7.0,1773.773599999964,229.0,,,,1777.7092999999522,1778.206599999964,1777.206899999976,1777.7092999999522,1774.7762999999522,1777.2067999999522,1778.206599999964,1778.7064999999998,1778.706599999964,1780.2305,1278.0,1780.2305,2.0,1780.2305999999642,7.0,12.0,222.0,8.0,1.0,1.4,0.7,Time
,,S17,820531,1,男,20,anonymized,Serial_Dependence_U,2023.2.3,Win32,142.85714285714286,,,,,,1780.2307999999523,8.0,7.0,1780.230899999976,8.0,,,,1784.171899999976,1784.6715999999642,1783.664899999976,1784.171799999952,1781.234399999976,1783.6647999999525,1784.6715999999642,1785.1715999999642,1785.171699999988,1786.921699999988,1532.0,1786.921699999988,4.0,1786.921799999952,7.0,13.0,223.0,18.0,1.0,1.4,0.7,Time
,,S17,820531,1,男,20,anonymized,Serial_Dependence_U,2023.2.3,Win32,142.85714285714286,,,,,,1786.9219999999998,49.0,7.0,1786.922099999964,49.0,,,,1790.296699999988,1790.7965,1789.794799999952,1790.2965999999642,1787.928599999964,1789.794699999988,1790.7965,1791.2965,1791.2965,1792.7324999999998,1176.0,1792.732599999964,5.0,1792.732599999964,7.0,14.0,224.0,0.0,1.0,0.8,0.3,Time
,,S17,820531,1,男,20,anonymized,Serial_Dependence_U,2023.2.3,Win32,142.85714285714286,,,,,,1792.732899999976,346.0,7.0,1792.733,346.0,,,,1796.713199999988,1797.213,1796.206199999988,1796.713199999988,1793.741099999964,1796.206199999988,1797.213,1797.712899999976,1797.712899999976,1799.2060999999642,1260.0,1799.2060999999642,2.0,1799.2062999999523,7.0,15.0,225.0,23.0,1.0,1.4,0.3,Time
,,S17,820531,1,男,20,anonymized,Serial_Dependence_U,2023.2.3,Win32,142.85714285714286,,,,,,1799.2064999999998,16.0,7.0,1799.206599999964,16.0,,,,1802.7825,1803.282299999952,1802.275599999964,1802.7825,1800.213099999964,1802.2755,1803.282299999952,1803.782299999952,1803.782299999952,1805.351799999952,1327.0,1805.351799999952,5.0,1805.351899999976,7.0,16.0,226.0,21.0,1.0,1.0,0.3,Time
,,S17,820531,1,男,20,anonymized,Serial_Dependence_U,2023.2.3,Win32,142.85714285714286,,,,,,1805.352099999964,348.0,7.0,1805.352099999964,348.0,,,,1809.321599999964,1809.821,1808.812899999976,1809.3215,1806.351899999976,1808.812799999952,1809.821,1810.320699999988,1810.320799999952,1811.855,1271.0,1811.855099999964,2.0,1811.855199999988,7.0,17.0,227.0,13.0,1.0,1.4,0.3,Time
,,S17,820531,1,男,20,anonymized,Serial_Dependence_U,2023.2.3,Win32,142.85714285714286,,,,,,1811.855299999952,133.0,7.0,1811.8555,133.0,,,,1815.198799999952,1815.698599999964,1814.694699999988,1815.198699999988,1812.8585,1814.694699999988,1815.698599999964,1816.198599999964,1816.198599999964,1817.456199999988,1050.0,1817.456199999988,5.0,1817.4562999999523,7.0,18.0,228.0,25.0,1.0,0.8,0.7,Time
,,S17,820531,1,男,20,anonymized,Serial_Dependence_U,2023.2.3,Win32,142.85714285714286,,,,,,1817.456399999976,219.0,7.0,1817.4565,219.0,,,,1820.802799999952,1821.302599999964,1820.296,1820.802799999952,1818.462599999964,1820.295899999976,1821.302599999964,1821.802599999964,1821.802699999988,1823.240199999988,1215.0,1823.240299999952,5.0,1823.240399999976,7.0,19.0,229.0,5.0,1.0,0.8,0.7,Time
,,S17,820531,1,男,20,anonymized,Serial_Dependence_U,2023.2.3,Win32,142.85714285714286,,,,,,1823.240599999964,179.0,7.0,1823.240599999964,179.0,,,,1826.5875,1827.087199999988,1826.083099999964,1826.587399999976,1824.248799999952,1826.083099999964,1827.087299999952,1827.587199999988,1827.587299999952,1829.069599999964,1271.0,1829.069599999964,5.0,1829.069699999988,7.0,20.0,230.0,15.0,1.0,0.8,0.7,Time
,,S17,820531,1,男,20,anonymized,Serial_Dependence_U,2023.2.3,Win32,142.85714285714286,,,,,,1829.069899999976,15.0,7.0,1829.070099999964,15.0,,,,1833.247,1833.746699999988,1832.74,1833.247,1830.0735,1832.739899999976,1833.746699999988,1834.246799999952,1834.246799999952,1835.989899999976,1499.0,1835.989899999976,2.0,1835.99,7.0,21.0,231.0,14.0,1.0,1.6,0.3,Time
,,S17,820531,1,男,20,anonymized,Serial_Dependence_U,2023.2.3,Win32,142.85714285714286,,,,,,1835.990199999988,182.0,7.0,1835.990299999952,182.0,,,,1839.739899999976,1840.239699999988,1839.233,1839.7397999999523,1836.997,1839.233,1840.239699999988,1840.739599999964,1840.739599999964,1842.489699999988,1484.0,1842.489699999988,4.0,1842.489899999976,7.0,22.0,232.0,7.0,1.0,1.2,0.7,Time
,,S17,820531,1,男,20,anonymized,Serial_Dependence_U,2023.2.3,Win32,142.85714285714286,,,,,,1842.490099999964,147.0,7.0,1842.490099999964,147.0,,,,1846.038399999976,1846.538099999964,1845.531399999976,1846.038299999952,1843.496799999952,1845.531399999976,1846.538199999988,1847.038199999988,1847.038199999988,1848.579899999976,1329.0,1848.579899999976,5.0,1848.58,7.0,23.0,233.0,16.0,1.0,1.0,0.7,Time
,,S17,820531,1,男,20,anonymized,Serial_Dependence_U,2023.2.3,Win32,142.85714285714286,,,,,,1848.580299999952,218.0,7.0,1848.580399999976,218.0,,,,1852.7605,1853.260199999988,1852.253399999976,1852.760399999976,1849.587,1852.253299999952,1853.260199999988,1853.760199999988,1853.760199999988,1855.454699999988,1532.0,1855.454699999988,3.0,1855.454899999976,7.0,24.0,234.0,24.0,1.0,1.6,0.3,Time
,,S17,820531,1,男,20,anonymized,Serial_Dependence_U,2023.2.3,Win32,142.85714285714286,,,,,,1855.455,88.0,7.0,1855.455099999964,88.0,,,,1859.2005,1859.699699999988,1858.697799999952,1859.2005,1856.4617999999523,1858.697699999988,1859.699699999988,1860.2,1860.2,1861.867799999952,1410.0,1861.867799999952,4.0,1861.867899999976,7.0,25.0,235.0,17.0,1.0,1.2,0.7,Time
,,S17,820531,1,男,20,anonymized,Serial_Dependence_U,2023.2.3,Win32,142.85714285714286,,,,,,1861.868099999964,195.0,7.0,1861.8685,195.0,,,,1865.4057999999525,1865.905699999988,1864.903899999976,1865.405699999988,1862.867199999988,1864.9037999999523,1865.905699999988,1866.405699999988,1866.405699999988,1868.433599999964,1358.0,1868.433599999964,5.0,1868.4337999999525,7.0,26.0,236.0,26.0,1.0,1.0,0.7,Time
,,S17,820531,1,男,20,anonymized,Serial_Dependence_U,2023.2.3,Win32,142.85714285714286,,,,,,1868.434,329.0,7.0,1868.434099999964,329.0,,,,1871.8085,1872.308299999952,1871.301699999988,1871.8085,1869.4405,1871.301599999964,1872.308299999952,1872.808299999952,1872.808299999952,1873.961099999964,868.0,1873.961199999988,4.0,1873.961399999976,7.0,27.0,237.0,10.0,1.0,0.8,0.3,Time
,,S17,820531,1,男,20,anonymized,Serial_Dependence_U,2023.2.3,Win32,142.85714285714286,,,,,,1873.961599999964,213.0,7.0,1873.961599999964,213.0,,,,1877.739,1878.238699999988,1877.232,1877.738899999976,1874.968099999964,1877.232,1878.238699999988,1878.738699999988,1878.738699999988,1880.287399999976,1340.0,1880.287399999976,4.0,1880.287599999964,7.0,28.0,238.0,12.0,1.0,1.2,0.3,Time
,,S17,820531,1,男,20,anonymized,Serial_Dependence_U,2023.2.3,Win32,142.85714285714286,,,,,,1880.2877999999523,80.0,7.0,1880.287899999976,80.0,,,,1884.429099999964,1884.9282999999523,1883.922,1884.429,1881.290399999976,1883.922,1884.9282999999523,1885.428199999988,1885.4282999999523,1887.200199999988,1521.0,1887.200299999952,3.0,1887.200299999952,7.0,29.0,239.0,29.0,1.0,1.6,0.7,Time
,,S17,820531,1,男,20,anonymized,Serial_Dependence_U,2023.2.3,Win32,142.85714285714286,,,,,,1887.200399999976,350.0,8.0,1942.702399999976,350.0,s,55.49249999999984,,1946.049699999988,1946.549399999976,1945.542699999988,1946.049599999964,1943.709399999976,1945.5425999999643,1946.549399999976,1947.0495,1947.0495,1948.320299999952,1056.0,1948.320399999976,5.0,1948.3205,8.0,0.0,240.0,25.0,1.0,0.8,0.7,Time
,,S17,820531,1,男,20,anonymized,Serial_Dependence_U,2023.2.3,Win32,142.85714285714286,,,,,,1948.320699999988,346.0,8.0,1948.321399999976,346.0,,,,1952.292699999988,1952.792399999976,1951.785699999988,1952.2925999999643,1949.322899999976,1951.785599999964,1952.792399999976,1953.2922999999523,1953.2922999999523,1954.716099999964,1213.0,1954.716099999964,2.0,1954.7162999999523,8.0,1.0,241.0,3.0,1.0,1.4,0.3,Time
,,S17,820531,1,男,20,anonymized,Serial_Dependence_U,2023.2.3,Win32,142.85714285714286,,,,,,1954.716399999976,333.0,8.0,1954.7165,333.0,,,,1958.889599999964,1959.389399999976,1958.382799999952,1958.889599999964,1955.716099999964,1958.382699999988,1959.389399999976,1959.889399999976,1959.889399999976,1961.4242999999524,1140.0,1961.4242999999524,2.0,1961.4245,8.0,2.0,242.0,24.0,1.0,1.6,0.3,Time
,,S17,820531,1,男,20,anonymized,Serial_Dependence_U,2023.2.3,Win32,142.85714285714286,,,,,,1961.424599999964,62.0,8.0,1961.424699999988,62.0,,,,1965.000599999964,1965.5003999999765,1964.4935999999643,1965.0005,1962.431199999988,1964.4935999999643,1965.5003999999765,1966.0003999999765,1966.0005,1967.4867999999524,1223.0,1967.4867999999524,4.0,1967.486899999976,8.0,3.0,243.0,21.0,1.0,1.0,0.3,Time
,,S17,820531,1,男,20,anonymized,Serial_Dependence_U,2023.2.3,Win32,142.85714285714286,,,,,,1967.487099999964,229.0,8.0,1967.487199999988,229.0,,,,1971.6253999999765,1972.1252999999524,1971.121299999952,1971.6252999999524,1968.4865999999645,1971.121199999988,1972.1252999999524,1972.625199999988,1972.625199999988,1974.444699999988,1594.0,1974.444699999988,3.0,1974.444799999952,8.0,4.0,244.0,19.0,1.0,1.6,0.7,Time
,,S17,820531,1,男,20,anonymized,Serial_Dependence_U,2023.2.3,Win32,142.85714285714286,,,,,,1974.445,359.0,8.0,1974.445099999964,359.0,,,,1977.7845,1978.284799999952,1977.283199999988,1977.784399999976,1975.451699999988,1977.283099999964,1978.284799999952,1978.784699999988,1978.784699999988,1980.479299999952,1272.0,1980.479299999952,5.0,1980.479399999976,8.0,5.0,245.0,15.0,1.0,0.8,0.7,Time
,,S17,820531,1,男,20,anonymized,Serial_Dependence_U,2023.2.3,Win32,142.85714285714286,,,,,,1980.479599999964,297.0,8.0,1980.479699999988,297.0,,,,1984.6250999999645,1985.124899999976,1984.118099999964,1984.625,1981.486199999988,1984.118,1985.124899999976,1985.624899999976,1985.624899999976,1987.465299999952,1575.0,1987.465299999952,3.0,1987.4655,8.0,6.0,246.0,29.0,1.0,1.6,0.7,Time
,,S17,820531,1,男,20,anonymized,Serial_Dependence_U,2023.2.3,Win32,142.85714285714286,,,,,,1987.465599999964,318.0,8.0,1987.465699999988,318.0,,,,1991.215099999964,1991.715,1990.708199999988,1991.215099999964,1988.472199999988,1990.708099999964,1991.715,1992.215,1992.215,1993.7635999999643,1324.0,1993.763699999988,4.0,1993.7637999999524,8.0,7.0,247.0,7.0,1.0,1.2,0.7,Time
,,S17,820531,1,男,20,anonymized,Serial_Dependence_U,2023.2.3,Win32,142.85714285714286,,,,,,1993.764,0.0,8.0,1993.764099999964,0.0,,,,1997.110899999976,1997.610699999988,1996.604,1997.110799999952,1994.770599999964,1996.603899999976,1997.610699999988,1998.110599999964,1998.110699999988,1999.353699999988,1012.0,1999.353699999988,4.0,1999.353899999976,8.0,8.0,248.0,5.0,1.0,0.8,0.7,Time
,,S17,820531,1,男,20,anonymized,Serial_Dependence_U,2023.2.3,Win32,142.85714285714286,,,,,,1999.354099999964,25.0,8.0,1999.354199999988,25.0,,,,2003.298299999952,2003.798099999964,2002.791299999952,2003.298199999988,2000.360799999952,2002.791299999952,2003.798099999964,2004.293299999952,2004.293299999952,2006.176199999988,1451.0,2006.176199999988,3.0,2006.1762999999523,8.0,9.0,249.0,28.0,1.0,1.4,0.7,Time
,,S17,820531,1,男,20,anonymized,Serial_Dependence_U,2023.2.3,Win32,142.85714285714286,,,,,,2006.1765,264.0,8.0,2006.1765999999643,264.0,,,,2009.9465999999643,2010.446,2009.439699999988,2009.9465,2007.175899999976,2009.439699999988,2010.446,2010.949599999964,2010.949599999964,2012.426099999964,1174.0,2012.426199999988,3.0,2012.4262999999523,8.0,10.0,250.0,22.0,1.0,1.2,0.3,Time
,,S17,820531,1,男,20,anonymized,Serial_Dependence_U,2023.2.3,Win32,142.85714285714286,,,,,,2012.426399999976,158.0,8.0,2012.4265,158.0,,,,2015.800699999988,2016.299899999976,2015.293899999976,2015.800699999988,2013.432699999988,2015.293899999976,2016.299899999976,2016.8,2016.8,2017.9085999999645,837.0,2017.9085999999645,3.0,2017.9085999999645,8.0,11.0,251.0,0.0,1.0,0.8,0.3,Time
,,S17,820531,1,男,20,anonymized,Serial_Dependence_U,2023.2.3,Win32,142.85714285714286,,,,,,2017.9087999999524,308.0,8.0,2017.9088999999765,308.0,,,,2021.849099999964,2022.3460999999645,2021.3463999999765,2021.849099999964,2018.910699999988,2021.3462999999524,2022.346199999988,2022.8460999999645,2022.8460999999645,2024.981099999964,1754.0,2024.981199999988,4.0,2024.981299999952,8.0,12.0,252.0,8.0,1.0,1.4,0.7,Time
