Scale_setup.started,Scale_setup.stopped,participant,session,sex,age,date,expName,psychopyVersion,OS,frameRate,screen_scale_keys.started,screen_scale_keys.stopped,X Scale,Y Scale,rectangel_keys.started,rectangel_keys.stopped,Intro.started,Intro.stopped,key_resp_2.keys,key_resp_2.rt,key_resp_2.duration,block.started,Block_id,block.stopped,Block_resp_2.keys,Block_resp_2.rt,Block_resp_2.duration,ITI.started,ITI.stopped,Mask_2.started,Mask_2.stopped,M2.started,direction,M2.stopped,Cue.started,Cue.stopped,Response.started,Response.stopped,keyDuration,Feedback_Time.started,FeedbackID_T,Feedback_Time.stopped,trials.thisRepN,trials.thisTrialN,trials.thisN,trials.thisIndex,trials.ran,TimeDur,Coherence1,TrialType
0.0005,0.001,S19,1,female,37,anonymized,Serial_Dependence_U,2023.2.3,Win32,60.24096386,,,,,,,,,,,,,,,,,,,,,,,,,,,,,,,,,,,,,,,,
,,S19,1,female,37,anonymized,Serial_Dependence_U,2023.2.3,Win32,60.24096386,0.0096,14.7692,0.05,0.05,14.7696,45.5952,45.5965,85.5177,space,39.8346,,,,,,,,,,,,,,,,,,,,,,,,,,,,,,
,,S19,1,female,37,anonymized,Serial_Dependence_U,2023.2.3,Win32,60.24096386,,,,,,,,,,,,85.5508,0.0,89.0322,s,3.4252,,91.5833,92.0809,91.0665,91.5825,90.0608,346.0,91.066,92.0824,92.5811,92.5823,98.5981,9999.0,98.5993,0.0,99.5977,0.0,0.0,0.0,26.0,1.0,1.0,0.7,Time
,,S19,1,female,37,anonymized,Serial_Dependence_U,2023.2.3,Win32,60.24096386,,,,,,,,,,,,99.6009,0.0,99.6103,,,,102.575,103.0786,102.0472,102.5743,100.631,193.0,102.0467,103.0789,103.5781,103.5783,109.586,9999.0,109.5863,0.0,110.583,0.0,1.0,1.0,13.0,1.0,1.4,0.3,Time
,,S19,1,female,37,anonymized,Serial_Dependence_U,2023.2.3,Win32,60.24096386,,,,,,,,,,,,110.5834,0.0,110.5836,,,,113.728,114.2257,113.2095,113.7276,111.5942,284.0,113.2093,114.2258,114.7252,114.7254,120.7326,9999.0,120.733,0.0,121.7249,0.0,2.0,2.0,14.0,1.0,1.6,0.3,Time
,,S19,1,female,37,anonymized,Serial_Dependence_U,2023.2.3,Win32,60.24096386,,,,,,,,,,,,121.7281,0.0,121.7288,,,,124.0588,124.5568,123.542,124.0584,122.7311,267.0,123.5416,124.5569,125.0564,125.0567,131.073,9999.0,131.0741,0.0,132.0714,0.0,3.0,3.0,5.0,1.0,0.8,0.7,Time
,,S19,1,female,37,anonymized,Serial_Dependence_U,2023.2.3,Win32,60.24096386,,,,,,,,,,,,132.0737,0.0,132.0744,,,,134.3933,134.8874,133.8894,134.3928,133.0819,15.0,133.8889,134.8876,135.3866,135.3868,141.3903,9999.0,141.3916,0.0,142.3862,0.0,4.0,4.0,15.0,1.0,0.8,0.7,Time
,,S19,1,female,37,anonymized,Serial_Dependence_U,2023.2.3,Win32,60.24096386,,,,,,,,,,,,142.3884,0.0,142.3897,,,,145.3318,145.8437,144.8201,145.3316,143.4036,350.0,144.8194,145.8438,146.3343,146.3346,152.3529,9999.0,152.354,0.0,153.349,0.0,5.0,5.0,18.0,1.0,1.4,0.7,Time
,,S19,1,female,37,anonymized,Serial_Dependence_U,2023.2.3,Win32,60.24096386,,,,,,,,,,,,153.3503,0.0,153.3508,,,,156.0768,156.5715,155.5712,156.0765,154.3663,235.0,155.5711,156.5716,157.0758,157.076,163.0869,9999.0,163.0876,0.0,164.0803,0.0,6.0,6.0,12.0,1.0,1.2,0.3,Time
,,S19,1,female,37,anonymized,Serial_Dependence_U,2023.2.3,Win32,60.24096386,,,,,,,,,,,,164.0827,0.0,164.0837,,,,166.8309,167.3291,166.3146,166.8306,165.0987,152.0,166.3142,167.3292,167.8295,167.8297,173.8382,9999.0,173.8387,0.0,174.8273,0.0,7.0,7.0,7.0,1.0,1.2,0.7,Time
,,S19,1,female,37,anonymized,Serial_Dependence_U,2023.2.3,Win32,60.24096386,,,,,,,,,,,,174.8295,0.0,174.83,,,,177.7781,178.2766,177.2615,177.7779,175.8455,306.0,177.2613,178.2767,178.7763,178.7766,184.7925,9999.0,184.7935,0.0,185.7912,0.0,8.0,8.0,3.0,1.0,1.4,0.3,Time
,,S19,1,female,37,anonymized,Serial_Dependence_U,2023.2.3,Win32,60.24096386,,,,,,,,,,,,185.793,0.0,185.7938,,,,188.7259,189.2242,188.2097,188.7256,186.7975,263.0,188.2092,189.2242,189.7237,189.7239,195.7402,9999.0,195.7409,0.0,196.7386,0.0,9.0,9.0,23.0,1.0,1.4,0.3,Time
,,S19,1,female,37,anonymized,Serial_Dependence_U,2023.2.3,Win32,60.24096386,,,,,,,,,,,,196.7408,0.0,196.7416,,,,199.6718,200.1705,199.1654,199.6715,197.7495,334.0,199.1652,200.1705,200.6702,200.6703,206.6871,9999.0,206.6875,0.0,207.6855,0.0,10.0,10.0,28.0,1.0,1.4,0.7,Time
,,S19,1,female,37,anonymized,Serial_Dependence_U,2023.2.3,Win32,60.24096386,,,,,,,,,,,,207.6865,0.0,207.687,,,,210.4294,210.9182,209.9196,210.4292,208.7033,207.0,209.9193,210.9183,211.4178,211.418,217.4269,9999.0,217.4274,0.0,218.4168,0.0,11.0,11.0,17.0,1.0,1.2,0.7,Time
,,S19,1,female,37,anonymized,Serial_Dependence_U,2023.2.3,Win32,60.24096386,,,,,,,,,,,,218.4192,0.0,218.4198,,,,220.9604,221.4569,220.4516,220.9601,219.435,197.0,220.4513,221.4571,221.9569,221.957,227.9712,9999.0,227.9717,0.0,228.964,0.0,12.0,12.0,16.0,1.0,1.0,0.7,Time
,,S19,1,female,37,anonymized,Serial_Dependence_U,2023.2.3,Win32,60.24096386,,,,,,,,,,,,228.9657,0.0,228.9664,,,,231.5141,232.0128,230.9984,231.5137,229.9817,157.0,230.9981,232.0128,232.513,232.5133,238.5206,9999.0,238.5208,0.0,239.5186,0.0,13.0,13.0,11.0,1.0,1.0,0.3,Time
,,S19,1,female,37,anonymized,Serial_Dependence_U,2023.2.3,Win32,60.24096386,,,,,,,,,,,,239.5192,0.0,239.5195,,,,241.8456,242.3439,241.3386,241.8451,240.5294,157.0,241.3385,242.344,242.8432,242.8435,248.8598,9999.0,248.8608,0.0,249.8587,0.0,14.0,14.0,25.0,1.0,0.8,0.7,Time
,,S19,1,female,37,anonymized,Serial_Dependence_U,2023.2.3,Win32,60.24096386,,,,,,,,,,,,249.8607,0.0,249.8615,,,,252.1933,252.6912,251.6855,252.193,250.8772,17.0,251.6853,252.6913,253.1916,253.1919,259.208,9999.0,259.2085,0.0,260.2072,0.0,15.0,15.0,0.0,1.0,0.8,0.3,Time
,,S19,1,female,37,anonymized,Serial_Dependence_U,2023.2.3,Win32,60.24096386,,,,,,,,,,,,260.2091,0.0,260.2098,,,,262.9413,263.4387,262.4241,262.941,261.2171,218.0,262.4237,263.4392,263.9386,263.9389,269.9544,9999.0,269.9554,0.0,270.953,0.0,16.0,16.0,2.0,1.0,1.2,0.3,Time
,,S19,1,female,37,anonymized,Serial_Dependence_U,2023.2.3,Win32,60.24096386,,,,,,,,,,,,270.955,0.0,270.9559,,,,273.3044,273.8102,272.788,273.3041,271.972,43.0,272.7877,273.8103,274.3042,274.3044,280.3193,9999.0,280.3199,0.0,281.3096,0.0,17.0,17.0,20.0,1.0,0.8,0.3,Time
,,S19,1,female,37,anonymized,Serial_Dependence_U,2023.2.3,Win32,60.24096386,,,,,,,,,,,,281.3107,0.0,281.3112,,,,284.4349,284.9335,283.9277,284.4343,282.3246,227.0,283.9275,284.9337,285.4335,285.4339,291.454,9999.0,291.4545,0.0,292.4487,0.0,18.0,18.0,19.0,1.0,1.6,0.7,Time
,,S19,1,female,37,anonymized,Serial_Dependence_U,2023.2.3,Win32,60.24096386,,,,,,,,,,,,292.4504,0.0,292.4511,,,,294.7906,295.281,294.2828,294.79,293.4652,133.0,294.2825,295.2812,295.7802,295.7805,301.796,9999.0,301.7964,0.0,302.7951,0.0,19.0,19.0,10.0,1.0,0.8,0.3,Time
,,S19,1,female,37,anonymized,Serial_Dependence_U,2023.2.3,Win32,60.24096386,,,,,,,,,,,,302.7962,0.0,302.7966,,,,305.748,306.2445,305.2302,305.7475,303.8128,331.0,305.2296,306.2446,306.7443,306.7444,312.7596,9999.0,312.7598,0.0,313.7594,0.0,20.0,20.0,8.0,1.0,1.4,0.7,Time
,,S19,1,female,37,anonymized,Serial_Dependence_U,2023.2.3,Win32,60.24096386,,,,,,,,,,,,313.7605,0.0,313.7608,,,,316.2943,316.7919,315.7778,316.2941,314.762,249.0,315.7774,316.7919,317.2917,317.2919,323.3067,9999.0,323.3069,0.0,324.3065,0.0,21.0,21.0,1.0,1.0,1.0,0.3,Time
,,S19,1,female,37,anonymized,Serial_Dependence_U,2023.2.3,Win32,60.24096386,,,,,,,,,,,,324.3076,0.0,324.3081,,,,326.8402,327.3389,326.3234,326.84,325.3099,262.0,326.3232,327.339,327.8382,327.8382,333.8552,9999.0,333.8556,0.0,334.8542,0.0,22.0,22.0,6.0,1.0,1.0,0.7,Time
,,S19,1,female,37,anonymized,Serial_Dependence_U,2023.2.3,Win32,60.24096386,,,,,,,,,,,,334.8554,0.0,334.856,,,,337.6046,338.1034,337.0867,337.6044,335.8711,306.0,337.0865,338.1034,338.6033,338.6034,344.6188,9999.0,344.6193,0.0,345.618,0.0,23.0,23.0,22.0,1.0,1.2,0.3,Time
,,S19,1,female,37,anonymized,Serial_Dependence_U,2023.2.3,Win32,60.24096386,,,,,,,,,,,,345.619,0.0,345.6195,,,,348.7684,349.2675,348.2529,348.768,346.6364,103.0,348.2524,349.2676,349.7676,349.7678,355.7833,9999.0,355.7841,0.0,356.7821,0.0,24.0,24.0,9.0,1.0,1.6,0.7,Time
,,S19,1,female,37,anonymized,Serial_Dependence_U,2023.2.3,Win32,60.24096386,,,,,,,,,,,,356.7841,0.0,356.7848,,,,359.9332,360.4312,359.4166,359.9325,357.8006,103.0,359.4162,360.4313,360.9312,360.9315,366.9408,9999.0,366.9413,0.0,367.9297,0.0,25.0,25.0,24.0,1.0,1.6,0.3,Time
,,S19,1,female,37,anonymized,Serial_Dependence_U,2023.2.3,Win32,60.24096386,,,,,,,,,,,,367.9316,0.0,367.932,,,,370.4573,370.9457,369.9466,370.457,368.9311,341.0,369.9464,370.9458,371.4453,371.4456,377.4615,9999.0,377.4623,0.0,378.4599,0.0,26.0,26.0,21.0,1.0,1.0,0.3,Time
,,S19,1,female,37,anonymized,Serial_Dependence_U,2023.2.3,Win32,60.24096386,,,,,,,,,,,,378.4617,0.0,378.4622,,,,381.6109,382.1093,381.0946,381.6104,379.4788,249.0,381.0943,382.1096,382.6089,382.6093,388.6249,9999.0,388.6252,0.0,389.6235,0.0,27.0,27.0,4.0,1.0,1.6,0.3,Time
,,S19,1,female,37,anonymized,Serial_Dependence_U,2023.2.3,Win32,60.24096386,,,,,,,,,,,,389.6247,0.0,389.6252,,,,392.3741,392.8728,391.8572,392.3739,390.6415,304.0,391.8571,392.8728,393.3728,393.3729,399.3889,9999.0,399.3892,0.0,400.3876,0.0,28.0,28.0,27.0,1.0,1.2,0.7,Time
,,S19,1,female,37,anonymized,Serial_Dependence_U,2023.2.3,Win32,60.24096386,,,,,,,,,,,,400.3891,0.0,400.3904,,,,403.5381,404.0372,403.0216,403.5379,401.4052,315.0,403.0214,404.0373,404.5371,404.5372,410.547,9999.0,410.5476,0.0,411.5517,0.0,29.0,29.0,29.0,1.0,1.6,0.7,Time
,,S19,1,female,37,anonymized,Serial_Dependence_U,2023.2.3,Win32,60.24096386,,,,,,,,,,,,411.5538,1.0,417.7551,s,6.1607,,420.9013,421.3998,420.3848,420.9009,418.7685,238.0,420.3846,421.3999,421.8994,421.8995,427.9161,9999.0,427.9168,0.0,428.9145,1.0,0.0,30.0,4.0,1.0,1.6,0.3,Time
,,S19,1,female,37,anonymized,Serial_Dependence_U,2023.2.3,Win32,60.24096386,,,,,,,,,,,,428.9163,1.0,428.9216,,,,431.6652,432.1636,431.149,431.6645,429.933,129.0,431.1482,432.1637,432.6634,432.6637,438.6799,9999.0,438.6806,0.0,439.6784,1.0,1.0,31.0,22.0,1.0,1.2,0.3,Time
,,S19,1,female,37,anonymized,Serial_Dependence_U,2023.2.3,Win32,60.24096386,,,,,,,,,,,,439.6807,1.0,439.6812,,,,442.0156,442.511,441.5134,442.015,440.6966,211.0,441.5132,442.5112,443.0106,443.011,449.0203,9999.0,449.0208,0.0,450.009,1.0,2.0,32.0,25.0,1.0,0.8,0.7,Time
,,S19,1,female,37,anonymized,Serial_Dependence_U,2023.2.3,Win32,60.24096386,,,,,,,,,,,,450.0109,1.0,450.0114,,,,452.536,453.0325,452.0267,452.5358,451.0197,336.0,452.026,453.0325,453.5329,453.533,459.5416,9999.0,459.5423,0.0,460.5404,1.0,3.0,33.0,6.0,1.0,1.0,0.7,Time
,,S19,1,female,37,anonymized,Serial_Dependence_U,2023.2.3,Win32,60.24096386,,,,,,,,,,,,460.5425,1.0,460.5429,,,,463.2913,463.7894,462.7744,463.2909,461.5603,233.0,462.7739,463.7899,464.2884,464.2886,470.3053,9999.0,470.3061,0.0,471.3035,1.0,4.0,34.0,12.0,1.0,1.2,0.3,Time
,,S19,1,female,37,anonymized,Serial_Dependence_U,2023.2.3,Win32,60.24096386,,,,,,,,,,,,471.3053,1.0,471.3062,,,,474.0427,474.5369,473.5381,474.0425,472.3224,153.0,473.5376,474.5379,475.0368,475.037,481.0527,9999.0,481.0533,0.0,482.0511,1.0,5.0,35.0,2.0,1.0,1.2,0.3,Time
,,S19,1,female,37,anonymized,Serial_Dependence_U,2023.2.3,Win32,60.24096386,,,,,,,,,,,,482.0531,1.0,482.054,,,,484.6025,485.1003,484.094,484.6022,483.0695,122.0,484.0937,485.1004,485.6005,485.6007,491.6166,9999.0,491.6175,0.0,492.6155,1.0,6.0,36.0,1.0,1.0,1.0,0.3,Time
,,S19,1,female,37,anonymized,Serial_Dependence_U,2023.2.3,Win32,60.24096386,,,,,,,,,,,,492.6174,1.0,492.6179,,,,495.55,496.0481,495.0327,495.5495,493.6262,311.0,495.0325,496.0482,496.5485,496.549,502.5641,9999.0,502.5648,0.0,503.5627,1.0,7.0,37.0,18.0,1.0,1.4,0.7,Time
,,S19,1,female,37,anonymized,Serial_Dependence_U,2023.2.3,Win32,60.24096386,,,,,,,,,,,,503.5645,1.0,503.565,,,,506.3062,506.7948,505.7975,506.3059,504.5811,195.0,505.7971,506.7949,507.2952,507.2955,513.3112,9999.0,513.3119,0.0,514.3097,1.0,8.0,38.0,27.0,1.0,1.2,0.7,Time
,,S19,1,female,37,anonymized,Serial_Dependence_U,2023.2.3,Win32,60.24096386,,,,,,,,,,,,514.3116,1.0,514.3122,,,,517.2446,517.7425,516.7277,517.2442,515.3135,91.0,516.7273,517.7427,518.2424,518.2426,524.2583,9999.0,524.2586,0.0,525.257,1.0,9.0,39.0,23.0,1.0,1.4,0.3,Time
,,S19,1,female,37,anonymized,Serial_Dependence_U,2023.2.3,Win32,60.24096386,,,,,,,,,,,,525.2582,1.0,525.2587,,,,528.4003,528.8903,527.8917,528.4001,526.2748,347.0,527.8912,528.8905,529.3903,529.3909,535.3985,9999.0,535.3989,0.0,536.388,1.0,10.0,40.0,9.0,1.0,1.6,0.7,Time
,,S19,1,female,37,anonymized,Serial_Dependence_U,2023.2.3,Win32,60.24096386,,,,,,,,,,,,536.3897,1.0,536.3902,,,,538.7142,539.2116,538.2061,538.714,537.3942,17.0,538.2055,539.2116,539.7037,539.704,545.7197,9999.0,545.7204,0.0,546.7185,1.0,11.0,41.0,10.0,1.0,0.8,0.3,Time
,,S19,1,female,37,anonymized,Serial_Dependence_U,2023.2.3,Win32,60.24096386,,,,,,,,,,,,546.7202,1.0,546.7208,,,,549.4688,549.9676,548.9528,549.4686,547.7369,219.0,548.9524,549.9676,550.4673,550.4675,556.4835,9999.0,556.4839,0.0,557.4823,1.0,12.0,42.0,7.0,1.0,1.2,0.7,Time
,,S19,1,female,37,anonymized,Serial_Dependence_U,2023.2.3,Win32,60.24096386,,,,,,,,,,,,557.4834,1.0,557.4838,,,,560.2326,560.7314,559.7161,560.2324,558.4994,240.0,559.7159,560.7315,561.2315,561.2317,567.2474,9999.0,567.2478,0.0,568.2463,1.0,13.0,43.0,17.0,1.0,1.2,0.7,Time
,,S19,1,female,37,anonymized,Serial_Dependence_U,2023.2.3,Win32,60.24096386,,,,,,,,,,,,568.2477,1.0,568.2484,,,,570.5971,571.0959,570.08,570.5967,569.264,23.0,570.0797,571.096,571.5955,571.5956,577.6113,9999.0,577.6118,0.0,578.6102,1.0,14.0,44.0,20.0,1.0,0.8,0.3,Time
,,S19,1,female,37,anonymized,Serial_Dependence_U,2023.2.3,Win32,60.24096386,,,,,,,,,,,,578.6111,1.0,578.6115,,,,581.5446,582.0432,581.038,581.5441,579.6213,31.0,581.0377,582.0435,582.5431,582.5433,588.5597,9999.0,588.5604,0.0,589.5581,1.0,15.0,45.0,3.0,1.0,1.4,0.3,Time
,,S19,1,female,37,anonymized,Serial_Dependence_U,2023.2.3,Win32,60.24096386,,,,,,,,,,,,589.5598,1.0,589.5607,,,,592.1092,592.6073,591.5925,592.1091,590.5759,192.0,591.5921,592.6073,593.1071,593.1075,599.1234,9999.0,599.1242,0.0,600.122,1.0,16.0,46.0,16.0,1.0,1.0,0.7,Time
,,S19,1,female,37,anonymized,Serial_Dependence_U,2023.2.3,Win32,60.24096386,,,,,,,,,,,,600.124,1.0,600.1244,,,,602.6613,603.155,602.1567,602.6611,601.1406,250.0,602.1565,603.155,603.6543,603.6546,609.6708,9999.0,609.6716,0.0,610.6702,1.0,17.0,47.0,21.0,1.0,1.0,0.3,Time
,,S19,1,female,37,anonymized,Serial_Dependence_U,2023.2.3,Win32,60.24096386,,,,,,,,,,,,610.6722,1.0,610.6729,,,,613.8206,614.3187,613.3046,613.8202,611.6879,122.0,613.3042,614.3189,614.8185,614.8187,620.8304,9999.0,620.8307,0.0,621.8327,1.0,18.0,48.0,24.0,1.0,1.6,0.3,Time
,,S19,1,female,37,anonymized,Serial_Dependence_U,2023.2.3,Win32,60.24096386,,,,,,,,,,,,621.8349,1.0,621.8354,,,,624.3516,624.849,623.8438,624.3512,622.8377,168.0,623.8435,624.8492,625.3494,625.3497,631.3656,9999.0,631.3663,0.0,632.3636,1.0,19.0,49.0,26.0,1.0,1.0,0.7,Time
,,S19,1,female,37,anonymized,Serial_Dependence_U,2023.2.3,Win32,60.24096386,,,,,,,,,,,,632.3652,1.0,632.3666,,,,634.9154,635.4134,634.3993,634.9152,633.3826,80.0,634.399,635.4136,635.9133,635.9136,641.9209,9999.0,641.9213,0.0,642.9116,1.0,20.0,50.0,11.0,1.0,1.0,0.3,Time
,,S19,1,female,37,anonymized,Serial_Dependence_U,2023.2.3,Win32,60.24096386,,,,,,,,,,,,642.9134,1.0,642.9141,,,,645.8616,646.3604,645.3458,645.8614,643.9294,313.0,645.3454,646.3605,646.8601,646.8601,652.8772,9999.0,652.8779,0.0,653.8757,1.0,21.0,51.0,8.0,1.0,1.4,0.7,Time
,,S19,1,female,37,anonymized,Serial_Dependence_U,2023.2.3,Win32,60.24096386,,,,,,,,,,,,653.8777,1.0,653.8781,,,,656.8255,657.3243,656.3103,656.8253,654.8939,262.0,656.3097,657.3244,657.8241,657.8243,663.8396,9999.0,663.8399,0.0,664.8389,1.0,22.0,52.0,13.0,1.0,1.4,0.3,Time
,,S19,1,female,37,anonymized,Serial_Dependence_U,2023.2.3,Win32,60.24096386,,,,,,,,,,,,664.8404,1.0,664.8412,,,,667.9814,668.4788,667.4647,667.9812,665.8573,201.0,667.4645,668.4789,668.9796,668.9798,674.9917,9999.0,674.9923,0.0,675.9874,1.0,23.0,53.0,14.0,1.0,1.6,0.3,Time
,,S19,1,female,37,anonymized,Serial_Dependence_U,2023.2.3,Win32,60.24096386,,,,,,,,,,,,675.9891,1.0,675.9897,,,,678.3265,678.8189,677.8211,678.3258,677.0046,96.0,677.8209,678.8191,679.3193,679.3195,685.33,9999.0,685.3304,0.0,686.3344,1.0,24.0,54.0,15.0,1.0,0.8,0.7,Time
,,S19,1,female,37,anonymized,Serial_Dependence_U,2023.2.3,Win32,60.24096386,,,,,,,,,,,,686.3366,1.0,686.3373,,,,688.6854,689.1834,688.1686,688.6852,687.3521,147.0,688.168,689.1837,689.6831,689.6833,695.6987,9999.0,695.6991,0.0,696.698,1.0,25.0,55.0,0.0,1.0,0.8,0.3,Time
,,S19,1,female,37,anonymized,Serial_Dependence_U,2023.2.3,Win32,60.24096386,,,,,,,,,,,,696.6994,1.0,696.6996,,,,699.032,699.5304,698.5306,699.0318,697.7155,218.0,698.5304,699.5306,700.0303,700.0304,706.0455,9999.0,706.0457,0.0,707.0453,1.0,26.0,56.0,5.0,1.0,0.8,0.7,Time
,,S19,1,female,37,anonymized,Serial_Dependence_U,2023.2.3,Win32,60.24096386,,,,,,,,,,,,707.0462,1.0,707.0468,,,,709.9723,710.4695,709.4633,709.972,708.0561,343.0,709.4629,710.4696,710.962,710.9622,716.9782,9999.0,716.9788,0.0,717.9764,1.0,27.0,57.0,28.0,1.0,1.4,0.7,Time
,,S19,1,female,37,anonymized,Serial_Dependence_U,2023.2.3,Win32,60.24096386,,,,,,,,,,,,717.9782,1.0,717.9786,,,,721.1272,721.6257,720.6106,721.1268,718.9935,147.0,720.6097,721.6258,722.1252,722.1254,728.1423,9999.0,728.1428,0.0,729.1402,1.0,28.0,58.0,29.0,1.0,1.6,0.7,Time
,,S19,1,female,37,anonymized,Serial_Dependence_U,2023.2.3,Win32,60.24096386,,,,,,,,,,,,729.1421,1.0,729.1426,,,,732.2909,732.789,731.7747,732.2904,730.158,234.0,731.7743,732.7892,733.2886,733.2887,739.3042,9999.0,739.3044,0.0,740.3035,1.0,29.0,59.0,19.0,1.0,1.6,0.7,Time
,,S19,1,female,37,anonymized,Serial_Dependence_U,2023.2.3,Win32,60.24096386,,,,,,,,,,,,740.3046,2.0,743.5286,s,3.196,,746.6711,747.1691,746.1541,746.6706,744.5379,17.0,746.1535,747.1692,747.669,747.6691,753.6852,9999.0,753.6861,0.0,754.6839,2.0,0.0,60.0,9.0,1.0,1.6,0.7,Time
,,S19,1,female,37,anonymized,Serial_Dependence_U,2023.2.3,Win32,60.24096386,,,,,,,,,,,,754.6856,2.0,754.6911,,,,757.0378,757.5334,756.5182,757.0363,755.7031,117.0,756.5179,757.5335,758.0331,758.0332,764.0494,9999.0,764.0503,0.0,765.0478,2.0,1.0,61.0,5.0,1.0,0.8,0.7,Time
,,S19,1,female,37,anonymized,Serial_Dependence_U,2023.2.3,Win32,60.24096386,,,,,,,,,,,,765.0497,2.0,765.0501,,,,767.7824,768.2804,767.266,767.782,766.0584,311.0,767.2656,768.2804,768.7806,768.7808,774.8092,9999.0,774.8103,0.0,775.8121,2.0,2.0,62.0,22.0,1.0,1.2,0.3,Time
,,S19,1,female,37,anonymized,Serial_Dependence_U,2023.2.3,Win32,60.24096386,,,,,,,,,,,,775.8144,2.0,775.8148,,,,778.1635,778.6611,777.6465,778.1632,776.8302,174.0,777.646,778.6613,779.1635,779.1638,785.1823,9999.0,785.1834,0.0,786.1765,2.0,3.0,63.0,20.0,1.0,0.8,0.3,Time
,,S19,1,female,37,anonymized,Serial_Dependence_U,2023.2.3,Win32,60.24096386,,,,,,,,,,,,786.1783,2.0,786.179,,,,788.9039,789.3924,788.3993,788.9036,787.1944,58.0,788.399,789.3925,789.8925,789.893,795.901,9999.0,795.9015,0.0,796.8908,2.0,4.0,64.0,7.0,1.0,1.2,0.7,Time
,,S19,1,female,37,anonymized,Serial_Dependence_U,2023.2.3,Win32,60.24096386,,,,,,,,,,,,796.8927,2.0,796.8937,,,,799.8416,800.3391,799.3243,799.8412,797.9087,57.0,799.324,800.3392,800.8391,800.8393,806.8556,9999.0,806.8564,0.0,807.8547,2.0,5.0,65.0,23.0,1.0,1.4,0.3,Time
,,S19,1,female,37,anonymized,Serial_Dependence_U,2023.2.3,Win32,60.24096386,,,,,,,,,,,,807.8566,2.0,807.8572,,,,810.5806,811.0778,810.0719,810.5804,808.8639,255.0,810.0715,811.0778,811.5698,811.57,817.5862,9999.0,817.5872,0.0,818.5843,2.0,6.0,66.0,12.0,1.0,1.2,0.3,Time
,,S19,1,female,37,anonymized,Serial_Dependence_U,2023.2.3,Win32,60.24096386,,,,,,,,,,,,818.5866,2.0,818.5872,,,,821.7189,822.2173,821.2023,821.7186,819.5895,353.0,821.2018,822.2175,822.7168,822.717,828.7337,9999.0,828.7342,0.0,829.7321,2.0,7.0,67.0,4.0,1.0,1.6,0.3,Time
,,S19,1,female,37,anonymized,Serial_Dependence_U,2023.2.3,Win32,60.24096386,,,,,,,,,,,,829.7338,2.0,829.7344,,,,832.4665,832.9646,831.9492,832.4659,830.7353,30.0,831.9489,832.9648,833.4644,833.4646,839.4807,9999.0,839.4813,0.0,840.4797,2.0,8.0,68.0,17.0,1.0,1.2,0.7,Time
,,S19,1,female,37,anonymized,Serial_Dependence_U,2023.2.3,Win32,60.24096386,,,,,,,,,,,,840.4815,2.0,840.4822,,,,843.0221,843.5117,842.5139,843.0219,841.4976,131.0,842.5133,843.5118,844.0042,844.0043,850.0103,9999.0,850.0108,0.0,851.0096,2.0,9.0,69.0,26.0,1.0,1.0,0.7,Time
,,S19,1,female,37,anonymized,Serial_Dependence_U,2023.2.3,Win32,60.24096386,,,,,,,,,,,,851.0108,2.0,851.0112,,,,853.3446,853.8428,852.8366,853.3442,852.0275,274.0,852.8364,853.8429,854.3423,854.3426,860.3585,9999.0,860.3592,0.0,861.3579,2.0,10.0,70.0,10.0,1.0,0.8,0.3,Time
,,S19,1,female,37,anonymized,Serial_Dependence_U,2023.2.3,Win32,60.24096386,,,,,,,,,,,,861.3596,2.0,861.3602,,,,863.9006,864.3981,863.3919,863.9004,862.3756,144.0,863.3917,864.3982,864.8896,864.8897,870.9049,9999.0,870.9054,0.0,871.9044,2.0,11.0,71.0,16.0,1.0,1.0,0.7,Time
,,S19,1,female,37,anonymized,Serial_Dependence_U,2023.2.3,Win32,60.24096386,,,,,,,,,,,,871.9054,2.0,871.9059,,,,875.0561,875.5538,874.5385,875.0558,872.922,121.0,874.5383,875.554,876.0534,876.0537,882.0702,9999.0,882.0708,0.0,883.0688,2.0,12.0,72.0,19.0,1.0,1.6,0.7,Time
,,S19,1,female,37,anonymized,Serial_Dependence_U,2023.2.3,Win32,60.24096386,,,,,,,,,,,,883.0704,2.0,883.0709,,,,886.2201,886.7182,885.7034,886.2197,884.0871,81.0,885.7032,886.7184,887.2178,887.2179,893.2344,9999.0,893.2351,0.0,894.233,2.0,13.0,73.0,24.0,1.0,1.6,0.3,Time
,,S19,1,female,37,anonymized,Serial_Dependence_U,2023.2.3,Win32,60.24096386,,,,,,,,,,,,894.2345,2.0,894.235,,,,896.7674,897.2653,896.2506,896.767,895.243,109.0,896.25,897.2654,897.7659,897.7664,903.7815,9999.0,903.7823,0.0,904.7799,2.0,14.0,74.0,21.0,1.0,1.0,0.3,Time
,,S19,1,female,37,anonymized,Serial_Dependence_U,2023.2.3,Win32,60.24096386,,,,,,,,,,,,904.7817,2.0,904.7822,,,,907.7144,908.2125,907.207,907.7137,905.7976,359.0,907.2066,908.2126,908.7121,908.7124,914.7291,9999.0,914.7299,0.0,915.7279,2.0,15.0,75.0,28.0,1.0,1.4,0.7,Time
,,S19,1,female,37,anonymized,Serial_Dependence_U,2023.2.3,Win32,60.24096386,,,,,,,,,,,,915.7296,2.0,915.7302,,,,918.2778,918.7764,917.7622,918.2775,916.7456,355.0,917.7617,918.7765,919.2761,919.2762,925.2931,9999.0,925.2938,0.0,926.2918,2.0,16.0,76.0,1.0,1.0,1.0,0.3,Time
,,S19,1,female,37,anonymized,Serial_Dependence_U,2023.2.3,Win32,60.24096386,,,,,,,,,,,,926.2944,2.0,926.2951,,,,929.0425,929.5404,928.5259,929.0421,927.3095,1.0,928.5256,929.5406,930.0404,930.0406,936.0564,9999.0,936.0574,0.0,937.0558,2.0,17.0,77.0,2.0,1.0,1.2,0.3,Time
,,S19,1,female,37,anonymized,Serial_Dependence_U,2023.2.3,Win32,60.24096386,,,,,,,,,,,,937.0577,2.0,937.0584,,,,939.39,939.8879,938.8734,939.3897,938.0657,172.0,938.8732,939.888,940.3878,940.388,946.4037,9999.0,946.4041,0.0,947.4031,2.0,18.0,78.0,0.0,1.0,0.8,0.3,Time
,,S19,1,female,37,anonymized,Serial_Dependence_U,2023.2.3,Win32,60.24096386,,,,,,,,,,,,947.4053,2.0,947.4058,,,,950.3461,950.8434,949.8376,950.3458,948.4211,232.0,949.8373,950.8434,951.3432,951.3433,957.3518,9999.0,957.3526,0.0,958.3406,2.0,19.0,79.0,18.0,1.0,1.4,0.7,Time
,,S19,1,female,37,anonymized,Serial_Dependence_U,2023.2.3,Win32,60.24096386,,,,,,,,,,,,958.3413,2.0,958.3415,,,,961.2683,961.7655,960.7511,961.268,959.3434,5.0,960.7507,961.7657,962.2657,962.2658,968.2827,9999.0,968.2832,0.0,969.2814,2.0,20.0,80.0,3.0,1.0,1.4,0.3,Time
,,S19,1,female,37,anonymized,Serial_Dependence_U,2023.2.3,Win32,60.24096386,,,,,,,,,,,,969.283,2.0,969.2836,,,,972.0295,972.5295,971.5133,972.0294,970.299,4.0,971.5129,972.5296,973.0295,973.0296,979.0461,9999.0,979.047,0.0,980.0453,2.0,21.0,81.0,27.0,1.0,1.2,0.7,Time
,,S19,1,female,37,anonymized,Serial_Dependence_U,2023.2.3,Win32,60.24096386,,,,,,,,,,,,980.0477,2.0,980.0483,,,,982.9934,983.4943,982.4798,982.9923,981.0632,126.0,982.4796,983.4944,983.9938,983.994,990.01,9999.0,990.0107,0.0,991.0087,2.0,22.0,82.0,8.0,1.0,1.4,0.7,Time
,,S19,1,female,37,anonymized,Serial_Dependence_U,2023.2.3,Win32,60.24096386,,,,,,,,,,,,991.0106,2.0,991.0113,,,,994.1606,994.6565,993.6415,994.1605,992.0256,221.0,993.641,994.6566,995.1563,995.1564,1001.1737,9999.0,1001.1749,0.0,1002.1727,2.0,23.0,83.0,14.0,1.0,1.6,0.3,Time
,,S19,1,female,37,anonymized,Serial_Dependence_U,2023.2.3,Win32,60.24096386,,,,,,,,,,,,1002.1752,2.0,1002.1761,,,,1004.6995,1005.1961,1004.1906,1004.6993,1003.176,41.0,1004.1901,1005.1961,1005.6886,1005.6888,1011.7048,9999.0,1011.7055,0.0,1012.7041,2.0,24.0,84.0,6.0,1.0,1.0,0.7,Time
,,S19,1,female,37,anonymized,Serial_Dependence_U,2023.2.3,Win32,60.24096386,,,,,,,,,,,,1012.7059,2.0,1012.7066,,,,1015.0379,1015.5346,1014.5196,1015.0375,1013.7092,27.0,1014.5192,1015.5347,1016.0351,1016.0352,1022.0527,9999.0,1022.0534,0.0,1023.051,2.0,25.0,85.0,25.0,1.0,0.8,0.7,Time
,,S19,1,female,37,anonymized,Serial_Dependence_U,2023.2.3,Win32,60.24096386,,,,,,,,,,,,1023.0535,2.0,1023.0541,,,,1026.1879,1026.6833,1025.6839,1026.1874,1024.0701,173.0,1025.6837,1026.6835,1027.1831,1027.1833,1033.1998,9999.0,1033.2004,0.0,1034.1979,2.0,26.0,86.0,29.0,1.0,1.6,0.7,Time
,,S19,1,female,37,anonymized,Serial_Dependence_U,2023.2.3,Win32,60.24096386,,,,,,,,,,,,1034.1996,2.0,1034.2002,,,,1036.5157,1037.0141,1036.0086,1036.5149,1035.2033,336.0,1036.0083,1037.0143,1037.5139,1037.514,1043.5298,9999.0,1043.5309,0.0,1044.5287,2.0,27.0,87.0,15.0,1.0,0.8,0.7,Time
,,S19,1,female,37,anonymized,Serial_Dependence_U,2023.2.3,Win32,60.24096386,,,,,,,,,,,,1044.5308,2.0,1044.5313,,,,1047.4801,1047.9783,1046.9635,1047.4795,1045.5475,134.0,1046.9629,1047.9784,1048.4787,1048.4792,1054.4937,9999.0,1054.4949,0.0,1055.4927,2.0,28.0,88.0,13.0,1.0,1.4,0.3,Time
,,S19,1,female,37,anonymized,Serial_Dependence_U,2023.2.3,Win32,60.24096386,,,,,,,,,,,,1055.4947,2.0,1055.4951,,,,1058.0311,1058.5257,1057.5197,1058.0308,1056.5112,157.0,1057.5195,1058.5258,1059.0252,1059.0254,1065.0413,9999.0,1065.0422,0.0,1066.0402,2.0,29.0,89.0,11.0,1.0,1.0,0.3,Time
,,S19,1,female,37,anonymized,Serial_Dependence_U,2023.2.3,Win32,60.24096386,,,,,,,,,,,,1066.0421,3.0,1069.1393,s,3.0588,,1071.8659,1072.355,1071.349,1071.8657,1070.1429,259.0,1071.3488,1072.3552,1072.8554,1072.8556,1078.8711,9999.0,1078.8721,0.0,1079.8699,3.0,0.0,90.0,27.0,1.0,1.2,0.7,Time
,,S19,1,female,37,anonymized,Serial_Dependence_U,2023.2.3,Win32,60.24096386,,,,,,,,,,,,1079.8718,3.0,1079.882,,,,1083.021,1083.5193,1082.5128,1083.0202,1080.9044,194.0,1082.5126,1083.5195,1084.019,1084.0193,1090.0363,9999.0,1090.0372,0.0,1091.0339,3.0,1.0,91.0,24.0,1.0,1.6,0.3,Time
,,S19,1,female,37,anonymized,Serial_Dependence_U,2023.2.3,Win32,60.24096386,,,,,,,,,,,,1091.036,3.0,1091.0366,,,,1094.1849,1094.683,1093.6679,1094.1845,1092.0514,97.0,1093.6676,1094.6831,1095.1835,1095.1838,1101.1988,9999.0,1101.1997,0.0,1102.1977,3.0,2.0,92.0,29.0,1.0,1.6,0.7,Time
,,S19,1,female,37,anonymized,Serial_Dependence_U,2023.2.3,Win32,60.24096386,,,,,,,,,,,,1102.1988,3.0,1102.1993,,,,1104.5492,1105.0471,1104.0326,1104.549,1103.2161,53.0,1104.0323,1105.0472,1105.5472,1105.5474,1111.5639,9999.0,1111.5645,0.0,1112.5633,3.0,3.0,93.0,20.0,1.0,0.8,0.3,Time
,,S19,1,female,37,anonymized,Serial_Dependence_U,2023.2.3,Win32,60.24096386,,,,,,,,,,,,1112.5648,3.0,1112.5652,,,,1115.113,1115.6113,1114.595,1115.1126,1113.58,306.0,1114.5945,1115.6115,1116.1117,1116.1119,1122.1279,9999.0,1122.1285,0.0,1123.1263,3.0,4.0,94.0,6.0,1.0,1.0,0.7,Time
,,S19,1,female,37,anonymized,Serial_Dependence_U,2023.2.3,Win32,60.24096386,,,,,,,,,,,,1123.1282,3.0,1123.1288,,,,1125.8773,1126.3754,1125.3597,1125.877,1124.1444,162.0,1125.3595,1126.3756,1126.8749,1126.8752,1132.8916,9999.0,1132.8923,0.0,1133.89,3.0,5.0,95.0,7.0,1.0,1.2,0.7,Time
,,S19,1,female,37,anonymized,Serial_Dependence_U,2023.2.3,Win32,60.24096386,,,,,,,,,,,,1133.8919,3.0,1133.8928,,,,1136.6342,1137.1293,1136.1244,1136.6341,1134.9164,111.0,1136.1238,1137.1294,1137.6304,1137.6304,1143.641,9999.0,1143.6414,0.0,1144.638,3.0,6.0,96.0,22.0,1.0,1.2,0.3,Time
,,S19,1,female,37,anonymized,Serial_Dependence_U,2023.2.3,Win32,60.24096386,,,,,,,,,,,,1144.6399,3.0,1144.6406,,,,1147.7804,1148.2695,1147.2722,1147.7801,1145.6558,97.0,1147.2718,1148.2697,1148.7694,1148.7694,1154.7856,9999.0,1154.7865,0.0,1155.7847,3.0,7.0,97.0,19.0,1.0,1.6,0.7,Time
,,S19,1,female,37,anonymized,Serial_Dependence_U,2023.2.3,Win32,60.24096386,,,,,,,,,,,,1155.7867,3.0,1155.7875,,,,1158.9358,1159.4343,1158.4186,1158.9355,1156.8025,96.0,1158.4184,1159.4344,1159.934,1159.9341,1165.9383,9999.0,1165.9388,0.0,1166.9323,3.0,8.0,98.0,4.0,1.0,1.6,0.3,Time
,,S19,1,female,37,anonymized,Serial_Dependence_U,2023.2.3,Win32,60.24096386,,,,,,,,,,,,1166.9343,3.0,1166.9348,,,,1169.859,1170.3562,1169.3494,1169.8587,1167.9359,233.0,1169.3489,1170.3563,1170.8555,1170.8556,1176.8647,9999.0,1176.8658,0.0,1177.8627,3.0,9.0,99.0,3.0,1.0,1.4,0.3,Time
,,S19,1,female,37,anonymized,Serial_Dependence_U,2023.2.3,Win32,60.24096386,,,,,,,,,,,,1177.865,3.0,1177.8656,,,,1180.5972,1181.0953,1180.0887,1180.5967,1178.8734,270.0,1180.0885,1181.0955,1181.5948,1181.595,1187.6164,9999.0,1187.6169,0.0,1188.6102,3.0,10.0,100.0,2.0,1.0,1.2,0.3,Time
,,S19,1,female,37,anonymized,Serial_Dependence_U,2023.2.3,Win32,60.24096386,,,,,,,,,,,,1188.6128,3.0,1188.6138,,,,1191.1326,1191.6264,1190.6279,1191.132,1189.6204,224.0,1190.6274,1191.6265,1192.1256,1192.1257,1198.1337,9999.0,1198.134,0.0,1199.131,3.0,11.0,101.0,11.0,1.0,1.0,0.3,Time
,,S19,1,female,37,anonymized,Serial_Dependence_U,2023.2.3,Win32,60.24096386,,,,,,,,,,,,1199.1316,3.0,1199.1319,,,,1201.4742,1201.973,1200.9585,1201.4741,1200.1418,26.0,1200.958,1201.973,1202.473,1202.4732,1208.4896,9999.0,1208.4903,0.0,1209.4878,3.0,12.0,102.0,5.0,1.0,0.8,0.7,Time
,,S19,1,female,37,anonymized,Serial_Dependence_U,2023.2.3,Win32,60.24096386,,,,,,,,,,,,1209.4888,3.0,1209.4893,,,,1212.2224,1212.7206,1211.7094,1212.222,1210.4893,202.0,1211.7091,1212.7206,1213.2207,1213.221,1219.2361,9999.0,1219.2365,0.0,1220.2354,3.0,13.0,103.0,12.0,1.0,1.2,0.3,Time
,,S19,1,female,37,anonymized,Serial_Dependence_U,2023.2.3,Win32,60.24096386,,,,,,,,,,,,1220.2367,3.0,1220.2371,,,,1222.7698,1223.2679,1222.2604,1222.7693,1221.2457,89.0,1222.2602,1223.268,1223.768,1223.7682,1229.7842,9999.0,1229.785,0.0,1230.783,3.0,14.0,104.0,21.0,1.0,1.0,0.3,Time
,,S19,1,female,37,anonymized,Serial_Dependence_U,2023.2.3,Win32,60.24096386,,,,,,,,,,,,1230.7848,3.0,1230.7853,,,,1233.7175,1234.2155,1233.2001,1233.7171,1231.7942,356.0,1233.1995,1234.2157,1234.7153,1234.7155,1240.7312,9999.0,1240.7324,0.0,1241.7302,3.0,15.0,105.0,18.0,1.0,1.4,0.7,Time
,,S19,1,female,37,anonymized,Serial_Dependence_U,2023.2.3,Win32,60.24096386,,,,,,,,,,,,1241.7321,3.0,1241.7328,,,,1244.0804,1244.5788,1243.565,1244.0801,1242.7484,10.0,1243.5644,1244.5789,1245.0789,1245.079,1251.0867,9999.0,1251.0871,0.0,1252.0852,3.0,16.0,106.0,0.0,1.0,0.8,0.3,Time
,,S19,1,female,37,anonymized,Serial_Dependence_U,2023.2.3,Win32,60.24096386,,,,,,,,,,,,1252.086,3.0,1252.0864,,,,1255.0288,1255.5269,1254.5121,1255.0285,1253.0959,14.0,1254.5119,1255.527,1256.0265,1256.0268,1262.0432,9999.0,1262.044,0.0,1263.0419,3.0,17.0,107.0,23.0,1.0,1.4,0.3,Time
,,S19,1,female,37,anonymized,Serial_Dependence_U,2023.2.3,Win32,60.24096386,,,,,,,,,,,,1263.0446,3.0,1263.0452,,,,1265.9927,1266.4933,1265.4757,1265.9923,1264.0602,5.0,1265.4753,1266.4935,1266.9902,1266.9904,1272.9948,9999.0,1272.9952,0.0,1273.9889,3.0,18.0,108.0,13.0,1.0,1.4,0.3,Time
,,S19,1,female,37,anonymized,Serial_Dependence_U,2023.2.3,Win32,60.24096386,,,,,,,,,,,,1273.9908,3.0,1273.9914,,,,1276.9397,1277.4379,1276.4231,1276.9395,1275.0075,332.0,1276.4226,1277.438,1277.9378,1277.938,1283.954,9999.0,1283.9547,0.0,1284.9529,3.0,19.0,109.0,28.0,1.0,1.4,0.7,Time
,,S19,1,female,37,anonymized,Serial_Dependence_U,2023.2.3,Win32,60.24096386,,,,,,,,,,,,1284.9545,3.0,1284.955,,,,1287.2959,1287.7935,1286.7875,1287.2958,1285.9704,50.0,1286.7871,1287.7936,1288.2932,1288.2934,1294.3113,9999.0,1294.3118,0.0,1295.3009,3.0,20.0,110.0,25.0,1.0,0.8,0.7,Time
,,S19,1,female,37,anonymized,Serial_Dependence_U,2023.2.3,Win32,60.24096386,,,,,,,,,,,,1295.3026,3.0,1295.3032,,,,1297.8346,1298.3326,1297.3182,1297.8343,1296.3105,156.0,1297.3178,1298.3328,1298.8328,1298.8331,1304.8484,9999.0,1304.8488,0.0,1305.8471,3.0,21.0,111.0,16.0,1.0,1.0,0.7,Time
,,S19,1,female,37,anonymized,Serial_Dependence_U,2023.2.3,Win32,60.24096386,,,,,,,,,,,,1305.8485,3.0,1305.849,,,,1308.5907,1309.0807,1308.0657,1308.5906,1306.859,280.0,1308.0654,1309.0809,1309.5811,1309.5815,1315.5893,9999.0,1315.5897,0.0,1316.578,3.0,22.0,112.0,17.0,1.0,1.2,0.7,Time
,,S19,1,female,37,anonymized,Serial_Dependence_U,2023.2.3,Win32,60.24096386,,,,,,,,,,,,1316.58,3.0,1316.5807,,,,1319.5293,1320.0279,1319.0129,1319.5291,1317.5962,254.0,1319.0123,1320.028,1320.5271,1320.5273,1326.5352,9999.0,1326.5355,0.0,1327.5333,3.0,23.0,113.0,8.0,1.0,1.4,0.7,Time
,,S19,1,female,37,anonymized,Serial_Dependence_U,2023.2.3,Win32,60.24096386,,,,,,,,,,,,1327.5341,3.0,1327.5345,,,,1329.8762,1330.3747,1329.3602,1329.8759,1328.5441,196.0,1329.3598,1330.3749,1330.8745,1330.8745,1336.8928,9999.0,1336.8936,0.0,1337.8894,3.0,24.0,114.0,15.0,1.0,0.8,0.7,Time
,,S19,1,female,37,anonymized,Serial_Dependence_U,2023.2.3,Win32,60.24096386,,,,,,,,,,,,1337.8906,3.0,1337.8911,,,,1341.0405,1341.5384,1340.5241,1341.0402,1338.9068,48.0,1340.5237,1341.5385,1342.0389,1342.0391,1348.055,9999.0,1348.0556,0.0,1349.0537,3.0,25.0,115.0,14.0,1.0,1.6,0.3,Time
,,S19,1,female,37,anonymized,Serial_Dependence_U,2023.2.3,Win32,60.24096386,,,,,,,,,,,,1349.0554,3.0,1349.056,,,,1351.5811,1352.0781,1351.0712,1351.5808,1350.0609,79.0,1351.0704,1352.0781,1352.5774,1352.5776,1358.6008,9999.0,1358.6017,0.0,1359.6011,3.0,26.0,116.0,1.0,1.0,1.0,0.3,Time
,,S19,1,female,37,anonymized,Serial_Dependence_U,2023.2.3,Win32,60.24096386,,,,,,,,,,,,1359.6028,3.0,1359.6035,,,,1362.7355,1363.2332,1362.2186,1362.7353,1360.6093,354.0,1362.2182,1363.2333,1363.7334,1363.7335,1369.7412,9999.0,1369.7415,0.0,1370.7392,3.0,27.0,117.0,9.0,1.0,1.6,0.7,Time
,,S19,1,female,37,anonymized,Serial_Dependence_U,2023.2.3,Win32,60.24096386,,,,,,,,,,,,1370.74,3.0,1370.7404,,,,1373.075,1373.5643,1372.5659,1373.0747,1371.7529,10.0,1372.5654,1373.5645,1374.0559,1374.0565,1380.0637,9999.0,1380.0643,0.0,1381.0627,3.0,28.0,118.0,10.0,1.0,0.8,0.3,Time
,,S19,1,female,37,anonymized,Serial_Dependence_U,2023.2.3,Win32,60.24096386,,,,,,,,,,,,1381.0645,3.0,1381.0652,,,,1383.6222,1384.1191,1383.105,1383.622,1382.08,237.0,1383.1048,1384.1192,1384.619,1384.6191,1390.6279,9999.0,1390.6288,0.0,1391.6265,3.0,29.0,119.0,26.0,1.0,1.0,0.7,Time
,,S19,1,female,37,anonymized,Serial_Dependence_U,2023.2.3,Win32,60.24096386,,,,,,,,,,,,1391.6289,4.0,1393.842,s,2.1785,,1396.2013,1396.6951,1395.6774,1396.2011,1394.8607,61.0,1395.6767,1396.6952,1397.1917,1397.1919,1403.208,9999.0,1403.2088,0.0,1404.2068,4.0,0.0,120.0,5.0,1.0,0.8,0.7,Time
,,S19,1,female,37,anonymized,Serial_Dependence_U,2023.2.3,Win32,60.24096386,,,,,,,,,,,,1404.2092,4.0,1404.2142,,,,1407.1574,1407.6561,1406.6414,1407.1568,1405.2251,236.0,1406.641,1407.6562,1408.1556,1408.1558,1414.1723,9999.0,1414.1729,0.0,1415.1709,4.0,1.0,121.0,23.0,1.0,1.4,0.3,Time
,,S19,1,female,37,anonymized,Serial_Dependence_U,2023.2.3,Win32,60.24096386,,,,,,,,,,,,1415.1726,4.0,1415.1733,,,,1418.1216,1418.6198,1417.6047,1418.1213,1416.1886,4.0,1417.6041,1418.62,1419.1195,1419.1197,1425.1365,9999.0,1425.137,0.0,1426.1354,4.0,2.0,122.0,28.0,1.0,1.4,0.7,Time
,,S19,1,female,37,anonymized,Serial_Dependence_U,2023.2.3,Win32,60.24096386,,,,,,,,,,,,1426.1377,4.0,1426.1384,,,,1428.4847,1428.9839,1427.9683,1428.4844,1427.1525,45.0,1427.9681,1428.9841,1429.484,1429.4842,1435.5004,9999.0,1435.5009,0.0,1436.4987,4.0,3.0,123.0,20.0,1.0,0.8,0.3,Time
,,S19,1,female,37,anonymized,Serial_Dependence_U,2023.2.3,Win32,60.24096386,,,,,,,,,,,,1436.5004,4.0,1436.5009,,,,1438.842,1439.3313,1438.3255,1438.8418,1437.5085,327.0,1438.3254,1439.3314,1439.8194,1439.8195,1445.8304,9999.0,1445.8312,0.0,1446.829,4.0,4.0,124.0,0.0,1.0,0.8,0.3,Time
,,S19,1,female,37,anonymized,Serial_Dependence_U,2023.2.3,Win32,60.24096386,,,,,,,,,,,,1446.8313,4.0,1446.8322,,,,1449.5724,1450.0698,1449.0638,1449.5723,1447.8472,358.0,1449.0635,1450.0699,1450.5699,1450.57,1456.5787,9999.0,1456.5792,0.0,1457.5759,4.0,5.0,125.0,12.0,1.0,1.2,0.3,Time
,,S19,1,female,37,anonymized,Serial_Dependence_U,2023.2.3,Win32,60.24096386,,,,,,,,,,,,1457.5774,4.0,1457.5781,,,,1460.3201,1460.8168,1459.8105,1460.3199,1458.5959,80.0,1459.8101,1460.8169,1461.3168,1461.3169,1467.3264,9999.0,1467.327,0.0,1468.3242,4.0,6.0,126.0,17.0,1.0,1.2,0.7,Time
,,S19,1,female,37,anonymized,Serial_Dependence_U,2023.2.3,Win32,60.24096386,,,,,,,,,,,,1468.326,4.0,1468.3264,,,,1471.0837,1471.5737,1470.5578,1471.0836,1469.3404,277.0,1470.5575,1471.5737,1472.0735,1472.0736,1478.0893,9999.0,1478.0903,0.0,1479.0886,4.0,7.0,127.0,7.0,1.0,1.2,0.7,Time
,,S19,1,female,37,anonymized,Serial_Dependence_U,2023.2.3,Win32,60.24096386,,,,,,,,,,,,1479.0903,4.0,1479.0908,,,,1482.2229,1482.7202,1481.7083,1482.2226,1480.0982,6.0,1481.7073,1482.7204,1483.2209,1483.2214,1489.2366,9999.0,1489.2375,0.0,1490.2341,4.0,8.0,128.0,29.0,1.0,1.6,0.7,Time
,,S19,1,female,37,anonymized,Serial_Dependence_U,2023.2.3,Win32,60.24096386,,,,,,,,,,,,1490.2358,4.0,1490.2365,,,,1492.9864,1493.4848,1492.4707,1492.9862,1491.2517,324.0,1492.4698,1493.4849,1493.9849,1493.985,1500.001,9999.0,1500.0018,0.0,1500.9992,4.0,9.0,129.0,2.0,1.0,1.2,0.3,Time
,,S19,1,female,37,anonymized,Serial_Dependence_U,2023.2.3,Win32,60.24096386,,,,,,,,,,,,1501.0009,4.0,1501.0015,,,,1503.5263,1504.0236,1503.0166,1503.526,1502.0055,28.0,1503.016,1504.0237,1504.5235,1504.5237,1510.5365,9999.0,1510.5374,0.0,1511.5301,4.0,10.0,130.0,6.0,1.0,1.0,0.7,Time
,,S19,1,female,37,anonymized,Serial_Dependence_U,2023.2.3,Win32,60.24096386,,,,,,,,,,,,1511.5321,4.0,1511.5332,,,,1513.8811,1514.3797,1513.3642,1513.8809,1512.5486,127.0,1513.3635,1514.3798,1514.8794,1514.8796,1520.8956,9999.0,1520.8963,0.0,1521.8941,4.0,11.0,131.0,25.0,1.0,0.8,0.7,Time
,,S19,1,female,37,anonymized,Serial_Dependence_U,2023.2.3,Win32,60.24096386,,,,,,,,,,,,1521.8959,4.0,1521.8964,,,,1524.6456,1525.1436,1524.1278,1524.6454,1522.9128,35.0,1524.1277,1525.1437,1525.6434,1525.6436,1531.6618,9999.0,1531.6622,0.0,1532.6576,4.0,12.0,132.0,22.0,1.0,1.2,0.3,Time
,,S19,1,female,37,anonymized,Serial_Dependence_U,2023.2.3,Win32,60.24096386,,,,,,,,,,,,1532.6595,4.0,1532.66,,,,1535.8007,1536.291,1535.2925,1535.8005,1533.6764,118.0,1535.2918,1536.2911,1536.7908,1536.7911,1542.8064,9999.0,1542.8067,0.0,1543.8052,4.0,13.0,133.0,4.0,1.0,1.6,0.3,Time
,,S19,1,female,37,anonymized,Serial_Dependence_U,2023.2.3,Win32,60.24096386,,,,,,,,,,,,1543.8063,4.0,1543.8069,,,,1546.3567,1546.8547,1545.8392,1546.3564,1544.8227,335.0,1545.839,1546.8548,1547.3545,1547.3547,1553.371,9999.0,1553.3717,0.0,1554.3695,4.0,14.0,134.0,11.0,1.0,1.0,0.3,Time
,,S19,1,female,37,anonymized,Serial_Dependence_U,2023.2.3,Win32,60.24096386,,,,,,,,,,,,1554.3715,4.0,1554.3722,,,,1556.9099,1557.4017,1556.3877,1556.9097,1555.381,217.0,1556.3872,1557.4019,1557.902,1557.9022,1563.9092,9999.0,1563.9095,0.0,1564.9004,4.0,15.0,135.0,16.0,1.0,1.0,0.7,Time
,,S19,1,female,37,anonymized,Serial_Dependence_U,2023.2.3,Win32,60.24096386,,,,,,,,,,,,1564.9023,4.0,1564.9028,,,,1568.0269,1568.5164,1567.5178,1568.0266,1565.9107,228.0,1567.5173,1568.5165,1569.0149,1569.0152,1575.0375,9999.0,1575.0381,0.0,1576.0293,4.0,16.0,136.0,19.0,1.0,1.6,0.7,Time
,,S19,1,female,37,anonymized,Serial_Dependence_U,2023.2.3,Win32,60.24096386,,,,,,,,,,,,1576.031,4.0,1576.0317,,,,1578.581,1579.0798,1578.0649,1578.5809,1577.0479,99.0,1578.0644,1579.0799,1579.5791,1579.5792,1585.5951,9999.0,1585.5959,0.0,1586.595,4.0,17.0,137.0,26.0,1.0,1.0,0.7,Time
,,S19,1,female,37,anonymized,Serial_Dependence_U,2023.2.3,Win32,60.24096386,,,,,,,,,,,,1586.5962,4.0,1586.5969,,,,1589.345,1589.8438,1588.8285,1589.3448,1587.6134,159.0,1588.8283,1589.8438,1590.344,1590.3441,1596.3603,9999.0,1596.361,0.0,1597.3596,4.0,18.0,138.0,27.0,1.0,1.2,0.7,Time
,,S19,1,female,37,anonymized,Serial_Dependence_U,2023.2.3,Win32,60.24096386,,,,,,,,,,,,1597.3614,4.0,1597.3622,,,,1600.502,1600.9992,1599.9936,1600.5018,1598.3861,331.0,1599.993,1600.9994,1601.4993,1601.4993,1607.5157,9999.0,1607.5161,0.0,1608.5055,4.0,19.0,139.0,14.0,1.0,1.6,0.3,Time
,,S19,1,female,37,anonymized,Serial_Dependence_U,2023.2.3,Win32,60.24096386,,,,,,,,,,,,1608.5074,4.0,1608.5083,,,,1611.4429,1611.9383,1610.9402,1611.4427,1609.5238,350.0,1610.9397,1611.9385,1612.4381,1612.4383,1618.455,9999.0,1618.4559,0.0,1619.4533,4.0,20.0,140.0,13.0,1.0,1.4,0.3,Time
,,S19,1,female,37,anonymized,Serial_Dependence_U,2023.2.3,Win32,60.24096386,,,,,,,,,,,,1619.4555,4.0,1619.4564,,,,1621.8046,1622.303,1621.2878,1621.8041,1620.4713,299.0,1621.2872,1622.3031,1622.8026,1622.8028,1628.8078,9999.0,1628.8084,0.0,1629.8006,4.0,21.0,141.0,10.0,1.0,0.8,0.3,Time
,,S19,1,female,37,anonymized,Serial_Dependence_U,2023.2.3,Win32,60.24096386,,,,,,,,,,,,1629.8026,4.0,1629.803,,,,1632.7523,1633.2499,1632.2356,1632.7519,1630.8193,18.0,1632.2348,1633.25,1633.7501,1633.7504,1639.7666,9999.0,1639.7671,0.0,1640.7649,4.0,22.0,142.0,18.0,1.0,1.4,0.7,Time
,,S19,1,female,37,anonymized,Serial_Dependence_U,2023.2.3,Win32,60.24096386,,,,,,,,,,,,1640.7669,4.0,1640.7675,,,,1643.8917,1644.3895,1643.3824,1643.8912,1641.7751,307.0,1643.382,1644.3896,1644.8886,1644.8887,1650.9037,9999.0,1650.9041,0.0,1651.896,4.0,23.0,143.0,24.0,1.0,1.6,0.3,Time
,,S19,1,female,37,anonymized,Serial_Dependence_U,2023.2.3,Win32,60.24096386,,,,,,,,,,,,1651.898,4.0,1651.8987,,,,1654.8133,1655.3107,1654.3052,1654.813,1652.8997,237.0,1654.3049,1655.3108,1655.8114,1655.8116,1661.8161,9999.0,1661.8167,0.0,1662.8092,4.0,24.0,144.0,3.0,1.0,1.4,0.3,Time
,,S19,1,female,37,anonymized,Serial_Dependence_U,2023.2.3,Win32,60.24096386,,,,,,,,,,,,1662.8112,4.0,1662.8118,,,,1665.1498,1665.6421,1664.6426,1665.1495,1663.8277,333.0,1664.6424,1665.6422,1666.1303,1666.1304,1672.14,9999.0,1672.1405,0.0,1673.14,4.0,25.0,145.0,15.0,1.0,0.8,0.7,Time
,,S19,1,female,37,anonymized,Serial_Dependence_U,2023.2.3,Win32,60.24096386,,,,,,,,,,,,1673.1412,4.0,1673.1418,,,,1676.074,1676.5724,1675.5669,1676.0737,1674.1587,282.0,1675.5666,1676.5724,1677.0723,1677.0724,1683.0743,9999.0,1683.0751,0.0,1684.0712,4.0,26.0,146.0,8.0,1.0,1.4,0.7,Time
,,S19,1,female,37,anonymized,Serial_Dependence_U,2023.2.3,Win32,60.24096386,,,,,,,,,,,,1684.0729,4.0,1684.0735,,,,1686.5982,1687.0944,1686.0886,1686.598,1685.074,168.0,1686.0884,1687.0945,1687.5946,1687.5947,1693.6035,9999.0,1693.6041,0.0,1694.5929,4.0,27.0,147.0,1.0,1.0,1.0,0.3,Time
,,S19,1,female,37,anonymized,Serial_Dependence_U,2023.2.3,Win32,60.24096386,,,,,,,,,,,,1694.594,4.0,1694.5945,,,,1697.7238,1698.2171,1697.2192,1697.7235,1695.602,348.0,1697.2188,1698.2172,1698.7171,1698.7172,1704.732,9999.0,1704.7323,0.0,1705.7325,4.0,28.0,148.0,9.0,1.0,1.6,0.7,Time
,,S19,1,female,37,anonymized,Serial_Dependence_U,2023.2.3,Win32,60.24096386,,,,,,,,,,,,1705.7342,4.0,1705.7354,,,,1708.2652,1708.7648,1707.7499,1708.2646,1706.7427,174.0,1707.7495,1708.765,1709.2647,1709.2649,1715.2812,9999.0,1715.282,0.0,1716.2801,4.0,29.0,149.0,21.0,1.0,1.0,0.3,Time
,,S19,1,female,37,anonymized,Serial_Dependence_U,2023.2.3,Win32,60.24096386,,,,,,,,,,,,1716.2825,5.0,1726.4941,s,10.1658,,1729.0454,1729.5426,1728.5286,1729.045,1727.5118,179.0,1728.5283,1729.5427,1730.0425,1730.0426,1736.0593,9999.0,1736.0599,0.0,1737.0578,5.0,0.0,150.0,26.0,1.0,1.0,0.7,Time
,,S19,1,female,37,anonymized,Serial_Dependence_U,2023.2.3,Win32,60.24096386,,,,,,,,,,,,1737.06,5.0,1737.065,,,,1739.6117,1740.107,1739.0978,1739.6112,1738.0876,27.0,1739.0976,1740.1072,1740.6068,1740.6071,1746.6229,9999.0,1746.6236,0.0,1747.622,5.0,1.0,151.0,6.0,1.0,1.0,0.7,Time
,,S19,1,female,37,anonymized,Serial_Dependence_U,2023.2.3,Win32,60.24096386,,,,,,,,,,,,1747.6243,5.0,1747.6253,,,,1750.556,1751.0542,1750.0383,1750.5556,1748.6321,333.0,1750.038,1751.0543,1751.554,1751.5541,1757.5607,9999.0,1757.5611,0.0,1758.5528,5.0,2.0,152.0,28.0,1.0,1.4,0.7,Time
,,S19,1,female,37,anonymized,Serial_Dependence_U,2023.2.3,Win32,60.24096386,,,,,,,,,,,,1758.555,5.0,1758.5555,,,,1760.8873,1761.3851,1760.3702,1760.8871,1759.5626,54.0,1760.3699,1761.3853,1761.8848,1761.885,1767.8999,9999.0,1767.9002,0.0,1768.8995,5.0,3.0,153.0,0.0,1.0,0.8,0.3,Time
,,S19,1,female,37,anonymized,Serial_Dependence_U,2023.2.3,Win32,60.24096386,,,,,,,,,,,,1768.9013,5.0,1768.9021,,,,1771.6517,1772.1485,1771.1431,1771.6514,1769.9181,58.0,1771.1429,1772.1487,1772.6489,1772.6491,1778.6741,9999.0,1778.6744,0.0,1779.6636,5.0,4.0,154.0,2.0,1.0,1.2,0.3,Time
,,S19,1,female,37,anonymized,Serial_Dependence_U,2023.2.3,Win32,60.24096386,,,,,,,,,,,,1779.6654,5.0,1779.6658,,,,1782.8074,1783.3044,1782.2979,1782.8071,1780.6818,142.0,1782.2973,1783.3045,1783.8056,1783.8057,1789.8128,9999.0,1789.8137,0.0,1790.8143,5.0,5.0,155.0,9.0,1.0,1.6,0.7,Time
,,S19,1,female,37,anonymized,Serial_Dependence_U,2023.2.3,Win32,60.24096386,,,,,,,,,,,,1790.8159,5.0,1790.8167,,,,1793.7553,1794.2438,1793.2456,1793.755,1791.8292,135.0,1793.2453,1794.2439,1794.7434,1794.7437,1800.7587,9999.0,1800.7592,0.0,1801.7579,5.0,6.0,156.0,8.0,1.0,1.4,0.7,Time
,,S19,1,female,37,anonymized,Serial_Dependence_U,2023.2.3,Win32,60.24096386,,,,,,,,,,,,1801.759,5.0,1801.7594,,,,1804.876,1805.3742,1804.3683,1804.8758,1802.7614,349.0,1804.3681,1805.3743,1805.8742,1805.8743,1811.8785,9999.0,1811.8791,0.0,1812.8723,5.0,7.0,157.0,14.0,1.0,1.6,0.3,Time
,,S19,1,female,37,anonymized,Serial_Dependence_U,2023.2.3,Win32,60.24096386,,,,,,,,,,,,1812.8739,5.0,1812.8746,,,,1815.9991,1816.496,1815.4901,1815.999,1813.8853,12.0,1815.4898,1816.4961,1816.9882,1816.9884,1823.0039,9999.0,1823.005,0.0,1824.0033,5.0,8.0,158.0,24.0,1.0,1.6,0.3,Time
,,S19,1,female,37,anonymized,Serial_Dependence_U,2023.2.3,Win32,60.24096386,,,,,,,,,,,,1824.0051,5.0,1824.0058,,,,1826.337,1826.8355,1825.8248,1826.3365,1825.0207,260.0,1825.8242,1826.8356,1827.3357,1827.336,1833.3438,9999.0,1833.3442,0.0,1834.3381,5.0,9.0,159.0,25.0,1.0,0.8,0.7,Time
,,S19,1,female,37,anonymized,Serial_Dependence_U,2023.2.3,Win32,60.24096386,,,,,,,,,,,,1834.3398,5.0,1834.3403,,,,1837.2599,1837.7503,1836.7437,1837.2597,1835.34,222.0,1836.7435,1837.7504,1838.251,1838.2513,1844.265,9999.0,1844.2655,0.0,1845.2638,5.0,10.0,160.0,3.0,1.0,1.4,0.3,Time
,,S19,1,female,37,anonymized,Serial_Dependence_U,2023.2.3,Win32,60.24096386,,,,,,,,,,,,1845.2652,5.0,1845.2658,,,,1847.5991,1848.0972,1847.0823,1847.5987,1846.2698,135.0,1847.0819,1848.0973,1848.5971,1848.5973,1854.6135,9999.0,1854.6141,0.0,1855.6115,5.0,11.0,161.0,20.0,1.0,0.8,0.3,Time
,,S19,1,female,37,anonymized,Serial_Dependence_U,2023.2.3,Win32,60.24096386,,,,,,,,,,,,1855.6133,5.0,1855.6139,,,,1858.563,1859.0604,1858.0463,1858.5624,1856.629,299.0,1858.0458,1859.0606,1859.5605,1859.5607,1865.5679,9999.0,1865.5681,0.0,1866.559,5.0,12.0,162.0,13.0,1.0,1.4,0.3,Time
,,S19,1,female,37,anonymized,Serial_Dependence_U,2023.2.3,Win32,60.24096386,,,,,,,,,,,,1866.5608,5.0,1866.5613,,,,1869.294,1869.7917,1868.777,1869.2936,1867.5704,154.0,1868.7766,1869.7919,1870.2916,1870.2918,1876.3084,9999.0,1876.3088,0.0,1877.3067,5.0,13.0,163.0,17.0,1.0,1.2,0.7,Time
,,S19,1,female,37,anonymized,Serial_Dependence_U,2023.2.3,Win32,60.24096386,,,,,,,,,,,,1877.3087,5.0,1877.3092,,,,1879.8409,1880.339,1879.3241,1879.8406,1878.3155,32.0,1879.3238,1880.3392,1880.8388,1880.8389,1886.8559,9999.0,1886.8571,0.0,1887.8536,5.0,14.0,164.0,1.0,1.0,1.0,0.3,Time
,,S19,1,female,37,anonymized,Serial_Dependence_U,2023.2.3,Win32,60.24096386,,,,,,,,,,,,1887.8557,5.0,1887.8562,,,,1890.1794,1890.6695,1889.6773,1890.1792,1888.8633,285.0,1889.677,1890.6696,1891.1699,1891.1701,1897.186,9999.0,1897.1867,0.0,1898.185,5.0,15.0,165.0,15.0,1.0,0.8,0.7,Time
,,S19,1,female,37,anonymized,Serial_Dependence_U,2023.2.3,Win32,60.24096386,,,,,,,,,,,,1898.1868,5.0,1898.1875,,,,1900.9188,1901.4167,1900.4043,1900.9184,1899.195,61.0,1900.4038,1901.4168,1901.9171,1901.9173,1907.9322,9999.0,1907.9325,0.0,1908.9314,5.0,16.0,166.0,7.0,1.0,1.2,0.7,Time
,,S19,1,female,37,anonymized,Serial_Dependence_U,2023.2.3,Win32,60.24096386,,,,,,,,,,,,1908.9326,5.0,1908.9331,,,,1911.6767,1912.1644,1911.1653,1911.6765,1909.9495,46.0,1911.1651,1912.1645,1912.6647,1912.665,1918.6711,9999.0,1918.6713,0.0,1919.6624,5.0,17.0,167.0,27.0,1.0,1.2,0.7,Time
,,S19,1,female,37,anonymized,Serial_Dependence_U,2023.2.3,Win32,60.24096386,,,,,,,,,,,,1919.6645,5.0,1919.6653,,,,1922.2135,1922.7119,1921.697,1922.2131,1920.6804,156.0,1921.6966,1922.712,1923.2117,1923.2119,1929.2272,9999.0,1929.2276,0.0,1930.2264,5.0,18.0,168.0,21.0,1.0,1.0,0.3,Time
,,S19,1,female,37,anonymized,Serial_Dependence_U,2023.2.3,Win32,60.24096386,,,,,,,,,,,,1930.2276,5.0,1930.228,,,,1932.7607,1933.2593,1932.2506,1932.7605,1931.2438,188.0,1932.2503,1933.2594,1933.7588,1933.759,1939.7678,9999.0,1939.7682,0.0,1940.7572,5.0,19.0,169.0,11.0,1.0,1.0,0.3,Time
,,S19,1,female,37,anonymized,Serial_Dependence_U,2023.2.3,Win32,60.24096386,,,,,,,,,,,,1940.7592,5.0,1940.7598,,,,1943.8838,1944.3732,1943.3747,1943.8837,1941.7686,252.0,1943.3743,1944.3733,1944.8732,1944.8733,1950.8817,9999.0,1950.8822,0.0,1951.8713,5.0,20.0,170.0,29.0,1.0,1.6,0.7,Time
,,S19,1,female,37,anonymized,Serial_Dependence_U,2023.2.3,Win32,60.24096386,,,,,,,,,,,,1951.8732,5.0,1951.8736,,,,1954.1976,1954.6951,1953.689,1954.1974,1952.8814,292.0,1953.6885,1954.6951,1955.1951,1955.1952,1961.203,9999.0,1961.2038,0.0,1962.2022,5.0,21.0,171.0,10.0,1.0,0.8,0.3,Time
,,S19,1,female,37,anonymized,Serial_Dependence_U,2023.2.3,Win32,60.24096386,,,,,,,,,,,,1962.2038,5.0,1962.2045,,,,1965.1457,1965.6381,1964.6198,1965.1454,1963.2049,323.0,1964.6196,1965.6383,1966.1347,1966.1348,1972.1386,9999.0,1972.1391,0.0,1973.1327,5.0,22.0,172.0,23.0,1.0,1.4,0.3,Time
,,S19,1,female,37,anonymized,Serial_Dependence_U,2023.2.3,Win32,60.24096386,,,,,,,,,,,,1973.1354,5.0,1973.136,,,,1976.0668,1976.5648,1975.5578,1976.0663,1974.1506,71.0,1975.5578,1976.565,1977.0656,1977.0658,1983.081,9999.0,1983.0821,0.0,1984.0797,5.0,23.0,173.0,18.0,1.0,1.4,0.7,Time
,,S19,1,female,37,anonymized,Serial_Dependence_U,2023.2.3,Win32,60.24096386,,,,,,,,,,,,1984.0811,5.0,1984.0815,,,,1987.2147,1987.7123,1986.6977,1987.2143,1985.0827,317.0,1986.6972,1987.7124,1988.2121,1988.2124,1994.2222,9999.0,1994.2226,0.0,1995.2194,5.0,24.0,174.0,19.0,1.0,1.6,0.7,Time
,,S19,1,female,37,anonymized,Serial_Dependence_U,2023.2.3,Win32,60.24096386,,,,,,,,,,,,1995.2203,5.0,1995.2207,,,,1998.3604,1998.8592,1997.8447,1998.3601,1996.2383,106.0,1997.8444,1998.8592,1999.359,1999.3592,2005.3761,9999.0,2005.3768,0.0,2006.3745,5.0,25.0,175.0,4.0,1.0,1.6,0.3,Time
,,S19,1,female,37,anonymized,Serial_Dependence_U,2023.2.3,Win32,60.24096386,,,,,,,,,,,,2006.3764,5.0,2006.3768,,,,2008.9141,2009.4075,2008.3923,2008.9139,2007.3811,207.0,2008.392,2009.4076,2009.9068,2009.9069,2015.916,9999.0,2015.9164,0.0,2016.9052,5.0,26.0,176.0,16.0,1.0,1.0,0.7,Time
,,S19,1,female,37,anonymized,Serial_Dependence_U,2023.2.3,Win32,60.24096386,,,,,,,,,,,,2016.9072,5.0,2016.908,,,,2019.2485,2019.7377,2018.7321,2019.2483,2017.9155,110.0,2018.7317,2019.7379,2020.2381,2020.2383,2026.2535,9999.0,2026.2543,0.0,2027.2529,5.0,27.0,177.0,5.0,1.0,0.8,0.7,Time
,,S19,1,female,37,anonymized,Serial_Dependence_U,2023.2.3,Win32,60.24096386,,,,,,,,,,,,2027.2548,5.0,2027.2553,,,,2029.9905,2030.485,2029.4796,2029.9901,2028.2628,133.0,2029.4794,2030.4851,2030.9773,2030.9774,2036.9936,9999.0,2036.9938,0.0,2037.9912,5.0,28.0,178.0,12.0,1.0,1.2,0.3,Time
,,S19,1,female,37,anonymized,Serial_Dependence_U,2023.2.3,Win32,60.24096386,,,,,,,,,,,,2037.9922,5.0,2037.9926,,,,2040.7347,2041.2324,2040.2182,2040.7343,2039.0047,125.0,2040.2177,2041.2325,2041.7318,2041.732,2047.7427,9999.0,2047.7431,0.0,2048.7472,5.0,29.0,179.0,22.0,1.0,1.2,0.3,Time
,,S19,1,female,37,anonymized,Serial_Dependence_U,2023.2.3,Win32,60.24096386,,,,,,,,,,,,2048.749,6.0,2051.6963,s,2.9083,,2054.2519,2054.7456,2053.7308,2054.2517,2052.7147,260.0,2053.7304,2054.7457,2055.246,2055.2461,2061.256,9999.0,2061.2564,0.0,2062.2537,6.0,0.0,180.0,11.0,1.0,1.0,0.3,Time
,,S19,1,female,37,anonymized,Serial_Dependence_U,2023.2.3,Win32,60.24096386,,,,,,,,,,,,2062.2546,6.0,2062.2609,,,,2064.9999,2065.493,2064.4844,2064.9995,2063.2712,55.0,2064.4842,2065.4931,2065.9933,2065.9935,2072.0025,9999.0,2072.0028,0.0,2072.9913,6.0,1.0,181.0,27.0,1.0,1.2,0.7,Time
,,S19,1,female,37,anonymized,Serial_Dependence_U,2023.2.3,Win32,60.24096386,,,,,,,,,,,,2072.9935,6.0,2072.9941,,,,2075.3182,2075.8072,2074.8095,2075.318,2073.9941,276.0,2074.8092,2075.8073,2076.3075,2076.3078,2082.3154,9999.0,2082.3156,0.0,2083.312,6.0,2.0,182.0,10.0,1.0,0.8,0.3,Time
,,S19,1,female,37,anonymized,Serial_Dependence_U,2023.2.3,Win32,60.24096386,,,,,,,,,,,,2083.3126,6.0,2083.3128,,,,2085.64,2086.1383,2085.1316,2085.6396,2084.3147,82.0,2085.1314,2086.1385,2086.6456,2086.6457,2092.6539,9999.0,2092.6548,0.0,2093.6527,6.0,3.0,183.0,20.0,1.0,0.8,0.3,Time
,,S19,1,female,37,anonymized,Serial_Dependence_U,2023.2.3,Win32,60.24096386,,,,,,,,,,,,2093.6547,6.0,2093.6554,,,,2096.7792,2097.2762,2096.2701,2096.779,2094.6543,200.0,2096.2695,2097.2763,2097.7765,2097.7767,2103.7948,9999.0,2103.7952,0.0,2104.8003,6.0,4.0,184.0,24.0,1.0,1.6,0.3,Time
,,S19,1,female,37,anonymized,Serial_Dependence_U,2023.2.3,Win32,60.24096386,,,,,,,,,,,,2104.8024,6.0,2104.803,,,,2107.3342,2107.8321,2106.8179,2107.334,2105.8077,26.0,2106.8175,2107.8323,2108.3322,2108.3324,2114.349,9999.0,2114.3495,0.0,2115.352,6.0,5.0,185.0,1.0,1.0,1.0,0.3,Time
,,S19,1,female,37,anonymized,Serial_Dependence_U,2023.2.3,Win32,60.24096386,,,,,,,,,,,,2115.3531,6.0,2115.3536,,,,2117.8902,2118.3892,2117.3744,2117.8901,2116.3575,76.0,2117.3742,2118.3894,2118.8822,2118.8823,2124.8867,9999.0,2124.8872,0.0,2125.8793,6.0,6.0,186.0,26.0,1.0,1.0,0.7,Time
,,S19,1,female,37,anonymized,Serial_Dependence_U,2023.2.3,Win32,60.24096386,,,,,,,,,,,,2125.8818,6.0,2125.8823,,,,2128.2173,2128.7109,2127.713,2128.2169,2126.905,104.0,2127.7127,2128.7112,2129.2094,2129.2097,2135.2268,9999.0,2135.2278,0.0,2136.2176,6.0,7.0,187.0,5.0,1.0,0.8,0.7,Time
,,S19,1,female,37,anonymized,Serial_Dependence_U,2023.2.3,Win32,60.24096386,,,,,,,,,,,,2136.2191,6.0,2136.2197,,,,2139.3697,2139.8593,2138.8519,2139.3695,2137.2361,198.0,2138.8517,2139.8594,2140.3586,2140.3588,2146.374,9999.0,2146.3748,0.0,2147.3728,6.0,8.0,188.0,4.0,1.0,1.6,0.3,Time
,,S19,1,female,37,anonymized,Serial_Dependence_U,2023.2.3,Win32,60.24096386,,,,,,,,,,,,2147.3756,6.0,2147.3762,,,,2150.3074,2150.806,2149.7908,2150.307,2148.3834,15.0,2149.7905,2150.8061,2151.3048,2151.305,2157.3221,9999.0,2157.3228,0.0,2158.3203,6.0,9.0,189.0,23.0,1.0,1.4,0.3,Time
,,S19,1,female,37,anonymized,Serial_Dependence_U,2023.2.3,Win32,60.24096386,,,,,,,,,,,,2158.3222,6.0,2158.3228,,,,2161.0636,2161.5608,2160.5547,2161.0634,2159.3392,242.0,2160.5542,2161.5609,2162.0603,2162.0604,2168.0692,9999.0,2168.0696,0.0,2169.0596,6.0,10.0,190.0,7.0,1.0,1.2,0.7,Time
,,S19,1,female,37,anonymized,Serial_Dependence_U,2023.2.3,Win32,60.24096386,,,,,,,,,,,,2169.0607,6.0,2169.0611,,,,2171.9775,2172.4746,2171.4683,2171.9772,2170.0541,327.0,2171.4679,2172.4747,2172.9744,2172.9745,2178.9918,9999.0,2178.9922,0.0,2179.9814,6.0,11.0,191.0,13.0,1.0,1.4,0.3,Time
,,S19,1,female,37,anonymized,Serial_Dependence_U,2023.2.3,Win32,60.24096386,,,,,,,,,,,,2179.9833,6.0,2179.9838,,,,2182.9326,2183.4307,2182.4161,2182.9323,2180.9996,208.0,2182.4159,2183.4308,2183.9305,2183.9308,2189.9469,9999.0,2189.9478,0.0,2190.9455,6.0,12.0,192.0,3.0,1.0,1.4,0.3,Time
,,S19,1,female,37,anonymized,Serial_Dependence_U,2023.2.3,Win32,60.24096386,,,,,,,,,,,,2190.9478,6.0,2190.9484,,,,2193.4967,2193.9943,2192.9798,2193.4962,2191.964,107.0,2192.9794,2193.9945,2194.4948,2194.495,2200.5037,9999.0,2200.5042,0.0,2201.4932,6.0,13.0,193.0,21.0,1.0,1.0,0.3,Time
,,S19,1,female,37,anonymized,Serial_Dependence_U,2023.2.3,Win32,60.24096386,,,,,,,,,,,,2201.4959,6.0,2201.4964,,,,2204.4361,2204.9256,2203.9269,2204.4358,2202.511,192.0,2203.9263,2204.9256,2205.4254,2205.4256,2211.4352,9999.0,2211.4355,0.0,2212.4265,6.0,14.0,194.0,18.0,1.0,1.4,0.7,Time
,,S19,1,female,37,anonymized,Serial_Dependence_U,2023.2.3,Win32,60.24096386,,,,,,,,,,,,2212.4282,6.0,2212.4292,,,,2214.9566,2215.456,2214.4418,2214.9564,2213.4333,18.0,2214.4414,2215.4561,2215.9558,2215.9558,2221.9714,9999.0,2221.9717,0.0,2222.9705,6.0,15.0,195.0,6.0,1.0,1.0,0.7,Time
,,S19,1,female,37,anonymized,Serial_Dependence_U,2023.2.3,Win32,60.24096386,,,,,,,,,,,,2222.9715,6.0,2222.9718,,,,2225.7316,2226.2204,2225.2053,2225.7314,2223.9891,181.0,2225.2049,2226.2205,2226.72,2226.7202,2232.7287,9999.0,2232.7293,0.0,2233.719,6.0,16.0,196.0,17.0,1.0,1.2,0.7,Time
,,S19,1,female,37,anonymized,Serial_Dependence_U,2023.2.3,Win32,60.24096386,,,,,,,,,,,,2233.721,6.0,2233.7219,,,,2236.6519,2237.1502,2236.136,2236.6516,2234.7225,350.0,2236.1354,2237.1503,2237.6506,2237.6507,2243.667,9999.0,2243.6677,0.0,2244.6657,6.0,17.0,197.0,8.0,1.0,1.4,0.7,Time
,,S19,1,female,37,anonymized,Serial_Dependence_U,2023.2.3,Win32,60.24096386,,,,,,,,,,,,2244.6678,6.0,2244.6684,,,,2247.0093,2247.4978,2246.4909,2247.0089,2245.6826,65.0,2246.4908,2247.4979,2247.9981,2247.9983,2254.0068,9999.0,2254.0073,0.0,2255.0036,6.0,18.0,198.0,0.0,1.0,0.8,0.3,Time
,,S19,1,female,37,anonymized,Serial_Dependence_U,2023.2.3,Win32,60.24096386,,,,,,,,,,,,2255.0049,6.0,2255.0058,,,,2257.5298,2258.0289,2257.0143,2257.5296,2256.0073,337.0,2257.0141,2258.029,2258.5282,2258.5284,2264.5449,9999.0,2264.5459,0.0,2265.5436,6.0,19.0,199.0,16.0,1.0,1.0,0.7,Time
,,S19,1,female,37,anonymized,Serial_Dependence_U,2023.2.3,Win32,60.24096386,,,,,,,,,,,,2265.5449,6.0,2265.5455,,,,2268.2703,2268.7596,2267.7653,2268.2701,2266.5615,351.0,2267.7649,2268.7597,2269.2526,2269.2528,2275.259,9999.0,2275.2599,0.0,2276.2577,6.0,20.0,200.0,2.0,1.0,1.2,0.3,Time
,,S19,1,female,37,anonymized,Serial_Dependence_U,2023.2.3,Win32,60.24096386,,,,,,,,,,,,2276.2598,6.0,2276.2602,,,,2278.9923,2279.4906,2278.4756,2278.9917,2277.2683,222.0,2278.4753,2279.4907,2279.9898,2279.99,2286.0064,9999.0,2286.0073,0.0,2287.0051,6.0,21.0,201.0,12.0,1.0,1.2,0.3,Time
,,S19,1,female,37,anonymized,Serial_Dependence_U,2023.2.3,Win32,60.24096386,,,,,,,,,,,,2287.0069,6.0,2287.0074,,,,2290.132,2290.6203,2289.623,2290.1317,2288.0159,185.0,2289.6225,2290.6204,2291.1205,2291.1207,2297.1356,9999.0,2297.1365,0.0,2298.1344,6.0,22.0,202.0,29.0,1.0,1.6,0.7,Time
,,S19,1,female,37,anonymized,Serial_Dependence_U,2023.2.3,Win32,60.24096386,,,,,,,,,,,,2298.1359,6.0,2298.1365,,,,2300.8688,2301.3668,2300.3539,2300.8683,2299.1479,279.0,2300.3534,2301.3668,2301.8763,2301.8764,2307.879,9999.0,2307.8796,0.0,2308.8834,6.0,23.0,203.0,22.0,1.0,1.2,0.3,Time
,,S19,1,female,37,anonymized,Serial_Dependence_U,2023.2.3,Win32,60.24096386,,,,,,,,,,,,2308.8854,6.0,2308.886,,,,2311.2337,2311.7324,2310.7179,2311.2332,2309.9012,346.0,2310.7173,2311.7325,2312.2323,2312.2325,2318.2486,9999.0,2318.2491,0.0,2319.2469,6.0,24.0,204.0,15.0,1.0,0.8,0.7,Time
,,S19,1,female,37,anonymized,Serial_Dependence_U,2023.2.3,Win32,60.24096386,,,,,,,,,,,,2319.2482,6.0,2319.2486,,,,2322.3983,2322.8962,2321.8813,2322.398,2320.2654,173.0,2321.8804,2322.8964,2323.3959,2323.3961,2329.412,9999.0,2329.4125,0.0,2330.4109,6.0,25.0,205.0,9.0,1.0,1.6,0.7,Time
,,S19,1,female,37,anonymized,Serial_Dependence_U,2023.2.3,Win32,60.24096386,,,,,,,,,,,,2330.412,6.0,2330.4125,,,,2333.362,2333.8601,2332.8453,2333.3618,2331.4296,260.0,2332.845,2333.8602,2334.3601,2334.3603,2340.3648,9999.0,2340.3653,0.0,2341.3596,6.0,26.0,206.0,28.0,1.0,1.4,0.7,Time
,,S19,1,female,37,anonymized,Serial_Dependence_U,2023.2.3,Win32,60.24096386,,,,,,,,,,,,2341.3621,6.0,2341.3633,,,,2344.5097,2345.0075,2343.9928,2344.5094,2342.3757,331.0,2343.9921,2345.0076,2345.5073,2345.5075,2351.5236,9999.0,2351.5243,0.0,2352.5224,6.0,27.0,207.0,14.0,1.0,1.6,0.3,Time
,,S19,1,female,37,anonymized,Serial_Dependence_U,2023.2.3,Win32,60.24096386,,,,,,,,,,,,2352.5242,6.0,2352.5246,,,,2354.8654,2355.3542,2354.3568,2354.8652,2353.5403,259.0,2354.3564,2355.3544,2355.8554,2355.8557,2361.8763,9999.0,2361.8776,0.0,2362.8699,6.0,28.0,208.0,25.0,1.0,0.8,0.7,Time
,,S19,1,female,37,anonymized,Serial_Dependence_U,2023.2.3,Win32,60.24096386,,,,,,,,,,,,2362.872,6.0,2362.8726,,,,2366.0202,2366.5179,2365.5027,2366.0195,2363.8879,70.0,2365.5022,2366.5183,2367.0172,2367.0172,2373.0258,9999.0,2373.0263,0.0,2374.0169,6.0,29.0,209.0,19.0,1.0,1.6,0.7,Time
,,S19,1,female,37,anonymized,Serial_Dependence_U,2023.2.3,Win32,60.24096386,,,,,,,,,,,,2374.0189,7.0,2378.5654,s,4.5118,,2381.5171,2382.0152,2381.0003,2381.5165,2379.5838,312.0,2381.0001,2382.0154,2382.5151,2382.5153,2388.5298,9999.0,2388.5302,0.0,2389.5295,7.0,0.0,210.0,28.0,1.0,1.4,0.7,Time
,,S19,1,female,37,anonymized,Serial_Dependence_U,2023.2.3,Win32,60.24096386,,,,,,,,,,,,2389.5308,7.0,2389.5362,,,,2392.4804,2392.9793,2391.9641,2392.4799,2390.5475,25.0,2391.9634,2392.9794,2393.4785,2393.4787,2399.4953,9999.0,2399.4959,0.0,2400.4939,7.0,1.0,211.0,23.0,1.0,1.4,0.3,Time
,,S19,1,female,37,anonymized,Serial_Dependence_U,2023.2.3,Win32,60.24096386,,,,,,,,,,,,2400.496,7.0,2400.4968,,,,2403.6367,2404.1259,2403.1203,2403.6363,2401.5095,10.0,2403.12,2404.126,2404.6258,2404.626,2410.6423,9999.0,2410.6432,0.0,2411.6407,7.0,2.0,212.0,24.0,1.0,1.6,0.3,Time
,,S19,1,female,37,anonymized,Serial_Dependence_U,2023.2.3,Win32,60.24096386,,,,,,,,,,,,2411.6426,7.0,2411.6433,,,,2414.3917,2414.8902,2413.8755,2414.3911,2412.6592,41.0,2413.8751,2414.8904,2415.3902,2415.3903,2421.4068,9999.0,2421.4074,0.0,2422.3963,7.0,3.0,213.0,22.0,1.0,1.2,0.3,Time
,,S19,1,female,37,anonymized,Serial_Dependence_U,2023.2.3,Win32,60.24096386,,,,,,,,,,,,2422.3973,7.0,2422.3977,,,,2424.7314,2425.229,2424.2224,2424.7313,2423.4052,139.0,2424.2218,2425.2291,2425.7208,2425.721,2431.7296,9999.0,2431.73,0.0,2432.7242,7.0,4.0,214.0,0.0,1.0,0.8,0.3,Time
,,S19,1,female,37,anonymized,Serial_Dependence_U,2023.2.3,Win32,60.24096386,,,,,,,,,,,,2432.7255,7.0,2432.7262,,,,2435.4537,2435.9513,2434.9417,2435.4536,2433.7267,245.0,2434.9414,2435.9514,2436.4514,2436.4516,2442.468,9999.0,2442.4685,0.0,2443.4663,7.0,5.0,215.0,12.0,1.0,1.2,0.3,Time
,,S19,1,female,37,anonymized,Serial_Dependence_U,2023.2.3,Win32,60.24096386,,,,,,,,,,,,2443.4687,7.0,2443.4692,,,,2446.3939,2446.8822,2445.8842,2446.3937,2444.4771,323.0,2445.8838,2446.8824,2447.3822,2447.3824,2453.3903,9999.0,2453.3908,0.0,2454.3805,7.0,6.0,216.0,18.0,1.0,1.4,0.7,Time
,,S19,1,female,37,anonymized,Serial_Dependence_U,2023.2.3,Win32,60.24096386,,,,,,,,,,,,2454.3822,7.0,2454.3827,,,,2457.5246,2458.0134,2457.0075,2457.5241,2455.3979,195.0,2457.0073,2458.0136,2458.5127,2458.5128,2464.5291,9999.0,2464.53,0.0,2465.528,7.0,7.0,217.0,19.0,1.0,1.6,0.7,Time
,,S19,1,female,37,anonymized,Serial_Dependence_U,2023.2.3,Win32,60.24096386,,,,,,,,,,,,2465.5301,7.0,2465.5308,,,,2468.0623,2468.5588,2467.5454,2468.0616,2466.5378,267.0,2467.5452,2468.5588,2469.0601,2469.0602,2475.0693,9999.0,2475.0698,0.0,2476.0594,7.0,8.0,218.0,21.0,1.0,1.0,0.3,Time
,,S19,1,female,37,anonymized,Serial_Dependence_U,2023.2.3,Win32,60.24096386,,,,,,,,,,,,2476.0612,7.0,2476.0617,,,,2479.1844,2479.6742,2478.6749,2479.1843,2477.0661,145.0,2478.6747,2479.6743,2480.1659,2480.166,2486.1732,9999.0,2486.1741,0.0,2487.1722,7.0,9.0,219.0,9.0,1.0,1.6,0.7,Time
,,S19,1,female,37,anonymized,Serial_Dependence_U,2023.2.3,Win32,60.24096386,,,,,,,,,,,,2487.174,7.0,2487.1745,,,,2490.1061,2490.6042,2489.5985,2490.1058,2488.183,150.0,2489.5983,2490.6043,2491.1041,2491.1043,2497.1218,9999.0,2497.1226,0.0,2498.1191,7.0,10.0,220.0,8.0,1.0,1.4,0.7,Time
,,S19,1,female,37,anonymized,Serial_Dependence_U,2023.2.3,Win32,60.24096386,,,,,,,,,,,,2498.1208,7.0,2498.1217,,,,2500.4709,2500.969,2499.9541,2500.4702,2499.1381,271.0,2499.9535,2500.9692,2501.4688,2501.469,2507.4777,9999.0,2507.4781,0.0,2508.4674,7.0,11.0,221.0,15.0,1.0,0.8,0.7,Time
,,S19,1,female,37,anonymized,Serial_Dependence_U,2023.2.3,Win32,60.24096386,,,,,,,,,,,,2508.469,7.0,2508.4695,,,,2510.7928,2511.2835,2510.2835,2510.7926,2509.4771,141.0,2510.2832,2511.2836,2511.7826,2511.7828,2517.7905,9999.0,2517.7909,0.0,2518.7909,7.0,12.0,222.0,20.0,1.0,0.8,0.3,Time
,,S19,1,female,37,anonymized,Serial_Dependence_U,2023.2.3,Win32,60.24096386,,,,,,,,,,,,2518.7922,7.0,2518.7927,,,,2521.3149,2521.8152,2520.8061,2521.3145,2519.7996,96.0,2520.8058,2521.8154,2522.3137,2522.3141,2528.3298,9999.0,2528.3302,0.0,2529.3284,7.0,13.0,223.0,1.0,1.0,1.0,0.3,Time
,,S19,1,female,37,anonymized,Serial_Dependence_U,2023.2.3,Win32,60.24096386,,,,,,,,,,,,2529.3294,7.0,2529.3298,,,,2532.063,2532.5626,2531.5463,2532.0625,2530.339,300.0,2531.5459,2532.5628,2533.0616,2533.062,2539.0758,9999.0,2539.076,0.0,2540.0756,7.0,14.0,224.0,27.0,1.0,1.2,0.7,Time
,,S19,1,female,37,anonymized,Serial_Dependence_U,2023.2.3,Win32,60.24096386,,,,,,,,,,,,2540.0769,7.0,2540.0774,,,,2542.6273,2543.1251,2542.1094,2542.6267,2541.0933,5.0,2542.1091,2543.1253,2543.6251,2543.6253,2549.6416,9999.0,2549.6424,0.0,2550.6395,7.0,15.0,225.0,16.0,1.0,1.0,0.7,Time
,,S19,1,female,37,anonymized,Serial_Dependence_U,2023.2.3,Win32,60.24096386,,,,,,,,,,,,2550.6415,7.0,2550.6421,,,,2553.5905,2554.0886,2553.0743,2553.59,2551.6583,170.0,2553.0739,2554.0888,2554.5891,2554.5896,2560.6055,9999.0,2560.6061,0.0,2561.6042,7.0,16.0,226.0,3.0,1.0,1.4,0.3,Time
,,S19,1,female,37,anonymized,Serial_Dependence_U,2023.2.3,Win32,60.24096386,,,,,,,,,,,,2561.606,7.0,2561.6068,,,,2564.1474,2564.6457,2563.6388,2564.1472,2562.6217,100.0,2563.6385,2564.6458,2565.1449,2565.145,2571.1613,9999.0,2571.1618,0.0,2572.151,7.0,17.0,227.0,11.0,1.0,1.0,0.3,Time
,,S19,1,female,37,anonymized,Serial_Dependence_U,2023.2.3,Win32,60.24096386,,,,,,,,,,,,2572.1526,7.0,2572.1531,,,,2574.6787,2575.1755,2574.1771,2574.6785,2573.1614,85.0,2574.1768,2575.1756,2575.6757,2575.6758,2581.6825,9999.0,2581.6829,0.0,2582.6816,7.0,18.0,228.0,26.0,1.0,1.0,0.7,Time
,,S19,1,female,37,anonymized,Serial_Dependence_U,2023.2.3,Win32,60.24096386,,,,,,,,,,,,2582.6833,7.0,2582.6843,,,,2585.4256,2585.9147,2584.9167,2585.4254,2583.6987,293.0,2584.9161,2585.9148,2586.4149,2586.4151,2592.4307,9999.0,2592.4313,0.0,2593.4293,7.0,19.0,229.0,17.0,1.0,1.2,0.7,Time
,,S19,1,female,37,anonymized,Serial_Dependence_U,2023.2.3,Win32,60.24096386,,,,,,,,,,,,2593.4313,7.0,2593.4319,,,,2595.7635,2596.2618,2595.2472,2595.763,2594.4358,18.0,2595.2469,2596.2619,2596.7618,2596.762,2602.7735,9999.0,2602.7738,0.0,2603.7765,7.0,20.0,230.0,10.0,1.0,0.8,0.3,Time
,,S19,1,female,37,anonymized,Serial_Dependence_U,2023.2.3,Win32,60.24096386,,,,,,,,,,,,2603.7776,7.0,2603.7779,,,,2606.0939,2606.5925,2605.5868,2606.0938,2604.7798,106.0,2605.5866,2606.5926,2607.0921,2607.0924,2613.1093,9999.0,2613.11,0.0,2614.1077,7.0,21.0,231.0,5.0,1.0,0.8,0.7,Time
,,S19,1,female,37,anonymized,Serial_Dependence_U,2023.2.3,Win32,60.24096386,,,,,,,,,,,,2614.1098,7.0,2614.1105,,,,2617.2413,2617.7398,2616.725,2617.2411,2615.118,257.0,2616.7247,2617.7399,2618.2332,2618.2334,2624.2394,9999.0,2624.2402,0.0,2625.2381,7.0,22.0,232.0,14.0,1.0,1.6,0.3,Time
,,S19,1,female,37,anonymized,Serial_Dependence_U,2023.2.3,Win32,60.24096386,,,,,,,,,,,,2625.2405,7.0,2625.2412,,,,2628.3892,2628.8868,2627.8722,2628.3889,2626.2572,156.0,2627.8717,2628.8869,2629.3871,2629.3873,2635.3963,9999.0,2635.3967,0.0,2636.3934,7.0,23.0,233.0,4.0,1.0,1.6,0.3,Time
,,S19,1,female,37,anonymized,Serial_Dependence_U,2023.2.3,Win32,60.24096386,,,,,,,,,,,,2636.3944,7.0,2636.3948,,,,2638.7368,2639.2345,2638.2189,2638.7366,2637.4031,54.0,2638.2188,2639.2345,2639.7346,2639.7348,2645.75,9999.0,2645.7504,0.0,2646.7489,7.0,24.0,234.0,25.0,1.0,0.8,0.7,Time
,,S19,1,female,37,anonymized,Serial_Dependence_U,2023.2.3,Win32,60.24096386,,,,,,,,,,,,2646.7501,7.0,2646.7504,,,,2649.6999,2650.1983,2649.1833,2649.6995,2647.7675,67.0,2649.1828,2650.1984,2650.6985,2650.6987,2656.7087,9999.0,2656.7091,0.0,2657.6974,7.0,25.0,235.0,13.0,1.0,1.4,0.3,Time
,,S19,1,female,37,anonymized,Serial_Dependence_U,2023.2.3,Win32,60.24096386,,,,,,,,,,,,2657.6993,7.0,2657.6996,,,,2660.8358,2661.3293,2660.3238,2660.8355,2658.716,323.0,2660.3236,2661.3295,2661.8291,2661.8295,2667.8351,9999.0,2667.8357,0.0,2668.8274,7.0,26.0,236.0,29.0,1.0,1.6,0.7,Time
,,S19,1,female,37,anonymized,Serial_Dependence_U,2023.2.3,Win32,60.24096386,,,,,,,,,,,,2668.8294,7.0,2668.8299,,,,2671.5706,2672.0596,2671.0541,2671.5705,2669.839,345.0,2671.0539,2672.0598,2672.5596,2672.5597,2678.5683,9999.0,2678.5687,0.0,2679.5583,7.0,27.0,237.0,2.0,1.0,1.2,0.3,Time
,,S19,1,female,37,anonymized,Serial_Dependence_U,2023.2.3,Win32,60.24096386,,,,,,,,,,,,2679.5608,7.0,2679.5613,,,,2682.2847,2682.7744,2681.7676,2682.2844,2680.5538,209.0,2681.7674,2682.7745,2683.274,2683.2741,2689.2824,9999.0,2689.2829,0.0,2690.2716,7.0,28.0,238.0,7.0,1.0,1.2,0.7,Time
,,S19,1,female,37,anonymized,Serial_Dependence_U,2023.2.3,Win32,60.24096386,,,,,,,,,,,,2690.2736,7.0,2690.2742,,,,2692.8226,2693.3196,2692.3063,2692.822,2691.29,161.0,2692.3058,2693.3198,2693.8213,2693.8214,2699.8296,9999.0,2699.8302,0.0,2700.8199,7.0,29.0,239.0,6.0,1.0,1.0,0.7,Time
,,S19,1,female,37,anonymized,Serial_Dependence_U,2023.2.3,Win32,60.24096386,,,,,,,,,,,,2700.8221,8.0,2704.3685,s,3.5054,,2707.103,2707.601,2706.5952,2707.1029,2705.3872,130.0,2706.595,2707.6012,2708.1009,2708.1009,2714.11,9999.0,2714.1105,0.0,2715.0995,8.0,0.0,240.0,22.0,1.0,1.2,0.3,Time
,,S19,1,female,37,anonymized,Serial_Dependence_U,2023.2.3,Win32,60.24096386,,,,,,,,,,,,2715.1018,8.0,2715.1068,,,,2718.2332,2718.7313,2717.717,2718.233,2716.1091,175.0,2717.7166,2718.7315,2719.2312,2719.2313,2725.2467,9999.0,2725.2472,0.0,2726.2461,8.0,1.0,241.0,29.0,1.0,1.6,0.7,Time
,,S19,1,female,37,anonymized,Serial_Dependence_U,2023.2.3,Win32,60.24096386,,,,,,,,,,,,2726.2471,8.0,2726.2476,,,,2729.0062,2729.4977,2728.4796,2729.006,2727.2638,138.0,2728.4792,2729.4978,2729.9955,2729.9957,2736.0124,9999.0,2736.0128,0.0,2737.0107,8.0,2.0,242.0,12.0,1.0,1.2,0.3,Time
,,S19,1,female,37,anonymized,Serial_Dependence_U,2023.2.3,Win32,60.24096386,,,,,,,,,,,,2737.0129,8.0,2737.0135,,,,2739.945,2740.4425,2739.4307,2739.9445,2738.0287,114.0,2739.4305,2740.4426,2740.9427,2740.943,2746.9517,9999.0,2746.952,0.0,2747.9413,8.0,3.0,243.0,8.0,1.0,1.4,0.7,Time
,,S19,1,female,37,anonymized,Serial_Dependence_U,2023.2.3,Win32,60.24096386,,,,,,,,,,,,2747.9432,8.0,2747.9438,,,,2750.4915,2750.99,2749.9755,2750.4912,2748.9594,29.0,2749.9749,2750.9901,2751.49,2751.4901,2757.5053,9999.0,2757.5057,0.0,2758.5052,8.0,4.0,244.0,21.0,1.0,1.0,0.3,Time
,,S19,1,female,37,anonymized,Serial_Dependence_U,2023.2.3,Win32,60.24096386,,,,,,,,,,,,2758.51,8.0,2758.5109,,,,2761.0562,2761.5545,2760.5399,2761.056,2759.5224,94.0,2760.5393,2761.5546,2762.0542,2762.0543,2768.0714,9999.0,2768.0719,0.0,2769.069,8.0,5.0,245.0,6.0,1.0,1.0,0.7,Time
,,S19,1,female,37,anonymized,Serial_Dependence_U,2023.2.3,Win32,60.24096386,,,,,,,,,,,,2769.0712,8.0,2769.0717,,,,2771.6038,2772.1018,2771.0873,2771.6035,2770.0792,240.0,2771.087,2772.102,2772.5894,2772.5895,2778.6036,9999.0,2778.6045,0.0,2779.6003,8.0,6.0,246.0,1.0,1.0,1.0,0.3,Time
,,S19,1,female,37,anonymized,Serial_Dependence_U,2023.2.3,Win32,60.24096386,,,,,,,,,,,,2779.6026,8.0,2779.6032,,,,2782.3509,2782.8489,2781.8344,2782.3502,2780.6182,299.0,2781.8341,2782.849,2783.3419,2783.342,2789.3495,9999.0,2789.3502,0.0,2790.3469,8.0,7.0,247.0,2.0,1.0,1.2,0.3,Time
,,S19,1,female,37,anonymized,Serial_Dependence_U,2023.2.3,Win32,60.24096386,,,,,,,,,,,,2790.3493,8.0,2790.35,,,,2793.4983,2793.9961,2792.9818,2793.4978,2791.3656,113.0,2792.9813,2793.9962,2794.4966,2794.4969,2800.5033,9999.0,2800.5037,0.0,2801.495,8.0,8.0,248.0,9.0,1.0,1.6,0.7,Time
,,S19,1,female,37,anonymized,Serial_Dependence_U,2023.2.3,Win32,60.24096386,,,,,,,,,,,,2801.497,8.0,2801.4978,,,,2803.8369,2804.3275,2803.3211,2803.8368,2802.505,276.0,2803.3209,2804.3276,2804.8282,2804.8286,2810.8313,9999.0,2810.8316,0.0,2811.8253,8.0,9.0,249.0,15.0,1.0,0.8,0.7,Time
,,S19,1,female,37,anonymized,Serial_Dependence_U,2023.2.3,Win32,60.24096386,,,,,,,,,,,,2811.8272,8.0,2811.8278,,,,2814.9801,2815.4751,2814.4701,2814.9796,2812.854,341.0,2814.4699,2815.4753,2815.9745,2815.9747,2821.9904,9999.0,2821.9914,0.0,2822.9893,8.0,10.0,250.0,14.0,1.0,1.6,0.3,Time
,,S19,1,female,37,anonymized,Serial_Dependence_U,2023.2.3,Win32,60.24096386,,,,,,,,,,,,2822.9913,8.0,2822.9916,,,,2826.1401,2826.6386,2825.6236,2826.1398,2824.0073,267.0,2825.6232,2826.6387,2827.1383,2827.1386,2833.1544,9999.0,2833.1551,0.0,2834.1627,8.0,11.0,251.0,19.0,1.0,1.6,0.7,Time
,,S19,1,female,37,anonymized,Serial_Dependence_U,2023.2.3,Win32,60.24096386,,,,,,,,,,,,2834.1639,8.0,2834.1645,,,,2836.4967,2836.9853,2835.987,2836.4965,2835.1713,112.0,2835.9862,2836.9855,2837.4859,2837.4861,2843.4942,9999.0,2843.4947,0.0,2844.4841,8.0,12.0,252.0,25.0,1.0,0.8,0.7,Time
,,S19,1,female,37,anonymized,Serial_Dependence_U,2023.2.3,Win32,60.24096386,,,,,,,,,,,,2844.4862,8.0,2844.4867,,,,2847.425,2847.9172,2846.9098,2847.4248,2845.4946,131.0,2846.9096,2847.9174,2848.416,2848.4162,2854.4244,9999.0,2854.4246,0.0,2855.4227,8.0,13.0,253.0,28.0,1.0,1.4,0.7,Time
,,S19,1,female,37,anonymized,Serial_Dependence_U,2023.2.3,Win32,60.24096386,,,,,,,,,,,,2855.4235,8.0,2855.424,,,,2857.7735,2858.2642,2857.2489,2857.7734,2856.4328,179.0,2857.2484,2858.2643,2858.7637,2858.7639,2864.7836,9999.0,2864.7848,0.0,2865.7787,8.0,14.0,254.0,5.0,1.0,0.8,0.7,Time
,,S19,1,female,37,anonymized,Serial_Dependence_U,2023.2.3,Win32,60.24096386,,,,,,,,,,,,2865.7808,8.0,2865.7815,,,,2868.3219,2868.8117,2867.813,2868.3217,2866.7967,49.0,2867.8125,2868.8117,2869.3114,2869.3115,2875.3205,9999.0,2875.3211,0.0,2876.3095,8.0,15.0,255.0,16.0,1.0,1.0,0.7,Time
,,S19,1,female,37,anonymized,Serial_Dependence_U,2023.2.3,Win32,60.24096386,,,,,,,,,,,,2876.3124,8.0,2876.3131,,,,2878.8437,2879.3416,2878.3353,2878.8434,2877.3203,342.0,2878.3351,2879.3417,2879.8415,2879.8417,2885.8492,9999.0,2885.8496,0.0,2886.84,8.0,16.0,256.0,26.0,1.0,1.0,0.7,Time
,,S19,1,female,37,anonymized,Serial_Dependence_U,2023.2.3,Win32,60.24096386,,,,,,,,,,,,2886.842,8.0,2886.8424,,,,2889.7745,2890.2721,2889.2666,2889.7741,2887.8583,295.0,2889.2664,2890.2723,2890.7724,2890.7725,2896.8069,9999.0,2896.8073,0.0,2897.8145,8.0,17.0,257.0,23.0,1.0,1.4,0.3,Time
,,S19,1,female,37,anonymized,Serial_Dependence_U,2023.2.3,Win32,60.24096386,,,,,,,,,,,,2897.8155,8.0,2897.8159,,,,2900.5224,2901.0194,2900.0142,2900.5222,2898.8103,201.0,2900.014,2901.0195,2901.5195,2901.5197,2907.5406,9999.0,2907.541,0.0,2908.5349,8.0,18.0,258.0,17.0,1.0,1.2,0.7,Time
,,S19,1,female,37,anonymized,Serial_Dependence_U,2023.2.3,Win32,60.24096386,,,,,,,,,,,,2908.5369,8.0,2908.5375,,,,2911.6693,2912.1788,2911.1523,2911.6687,2909.5461,95.0,2911.1517,2912.1789,2912.6675,2912.6677,2918.6744,9999.0,2918.6747,0.0,2919.666,8.0,19.0,259.0,4.0,1.0,1.6,0.3,Time
,,S19,1,female,37,anonymized,Serial_Dependence_U,2023.2.3,Win32,60.24096386,,,,,,,,,,,,2919.6681,8.0,2919.6687,,,,2922.6152,2923.1141,2922.1015,2922.6151,2920.6835,315.0,2922.101,2923.1141,2923.6143,2923.6145,2929.6241,9999.0,2929.6244,0.0,2930.6126,8.0,20.0,260.0,3.0,1.0,1.4,0.3,Time
,,S19,1,female,37,anonymized,Serial_Dependence_U,2023.2.3,Win32,60.24096386,,,,,,,,,,,,2930.6145,8.0,2930.6151,,,,2933.1409,2933.6314,2932.6305,2933.1407,2931.6236,304.0,2932.6302,2933.6314,2934.129,2934.1292,2940.1375,9999.0,2940.1379,0.0,2941.1271,8.0,21.0,261.0,11.0,1.0,1.0,0.3,Time
,,S19,1,female,37,anonymized,Serial_Dependence_U,2023.2.3,Win32,60.24096386,,,,,,,,,,,,2941.129,8.0,2941.1295,,,,2943.4633,2943.9587,2942.9434,2943.4632,2942.1366,195.0,2942.9432,2943.9588,2944.4585,2944.4586,2950.4744,9999.0,2950.475,0.0,2951.4735,8.0,22.0,262.0,0.0,1.0,0.8,0.3,Time
,,S19,1,female,37,anonymized,Serial_Dependence_U,2023.2.3,Win32,60.24096386,,,,,,,,,,,,2951.4747,8.0,2951.4752,,,,2954.6175,2955.1168,2954.1007,2954.6173,2952.484,134.0,2954.1004,2955.1169,2955.6066,2955.6068,2961.6158,9999.0,2961.6161,0.0,2962.6048,8.0,23.0,263.0,24.0,1.0,1.6,0.3,Time
,,S19,1,female,37,anonymized,Serial_Dependence_U,2023.2.3,Win32,60.24096386,,,,,,,,,,,,2962.606,8.0,2962.6066,,,,2964.9484,2965.437,2964.4393,2964.9481,2963.6222,30.0,2964.4388,2965.437,2965.937,2965.9373,2971.9456,9999.0,2971.9461,0.0,2972.9354,8.0,24.0,264.0,20.0,1.0,0.8,0.3,Time
,,S19,1,female,37,anonymized,Serial_Dependence_U,2023.2.3,Win32,60.24096386,,,,,,,,,,,,2972.9374,8.0,2972.9384,,,,2975.6766,2976.172,2975.1632,2975.6764,2973.946,120.0,2975.1631,2976.1721,2976.6715,2976.6716,2982.6837,9999.0,2982.6842,0.0,2983.6827,8.0,25.0,265.0,7.0,1.0,1.2,0.7,Time
,,S19,1,female,37,anonymized,Serial_Dependence_U,2023.2.3,Win32,60.24096386,,,,,,,,,,,,2983.6839,8.0,2983.6843,,,,2986.4348,2986.9317,2985.9171,2986.4345,2984.7005,65.0,2985.9165,2986.9318,2987.432,2987.4321,2993.4484,9999.0,2993.4493,0.0,2994.4462,8.0,26.0,266.0,27.0,1.0,1.2,0.7,Time
,,S19,1,female,37,anonymized,Serial_Dependence_U,2023.2.3,Win32,60.24096386,,,,,,,,,,,,2994.4488,8.0,2994.4493,,,,2997.374,2997.8716,2996.8644,2997.3739,2995.458,214.0,2996.8638,2997.8716,2998.3707,2998.3708,3004.3783,9999.0,3004.3787,0.0,3005.3771,8.0,27.0,267.0,13.0,1.0,1.4,0.3,Time
,,S19,1,female,37,anonymized,Serial_Dependence_U,2023.2.3,Win32,60.24096386,,,,,,,,,,,,3005.3782,8.0,3005.3787,,,,3007.7216,3008.2103,3007.2042,3007.7213,3006.3883,93.0,3007.204,3008.2105,3008.6982,3008.6984,3014.7098,9999.0,3014.7106,0.0,3015.7089,8.0,28.0,268.0,10.0,1.0,0.8,0.3,Time
,,S19,1,female,37,anonymized,Serial_Dependence_U,2023.2.3,Win32,60.24096386,,,,,,,,,,,,3015.7105,8.0,3015.7111,,,,3018.6515,3019.1422,3018.1355,3018.6514,3016.7261,30.0,3018.1354,3019.1422,3019.6409,3019.6412,3025.6563,9999.0,3025.6566,0.0,3026.6552,8.0,29.0,269.0,18.0,1.0,1.4,0.7,Time
