Scale_setup.started,Scale_setup.stopped,participant,session,sex,age,date,expName,psychopyVersion,OS,frameRate,screen_scale_keys.started,screen_scale_keys.stopped,X Scale,Y Scale,rectangel_keys.started,rectangel_keys.stopped,Intro.started,Intro.stopped,key_resp_2.keys,key_resp_2.rt,key_resp_2.duration,block.started,Block_id,block.stopped,Block_resp_2.keys,Block_resp_2.rt,Block_resp_2.duration,ITI.started,ITI.stopped,Mask_2.started,Mask_2.stopped,M2.started,direction,M2.stopped,Cue.started,Cue.stopped,Response.started,Response.stopped,keyDuration,Feedback_Time.started,FeedbackID_T,Feedback_Time.stopped,trials.thisRepN,trials.thisTrialN,trials.thisN,trials.thisIndex,trials.ran,TimeDur,Coherence1,TrialType
0.0003,0.0006,S20,1,male,33,anonymized,Serial_Dependence_U,2023.2.3,Win32,59.88023952,,,,,,,,,,,,,,,,,,,,,,,,,,,,,,,,,,,,,,,,
,,S20,1,male,33,anonymized,Serial_Dependence_U,2023.2.3,Win32,59.88023952,0.0029,122.8319,0.0588,0.0592,122.8325,143.1242,143.1252,231.3104,space,88.0888,,,,,,,,,,,,,,,,,,,,,,,,,,,,,,
,,S20,1,male,33,anonymized,Serial_Dependence_U,2023.2.3,Win32,59.88023952,,,,,,,,,,,,231.3436,0.0,235.9428,s,4.5632,,238.4826,238.9743,237.9774,238.4823,236.962,134.0,237.9771,238.9757,239.4742,239.4754,244.4162,4916.5,244.4186,5.0,245.4221,0.0,0.0,0.0,26.0,1.0,1.0,0.7,Time
,,S20,1,male,33,anonymized,Serial_Dependence_U,2023.2.3,Win32,59.88023952,,,,,,,,,,,,245.4237,0.0,245.4291,,,,247.9568,248.4538,247.4444,247.9565,246.4266,167.0,247.4441,248.4542,248.9546,248.9548,249.0443,40.10000002,249.0453,1.0,250.0367,0.0,1.0,1.0,16.0,1.0,1.0,0.7,Time
,,S20,1,male,33,anonymized,Serial_Dependence_U,2023.2.3,Win32,59.88023952,,,,,,,,,,,,250.0386,0.0,250.0398,,,,252.571,253.0694,252.0543,252.5706,251.0457,271.0,252.054,253.0695,253.5686,253.5688,256.7855,3187.3,256.7861,5.0,257.7839,0.0,2.0,2.0,11.0,1.0,1.0,0.3,Time
,,S20,1,male,33,anonymized,Serial_Dependence_U,2023.2.3,Win32,59.88023952,,,,,,,,,,,,257.7857,0.0,257.7861,,,,260.7243,261.2168,260.2067,260.7241,258.8018,39.0,260.2065,261.217,261.7051,261.7053,262.2165,466.5,262.2171,1.0,263.2158,0.0,3.0,3.0,18.0,1.0,1.4,0.7,Time
,,S20,1,male,33,anonymized,Serial_Dependence_U,2023.2.3,Win32,59.88023952,,,,,,,,,,,,263.2184,0.0,263.2191,,,,266.3559,266.8475,265.8404,266.3558,264.2332,251.0,265.8402,266.8477,267.3481,267.3481,267.4647,76.30000001,267.4653,1.0,268.4636,0.0,4.0,4.0,9.0,1.0,1.6,0.7,Time
,,S20,1,male,33,anonymized,Serial_Dependence_U,2023.2.3,Win32,59.88023952,,,,,,,,,,,,268.4649,0.0,268.4654,,,,271.205,271.6974,270.6887,271.2048,269.4709,295.0,270.6884,271.6978,272.1963,272.1967,277.0853,4840.6,277.0859,5.0,278.077,0.0,5.0,5.0,22.0,1.0,1.2,0.3,Time
,,S20,1,male,33,anonymized,Serial_Dependence_U,2023.2.3,Win32,59.88023952,,,,,,,,,,,,278.0785,0.0,278.0794,,,,281.2118,281.7099,280.6952,281.2115,279.0862,247.0,280.6947,281.7102,282.2101,282.2103,284.2766,1814.5,284.2775,4.0,285.2753,0.0,6.0,6.0,24.0,1.0,1.6,0.3,Time
,,S20,1,male,33,anonymized,Serial_Dependence_U,2023.2.3,Win32,59.88023952,,,,,,,,,,,,285.2778,0.0,285.2788,,,,288.0147,288.5073,287.4973,288.0144,286.2919,294.0,287.497,288.5075,289.0074,289.0079,292.2464,2793.9,292.247,5.0,293.239,0.0,7.0,7.0,27.0,1.0,1.2,0.7,Time
,,S20,1,male,33,anonymized,Serial_Dependence_U,2023.2.3,Win32,59.88023952,,,,,,,,,,,,293.2411,0.0,293.242,,,,295.7901,296.288,295.2724,295.7898,294.2565,357.0,295.2723,296.2881,296.7883,296.7888,296.8921,52.80000001,296.8931,1.0,297.887,0.0,8.0,8.0,1.0,1.0,1.0,0.3,Time
,,S20,1,male,33,anonymized,Serial_Dependence_U,2023.2.3,Win32,59.88023952,,,,,,,,,,,,297.8887,0.0,297.8896,,,,300.4108,300.9031,299.9052,300.4104,298.8898,310.0,299.9049,300.9033,301.4028,301.4031,303.2701,1432.9,303.2707,5.0,304.2683,0.0,9.0,9.0,21.0,1.0,1.0,0.3,Time
,,S20,1,male,33,anonymized,Serial_Dependence_U,2023.2.3,Win32,59.88023952,,,,,,,,,,,,304.2698,0.0,304.2706,,,,306.6229,307.1178,306.1027,306.6226,305.2861,250.0,306.1023,307.1181,307.6187,307.6192,310.7003,2634.5,310.701,5.0,311.6988,0.0,10.0,10.0,25.0,1.0,0.8,0.7,Time
,,S20,1,male,33,anonymized,Serial_Dependence_U,2023.2.3,Win32,59.88023952,,,,,,,,,,,,311.7002,0.0,311.7008,,,,314.2397,314.7314,313.7204,314.2394,312.7164,12.0,313.7201,314.7315,315.2315,315.2317,318.848,1800.4,318.8496,5.0,319.8466,0.0,11.0,11.0,6.0,1.0,1.0,0.7,Time
,,S20,1,male,33,anonymized,Serial_Dependence_U,2023.2.3,Win32,59.88023952,,,,,,,,,,,,319.848,0.0,319.849,,,,322.7966,323.2949,322.2813,322.7964,320.8641,317.0,322.281,323.295,323.7951,323.7953,325.9018,1300.4,325.9022,2.0,326.8948,0.0,12.0,12.0,3.0,1.0,1.4,0.3,Time
,,S20,1,male,33,anonymized,Serial_Dependence_U,2023.2.3,Win32,59.88023952,,,,,,,,,,,,326.8963,0.0,326.8969,,,,329.6117,330.11,329.1004,329.6113,327.8952,117.0,329.1001,330.1101,330.61,330.6103,332.1809,1166.2,332.1815,3.0,333.1755,0.0,13.0,13.0,2.0,1.0,1.2,0.3,Time
,,S20,1,male,33,anonymized,Serial_Dependence_U,2023.2.3,Win32,59.88023952,,,,,,,,,,,,333.1771,0.0,333.1778,,,,335.5418,336.0405,335.0178,335.5416,334.1935,147.0,335.0139,336.0406,336.5405,336.5407,337.8142,850.2,337.8147,4.0,338.8079,0.0,14.0,14.0,5.0,1.0,0.8,0.7,Time
,,S20,1,male,33,anonymized,Serial_Dependence_U,2023.2.3,Win32,59.88023952,,,,,,,,,,,,338.8097,0.0,338.8103,,,,341.9609,342.4553,341.4413,341.9606,339.8243,155.0,341.4411,342.4555,342.9608,342.9609,345.3913,1836.0,345.3919,4.0,346.3875,0.0,15.0,15.0,29.0,1.0,1.6,0.7,Time
,,S20,1,male,33,anonymized,Serial_Dependence_U,2023.2.3,Win32,59.88023952,,,,,,,,,,,,346.3897,0.0,346.3906,,,,349.538,350.0355,349.0223,349.5378,347.4057,280.0,349.0218,350.0356,350.5356,350.5357,352.2603,1534.4,352.261,3.0,353.252,0.0,16.0,16.0,19.0,1.0,1.6,0.7,Time
,,S20,1,male,33,anonymized,Serial_Dependence_U,2023.2.3,Win32,59.88023952,,,,,,,,,,,,353.2538,0.0,353.2545,,,,356.2016,356.7001,355.6857,356.2013,354.2687,110.0,355.6855,356.7002,357.1999,357.1999,359.1573,1910.8,359.1579,5.0,360.1493,0.0,17.0,17.0,28.0,1.0,1.4,0.7,Time
,,S20,1,male,33,anonymized,Serial_Dependence_U,2023.2.3,Win32,59.88023952,,,,,,,,,,,,360.1508,0.0,360.1515,,,,362.8833,363.3819,362.3738,362.8832,361.1557,199.0,362.3735,363.3821,363.8826,363.883,365.6542,1318.6,365.6546,4.0,366.6469,0.0,18.0,18.0,17.0,1.0,1.2,0.7,Time
,,S20,1,male,33,anonymized,Serial_Dependence_U,2023.2.3,Win32,59.88023952,,,,,,,,,,,,366.6487,0.0,366.6494,,,,369.3977,369.8959,368.8811,369.3974,367.6653,159.0,368.8808,369.8959,370.3956,370.3958,373.3521,1948.8,373.3526,5.0,374.3446,0.0,19.0,19.0,12.0,1.0,1.2,0.3,Time
,,S20,1,male,33,anonymized,Serial_Dependence_U,2023.2.3,Win32,59.88023952,,,,,,,,,,,,374.3461,0.0,374.3468,,,,377.2784,377.7762,376.7657,377.2779,375.3627,44.0,376.7655,377.7763,378.276,378.2762,379.8269,1269.0,379.8277,2.0,380.8252,0.0,20.0,20.0,13.0,1.0,1.4,0.3,Time
,,S20,1,male,33,anonymized,Serial_Dependence_U,2023.2.3,Win32,59.88023952,,,,,,,,,,,,380.8267,0.0,380.8274,,,,383.1767,383.6744,382.6606,383.1763,381.8438,68.0,382.6603,383.6746,384.1745,384.1747,385.3751,1165.9,385.3763,5.0,386.3736,0.0,21.0,21.0,20.0,1.0,0.8,0.3,Time
,,S20,1,male,33,anonymized,Serial_Dependence_U,2023.2.3,Win32,59.88023952,,,,,,,,,,,,386.3746,0.0,386.3751,,,,389.3295,389.8225,388.8077,389.329,387.3952,176.0,388.8074,389.8226,390.3226,390.3228,391.3669,791.4,391.3674,1.0,392.3712,0.0,22.0,22.0,8.0,1.0,1.4,0.7,Time
,,S20,1,male,33,anonymized,Serial_Dependence_U,2023.2.3,Win32,59.88023952,,,,,,,,,,,,392.3723,0.0,392.3728,,,,395.4945,395.9879,394.9895,395.4943,393.3736,332.0,394.9892,395.9881,396.4885,396.489,397.7877,916.5,397.7886,1.0,398.786,0.0,23.0,23.0,4.0,1.0,1.6,0.3,Time
,,S20,1,male,33,anonymized,Serial_Dependence_U,2023.2.3,Win32,59.88023952,,,,,,,,,,,,398.7871,0.0,398.7877,,,,401.5366,402.0349,401.0208,401.5363,399.8046,142.0,401.0205,402.0349,402.5347,402.5348,403.9221,1078.6,403.9225,2.0,404.9173,0.0,24.0,24.0,7.0,1.0,1.2,0.7,Time
,,S20,1,male,33,anonymized,Serial_Dependence_U,2023.2.3,Win32,59.88023952,,,,,,,,,,,,404.9189,0.0,404.92,,,,408.0719,408.5666,407.5518,408.0717,405.924,344.0,407.5516,408.5667,409.0659,409.0661,410.4503,1048.7,410.4509,1.0,411.4488,0.0,25.0,25.0,14.0,1.0,1.6,0.3,Time
,,S20,1,male,33,anonymized,Serial_Dependence_U,2023.2.3,Win32,59.88023952,,,,,,,,,,,,411.4501,0.0,411.4505,,,,413.782,414.2805,413.2714,413.7817,412.4562,256.0,413.2713,414.2805,414.7803,414.7805,416.0881,934.7,416.0887,4.0,417.0795,0.0,26.0,26.0,15.0,1.0,0.8,0.7,Time
,,S20,1,male,33,anonymized,Serial_Dependence_U,2023.2.3,Win32,59.88023952,,,,,,,,,,,,417.0807,0.0,417.0815,,,,420.0301,420.5288,419.5139,420.0299,418.0997,196.0,419.5138,420.5288,421.0289,421.0291,422.346,1091.4,422.3467,2.0,423.3441,0.0,27.0,27.0,23.0,1.0,1.4,0.3,Time
,,S20,1,male,33,anonymized,Serial_Dependence_U,2023.2.3,Win32,59.88023952,,,,,,,,,,,,423.3455,0.0,423.3461,,,,425.6951,426.1932,425.1786,425.6947,424.3622,157.0,425.1783,426.1932,426.693,426.6932,427.5672,837.3,427.5678,3.0,428.5592,0.0,28.0,28.0,10.0,1.0,0.8,0.3,Time
,,S20,1,male,33,anonymized,Serial_Dependence_U,2023.2.3,Win32,59.88023952,,,,,,,,,,,,428.5607,0.0,428.5613,,,,430.8937,431.3918,430.3826,430.8935,429.5769,231.0,430.3824,431.3919,431.8917,431.8919,432.7591,450.4,432.76,1.0,433.7575,0.0,29.0,29.0,0.0,1.0,0.8,0.3,Time
,,S20,1,male,33,anonymized,Serial_Dependence_U,2023.2.3,Win32,59.88023952,,,,,,,,,,,,433.7592,1.0,441.8717,s,8.0759,,444.2056,444.7039,443.6903,444.2054,442.8743,81.0,443.6898,444.7041,445.2045,445.2046,446.0632,527.0,446.0636,1.0,447.0532,1.0,0.0,30.0,5.0,1.0,0.8,0.7,Time
,,S20,1,male,33,anonymized,Serial_Dependence_U,2023.2.3,Win32,59.88023952,,,,,,,,,,,,447.0554,1.0,447.0595,,,,449.5879,450.0858,449.077,449.5877,448.057,252.0,449.0767,450.086,450.5854,450.5856,451.5093,844.4,451.51,2.0,452.5018,1.0,1.0,31.0,11.0,1.0,1.0,0.3,Time
,,S20,1,male,33,anonymized,Serial_Dependence_U,2023.2.3,Win32,59.88023952,,,,,,,,,,,,452.5033,1.0,452.504,,,,455.4226,455.9179,454.9188,455.4224,453.5086,24.0,454.9186,455.9182,456.4169,456.4172,458.2574,1144.9,458.2581,2.0,459.2492,1.0,2.0,32.0,3.0,1.0,1.4,0.3,Time
,,S20,1,male,33,anonymized,Serial_Dependence_U,2023.2.3,Win32,59.88023952,,,,,,,,,,,,459.251,1.0,459.2516,,,,461.5726,462.065,461.0667,461.5724,460.2552,171.0,461.0664,462.0652,462.5644,462.5646,464.3043,909.8,464.3048,4.0,465.2972,1.0,3.0,33.0,15.0,1.0,0.8,0.7,Time
,,S20,1,male,33,anonymized,Serial_Dependence_U,2023.2.3,Win32,59.88023952,,,,,,,,,,,,465.2994,1.0,465.2997,,,,467.62,468.1129,467.1145,467.6197,466.3033,288.0,467.1143,468.113,468.6126,468.6128,469.9694,948.9,469.9699,4.0,470.962,1.0,4.0,34.0,10.0,1.0,0.8,0.3,Time
,,S20,1,male,33,anonymized,Serial_Dependence_U,2023.2.3,Win32,59.88023952,,,,,,,,,,,,470.9639,1.0,470.9644,,,,473.9131,474.4105,473.4005,473.9128,471.9851,314.0,473.4002,474.4107,474.9103,474.9107,476.3945,875.6,476.3949,1.0,477.3926,1.0,5.0,35.0,13.0,1.0,1.4,0.3,Time
,,S20,1,male,33,anonymized,Serial_Dependence_U,2023.2.3,Win32,59.88023952,,,,,,,,,,,,477.3937,1.0,477.3942,,,,480.143,480.6413,479.6263,480.1429,478.4102,85.0,479.6262,480.6415,481.1414,481.1416,482.2595,715.4,482.2602,1.0,483.2581,1.0,6.0,36.0,22.0,1.0,1.2,0.3,Time
,,S20,1,male,33,anonymized,Serial_Dependence_U,2023.2.3,Win32,59.88023952,,,,,,,,,,,,483.2595,1.0,483.2602,,,,486.2082,486.7061,485.6919,486.2077,484.2751,356.0,485.6915,486.7062,487.206,487.2061,488.3735,1016.4,488.374,2.0,489.3718,1.0,7.0,37.0,8.0,1.0,1.4,0.7,Time
,,S20,1,male,33,anonymized,Serial_Dependence_U,2023.2.3,Win32,59.88023952,,,,,,,,,,,,489.373,1.0,489.3735,,,,491.911,492.4045,491.3956,491.9106,490.3797,290.0,491.3954,492.4047,492.9045,492.9048,495.7208,914.3,495.7213,2.0,496.7192,1.0,8.0,38.0,1.0,1.0,1.0,0.3,Time
,,S20,1,male,33,anonymized,Serial_Dependence_U,2023.2.3,Win32,59.88023952,,,,,,,,,,,,496.7203,1.0,496.7207,,,,499.0706,499.5684,498.5538,499.0703,497.7381,136.0,498.5535,499.5685,500.0683,500.0685,501.9597,689.6,501.9602,2.0,502.9508,1.0,9.0,39.0,0.0,1.0,0.8,0.3,Time
,,S20,1,male,33,anonymized,Serial_Dependence_U,2023.2.3,Win32,59.88023952,,,,,,,,,,,,502.9526,1.0,502.953,,,,505.7009,506.1992,505.1886,505.7006,503.9728,92.0,505.1883,506.1993,506.6992,506.6993,507.7728,900.7,507.7733,2.0,508.7652,1.0,10.0,40.0,2.0,1.0,1.2,0.3,Time
,,S20,1,male,33,anonymized,Serial_Dependence_U,2023.2.3,Win32,59.88023952,,,,,,,,,,,,508.7676,1.0,508.7682,,,,511.3046,511.7976,510.7883,511.3044,509.784,147.0,510.788,511.7977,512.2984,512.2987,512.953,523.7,512.9531,1.0,513.9469,1.0,11.0,41.0,21.0,1.0,1.0,0.3,Time
,,S20,1,male,33,anonymized,Serial_Dependence_U,2023.2.3,Win32,59.88023952,,,,,,,,,,,,513.9483,1.0,513.9491,,,,517.0647,517.5627,516.5526,517.0645,514.9501,60.0,516.5523,517.5629,518.0621,518.0624,519.7014,1110.0,519.7019,1.0,520.695,1.0,12.0,42.0,19.0,1.0,1.6,0.7,Time
,,S20,1,male,33,anonymized,Serial_Dependence_U,2023.2.3,Win32,59.88023952,,,,,,,,,,,,520.6967,1.0,520.6974,,,,523.6506,524.1437,523.1298,523.6503,521.7131,112.0,523.1294,524.1439,524.6432,524.6434,527.6172,1775.9,527.6177,4.0,528.6087,1.0,13.0,43.0,23.0,1.0,1.4,0.3,Time
,,S20,1,male,33,anonymized,Serial_Dependence_U,2023.2.3,Win32,59.88023952,,,,,,,,,,,,528.6101,1.0,528.6105,,,,531.3484,531.8412,530.8431,531.3481,529.6274,25.0,530.8428,531.8413,532.341,532.3411,534.4244,1517.4,534.4248,4.0,535.4229,1.0,14.0,44.0,17.0,1.0,1.2,0.7,Time
,,S20,1,male,33,anonymized,Serial_Dependence_U,2023.2.3,Win32,59.88023952,,,,,,,,,,,,535.4244,1.0,535.4251,,,,538.5739,539.0715,538.0563,538.5734,536.4448,322.0,538.0561,539.0717,539.5717,539.5718,542.0956,1899.5,542.0962,4.0,543.0875,1.0,15.0,45.0,29.0,1.0,1.6,0.7,Time
,,S20,1,male,33,anonymized,Serial_Dependence_U,2023.2.3,Win32,59.88023952,,,,,,,,,,,,543.0894,1.0,543.0902,,,,545.8219,546.3198,545.3039,545.8215,544.0932,341.0,545.3036,546.32,546.8196,546.8199,548.926,1617.7,548.9265,5.0,549.9185,1.0,16.0,46.0,27.0,1.0,1.2,0.7,Time
,,S20,1,male,33,anonymized,Serial_Dependence_U,2023.2.3,Win32,59.88023952,,,,,,,,,,,,549.9203,1.0,549.921,,,,553.0692,553.5668,552.5517,553.0686,550.9359,278.0,552.5516,553.5669,554.0677,554.0678,555.7911,1691.3,555.7917,4.0,556.7821,1.0,17.0,47.0,9.0,1.0,1.6,0.7,Time
,,S20,1,male,33,anonymized,Serial_Dependence_U,2023.2.3,Win32,59.88023952,,,,,,,,,,,,556.7832,1.0,556.7838,,,,559.5085,559.9981,559.0003,559.5081,557.7847,131.0,559.0001,559.9983,560.4982,560.4984,562.4396,1583.9,562.4401,5.0,563.4299,1.0,18.0,48.0,7.0,1.0,1.2,0.7,Time
,,S20,1,male,33,anonymized,Serial_Dependence_U,2023.2.3,Win32,59.88023952,,,,,,,,,,,,563.4313,1.0,563.4319,,,,566.3807,566.8786,565.8648,566.3805,564.4487,44.0,565.8644,566.8787,567.3786,567.3787,569.4457,2031.0,569.4463,5.0,570.4445,1.0,19.0,49.0,28.0,1.0,1.4,0.7,Time
,,S20,1,male,33,anonymized,Serial_Dependence_U,2023.2.3,Win32,59.88023952,,,,,,,,,,,,570.4456,1.0,570.4462,,,,572.9944,573.4932,572.4788,572.9942,571.463,285.0,572.4785,573.4933,573.993,573.9931,575.4346,1067.3,575.4351,4.0,576.4258,1.0,20.0,50.0,16.0,1.0,1.0,0.7,Time
,,S20,1,male,33,anonymized,Serial_Dependence_U,2023.2.3,Win32,59.88023952,,,,,,,,,,,,576.4272,1.0,576.428,,,,578.9759,579.4749,578.461,578.9757,577.4435,210.0,578.4604,579.475,579.9747,579.9748,581.2144,808.7,581.2149,2.0,582.2072,1.0,21.0,51.0,26.0,1.0,1.0,0.7,Time
,,S20,1,male,33,anonymized,Serial_Dependence_U,2023.2.3,Win32,59.88023952,,,,,,,,,,,,582.2086,1.0,582.2094,,,,584.9416,585.4393,584.429,584.9413,583.2092,28.0,584.4287,585.4394,585.9399,585.9402,587.212,1168.5,587.2125,3.0,588.2049,1.0,22.0,52.0,12.0,1.0,1.2,0.3,Time
,,S20,1,male,33,anonymized,Serial_Dependence_U,2023.2.3,Win32,59.88023952,,,,,,,,,,,,588.2062,1.0,588.2067,,,,591.3403,591.8385,590.8228,591.3398,589.2117,136.0,590.8224,591.8387,592.3372,592.3376,595.1933,1832.1,595.1937,4.0,596.1859,1.0,23.0,53.0,24.0,1.0,1.6,0.3,Time
,,S20,1,male,33,anonymized,Serial_Dependence_U,2023.2.3,Win32,59.88023952,,,,,,,,,,,,596.1871,1.0,596.188,,,,598.7427,599.2349,598.2209,598.7424,597.2075,57.0,598.2206,599.235,599.7345,599.7347,601.4409,1077.7,601.4414,4.0,602.4349,1.0,24.0,54.0,6.0,1.0,1.0,0.7,Time
,,S20,1,male,33,anonymized,Serial_Dependence_U,2023.2.3,Win32,59.88023952,,,,,,,,,,,,602.4367,1.0,602.4375,,,,605.5687,606.0654,605.0513,605.5682,603.441,320.0,605.051,606.0655,606.5655,606.5656,608.2497,1605.2,608.2503,3.0,609.2482,1.0,25.0,55.0,14.0,1.0,1.6,0.3,Time
,,S20,1,male,33,anonymized,Serial_Dependence_U,2023.2.3,Win32,59.88023952,,,,,,,,,,,,609.2501,1.0,609.2506,,,,612.3996,612.8973,611.8877,612.3993,610.2659,325.0,611.8873,612.8975,613.3969,613.3973,615.77,1128.0,615.7705,2.0,616.762,1.0,26.0,56.0,4.0,1.0,1.6,0.3,Time
,,S20,1,male,33,anonymized,Serial_Dependence_U,2023.2.3,Win32,59.88023952,,,,,,,,,,,,616.7634,1.0,616.7637,,,,619.1126,619.6107,618.6006,619.1123,617.7798,62.0,618.5965,619.6108,620.1107,620.1107,622.0025,1330.7,622.003,5.0,622.9932,1.0,27.0,57.0,20.0,1.0,0.8,0.3,Time
,,S20,1,male,33,anonymized,Serial_Dependence_U,2023.2.3,Win32,59.88023952,,,,,,,,,,,,622.9944,1.0,622.9951,,,,625.9284,626.4253,625.4111,625.928,624.0003,121.0,625.411,626.4254,626.9254,626.9257,632.7475,1277.5,632.7482,2.0,633.7393,1.0,28.0,58.0,18.0,1.0,1.4,0.7,Time
,,S20,1,male,33,anonymized,Serial_Dependence_U,2023.2.3,Win32,59.88023952,,,,,,,,,,,,633.7403,1.0,633.741,,,,636.09,636.5891,635.5737,636.0897,634.7575,19.0,635.5736,636.5892,637.0885,637.0886,641.8551,1233.3,641.8559,5.0,642.8532,1.0,29.0,59.0,25.0,1.0,0.8,0.7,Time
,,S20,1,male,33,anonymized,Serial_Dependence_U,2023.2.3,Win32,59.88023952,,,,,,,,,,,,642.8545,2.0,646.602,s,3.7228,,649.1529,649.651,648.6427,649.1526,647.6204,155.0,648.6425,649.6513,650.1507,650.1508,652.2426,1278.0,652.2431,4.0,653.2329,2.0,0.0,60.0,6.0,1.0,1.0,0.7,Time
,,S20,1,male,33,anonymized,Serial_Dependence_U,2023.2.3,Win32,59.88023952,,,,,,,,,,,,653.2341,2.0,653.2391,,,,656.3677,656.8653,655.8508,656.3671,654.2355,216.0,655.8502,656.8654,657.3649,657.365,658.7303,1325.1,658.7306,2.0,659.7307,2.0,1.0,61.0,4.0,1.0,1.6,0.3,Time
,,S20,1,male,33,anonymized,Serial_Dependence_U,2023.2.3,Win32,59.88023952,,,,,,,,,,,,659.7317,2.0,659.7324,,,,662.2981,662.7963,661.7684,662.2978,660.749,254.0,661.7643,662.7963,663.2959,663.296,664.7302,1396.7,664.7308,5.0,665.7284,2.0,2.0,62.0,11.0,1.0,1.0,0.3,Time
,,S20,1,male,33,anonymized,Serial_Dependence_U,2023.2.3,Win32,59.88023952,,,,,,,,,,,,665.7296,2.0,665.7301,,,,668.863,669.3608,668.3515,668.8628,666.7313,26.0,668.3514,669.3609,669.8603,669.8606,671.6347,1728.9,671.6352,4.0,672.6273,2.0,3.0,63.0,9.0,1.0,1.6,0.7,Time
,,S20,1,male,33,anonymized,Serial_Dependence_U,2023.2.3,Win32,59.88023952,,,,,,,,,,,,672.6295,2.0,672.6301,,,,675.5765,676.0751,675.0602,675.5762,673.6443,34.0,675.06,676.0752,676.575,676.575,678.6249,1931.8,678.6258,5.0,679.6239,2.0,4.0,64.0,8.0,1.0,1.4,0.7,Time
,,S20,1,male,33,anonymized,Serial_Dependence_U,2023.2.3,Win32,59.88023952,,,,,,,,,,,,679.6253,2.0,679.626,,,,682.562,683.0558,682.0481,682.5618,680.6305,341.0,682.0478,683.056,683.5566,683.5568,685.6958,1672.3,685.6962,4.0,686.6881,2.0,5.0,65.0,18.0,1.0,1.4,0.7,Time
,,S20,1,male,33,anonymized,Serial_Dependence_U,2023.2.3,Win32,59.88023952,,,,,,,,,,,,686.6897,2.0,686.6903,,,,689.0395,689.5373,688.5222,689.0392,687.7055,248.0,688.5218,689.5373,690.0369,690.037,691.662,984.9,691.6625,4.0,692.6532,2.0,6.0,66.0,0.0,1.0,0.8,0.3,Time
,,S20,1,male,33,anonymized,Serial_Dependence_U,2023.2.3,Win32,59.88023952,,,,,,,,,,,,692.6551,2.0,692.6555,,,,695.5933,696.0854,695.0713,695.593,693.6584,346.0,695.071,696.0856,696.5852,696.5855,697.8756,1197.8,697.8761,2.0,698.8674,2.0,7.0,67.0,28.0,1.0,1.4,0.7,Time
,,S20,1,male,33,anonymized,Serial_Dependence_U,2023.2.3,Win32,59.88023952,,,,,,,,,,,,698.8688,2.0,698.8693,,,,701.2195,701.7154,700.7017,701.2192,699.8852,271.0,700.7014,701.7154,702.217,702.2174,703.1227,880.4,703.1232,4.0,704.1163,2.0,8.0,68.0,20.0,1.0,0.8,0.3,Time
,,S20,1,male,33,anonymized,Serial_Dependence_U,2023.2.3,Win32,59.88023952,,,,,,,,,,,,704.1178,2.0,704.1186,,,,706.4536,706.9489,705.9509,706.4534,705.1379,41.0,705.9507,706.9492,707.4485,707.4488,708.2713,764.2,708.2717,3.0,709.2645,2.0,9.0,69.0,10.0,1.0,0.8,0.3,Time
,,S20,1,male,33,anonymized,Serial_Dependence_U,2023.2.3,Win32,59.88023952,,,,,,,,,,,,709.2667,2.0,709.2671,,,,712.2139,712.7129,711.6983,712.2136,710.2813,299.0,711.6981,712.713,713.2128,713.213,714.7127,1268.6,714.7133,2.0,715.7116,2.0,10.0,70.0,13.0,1.0,1.4,0.3,Time
,,S20,1,male,33,anonymized,Serial_Dependence_U,2023.2.3,Win32,59.88023952,,,,,,,,,,,,715.7129,2.0,715.7133,,,,718.8628,719.361,718.3511,718.8626,716.7303,305.0,718.3509,719.3611,719.8605,719.8608,721.4347,1528.9,721.4353,3.0,722.4262,2.0,11.0,71.0,29.0,1.0,1.6,0.7,Time
,,S20,1,male,33,anonymized,Serial_Dependence_U,2023.2.3,Win32,59.88023952,,,,,,,,,,,,722.4283,2.0,722.429,,,,724.7769,725.2752,724.2599,724.7768,723.4446,285.0,724.2597,725.2753,725.7755,725.7756,726.9595,798.8,726.9603,3.0,727.9579,2.0,12.0,72.0,15.0,1.0,0.8,0.7,Time
,,S20,1,male,33,anonymized,Serial_Dependence_U,2023.2.3,Win32,59.88023952,,,,,,,,,,,,727.9593,2.0,727.96,,,,731.092,731.5899,730.581,731.0918,728.9759,125.0,730.5808,731.5901,732.0899,732.09,734.1314,1674.2,734.1319,3.0,735.1222,2.0,13.0,73.0,14.0,1.0,1.6,0.3,Time
,,S20,1,male,33,anonymized,Serial_Dependence_U,2023.2.3,Win32,59.88023952,,,,,,,,,,,,735.1243,2.0,735.1248,,,,737.8568,738.3552,737.3445,737.8565,736.1401,98.0,737.3442,738.3555,738.8538,738.8541,740.5029,1495.3,740.5032,4.0,741.5032,2.0,14.0,74.0,2.0,1.0,1.2,0.3,Time
,,S20,1,male,33,anonymized,Serial_Dependence_U,2023.2.3,Win32,59.88023952,,,,,,,,,,,,741.5048,2.0,741.5054,,,,744.2539,744.7522,743.7375,744.2538,742.5216,138.0,743.7372,744.7523,745.2525,745.2528,747.0752,1779.6,747.0757,5.0,748.0673,2.0,15.0,75.0,17.0,1.0,1.2,0.7,Time
,,S20,1,male,33,anonymized,Serial_Dependence_U,2023.2.3,Win32,59.88023952,,,,,,,,,,,,748.0689,2.0,748.0696,,,,751.0007,751.4994,750.485,751.0005,749.0694,42.0,750.4848,751.4995,751.9994,751.9997,753.4836,1453.1,753.4842,3.0,754.4823,2.0,16.0,76.0,3.0,1.0,1.4,0.3,Time
,,S20,1,male,33,anonymized,Serial_Dependence_U,2023.2.3,Win32,59.88023952,,,,,,,,,,,,754.4833,2.0,754.4837,,,,757.4324,757.9298,756.9157,757.4323,755.4996,49.0,756.9154,757.9298,758.4305,758.4305,760.1978,1727.4,760.1988,4.0,761.1963,2.0,17.0,77.0,23.0,1.0,1.4,0.3,Time
,,S20,1,male,33,anonymized,Serial_Dependence_U,2023.2.3,Win32,59.88023952,,,,,,,,,,,,761.1977,2.0,761.1985,,,,763.9477,764.4454,763.4363,763.9475,762.2136,168.0,763.436,764.4456,764.945,764.9453,767.2031,1695.1,767.2034,5.0,768.1942,2.0,18.0,78.0,27.0,1.0,1.2,0.7,Time
,,S20,1,male,33,anonymized,Serial_Dependence_U,2023.2.3,Win32,59.88023952,,,,,,,,,,,,768.1958,2.0,768.1962,,,,770.945,771.4436,770.4293,770.9448,769.2119,186.0,770.4289,771.4438,771.9426,771.9429,773.6997,1175.7,773.7002,3.0,774.6921,2.0,19.0,79.0,7.0,1.0,1.2,0.7,Time
,,S20,1,male,33,anonymized,Serial_Dependence_U,2023.2.3,Win32,59.88023952,,,,,,,,,,,,774.6938,2.0,774.6944,,,,777.8482,778.3407,777.3314,777.8479,775.7154,129.0,777.3311,778.341,778.8409,778.8412,780.414,1530.4,780.4144,3.0,781.4075,2.0,20.0,80.0,19.0,1.0,1.6,0.7,Time
,,S20,1,male,33,anonymized,Serial_Dependence_U,2023.2.3,Win32,59.88023952,,,,,,,,,,,,781.41,2.0,781.4107,,,,784.1628,784.6553,783.6459,784.1625,782.4254,44.0,783.6458,784.6554,785.155,785.1552,786.0798,785.4,786.0804,1.0,787.0706,2.0,21.0,81.0,12.0,1.0,1.2,0.3,Time
,,S20,1,male,33,anonymized,Serial_Dependence_U,2023.2.3,Win32,59.88023952,,,,,,,,,,,,787.0722,2.0,787.0726,,,,789.6107,790.1033,789.104,789.6104,788.0904,189.0,789.1035,790.1034,790.6089,790.609,791.7434,1095.8,791.7438,4.0,792.7354,2.0,22.0,82.0,16.0,1.0,1.0,0.7,Time
,,S20,1,male,33,anonymized,Serial_Dependence_U,2023.2.3,Win32,59.88023952,,,,,,,,,,,,792.7368,2.0,792.7374,,,,795.2535,795.7517,794.7422,795.253,793.7373,238.0,794.7418,795.7518,796.2515,796.2517,797.4419,1146.6,797.4425,4.0,798.434,2.0,23.0,83.0,1.0,1.0,1.0,0.3,Time
,,S20,1,male,33,anonymized,Serial_Dependence_U,2023.2.3,Win32,59.88023952,,,,,,,,,,,,798.436,2.0,798.4368,,,,801.5674,802.0653,801.0514,801.5672,799.443,178.0,801.0509,802.0653,802.5652,802.5653,804.1233,1456.7,804.1238,2.0,805.1154,2.0,24.0,84.0,24.0,1.0,1.6,0.3,Time
,,S20,1,male,33,anonymized,Serial_Dependence_U,2023.2.3,Win32,59.88023952,,,,,,,,,,,,805.1169,2.0,805.118,,,,807.6654,808.1638,807.1498,807.6653,806.1325,19.0,807.1494,808.164,808.6636,808.6638,809.7138,1033.3,809.7143,3.0,810.7128,2.0,25.0,85.0,21.0,1.0,1.0,0.3,Time
,,S20,1,male,33,anonymized,Serial_Dependence_U,2023.2.3,Win32,59.88023952,,,,,,,,,,,,810.714,2.0,810.7143,,,,813.4638,813.9615,812.9471,813.4636,811.7309,219.0,812.9468,813.9616,814.4616,814.4617,815.3118,806.0,815.3126,1.0,816.3113,2.0,26.0,86.0,22.0,1.0,1.2,0.3,Time
,,S20,1,male,33,anonymized,Serial_Dependence_U,2023.2.3,Win32,59.88023952,,,,,,,,,,,,816.3131,2.0,816.3135,,,,818.651,819.1433,818.1287,818.6507,817.3242,215.0,818.1284,819.1434,819.6437,819.6439,820.7663,1083.4,820.7668,5.0,821.759,2.0,27.0,87.0,5.0,1.0,0.8,0.7,Time
,,S20,1,male,33,anonymized,Serial_Dependence_U,2023.2.3,Win32,59.88023952,,,,,,,,,,,,821.7606,2.0,821.7613,,,,824.0932,824.592,823.5827,824.093,822.7614,180.0,823.5825,824.5922,825.0918,825.092,825.265,131.8,825.2657,1.0,826.2577,2.0,28.0,88.0,25.0,1.0,0.8,0.7,Time
,,S20,1,male,33,anonymized,Serial_Dependence_U,2023.2.3,Win32,59.88023952,,,,,,,,,,,,826.2591,2.0,826.2598,,,,828.809,829.3067,828.2918,828.8088,827.2763,122.0,828.2916,829.3068,829.8059,829.8061,831.7568,1349.4,831.7574,5.0,832.7554,2.0,29.0,89.0,26.0,1.0,1.0,0.7,Time
,,S20,1,male,33,anonymized,Serial_Dependence_U,2023.2.3,Win32,59.88023952,,,,,,,,,,,,832.7578,3.0,846.2688,s,13.4772,,849.4237,849.9168,848.9074,849.4234,847.2861,47.0,848.9072,849.9169,850.4167,850.4169,852.5873,1742.8,852.5881,4.0,853.5811,3.0,0.0,90.0,29.0,1.0,1.6,0.7,Time
,,S20,1,male,33,anonymized,Serial_Dependence_U,2023.2.3,Win32,59.88023952,,,,,,,,,,,,853.5824,3.0,853.5872,,,,856.3213,856.814,855.8155,856.3211,854.6049,333.0,855.8153,856.8142,857.3137,857.3138,858.422,1065.0,858.4225,2.0,859.413,3.0,1.0,91.0,17.0,1.0,1.2,0.7,Time
,,S20,1,male,33,anonymized,Serial_Dependence_U,2023.2.3,Win32,59.88023952,,,,,,,,,,,,859.4141,3.0,859.4146,,,,861.9471,862.4459,861.4348,861.9469,860.4301,198.0,861.4346,862.446,862.9458,862.946,863.829,838.7,863.8296,2.0,864.8275,3.0,2.0,92.0,21.0,1.0,1.0,0.3,Time
,,S20,1,male,33,anonymized,Serial_Dependence_U,2023.2.3,Win32,59.88023952,,,,,,,,,,,,864.8288,3.0,864.8296,,,,867.1835,867.6779,866.6618,867.1831,865.8508,72.0,866.6616,867.6782,868.1773,868.1775,868.9933,775.3,868.9939,3.0,869.9932,3.0,3.0,93.0,0.0,1.0,0.8,0.3,Time
,,S20,1,male,33,anonymized,Serial_Dependence_U,2023.2.3,Win32,59.88023952,,,,,,,,,,,,869.9957,3.0,869.9961,,,,872.3436,872.8418,871.8278,872.3433,871.0146,113.0,871.8276,872.842,873.33,873.3302,874.2581,882.8,874.2592,4.0,875.2573,3.0,4.0,94.0,20.0,1.0,0.8,0.3,Time
,,S20,1,male,33,anonymized,Serial_Dependence_U,2023.2.3,Win32,59.88023952,,,,,,,,,,,,875.2589,3.0,875.2594,,,,878.3951,878.89,877.8751,878.3948,876.2598,260.0,877.8749,878.8902,879.3896,879.3898,880.7961,1363.1,880.7966,2.0,881.7884,3.0,5.0,95.0,9.0,1.0,1.6,0.7,Time
,,S20,1,male,33,anonymized,Serial_Dependence_U,2023.2.3,Win32,59.88023952,,,,,,,,,,,,881.7895,3.0,881.7901,,,,884.9401,885.4375,884.4228,884.9398,882.8083,170.0,884.4226,885.4377,885.9381,885.9385,887.4114,1430.3,887.4119,2.0,888.4054,3.0,6.0,96.0,24.0,1.0,1.6,0.3,Time
,,S20,1,male,33,anonymized,Serial_Dependence_U,2023.2.3,Win32,59.88023952,,,,,,,,,,,,888.4069,3.0,888.4077,,,,890.7386,891.236,890.2264,890.7382,889.4214,250.0,890.226,891.2361,891.7354,891.7356,892.7696,981.8,892.7703,4.0,893.7681,3.0,7.0,97.0,10.0,1.0,0.8,0.3,Time
,,S20,1,male,33,anonymized,Serial_Dependence_U,2023.2.3,Win32,59.88023952,,,,,,,,,,,,893.7696,3.0,893.7701,,,,896.1024,896.6009,895.5907,896.1019,894.774,351.0,895.5905,896.6012,897.1005,897.1007,897.8581,712.5,897.8586,2.0,898.8492,3.0,8.0,98.0,15.0,1.0,0.8,0.7,Time
,,S20,1,male,33,anonymized,Serial_Dependence_U,2023.2.3,Win32,59.88023952,,,,,,,,,,,,898.851,3.0,898.8518,,,,901.6044,902.0992,901.0906,901.6042,899.8686,84.0,901.0904,902.0993,902.5988,902.5991,903.7824,751.5,903.7832,1.0,904.7806,3.0,9.0,99.0,2.0,1.0,1.2,0.3,Time
,,S20,1,male,33,anonymized,Serial_Dependence_U,2023.2.3,Win32,59.88023952,,,,,,,,,,,,904.782,3.0,904.7824,,,,907.3309,907.8296,906.8149,907.3307,905.7994,151.0,906.8147,907.8296,908.3306,908.3308,909.1301,762.5,909.1307,2.0,910.1292,3.0,10.0,100.0,26.0,1.0,1.0,0.7,Time
,,S20,1,male,33,anonymized,Serial_Dependence_U,2023.2.3,Win32,59.88023952,,,,,,,,,,,,910.131,3.0,910.1317,,,,912.6522,913.1449,912.1468,912.6519,911.136,43.0,912.1466,913.145,913.6451,913.6455,916.1783,1288.5,916.1789,4.0,917.1768,3.0,11.0,101.0,6.0,1.0,1.0,0.7,Time
,,S20,1,male,33,anonymized,Serial_Dependence_U,2023.2.3,Win32,59.88023952,,,,,,,,,,,,917.1787,3.0,917.1793,,,,919.7279,920.2256,919.2107,919.7277,918.1942,19.0,919.2103,920.2256,920.7253,920.7254,921.7332,693.0,921.7339,1.0,922.7246,3.0,12.0,102.0,1.0,1.0,1.0,0.3,Time
,,S20,1,male,33,anonymized,Serial_Dependence_U,2023.2.3,Win32,59.88023952,,,,,,,,,,,,922.7258,3.0,922.7262,,,,925.8756,926.3735,925.3587,925.8752,923.7421,182.0,925.3584,926.3735,926.8736,926.8737,928.5802,1327.5,928.5808,2.0,929.5732,3.0,13.0,103.0,4.0,1.0,1.6,0.3,Time
,,S20,1,male,33,anonymized,Serial_Dependence_U,2023.2.3,Win32,59.88023952,,,,,,,,,,,,929.5748,3.0,929.5754,,,,932.5226,933.0213,932.0062,932.5224,930.5903,356.0,932.006,933.0214,933.5213,933.5214,934.9391,1383.7,934.94,3.0,935.9372,3.0,14.0,104.0,3.0,1.0,1.4,0.3,Time
,,S20,1,male,33,anonymized,Serial_Dependence_U,2023.2.3,Win32,59.88023952,,,,,,,,,,,,935.9394,3.0,935.94,,,,938.8767,939.3697,938.3604,938.8765,936.9585,15.0,938.3602,939.3698,939.8692,939.8696,941.5092,1415.7,941.5097,3.0,942.5014,3.0,15.0,105.0,28.0,1.0,1.4,0.7,Time
,,S20,1,male,33,anonymized,Serial_Dependence_U,2023.2.3,Win32,59.88023952,,,,,,,,,,,,942.5036,3.0,942.5042,,,,945.4408,945.9336,944.936,945.4405,943.5231,213.0,944.9357,945.9336,946.4336,946.4338,949.0739,2091.4,949.0745,5.0,950.0652,3.0,16.0,106.0,13.0,1.0,1.4,0.3,Time
,,S20,1,male,33,anonymized,Serial_Dependence_U,2023.2.3,Win32,59.88023952,,,,,,,,,,,,950.0664,3.0,950.0672,,,,952.8058,953.2984,952.2865,952.8055,951.0681,326.0,952.2862,953.2986,953.7985,953.7993,954.7377,895.1,954.7382,2.0,955.7304,3.0,17.0,107.0,27.0,1.0,1.2,0.7,Time
,,S20,1,male,33,anonymized,Serial_Dependence_U,2023.2.3,Win32,59.88023952,,,,,,,,,,,,955.7321,3.0,955.733,,,,958.0802,958.5789,957.5643,958.0801,956.7482,180.0,957.5641,958.579,959.079,959.0791,959.2863,139.6,959.2868,1.0,960.2792,3.0,18.0,108.0,25.0,1.0,0.8,0.7,Time
,,S20,1,male,33,anonymized,Serial_Dependence_U,2023.2.3,Win32,59.88023952,,,,,,,,,,,,960.2806,3.0,960.2814,,,,963.0129,963.5112,962.5016,963.0127,961.2857,323.0,962.5014,963.5114,964.0114,964.0118,965.2443,1038.9,965.2449,2.0,966.2438,3.0,19.0,109.0,7.0,1.0,1.2,0.7,Time
,,S20,1,male,33,anonymized,Serial_Dependence_U,2023.2.3,Win32,59.88023952,,,,,,,,,,,,966.2457,3.0,966.2463,,,,969.1941,969.6922,968.6785,969.1938,967.2611,120.0,968.678,969.6923,970.1919,970.192,970.9923,512.5,970.9928,1.0,971.9912,3.0,20.0,110.0,23.0,1.0,1.4,0.3,Time
,,S20,1,male,33,anonymized,Serial_Dependence_U,2023.2.3,Win32,59.88023952,,,,,,,,,,,,971.9923,3.0,971.9928,,,,974.9414,975.4398,974.4294,974.9412,973.011,199.0,974.4291,975.4399,975.9396,975.9397,977.3737,1371.6,977.3742,3.0,978.3731,3.0,21.0,111.0,18.0,1.0,1.4,0.7,Time
,,S20,1,male,33,anonymized,Serial_Dependence_U,2023.2.3,Win32,59.88023952,,,,,,,,,,,,978.3754,3.0,978.3759,,,,980.7068,981.2049,980.1959,980.7066,979.3909,202.0,980.1956,981.205,981.706,981.7065,982.9447,1181.2,982.9453,5.0,983.9376,3.0,22.0,112.0,5.0,1.0,0.8,0.7,Time
,,S20,1,male,33,anonymized,Serial_Dependence_U,2023.2.3,Win32,59.88023952,,,,,,,,,,,,983.9389,3.0,983.9396,,,,986.8717,987.3692,986.3546,986.8712,984.9404,193.0,986.3544,987.3694,987.8694,987.8696,989.303,1399.0,989.3035,3.0,990.3022,3.0,23.0,113.0,8.0,1.0,1.4,0.7,Time
,,S20,1,male,33,anonymized,Serial_Dependence_U,2023.2.3,Win32,59.88023952,,,,,,,,,,,,990.3041,3.0,990.3047,,,,992.8528,993.3511,992.336,992.8525,991.3246,12.0,992.3359,993.3513,993.8508,993.8509,994.9399,892.9,994.9405,2.0,995.9334,3.0,24.0,114.0,16.0,1.0,1.0,0.7,Time
,,S20,1,male,33,anonymized,Serial_Dependence_U,2023.2.3,Win32,59.88023952,,,,,,,,,,,,995.9353,3.0,995.9358,,,,998.6835,999.182,998.1688,998.6834,996.9507,210.0,998.1679,999.1821,999.6818,999.682,1001.1065,1001.0,1001.1071,2.0,1002.0984,3.0,25.0,115.0,12.0,1.0,1.2,0.3,Time
,,S20,1,male,33,anonymized,Serial_Dependence_U,2023.2.3,Win32,59.88023952,,,,,,,,,,,,1002.1002,3.0,1002.1008,,,,1005.2491,1005.7469,1004.7326,1005.2489,1003.1158,13.0,1004.7322,1005.747,1006.2482,1006.2484,1007.4481,1135.9,1007.4488,2.0,1008.4471,3.0,26.0,116.0,19.0,1.0,1.6,0.7,Time
,,S20,1,male,33,anonymized,Serial_Dependence_U,2023.2.3,Win32,59.88023952,,,,,,,,,,,,1008.4496,3.0,1008.4504,,,,1011.1976,1011.6949,1010.6811,1011.1971,1009.4631,223.0,1010.6805,1011.6949,1012.1942,1012.1944,1013.3514,1118.1,1013.352,2.0,1014.3439,3.0,27.0,117.0,22.0,1.0,1.2,0.3,Time
,,S20,1,male,33,anonymized,Serial_Dependence_U,2023.2.3,Win32,59.88023952,,,,,,,,,,,,1014.3462,3.0,1014.3468,,,,1016.8936,1017.3922,1016.3783,1016.8935,1015.3604,199.0,1016.3779,1017.3923,1017.8919,1017.892,1019.343,1167.3,1019.3435,4.0,1020.3415,3.0,28.0,118.0,11.0,1.0,1.0,0.3,Time
,,S20,1,male,33,anonymized,Serial_Dependence_U,2023.2.3,Win32,59.88023952,,,,,,,,,,,,1020.3426,3.0,1020.3429,,,,1023.4958,1023.9906,1022.9759,1023.4956,1021.3635,251.0,1022.9757,1023.9907,1024.4905,1024.4908,1026.1239,1251.1,1026.1244,2.0,1027.1225,3.0,29.0,119.0,14.0,1.0,1.6,0.3,Time
,,S20,1,male,33,anonymized,Serial_Dependence_U,2023.2.3,Win32,59.88023952,,,,,,,,,,,,1027.1237,4.0,1030.2555,s,3.1044,,1033.0061,1033.5036,1032.4891,1033.0057,1031.273,192.0,1032.4889,1033.5037,1034.0037,1034.0039,1035.594,1221.4,1035.5944,3.0,1036.5865,4.0,0.0,120.0,2.0,1.0,1.2,0.3,Time
,,S20,1,male,33,anonymized,Serial_Dependence_U,2023.2.3,Win32,59.88023952,,,,,,,,,,,,1036.588,4.0,1036.593,,,,1038.9365,1039.4354,1038.4205,1038.9362,1037.6044,96.0,1038.4202,1039.4354,1039.9348,1039.9349,1040.4752,453.0,1040.4756,1.0,1041.4678,4.0,1.0,121.0,0.0,1.0,0.8,0.3,Time
,,S20,1,male,33,anonymized,Serial_Dependence_U,2023.2.3,Win32,59.88023952,,,,,,,,,,,,1041.4692,4.0,1041.4698,,,,1044.002,1044.5062,1043.487,1044.0017,1042.4741,279.0,1043.4866,1044.5063,1045.0002,1045.0009,1045.8041,761.7,1045.8043,2.0,1046.7992,4.0,2.0,122.0,26.0,1.0,1.0,0.7,Time
,,S20,1,male,33,anonymized,Serial_Dependence_U,2023.2.3,Win32,59.88023952,,,,,,,,,,,,1046.8007,4.0,1046.8017,,,,1049.3393,1049.8313,1048.8336,1049.3391,1047.8176,260.0,1048.8334,1049.8314,1050.3323,1050.3326,1052.1023,1736.7,1052.1027,5.0,1053.0975,4.0,3.0,123.0,1.0,1.0,1.0,0.3,Time
,,S20,1,male,33,anonymized,Serial_Dependence_U,2023.2.3,Win32,59.88023952,,,,,,,,,,,,1053.0987,4.0,1053.0993,,,,1056.0562,1056.5462,1055.5317,1056.0501,1054.1158,146.0,1055.5312,1056.5463,1057.0455,1057.0455,1058.9297,1269.6,1058.9303,2.0,1059.9282,4.0,4.0,124.0,13.0,1.0,1.4,0.3,Time
,,S20,1,male,33,anonymized,Serial_Dependence_U,2023.2.3,Win32,59.88023952,,,,,,,,,,,,1059.9294,4.0,1059.9306,,,,1062.2685,1062.7605,1061.7507,1062.2683,1060.9465,138.0,1061.7505,1062.7606,1063.2611,1063.2613,1064.4837,1180.2,1064.4843,5.0,1065.477,4.0,5.0,125.0,5.0,1.0,0.8,0.7,Time
,,S20,1,male,33,anonymized,Serial_Dependence_U,2023.2.3,Win32,59.88023952,,,,,,,,,,,,1065.4787,4.0,1065.4795,,,,1068.6102,1069.1091,1068.0937,1068.6101,1066.4793,219.0,1068.0936,1069.1092,1069.6083,1069.6087,1070.7497,1077.7,1070.7504,1.0,1071.7408,4.0,6.0,126.0,29.0,1.0,1.6,0.7,Time
,,S20,1,male,33,anonymized,Serial_Dependence_U,2023.2.3,Win32,59.88023952,,,,,,,,,,,,1071.7422,4.0,1071.7429,,,,1074.6951,1075.1911,1074.1757,1074.6948,1072.7596,262.0,1074.1755,1075.1912,1075.6898,1075.6901,1077.1307,1393.1,1077.1312,3.0,1078.1219,4.0,7.0,127.0,23.0,1.0,1.4,0.3,Time
,,S20,1,male,33,anonymized,Serial_Dependence_U,2023.2.3,Win32,59.88023952,,,,,,,,,,,,1078.123,4.0,1078.1235,,,,1080.8602,1081.3545,1080.3405,1080.86,1079.1291,68.0,1080.3402,1081.3546,1081.8547,1081.8551,1083.9944,1301.2,1083.9949,4.0,1084.986,4.0,8.0,128.0,27.0,1.0,1.2,0.7,Time
,,S20,1,male,33,anonymized,Serial_Dependence_U,2023.2.3,Win32,59.88023952,,,,,,,,,,,,1084.9876,4.0,1084.9883,,,,1088.1409,1088.6352,1087.6207,1088.1406,1086.0038,336.0,1087.6204,1088.6353,1089.1355,1089.1357,1090.8413,1434.2,1090.8419,2.0,1091.8337,4.0,9.0,129.0,19.0,1.0,1.6,0.7,Time
,,S20,1,male,33,anonymized,Serial_Dependence_U,2023.2.3,Win32,59.88023952,,,,,,,,,,,,1091.8348,4.0,1091.8357,,,,1094.3847,1094.8831,1093.8691,1094.3844,1092.8511,140.0,1093.8688,1094.8832,1095.383,1095.3831,1097.1238,1185.1,1097.1242,4.0,1098.1152,4.0,10.0,130.0,6.0,1.0,1.0,0.7,Time
,,S20,1,male,33,anonymized,Serial_Dependence_U,2023.2.3,Win32,59.88023952,,,,,,,,,,,,1098.1167,4.0,1098.1174,,,,1100.65,1101.1482,1100.1467,1100.6498,1099.1347,314.0,1100.1458,1101.1484,1101.6477,1101.6481,1103.6477,1783.1,1103.6484,5.0,1104.6461,4.0,11.0,131.0,21.0,1.0,1.0,0.3,Time
,,S20,1,male,33,anonymized,Serial_Dependence_U,2023.2.3,Win32,59.88023952,,,,,,,,,,,,1104.6473,4.0,1104.6481,,,,1107.3796,1107.8785,1106.8635,1107.3795,1105.6482,149.0,1106.8632,1107.8785,1108.3782,1108.3783,1109.4785,1069.0,1109.479,2.0,1110.4784,4.0,12.0,132.0,22.0,1.0,1.2,0.3,Time
,,S20,1,male,33,anonymized,Serial_Dependence_U,2023.2.3,Win32,59.88023952,,,,,,,,,,,,1110.4803,4.0,1110.4809,,,,1113.6289,1114.1263,1113.1117,1113.6288,1111.501,13.0,1113.1116,1114.1263,1114.6261,1114.6263,1116.0326,1360.0,1116.0331,2.0,1117.0251,4.0,13.0,133.0,4.0,1.0,1.6,0.3,Time
,,S20,1,male,33,anonymized,Serial_Dependence_U,2023.2.3,Win32,59.88023952,,,,,,,,,,,,1117.0273,4.0,1117.0282,,,,1119.5604,1120.0578,1119.0474,1119.5601,1118.0441,41.0,1119.0471,1120.0579,1120.5576,1120.5578,1121.3318,735.9,1121.3323,2.0,1122.3238,4.0,14.0,134.0,11.0,1.0,1.0,0.3,Time
,,S20,1,male,33,anonymized,Serial_Dependence_U,2023.2.3,Win32,59.88023952,,,,,,,,,,,,1122.3259,4.0,1122.3265,,,,1124.8786,1125.3716,1124.3587,1124.8784,1123.3479,112.0,1124.3584,1125.3716,1125.8722,1125.8725,1127.0304,1080.4,1127.0309,4.0,1128.0215,4.0,15.0,135.0,16.0,1.0,1.0,0.7,Time
,,S20,1,male,33,anonymized,Serial_Dependence_U,2023.2.3,Win32,59.88023952,,,,,,,,,,,,1128.0225,4.0,1128.023,,,,1130.34,1130.8383,1129.8289,1130.3397,1129.0261,254.0,1129.8285,1130.8385,1131.3385,1131.339,1132.3279,946.8,1132.3284,4.0,1133.3202,4.0,16.0,136.0,10.0,1.0,0.8,0.3,Time
,,S20,1,male,33,anonymized,Serial_Dependence_U,2023.2.3,Win32,59.88023952,,,,,,,,,,,,1133.322,4.0,1133.3227,,,,1136.4698,1136.9684,1135.9537,1136.4696,1134.3394,4.0,1135.9534,1136.9684,1137.4684,1137.4685,1138.9429,1441.7,1138.9435,2.0,1139.9343,4.0,17.0,137.0,24.0,1.0,1.6,0.3,Time
,,S20,1,male,33,anonymized,Serial_Dependence_U,2023.2.3,Win32,59.88023952,,,,,,,,,,,,1139.9354,4.0,1139.9362,,,,1142.2907,1142.7836,1141.7686,1142.2904,1140.9519,284.0,1141.7685,1142.7837,1143.2837,1143.2839,1144.1402,814.3,1144.1406,3.0,1145.1338,4.0,18.0,138.0,15.0,1.0,0.8,0.7,Time
,,S20,1,male,33,anonymized,Serial_Dependence_U,2023.2.3,Win32,59.88023952,,,,,,,,,,,,1145.1358,4.0,1145.1365,,,,1147.8705,1148.3648,1147.3538,1147.8703,1146.1508,243.0,1147.3536,1148.365,1148.8649,1148.8651,1150.0151,966.4,1150.0157,2.0,1151.0139,4.0,19.0,139.0,17.0,1.0,1.2,0.7,Time
,,S20,1,male,33,anonymized,Serial_Dependence_U,2023.2.3,Win32,59.88023952,,,,,,,,,,,,1151.0151,4.0,1151.0158,,,,1153.7687,1154.2634,1153.2491,1153.7686,1152.0319,351.0,1153.2489,1154.2635,1154.7628,1154.763,1155.7532,927.8,1155.7536,2.0,1156.7457,4.0,20.0,140.0,12.0,1.0,1.2,0.3,Time
,,S20,1,male,33,anonymized,Serial_Dependence_U,2023.2.3,Win32,59.88023952,,,,,,,,,,,,1156.7477,4.0,1156.7484,,,,1159.6795,1160.1775,1159.1678,1159.6793,1157.7636,281.0,1159.1675,1160.1776,1160.6774,1160.6777,1162.2511,1178.3,1162.2516,2.0,1163.2433,4.0,21.0,141.0,18.0,1.0,1.4,0.7,Time
,,S20,1,male,33,anonymized,Serial_Dependence_U,2023.2.3,Win32,59.88023952,,,,,,,,,,,,1163.2455,4.0,1163.2462,,,,1166.3818,1166.876,1165.8772,1166.3817,1164.2666,275.0,1165.877,1166.876,1167.3749,1167.3751,1169.0091,951.3,1169.0096,1.0,1170.0072,4.0,22.0,142.0,14.0,1.0,1.6,0.3,Time
,,S20,1,male,33,anonymized,Serial_Dependence_U,2023.2.3,Win32,59.88023952,,,,,,,,,,,,1170.0091,4.0,1170.0096,,,,1172.7415,1173.2397,1172.2307,1172.7413,1171.0255,20.0,1172.2304,1173.2399,1173.7397,1173.7399,1174.7805,996.8,1174.781,2.0,1175.7719,4.0,23.0,143.0,7.0,1.0,1.2,0.7,Time
,,S20,1,male,33,anonymized,Serial_Dependence_U,2023.2.3,Win32,59.88023952,,,,,,,,,,,,1175.7734,4.0,1175.774,,,,1178.7073,1179.2044,1178.1948,1178.707,1176.7898,210.0,1178.1946,1179.2047,1179.7045,1179.7047,1180.6214,870.4,1180.6219,1.0,1181.6197,4.0,24.0,144.0,3.0,1.0,1.4,0.3,Time
,,S20,1,male,33,anonymized,Serial_Dependence_U,2023.2.3,Win32,59.88023952,,,,,,,,,,,,1181.6212,4.0,1181.6218,,,,1184.5436,1185.0342,1184.0386,1184.5434,1182.6251,210.0,1184.0383,1185.0342,1185.5372,1185.5376,1185.5665,4.199999988,1185.5677,1.0,1186.5685,4.0,25.0,145.0,8.0,1.0,1.4,0.7,Time
,,S20,1,male,33,anonymized,Serial_Dependence_U,2023.2.3,Win32,59.88023952,,,,,,,,,,,,1186.5703,4.0,1186.5708,,,,1189.7081,1190.2008,1189.1909,1189.7079,1187.5866,44.0,1189.1907,1190.2009,1190.7001,1190.7004,1191.5343,785.4,1191.5349,1.0,1192.5334,4.0,26.0,146.0,9.0,1.0,1.6,0.7,Time
,,S20,1,male,33,anonymized,Serial_Dependence_U,2023.2.3,Win32,59.88023952,,,,,,,,,,,,1192.5347,4.0,1192.5353,,,,1194.8712,1195.3658,1194.3679,1194.871,1193.5514,343.0,1194.3676,1195.366,1195.8654,1195.8656,1196.8896,984.0,1196.8902,4.0,1197.8811,4.0,27.0,147.0,25.0,1.0,0.8,0.7,Time
,,S20,1,male,33,anonymized,Serial_Dependence_U,2023.2.3,Win32,59.88023952,,,,,,,,,,,,1197.8821,4.0,1197.8827,,,,1200.8203,1201.314,1200.3154,1200.8201,1198.8998,223.0,1200.3153,1201.3142,1201.8153,1201.8154,1202.8807,1017.3,1202.8812,2.0,1203.8788,4.0,28.0,148.0,28.0,1.0,1.4,0.7,Time
,,S20,1,male,33,anonymized,Serial_Dependence_U,2023.2.3,Win32,59.88023952,,,,,,,,,,,,1203.88,4.0,1203.8804,,,,1206.1974,1206.695,1205.6837,1206.1969,1204.8812,98.0,1205.6835,1206.6952,1207.1949,1207.1951,1208.429,998.4,1208.4297,4.0,1209.4276,4.0,29.0,149.0,20.0,1.0,0.8,0.3,Time
,,S20,1,male,33,anonymized,Serial_Dependence_U,2023.2.3,Win32,59.88023952,,,,,,,,,,,,1209.4294,5.0,1219.5576,s,10.0938,,1222.1092,1222.6066,1221.5915,1222.1087,1220.5746,63.0,1221.5911,1222.6068,1223.1063,1223.1064,1225.9125,932.4,1225.9131,2.0,1226.9047,5.0,0.0,150.0,11.0,1.0,1.0,0.3,Time
,,S20,1,male,33,anonymized,Serial_Dependence_U,2023.2.3,Win32,59.88023952,,,,,,,,,,,,1226.906,5.0,1226.9108,,,,1229.2556,1229.7536,1228.7391,1229.255,1227.9223,293.0,1228.7389,1229.7537,1230.2534,1230.2535,1230.9606,670.0,1230.9611,2.0,1231.9536,5.0,1.0,151.0,5.0,1.0,0.8,0.7,Time
,,S20,1,male,33,anonymized,Serial_Dependence_U,2023.2.3,Win32,59.88023952,,,,,,,,,,,,1231.9553,5.0,1231.956,,,,1234.292,1234.7859,1233.7881,1234.2917,1232.9762,69.0,1233.7878,1234.7861,1235.2851,1235.2853,1236.0258,659.7,1236.0263,2.0,1237.0182,5.0,2.0,152.0,0.0,1.0,0.8,0.3,Time
,,S20,1,male,33,anonymized,Serial_Dependence_U,2023.2.3,Win32,59.88023952,,,,,,,,,,,,1237.0198,5.0,1237.0205,,,,1239.3738,1239.8673,1238.8522,1239.3736,1238.0358,135.0,1238.852,1239.8675,1240.3673,1240.3676,1241.0415,630.7,1241.042,2.0,1242.0332,5.0,3.0,153.0,20.0,1.0,0.8,0.3,Time
,,S20,1,male,33,anonymized,Serial_Dependence_U,2023.2.3,Win32,59.88023952,,,,,,,,,,,,1242.0349,5.0,1242.0355,,,,1244.784,1245.2823,1244.2681,1244.7839,1243.0511,198.0,1244.2676,1245.2825,1245.7822,1245.7825,1251.7991,9999.0,1251.8,0.0,1252.796,5.0,4.0,154.0,2.0,1.0,1.2,0.3,Time
,,S20,1,male,33,anonymized,Serial_Dependence_U,2023.2.3,Win32,59.88023952,,,,,,,,,,,,1252.7973,5.0,1252.7979,,,,1255.9475,1256.4447,1255.4306,1255.9469,1253.8139,64.0,1255.4301,1256.4447,1256.9444,1256.9445,1259.335,832.7,1259.3356,1.0,1260.3266,5.0,5.0,155.0,4.0,1.0,1.6,0.3,Time
,,S20,1,male,33,anonymized,Serial_Dependence_U,2023.2.3,Win32,59.88023952,,,,,,,,,,,,1260.3281,5.0,1260.3285,,,,1262.8841,1263.3761,1262.3672,1262.8838,1261.3446,116.0,1262.3667,1263.3762,1263.8757,1263.8759,1264.6829,768.1,1264.6833,2.0,1265.6754,5.0,6.0,156.0,26.0,1.0,1.0,0.7,Time
,,S20,1,male,33,anonymized,Serial_Dependence_U,2023.2.3,Win32,59.88023952,,,,,,,,,,,,1265.6776,5.0,1265.6783,,,,1268.609,1269.1075,1268.0986,1268.6088,1266.6921,264.0,1268.0983,1269.1077,1269.6074,1269.6076,1270.7299,1097.8,1270.7305,2.0,1271.7235,5.0,7.0,157.0,23.0,1.0,1.4,0.3,Time
,,S20,1,male,33,anonymized,Serial_Dependence_U,2023.2.3,Win32,59.88023952,,,,,,,,,,,,1271.7251,5.0,1271.726,,,,1274.2606,1274.7552,1273.758,1274.2603,1272.7472,255.0,1273.7577,1274.7553,1275.2554,1275.2557,1276.7722,1197.6,1276.7731,4.0,1277.7705,5.0,8.0,158.0,6.0,1.0,1.0,0.7,Time
,,S20,1,male,33,anonymized,Serial_Dependence_U,2023.2.3,Win32,59.88023952,,,,,,,,,,,,1277.7716,5.0,1277.7721,,,,1280.1098,1280.6034,1279.594,1280.1095,1278.7891,310.0,1279.5938,1280.6035,1281.1034,1281.1036,1282.7431,1596.9,1282.7436,5.0,1283.735,5.0,9.0,159.0,10.0,1.0,0.8,0.3,Time
,,S20,1,male,33,anonymized,Serial_Dependence_U,2023.2.3,Win32,59.88023952,,,,,,,,,,,,1283.7364,5.0,1283.7372,,,,1286.4687,1286.9679,1285.9533,1286.4683,1284.7425,179.0,1285.953,1286.9681,1287.4685,1287.4687,1290.2234,1398.9,1290.224,4.0,1291.2164,5.0,10.0,160.0,12.0,1.0,1.2,0.3,Time
,,S20,1,male,33,anonymized,Serial_Dependence_U,2023.2.3,Win32,59.88023952,,,,,,,,,,,,1291.2179,5.0,1291.2184,,,,1294.3503,1294.8484,1293.8341,1294.35,1292.2189,341.0,1293.8336,1294.8486,1295.3487,1295.3489,1298.0395,1273.4,1298.0399,2.0,1299.0299,5.0,11.0,161.0,29.0,1.0,1.6,0.7,Time
,,S20,1,male,33,anonymized,Serial_Dependence_U,2023.2.3,Win32,59.88023952,,,,,,,,,,,,1299.031,5.0,1299.0314,,,,1301.9689,1302.463,1301.464,1301.9688,1300.0523,265.0,1301.4636,1302.4632,1302.9629,1302.9631,1303.254,244.2,1303.2544,1.0,1304.2446,5.0,12.0,162.0,28.0,1.0,1.4,0.7,Time
,,S20,1,male,33,anonymized,Serial_Dependence_U,2023.2.3,Win32,59.88023952,,,,,,,,,,,,1304.2461,5.0,1304.2469,,,,1306.9793,1307.4769,1306.4631,1306.9791,1305.2523,114.0,1306.4628,1307.4769,1307.9769,1307.977,1309.0519,929.8,1309.0525,2.0,1310.0431,5.0,13.0,163.0,27.0,1.0,1.2,0.7,Time
,,S20,1,male,33,anonymized,Serial_Dependence_U,2023.2.3,Win32,59.88023952,,,,,,,,,,,,1310.0445,5.0,1310.0452,,,,1313.1941,1313.6919,1312.6772,1313.1939,1311.0606,144.0,1312.6769,1313.6919,1314.1917,1314.1918,1315.4487,1218.9,1315.4492,2.0,1316.4417,5.0,14.0,164.0,14.0,1.0,1.6,0.3,Time
,,S20,1,male,33,anonymized,Serial_Dependence_U,2023.2.3,Win32,59.88023952,,,,,,,,,,,,1316.4432,5.0,1316.4438,,,,1319.2051,1319.6898,1318.6798,1319.2047,1317.4625,267.0,1318.6796,1319.6898,1320.1898,1320.1899,1321.1901,949.7,1321.1907,2.0,1322.1888,5.0,15.0,165.0,22.0,1.0,1.2,0.3,Time
,,S20,1,male,33,anonymized,Serial_Dependence_U,2023.2.3,Win32,59.88023952,,,,,,,,,,,,1322.1899,5.0,1322.1904,,,,1324.9893,1325.4879,1324.4575,1324.989,1323.2232,41.0,1324.4572,1325.4881,1325.9873,1325.9875,1326.9219,722.4,1326.9226,1.0,1327.9205,5.0,16.0,166.0,7.0,1.0,1.2,0.7,Time
,,S20,1,male,33,anonymized,Serial_Dependence_U,2023.2.3,Win32,59.88023952,,,,,,,,,,,,1327.922,5.0,1327.9227,,,,1330.9205,1331.4188,1330.388,1330.9203,1328.9549,239.0,1330.3878,1331.4188,1331.9189,1331.919,1333.2526,1291.4,1333.2531,2.0,1334.2515,5.0,17.0,167.0,18.0,1.0,1.4,0.7,Time
,,S20,1,male,33,anonymized,Serial_Dependence_U,2023.2.3,Win32,59.88023952,,,,,,,,,,,,1334.2526,5.0,1334.2536,,,,1336.6192,1337.117,1336.0862,1336.6189,1335.2532,259.0,1336.0858,1337.117,1337.617,1337.617,1338.9178,784.3,1338.9182,3.0,1339.9176,5.0,18.0,168.0,15.0,1.0,0.8,0.7,Time
,,S20,1,male,33,anonymized,Serial_Dependence_U,2023.2.3,Win32,59.88023952,,,,,,,,,,,,1339.9211,5.0,1339.9231,,,,1342.3173,1342.8152,1341.7841,1342.317,1340.9512,351.0,1341.784,1342.8152,1343.3148,1343.3149,1344.7156,1005.0,1344.7162,4.0,1345.7142,5.0,19.0,169.0,25.0,1.0,0.8,0.7,Time
,,S20,1,male,33,anonymized,Serial_Dependence_U,2023.2.3,Win32,59.88023952,,,,,,,,,,,,1345.7154,5.0,1345.7162,,,,1348.9151,1349.4134,1348.3814,1348.9149,1346.7483,256.0,1348.3812,1349.4135,1349.9133,1349.9134,1351.347,1378.0,1351.3479,2.0,1352.3452,5.0,20.0,170.0,9.0,1.0,1.6,0.7,Time
,,S20,1,male,33,anonymized,Serial_Dependence_U,2023.2.3,Win32,59.88023952,,,,,,,,,,,,1352.3466,5.0,1352.3471,,,,1354.9464,1355.4439,1354.4134,1354.9461,1353.3809,275.0,1354.4132,1355.444,1355.944,1355.9441,1357.2771,1235.7,1357.2777,4.0,1358.2766,5.0,21.0,171.0,16.0,1.0,1.0,0.7,Time
,,S20,1,male,33,anonymized,Serial_Dependence_U,2023.2.3,Win32,59.88023952,,,,,,,,,,,,1358.278,5.0,1358.2789,,,,1361.0452,1361.5424,1360.51,1361.0448,1359.279,82.0,1360.5098,1361.5425,1362.0422,1362.0423,1363.543,1430.9,1363.5437,4.0,1364.5412,5.0,22.0,172.0,17.0,1.0,1.2,0.7,Time
,,S20,1,male,33,anonymized,Serial_Dependence_U,2023.2.3,Win32,59.88023952,,,,,,,,,,,,1364.5431,5.0,1364.5442,,,,1367.5081,1368.0065,1366.9757,1367.5079,1365.5435,67.0,1366.9755,1368.0065,1368.5064,1368.5066,1370.709,1327.7,1370.7097,2.0,1371.7049,5.0,23.0,173.0,3.0,1.0,1.4,0.3,Time
,,S20,1,male,33,anonymized,Serial_Dependence_U,2023.2.3,Win32,59.88023952,,,,,,,,,,,,1371.7062,5.0,1371.7066,,,,1374.6403,1375.1375,1374.1381,1374.64,1372.7076,44.0,1374.1379,1375.1377,1375.6373,1375.6374,1377.1708,1129.7,1377.1712,2.0,1378.1698,5.0,24.0,174.0,8.0,1.0,1.4,0.7,Time
,,S20,1,male,33,anonymized,Serial_Dependence_U,2023.2.3,Win32,59.88023952,,,,,,,,,,,,1378.1712,5.0,1378.1721,,,,1381.1714,1381.6681,1380.6373,1381.1712,1379.2039,273.0,1380.6371,1381.6681,1382.1688,1382.1688,1383.9355,1353.9,1383.9362,3.0,1384.9343,5.0,25.0,175.0,13.0,1.0,1.4,0.3,Time
,,S20,1,male,33,anonymized,Serial_Dependence_U,2023.2.3,Win32,59.88023952,,,,,,,,,,,,1384.9361,5.0,1384.937,,,,1387.5019,1387.9996,1386.9673,1387.5016,1385.9369,202.0,1386.9672,1387.9996,1388.4991,1388.4992,1389.5674,841.9,1389.5679,2.0,1390.5664,5.0,26.0,176.0,1.0,1.0,1.0,0.3,Time
,,S20,1,male,33,anonymized,Serial_Dependence_U,2023.2.3,Win32,59.88023952,,,,,,,,,,,,1390.5681,5.0,1390.5688,,,,1393.1673,1393.6647,1392.6339,1393.1669,1391.5993,291.0,1392.6335,1393.6648,1394.1645,1394.1646,1395.2977,964.3,1395.2981,3.0,1396.2968,5.0,27.0,177.0,21.0,1.0,1.0,0.3,Time
,,S20,1,male,33,anonymized,Serial_Dependence_U,2023.2.3,Win32,59.88023952,,,,,,,,,,,,1396.298,5.0,1396.2985,,,,1399.4975,1399.9955,1398.9657,1399.4972,1397.3324,64.0,1398.9655,1399.9955,1400.4954,1400.4955,1400.8302,287.1,1400.8307,1.0,1401.8285,5.0,28.0,178.0,24.0,1.0,1.6,0.3,Time
,,S20,1,male,33,anonymized,Serial_Dependence_U,2023.2.3,Win32,59.88023952,,,,,,,,,,,,1401.8299,5.0,1401.8304,,,,1404.9964,1405.4941,1404.4946,1404.9961,1402.8641,68.0,1404.4943,1405.4943,1405.994,1405.9941,1410.5592,1585.0,1410.5596,3.0,1411.5584,5.0,29.0,179.0,19.0,1.0,1.6,0.7,Time
,,S20,1,male,33,anonymized,Serial_Dependence_U,2023.2.3,Win32,59.88023952,,,,,,,,,,,,1411.5597,6.0,1426.887,s,15.2712,,1429.6876,1430.1852,1429.1531,1429.6875,1427.9209,107.0,1429.1528,1430.1853,1430.6853,1430.6853,1433.0192,1033.0,1433.0198,2.0,1434.0175,6.0,0.0,180.0,22.0,1.0,1.2,0.3,Time
,,S20,1,male,33,anonymized,Serial_Dependence_U,2023.2.3,Win32,59.88023952,,,,,,,,,,,,1434.0189,6.0,1434.0251,,,,1436.5857,1437.0831,1436.0837,1436.5855,1435.0518,335.0,1436.0836,1437.0833,1437.5832,1437.5833,1441.1156,1006.8,1441.1163,3.0,1442.1148,6.0,1.0,181.0,16.0,1.0,1.0,0.7,Time
,,S20,1,male,33,anonymized,Serial_Dependence_U,2023.2.3,Win32,59.88023952,,,,,,,,,,,,1442.1163,6.0,1442.1168,,,,1445.3152,1445.8137,1444.782,1445.315,1443.1488,239.0,1444.7817,1445.8138,1446.3133,1446.3134,1448.4143,965.7,1448.4149,1.0,1449.4127,6.0,2.0,182.0,4.0,1.0,1.6,0.3,Time
,,S20,1,male,33,anonymized,Serial_Dependence_U,2023.2.3,Win32,59.88023952,,,,,,,,,,,,1449.4139,6.0,1449.4146,,,,1452.2133,1452.711,1451.6802,1452.213,1450.4472,208.0,1451.6799,1452.711,1453.211,1453.2111,1455.4113,1702.9,1455.4119,5.0,1456.4098,6.0,3.0,183.0,27.0,1.0,1.2,0.7,Time
,,S20,1,male,33,anonymized,Serial_Dependence_U,2023.2.3,Win32,59.88023952,,,,,,,,,,,,1456.4111,6.0,1456.4117,,,,1459.2103,1459.7089,1458.6772,1459.21,1457.4442,216.0,1458.6769,1459.709,1460.2089,1460.2091,1466.2405,9999.0,1466.2408,0.0,1467.2395,6.0,4.0,184.0,12.0,1.0,1.2,0.3,Time
,,S20,1,male,33,anonymized,Serial_Dependence_U,2023.2.3,Win32,59.88023952,,,,,,,,,,,,1467.2406,6.0,1467.2411,,,,1469.84,1470.3387,1469.3069,1469.8397,1468.2742,349.0,1469.3066,1470.3387,1470.8383,1470.8384,1471.9389,796.9,1471.9395,2.0,1472.938,6.0,5.0,185.0,26.0,1.0,1.0,0.7,Time
,,S20,1,male,33,anonymized,Serial_Dependence_U,2023.2.3,Win32,59.88023952,,,,,,,,,,,,1472.9393,6.0,1472.9399,,,,1475.338,1475.8368,1474.805,1475.3377,1473.9719,34.0,1474.8048,1475.8368,1476.3365,1476.3366,1478.1371,696.3,1478.1378,2.0,1479.1357,6.0,6.0,186.0,15.0,1.0,0.8,0.7,Time
,,S20,1,male,33,anonymized,Serial_Dependence_U,2023.2.3,Win32,59.88023952,,,,,,,,,,,,1479.1368,6.0,1479.1373,,,,1482.1356,1482.6342,1481.6036,1482.1353,1480.1691,214.0,1481.6034,1482.6343,1483.1342,1483.1343,1485.2677,797.9,1485.2683,1.0,1486.2665,6.0,7.0,187.0,13.0,1.0,1.4,0.3,Time
,,S20,1,male,33,anonymized,Serial_Dependence_U,2023.2.3,Win32,59.88023952,,,,,,,,,,,,1486.2676,6.0,1486.268,,,,1488.8671,1489.3651,1488.3342,1488.8668,1487.3008,129.0,1488.3339,1489.3652,1489.865,1489.8652,1495.8979,9999.0,1495.8985,0.0,1496.8963,6.0,8.0,188.0,11.0,1.0,1.0,0.3,Time
,,S20,1,male,33,anonymized,Serial_Dependence_U,2023.2.3,Win32,59.88023952,,,,,,,,,,,,1496.8973,6.0,1496.8978,,,,1499.8962,1500.3947,1499.3639,1499.896,1497.9308,224.0,1499.3637,1500.3947,1500.8947,1500.8947,1502.4292,1191.2,1502.4299,2.0,1503.4274,6.0,9.0,189.0,18.0,1.0,1.4,0.7,Time
,,S20,1,male,33,anonymized,Serial_Dependence_U,2023.2.3,Win32,59.88023952,,,,,,,,,,,,1503.4286,6.0,1503.4293,,,,1506.2278,1506.7261,1505.6949,1506.2275,1504.4616,58.0,1505.6946,1506.7262,1507.2261,1507.2262,1508.3599,840.8,1508.3605,2.0,1509.3593,6.0,10.0,190.0,2.0,1.0,1.2,0.3,Time
,,S20,1,male,33,anonymized,Serial_Dependence_U,2023.2.3,Win32,59.88023952,,,,,,,,,,,,1509.3603,6.0,1509.3609,,,,1511.7592,1512.2576,1511.2255,1511.759,1510.3934,233.0,1511.2253,1512.2576,1512.7577,1512.7578,1514.3244,1039.8,1514.3249,4.0,1515.3235,6.0,11.0,191.0,25.0,1.0,0.8,0.7,Time
,,S20,1,male,33,anonymized,Serial_Dependence_U,2023.2.3,Win32,59.88023952,,,,,,,,,,,,1515.3251,6.0,1515.3258,,,,1518.5241,1519.0219,1517.9904,1518.5239,1516.3575,186.0,1517.9901,1519.022,1519.5222,1519.5222,1521.3554,1410.3,1521.3559,2.0,1522.3542,6.0,12.0,192.0,29.0,1.0,1.6,0.7,Time
,,S20,1,male,33,anonymized,Serial_Dependence_U,2023.2.3,Win32,59.88023952,,,,,,,,,,,,1522.3553,6.0,1522.3557,,,,1525.5551,1526.0531,1525.0212,1525.5549,1523.3891,42.0,1525.021,1526.0532,1526.5528,1526.5529,1528.0536,1157.4,1528.0543,2.0,1529.0522,6.0,13.0,193.0,14.0,1.0,1.6,0.3,Time
,,S20,1,male,33,anonymized,Serial_Dependence_U,2023.2.3,Win32,59.88023952,,,,,,,,,,,,1529.0537,6.0,1529.0545,,,,1531.4536,1531.9512,1530.9197,1531.4533,1530.0865,224.0,1530.9194,1531.9513,1532.4512,1532.4514,1534.3505,1449.0,1534.3509,5.0,1535.3495,6.0,14.0,194.0,5.0,1.0,0.8,0.7,Time
,,S20,1,male,33,anonymized,Serial_Dependence_U,2023.2.3,Win32,59.88023952,,,,,,,,,,,,1535.3507,6.0,1535.3511,,,,1538.5501,1539.0486,1538.0166,1538.5499,1536.385,44.0,1538.0165,1539.0487,1539.5489,1539.549,1545.5805,9999.0,1545.581,0.0,1546.5794,6.0,15.0,195.0,9.0,1.0,1.6,0.7,Time
,,S20,1,male,33,anonymized,Serial_Dependence_U,2023.2.3,Win32,59.88023952,,,,,,,,,,,,1546.5807,6.0,1546.5812,,,,1548.9806,1549.478,1548.4467,1548.9804,1547.6131,180.0,1548.4464,1549.478,1549.9784,1549.9785,1551.8123,1415.4,1551.813,5.0,1552.8108,6.0,16.0,196.0,20.0,1.0,0.8,0.3,Time
,,S20,1,male,33,anonymized,Serial_Dependence_U,2023.2.3,Win32,59.88023952,,,,,,,,,,,,1552.8122,6.0,1552.813,,,,1555.4104,1555.9094,1554.8783,1555.4102,1553.8453,194.0,1554.8781,1555.9095,1556.4092,1556.4092,1558.1762,1359.5,1558.1769,5.0,1559.1751,6.0,17.0,197.0,1.0,1.0,1.0,0.3,Time
,,S20,1,male,33,anonymized,Serial_Dependence_U,2023.2.3,Win32,59.88023952,,,,,,,,,,,,1559.1762,6.0,1559.1766,,,,1561.5757,1562.0739,1561.0431,1561.5755,1560.2092,264.0,1561.0428,1562.0739,1562.5748,1562.575,1564.0077,1037.5,1564.0083,4.0,1565.0066,6.0,18.0,198.0,0.0,1.0,0.8,0.3,Time
,,S20,1,male,33,anonymized,Serial_Dependence_U,2023.2.3,Win32,59.88023952,,,,,,,,,,,,1565.0077,6.0,1565.0084,,,,1567.8071,1568.3053,1567.2742,1567.8068,1566.0409,116.0,1567.2739,1568.3053,1568.805,1568.805,1571.3054,1955.4,1571.3061,5.0,1572.3039,6.0,19.0,199.0,17.0,1.0,1.2,0.7,Time
,,S20,1,male,33,anonymized,Serial_Dependence_U,2023.2.3,Win32,59.88023952,,,,,,,,,,,,1572.3049,6.0,1572.3054,,,,1575.3049,1575.8031,1574.7712,1575.3047,1573.3382,107.0,1574.7708,1575.8032,1576.3026,1576.3028,1578.0037,1283.9,1578.0043,2.0,1579.0018,6.0,20.0,200.0,28.0,1.0,1.4,0.7,Time
,,S20,1,male,33,anonymized,Serial_Dependence_U,2023.2.3,Win32,59.88023952,,,,,,,,,,,,1579.0033,6.0,1579.0038,,,,1582.2022,1582.7005,1581.6691,1582.2018,1580.0357,37.0,1581.6689,1582.7006,1583.2004,1583.2005,1584.5678,1320.4,1584.5683,2.0,1585.5661,6.0,21.0,201.0,24.0,1.0,1.6,0.3,Time
,,S20,1,male,33,anonymized,Serial_Dependence_U,2023.2.3,Win32,59.88023952,,,,,,,,,,,,1585.5675,6.0,1585.5682,,,,1588.1665,1588.6649,1587.6341,1588.1662,1586.5997,49.0,1587.6338,1588.6651,1589.1647,1589.1648,1590.1657,952.9,1590.1663,3.0,1591.164,6.0,22.0,202.0,21.0,1.0,1.0,0.3,Time
,,S20,1,male,33,anonymized,Serial_Dependence_U,2023.2.3,Win32,59.88023952,,,,,,,,,,,,1591.1652,6.0,1591.1656,,,,1594.1643,1594.663,1593.6314,1594.1641,1592.1983,274.0,1593.6311,1594.6631,1595.1628,1595.1629,1596.2637,1035.1,1596.2643,2.0,1597.2624,6.0,23.0,203.0,8.0,1.0,1.4,0.7,Time
,,S20,1,male,33,anonymized,Serial_Dependence_U,2023.2.3,Win32,59.88023952,,,,,,,,,,,,1597.264,6.0,1597.2647,,,,1600.2629,1600.7609,1599.7293,1600.2625,1598.2963,331.0,1599.7289,1600.7609,1601.2606,1601.2607,1602.761,1149.3,1602.7617,2.0,1603.7595,6.0,24.0,204.0,3.0,1.0,1.4,0.3,Time
,,S20,1,male,33,anonymized,Serial_Dependence_U,2023.2.3,Win32,59.88023952,,,,,,,,,,,,1603.7607,6.0,1603.7611,,,,1606.1273,1606.6258,1605.5945,1606.127,1604.7933,287.0,1605.5943,1606.6259,1607.1254,1607.1256,1608.9928,1023.1,1608.9934,4.0,1609.991,6.0,25.0,205.0,10.0,1.0,0.8,0.3,Time
,,S20,1,male,33,anonymized,Serial_Dependence_U,2023.2.3,Win32,59.88023952,,,,,,,,,,,,1609.9924,6.0,1609.9933,,,,1613.191,1613.6897,1612.6577,1613.1908,1611.0252,165.0,1612.6576,1613.6898,1614.1897,1614.1898,1616.5235,1699.4,1616.5241,4.0,1617.5223,6.0,26.0,206.0,19.0,1.0,1.6,0.7,Time
,,S20,1,male,33,anonymized,Serial_Dependence_U,2023.2.3,Win32,59.88023952,,,,,,,,,,,,1617.5239,6.0,1617.5243,,,,1620.3227,1620.8207,1619.7892,1620.3224,1618.5558,90.0,1619.789,1620.8207,1621.3206,1621.3207,1622.7542,1001.9,1622.7549,2.0,1623.7534,6.0,27.0,207.0,7.0,1.0,1.2,0.7,Time
,,S20,1,male,33,anonymized,Serial_Dependence_U,2023.2.3,Win32,59.88023952,,,,,,,,,,,,1623.7546,6.0,1623.7552,,,,1626.3538,1626.8519,1625.8199,1626.3536,1624.7886,257.0,1625.8197,1626.852,1627.3524,1627.3525,1628.9529,912.0,1628.9535,2.0,1629.9511,6.0,28.0,208.0,6.0,1.0,1.0,0.7,Time
,,S20,1,male,33,anonymized,Serial_Dependence_U,2023.2.3,Win32,59.88023952,,,,,,,,,,,,1629.9525,6.0,1629.9533,,,,1632.9511,1633.45,1632.4183,1632.9508,1630.9857,221.0,1632.4181,1633.45,1633.9494,1633.9495,1634.2845,288.1,1634.285,1.0,1635.2824,6.0,29.0,209.0,23.0,1.0,1.4,0.3,Time
,,S20,1,male,33,anonymized,Serial_Dependence_U,2023.2.3,Win32,59.88023952,,,,,,,,,,,,1635.2838,7.0,1673.4699,s,38.1563,,1676.4362,1676.9349,1675.9041,1676.436,1674.5026,239.0,1675.9038,1676.935,1677.4348,1677.4348,1681.4335,1535.0,1681.4339,4.0,1682.433,7.0,0.0,210.0,28.0,1.0,1.4,0.7,Time
,,S20,1,male,33,anonymized,Serial_Dependence_U,2023.2.3,Win32,59.88023952,,,,,,,,,,,,1682.4345,7.0,1682.4409,,,,1684.8337,1685.332,1684.3007,1684.8335,1683.4672,182.0,1684.3004,1685.3321,1685.8319,1685.832,1687.9995,1632.0,1688.0001,5.0,1688.9973,7.0,1.0,211.0,20.0,1.0,0.8,0.3,Time
,,S20,1,male,33,anonymized,Serial_Dependence_U,2023.2.3,Win32,59.88023952,,,,,,,,,,,,1688.9983,7.0,1688.999,,,,1691.9974,1692.4963,1691.4649,1691.9973,1690.0325,285.0,1691.4645,1692.4964,1692.9965,1692.9966,1694.9969,1100.1,1694.9975,2.0,1695.9951,7.0,2.0,212.0,23.0,1.0,1.4,0.3,Time
,,S20,1,male,33,anonymized,Serial_Dependence_U,2023.2.3,Win32,59.88023952,,,,,,,,,,,,1695.9962,7.0,1695.9969,,,,1698.9958,1699.4937,1698.4631,1698.9956,1697.0296,161.0,1698.4628,1699.4938,1699.9935,1699.9938,1701.3283,1281.9,1701.3288,2.0,1702.3262,7.0,3.0,213.0,18.0,1.0,1.4,0.7,Time
,,S20,1,male,33,anonymized,Serial_Dependence_U,2023.2.3,Win32,59.88023952,,,,,,,,,,,,1702.3273,7.0,1702.3279,,,,1704.9267,1705.4251,1704.3941,1704.9265,1703.3608,302.0,1704.3938,1705.4252,1705.9251,1705.9252,1707.2926,932.5,1707.2932,2.0,1708.2908,7.0,4.0,214.0,11.0,1.0,1.0,0.3,Time
,,S20,1,male,33,anonymized,Serial_Dependence_U,2023.2.3,Win32,59.88023952,,,,,,,,,,,,1708.2921,7.0,1708.2929,,,,1711.2911,1711.7898,1710.7591,1711.2909,1709.3254,241.0,1710.7589,1711.7899,1712.2899,1712.2901,1714.0239,1629.1,1714.0247,4.0,1715.022,7.0,5.0,215.0,8.0,1.0,1.4,0.7,Time
,,S20,1,male,33,anonymized,Serial_Dependence_U,2023.2.3,Win32,59.88023952,,,,,,,,,,,,1715.0235,7.0,1715.0242,,,,1717.6228,1718.1211,1717.0881,1717.6226,1716.0563,187.0,1717.088,1718.1212,1718.6205,1718.6207,1720.388,1196.7,1720.3886,4.0,1721.3868,7.0,6.0,216.0,21.0,1.0,1.0,0.3,Time
,,S20,1,male,33,anonymized,Serial_Dependence_U,2023.2.3,Win32,59.88023952,,,,,,,,,,,,1721.3878,7.0,1721.3882,,,,1723.7872,1724.2853,1723.2549,1723.7869,1722.4209,155.0,1723.2545,1724.2854,1724.7856,1724.7858,1726.2189,832.3,1726.2193,3.0,1727.2184,7.0,7.0,217.0,0.0,1.0,0.8,0.3,Time
,,S20,1,male,33,anonymized,Serial_Dependence_U,2023.2.3,Win32,59.88023952,,,,,,,,,,,,1727.2195,7.0,1727.2198,,,,1729.8175,1730.3169,1729.2849,1729.8173,1728.253,130.0,1729.2847,1730.3169,1730.8166,1730.8167,1732.0828,644.5,1732.0832,1.0,1733.0824,7.0,8.0,218.0,26.0,1.0,1.0,0.7,Time
,,S20,1,male,33,anonymized,Serial_Dependence_U,2023.2.3,Win32,59.88023952,,,,,,,,,,,,1733.0835,7.0,1733.0839,,,,1735.8834,1736.3811,1735.35,1735.8831,1734.1196,349.0,1735.3498,1736.3812,1736.8812,1736.8812,1738.7148,889.3,1738.7155,2.0,1739.7138,7.0,9.0,219.0,12.0,1.0,1.2,0.3,Time
,,S20,1,male,33,anonymized,Serial_Dependence_U,2023.2.3,Win32,59.88023952,,,,,,,,,,,,1739.7148,7.0,1739.7155,,,,1742.914,1743.4124,1742.3807,1742.9138,1740.7483,64.0,1742.3804,1743.4125,1743.9126,1743.9129,1745.4123,1464.4,1745.4128,2.0,1746.4115,7.0,10.0,220.0,24.0,1.0,1.6,0.3,Time
,,S20,1,male,33,anonymized,Serial_Dependence_U,2023.2.3,Win32,59.88023952,,,,,,,,,,,,1746.4132,7.0,1746.4139,,,,1749.1786,1749.677,1748.6459,1749.1783,1747.4443,316.0,1748.6456,1749.6771,1750.1772,1750.1773,1751.8437,1251.2,1751.8443,3.0,1752.8427,7.0,11.0,221.0,27.0,1.0,1.2,0.7,Time
,,S20,1,male,33,anonymized,Serial_Dependence_U,2023.2.3,Win32,59.88023952,,,,,,,,,,,,1752.8441,7.0,1752.8448,,,,1755.8437,1756.3412,1755.3095,1755.8434,1753.8772,24.0,1755.3094,1756.3413,1756.8412,1756.8413,1758.1078,1232.9,1758.1083,2.0,1759.1071,7.0,12.0,222.0,3.0,1.0,1.4,0.3,Time
,,S20,1,male,33,anonymized,Serial_Dependence_U,2023.2.3,Win32,59.88023952,,,,,,,,,,,,1759.1084,7.0,1759.109,,,,1761.8748,1762.3726,1761.341,1761.8747,1760.109,188.0,1761.3407,1762.3726,1762.8723,1762.8724,1763.8066,536.2,1763.8074,1.0,1764.8049,7.0,13.0,223.0,22.0,1.0,1.2,0.3,Time
,,S20,1,male,33,anonymized,Serial_Dependence_U,2023.2.3,Win32,59.88023952,,,,,,,,,,,,1764.8061,7.0,1764.8066,,,,1767.4051,1767.9037,1766.8727,1767.405,1765.8391,234.0,1766.8726,1767.9038,1768.4037,1768.4038,1770.0719,1213.4,1770.0725,4.0,1771.0695,7.0,14.0,224.0,16.0,1.0,1.0,0.7,Time
,,S20,1,male,33,anonymized,Serial_Dependence_U,2023.2.3,Win32,59.88023952,,,,,,,,,,,,1771.0705,7.0,1771.0709,,,,1773.4701,1773.9687,1772.9375,1773.47,1772.1031,109.0,1772.9372,1773.9688,1774.4685,1774.4686,1775.7693,1226.6,1775.7699,5.0,1776.7676,7.0,15.0,225.0,15.0,1.0,0.8,0.7,Time
,,S20,1,male,33,anonymized,Serial_Dependence_U,2023.2.3,Win32,59.88023952,,,,,,,,,,,,1776.7689,7.0,1776.7693,,,,1779.9694,1780.4662,1779.4345,1779.9691,1777.8025,223.0,1779.4343,1780.4663,1780.9661,1780.9663,1781.6007,94.90000004,1781.6013,1.0,1782.5992,7.0,16.0,226.0,14.0,1.0,1.6,0.3,Time
,,S20,1,male,33,anonymized,Serial_Dependence_U,2023.2.3,Win32,59.88023952,,,,,,,,,,,,1782.6003,7.0,1782.6009,,,,1784.9989,1785.4983,1784.4661,1784.9987,1783.6339,202.0,1784.4659,1785.4983,1785.9983,1785.9984,1788.0983,1057.6,1788.099,5.0,1789.0967,7.0,17.0,227.0,10.0,1.0,0.8,0.3,Time
,,S20,1,male,33,anonymized,Serial_Dependence_U,2023.2.3,Win32,59.88023952,,,,,,,,,,,,1789.0982,7.0,1789.0989,,,,1791.4979,1791.9958,1790.9646,1791.4976,1790.1318,314.0,1790.9643,1791.9959,1792.4962,1792.4963,1794.8959,1497.8,1794.8965,5.0,1795.8948,7.0,18.0,228.0,5.0,1.0,0.8,0.7,Time
,,S20,1,male,33,anonymized,Serial_Dependence_U,2023.2.3,Win32,59.88023952,,,,,,,,,,,,1795.8958,7.0,1795.8963,,,,1798.4945,1798.9936,1797.9626,1798.4943,1796.9285,177.0,1797.9624,1798.9936,1799.4933,1799.4935,1800.8274,1247.6,1800.828,4.0,1801.8261,7.0,19.0,229.0,6.0,1.0,1.0,0.7,Time
,,S20,1,male,33,anonymized,Serial_Dependence_U,2023.2.3,Win32,59.88023952,,,,,,,,,,,,1801.8271,7.0,1801.8277,,,,1805.0262,1805.5245,1804.4936,1805.0259,1802.8607,99.0,1804.4934,1805.5245,1806.0243,1806.0245,1807.8585,1398.3,1807.8591,2.0,1808.8571,7.0,20.0,230.0,9.0,1.0,1.6,0.7,Time
,,S20,1,male,33,anonymized,Serial_Dependence_U,2023.2.3,Win32,59.88023952,,,,,,,,,,,,1808.8583,7.0,1808.8587,,,,1811.4574,1811.9558,1810.9244,1811.4571,1809.891,270.0,1810.9242,1811.9558,1812.4557,1812.4558,1813.8557,988.1,1813.8563,3.0,1814.8546,7.0,21.0,231.0,1.0,1.0,1.0,0.3,Time
,,S20,1,male,33,anonymized,Serial_Dependence_U,2023.2.3,Win32,59.88023952,,,,,,,,,,,,1814.8558,7.0,1814.8563,,,,1817.2557,1817.7538,1816.7227,1817.2555,1815.8896,291.0,1816.7224,1817.7538,1818.2534,1818.2534,1819.8538,1118.1,1819.8545,5.0,1820.8527,7.0,22.0,232.0,25.0,1.0,0.8,0.7,Time
,,S20,1,male,33,anonymized,Serial_Dependence_U,2023.2.3,Win32,59.88023952,,,,,,,,,,,,1820.8537,7.0,1820.8541,,,,1823.6535,1824.1518,1823.1199,1823.6532,1821.8873,335.0,1823.1197,1824.1519,1824.6519,1824.652,1826.785,1711.7,1826.7855,5.0,1827.7834,7.0,23.0,233.0,17.0,1.0,1.2,0.7,Time
,,S20,1,male,33,anonymized,Serial_Dependence_U,2023.2.3,Win32,59.88023952,,,,,,,,,,,,1827.7844,7.0,1827.7848,,,,1830.951,1831.4489,1830.4177,1830.9508,1828.7851,48.0,1830.4175,1831.449,1831.9488,1831.9489,1833.4501,1362.7,1833.4507,2.0,1834.4484,7.0,24.0,234.0,29.0,1.0,1.6,0.7,Time
,,S20,1,male,33,anonymized,Serial_Dependence_U,2023.2.3,Win32,59.88023952,,,,,,,,,,,,1834.4495,7.0,1834.4501,,,,1837.2492,1837.7471,1836.7156,1837.2489,1835.4833,288.0,1836.7153,1837.7472,1838.2469,1838.247,1839.8477,1203.7,1839.8485,3.0,1840.8462,7.0,25.0,235.0,7.0,1.0,1.2,0.7,Time
,,S20,1,male,33,anonymized,Serial_Dependence_U,2023.2.3,Win32,59.88023952,,,,,,,,,,,,1840.8475,7.0,1840.8481,,,,1843.846,1844.3448,1843.3139,1843.8458,1841.8814,359.0,1843.3136,1844.3449,1844.8444,1844.8446,1846.2125,1198.3,1846.2131,2.0,1847.2103,7.0,26.0,236.0,13.0,1.0,1.4,0.3,Time
,,S20,1,male,33,anonymized,Serial_Dependence_U,2023.2.3,Win32,59.88023952,,,,,,,,,,,,1847.2118,7.0,1847.2125,,,,1850.0116,1850.5095,1849.4777,1850.0113,1848.2452,280.0,1849.4774,1850.5095,1851.0092,1851.0093,1855.9097,1259.6,1855.9105,3.0,1856.9074,7.0,27.0,237.0,2.0,1.0,1.2,0.3,Time
,,S20,1,male,33,anonymized,Serial_Dependence_U,2023.2.3,Win32,59.88023952,,,,,,,,,,,,1856.9088,7.0,1856.9096,,,,1860.0756,1860.5726,1859.5409,1860.0754,1857.9092,41.0,1859.5407,1860.5729,1861.073,1861.0731,1862.7068,1306.5,1862.7076,2.0,1863.7048,7.0,28.0,238.0,4.0,1.0,1.6,0.3,Time
,,S20,1,male,33,anonymized,Serial_Dependence_U,2023.2.3,Win32,59.88023952,,,,,,,,,,,,1863.7061,7.0,1863.7068,,,,1866.9057,1867.4035,1866.3735,1866.9054,1864.74,110.0,1866.3731,1867.4035,1867.9046,1867.9047,1869.1047,1148.5,1869.1054,2.0,1870.103,7.0,29.0,239.0,19.0,1.0,1.6,0.7,Time
,,S20,1,male,33,anonymized,Serial_Dependence_U,2023.2.3,Win32,59.88023952,,,,,,,,,,,,1870.1042,8.0,1894.528,s,24.3963,,1897.7287,1898.2268,1897.1953,1897.7285,1895.5632,221.0,1897.1951,1898.2269,1898.7266,1898.7267,1900.4606,1360.1,1900.4612,2.0,1901.459,8.0,0.0,240.0,24.0,1.0,1.6,0.3,Time
,,S20,1,male,33,anonymized,Serial_Dependence_U,2023.2.3,Win32,59.88023952,,,,,,,,,,,,1901.4604,8.0,1901.4656,,,,1904.2593,1904.7576,1903.7264,1904.2591,1902.4936,73.0,1903.7261,1904.7577,1905.2572,1905.2572,1906.9247,1402.8,1906.9252,4.0,1907.9234,8.0,1.0,241.0,7.0,1.0,1.2,0.7,Time
,,S20,1,male,33,anonymized,Serial_Dependence_U,2023.2.3,Win32,59.88023952,,,,,,,,,,,,1907.9248,8.0,1907.9258,,,,1910.9238,1911.4222,1910.3899,1910.9235,1908.958,117.0,1910.3897,1911.4224,1911.9218,1911.922,1913.5216,1543.3,1913.522,4.0,1914.5212,8.0,2.0,242.0,23.0,1.0,1.4,0.3,Time
,,S20,1,male,33,anonymized,Serial_Dependence_U,2023.2.3,Win32,59.88023952,,,,,,,,,,,,1914.5226,8.0,1914.5232,,,,1917.5211,1918.0196,1916.988,1917.521,1915.5553,353.0,1916.9877,1918.0197,1918.5199,1918.5201,1919.82,1251.3,1919.8207,2.0,1920.8189,8.0,3.0,243.0,13.0,1.0,1.4,0.3,Time
,,S20,1,male,33,anonymized,Serial_Dependence_U,2023.2.3,Win32,59.88023952,,,,,,,,,,,,1920.8201,8.0,1920.821,,,,1923.8191,1924.3174,1923.2855,1923.8188,1921.8531,111.0,1923.2854,1924.3175,1924.8178,1924.818,1925.9188,1065.2,1925.9195,2.0,1926.9172,8.0,4.0,244.0,28.0,1.0,1.4,0.7,Time
,,S20,1,male,33,anonymized,Serial_Dependence_U,2023.2.3,Win32,59.88023952,,,,,,,,,,,,1926.9186,8.0,1926.9192,,,,1929.9168,1930.4152,1929.3844,1929.9165,1927.9521,282.0,1929.3842,1930.4153,1930.9155,1930.9157,1933.1482,1784.4,1933.1485,4.0,1934.1474,8.0,5.0,245.0,18.0,1.0,1.4,0.7,Time
,,S20,1,male,33,anonymized,Serial_Dependence_U,2023.2.3,Win32,59.88023952,,,,,,,,,,,,1934.1484,8.0,1934.1488,,,,1936.5481,1937.0467,1936.0156,1936.5479,1935.1824,115.0,1936.0153,1937.0467,1937.5469,1937.5469,1938.5796,979.1,1938.5799,4.0,1939.5793,8.0,6.0,246.0,0.0,1.0,0.8,0.3,Time
,,S20,1,male,33,anonymized,Serial_Dependence_U,2023.2.3,Win32,59.88023952,,,,,,,,,,,,1939.5802,8.0,1939.5807,,,,1941.9461,1942.4446,1941.414,1941.9459,1940.5809,228.0,1941.4137,1942.4447,1942.945,1942.9451,1943.879,896.3,1943.8796,4.0,1944.8774,8.0,7.0,247.0,10.0,1.0,0.8,0.3,Time
,,S20,1,male,33,anonymized,Serial_Dependence_U,2023.2.3,Win32,59.88023952,,,,,,,,,,,,1944.8787,8.0,1944.8794,,,,1948.0774,1948.576,1947.5445,1948.0772,1945.9119,343.0,1947.5443,1948.5761,1949.0762,1949.0763,1950.4767,1349.7,1950.4773,2.0,1951.4752,8.0,8.0,248.0,29.0,1.0,1.6,0.7,Time
,,S20,1,male,33,anonymized,Serial_Dependence_U,2023.2.3,Win32,59.88023952,,,,,,,,,,,,1951.4764,8.0,1951.477,,,,1954.2753,1954.7738,1953.7428,1954.275,1952.5093,101.0,1953.7426,1954.7739,1955.274,1955.2742,1956.474,1117.3,1956.4745,2.0,1957.4728,8.0,9.0,249.0,22.0,1.0,1.2,0.3,Time
,,S20,1,male,33,anonymized,Serial_Dependence_U,2023.2.3,Win32,59.88023952,,,,,,,,,,,,1957.4739,8.0,1957.4747,,,,1960.4726,1960.9718,1959.9403,1960.4725,1958.5074,207.0,1959.9402,1960.9719,1961.4718,1961.472,1962.7383,1224.6,1962.7387,2.0,1963.7378,8.0,10.0,250.0,8.0,1.0,1.4,0.7,Time
,,S20,1,male,33,anonymized,Serial_Dependence_U,2023.2.3,Win32,59.88023952,,,,,,,,,,,,1963.7389,8.0,1963.7392,,,,1966.3389,1966.8367,1965.8048,1966.3387,1964.7719,148.0,1965.8045,1966.8368,1967.3366,1967.3367,1969.4365,1662.9,1969.4369,5.0,1970.4356,8.0,11.0,251.0,1.0,1.0,1.0,0.3,Time
,,S20,1,male,33,anonymized,Serial_Dependence_U,2023.2.3,Win32,59.88023952,,,,,,,,,,,,1970.4366,8.0,1970.4372,,,,1973.2359,1973.7339,1972.7032,1973.2356,1971.4698,187.0,1972.7029,1973.7341,1974.2338,1974.234,1975.5679,1232.1,1975.5685,3.0,1976.5665,8.0,12.0,252.0,12.0,1.0,1.2,0.3,Time
,,S20,1,male,33,anonymized,Serial_Dependence_U,2023.2.3,Win32,59.88023952,,,,,,,,,,,,1976.5675,8.0,1976.5681,,,,1978.966,1979.4656,1978.4342,1978.9658,1977.601,130.0,1978.4339,1979.4656,1979.9651,1979.9652,1981.8659,1530.0,1981.8666,5.0,1982.8642,8.0,13.0,253.0,15.0,1.0,0.8,0.7,Time
,,S20,1,male,33,anonymized,Serial_Dependence_U,2023.2.3,Win32,59.88023952,,,,,,,,,,,,1982.8655,8.0,1982.8661,,,,1985.2652,1985.7636,1984.7325,1985.265,1983.8986,287.0,1984.7323,1985.7636,1986.2632,1986.2633,1987.8301,1388.4,1987.8305,5.0,1988.8291,8.0,14.0,254.0,20.0,1.0,0.8,0.3,Time
,,S20,1,male,33,anonymized,Serial_Dependence_U,2023.2.3,Win32,59.88023952,,,,,,,,,,,,1988.8306,8.0,1988.8311,,,,1992.0282,1992.5277,1991.4964,1992.0281,1989.8639,7.0,1991.4961,1992.5277,1993.0278,1993.0278,1994.1946,1125.7,1994.1953,2.0,1995.1933,8.0,15.0,255.0,19.0,1.0,1.6,0.7,Time
,,S20,1,male,33,anonymized,Serial_Dependence_U,2023.2.3,Win32,59.88023952,,,,,,,,,,,,1995.1946,8.0,1995.1953,,,,1998.1942,1998.6927,1997.6609,1998.194,1996.2279,273.0,1997.6606,1998.6928,1999.1926,1999.1927,2002.2927,1537.1,2002.2933,4.0,2003.2911,8.0,16.0,256.0,3.0,1.0,1.4,0.3,Time
,,S20,1,male,33,anonymized,Serial_Dependence_U,2023.2.3,Win32,59.88023952,,,,,,,,,,,,2003.2925,8.0,2003.2931,,,,2006.0912,2006.5897,2005.5582,2006.091,2004.3253,119.0,2005.558,2006.5898,2007.0894,2007.0895,2011.0891,939.1,2011.0898,2.0,2012.0875,8.0,17.0,257.0,17.0,1.0,1.2,0.7,Time
,,S20,1,male,33,anonymized,Serial_Dependence_U,2023.2.3,Win32,59.88023952,,,,,,,,,,,,2012.0887,8.0,2012.0893,,,,2014.4886,2014.9871,2013.9552,2014.4883,2013.1218,76.0,2013.955,2014.9872,2015.4868,2015.4869,2017.0874,1187.5,2017.0879,5.0,2018.0857,8.0,18.0,258.0,25.0,1.0,0.8,0.7,Time
,,S20,1,male,33,anonymized,Serial_Dependence_U,2023.2.3,Win32,59.88023952,,,,,,,,,,,,2018.0867,8.0,2018.0873,,,,2020.6539,2021.1515,2020.1519,2020.6534,2019.1204,257.0,2020.1517,2021.1515,2021.6513,2021.6514,2024.8514,882.5,2024.852,2.0,2025.8503,8.0,19.0,259.0,16.0,1.0,1.0,0.7,Time
,,S20,1,male,33,anonymized,Serial_Dependence_U,2023.2.3,Win32,59.88023952,,,,,,,,,,,,2025.8517,8.0,2025.8523,,,,2028.4502,2028.9484,2027.9169,2028.4499,2026.8848,179.0,2027.9167,2028.9485,2029.4482,2029.4484,2030.4829,981.8,2030.4837,3.0,2031.4813,8.0,20.0,260.0,11.0,1.0,1.0,0.3,Time
,,S20,1,male,33,anonymized,Serial_Dependence_U,2023.2.3,Win32,59.88023952,,,,,,,,,,,,2031.4828,8.0,2031.4836,,,,2034.6822,2035.1801,2034.1483,2034.6819,2032.5161,301.0,2034.148,2035.1801,2035.68,2035.6801,2035.915,180.3,2035.9157,1.0,2036.9127,8.0,21.0,261.0,9.0,1.0,1.6,0.7,Time
,,S20,1,male,33,anonymized,Serial_Dependence_U,2023.2.3,Win32,59.88023952,,,,,,,,,,,,2036.9139,8.0,2036.9146,,,,2039.514,2040.0115,2038.9801,2039.5137,2037.9468,99.0,2038.98,2040.0115,2040.5116,2040.5118,2042.4122,1546.9,2042.4128,5.0,2043.4107,8.0,22.0,262.0,6.0,1.0,1.0,0.7,Time
,,S20,1,male,33,anonymized,Serial_Dependence_U,2023.2.3,Win32,59.88023952,,,,,,,,,,,,2043.412,8.0,2043.4128,,,,2046.211,2046.7098,2045.6779,2046.2108,2044.4444,51.0,2045.6776,2046.7099,2047.2094,2047.2094,2051.5087,1600.5,2051.5095,5.0,2052.5077,8.0,23.0,263.0,27.0,1.0,1.2,0.7,Time
,,S20,1,male,33,anonymized,Serial_Dependence_U,2023.2.3,Win32,59.88023952,,,,,,,,,,,,2052.5088,8.0,2052.5092,,,,2055.7084,2056.2065,2055.1741,2055.708,2053.5427,343.0,2055.1739,2056.2066,2056.7061,2056.7063,2059.1721,1419.6,2059.1725,2.0,2060.1715,8.0,24.0,264.0,4.0,1.0,1.6,0.3,Time
,,S20,1,male,33,anonymized,Serial_Dependence_U,2023.2.3,Win32,59.88023952,,,,,,,,,,,,2060.1728,8.0,2060.1735,,,,2062.9388,2063.4368,2062.4049,2062.9385,2061.1737,174.0,2062.4047,2063.4369,2063.9369,2063.9371,2064.8042,821.6,2064.8048,1.0,2065.8027,8.0,25.0,265.0,2.0,1.0,1.2,0.3,Time
,,S20,1,male,33,anonymized,Serial_Dependence_U,2023.2.3,Win32,59.88023952,,,,,,,,,,,,2065.8042,8.0,2065.8048,,,,2068.4038,2068.9017,2067.8699,2068.4036,2066.8368,44.0,2067.8696,2068.9018,2069.4018,2069.4019,2070.6352,1182.4,2070.6357,4.0,2071.6342,8.0,26.0,266.0,26.0,1.0,1.0,0.7,Time
,,S20,1,male,33,anonymized,Serial_Dependence_U,2023.2.3,Win32,59.88023952,,,,,,,,,,,,2071.6353,8.0,2071.6357,,,,2074.2347,2074.733,2073.7018,2074.2345,2072.6696,2.0,2073.7016,2074.733,2075.233,2075.2331,2077.2669,1576.2,2077.2677,5.0,2078.265,8.0,27.0,267.0,21.0,1.0,1.0,0.3,Time
,,S20,1,male,33,anonymized,Serial_Dependence_U,2023.2.3,Win32,59.88023952,,,,,,,,,,,,2078.266,8.0,2078.2666,,,,2081.4651,2081.9637,2080.9334,2081.4648,2079.2995,348.0,2080.9332,2081.9638,2082.4639,2082.464,2083.8975,1130.3,2083.8981,2.0,2084.8961,8.0,28.0,268.0,14.0,1.0,1.6,0.3,Time
,,S20,1,male,33,anonymized,Serial_Dependence_U,2023.2.3,Win32,59.88023952,,,,,,,,,,,,2084.8971,8.0,2084.8975,,,,2087.2639,2087.7622,2086.7305,2087.2637,2085.8981,41.0,2086.7302,2087.7623,2088.2622,2088.2623,2090.5636,1335.5,2090.5642,5.0,2091.5608,8.0,29.0,269.0,5.0,1.0,0.8,0.7,Time
