Scale_setup.started,Scale_setup.stopped,participant,expid,session,sex,age,date,expName,psychopyVersion,OS,frameRate,Intro.started,Intro.stopped,key_resp_2.keys,key_resp_2.rt,key_resp_2.duration,block.started,direction,Block_id,block.stopped,trial_direction,Block_resp_2.keys,Block_resp_2.rt,Block_resp_2.duration,ITI.started,ITI.stopped,Mask_2.started,Mask_2.stopped,encoding.started,encoding.stopped,Cue.started,Cue.stopped,Response.started,Response.stopped,keyDuration,Feedback_Time.started,FeedbackID_T,Feedback_Time.stopped,trials.thisRepN,trials.thisTrialN,trials.thisN,trials.thisIndex,trials.ran,TimeDur,Coherence1,TrialType
0,0.0009999999999976694,S20,897347,001,male,24,2025-06-04_17h30.17.464,Serial_Dependence_U,2023.2.3,MacIntel,27.77777777777778,,,,,,,,,,,,,,,,,,,,,,,,,,,,,,,,,,,
,,S20,897347,001,male,24,2025-06-04_17h30.17.464,Serial_Dependence_U,2023.2.3,MacIntel,27.77777777777778,158.759,246.64,space,87.84899999999999,,,,,,,,,,,,,,,,,,,,,,,,,,,,,,,
,,S20,897347,001,male,24,2025-06-04_17h30.17.464,Serial_Dependence_U,2023.2.3,MacIntel,27.77777777777778,,,,,,246.649,164,0,250.075,164,s,3.406000000000006,,253.459,253.949,252.94400000000002,253.45800000000003,251.07600000000002,252.94299999999998,253.95,254.45600000000002,254.45600000000002,258.985,3090,258.986,5,259.976,0,0,0,10,1,0.8,0.3,Time
,,S20,897347,001,male,24,2025-06-04_17h30.17.464,Serial_Dependence_U,2023.2.3,MacIntel,27.77777777777778,,,,,,259.981,216,0,259.984,216,,,,263.563,264.059,263.057,263.563,260.984,263.057,264.059,264.56,264.56,267.686,926,267.686,2,268.689,0,1,1,1,1,1,0.3,Time
,,S20,897347,001,male,24,2025-06-04_17h30.17.464,Serial_Dependence_U,2023.2.3,MacIntel,27.77777777777778,,,,,,268.689,30,0,268.69,30,,,,272.444,272.93,271.942,272.444,269.693,271.942,272.93,273.422,273.422,275.831,1144,275.831,3,276.83,0,2,2,17,1,1.2,0.7,Time
,,S20,897347,001,male,24,2025-06-04_17h30.17.464,Serial_Dependence_U,2023.2.3,MacIntel,27.77777777777778,,,,,,276.831,341,0,276.831,341,,,,280.987,281.49,280.467,280.986,277.834,280.467,281.49,281.984,281.984,284.552,1521,284.552,3,285.556,0,3,3,19,1,1.6,0.7,Time
,,S20,897347,001,male,24,2025-06-04_17h30.17.464,Serial_Dependence_U,2023.2.3,MacIntel,27.77777777777778,,,,,,285.556,119,0,285.557,119,,,,288.906,289.409,288.393,288.9050000000001,286.561,288.393,289.409,289.91200000000003,289.91200000000003,292.038,1113,292.038,5,293.04,0,4,4,25,1,0.8,0.7,Time
,,S20,897347,001,male,24,2025-06-04_17h30.17.464,Serial_Dependence_U,2023.2.3,MacIntel,27.77777777777778,,,,,,293.04,142,0,293.041,142,,,,296.608,297.107,296.092,296.607,294.047,296.092,297.107,297.607,297.607,299.443,1149,299.444,4,300.445,0,5,5,16,1,1,0.7,Time
,,S20,897347,001,male,24,2025-06-04_17h30.17.464,Serial_Dependence_U,2023.2.3,MacIntel,27.77777777777778,,,,,,300.446,3,0,300.447,3,,,,304.64,305.137,304.127,304.64,301.454,304.127,305.137,305.63,305.63,307.605,1508,307.605,2,308.608,0,6,6,24,1,1.6,0.3,Time
,,S20,897347,001,male,24,2025-06-04_17h30.17.464,Serial_Dependence_U,2023.2.3,MacIntel,27.77777777777778,,,,,,308.608,226,0,308.608,226,,,,312.582,313.073,312.073,312.582,309.61,312.073,313.073,313.574,313.574,315.722,1415,315.722,3,316.724,0,7,7,3,1,1.4,0.3,Time
,,S20,897347,001,male,24,2025-06-04_17h30.17.464,Serial_Dependence_U,2023.2.3,MacIntel,27.77777777777778,,,,,,316.725,127,0,316.725,127,,,,320.689,321.193,320.182,320.689,317.737,320.181,321.193,321.687,321.687,323.859,1597,323.86,4,324.858,0,8,8,28,1,1.4,0.7,Time
,,S20,897347,001,male,24,2025-06-04_17h30.17.464,Serial_Dependence_U,2023.2.3,MacIntel,27.77777777777778,,,,,,324.859,260,0,324.859,260,,,,328.204,328.70300000000003,327.70300000000003,328.20300000000003,325.872,327.70300000000003,328.70300000000003,329.194,329.195,330.569,911,330.569,4,331.56100000000004,0,9,9,5,1,0.8,0.7,Time
,,S20,897347,001,male,24,2025-06-04_17h30.17.464,Serial_Dependence_U,2023.2.3,MacIntel,27.77777777777778,,,,,,331.562,111,0,331.562,111,,,,335.116,335.612,334.61,335.116,332.56100000000004,334.61,335.613,336.117,336.117,337.756,1196,337.756,4,338.75,0,10,10,26,1,1,0.7,Time
,,S20,897347,001,male,24,2025-06-04_17h30.17.464,Serial_Dependence_U,2023.2.3,MacIntel,27.77777777777778,,,,,,338.75100000000003,339,0,338.75100000000003,339,,,,342.134,342.636,341.623,342.134,339.753,341.623,342.637,343.122,343.122,344.531,641,344.531,2,345.526,0,11,11,0,1,0.8,0.3,Time
,,S20,897347,001,male,24,2025-06-04_17h30.17.464,Serial_Dependence_U,2023.2.3,MacIntel,27.77777777777778,,,,,,345.527,250,0,345.527,250,,,,349.503,350.003,348.997,349.503,346.523,348.996,350.003,350.5,350.5,351.866,673,351.866,1,352.867,0,12,12,23,1,1.4,0.3,Time
,,S20,897347,001,male,24,2025-06-04_17h30.17.464,Serial_Dependence_U,2023.2.3,MacIntel,27.77777777777778,,,,,,352.867,151,0,352.868,151,,,,356.65000000000003,357.153,356.14,356.65000000000003,353.865,356.14,357.153,357.649,357.65000000000003,358.732,655,358.733,1,359.726,0,13,13,22,1,1.2,0.3,Time
,,S20,897347,001,male,24,2025-06-04_17h30.17.464,Serial_Dependence_U,2023.2.3,MacIntel,27.77777777777778,,,,,,359.728,46,0,359.728,46,,,,363.723,364.224,363.213,363.723,360.74,363.213,364.224,364.723,364.723,366.82300000000004,1599,366.82300000000004,4,367.809,0,14,14,13,1,1.4,0.3,Time
,,S20,897347,001,male,24,2025-06-04_17h30.17.464,Serial_Dependence_U,2023.2.3,MacIntel,27.77777777777778,,,,,,367.81,132,0,367.81100000000004,132,,,,372.01,372.504,371.498,372.01,368.825,371.498,372.504,373.007,373.008,374.508,856,374.508,1,375.50100000000003,0,15,15,4,1,1.6,0.3,Time
,,S20,897347,001,male,24,2025-06-04_17h30.17.464,Serial_Dependence_U,2023.2.3,MacIntel,27.77777777777778,,,,,,375.502,27,0,375.502,27,,,,379.289,379.7800000000001,378.777,379.289,376.499,378.777,379.7800000000001,380.273,380.273,382.24,1407,382.241,4,383.25100000000003,0,16,16,2,1,1.2,0.3,Time
,,S20,897347,001,male,24,2025-06-04_17h30.17.464,Serial_Dependence_U,2023.2.3,MacIntel,27.77777777777778,,,,,,383.252,220,0,383.253,220,,,,386.805,387.305,386.288,386.805,384.256,386.288,387.305,387.81600000000003,387.81600000000003,389.478,1224,389.478,4,390.466,0,17,17,6,1,1,0.7,Time
,,S20,897347,001,male,24,2025-06-04_17h30.17.464,Serial_Dependence_U,2023.2.3,MacIntel,27.77777777777778,,,,,,390.467,294,0,390.467,294,,,,425.642,426.157,425.133,425.642,391.471,425.133,426.157,426.65000000000003,426.65000000000003,428.439,767,428.439,1,429.435,0,18,18,12,1,1.2,0.3,Time
,,S20,897347,001,male,24,2025-06-04_17h30.17.464,Serial_Dependence_U,2023.2.3,MacIntel,27.77777777777778,,,,,,429.43600000000004,346,0,429.43600000000004,346,,,,433.018,433.517,432.518,433.018,430.452,432.518,433.518,434.017,434.017,435.471,903,435.471,2,436.469,0,19,19,11,1,1,0.3,Time
,,S20,897347,001,male,24,2025-06-04_17h30.17.464,Serial_Dependence_U,2023.2.3,MacIntel,27.77777777777778,,,,,,436.47,144,0,436.471,144,,,,440.438,440.938,439.92900000000003,440.437,437.48400000000004,439.928,440.938,441.434,441.434,443.35200000000003,1463,443.35200000000003,3,444.339,0,20,20,18,1,1.4,0.7,Time
,,S20,897347,001,male,24,2025-06-04_17h30.17.464,Serial_Dependence_U,2023.2.3,MacIntel,27.77777777777778,,,,,,444.34000000000003,11,0,444.34000000000003,11,,,,447.682,448.17900000000003,447.173,447.682,445.338,447.172,448.18,448.682,448.682,450.044,892,450.044,4,451.051,0,21,21,15,1,0.8,0.7,Time
,,S20,897347,001,male,24,2025-06-04_17h30.17.464,Serial_Dependence_U,2023.2.3,MacIntel,27.77777777777778,,,,,,451.052,273,0,451.052,273,,,,455.207,455.697,454.692,455.207,452.059,454.692,455.697,456.199,456.199,458.171,1478,458.172,2,459.163,0,22,22,9,1,1.6,0.7,Time
,,S20,897347,001,male,24,2025-06-04_17h30.17.464,Serial_Dependence_U,2023.2.3,MacIntel,27.77777777777778,,,,,,459.164,119,0,459.165,119,,,,462.735,463.231,462.223,462.735,460.16,462.223,463.232,463.725,463.725,465.415,1120,465.415,4,466.4050000000001,0,23,23,21,1,1,0.3,Time
,,S20,897347,001,male,24,2025-06-04_17h30.17.464,Serial_Dependence_U,2023.2.3,MacIntel,27.77777777777778,,,,,,466.406,238,0,466.406,238,,,,470.177,470.67900000000003,469.659,470.177,467.411,469.659,470.67900000000003,471.16700000000003,471.16700000000003,472.97200000000004,1358,472.97200000000004,4,473.961,0,24,24,7,1,1.2,0.7,Time
,,S20,897347,001,male,24,2025-06-04_17h30.17.464,Serial_Dependence_U,2023.2.3,MacIntel,27.77777777777778,,,,,,473.962,244,0,473.963,244,,,,477.916,478.41,477.406,477.916,474.969,477.406,478.41,478.9050000000001,478.9050000000001,480.564,1195,480.564,2,481.555,0,25,25,8,1,1.4,0.7,Time
,,S20,897347,001,male,24,2025-06-04_17h30.17.464,Serial_Dependence_U,2023.2.3,MacIntel,27.77777777777778,,,,,,481.556,67,0,481.556,67,,,,484.943,485.438,484.438,484.943,482.574,484.437,485.438,485.925,485.925,487.13800000000003,700,487.13800000000003,2,488.14,0,26,26,20,1,0.8,0.3,Time
,,S20,897347,001,male,24,2025-06-04_17h30.17.464,Serial_Dependence_U,2023.2.3,MacIntel,27.77777777777778,,,,,,488.14,218,0,488.141,218,,,,491.903,492.393,491.399,491.903,489.156,491.399,492.393,492.88800000000003,492.88800000000003,494.612,1263,494.612,4,495.616,0,27,27,27,1,1.2,0.7,Time
,,S20,897347,001,male,24,2025-06-04_17h30.17.464,Serial_Dependence_U,2023.2.3,MacIntel,27.77777777777778,,,,,,495.617,88,0,495.617,88,,,,499.789,500.29200000000003,499.284,499.789,496.61400000000003,499.284,500.29200000000003,500.78999999999996,500.78999999999996,502.76599999999996,1412,502.76599999999996,2,503.774,0,28,28,14,1,1.6,0.3,Time
,,S20,897347,001,male,24,2025-06-04_17h30.17.464,Serial_Dependence_U,2023.2.3,MacIntel,27.77777777777778,,,,,,503.775,279,0,503.775,279,,,,507.924,508.413,507.424,507.924,504.784,507.423,508.413,508.91100000000006,508.91200000000003,511.429,1597,511.429,3,512.436,0,29,29,29,1,1.6,0.7,Time
,,S20,897347,001,male,24,2025-06-04_17h30.17.464,Serial_Dependence_U,2023.2.3,MacIntel,27.77777777777778,,,,,,512.436,93,1,515.155,93,s,2.6960000000000264,,519.3050000000001,519.8100000000002,518.804,519.3050000000001,516.1560000000001,518.804,519.8100000000002,520.301,520.301,522.198,1514,522.198,2,522.199,1,0,30,29,1,1.6,0.7,Time
,,S20,897347,001,male,24,2025-06-04_17h30.17.464,Serial_Dependence_U,2023.2.3,MacIntel,27.77777777777778,,,,,,522.199,155,1,522.201,155,,,,526.343,526.839,525.841,526.343,523.202,525.84,526.839,527.348,527.348,529.432,1603,529.432,3,529.432,1,1,31,19,1,1.6,0.7,Time
,,S20,897347,001,male,24,2025-06-04_17h30.17.464,Serial_Dependence_U,2023.2.3,MacIntel,27.77777777777778,,,,,,529.433,52,1,529.433,52,,,,532.807,533.293,532.304,532.806,530.438,532.304,533.294,533.788,533.788,535.1030000000001,822,535.104,3,535.104,1,2,32,10,1,0.8,0.3,Time
,,S20,897347,001,male,24,2025-06-04_17h30.17.464,Serial_Dependence_U,2023.2.3,MacIntel,27.77777777777778,,,,,,535.105,69,1,535.105,69,,,,539.091,539.589,538.583,539.09,536.107,538.583,539.589,540.088,540.088,541.971,1396,541.971,3,541.972,1,3,33,3,1,1.4,0.3,Time
,,S20,897347,001,male,24,2025-06-04_17h30.17.464,Serial_Dependence_U,2023.2.3,MacIntel,27.77777777777778,,,,,,541.973,39,1,541.973,39,,,,545.556,546.041,545.045,545.5550000000001,542.968,545.045,546.041,546.538,546.538,547.683,790,547.683,2,547.683,1,4,34,1,1,1,0.3,Time
,,S20,897347,001,male,24,2025-06-04_17h30.17.464,Serial_Dependence_U,2023.2.3,MacIntel,27.77777777777778,,,,,,547.683,158,1,547.683,158,,,,551.254,551.743,550.737,551.254,548.688,550.736,551.743,552.247,552.248,553.952,1151,553.952,4,553.953,1,5,35,6,1,1,0.7,Time
,,S20,897347,001,male,24,2025-06-04_17h30.17.464,Serial_Dependence_U,2023.2.3,MacIntel,27.77777777777778,,,,,,553.953,153,1,553.9540000000001,153,,,,558.169,558.659,557.653,558.168,554.977,557.653,558.66,559.164,559.165,560.947,1255,560.947,2,560.947,1,6,36,14,1,1.6,0.3,Time
,,S20,897347,001,male,24,2025-06-04_17h30.17.464,Serial_Dependence_U,2023.2.3,MacIntel,27.77777777777778,,,,,,560.947,196,1,560.947,196,,,,564.313,564.798,563.808,564.313,561.966,563.808,564.798,565.3050000000001,565.3050000000001,566.592,819,566.592,3,566.593,1,7,37,25,1,0.8,0.7,Time
,,S20,897347,001,male,24,2025-06-04_17h30.17.464,Serial_Dependence_U,2023.2.3,MacIntel,27.77777777777778,,,,,,566.593,279,1,566.594,279,,,,570.162,570.653,569.6560000000001,570.161,567.587,569.655,570.653,571.154,571.154,572.62,992,572.62,3,572.62,1,8,38,21,1,1,0.3,Time
,,S20,897347,001,male,24,2025-06-04_17h30.17.464,Serial_Dependence_U,2023.2.3,MacIntel,27.77777777777778,,,,,,572.621,179,1,572.621,179,,,,576.371,576.8580000000001,575.87,576.371,573.621,575.87,576.8580000000001,577.351,577.351,579.059,1376,579.0600000000002,4,579.0600000000002,1,9,39,27,1,1.2,0.7,Time
,,S20,897347,001,male,24,2025-06-04_17h30.17.464,Serial_Dependence_U,2023.2.3,MacIntel,27.77777777777778,,,,,,579.061,357,1,579.061,357,,,,582.641,583.14,582.137,582.641,580.059,582.137,583.141,583.641,583.641,585.071,1023,585.071,3,585.072,1,10,40,11,1,1,0.3,Time
,,S20,897347,001,male,24,2025-06-04_17h30.17.464,Serial_Dependence_U,2023.2.3,MacIntel,27.77777777777778,,,,,,585.072,120,1,585.073,120,,,,589.205,589.698,588.701,589.205,586.065,588.701,589.698,590.19,590.19,592.161,1544,592.161,3,592.162,1,11,41,9,1,1.6,0.7,Time
,,S20,897347,001,male,24,2025-06-04_17h30.17.464,Serial_Dependence_U,2023.2.3,MacIntel,27.77777777777778,,,,,,592.162,10,1,592.162,10,,,,595.921,596.415,595.42,595.92,593.158,595.419,596.415,596.902,596.903,598.919,1510,598.919,4,598.92,1,12,42,2,1,1.2,0.3,Time
,,S20,897347,001,male,24,2025-06-04_17h30.17.464,Serial_Dependence_U,2023.2.3,MacIntel,27.77777777777778,,,,,,598.921,223,1,598.921,223,,,,603.091,603.586,602.586,603.091,599.922,602.586,603.586,604.093,604.093,605.808,1202,605.808,2,605.808,1,13,43,24,1,1.6,0.3,Time
,,S20,897347,001,male,24,2025-06-04_17h30.17.464,Serial_Dependence_U,2023.2.3,MacIntel,27.77777777777778,,,,,,605.809,186,1,605.809,186,,,,609.192,609.698,608.681,609.192,606.82,608.681,609.698,610.192,610.192,611.669,1016,611.669,4,611.67,1,14,44,0,1,0.8,0.3,Time
,,S20,897347,001,male,24,2025-06-04_17h30.17.464,Serial_Dependence_U,2023.2.3,MacIntel,27.77777777777778,,,,,,611.67,203,1,611.67,203,,,,615.622,616.112,615.119,615.622,612.686,615.119,616.112,616.602,616.602,618.304,1365,618.304,3,618.304,1,15,45,18,1,1.4,0.7,Time
,,S20,897347,001,male,24,2025-06-04_17h30.17.464,Serial_Dependence_U,2023.2.3,MacIntel,27.77777777777778,,,,,,618.3050000000001,119,1,618.3050000000001,119,,,,622.244,622.751,621.74,622.244,619.309,621.74,622.751,623.24,623.24,625.403,1748,625.404,4,625.404,1,16,46,28,1,1.4,0.7,Time
,,S20,897347,001,male,24,2025-06-04_17h30.17.464,Serial_Dependence_U,2023.2.3,MacIntel,27.77777777777778,,,,,,625.405,175,1,625.405,175,,,,629.587,630.075,629.07,629.587,626.4060000000001,629.069,630.075,630.566,630.567,633.528,1818,633.528,4,633.528,1,17,47,4,1,1.6,0.3,Time
,,S20,897347,001,male,24,2025-06-04_17h30.17.464,Serial_Dependence_U,2023.2.3,MacIntel,27.77777777777778,,,,,,633.529,143,1,633.529,143,,,,637.295,637.788,636.789,637.295,634.5260000000001,636.789,637.788,638.289,638.289,640.35,1637,640.35,5,640.35,1,18,48,12,1,1.2,0.3,Time
,,S20,897347,001,male,24,2025-06-04_17h30.17.464,Serial_Dependence_U,2023.2.3,MacIntel,27.77777777777778,,,,,,640.351,61,1,640.351,61,,,,644.153,644.65,643.644,644.152,641.371,643.644,644.65,645.154,645.154,647.0600000000002,1332,647.0600000000002,4,647.061,1,19,49,22,1,1.2,0.3,Time
,,S20,897347,001,male,24,2025-06-04_17h30.17.464,Serial_Dependence_U,2023.2.3,MacIntel,27.77777777777778,,,,,,647.061,216,1,647.062,216,,,,650.6270000000001,651.122,650.109,650.626,648.071,650.109,651.122,651.614,651.614,653.368,1319,653.368,5,653.369,1,20,50,26,1,1,0.7,Time
,,S20,897347,001,male,24,2025-06-04_17h30.17.464,Serial_Dependence_U,2023.2.3,MacIntel,27.77777777777778,,,,,,653.369,266,1,653.369,266,,,,657.37,657.863,656.854,657.37,654.383,656.8530000000001,657.863,658.354,658.354,660.573,1423,660.573,3,660.5740000000001,1,21,51,13,1,1.4,0.3,Time
,,S20,897347,001,male,24,2025-06-04_17h30.17.464,Serial_Dependence_U,2023.2.3,MacIntel,27.77777777777778,,,,,,660.5740000000001,187,1,660.5740000000001,187,,,,664.325,664.828,663.823,664.325,661.577,663.823,664.8290000000001,665.317,665.317,667.413,1548,667.413,4,667.414,1,22,52,17,1,1.2,0.7,Time
,,S20,897347,001,male,24,2025-06-04_17h30.17.464,Serial_Dependence_U,2023.2.3,MacIntel,27.77777777777778,,,,,,667.415,295,1,667.415,295,,,,670.788,671.277,670.269,670.787,668.421,670.269,671.277,671.769,671.769,673.835,1270,673.835,5,673.836,1,23,53,15,1,0.8,0.7,Time
,,S20,897347,001,male,24,2025-06-04_17h30.17.464,Serial_Dependence_U,2023.2.3,MacIntel,27.77777777777778,,,,,,673.836,76,1,673.837,76,,,,677.4060000000001,677.912,676.893,677.4060000000001,674.857,676.893,677.912,678.407,678.407,680.39,1526,680.391,5,680.391,1,24,54,16,1,1,0.7,Time
,,S20,897347,001,male,24,2025-06-04_17h30.17.464,Serial_Dependence_U,2023.2.3,MacIntel,27.77777777777778,,,,,,680.392,236,1,680.392,236,,,,683.774,684.27,683.261,683.774,681.399,683.261,684.27,684.767,684.768,685.587,427,685.587,1,685.588,1,25,55,20,1,0.8,0.3,Time
,,S20,897347,001,male,24,2025-06-04_17h30.17.464,Serial_Dependence_U,2023.2.3,MacIntel,27.77777777777778,,,,,,685.589,116,1,685.589,116,,,,689.545,690.035,689.04,689.544,686.59,689.039,690.036,690.539,690.539,692.77,1804,692.77,4,692.77,1,26,56,8,1,1.4,0.7,Time
,,S20,897347,001,male,24,2025-06-04_17h30.17.464,Serial_Dependence_U,2023.2.3,MacIntel,27.77777777777778,,,,,,692.771,61,1,692.771,61,,,,696.525,697.024,696.015,696.525,693.773,696.015,697.024,697.523,697.524,699.4540000000001,1524,699.4540000000001,4,699.455,1,27,57,7,1,1.2,0.7,Time
,,S20,897347,001,male,24,2025-06-04_17h30.17.464,Serial_Dependence_U,2023.2.3,MacIntel,27.77777777777778,,,,,,699.455,209,1,699.456,209,,,,703.439,703.931,702.922,703.439,700.458,702.922,703.931,704.421,704.421,706.306,1427,706.306,3,706.307,1,28,58,23,1,1.4,0.3,Time
,,S20,897347,001,male,24,2025-06-04_17h30.17.464,Serial_Dependence_U,2023.2.3,MacIntel,27.77777777777778,,,,,,706.307,60,1,706.308,60,,,,709.681,710.177,709.172,709.681,707.3290000000001,709.172,710.177,710.668,710.669,712.352,1206,712.352,5,712.352,1,29,59,5,1,0.8,0.7,Time
,,S20,897347,001,male,24,2025-06-04_17h30.17.464,Serial_Dependence_U,2023.2.3,MacIntel,27.77777777777778,,,,,,712.3530000000001,177,2,714.337,177,s,1.9700000000000273,,717.708,718.207,717.197,717.708,715.354,717.197,718.207,718.703,718.703,720.3530000000001,1181,720.3530000000001,5,720.3530000000001,2,0,60,15,1,0.8,0.7,Time
,,S20,897347,001,male,24,2025-06-04_17h30.17.464,Serial_Dependence_U,2023.2.3,MacIntel,27.77777777777778,,,,,,720.354,312,2,720.357,312,,,,724.106,724.6030000000001,723.6030000000001,724.106,721.362,723.6030000000001,724.6030000000001,725.102,725.102,726.862,1371,726.862,4,726.863,2,1,61,27,1,1.2,0.7,Time
,,S20,897347,001,male,24,2025-06-04_17h30.17.464,Serial_Dependence_U,2023.2.3,MacIntel,27.77777777777778,,,,,,726.864,108,2,726.864,108,,,,731.022,731.522,730.506,731.022,727.873,730.506,731.522,732.025,732.025,734.439,2008,734.439,4,734.44,2,2,62,9,1,1.6,0.7,Time
,,S20,897347,001,male,24,2025-06-04_17h30.17.464,Serial_Dependence_U,2023.2.3,MacIntel,27.77777777777778,,,,,,734.441,128,2,734.441,128,,,,738.022,738.519,737.505,738.0210000000001,735.439,737.505,738.519,739.023,739.023,740.705,1172,740.705,4,740.706,2,3,63,21,1,1,0.3,Time
,,S20,897347,001,male,24,2025-06-04_17h30.17.464,Serial_Dependence_U,2023.2.3,MacIntel,27.77777777777778,,,,,,740.706,178,2,740.706,178,,,,744.673,745.172,744.158,744.673,741.72,744.157,745.172,745.663,745.664,748.123,1932,748.123,5,748.124,2,4,64,18,1,1.4,0.7,Time
,,S20,897347,001,male,24,2025-06-04_17h30.17.464,Serial_Dependence_U,2023.2.3,MacIntel,27.77777777777778,,,,,,748.124,108,2,748.124,108,,,,751.881,752.373,751.38,751.881,749.14,751.38,752.374,752.863,752.863,754.98,1672,754.98,5,754.98,2,5,65,17,1,1.2,0.7,Time
,,S20,897347,001,male,24,2025-06-04_17h30.17.464,Serial_Dependence_U,2023.2.3,MacIntel,27.77777777777778,,,,,,754.981,188,2,754.981,188,,,,758.956,759.466,758.452,758.956,755.98,758.452,759.466,759.953,759.953,762.482,1938,762.482,5,762.4830000000001,2,6,66,23,1,1.4,0.3,Time
,,S20,897347,001,male,24,2025-06-04_17h30.17.464,Serial_Dependence_U,2023.2.3,MacIntel,27.77777777777778,,,,,,762.4830000000001,105,2,762.4830000000001,105,,,,765.837,766.325,765.327,765.836,763.492,765.327,766.325,766.812,766.812,768.409,1193,768.409,5,768.409,2,7,67,5,1,0.8,0.7,Time
,,S20,897347,001,male,24,2025-06-04_17h30.17.464,Serial_Dependence_U,2023.2.3,MacIntel,27.77777777777778,,,,,,768.41,114,2,768.411,114,,,,772.188,772.688,771.684,772.188,769.4060000000001,771.684,772.688,773.179,773.179,774.871,1335,774.8720000000001,4,774.8720000000001,2,8,68,22,1,1.2,0.3,Time
,,S20,897347,001,male,24,2025-06-04_17h30.17.464,Serial_Dependence_U,2023.2.3,MacIntel,27.77777777777778,,,,,,774.873,63,2,774.873,63,,,,778.866,779.356,778.35,778.865,775.874,778.35,779.356,779.849,779.849,781.796,1551,781.796,4,781.797,2,9,69,3,1,1.4,0.3,Time
,,S20,897347,001,male,24,2025-06-04_17h30.17.464,Serial_Dependence_U,2023.2.3,MacIntel,27.77777777777778,,,,,,781.797,39,2,781.797,39,,,,785.956,786.455,785.44,785.956,782.804,785.439,786.455,786.955,786.955,789.26,1862,789.26,4,789.26,2,10,70,29,1,1.6,0.7,Time
,,S20,897347,001,male,24,2025-06-04_17h30.17.464,Serial_Dependence_U,2023.2.3,MacIntel,27.77777777777778,,,,,,789.261,8,2,789.261,8,,,,793.255,793.751,792.746,793.255,790.272,792.746,793.7520000000001,794.246,794.246,796.6510000000001,1838,796.6510000000001,5,796.652,2,11,71,13,1,1.4,0.3,Time
,,S20,897347,001,male,24,2025-06-04_17h30.17.464,Serial_Dependence_U,2023.2.3,MacIntel,27.77777777777778,,,,,,796.652,251,2,796.652,251,,,,800.2040000000001,800.6940000000001,799.6940000000001,800.2040000000001,797.662,799.6940000000001,800.6940000000001,801.1940000000001,801.1940000000001,803.315,1490,803.315,5,803.315,2,12,72,26,1,1,0.7,Time
,,S20,897347,001,male,24,2025-06-04_17h30.17.464,Serial_Dependence_U,2023.2.3,MacIntel,27.77777777777778,,,,,,803.316,220,2,803.316,220,,,,806.676,807.174,806.1560000000001,806.676,804.323,806.1560000000001,807.174,807.676,807.676,810.0740000000001,1642,810.075,5,810.075,2,13,73,25,1,0.8,0.7,Time
,,S20,897347,001,male,24,2025-06-04_17h30.17.464,Serial_Dependence_U,2023.2.3,MacIntel,27.77777777777778,,,,,,810.076,22,2,810.076,22,,,,813.869,814.362,813.365,813.869,811.089,813.365,814.363,814.873,814.873,816.793,1331,816.793,4,816.793,2,14,74,12,1,1.2,0.3,Time
,,S20,897347,001,male,24,2025-06-04_17h30.17.464,Serial_Dependence_U,2023.2.3,MacIntel,27.77777777777778,,,,,,816.794,91,2,816.794,91,,,,820.972,821.474,820.47,820.972,817.7950000000001,820.47,821.474,821.9730000000001,821.9730000000001,824.025,1702,824.025,4,824.0260000000001,2,15,75,24,1,1.6,0.3,Time
,,S20,897347,001,male,24,2025-06-04_17h30.17.464,Serial_Dependence_U,2023.2.3,MacIntel,27.77777777777778,,,,,,824.0260000000001,113,2,824.0260000000001,113,,,,827.592,828.094,827.089,827.592,825.0260000000001,827.089,828.094,828.587,828.587,830.191,1257,830.191,4,830.192,2,16,76,11,1,1,0.3,Time
,,S20,897347,001,male,24,2025-06-04_17h30.17.464,Serial_Dependence_U,2023.2.3,MacIntel,27.77777777777778,,,,,,830.192,228,2,830.192,228,,,,834.121,834.624,833.62,834.121,831.182,833.62,834.624,835.126,835.126,837.224,1703,837.224,4,837.225,2,17,77,8,1,1.4,0.7,Time
,,S20,897347,001,male,24,2025-06-04_17h30.17.464,Serial_Dependence_U,2023.2.3,MacIntel,27.77777777777778,,,,,,837.225,326,2,837.226,326,,,,840.6270000000001,841.1220000000001,840.123,840.626,838.243,840.123,841.1220000000001,841.6270000000001,841.6270000000001,842.971,909,842.971,4,842.972,2,18,78,20,1,0.8,0.3,Time
,,S20,897347,001,male,24,2025-06-04_17h30.17.464,Serial_Dependence_U,2023.2.3,MacIntel,27.77777777777778,,,,,,842.972,61,2,842.9730000000001,61,,,,846.355,846.8530000000001,845.84,846.355,843.974,845.84,846.8530000000001,847.34,847.341,848.409,760,848.409,2,848.41,2,19,79,10,1,0.8,0.3,Time
,,S20,897347,001,male,24,2025-06-04_17h30.17.464,Serial_Dependence_U,2023.2.3,MacIntel,27.77777777777778,,,,,,848.41,66,2,848.411,66,,,,851.977,852.465,851.4680000000001,851.977,849.404,851.4680000000001,852.465,852.971,852.971,854.558,1221,854.558,4,854.558,2,20,80,1,1,1,0.3,Time
,,S20,897347,001,male,24,2025-06-04_17h30.17.464,Serial_Dependence_U,2023.2.3,MacIntel,27.77777777777778,,,,,,854.558,180,2,854.559,180,,,,858.359,858.8480000000001,857.847,858.359,855.571,857.847,858.8480000000001,859.345,859.345,860.945,1243,860.945,3,860.946,2,21,81,2,1,1.2,0.3,Time
,,S20,897347,001,male,24,2025-06-04_17h30.17.464,Serial_Dependence_U,2023.2.3,MacIntel,27.77777777777778,,,,,,860.946,63,2,860.946,63,,,,864.705,865.191,864.192,864.7040000000001,861.953,864.192,865.191,865.686,865.686,867.601,1443,867.601,4,867.601,2,22,82,7,1,1.2,0.7,Time
,,S20,897347,001,male,24,2025-06-04_17h30.17.464,Serial_Dependence_U,2023.2.3,MacIntel,27.77777777777778,,,,,,867.602,220,2,867.602,220,,,,870.988,871.494,870.486,870.988,868.606,870.486,871.494,871.995,871.995,873.703,836,873.703,3,873.7040000000001,2,23,83,0,1,0.8,0.3,Time
,,S20,897347,001,male,24,2025-06-04_17h30.17.464,Serial_Dependence_U,2023.2.3,MacIntel,27.77777777777778,,,,,,873.7040000000001,233,2,873.7040000000001,233,,,,877.855,878.355,877.352,877.855,874.715,877.351,878.355,878.852,878.852,881.7710000000001,2181,881.7710000000001,5,881.772,2,24,84,19,1,1.6,0.7,Time
,,S20,897347,001,male,24,2025-06-04_17h30.17.464,Serial_Dependence_U,2023.2.3,MacIntel,27.77777777777778,,,,,,881.773,78,2,881.773,78,,,,885.318,885.818,884.806,885.318,882.77,884.8050000000001,885.818,886.313,886.313,888.7090000000001,1354,888.7090000000001,5,888.7090000000001,2,25,85,6,1,1,0.7,Time
,,S20,897347,001,male,24,2025-06-04_17h30.17.464,Serial_Dependence_U,2023.2.3,MacIntel,27.77777777777778,,,,,,888.71,23,2,888.71,23,,,,892.89,893.387,892.378,892.889,889.712,892.378,893.387,893.886,893.887,896.984,1997,896.984,4,896.985,2,26,86,4,1,1.6,0.3,Time
,,S20,897347,001,male,24,2025-06-04_17h30.17.464,Serial_Dependence_U,2023.2.3,MacIntel,27.77777777777778,,,,,,896.985,161,2,896.985,161,,,,900.937,901.437,900.4250000000001,900.937,897.986,900.4250000000001,901.437,901.927,901.928,904.5550000000001,1944,904.5550000000001,5,904.556,2,27,87,28,1,1.4,0.7,Time
,,S20,897347,001,male,24,2025-06-04_17h30.17.464,Serial_Dependence_U,2023.2.3,MacIntel,27.77777777777778,,,,,,904.556,194,2,904.557,194,,,,908.1320000000001,908.631,907.612,908.131,905.5740000000001,907.612,908.631,909.12,909.12,910.678,1108,910.678,4,910.679,2,28,88,16,1,1,0.7,Time
,,S20,897347,001,male,24,2025-06-04_17h30.17.464,Serial_Dependence_U,2023.2.3,MacIntel,27.77777777777778,,,,,,910.679,97,2,910.6800000000001,97,,,,914.869,915.373,914.359,914.868,911.683,914.359,915.373,915.871,915.871,918.327,1999,918.327,4,918.327,2,29,89,14,1,1.6,0.3,Time
,,S20,897347,001,male,24,2025-06-04_17h30.17.464,Serial_Dependence_U,2023.2.3,MacIntel,27.77777777777778,,,,,,918.327,216,3,920.137,216,s,1.7910000000000537,,923.515,924.016,923.006,923.515,921.138,923.006,924.016,924.505,924.505,925.6270000000001,634,925.6270000000001,2,925.6270000000001,3,0,90,20,1,0.8,0.3,Time
,,S20,897347,001,male,24,2025-06-04_17h30.17.464,Serial_Dependence_U,2023.2.3,MacIntel,27.77777777777778,,,,,,925.628,164,3,925.6320000000001,164,,,,929.389,929.886,928.873,929.389,926.631,928.873,929.886,930.378,930.379,932.713,1422,932.713,4,932.714,3,1,91,27,1,1.2,0.7,Time
,,S20,897347,001,male,24,2025-06-04_17h30.17.464,Serial_Dependence_U,2023.2.3,MacIntel,27.77777777777778,,,,,,932.714,300,3,932.714,300,,,,936.876,937.364,936.371,936.876,933.727,936.371,937.365,937.85,937.85,940.589,1941,940.589,4,940.59,3,2,92,9,1,1.6,0.7,Time
,,S20,897347,001,male,24,2025-06-04_17h30.17.464,Serial_Dependence_U,2023.2.3,MacIntel,27.77777777777778,,,,,,940.59,234,3,940.59,234,,,,943.96,944.461,943.4440000000001,943.96,941.604,943.4440000000001,944.461,944.9590000000001,944.9590000000001,946.524,1084,946.524,5,946.525,3,3,93,15,1,0.8,0.7,Time
,,S20,897347,001,male,24,2025-06-04_17h30.17.464,Serial_Dependence_U,2023.2.3,MacIntel,27.77777777777778,,,,,,946.5260000000001,328,3,946.5260000000001,328,,,,950.323,950.825,949.811,950.322,947.533,949.811,950.825,951.327,951.327,953.498,1359,953.498,4,953.498,3,4,94,2,1,1.2,0.3,Time
,,S20,897347,001,male,24,2025-06-04_17h30.17.464,Serial_Dependence_U,2023.2.3,MacIntel,27.77777777777778,,,,,,953.498,309,3,953.498,309,,,,956.8480000000001,957.3430000000001,956.326,956.847,954.494,956.326,957.3430000000001,957.832,957.832,959.207,872,959.207,4,959.207,3,5,95,5,1,0.8,0.7,Time
,,S20,897347,001,male,24,2025-06-04_17h30.17.464,Serial_Dependence_U,2023.2.3,MacIntel,27.77777777777778,,,,,,959.207,259,3,959.208,259,,,,962.989,963.489,962.4830000000001,962.989,960.22,962.4830000000001,963.489,963.985,963.985,965.684,1238,965.684,3,965.684,3,6,96,12,1,1.2,0.3,Time
,,S20,897347,001,male,24,2025-06-04_17h30.17.464,Serial_Dependence_U,2023.2.3,MacIntel,27.77777777777778,,,,,,965.6850000000002,33,3,965.6850000000002,33,,,,969.254,969.754,968.746,969.253,966.681,968.745,969.754,970.248,970.248,972.1560000000001,1411,972.1560000000001,5,972.157,3,7,97,1,1,1,0.3,Time
,,S20,897347,001,male,24,2025-06-04_17h30.17.464,Serial_Dependence_U,2023.2.3,MacIntel,27.77777777777778,,,,,,972.157,168,3,972.158,168,,,,975.904,976.398,975.392,975.904,973.1560000000001,975.392,976.398,976.887,976.887,978.475,1229,978.475,3,978.476,3,8,98,17,1,1.2,0.7,Time
,,S20,897347,001,male,24,2025-06-04_17h30.17.464,Serial_Dependence_U,2023.2.3,MacIntel,27.77777777777778,,,,,,978.477,240,3,978.477,240,,,,982.6510000000001,983.153,982.139,982.6510000000001,979.493,982.139,983.153,983.654,983.654,985.859,1841,985.859,4,985.859,3,9,99,29,1,1.6,0.7,Time
,,S20,897347,001,male,24,2025-06-04_17h30.17.464,Serial_Dependence_U,2023.2.3,MacIntel,27.77777777777778,,,,,,985.86,250,3,985.86,250,,,,989.416,989.908,988.908,989.416,986.868,988.907,989.908,990.408,990.408,991.965,1046,991.965,3,991.965,3,10,100,6,1,1,0.7,Time
,,S20,897347,001,male,24,2025-06-04_17h30.17.464,Serial_Dependence_U,2023.2.3,MacIntel,27.77777777777778,,,,,,991.965,134,3,991.965,134,,,,995.338,995.841,994.8240000000001,995.338,992.961,994.8240000000001,995.841,996.333,996.333,997.871,912,997.871,4,997.8720000000001,3,11,101,10,1,0.8,0.3,Time
,,S20,897347,001,male,24,2025-06-04_17h30.17.464,Serial_Dependence_U,2023.2.3,MacIntel,27.77777777777778,,,,,,997.8720000000001,180,3,997.8720000000001,180,,,,1001.836,1002.339,1001.323,1001.836,998.883,1001.323,1002.339,1002.826,1002.826,1005.389,1918,1005.389,5,1005.39,3,12,102,28,1,1.4,0.7,Time
,,S20,897347,001,male,24,2025-06-04_17h30.17.464,Serial_Dependence_U,2023.2.3,MacIntel,27.77777777777778,,,,,,1005.39,21,3,1005.39,21,,,,1009.378,1009.871,1008.8720000000001,1009.378,1006.404,1008.8720000000001,1009.871,1010.3720000000001,1010.3720000000001,1012.042,1248,1012.042,2,1012.042,3,13,103,13,1,1.4,0.3,Time
,,S20,897347,001,male,24,2025-06-04_17h30.17.464,Serial_Dependence_U,2023.2.3,MacIntel,27.77777777777778,,,,,,1012.043,271,3,1012.043,271,,,,1015.641,1016.132,1015.139,1015.641,1013.0630000000001,1015.139,1016.132,1016.6249999999999,1016.6249999999999,1018.236,1128,1018.236,4,1018.237,3,14,104,21,1,1,0.3,Time
,,S20,897347,001,male,24,2025-06-04_17h30.17.464,Serial_Dependence_U,2023.2.3,MacIntel,27.77777777777778,,,,,,1018.237,1,3,1018.237,1,,,,1022.419,1022.91,1021.9059999999998,1022.419,1019.2439999999998,1021.9049999999999,1022.91,1023.401,1023.401,1025.3739999999998,1539,1025.3739999999998,3,1025.375,3,15,105,4,1,1.6,0.3,Time
,,S20,897347,001,male,24,2025-06-04_17h30.17.464,Serial_Dependence_U,2023.2.3,MacIntel,27.77777777777778,,,,,,1025.375,26,3,1025.375,26,,,,1028.9339999999997,1029.4249999999997,1028.4180000000001,1028.933,1026.379,1028.4180000000001,1029.4249999999997,1029.924,1029.924,1031.558,1145,1031.558,4,1031.558,3,16,106,26,1,1,0.7,Time
,,S20,897347,001,male,24,2025-06-04_17h30.17.464,Serial_Dependence_U,2023.2.3,MacIntel,27.77777777777778,,,,,,1031.5589999999997,75,3,1031.5589999999997,75,,,,1035.522,1036.0169999999998,1035.011,1035.5209999999997,1032.574,1035.011,1036.0169999999998,1036.5169999999998,1036.5169999999998,1038.5949999999998,1609,1038.596,4,1038.596,3,17,107,8,1,1.4,0.7,Time
,,S20,897347,001,male,24,2025-06-04_17h30.17.464,Serial_Dependence_U,2023.2.3,MacIntel,27.77777777777778,,,,,,1038.5969999999998,157,3,1038.5969999999998,157,,,,1042.5769999999998,1043.067,1042.0749999999998,1042.5769999999998,1039.612,1042.0749999999998,1043.067,1043.556,1043.556,1045.587,1611,1045.587,4,1045.587,3,18,108,23,1,1.4,0.3,Time
,,S20,897347,001,male,24,2025-06-04_17h30.17.464,Serial_Dependence_U,2023.2.3,MacIntel,27.77777777777778,,,,,,1045.5879999999997,109,3,1045.5879999999997,109,,,,1049.536,1050.038,1049.036,1049.536,1046.6019999999999,1049.036,1050.038,1050.5430000000001,1050.5430000000001,1052.772,1766,1052.7729999999997,4,1052.7729999999997,3,19,109,18,1,1.4,0.7,Time
,,S20,897347,001,male,24,2025-06-04_17h30.17.464,Serial_Dependence_U,2023.2.3,MacIntel,27.77777777777778,,,,,,1052.7729999999997,117,3,1052.7729999999997,117,,,,1056.937,1057.442,1056.4359999999997,1056.937,1053.7729999999997,1056.4359999999997,1057.442,1057.9319999999998,1057.9319999999998,1060.2039999999997,1781,1060.2039999999997,4,1060.2039999999997,3,20,110,24,1,1.6,0.3,Time
,,S20,897347,001,male,24,2025-06-04_17h30.17.464,Serial_Dependence_U,2023.2.3,MacIntel,27.77777777777778,,,,,,1060.205,266,3,1060.205,266,,,,1064.3739999999998,1064.873,1063.8629999999998,1064.3739999999998,1061.221,1063.8629999999998,1064.873,1065.368,1065.3689999999997,1067.6619999999998,1856,1067.6619999999998,4,1067.6619999999998,3,21,111,19,1,1.6,0.7,Time
,,S20,897347,001,male,24,2025-06-04_17h30.17.464,Serial_Dependence_U,2023.2.3,MacIntel,27.77777777777778,,,,,,1067.663,253,3,1067.663,253,,,,1071.643,1072.129,1071.1369999999997,1071.643,1068.67,1071.1369999999997,1072.129,1072.629,1072.629,1074.612,1533,1074.612,4,1074.612,3,22,112,3,1,1.4,0.3,Time
,,S20,897347,001,male,24,2025-06-04_17h30.17.464,Serial_Dependence_U,2023.2.3,MacIntel,27.77777777777778,,,,,,1074.612,47,3,1074.6129999999998,47,,,,1078.1839999999997,1078.687,1077.67,1078.183,1075.6039999999998,1077.67,1078.687,1079.1799999999998,1079.1799999999998,1080.687,1094,1080.688,4,1080.688,3,23,113,11,1,1,0.3,Time
,,S20,897347,001,male,24,2025-06-04_17h30.17.464,Serial_Dependence_U,2023.2.3,MacIntel,27.77777777777778,,,,,,1080.688,49,3,1080.688,49,,,,1084.0859999999998,1084.5879999999997,1083.5719999999997,1084.0859999999998,1081.7069999999999,1083.5719999999997,1084.5879999999997,1085.0839999999998,1085.0839999999998,1086.504,909,1086.504,4,1086.505,3,24,114,0,1,0.8,0.3,Time
,,S20,897347,001,male,24,2025-06-04_17h30.17.464,Serial_Dependence_U,2023.2.3,MacIntel,27.77777777777778,,,,,,1086.505,328,3,1086.5059999999999,328,,,,1090.047,1090.5319999999997,1089.542,1090.047,1087.4969999999998,1089.5409999999997,1090.5319999999997,1091.033,1091.033,1092.7649999999999,1039,1092.7649999999999,3,1092.766,3,25,115,16,1,1,0.7,Time
,,S20,897347,001,male,24,2025-06-04_17h30.17.464,Serial_Dependence_U,2023.2.3,MacIntel,27.77777777777778,,,,,,1092.7669999999998,102,3,1092.7669999999998,102,,,,1096.123,1096.6219999999998,1095.6200000000003,1096.123,1093.7709999999997,1095.6200000000003,1096.6219999999998,1097.1100000000001,1097.1100000000001,1098.984,1399,1098.984,5,1098.9850000000001,3,26,116,25,1,0.8,0.7,Time
,,S20,897347,001,male,24,2025-06-04_17h30.17.464,Serial_Dependence_U,2023.2.3,MacIntel,27.77777777777778,,,,,,1098.9850000000001,221,3,1098.9850000000001,221,,,,1102.725,1103.2149999999997,1102.2219999999998,1102.725,1099.987,1102.2219999999998,1103.2149999999997,1103.719,1103.719,1105.576,830,1105.576,1,1105.5769999999998,3,27,117,7,1,1.2,0.7,Time
,,S20,897347,001,male,24,2025-06-04_17h30.17.464,Serial_Dependence_U,2023.2.3,MacIntel,27.77777777777778,,,,,,1105.5769999999998,274,3,1105.5769999999998,274,,,,1109.772,1110.2689999999998,1109.2579999999998,1109.772,1106.594,1109.257,1110.2689999999998,1110.7599999999998,1110.761,1113.185,1835,1113.185,4,1113.1859999999997,3,28,118,14,1,1.6,0.3,Time
,,S20,897347,001,male,24,2025-06-04_17h30.17.464,Serial_Dependence_U,2023.2.3,MacIntel,27.77777777777778,,,,,,1113.187,277,3,1113.187,277,,,,1116.9789999999998,1117.4739999999997,1116.4719999999998,1116.9789999999998,1114.196,1116.4719999999998,1117.4739999999997,1117.9789999999998,1117.9789999999998,1119.768,1311,1119.7689999999998,4,1119.7689999999998,3,29,119,22,1,1.2,0.3,Time
,,S20,897347,001,male,24,2025-06-04_17h30.17.464,Serial_Dependence_U,2023.2.3,MacIntel,27.77777777777778,,,,,,1119.77,26,4,1135.942,26,s,16.15000000000009,,1139.705,1140.199,1139.188,1139.7039999999997,1136.9539999999997,1139.187,1140.199,1140.687,1140.687,1142.3310000000001,1305,1142.3310000000001,4,1142.3310000000001,4,0,120,27,1,1.2,0.7,Time
,,S20,897347,001,male,24,2025-06-04_17h30.17.464,Serial_Dependence_U,2023.2.3,MacIntel,27.77777777777778,,,,,,1142.3310000000001,143,4,1142.333,143,,,,1146.272,1146.7709999999997,1145.759,1146.272,1143.326,1145.759,1146.7709999999997,1147.2669999999998,1147.2669999999998,1149.328,1666,1149.328,4,1149.3289999999997,4,1,121,18,1,1.4,0.7,Time
,,S20,897347,001,male,24,2025-06-04_17h30.17.464,Serial_Dependence_U,2023.2.3,MacIntel,27.77777777777778,,,,,,1149.3289999999997,23,4,1149.3289999999997,23,,,,1152.904,1153.391,1152.393,1152.9029999999998,1150.3539999999998,1152.393,1153.391,1153.897,1153.897,1155.554,1288,1155.554,4,1155.554,4,2,122,16,1,1,0.7,Time
,,S20,897347,001,male,24,2025-06-04_17h30.17.464,Serial_Dependence_U,2023.2.3,MacIntel,27.77777777777778,,,,,,1155.5549999999998,100,4,1155.5549999999998,100,,,,1159.737,1160.237,1159.221,1159.737,1156.545,1159.221,1160.237,1160.7309999999998,1160.7309999999998,1162.6889999999999,1525,1162.6889999999999,3,1162.6889999999999,4,3,123,4,1,1.6,0.3,Time
,,S20,897347,001,male,24,2025-06-04_17h30.17.464,Serial_Dependence_U,2023.2.3,MacIntel,27.77777777777778,,,,,,1162.69,21,4,1162.69,21,,,,1166.688,1167.1839999999997,1166.176,1166.688,1163.6999999999998,1166.1749999999997,1167.1839999999997,1167.6909999999998,1167.6909999999998,1170.94,1757,1170.9409999999998,4,1170.9409999999998,4,4,124,13,1,1.4,0.3,Time
,,S20,897347,001,male,24,2025-06-04_17h30.17.464,Serial_Dependence_U,2023.2.3,MacIntel,27.77777777777778,,,,,,1170.942,184,4,1170.942,184,,,,1174.3219999999997,1174.819,1173.821,1174.3219999999997,1171.9479999999999,1173.821,1174.819,1175.31,1175.31,1176.661,925,1176.661,4,1176.661,4,5,125,20,1,0.8,0.3,Time
,,S20,897347,001,male,24,2025-06-04_17h30.17.464,Serial_Dependence_U,2023.2.3,MacIntel,27.77777777777778,,,,,,1176.661,318,4,1176.661,318,,,,1180.841,1181.341,1180.337,1180.8399999999997,1177.672,1180.337,1181.341,1181.833,1181.833,1183.301,1158,1183.3020000000001,2,1183.3020000000001,4,6,126,24,1,1.6,0.3,Time
,,S20,897347,001,male,24,2025-06-04_17h30.17.464,Serial_Dependence_U,2023.2.3,MacIntel,27.77777777777778,,,,,,1183.3020000000001,257,4,1183.3029999999999,257,,,,1187.107,1187.603,1186.598,1187.1059999999998,1184.319,1186.598,1187.603,1188.1,1188.1,1191.1039999999998,1263,1191.1039999999998,4,1191.105,4,7,127,2,1,1.2,0.3,Time
,,S20,897347,001,male,24,2025-06-04_17h30.17.464,Serial_Dependence_U,2023.2.3,MacIntel,27.77777777777778,,,,,,1191.1059999999998,130,4,1191.1059999999998,130,,,,1194.853,1195.351,1194.337,1194.853,1192.1039999999998,1194.3359999999998,1195.351,1195.859,1195.859,1197.7939999999999,1302,1197.795,4,1197.795,4,8,128,7,1,1.2,0.7,Time
,,S20,897347,001,male,24,2025-06-04_17h30.17.464,Serial_Dependence_U,2023.2.3,MacIntel,27.77777777777778,,,,,,1197.7959999999998,239,4,1197.7959999999998,239,,,,1201.7649999999999,1202.2559999999999,1201.2529999999997,1201.7649999999999,1198.8139999999999,1201.2529999999997,1202.2559999999999,1202.7579999999998,1202.7579999999998,1204.6639999999998,1354,1204.6639999999998,3,1204.6639999999998,4,9,129,8,1,1.4,0.7,Time
,,S20,897347,001,male,24,2025-06-04_17h30.17.464,Serial_Dependence_U,2023.2.3,MacIntel,27.77777777777778,,,,,,1204.665,317,4,1204.665,317,,,,1208.2529999999997,1208.755,1207.739,1208.2529999999997,1205.6569999999997,1207.739,1208.755,1209.2469999999998,1209.2469999999998,1210.9069999999997,1228,1210.9069999999997,4,1210.908,4,10,130,1,1,1,0.3,Time
,,S20,897347,001,male,24,2025-06-04_17h30.17.464,Serial_Dependence_U,2023.2.3,MacIntel,27.77777777777778,,,,,,1210.909,273,4,1210.909,273,,,,1214.4989999999998,1214.9950000000003,1213.9859999999999,1214.4989999999998,1211.92,1213.9859999999999,1214.9950000000003,1215.502,1215.5029999999997,1217.3029999999999,1339,1217.3029999999999,5,1217.304,4,11,131,21,1,1,0.3,Time
,,S20,897347,001,male,24,2025-06-04_17h30.17.464,Serial_Dependence_U,2023.2.3,MacIntel,27.77777777777778,,,,,,1217.304,155,4,1217.3049999999998,155,,,,1220.7060000000001,1221.199,1220.196,1220.705,1218.313,1220.196,1221.1999999999998,1221.6909999999998,1221.6909999999998,1223.4099999999999,1175,1223.4099999999999,5,1223.411,4,12,132,0,1,0.8,0.3,Time
,,S20,897347,001,male,24,2025-06-04_17h30.17.464,Serial_Dependence_U,2023.2.3,MacIntel,27.77777777777778,,,,,,1223.411,264,4,1223.4119999999998,264,,,,1226.971,1227.469,1226.4560000000001,1226.9699999999998,1224.4209999999998,1226.4560000000001,1227.469,1227.962,1227.962,1229.7709999999997,1343,1229.7709999999997,5,1229.7709999999997,4,13,133,6,1,1,0.7,Time
,,S20,897347,001,male,24,2025-06-04_17h30.17.464,Serial_Dependence_U,2023.2.3,MacIntel,27.77777777777778,,,,,,1229.7709999999997,305,4,1229.772,305,,,,1233.937,1234.437,1233.431,1233.937,1230.7669999999998,1233.431,1234.438,1234.933,1234.933,1236.8939999999998,1376,1236.8939999999998,2,1236.895,4,14,134,14,1,1.6,0.3,Time
,,S20,897347,001,male,24,2025-06-04_17h30.17.464,Serial_Dependence_U,2023.2.3,MacIntel,27.77777777777778,,,,,,1236.8959999999997,81,4,1236.8959999999997,81,,,,1241.042,1241.5369999999998,1240.5369999999998,1241.042,1237.9,1240.5369999999998,1241.5369999999998,1242.025,1242.025,1244.004,1535,1244.004,3,1244.005,4,15,135,9,1,1.6,0.7,Time
,,S20,897347,001,male,24,2025-06-04_17h30.17.464,Serial_Dependence_U,2023.2.3,MacIntel,27.77777777777778,,,,,,1244.005,83,4,1244.0059999999999,83,,,,1247.3579999999997,1247.8539999999998,1246.842,1247.3579999999997,1245.004,1246.842,1247.8539999999998,1248.3519999999999,1248.353,1250.194,1211,1250.194,5,1250.194,4,16,136,15,1,0.8,0.7,Time
,,S20,897347,001,male,24,2025-06-04_17h30.17.464,Serial_Dependence_U,2023.2.3,MacIntel,27.77777777777778,,,,,,1250.1949999999997,75,4,1250.1949999999997,75,,,,1254.3449999999998,1254.841,1253.837,1254.344,1251.203,1253.8359999999998,1254.841,1255.341,1255.341,1257.5679999999998,1618,1257.569,3,1257.569,4,17,137,29,1,1.6,0.7,Time
,,S20,897347,001,male,24,2025-06-04_17h30.17.464,Serial_Dependence_U,2023.2.3,MacIntel,27.77777777777778,,,,,,1257.5699999999997,10,4,1257.5699999999997,10,,,,1261.571,1262.058,1261.0529999999999,1261.5699999999997,1258.578,1261.0529999999999,1262.058,1262.556,1262.556,1264.9180000000001,1709,1264.9180000000001,4,1264.9189999999999,4,18,138,23,1,1.4,0.3,Time
,,S20,897347,001,male,24,2025-06-04_17h30.17.464,Serial_Dependence_U,2023.2.3,MacIntel,27.77777777777778,,,,,,1264.9189999999999,254,4,1264.9189999999999,254,,,,1268.2849999999999,1268.783,1267.77,1268.2849999999999,1265.935,1267.77,1268.783,1269.2849999999999,1269.2849999999999,1270.741,212,1270.741,1,1270.7419999999997,4,19,139,5,1,0.8,0.7,Time
,,S20,897347,001,male,24,2025-06-04_17h30.17.464,Serial_Dependence_U,2023.2.3,MacIntel,27.77777777777778,,,,,,1270.7419999999997,182,4,1270.743,182,,,,1274.9,1275.391,1274.388,1274.9,1271.748,1274.3869999999997,1275.391,1275.8849999999998,1275.8849999999998,1278.1569999999997,1850,1278.1569999999997,4,1278.158,4,20,140,19,1,1.6,0.7,Time
,,S20,897347,001,male,24,2025-06-04_17h30.17.464,Serial_Dependence_U,2023.2.3,MacIntel,27.77777777777778,,,,,,1278.159,17,4,1278.159,17,,,,1281.9229999999998,1282.4119999999998,1281.42,1281.9229999999998,1279.176,1281.42,1282.4119999999998,1282.9139999999998,1282.9139999999998,1284.8919999999998,1592,1284.8919999999998,5,1284.893,4,21,141,17,1,1.2,0.7,Time
,,S20,897347,001,male,24,2025-06-04_17h30.17.464,Serial_Dependence_U,2023.2.3,MacIntel,27.77777777777778,,,,,,1284.893,279,4,1284.893,279,,,,1288.4569999999999,1288.964,1287.9560000000001,1288.4560000000001,1285.893,1287.9560000000001,1288.964,1289.466,1289.466,1290.9029999999998,1073,1290.9029999999998,4,1290.904,4,22,142,11,1,1,0.3,Time
,,S20,897347,001,male,24,2025-06-04_17h30.17.464,Serial_Dependence_U,2023.2.3,MacIntel,27.77777777777778,,,,,,1290.904,344,4,1290.904,344,,,,1294.2689999999998,1294.772,1293.752,1294.2689999999998,1291.9189999999999,1293.752,1294.7730000000001,1295.2709999999997,1295.2709999999997,1297.161,1495,1297.161,5,1297.1619999999998,4,23,143,25,1,0.8,0.7,Time
,,S20,897347,001,male,24,2025-06-04_17h30.17.464,Serial_Dependence_U,2023.2.3,MacIntel,27.77777777777778,,,,,,1297.163,150,4,1297.163,150,,,,1300.7069999999999,1301.217,1300.201,1300.7069999999999,1298.165,1300.201,1301.217,1301.7179999999998,1301.719,1303.779,1487,1303.779,5,1303.7799999999997,4,24,144,26,1,1,0.7,Time
,,S20,897347,001,male,24,2025-06-04_17h30.17.464,Serial_Dependence_U,2023.2.3,MacIntel,27.77777777777778,,,,,,1303.7799999999997,262,4,1303.7799999999997,262,,,,1307.56,1308.0520000000001,1307.0520000000001,1307.56,1304.786,1307.0520000000001,1308.0520000000001,1308.542,1308.542,1310.3229999999999,1225,1310.3229999999999,3,1310.3229999999999,4,25,145,12,1,1.2,0.3,Time
,,S20,897347,001,male,24,2025-06-04_17h30.17.464,Serial_Dependence_U,2023.2.3,MacIntel,27.77777777777778,,,,,,1310.324,252,4,1310.324,252,,,,1314.136,1314.6219999999998,1313.6200000000003,1314.136,1311.3379999999997,1313.6200000000003,1314.6219999999998,1315.118,1315.118,1316.853,1363,1316.853,4,1316.8539999999998,4,26,146,22,1,1.2,0.3,Time
,,S20,897347,001,male,24,2025-06-04_17h30.17.464,Serial_Dependence_U,2023.2.3,MacIntel,27.77777777777778,,,,,,1316.8539999999998,314,4,1316.8539999999998,314,,,,1320.2269999999999,1320.7199999999998,1319.7219999999998,1320.2269999999999,1317.8600000000001,1319.721,1320.7199999999998,1321.2239999999997,1321.2239999999997,1322.6169999999997,1046,1322.6169999999997,5,1322.6169999999997,4,27,147,10,1,0.8,0.3,Time
,,S20,897347,001,male,24,2025-06-04_17h30.17.464,Serial_Dependence_U,2023.2.3,MacIntel,27.77777777777778,,,,,,1322.618,103,4,1322.618,103,,,,1326.5969999999998,1327.1,1326.089,1326.5969999999998,1323.616,1326.089,1327.1,1327.5879999999997,1327.5879999999997,1329.71,1762,1329.71,4,1329.71,4,28,148,3,1,1.4,0.3,Time
,,S20,897347,001,male,24,2025-06-04_17h30.17.464,Serial_Dependence_U,2023.2.3,MacIntel,27.77777777777778,,,,,,1329.7109999999998,150,4,1329.7109999999998,150,,,,1333.6689999999999,1334.159,1333.163,1333.6689999999999,1330.7199999999998,1333.163,1334.159,1334.6619999999998,1334.6619999999998,1336.636,1488,1336.636,4,1336.636,4,29,149,28,1,1.4,0.7,Time
,,S20,897347,001,male,24,2025-06-04_17h30.17.464,Serial_Dependence_U,2023.2.3,MacIntel,27.77777777777778,,,,,,1336.6369999999997,30,5,1338.453,30,s,1.7999999999999545,,1342.6439999999998,1343.1390000000001,1342.1200000000003,1342.6439999999998,1339.4519999999998,1342.1200000000003,1343.1399999999999,1343.6390000000001,1343.6390000000001,1345.1619999999998,1147,1345.1619999999998,2,1345.1619999999998,5,0,150,24,1,1.6,0.3,Time
,,S20,897347,001,male,24,2025-06-04_17h30.17.464,Serial_Dependence_U,2023.2.3,MacIntel,27.77777777777778,,,,,,1345.163,79,5,1345.1639999999998,79,,,,1348.509,1349.009,1347.993,1348.509,1346.1619999999998,1347.993,1349.009,1349.5079999999998,1349.5079999999998,1350.926,981,1350.926,4,1350.9270000000001,5,1,151,15,1,0.8,0.7,Time
,,S20,897347,001,male,24,2025-06-04_17h30.17.464,Serial_Dependence_U,2023.2.3,MacIntel,27.77777777777778,,,,,,1350.9270000000001,29,5,1350.9270000000001,29,,,,1354.5209999999997,1355.022,1354.0059999999999,1354.5209999999997,1351.9389999999999,1354.0059999999999,1355.022,1355.522,1355.522,1357.6219999999998,1109,1357.6219999999998,4,1357.6219999999998,5,2,152,11,1,1,0.3,Time
,,S20,897347,001,male,24,2025-06-04_17h30.17.464,Serial_Dependence_U,2023.2.3,MacIntel,27.77777777777778,,,,,,1357.623,114,5,1357.623,114,,,,1361.3899999999999,1361.8849999999998,1360.884,1361.3899999999999,1358.6390000000001,1360.884,1361.886,1362.3829999999998,1362.3829999999998,1364.101,1319,1364.101,4,1364.1019999999999,5,3,153,7,1,1.2,0.7,Time
,,S20,897347,001,male,24,2025-06-04_17h30.17.464,Serial_Dependence_U,2023.2.3,MacIntel,27.77777777777778,,,,,,1364.1019999999999,49,5,1364.1019999999999,49,,,,1367.6889999999999,1368.179,1367.1819999999998,1367.6889999999999,1365.1079999999997,1367.1819999999998,1368.179,1368.667,1368.667,1370.433,1400,1370.433,5,1370.433,5,4,154,21,1,1,0.3,Time
,,S20,897347,001,male,24,2025-06-04_17h30.17.464,Serial_Dependence_U,2023.2.3,MacIntel,27.77777777777778,,,,,,1370.4339999999997,145,5,1370.4339999999997,145,,,,1374.598,1375.089,1374.0859999999998,1374.598,1371.437,1374.0859999999998,1375.089,1375.5899999999997,1375.5899999999997,1377.908,1508,1377.908,2,1377.908,5,5,155,9,1,1.6,0.7,Time
,,S20,897347,001,male,24,2025-06-04_17h30.17.464,Serial_Dependence_U,2023.2.3,MacIntel,27.77777777777778,,,,,,1377.909,261,5,1377.909,261,,,,1381.301,1381.7959999999998,1380.786,1381.301,1378.9209999999998,1380.786,1381.7959999999998,1382.2930000000001,1382.2930000000001,1383.8469999999998,1096,1383.8469999999998,5,1383.848,5,6,156,20,1,0.8,0.3,Time
,,S20,897347,001,male,24,2025-06-04_17h30.17.464,Serial_Dependence_U,2023.2.3,MacIntel,27.77777777777778,,,,,,1383.848,23,5,1383.8489999999997,23,,,,1387.6200000000003,1388.1219999999998,1387.1079999999997,1387.6200000000003,1384.866,1387.107,1388.1219999999998,1388.6109999999999,1388.6109999999999,1390.6059999999998,1482,1390.6059999999998,4,1390.6059999999998,5,7,157,27,1,1.2,0.7,Time
,,S20,897347,001,male,24,2025-06-04_17h30.17.464,Serial_Dependence_U,2023.2.3,MacIntel,27.77777777777778,,,,,,1390.6059999999998,300,5,1390.607,300,,,,1394.366,1394.851,1393.864,1394.366,1391.601,1393.864,1394.851,1395.346,1395.346,1397.0299999999997,1295,1397.0299999999997,4,1397.031,5,8,158,22,1,1.2,0.3,Time
,,S20,897347,001,male,24,2025-06-04_17h30.17.464,Serial_Dependence_U,2023.2.3,MacIntel,27.77777777777778,,,,,,1397.031,327,5,1397.0319999999997,327,,,,1400.402,1400.8890000000001,1399.8849999999998,1400.402,1398.033,1399.8849999999998,1400.8890000000001,1401.379,1401.38,1402.85,1110,1402.85,5,1402.85,5,9,159,5,1,0.8,0.7,Time
,,S20,897347,001,male,24,2025-06-04_17h30.17.464,Serial_Dependence_U,2023.2.3,MacIntel,27.77777777777778,,,,,,1402.851,347,5,1402.851,347,,,,1406.2089999999998,1406.6929999999998,1405.701,1406.2089999999998,1403.8539999999998,1405.701,1406.694,1407.1859999999997,1407.1859999999997,1408.6079999999997,976,1408.6079999999997,4,1408.609,5,10,160,25,1,0.8,0.7,Time
,,S20,897347,001,male,24,2025-06-04_17h30.17.464,Serial_Dependence_U,2023.2.3,MacIntel,27.77777777777778,,,,,,1408.609,212,5,1408.609,212,,,,1412.6149999999998,1413.118,1412.105,1412.614,1409.632,1412.105,1413.118,1413.6100000000001,1413.6100000000001,1415.165,1211,1415.165,2,1415.1659999999997,5,11,161,23,1,1.4,0.3,Time
,,S20,897347,001,male,24,2025-06-04_17h30.17.464,Serial_Dependence_U,2023.2.3,MacIntel,27.77777777777778,,,,,,1415.1659999999997,51,5,1415.1659999999997,51,,,,1419.134,1419.6369999999997,1418.627,1419.1329999999998,1416.159,1418.627,1419.6369999999997,1420.121,1420.121,1421.7709999999997,1217,1421.7709999999997,2,1421.772,5,12,162,3,1,1.4,0.3,Time
,,S20,897347,001,male,24,2025-06-04_17h30.17.464,Serial_Dependence_U,2023.2.3,MacIntel,27.77777777777778,,,,,,1421.772,313,5,1421.772,313,,,,1425.1709999999998,1425.6709999999998,1424.654,1425.17,1422.777,1424.654,1425.6709999999998,1426.172,1426.172,1427.7069999999999,1021,1427.7069999999999,4,1427.708,5,13,163,10,1,0.8,0.3,Time
,,S20,897347,001,male,24,2025-06-04_17h30.17.464,Serial_Dependence_U,2023.2.3,MacIntel,27.77777777777778,,,,,,1427.708,288,5,1427.708,288,,,,1431.4539999999997,1431.944,1430.953,1431.4539999999997,1428.705,1430.953,1431.944,1432.4319999999998,1432.4319999999998,1434.1529999999998,1310,1434.154,4,1434.154,5,14,164,17,1,1.2,0.7,Time
,,S20,897347,001,male,24,2025-06-04_17h30.17.464,Serial_Dependence_U,2023.2.3,MacIntel,27.77777777777778,,,,,,1434.1549999999997,31,5,1434.1549999999997,31,,,,1437.7289999999998,1438.2199999999998,1437.214,1437.728,1435.179,1437.214,1438.2199999999998,1438.7219999999998,1438.7219999999998,1440.1859999999997,1043,1440.1859999999997,3,1440.187,5,15,165,6,1,1,0.7,Time
,,S20,897347,001,male,24,2025-06-04_17h30.17.464,Serial_Dependence_U,2023.2.3,MacIntel,27.77777777777778,,,,,,1440.187,173,5,1440.187,173,,,,1443.9829999999997,1444.471,1443.478,1443.9829999999997,1441.1999999999998,1443.478,1444.471,1444.96,1444.96,1446.683,1330,1446.683,4,1446.683,5,16,166,2,1,1.2,0.3,Time
,,S20,897347,001,male,24,2025-06-04_17h30.17.464,Serial_Dependence_U,2023.2.3,MacIntel,27.77777777777778,,,,,,1446.6839999999997,330,5,1446.6839999999997,330,,,,1450.4699999999998,1450.9699999999998,1449.9679999999998,1450.4699999999998,1447.688,1449.9679999999998,1450.9699999999998,1451.469,1451.4699999999998,1453.096,1223,1453.096,3,1453.096,5,17,167,12,1,1.2,0.3,Time
,,S20,897347,001,male,24,2025-06-04_17h30.17.464,Serial_Dependence_U,2023.2.3,MacIntel,27.77777777777778,,,,,,1453.096,234,5,1453.096,234,,,,1456.656,1457.161,1456.147,1456.6549999999997,1454.1019999999999,1456.147,1457.161,1457.647,1457.647,1459.069,1073,1459.0699999999997,4,1459.0699999999997,5,18,168,16,1,1,0.7,Time
,,S20,897347,001,male,24,2025-06-04_17h30.17.464,Serial_Dependence_U,2023.2.3,MacIntel,27.77777777777778,,,,,,1459.071,272,5,1459.071,272,,,,1463.2619999999997,1463.7529999999997,1462.757,1463.2619999999997,1460.087,1462.757,1463.7529999999997,1464.25,1464.25,1465.9299999999998,1199,1465.931,2,1465.931,5,19,169,14,1,1.6,0.3,Time
,,S20,897347,001,male,24,2025-06-04_17h30.17.464,Serial_Dependence_U,2023.2.3,MacIntel,27.77777777777778,,,,,,1465.9319999999998,333,5,1465.9319999999998,333,,,,1469.315,1469.804,1468.813,1469.315,1466.938,1468.813,1469.804,1470.299,1470.299,1471.7329999999997,1025,1471.7329999999997,4,1471.734,5,20,170,0,1,0.8,0.3,Time
,,S20,897347,001,male,24,2025-06-04_17h30.17.464,Serial_Dependence_U,2023.2.3,MacIntel,27.77777777777778,,,,,,1471.734,70,5,1471.734,70,,,,1475.6799999999998,1476.1799999999998,1475.1729999999998,1475.6799999999998,1472.7329999999997,1475.1729999999998,1476.1799999999998,1476.6680000000001,1476.6680000000001,1478.612,1472,1478.612,4,1478.6129999999998,5,21,171,8,1,1.4,0.7,Time
,,S20,897347,001,male,24,2025-06-04_17h30.17.464,Serial_Dependence_U,2023.2.3,MacIntel,27.77777777777778,,,,,,1478.6129999999998,218,5,1478.6129999999998,218,,,,1482.569,1483.0609999999997,1482.054,1482.569,1479.609,1482.054,1483.0609999999997,1483.554,1483.554,1485.453,1325,1485.453,2,1485.4539999999997,5,22,172,28,1,1.4,0.7,Time
,,S20,897347,001,male,24,2025-06-04_17h30.17.464,Serial_Dependence_U,2023.2.3,MacIntel,27.77777777777778,,,,,,1485.4539999999997,267,5,1485.455,267,,,,1489.4049999999997,1489.908,1488.9009999999998,1489.4049999999997,1486.4699999999998,1488.9,1489.908,1490.404,1490.404,1492.2019999999998,1311,1492.2019999999998,2,1492.2019999999998,5,23,173,18,1,1.4,0.7,Time
,,S20,897347,001,male,24,2025-06-04_17h30.17.464,Serial_Dependence_U,2023.2.3,MacIntel,27.77777777777778,,,,,,1492.203,109,5,1492.203,109,,,,1495.768,1496.27,1495.2450000000003,1495.768,1493.203,1495.2450000000003,1496.27,1496.77,1496.77,1498.77,1284,1498.77,4,1498.7709999999997,5,24,174,26,1,1,0.7,Time
,,S20,897347,001,male,24,2025-06-04_17h30.17.464,Serial_Dependence_U,2023.2.3,MacIntel,27.77777777777778,,,,,,1498.7709999999997,20,5,1498.772,20,,,,1502.3519999999999,1502.8489999999997,1501.846,1502.3519999999999,1499.768,1501.846,1502.8489999999997,1503.35,1503.35,1505.3829999999998,1423,1505.3829999999998,5,1505.3829999999998,5,25,175,1,1,1,0.3,Time
,,S20,897347,001,male,24,2025-06-04_17h30.17.464,Serial_Dependence_U,2023.2.3,MacIntel,27.77777777777778,,,,,,1505.3829999999998,19,5,1505.384,19,,,,1509.542,1510.0369999999998,1509.0369999999998,1509.542,1506.3939999999998,1509.0369999999998,1510.0369999999998,1510.5299999999997,1510.5299999999997,1512.6129999999998,1448,1512.6129999999998,2,1512.6129999999998,5,26,176,29,1,1.6,0.7,Time
,,S20,897347,001,male,24,2025-06-04_17h30.17.464,Serial_Dependence_U,2023.2.3,MacIntel,27.77777777777778,,,,,,1512.6129999999998,93,5,1512.614,93,,,,1516.7709999999997,1517.2599999999998,1516.268,1516.77,1513.621,1516.268,1517.2599999999998,1517.7529999999997,1517.7529999999997,1520.1019999999999,1764,1520.103,4,1520.103,5,27,177,19,1,1.6,0.7,Time
,,S20,897347,001,male,24,2025-06-04_17h30.17.464,Serial_Dependence_U,2023.2.3,MacIntel,27.77777777777778,,,,,,1520.1039999999998,175,5,1520.1039999999998,175,,,,1524.087,1524.585,1523.5859999999998,1524.087,1521.1200000000003,1523.5859999999998,1524.585,1525.0900000000001,1525.0900000000001,1526.5639999999999,1115,1526.5639999999999,2,1526.5639999999999,5,28,178,13,1,1.4,0.3,Time
,,S20,897347,001,male,24,2025-06-04_17h30.17.464,Serial_Dependence_U,2023.2.3,MacIntel,27.77777777777778,,,,,,1526.565,113,5,1526.565,113,,,,1530.7450000000003,1531.2359999999999,1530.228,1530.7440000000001,1527.562,1530.228,1531.2359999999999,1531.7269999999999,1531.7269999999999,1533.42,1311,1533.42,2,1533.4209999999998,5,29,179,4,1,1.6,0.3,Time
,,S20,897347,001,male,24,2025-06-04_17h30.17.464,Serial_Dependence_U,2023.2.3,MacIntel,27.77777777777778,,,,,,1533.4209999999998,70,6,1600.4850000000001,70,s,67.04600000000005,,1603.8779999999997,1604.377,1603.3609999999999,1603.8779999999997,1601.4879999999998,1603.3609999999999,1604.377,1604.8759999999997,1604.8759999999997,1606.409,1155,1606.4099999999999,5,1606.4099999999999,6,0,180,20,1,0.8,0.3,Time
,,S20,897347,001,male,24,2025-06-04_17h30.17.464,Serial_Dependence_U,2023.2.3,MacIntel,27.77777777777778,,,,,,1606.4099999999999,354,6,1606.4119999999998,354,,,,1610.598,1611.0969999999998,1610.08,1610.5969999999998,1607.413,1610.08,1611.0969999999998,1611.5969999999998,1611.5969999999998,1613.5479999999998,1448,1613.5479999999998,2,1613.5479999999998,6,1,181,14,1,1.6,0.3,Time
,,S20,897347,001,male,24,2025-06-04_17h30.17.464,Serial_Dependence_U,2023.2.3,MacIntel,27.77777777777778,,,,,,1613.5479999999998,260,6,1613.5479999999998,260,,,,1616.937,1617.4359999999997,1616.4249999999997,1616.937,1614.5479999999998,1616.4249999999997,1617.4359999999997,1617.9270000000001,1617.9270000000001,1619.3809999999999,1026,1619.3809999999999,4,1619.382,6,2,182,10,1,0.8,0.3,Time
,,S20,897347,001,male,24,2025-06-04_17h30.17.464,Serial_Dependence_U,2023.2.3,MacIntel,27.77777777777778,,,,,,1619.382,260,6,1619.382,260,,,,1622.9469999999997,1623.4469999999997,1622.431,1622.9469999999997,1620.3980000000001,1622.4299999999998,1623.4469999999997,1623.9469999999997,1623.9469999999997,1625.6190000000001,1130,1625.6200000000003,4,1625.6200000000003,6,3,183,6,1,1,0.7,Time
,,S20,897347,001,male,24,2025-06-04_17h30.17.464,Serial_Dependence_U,2023.2.3,MacIntel,27.77777777777778,,,,,,1625.6200000000003,178,6,1625.6200000000003,178,,,,1629.413,1629.906,1628.902,1629.413,1626.629,1628.902,1629.906,1630.406,1630.406,1632.1369999999997,1116,1632.138,2,1632.138,6,4,184,2,1,1.2,0.3,Time
,,S20,897347,001,male,24,2025-06-04_17h30.17.464,Serial_Dependence_U,2023.2.3,MacIntel,27.77777777777778,,,,,,1632.1390000000001,140,6,1632.1390000000001,140,,,,1635.911,1636.4099999999999,1635.4069999999997,1635.9099999999999,1633.143,1635.406,1636.4099999999999,1636.902,1636.902,1638.5679999999998,1279,1638.5679999999998,4,1638.5679999999998,6,5,185,12,1,1.2,0.3,Time
,,S20,897347,001,male,24,2025-06-04_17h30.17.464,Serial_Dependence_U,2023.2.3,MacIntel,27.77777777777778,,,,,,1638.569,171,6,1638.569,171,,,,1642.725,1643.226,1642.2239999999997,1642.725,1639.585,1642.2239999999997,1643.226,1643.7309999999998,1643.7309999999998,1645.8649999999998,1274,1645.8649999999998,2,1645.866,6,6,186,9,1,1.6,0.7,Time
,,S20,897347,001,male,24,2025-06-04_17h30.17.464,Serial_Dependence_U,2023.2.3,MacIntel,27.77777777777778,,,,,,1645.866,72,6,1645.866,72,,,,1649.4069999999997,1649.902,1648.8959999999997,1649.4069999999997,1646.864,1648.895,1649.9029999999998,1650.395,1650.395,1652.096,1247,1652.096,4,1652.0969999999998,6,7,187,16,1,1,0.7,Time
,,S20,897347,001,male,24,2025-06-04_17h30.17.464,Serial_Dependence_U,2023.2.3,MacIntel,27.77777777777778,,,,,,1652.098,97,6,1652.098,97,,,,1655.4809999999998,1655.9679999999998,1654.969,1655.4809999999998,1653.1039999999998,1654.9679999999998,1655.9679999999998,1656.4629999999997,1656.4629999999997,1657.9769999999999,1054,1657.9769999999999,5,1657.9769999999999,6,8,188,0,1,0.8,0.3,Time
,,S20,897347,001,male,24,2025-06-04_17h30.17.464,Serial_Dependence_U,2023.2.3,MacIntel,27.77777777777778,,,,,,1657.978,222,6,1657.978,222,,,,1661.942,1662.4299999999998,1661.435,1661.942,1658.9919999999997,1661.435,1662.4299999999998,1662.922,1662.922,1664.884,1475,1664.884,4,1664.8849999999998,6,9,189,28,1,1.4,0.7,Time
,,S20,897347,001,male,24,2025-06-04_17h30.17.464,Serial_Dependence_U,2023.2.3,MacIntel,27.77777777777778,,,,,,1664.8849999999998,272,6,1664.8849999999998,272,,,,1669.051,1669.549,1668.5409999999997,1669.0499999999997,1665.9,1668.5409999999997,1669.549,1670.04,1670.0409999999997,1671.8629999999998,1402,1671.864,2,1671.864,6,10,190,29,1,1.6,0.7,Time
,,S20,897347,001,male,24,2025-06-04_17h30.17.464,Serial_Dependence_U,2023.2.3,MacIntel,27.77777777777778,,,,,,1671.864,325,6,1671.8649999999998,325,,,,1675.2199999999998,1675.719,1674.7060000000001,1675.219,1672.8719999999998,1674.705,1675.719,1676.214,1676.214,1678.1169999999997,966,1678.1169999999997,4,1678.1169999999997,6,11,191,15,1,0.8,0.7,Time
,,S20,897347,001,male,24,2025-06-04_17h30.17.464,Serial_Dependence_U,2023.2.3,MacIntel,27.77777777777778,,,,,,1678.118,274,6,1678.118,274,,,,1681.864,1682.3600000000001,1681.353,1681.8629999999998,1679.121,1681.3519999999999,1682.3600000000001,1682.864,1682.864,1684.4850000000001,1133,1684.4859999999999,2,1684.4859999999999,6,12,192,27,1,1.2,0.7,Time
,,S20,897347,001,male,24,2025-06-04_17h30.17.464,Serial_Dependence_U,2023.2.3,MacIntel,27.77777777777778,,,,,,1684.4859999999999,257,6,1684.487,257,,,,1688.2440000000001,1688.7419999999997,1687.7379999999998,1688.243,1685.4989999999998,1687.737,1688.7419999999997,1689.239,1689.239,1690.801,1091,1690.801,2,1690.801,6,13,193,7,1,1.2,0.7,Time
,,S20,897347,001,male,24,2025-06-04_17h30.17.464,Serial_Dependence_U,2023.2.3,MacIntel,27.77777777777778,,,,,,1690.8020000000001,223,6,1690.8020000000001,223,,,,1694.1599999999999,1694.6509999999998,1693.6509999999998,1694.1599999999999,1691.8020000000001,1693.6509999999998,1694.6509999999998,1695.15,1695.15,1696.801,1282,1696.8020000000001,5,1696.8020000000001,6,14,194,5,1,0.8,0.7,Time
,,S20,897347,001,male,24,2025-06-04_17h30.17.464,Serial_Dependence_U,2023.2.3,MacIntel,27.77777777777778,,,,,,1696.8029999999999,320,6,1696.8029999999999,320,,,,1700.185,1700.6889999999999,1699.67,1700.185,1697.8229999999999,1699.67,1700.6889999999999,1701.185,1701.185,1702.4699999999998,868,1702.4699999999998,4,1702.471,6,15,195,25,1,0.8,0.7,Time
,,S20,897347,001,male,24,2025-06-04_17h30.17.464,Serial_Dependence_U,2023.2.3,MacIntel,27.77777777777778,,,,,,1702.471,165,6,1702.471,165,,,,1706.6259999999997,1707.1149999999998,1706.1219999999998,1706.625,1703.475,1706.1219999999998,1707.1149999999998,1707.6100000000001,1707.6100000000001,1709.6889999999999,1568,1709.6889999999999,3,1709.69,6,16,196,19,1,1.6,0.7,Time
,,S20,897347,001,male,24,2025-06-04_17h30.17.464,Serial_Dependence_U,2023.2.3,MacIntel,27.77777777777778,,,,,,1709.69,293,6,1709.69,293,,,,1713.652,1714.154,1713.149,1713.652,1710.687,1713.149,1714.154,1714.654,1714.654,1716.259,1248,1716.259,2,1716.2599999999998,6,17,197,3,1,1.4,0.3,Time
,,S20,897347,001,male,24,2025-06-04_17h30.17.464,Serial_Dependence_U,2023.2.3,MacIntel,27.77777777777778,,,,,,1716.2599999999998,258,6,1716.2599999999998,258,,,,1719.7849999999999,1720.274,1719.283,1719.7849999999999,1717.252,1719.283,1720.274,1720.7619999999997,1720.7619999999997,1722.192,1086,1722.192,4,1722.1929999999998,6,18,198,26,1,1,0.7,Time
,,S20,897347,001,male,24,2025-06-04_17h30.17.464,Serial_Dependence_U,2023.2.3,MacIntel,27.77777777777778,,,,,,1722.1929999999998,18,6,1722.194,18,,,,1725.774,1726.2730000000001,1725.2599999999998,1725.774,1723.194,1725.2599999999998,1726.274,1726.7709999999997,1726.7709999999997,1728.2909999999997,1086,1728.2909999999997,4,1728.2909999999997,6,19,199,21,1,1,0.3,Time
,,S20,897347,001,male,24,2025-06-04_17h30.17.464,Serial_Dependence_U,2023.2.3,MacIntel,27.77777777777778,,,,,,1728.2909999999997,355,6,1728.292,355,,,,1732.469,1732.96,1731.967,1732.469,1729.304,1731.966,1732.96,1733.462,1733.462,1735.087,1242,1735.087,2,1735.087,6,20,200,24,1,1.6,0.3,Time
,,S20,897347,001,male,24,2025-06-04_17h30.17.464,Serial_Dependence_U,2023.2.3,MacIntel,27.77777777777778,,,,,,1735.0879999999997,118,6,1735.0879999999997,118,,,,1738.8400000000001,1739.3289999999997,1738.328,1738.8400000000001,1736.0859999999998,1738.328,1739.3289999999997,1739.835,1739.835,1741.533,1265,1741.534,4,1741.534,6,21,201,17,1,1.2,0.7,Time
,,S20,897347,001,male,24,2025-06-04_17h30.17.464,Serial_Dependence_U,2023.2.3,MacIntel,27.77777777777778,,,,,,1741.5349999999999,120,6,1741.5349999999999,120,,,,1745.114,1745.6129999999998,1744.598,1745.114,1742.5349999999999,1744.5969999999998,1745.614,1746.112,1746.112,1747.812,1307,1747.813,5,1747.813,6,22,202,1,1,1,0.3,Time
,,S20,897347,001,male,24,2025-06-04_17h30.17.464,Serial_Dependence_U,2023.2.3,MacIntel,27.77777777777778,,,,,,1747.813,312,6,1747.813,312,,,,1751.393,1751.888,1750.884,1751.3919999999998,1748.812,1750.8829999999998,1751.888,1752.3919999999998,1752.3919999999998,1754.1749999999997,1420,1754.1749999999997,5,1754.1749999999997,6,23,203,11,1,1,0.3,Time
,,S20,897347,001,male,24,2025-06-04_17h30.17.464,Serial_Dependence_U,2023.2.3,MacIntel,27.77777777777778,,,,,,1754.1749999999997,292,6,1754.1749999999997,292,,,,1758.1680000000001,1758.672,1757.658,1758.1680000000001,1755.1909999999998,1757.658,1758.672,1759.1619999999998,1759.1619999999998,1760.937,1360,1760.937,3,1760.938,6,24,204,13,1,1.4,0.3,Time
,,S20,897347,001,male,24,2025-06-04_17h30.17.464,Serial_Dependence_U,2023.2.3,MacIntel,27.77777777777778,,,,,,1760.9389999999999,208,6,1760.9389999999999,208,,,,1764.743,1765.234,1764.2239999999997,1764.743,1761.9539999999997,1764.2239999999997,1765.234,1765.721,1765.721,1767.3739999999998,1301,1767.375,4,1767.375,6,25,205,22,1,1.2,0.3,Time
,,S20,897347,001,male,24,2025-06-04_17h30.17.464,Serial_Dependence_U,2023.2.3,MacIntel,27.77777777777778,,,,,,1767.3759999999997,181,6,1767.3759999999997,181,,,,1771.551,1772.0499999999997,1771.0479999999998,1771.551,1768.3849999999998,1771.047,1772.0499999999997,1772.5349999999999,1772.5349999999999,1774.1860000000001,1283,1774.1860000000001,2,1774.187,6,26,206,4,1,1.6,0.3,Time
,,S20,897347,001,male,24,2025-06-04_17h30.17.464,Serial_Dependence_U,2023.2.3,MacIntel,27.77777777777778,,,,,,1774.187,306,6,1774.187,306,,,,1778.165,1778.6509999999998,1777.652,1778.165,1775.2019999999998,1777.6509999999998,1778.6509999999998,1779.147,1779.147,1780.8489999999997,1268,1780.85,2,1780.85,6,27,207,8,1,1.4,0.7,Time
,,S20,897347,001,male,24,2025-06-04_17h30.17.464,Serial_Dependence_U,2023.2.3,MacIntel,27.77777777777778,,,,,,1780.851,64,6,1780.8519999999999,64,,,,1784.844,1785.3429999999998,1784.3249999999998,1784.844,1781.855,1784.3249999999998,1785.3429999999998,1785.8429999999998,1785.8429999999998,1787.627,1318,1787.627,2,1787.627,6,28,208,23,1,1.4,0.3,Time
,,S20,897347,001,male,24,2025-06-04_17h30.17.464,Serial_Dependence_U,2023.2.3,MacIntel,27.77777777777778,,,,,,1787.627,118,6,1787.6279999999997,118,,,,1791.571,1792.0659999999998,1791.065,1791.5699999999997,1788.6200000000003,1791.065,1792.067,1792.562,1792.562,1794.234,1189,1794.234,2,1794.2350000000001,6,29,209,18,1,1.4,0.7,Time
,,S20,897347,001,male,24,2025-06-04_17h30.17.464,Serial_Dependence_U,2023.2.3,MacIntel,27.77777777777778,,,,,,1794.2350000000001,2,7,2064.353,2,s,270.09799999999996,,2067.904,2068.401,2067.401,2067.904,2065.366,2067.4,2068.401,2068.89,2068.89,2070.38,1072,2070.38,4,2070.381,7,0,210,26,1,1,0.7,Time
,,S20,897347,001,male,24,2025-06-04_17h30.17.464,Serial_Dependence_U,2023.2.3,MacIntel,27.77777777777778,,,,,,2070.382,153,7,2070.386,153,,,,2073.781,2074.273,2073.264,2073.781,2071.39,2073.264,2074.273,2074.785,2074.785,2076.126,897,2076.126,4,2076.126,7,1,211,10,1,0.8,0.3,Time
,,S20,897347,001,male,24,2025-06-04_17h30.17.464,Serial_Dependence_U,2023.2.3,MacIntel,27.77777777777778,,,,,,2076.127,295,7,2076.127,295,,,,2080.083,2080.587,2079.563,2080.083,2077.126,2079.563,2080.587,2081.077,2081.077,2082.7400000000002,1251,2082.7400000000002,2,2082.7400000000002,7,2,212,28,1,1.4,0.7,Time
,,S20,897347,001,male,24,2025-06-04_17h30.17.464,Serial_Dependence_U,2023.2.3,MacIntel,27.77777777777778,,,,,,2082.741,285,7,2082.741,285,,,,2086.707,2087.199,2086.202,2086.707,2083.7400000000002,2086.202,2087.199,2087.699,2087.699,2089.035,953,2089.035,1,2089.035,7,3,213,3,1,1.4,0.3,Time
,,S20,897347,001,male,24,2025-06-04_17h30.17.464,Serial_Dependence_U,2023.2.3,MacIntel,27.77777777777778,,,,,,2089.036,65,7,2089.036,65,,,,2092.767,2093.2580000000003,2092.266,2092.766,2090.035,2092.266,2093.2580000000003,2093.757,2093.757,2095.279,1141,2095.279,3,2095.279,7,4,214,7,1,1.2,0.7,Time
,,S20,897347,001,male,24,2025-06-04_17h30.17.464,Serial_Dependence_U,2023.2.3,MacIntel,27.77777777777778,,,,,,2095.279,313,7,2095.279,313,,,,2099.231,2099.7290000000003,2098.73,2099.231,2096.296,2098.73,2099.7290000000003,2100.232,2100.232,2101.914,1279,2101.914,2,2101.914,7,5,215,8,1,1.4,0.7,Time
,,S20,897347,001,male,24,2025-06-04_17h30.17.464,Serial_Dependence_U,2023.2.3,MacIntel,27.77777777777778,,,,,,2101.914,76,7,2101.914,76,,,,2105.28,2105.783,2104.7780000000002,2105.28,2102.916,2104.7780000000002,2105.783,2106.279,2106.279,2107.726,1052,2107.726,5,2107.726,7,6,216,20,1,0.8,0.3,Time
,,S20,897347,001,male,24,2025-06-04_17h30.17.464,Serial_Dependence_U,2023.2.3,MacIntel,27.77777777777778,,,,,,2107.727,272,7,2107.727,272,,,,2111.87,2112.361,2111.366,2111.87,2108.732,2111.366,2112.361,2112.861,2112.861,2114.752,1488,2114.752,2,2114.753,7,7,217,29,1,1.6,0.7,Time
,,S20,897347,001,male,24,2025-06-04_17h30.17.464,Serial_Dependence_U,2023.2.3,MacIntel,27.77777777777778,,,,,,2114.753,259,7,2114.754,259,,,,2118.936,2119.435,2118.42,2118.936,2115.751,2118.419,2119.435,2119.931,2119.931,2121.546,1188,2121.546,2,2121.546,7,8,218,14,1,1.6,0.3,Time
,,S20,897347,001,male,24,2025-06-04_17h30.17.464,Serial_Dependence_U,2023.2.3,MacIntel,27.77777777777778,,,,,,2121.547,109,7,2121.547,109,,,,2124.906,2125.407,2124.402,2124.906,2122.56,2124.402,2125.407,2125.899,2125.899,2127.388,1101,2127.388,5,2127.388,7,9,219,25,1,0.8,0.7,Time
,,S20,897347,001,male,24,2025-06-04_17h30.17.464,Serial_Dependence_U,2023.2.3,MacIntel,27.77777777777778,,,,,,2127.388,230,7,2127.388,230,,,,2130.773,2131.274,2130.261,2130.773,2128.398,2130.261,2131.274,2131.765,2131.765,2133.04,873,2133.04,4,2133.041,7,10,220,0,1,0.8,0.3,Time
,,S20,897347,001,male,24,2025-06-04_17h30.17.464,Serial_Dependence_U,2023.2.3,MacIntel,27.77777777777778,,,,,,2133.041,239,7,2133.041,239,,,,2136.584,2137.079,2136.076,2136.584,2134.039,2136.076,2137.079,2137.582,2137.582,2139.187,1245,2139.188,4,2139.188,7,11,221,16,1,1,0.7,Time
,,S20,897347,001,male,24,2025-06-04_17h30.17.464,Serial_Dependence_U,2023.2.3,MacIntel,27.77777777777778,,,,,,2139.188,344,7,2139.188,344,,,,2143.137,2143.637,2142.637,2143.137,2140.1910000000003,2142.637,2143.637,2144.129,2144.129,2145.6150000000007,1067,2145.6150000000007,2,2145.6150000000007,7,12,222,18,1,1.4,0.7,Time
,,S20,897347,001,male,24,2025-06-04_17h30.17.464,Serial_Dependence_U,2023.2.3,MacIntel,27.77777777777778,,,,,,2145.6150000000007,148,7,2145.6150000000007,148,,,,2148.965,2149.4610000000002,2148.452,2148.964,2146.612,2148.452,2149.4610000000002,2149.955,2149.955,2151.26,957,2151.261,4,2151.261,7,13,223,15,1,0.8,0.7,Time
,,S20,897347,001,male,24,2025-06-04_17h30.17.464,Serial_Dependence_U,2023.2.3,MacIntel,27.77777777777778,,,,,,2151.261,31,7,2151.261,31,,,,2155.044,2155.541,2154.527,2155.044,2152.256,2154.527,2155.541,2156.027,2156.027,2157.575,1198,2157.575,3,2157.575,7,14,224,2,1,1.2,0.3,Time
,,S20,897347,001,male,24,2025-06-04_17h30.17.464,Serial_Dependence_U,2023.2.3,MacIntel,27.77777777777778,,,,,,2157.576,8,7,2157.576,8,,,,2161.155,2161.654,2160.647,2161.155,2158.577,2160.647,2161.654,2162.1530000000002,2162.1530000000002,2163.514,952,2163.514,3,2163.514,7,15,225,11,1,1,0.3,Time
,,S20,897347,001,male,24,2025-06-04_17h30.17.464,Serial_Dependence_U,2023.2.3,MacIntel,27.77777777777778,,,,,,2163.515,115,7,2163.515,115,,,,2167.0950000000003,2167.5860000000002,2166.589,2167.0950000000003,2164.52,2166.589,2167.5860000000002,2168.075,2168.076,2169.466,963,2169.466,3,2169.467,7,16,226,1,1,1,0.3,Time
,,S20,897347,001,male,24,2025-06-04_17h30.17.464,Serial_Dependence_U,2023.2.3,MacIntel,27.77777777777778,,,,,,2169.467,95,7,2169.467,95,,,,2173.204,2173.699,2172.701,2173.204,2170.4700000000003,2172.701,2173.699,2174.202,2174.202,2175.794,1138,2175.795,2,2175.795,7,17,227,17,1,1.2,0.7,Time
,,S20,897347,001,male,24,2025-06-04_17h30.17.464,Serial_Dependence_U,2023.2.3,MacIntel,27.77777777777778,,,,,,2175.795,241,7,2175.795,241,,,,2179.952,2180.452,2179.435,2179.952,2176.79,2179.435,2180.452,2180.947,2180.947,2182.958,1476,2182.959,2,2182.959,7,18,228,19,1,1.6,0.7,Time
,,S20,897347,001,male,24,2025-06-04_17h30.17.464,Serial_Dependence_U,2023.2.3,MacIntel,27.77777777777778,,,,,,2182.959,88,7,2182.96,88,,,,2186.719,2187.224,2186.204,2186.719,2183.962,2186.204,2187.224,2187.718,2187.718,2189.652,1519,2189.652,4,2189.652,7,19,229,27,1,1.2,0.7,Time
,,S20,897347,001,male,24,2025-06-04_17h30.17.464,Serial_Dependence_U,2023.2.3,MacIntel,27.77777777777778,,,,,,2189.6530000000002,167,7,2189.6530000000002,167,,,,2193.004,2193.503,2192.492,2193.004,2190.654,2192.492,2193.503,2194.002,2194.002,2195.4030000000002,974,2195.4030000000002,4,2195.4030000000002,7,20,230,5,1,0.8,0.7,Time
,,S20,897347,001,male,24,2025-06-04_17h30.17.464,Serial_Dependence_U,2023.2.3,MacIntel,27.77777777777778,,,,,,2195.404,125,7,2195.404,125,,,,2198.996,2199.486,2198.491,2198.996,2196.421,2198.491,2199.486,2199.986,2199.986,2201.293,990,2201.293,3,2201.293,7,21,231,21,1,1,0.3,Time
,,S20,897347,001,male,24,2025-06-04_17h30.17.464,Serial_Dependence_U,2023.2.3,MacIntel,27.77777777777778,,,,,,2201.293,192,7,2201.293,192,,,,2205.486,2205.989,2204.985,2205.486,2202.304,2204.985,2205.989,2206.484,2206.485,2208.14,1281,2208.14,2,2208.141,7,22,232,24,1,1.6,0.3,Time
,,S20,897347,001,male,24,2025-06-04_17h30.17.464,Serial_Dependence_U,2023.2.3,MacIntel,27.77777777777778,,,,,,2208.141,7,7,2208.141,7,,,,2212.298,2212.789,2211.796,2212.298,2209.148,2211.795,2212.789,2213.286,2213.286,2214.982,1253,2214.982,2,2214.982,7,23,233,9,1,1.6,0.7,Time
,,S20,897347,001,male,24,2025-06-04_17h30.17.464,Serial_Dependence_U,2023.2.3,MacIntel,27.77777777777778,,,,,,2214.982,158,7,2214.983,158,,,,2219.175,2219.671,2218.659,2219.175,2215.994,2218.658,2219.671,2220.173,2220.173,2221.757,1221,2221.757,2,2221.7580000000003,7,24,234,4,1,1.6,0.3,Time
,,S20,897347,001,male,24,2025-06-04_17h30.17.464,Serial_Dependence_U,2023.2.3,MacIntel,27.77777777777778,,,,,,2221.7580000000003,67,7,2221.7580000000003,67,,,,2225.5280000000002,2226.024,2225.027,2225.5280000000002,2222.755,2225.027,2226.024,2226.514,2226.514,2228.185,1257,2228.185,3,2228.185,7,25,235,22,1,1.2,0.3,Time
,,S20,897347,001,male,24,2025-06-04_17h30.17.464,Serial_Dependence_U,2023.2.3,MacIntel,27.77777777777778,,,,,,2228.186,83,7,2228.186,83,,,,2231.967,2232.467,2231.451,2231.966,2229.187,2231.451,2232.467,2232.969,2232.969,2234.582,1174,2234.582,3,2234.582,7,26,236,12,1,1.2,0.3,Time
,,S20,897347,001,male,24,2025-06-04_17h30.17.464,Serial_Dependence_U,2023.2.3,MacIntel,27.77777777777778,,,,,,2234.583,181,7,2234.583,181,,,,2238.5570000000002,2239.051,2238.053,2238.5570000000002,2235.5860000000002,2238.053,2239.051,2239.556,2239.556,2241.3,1315,2241.3,2,2241.3,7,27,237,23,1,1.4,0.3,Time
,,S20,897347,001,male,24,2025-06-04_17h30.17.464,Serial_Dependence_U,2023.2.3,MacIntel,27.77777777777778,,,,,,2241.3,329,7,2241.3,329,,,,2245.283,2245.772,2244.771,2245.283,2242.305,2244.771,2245.772,2246.264,2246.264,2247.91,1226,2247.91,2,2247.91,7,28,238,13,1,1.4,0.3,Time
,,S20,897347,001,male,24,2025-06-04_17h30.17.464,Serial_Dependence_U,2023.2.3,MacIntel,27.77777777777778,,,,,,2247.91,9,7,2247.91,9,,,,2251.453,2251.9500000000003,2250.936,2251.452,2248.902,2250.936,2251.9500000000003,2252.448,2252.448,2253.997,1136,2253.997,4,2253.997,7,29,239,6,1,1,0.7,Time
,,S20,897347,001,male,24,2025-06-04_17h30.17.464,Serial_Dependence_U,2023.2.3,MacIntel,27.77777777777778,,,,,,2253.997,198,8,2255.69,198,s,1.6759999999999309,,2259.869,2260.378,2259.368,2259.869,2256.699,2259.368,2260.378,2260.875,2260.875,2262.516,1312,2262.516,2,2262.516,8,0,240,4,1,1.6,0.3,Time
,,S20,897347,001,male,24,2025-06-04_17h30.17.464,Serial_Dependence_U,2023.2.3,MacIntel,27.77777777777778,,,,,,2262.517,205,8,2262.518,205,,,,2266.088,2266.577,2265.584,2266.088,2263.514,2265.584,2266.577,2267.071,2267.071,2268.465,1000,2268.465,3,2268.466,8,1,241,11,1,1,0.3,Time
,,S20,897347,001,male,24,2025-06-04_17h30.17.464,Serial_Dependence_U,2023.2.3,MacIntel,27.77777777777778,,,,,,2268.466,105,8,2268.466,105,,,,2272.4030000000002,2272.892,2271.902,2272.4030000000002,2269.4700000000003,2271.902,2272.892,2273.398,2273.398,2275.221,1360,2275.221,3,2275.221,8,2,242,18,1,1.4,0.7,Time
,,S20,897347,001,male,24,2025-06-04_17h30.17.464,Serial_Dependence_U,2023.2.3,MacIntel,27.77777777777778,,,,,,2275.222,347,8,2275.222,347,,,,2279.392,2279.88,2278.878,2279.392,2276.209,2278.878,2279.88,2280.378,2280.378,2282.3830000000003,1506,2282.384,2,2282.384,8,3,243,24,1,1.6,0.3,Time
,,S20,897347,001,male,24,2025-06-04_17h30.17.464,Serial_Dependence_U,2023.2.3,MacIntel,27.77777777777778,,,,,,2282.384,80,8,2282.384,80,,,,2286.573,2287.059,2286.068,2286.573,2283.394,2286.067,2287.059,2287.559,2287.559,2289.112,1072,2289.112,1,2289.112,8,4,244,14,1,1.6,0.3,Time
,,S20,897347,001,male,24,2025-06-04_17h30.17.464,Serial_Dependence_U,2023.2.3,MacIntel,27.77777777777778,,,,,,2289.112,302,8,2289.112,302,,,,2292.668,2293.172,2292.151,2292.668,2290.117,2292.151,2293.173,2293.677,2293.678,2295.183,1110,2295.183,4,2295.183,8,5,245,16,1,1,0.7,Time
,,S20,897347,001,male,24,2025-06-04_17h30.17.464,Serial_Dependence_U,2023.2.3,MacIntel,27.77777777777778,,,,,,2295.183,24,8,2295.183,24,,,,2298.554,2299.048,2298.046,2298.553,2296.185,2298.046,2299.048,2299.547,2299.547,2300.936,970,2300.936,4,2300.936,8,6,246,20,1,0.8,0.3,Time
,,S20,897347,001,male,24,2025-06-04_17h30.17.464,Serial_Dependence_U,2023.2.3,MacIntel,27.77777777777778,,,,,,2300.936,321,8,2300.936,321,,,,2304.509,2304.9990000000003,2304.0080000000003,2304.509,2301.933,2304.0080000000003,2305,2305.496,2305.496,2307.0750000000003,1129,2307.076,4,2307.076,8,7,247,1,1,1,0.3,Time
,,S20,897347,001,male,24,2025-06-04_17h30.17.464,Serial_Dependence_U,2023.2.3,MacIntel,27.77777777777778,,,,,,2307.076,339,8,2307.076,339,,,,2310.4500000000003,2310.946,2309.949,2310.4500000000003,2308.0860000000002,2309.949,2310.946,2311.442,2311.442,2312.881,988,2312.882,4,2312.882,8,8,248,10,1,0.8,0.3,Time
,,S20,897347,001,male,24,2025-06-04_17h30.17.464,Serial_Dependence_U,2023.2.3,MacIntel,27.77777777777778,,,,,,2312.882,37,8,2312.882,37,,,,2316.648,2317.16,2316.141,2316.648,2313.895,2316.141,2317.16,2317.65,2317.65,2319.346,1261,2319.346,4,2319.347,8,9,249,27,1,1.2,0.7,Time
,,S20,897347,001,male,24,2025-06-04_17h30.17.464,Serial_Dependence_U,2023.2.3,MacIntel,27.77777777777778,,,,,,2319.347,120,8,2319.347,120,,,,2323.491,2323.969,2322.986,2323.491,2320.35,2322.986,2323.969,2324.473,2324.473,2326.501,1708,2326.501,4,2326.502,8,10,250,29,1,1.6,0.7,Time
,,S20,897347,001,male,24,2025-06-04_17h30.17.464,Serial_Dependence_U,2023.2.3,MacIntel,27.77777777777778,,,,,,2326.502,359,8,2326.502,359,,,,2330.486,2330.976,2329.973,2330.486,2327.527,2329.972,2330.976,2331.471,2331.471,2333.341,1498,2333.341,4,2333.341,8,11,251,28,1,1.4,0.7,Time
,,S20,897347,001,male,24,2025-06-04_17h30.17.464,Serial_Dependence_U,2023.2.3,MacIntel,27.77777777777778,,,,,,2333.341,250,8,2333.342,250,,,,2336.681,2337.176,2336.169,2336.681,2334.337,2336.168,2337.176,2337.676,2337.676,2339.2110000000002,1160,2339.2110000000002,5,2339.2110000000002,8,12,252,25,1,0.8,0.7,Time
,,S20,897347,001,male,24,2025-06-04_17h30.17.464,Serial_Dependence_U,2023.2.3,MacIntel,27.77777777777778,,,,,,2339.2110000000002,152,8,2339.212,152,,,,2343.002,2343.501,2342.493,2343.002,2340.214,2342.493,2343.501,2344.001,2344.001,2345.642,1293,2345.642,4,2345.642,8,13,253,2,1,1.2,0.3,Time
,,S20,897347,001,male,24,2025-06-04_17h30.17.464,Serial_Dependence_U,2023.2.3,MacIntel,27.77777777777778,,,,,,2345.642,85,8,2345.642,85,,,,2349.64,2350.141,2349.125,2349.64,2346.65,2349.125,2350.141,2350.634,2350.634,2352.195,1208,2352.195,2,2352.195,8,14,254,3,1,1.4,0.3,Time
,,S20,897347,001,male,24,2025-06-04_17h30.17.464,Serial_Dependence_U,2023.2.3,MacIntel,27.77777777777778,,,,,,2352.196,321,8,2352.196,321,,,,2355.592,2356.091,2355.079,2355.592,2353.202,2355.079,2356.091,2356.582,2356.582,2357.632,742,2357.632,2,2357.632,8,15,255,0,1,0.8,0.3,Time
,,S20,897347,001,male,24,2025-06-04_17h30.17.464,Serial_Dependence_U,2023.2.3,MacIntel,27.77777777777778,,,,,,2357.6330000000003,30,8,2357.6330000000003,30,,,,2360.9790000000003,2361.4700000000003,2360.474,2360.978,2358.626,2360.474,2361.4700000000003,2361.973,2361.973,2363.17,919,2363.17,4,2363.17,8,16,256,15,1,0.8,0.7,Time
,,S20,897347,001,male,24,2025-06-04_17h30.17.464,Serial_Dependence_U,2023.2.3,MacIntel,27.77777777777778,,,,,,2363.1710000000003,279,8,2363.1710000000003,279,,,,2367.1620000000003,2367.661,2366.649,2367.1620000000003,2364.177,2366.649,2367.661,2368.156,2368.156,2369.676,1159,2369.676,2,2369.677,8,17,257,13,1,1.4,0.3,Time
,,S20,897347,001,male,24,2025-06-04_17h30.17.464,Serial_Dependence_U,2023.2.3,MacIntel,27.77777777777778,,,,,,2369.677,340,8,2369.677,340,,,,2373.234,2373.737,2372.717,2373.234,2370.673,2372.717,2373.737,2374.233,2374.233,2375.79,1190,2375.79,4,2375.791,8,18,258,6,1,1,0.7,Time
,,S20,897347,001,male,24,2025-06-04_17h30.17.464,Serial_Dependence_U,2023.2.3,MacIntel,27.77777777777778,,,,,,2375.791,131,8,2375.791,131,,,,2379.141,2379.634,2378.639,2379.141,2376.7960000000003,2378.639,2379.634,2380.1330000000003,2380.1330000000003,2381.505,997,2381.506,4,2381.506,8,19,259,5,1,0.8,0.7,Time
,,S20,897347,001,male,24,2025-06-04_17h30.17.464,Serial_Dependence_U,2023.2.3,MacIntel,27.77777777777778,,,,,,2381.506,322,8,2381.506,322,,,,2385.687,2386.184,2385.165,2385.687,2382.52,2385.165,2386.184,2386.68,2386.68,2388.492,1475,2388.492,2,2388.492,8,20,260,9,1,1.6,0.7,Time
,,S20,897347,001,male,24,2025-06-04_17h30.17.464,Serial_Dependence_U,2023.2.3,MacIntel,27.77777777777778,,,,,,2388.493,27,8,2388.493,27,,,,2392.079,2392.567,2391.579,2392.079,2389.4990000000003,2391.579,2392.567,2393.077,2393.077,2394.583,1185,2394.584,4,2394.584,8,21,261,21,1,1,0.3,Time
,,S20,897347,001,male,24,2025-06-04_17h30.17.464,Serial_Dependence_U,2023.2.3,MacIntel,27.77777777777778,,,,,,2394.584,6,8,2394.584,6,,,,2398.738,2399.233,2398.223,2398.737,2395.5860000000002,2398.223,2399.233,2399.73,2399.73,2401.475,1436,2401.475,2,2401.476,8,22,262,19,1,1.6,0.7,Time
,,S20,897347,001,male,24,2025-06-04_17h30.17.464,Serial_Dependence_U,2023.2.3,MacIntel,27.77777777777778,,,,,,2401.476,353,8,2401.476,353,,,,2405.252,2405.751,2404.7400000000007,2405.252,2402.477,2404.7400000000007,2405.751,2406.25,2406.25,2408.117,1549,2408.117,4,2408.117,8,23,263,12,1,1.2,0.3,Time
,,S20,897347,001,male,24,2025-06-04_17h30.17.464,Serial_Dependence_U,2023.2.3,MacIntel,27.77777777777778,,,,,,2408.117,296,8,2408.117,296,,,,2411.904,2412.399,2411.384,2411.9030000000002,2409.137,2411.384,2412.399,2412.9030000000002,2412.9030000000002,2414.7580000000003,1450,2414.7580000000003,4,2414.7580000000003,8,24,264,17,1,1.2,0.7,Time
,,S20,897347,001,male,24,2025-06-04_17h30.17.464,Serial_Dependence_U,2023.2.3,MacIntel,27.77777777777778,,,,,,2414.759,130,8,2414.759,130,,,,2418.708,2419.195,2418.201,2418.708,2415.753,2418.201,2419.195,2419.695,2419.695,2421.4320000000002,1409,2421.4320000000002,3,2421.433,8,25,265,8,1,1.4,0.7,Time
,,S20,897347,001,male,24,2025-06-04_17h30.17.464,Serial_Dependence_U,2023.2.3,MacIntel,27.77777777777778,,,,,,2421.433,88,8,2421.433,88,,,,2424.998,2425.511,2424.485,2424.998,2422.438,2424.484,2425.511,2426,2426,2427.559,1241,2427.559,4,2427.559,8,26,266,26,1,1,0.7,Time
,,S20,897347,001,male,24,2025-06-04_17h30.17.464,Serial_Dependence_U,2023.2.3,MacIntel,27.77777777777778,,,,,,2427.559,224,8,2427.56,224,,,,2431.5460000000003,2432.045,2431.04,2431.5460000000003,2428.571,2431.04,2432.045,2432.552,2432.552,2434.018,1103,2434.018,2,2434.018,8,27,267,23,1,1.4,0.3,Time
,,S20,897347,001,male,24,2025-06-04_17h30.17.464,Serial_Dependence_U,2023.2.3,MacIntel,27.77777777777778,,,,,,2434.018,77,8,2434.019,77,,,,2437.793,2438.286,2437.2870000000003,2437.793,2435.02,2437.2870000000003,2438.2870000000003,2438.785,2438.785,2440.628,1460,2440.628,4,2440.628,8,28,268,22,1,1.2,0.3,Time
,,S20,897347,001,male,24,2025-06-04_17h30.17.464,Serial_Dependence_U,2023.2.3,MacIntel,27.77777777777778,,,,,,2440.628,96,8,2440.628,96,,,,2444.382,2444.8830000000003,2443.8650000000007,2444.382,2441.628,2443.8650000000007,2444.8830000000003,2445.382,2445.382,2447.286,1424,2447.286,4,2447.286,8,29,269,7,1,1.2,0.7,Time
