Scale_setup.started,Scale_setup.stopped,participant,session,sex,age,date,expName,psychopyVersion,OS,frameRate,screen_scale_keys.started,screen_scale_keys.stopped,X Scale,Y Scale,rectangel_keys.started,rectangel_keys.stopped,Intro.started,Intro.stopped,key_resp_2.keys,key_resp_2.rt,key_resp_2.duration,block.started,Block_id,block.stopped,Block_resp_2.keys,Block_resp_2.rt,Block_resp_2.duration,ITI.started,ITI.stopped,Mask_2.started,Mask_2.stopped,M2.started,direction,M2.stopped,Cue.started,Cue.stopped,Response.started,Response.stopped,keyDuration,Feedback_Time.started,FeedbackID_T,Feedback_Time.stopped,trials.thisRepN,trials.thisTrialN,trials.thisN,trials.thisIndex,trials.ran,TimeDur,Coherence1,TrialType
0.0003,0.0007,S21,1,Female,21,anonymized,Serial_Dependence_U,2023.2.3,Win32,59.88023952,,,,,,,,,,,,,,,,,,,,,,,,,,,,,,,,,,,,,,,,
,,S21,1,Female,21,anonymized,Serial_Dependence_U,2023.2.3,Win32,59.88023952,0.0021,60.3216,0.0581,0.0587,60.3219,66.8213,66.8215,100.4716,space,33.6057,,,,,,,,,,,,,,,,,,,,,,,,,,,,,,
,,S21,1,Female,21,anonymized,Serial_Dependence_U,2023.2.3,Win32,59.88023952,,,,,,,,,,,,100.4826,0.0,103.0712,s,2.5555,,106.222,106.7214,105.7058,106.2218,104.0888,3.0,105.7056,106.7218,107.2215,107.222,113.2386,9999.0,113.2392,0.0,114.2383,0.0,0.0,0.0,4.0,1.0,1.6,0.3,Time
,,S21,1,Female,21,anonymized,Serial_Dependence_U,2023.2.3,Win32,59.88023952,,,,,,,,,,,,114.239,0.0,114.2415,,,,116.5887,117.0878,116.0717,116.5886,115.2551,309.0,116.0715,117.0879,117.5881,117.5882,123.6048,9999.0,123.6051,0.0,124.6046,0.0,1.0,1.0,0.0,1.0,0.8,0.3,Time
,,S21,1,Female,21,anonymized,Serial_Dependence_U,2023.2.3,Win32,59.88023952,,,,,,,,,,,,124.6053,0.0,124.6056,,,,127.355,127.8546,126.8384,127.3549,125.6217,264.0,126.8382,127.8547,128.3543,128.3544,134.3717,9999.0,134.3719,0.0,135.371,0.0,2.0,2.0,12.0,1.0,1.2,0.3,Time
,,S21,1,Female,21,anonymized,Serial_Dependence_U,2023.2.3,Win32,59.88023952,,,,,,,,,,,,135.3717,0.0,135.372,,,,137.7222,138.2222,137.2055,137.7219,136.3881,185.0,137.2054,138.2223,138.7225,138.7226,144.7433,9999.0,144.7437,0.0,145.7387,0.0,3.0,3.0,10.0,1.0,0.8,0.3,Time
,,S21,1,Female,21,anonymized,Serial_Dependence_U,2023.2.3,Win32,59.88023952,,,,,,,,,,,,145.7397,0.0,145.7401,,,,148.6885,149.1882,148.172,148.6884,146.7554,41.0,148.1718,149.1883,149.6881,149.6882,155.7054,9999.0,155.7058,0.0,156.7048,0.0,4.0,4.0,13.0,1.0,1.4,0.3,Time
,,S21,1,Female,21,anonymized,Serial_Dependence_U,2023.2.3,Win32,59.88023952,,,,,,,,,,,,156.7058,0.0,156.7062,,,,159.456,159.9543,158.9395,159.4559,157.7219,82.0,158.9394,159.9545,160.4545,160.4546,166.4727,9999.0,166.4731,0.0,167.4722,0.0,5.0,5.0,17.0,1.0,1.2,0.7,Time
,,S21,1,Female,21,anonymized,Serial_Dependence_U,2023.2.3,Win32,59.88023952,,,,,,,,,,,,167.4734,0.0,167.4744,,,,170.0228,170.5222,169.5069,170.0226,168.4896,53.0,169.5063,170.5224,171.022,171.0221,177.0389,9999.0,177.0394,0.0,178.039,0.0,6.0,6.0,6.0,1.0,1.0,0.7,Time
,,S21,1,Female,21,anonymized,Serial_Dependence_U,2023.2.3,Win32,59.88023952,,,,,,,,,,,,178.04,0.0,178.0411,,,,180.5884,181.0879,180.0723,180.5881,179.0554,147.0,180.0722,181.0879,181.5876,181.5877,187.606,9999.0,187.6064,0.0,188.6048,0.0,7.0,7.0,1.0,1.0,1.0,0.3,Time
,,S21,1,Female,21,anonymized,Serial_Dependence_U,2023.2.3,Win32,59.88023952,,,,,,,,,,,,188.6058,0.0,188.6064,,,,190.9557,191.4555,190.4389,190.9555,189.6267,251.0,190.4386,191.4555,191.9544,191.9545,197.9565,9999.0,197.9572,0.0,198.9544,0.0,8.0,8.0,25.0,1.0,0.8,0.7,Time
,,S21,1,Female,21,anonymized,Serial_Dependence_U,2023.2.3,Win32,59.88023952,,,,,,,,,,,,198.9551,0.0,198.9552,,,,201.5057,202.0088,200.9885,201.5055,199.9724,190.0,200.9882,202.009,202.5056,202.5057,208.5226,9999.0,208.5229,0.0,209.5221,0.0,9.0,9.0,11.0,1.0,1.0,0.3,Time
,,S21,1,Female,21,anonymized,Serial_Dependence_U,2023.2.3,Win32,59.88023952,,,,,,,,,,,,209.523,0.0,209.5238,,,,212.6731,213.1725,212.1561,212.6729,210.5399,171.0,212.156,213.1726,213.6724,213.6726,219.6758,9999.0,219.6759,0.0,220.6749,0.0,10.0,10.0,24.0,1.0,1.6,0.3,Time
,,S21,1,Female,21,anonymized,Serial_Dependence_U,2023.2.3,Win32,59.88023952,,,,,,,,,,,,220.6752,0.0,220.6754,,,,223.209,223.708,222.6921,223.209,221.6757,72.0,222.6921,223.7081,224.2082,224.2082,230.2088,9999.0,230.209,0.0,231.2079,0.0,11.0,11.0,21.0,1.0,1.0,0.3,Time
,,S21,1,Female,21,anonymized,Serial_Dependence_U,2023.2.3,Win32,59.88023952,,,,,,,,,,,,231.2081,0.0,231.2083,,,,234.1422,234.6414,233.6259,234.1422,232.2093,237.0,233.6258,234.6414,235.1414,235.1414,241.1424,9999.0,241.1425,0.0,242.1416,0.0,12.0,12.0,3.0,1.0,1.4,0.3,Time
,,S21,1,Female,21,anonymized,Serial_Dependence_U,2023.2.3,Win32,59.88023952,,,,,,,,,,,,242.1419,0.0,242.142,,,,244.4926,244.9912,243.9757,244.4925,243.1588,45.0,243.9756,244.9913,245.4915,245.4916,251.4929,9999.0,251.493,0.0,252.492,0.0,13.0,13.0,5.0,1.0,0.8,0.7,Time
,,S21,1,Female,21,anonymized,Serial_Dependence_U,2023.2.3,Win32,59.88023952,,,,,,,,,,,,252.4923,0.0,252.4925,,,,255.4384,255.9381,254.9216,255.4383,253.5089,126.0,254.9214,255.9381,256.4389,256.4392,262.455,9999.0,262.4552,0.0,263.4547,0.0,14.0,14.0,23.0,1.0,1.4,0.3,Time
,,S21,1,Female,21,anonymized,Serial_Dependence_U,2023.2.3,Win32,59.88023952,,,,,,,,,,,,263.4552,0.0,263.4555,,,,265.8051,266.3046,265.2888,265.805,264.472,92.0,265.2887,266.3048,266.8048,266.8049,272.8218,9999.0,272.8219,0.0,273.8215,0.0,15.0,15.0,20.0,1.0,0.8,0.3,Time
,,S21,1,Female,21,anonymized,Serial_Dependence_U,2023.2.3,Win32,59.88023952,,,,,,,,,,,,273.8222,0.0,273.8224,,,,276.9718,277.4715,276.4553,276.9718,274.8385,37.0,276.4552,277.4715,277.9714,277.9715,283.9888,9999.0,283.9891,0.0,284.9882,0.0,16.0,16.0,14.0,1.0,1.6,0.3,Time
,,S21,1,Female,21,anonymized,Serial_Dependence_U,2023.2.3,Win32,59.88023952,,,,,,,,,,,,284.9888,0.0,284.9891,,,,288.1386,288.6378,287.6214,288.1386,286.005,203.0,287.6213,288.6378,289.1382,289.1383,295.1551,9999.0,295.1554,0.0,296.1547,0.0,17.0,17.0,29.0,1.0,1.6,0.7,Time
,,S21,1,Female,21,anonymized,Serial_Dependence_U,2023.2.3,Win32,59.88023952,,,,,,,,,,,,296.1552,0.0,296.1554,,,,298.7052,299.2048,298.1884,298.705,297.1719,224.0,298.1883,299.2048,299.705,299.705,305.7219,9999.0,305.7221,0.0,306.7215,0.0,18.0,18.0,26.0,1.0,1.0,0.7,Time
,,S21,1,Female,21,anonymized,Serial_Dependence_U,2023.2.3,Win32,59.88023952,,,,,,,,,,,,306.722,0.0,306.7222,,,,309.472,309.9714,308.9563,309.4718,307.7387,220.0,308.955,309.9714,310.4716,310.4716,316.4886,9999.0,316.4888,0.0,317.4883,0.0,19.0,19.0,2.0,1.0,1.2,0.3,Time
,,S21,1,Female,21,anonymized,Serial_Dependence_U,2023.2.3,Win32,59.88023952,,,,,,,,,,,,317.4886,0.0,317.4889,,,,320.2387,320.7382,319.722,320.2386,318.5054,1.0,319.7219,320.7382,321.2383,321.2385,327.2552,9999.0,327.2553,0.0,328.2549,0.0,20.0,20.0,22.0,1.0,1.2,0.3,Time
,,S21,1,Female,21,anonymized,Serial_Dependence_U,2023.2.3,Win32,59.88023952,,,,,,,,,,,,328.2555,0.0,328.2558,,,,331.4058,331.9047,330.889,331.4057,329.272,30.0,330.8888,331.9048,332.4048,332.4049,338.422,9999.0,338.4222,0.0,339.4216,0.0,21.0,21.0,9.0,1.0,1.6,0.7,Time
,,S21,1,Female,21,anonymized,Serial_Dependence_U,2023.2.3,Win32,59.88023952,,,,,,,,,,,,339.4221,0.0,339.4223,,,,342.3719,342.8716,341.8552,342.3718,340.4388,198.0,341.855,342.8717,343.3716,343.3717,349.3886,9999.0,349.3888,0.0,350.3883,0.0,22.0,22.0,8.0,1.0,1.4,0.7,Time
,,S21,1,Female,21,anonymized,Serial_Dependence_U,2023.2.3,Win32,59.88023952,,,,,,,,,,,,350.3887,0.0,350.389,,,,353.1387,353.6383,352.6224,353.1386,351.4052,234.0,352.6223,353.6385,354.1385,354.1386,360.1552,9999.0,360.1554,0.0,361.155,0.0,23.0,23.0,27.0,1.0,1.2,0.7,Time
,,S21,1,Female,21,anonymized,Serial_Dependence_U,2023.2.3,Win32,59.88023952,,,,,,,,,,,,361.1555,0.0,361.1558,,,,363.7053,364.2049,363.1886,363.7052,362.1719,136.0,363.1885,364.2049,364.7052,364.7053,370.7221,9999.0,370.7223,0.0,371.7213,0.0,24.0,24.0,16.0,1.0,1.0,0.7,Time
,,S21,1,Female,21,anonymized,Serial_Dependence_U,2023.2.3,Win32,59.88023952,,,,,,,,,,,,371.7217,0.0,371.7218,,,,374.0554,374.5548,373.5388,374.0553,372.722,281.0,373.5387,374.5548,375.0549,375.0549,381.0721,9999.0,381.0723,0.0,382.0717,0.0,25.0,25.0,15.0,1.0,0.8,0.7,Time
,,S21,1,Female,21,anonymized,Serial_Dependence_U,2023.2.3,Win32,59.88023952,,,,,,,,,,,,382.072,0.0,382.0723,,,,384.822,385.3217,384.3052,384.822,383.0888,44.0,384.3051,385.3218,385.8215,385.8215,391.8386,9999.0,391.8388,0.0,392.8381,0.0,26.0,26.0,7.0,1.0,1.2,0.7,Time
,,S21,1,Female,21,anonymized,Serial_Dependence_U,2023.2.3,Win32,59.88023952,,,,,,,,,,,,392.8385,0.0,392.8387,,,,395.7887,396.2884,395.2721,395.7887,393.8552,2.0,395.272,396.2884,396.7884,396.7886,402.8055,9999.0,402.8056,0.0,403.805,0.0,27.0,27.0,18.0,1.0,1.4,0.7,Time
,,S21,1,Female,21,anonymized,Serial_Dependence_U,2023.2.3,Win32,59.88023952,,,,,,,,,,,,403.8054,0.0,403.8056,,,,406.7554,407.255,406.2388,406.7553,404.8222,165.0,406.2386,407.255,407.7552,407.7552,413.7721,9999.0,413.7724,0.0,414.7716,0.0,28.0,28.0,28.0,1.0,1.4,0.7,Time
,,S21,1,Female,21,anonymized,Serial_Dependence_U,2023.2.3,Win32,59.88023952,,,,,,,,,,,,414.7722,0.0,414.7723,,,,417.9221,418.4216,417.4054,417.922,415.7884,88.0,417.4053,418.4216,418.9218,418.9218,424.9387,9999.0,424.939,0.0,425.9381,0.0,29.0,29.0,19.0,1.0,1.6,0.7,Time
,,S21,1,Female,21,anonymized,Serial_Dependence_U,2023.2.3,Win32,59.88023952,,,,,,,,,,,,425.9385,1.0,433.5888,s,7.6243,,436.7392,437.2385,436.2222,436.7391,434.6054,317.0,436.2222,437.2386,437.7381,437.7383,443.7554,9999.0,443.7555,0.0,444.755,1.0,0.0,30.0,29.0,1.0,1.6,0.7,Time
,,S21,1,Female,21,anonymized,Serial_Dependence_U,2023.2.3,Win32,59.88023952,,,,,,,,,,,,444.7558,1.0,444.7578,,,,447.5056,448.0049,446.9888,447.5055,445.7723,165.0,446.9887,448.0049,448.505,448.5052,454.5222,9999.0,454.5222,0.0,455.5218,1.0,1.0,31.0,17.0,1.0,1.2,0.7,Time
,,S21,1,Female,21,anonymized,Serial_Dependence_U,2023.2.3,Win32,59.88023952,,,,,,,,,,,,455.5223,1.0,455.5225,,,,458.6723,459.1716,458.1555,458.6722,456.5389,241.0,458.1554,459.1716,459.6718,459.6718,465.6886,9999.0,465.6887,0.0,466.6886,1.0,2.0,32.0,14.0,1.0,1.6,0.3,Time
,,S21,1,Female,21,anonymized,Serial_Dependence_U,2023.2.3,Win32,59.88023952,,,,,,,,,,,,466.6894,1.0,466.6898,,,,469.8389,470.3384,469.3222,469.8388,467.7057,219.0,469.3221,470.3384,470.8385,470.8386,476.8554,9999.0,476.8556,0.0,477.8548,1.0,3.0,33.0,9.0,1.0,1.6,0.7,Time
,,S21,1,Female,21,anonymized,Serial_Dependence_U,2023.2.3,Win32,59.88023952,,,,,,,,,,,,477.8551,1.0,477.8553,,,,480.8055,481.3051,480.2889,480.8054,478.8722,243.0,480.2888,481.3051,481.8052,481.8052,487.8222,9999.0,487.8224,0.0,488.8219,1.0,4.0,34.0,3.0,1.0,1.4,0.3,Time
,,S21,1,Female,21,anonymized,Serial_Dependence_U,2023.2.3,Win32,59.88023952,,,,,,,,,,,,488.8225,1.0,488.8228,,,,491.1556,491.6548,490.6388,491.1555,489.8223,141.0,490.6387,491.655,492.1548,492.1548,498.1555,9999.0,498.1557,0.0,499.1552,1.0,5.0,35.0,5.0,1.0,0.8,0.7,Time
,,S21,1,Female,21,anonymized,Serial_Dependence_U,2023.2.3,Win32,59.88023952,,,,,,,,,,,,499.1557,1.0,499.1559,,,,502.1056,502.6049,501.5889,502.1055,500.1723,341.0,501.5886,502.605,503.1051,503.1051,509.1221,9999.0,509.1221,0.0,510.1219,1.0,6.0,36.0,13.0,1.0,1.4,0.3,Time
,,S21,1,Female,21,anonymized,Serial_Dependence_U,2023.2.3,Win32,59.88023952,,,,,,,,,,,,510.1225,1.0,510.1228,,,,512.8722,513.3719,512.3554,512.8722,511.1389,145.0,512.3553,513.3719,513.8718,513.8718,519.889,9999.0,519.8891,0.0,520.8885,1.0,7.0,37.0,2.0,1.0,1.2,0.3,Time
,,S21,1,Female,21,anonymized,Serial_Dependence_U,2023.2.3,Win32,59.88023952,,,,,,,,,,,,520.8891,1.0,520.8893,,,,523.2389,523.7384,522.7222,523.2389,521.9056,86.0,522.7219,523.7384,524.2388,524.2388,530.2557,9999.0,530.2558,0.0,531.2552,1.0,8.0,38.0,20.0,1.0,0.8,0.3,Time
,,S21,1,Female,21,anonymized,Serial_Dependence_U,2023.2.3,Win32,59.88023952,,,,,,,,,,,,531.256,1.0,531.2563,,,,533.8054,534.3051,533.2901,533.8054,532.2723,145.0,533.2889,534.3052,534.806,534.806,540.8222,9999.0,540.8224,0.0,541.8218,1.0,9.0,39.0,16.0,1.0,1.0,0.7,Time
,,S21,1,Female,21,anonymized,Serial_Dependence_U,2023.2.3,Win32,59.88023952,,,,,,,,,,,,541.8224,1.0,541.8226,,,,544.7724,545.2718,544.2558,544.7723,542.8387,349.0,544.2557,545.2718,545.772,545.772,551.7885,9999.0,551.7887,0.0,552.7887,1.0,10.0,40.0,28.0,1.0,1.4,0.7,Time
,,S21,1,Female,21,anonymized,Serial_Dependence_U,2023.2.3,Win32,59.88023952,,,,,,,,,,,,552.7895,1.0,552.7897,,,,555.5392,556.0394,555.0225,555.539,553.8058,330.0,555.0224,556.0395,556.5387,556.5387,562.5551,9999.0,562.5553,0.0,563.5553,1.0,11.0,41.0,12.0,1.0,1.2,0.3,Time
,,S21,1,Female,21,anonymized,Serial_Dependence_U,2023.2.3,Win32,59.88023952,,,,,,,,,,,,563.5558,1.0,563.556,,,,566.5057,567.0052,565.989,566.5057,564.5723,41.0,565.989,567.0053,567.505,567.505,573.5056,9999.0,573.5058,0.0,574.5051,1.0,12.0,42.0,18.0,1.0,1.4,0.7,Time
,,S21,1,Female,21,anonymized,Serial_Dependence_U,2023.2.3,Win32,59.88023952,,,,,,,,,,,,574.5056,1.0,574.5058,,,,577.6557,578.1551,577.1392,577.6556,575.5225,274.0,577.1392,578.1551,578.6553,578.6554,584.6727,9999.0,584.6729,0.0,585.672,1.0,13.0,43.0,4.0,1.0,1.6,0.3,Time
,,S21,1,Female,21,anonymized,Serial_Dependence_U,2023.2.3,Win32,59.88023952,,,,,,,,,,,,585.6726,1.0,585.6729,,,,588.2225,588.7219,587.7057,588.2224,586.6891,173.0,587.7056,588.7219,589.222,589.222,595.2389,9999.0,595.2391,0.0,596.2385,1.0,14.0,44.0,26.0,1.0,1.0,0.7,Time
,,S21,1,Female,21,anonymized,Serial_Dependence_U,2023.2.3,Win32,59.88023952,,,,,,,,,,,,596.239,1.0,596.2392,,,,598.9891,599.4888,598.4724,598.989,597.2556,102.0,598.4724,599.4889,599.9887,599.9888,606.0057,9999.0,606.0059,0.0,607.0054,1.0,15.0,45.0,7.0,1.0,1.2,0.7,Time
,,S21,1,Female,21,anonymized,Serial_Dependence_U,2023.2.3,Win32,59.88023952,,,,,,,,,,,,607.006,1.0,607.0063,,,,609.556,610.0554,609.0392,609.5559,608.0225,80.0,609.0391,610.0554,610.5552,610.5553,616.5723,9999.0,616.5724,0.0,617.5721,1.0,16.0,46.0,6.0,1.0,1.0,0.7,Time
,,S21,1,Female,21,anonymized,Serial_Dependence_U,2023.2.3,Win32,59.88023952,,,,,,,,,,,,617.5727,1.0,617.5731,,,,619.9224,620.422,619.4058,619.9223,618.5891,142.0,619.4057,620.422,620.9219,620.922,626.9389,9999.0,626.9391,0.0,627.9388,1.0,17.0,47.0,15.0,1.0,0.8,0.7,Time
,,S21,1,Female,21,anonymized,Serial_Dependence_U,2023.2.3,Win32,59.88023952,,,,,,,,,,,,627.9394,1.0,627.9395,,,,631.0726,631.572,630.5556,631.0725,628.9396,101.0,630.5555,631.572,632.072,632.072,638.0891,9999.0,638.0893,0.0,639.0889,1.0,18.0,48.0,19.0,1.0,1.6,0.7,Time
,,S21,1,Female,21,anonymized,Serial_Dependence_U,2023.2.3,Win32,59.88023952,,,,,,,,,,,,639.0896,1.0,639.0899,,,,642.2395,642.7385,641.7225,642.2394,640.1058,214.0,641.7225,642.7385,643.2394,643.2394,649.2558,9999.0,649.256,0.0,650.2554,1.0,19.0,49.0,24.0,1.0,1.6,0.3,Time
,,S21,1,Female,21,anonymized,Serial_Dependence_U,2023.2.3,Win32,59.88023952,,,,,,,,,,,,650.2562,1.0,650.2564,,,,652.6056,653.1054,652.089,652.6055,651.2726,180.0,652.089,653.1054,653.6054,653.6055,659.6224,9999.0,659.6226,0.0,660.6226,1.0,20.0,50.0,25.0,1.0,0.8,0.7,Time
,,S21,1,Female,21,anonymized,Serial_Dependence_U,2023.2.3,Win32,59.88023952,,,,,,,,,,,,660.6234,1.0,660.6238,,,,662.9725,663.472,662.4557,662.9725,661.6393,170.0,662.4557,663.4721,663.972,663.9721,669.9893,9999.0,669.9895,0.0,670.9887,1.0,21.0,51.0,0.0,1.0,0.8,0.3,Time
,,S21,1,Female,21,anonymized,Serial_Dependence_U,2023.2.3,Win32,59.88023952,,,,,,,,,,,,670.9893,1.0,670.9895,,,,673.9392,674.4388,673.4225,673.9391,672.0054,331.0,673.4225,674.4389,674.9387,674.9388,680.9558,9999.0,680.956,0.0,681.9555,1.0,22.0,52.0,23.0,1.0,1.4,0.3,Time
,,S21,1,Female,21,anonymized,Serial_Dependence_U,2023.2.3,Win32,59.88023952,,,,,,,,,,,,681.9559,1.0,681.9562,,,,684.5058,685.0053,683.989,684.5057,682.9722,355.0,683.989,685.0054,685.5054,685.5055,691.5227,9999.0,691.5228,0.0,692.522,1.0,23.0,53.0,21.0,1.0,1.0,0.3,Time
,,S21,1,Female,21,anonymized,Serial_Dependence_U,2023.2.3,Win32,59.88023952,,,,,,,,,,,,692.5226,1.0,692.5227,,,,695.0726,695.5721,694.5559,695.0726,693.5393,119.0,694.5558,695.5723,696.0721,696.0721,702.0892,9999.0,702.0894,0.0,703.0889,1.0,24.0,54.0,1.0,1.0,1.0,0.3,Time
,,S21,1,Female,21,anonymized,Serial_Dependence_U,2023.2.3,Win32,59.88023952,,,,,,,,,,,,703.0895,1.0,703.0898,,,,705.4392,705.9388,704.9225,705.4392,704.1059,9.0,704.9225,705.9389,706.439,706.4391,712.4557,9999.0,712.456,0.0,713.4555,1.0,25.0,55.0,10.0,1.0,0.8,0.3,Time
,,S21,1,Female,21,anonymized,Serial_Dependence_U,2023.2.3,Win32,59.88023952,,,,,,,,,,,,713.4561,1.0,713.4565,,,,716.4057,716.9054,715.8891,716.4057,714.4727,131.0,715.889,716.9055,717.4053,717.4054,723.4225,9999.0,723.4227,0.0,724.4221,1.0,26.0,56.0,8.0,1.0,1.4,0.7,Time
,,S21,1,Female,21,anonymized,Serial_Dependence_U,2023.2.3,Win32,59.88023952,,,,,,,,,,,,724.4227,1.0,724.423,,,,727.1727,727.6722,726.656,727.1725,725.4392,294.0,726.656,727.6722,728.1721,728.1721,734.1892,9999.0,734.1894,0.0,735.1889,1.0,27.0,57.0,22.0,1.0,1.2,0.3,Time
,,S21,1,Female,21,anonymized,Serial_Dependence_U,2023.2.3,Win32,59.88023952,,,,,,,,,,,,735.1895,1.0,735.1898,,,,737.7392,738.2389,737.2227,737.7391,736.2061,358.0,737.2226,738.239,738.7389,738.7389,744.7559,9999.0,744.756,0.0,745.7555,1.0,28.0,58.0,11.0,1.0,1.0,0.3,Time
,,S21,1,Female,21,anonymized,Serial_Dependence_U,2023.2.3,Win32,59.88023952,,,,,,,,,,,,745.7562,1.0,745.7565,,,,748.506,749.0056,747.9893,748.5059,746.7727,257.0,747.9892,749.0056,749.5055,749.5056,755.5224,9999.0,755.5225,0.0,756.5219,1.0,29.0,59.0,27.0,1.0,1.2,0.7,Time
,,S21,1,Female,21,anonymized,Serial_Dependence_U,2023.2.3,Win32,59.88023952,,,,,,,,,,,,756.5223,2.0,759.3225,s,2.7777,,762.0729,762.5721,761.5561,762.0728,760.3392,322.0,761.556,762.5722,763.0723,763.0724,769.0893,9999.0,769.0895,0.0,770.089,2.0,0.0,60.0,27.0,1.0,1.2,0.7,Time
,,S21,1,Female,21,anonymized,Serial_Dependence_U,2023.2.3,Win32,59.88023952,,,,,,,,,,,,770.0897,2.0,770.0917,,,,772.6394,773.1388,772.1227,772.6394,771.106,291.0,772.1226,773.1389,773.6392,773.6392,779.6559,9999.0,779.6561,0.0,780.6555,2.0,1.0,61.0,1.0,1.0,1.0,0.3,Time
,,S21,1,Female,21,anonymized,Serial_Dependence_U,2023.2.3,Win32,59.88023952,,,,,,,,,,,,780.6561,2.0,780.6564,,,,783.206,783.7056,782.6894,783.206,781.6727,63.0,782.6893,783.7056,784.2057,784.2058,790.2223,9999.0,790.2224,0.0,791.2228,2.0,2.0,62.0,16.0,1.0,1.0,0.7,Time
,,S21,1,Female,21,anonymized,Serial_Dependence_U,2023.2.3,Win32,59.88023952,,,,,,,,,,,,791.2237,2.0,791.2241,,,,793.7728,794.2723,793.2561,793.7727,792.239,239.0,793.2561,794.2723,794.7725,794.7725,800.7892,9999.0,800.7893,0.0,801.7889,2.0,3.0,63.0,26.0,1.0,1.0,0.7,Time
,,S21,1,Female,21,anonymized,Serial_Dependence_U,2023.2.3,Win32,59.88023952,,,,,,,,,,,,801.7893,2.0,801.7895,,,,804.1393,804.6389,803.6228,804.1393,802.8061,320.0,803.6227,804.6389,805.139,805.139,811.156,9999.0,811.1561,0.0,812.1555,2.0,4.0,64.0,15.0,1.0,0.8,0.7,Time
,,S21,1,Female,21,anonymized,Serial_Dependence_U,2023.2.3,Win32,59.88023952,,,,,,,,,,,,812.1561,2.0,812.1563,,,,815.3065,815.8056,814.7893,815.3063,813.1727,133.0,814.7893,815.8056,816.3056,816.3058,822.3227,9999.0,822.3228,0.0,823.3223,2.0,5.0,65.0,24.0,1.0,1.6,0.3,Time
,,S21,1,Female,21,anonymized,Serial_Dependence_U,2023.2.3,Win32,59.88023952,,,,,,,,,,,,823.3228,2.0,823.323,,,,825.8724,826.3722,825.3561,825.8723,824.3394,204.0,825.3561,826.3722,826.8723,826.8723,832.889,9999.0,832.8891,0.0,833.8888,2.0,6.0,66.0,11.0,1.0,1.0,0.3,Time
,,S21,1,Female,21,anonymized,Serial_Dependence_U,2023.2.3,Win32,59.88023952,,,,,,,,,,,,833.8891,2.0,833.8893,,,,836.2394,836.7387,835.7223,836.2393,834.9057,314.0,835.7223,836.7387,837.2387,837.2387,843.2395,9999.0,843.2396,0.0,844.2393,2.0,7.0,67.0,25.0,1.0,0.8,0.7,Time
,,S21,1,Female,21,anonymized,Serial_Dependence_U,2023.2.3,Win32,59.88023952,,,,,,,,,,,,844.2398,2.0,844.2399,,,,846.9892,847.4889,846.4729,846.9891,845.2562,179.0,846.4727,847.4889,847.9893,847.9894,854.0059,9999.0,854.006,0.0,855.0054,2.0,8.0,68.0,22.0,1.0,1.2,0.3,Time
,,S21,1,Female,21,anonymized,Serial_Dependence_U,2023.2.3,Win32,59.88023952,,,,,,,,,,,,855.0058,2.0,855.006,,,,858.1557,858.6557,857.639,858.1556,856.0225,51.0,857.639,858.6557,859.1556,859.1556,865.1725,9999.0,865.1726,0.0,866.1722,2.0,9.0,69.0,14.0,1.0,1.6,0.3,Time
,,S21,1,Female,21,anonymized,Serial_Dependence_U,2023.2.3,Win32,59.88023952,,,,,,,,,,,,866.1724,2.0,866.1726,,,,869.1225,869.6225,868.608,869.1224,867.1891,148.0,868.6078,869.6225,870.1223,870.1224,876.1396,9999.0,876.1398,0.0,877.1388,2.0,10.0,70.0,8.0,1.0,1.4,0.7,Time
,,S21,1,Female,21,anonymized,Serial_Dependence_U,2023.2.3,Win32,59.88023952,,,,,,,,,,,,877.1392,2.0,877.1394,,,,880.0729,880.5724,879.5565,880.0728,878.1399,276.0,879.5564,880.5724,881.0725,881.0725,887.0891,9999.0,887.0892,0.0,888.0893,2.0,11.0,71.0,28.0,1.0,1.4,0.7,Time
,,S21,1,Female,21,anonymized,Serial_Dependence_U,2023.2.3,Win32,59.88023952,,,,,,,,,,,,888.0898,2.0,888.0901,,,,890.6397,891.1398,890.1229,890.6397,889.1063,253.0,890.1228,891.1398,891.6393,891.6394,897.6563,9999.0,897.6564,0.0,898.6561,2.0,12.0,72.0,6.0,1.0,1.0,0.7,Time
,,S21,1,Female,21,anonymized,Serial_Dependence_U,2023.2.3,Win32,59.88023952,,,,,,,,,,,,898.6568,2.0,898.6571,,,,901.406,901.906,900.8896,901.4059,899.6731,75.0,900.8895,901.906,902.4058,902.4058,908.4228,9999.0,908.4229,0.0,909.4225,2.0,13.0,73.0,17.0,1.0,1.2,0.7,Time
,,S21,1,Female,21,anonymized,Serial_Dependence_U,2023.2.3,Win32,59.88023952,,,,,,,,,,,,909.4229,2.0,909.4231,,,,912.5726,913.0725,912.0558,912.5726,910.4393,184.0,912.0557,913.0725,913.5727,913.5728,919.5895,9999.0,919.5897,0.0,920.5894,2.0,14.0,74.0,19.0,1.0,1.6,0.7,Time
,,S21,1,Female,21,anonymized,Serial_Dependence_U,2023.2.3,Win32,59.88023952,,,,,,,,,,,,920.5899,2.0,920.5902,,,,923.7397,924.2392,923.223,923.7395,921.606,42.0,923.2229,924.2393,924.7391,924.7391,930.7563,9999.0,930.7565,0.0,931.7561,2.0,15.0,75.0,29.0,1.0,1.6,0.7,Time
,,S21,1,Female,21,anonymized,Serial_Dependence_U,2023.2.3,Win32,59.88023952,,,,,,,,,,,,931.7567,2.0,931.757,,,,934.9061,935.4058,934.3897,934.9061,932.7731,43.0,934.3897,935.4059,935.9058,935.9059,941.9229,9999.0,941.9231,0.0,942.9226,2.0,16.0,76.0,4.0,1.0,1.6,0.3,Time
,,S21,1,Female,21,anonymized,Serial_Dependence_U,2023.2.3,Win32,59.88023952,,,,,,,,,,,,942.9231,2.0,942.9234,,,,945.4731,945.9727,944.9563,945.473,943.9398,163.0,944.9562,945.9727,946.4726,946.4727,952.4895,9999.0,952.4897,0.0,953.4892,2.0,17.0,77.0,21.0,1.0,1.0,0.3,Time
,,S21,1,Female,21,anonymized,Serial_Dependence_U,2023.2.3,Win32,59.88023952,,,,,,,,,,,,953.4897,2.0,953.4899,,,,956.4397,956.9393,955.9228,956.4396,954.5064,291.0,955.9227,956.9393,957.4393,957.4394,963.4562,9999.0,963.4564,0.0,964.4558,2.0,18.0,78.0,23.0,1.0,1.4,0.3,Time
,,S21,1,Female,21,anonymized,Serial_Dependence_U,2023.2.3,Win32,59.88023952,,,,,,,,,,,,964.4563,2.0,964.4565,,,,967.6066,968.1061,967.0899,967.6065,965.4731,99.0,967.0898,968.1062,968.6061,968.6062,974.6229,9999.0,974.6231,0.0,975.6226,2.0,19.0,79.0,9.0,1.0,1.6,0.7,Time
,,S21,1,Female,21,anonymized,Serial_Dependence_U,2023.2.3,Win32,59.88023952,,,,,,,,,,,,975.6231,2.0,975.6234,,,,977.9732,978.4727,977.4568,977.9732,976.6398,265.0,977.4567,978.4727,978.9726,978.9726,984.9894,9999.0,984.9896,0.0,985.9896,2.0,20.0,80.0,10.0,1.0,0.8,0.3,Time
,,S21,1,Female,21,anonymized,Serial_Dependence_U,2023.2.3,Win32,59.88023952,,,,,,,,,,,,985.9903,2.0,985.9906,,,,988.3395,988.8393,987.823,988.3394,987.0062,154.0,987.8229,988.8394,989.3393,989.3393,995.3563,9999.0,995.3565,0.0,996.3562,2.0,21.0,81.0,0.0,1.0,0.8,0.3,Time
,,S21,1,Female,21,anonymized,Serial_Dependence_U,2023.2.3,Win32,59.88023952,,,,,,,,,,,,996.3567,2.0,996.3571,,,,999.3066,999.8058,998.7897,999.3065,997.3731,26.0,998.7896,999.8059,1000.3059,1000.306,1006.323,9999.0,1006.3232,0.0,1007.3227,2.0,22.0,82.0,3.0,1.0,1.4,0.3,Time
,,S21,1,Female,21,anonymized,Serial_Dependence_U,2023.2.3,Win32,59.88023952,,,,,,,,,,,,1007.3233,2.0,1007.3234,,,,1009.6732,1010.1728,1009.1565,1009.6731,1008.3399,266.0,1009.1564,1010.1728,1010.6727,1010.6728,1016.6898,9999.0,1016.69,0.0,1017.6894,2.0,23.0,83.0,20.0,1.0,0.8,0.3,Time
,,S21,1,Female,21,anonymized,Serial_Dependence_U,2023.2.3,Win32,59.88023952,,,,,,,,,,,,1017.6902,2.0,1017.6905,,,,1020.6398,1021.1392,1020.1231,1020.6396,1018.7065,111.0,1020.123,1021.1392,1021.6395,1021.6396,1027.6563,9999.0,1027.6564,0.0,1028.6562,2.0,24.0,84.0,18.0,1.0,1.4,0.7,Time
,,S21,1,Female,21,anonymized,Serial_Dependence_U,2023.2.3,Win32,59.88023952,,,,,,,,,,,,1028.6568,2.0,1028.6571,,,,1031.5899,1032.089,1031.0895,1031.5898,1029.673,127.0,1031.0893,1032.089,1032.589,1032.589,1038.5897,9999.0,1038.59,0.0,1039.5892,2.0,25.0,85.0,13.0,1.0,1.4,0.3,Time
,,S21,1,Female,21,anonymized,Serial_Dependence_U,2023.2.3,Win32,59.88023952,,,,,,,,,,,,1039.5898,2.0,1039.5899,,,,1041.9399,1042.4395,1041.4233,1041.9399,1040.6067,212.0,1041.4232,1042.4395,1042.9394,1042.9395,1048.9565,9999.0,1048.9566,0.0,1049.9562,2.0,26.0,86.0,5.0,1.0,0.8,0.7,Time
,,S21,1,Female,21,anonymized,Serial_Dependence_U,2023.2.3,Win32,59.88023952,,,,,,,,,,,,1049.9568,2.0,1049.957,,,,1052.7065,1053.2059,1052.1899,1052.7064,1050.9732,45.0,1052.1898,1053.2059,1053.7061,1053.7061,1059.723,9999.0,1059.7232,0.0,1060.7229,2.0,27.0,87.0,2.0,1.0,1.2,0.3,Time
,,S21,1,Female,21,anonymized,Serial_Dependence_U,2023.2.3,Win32,59.88023952,,,,,,,,,,,,1060.7236,2.0,1060.7238,,,,1063.4734,1063.9728,1062.9566,1063.4733,1061.7398,41.0,1062.9565,1063.9729,1064.4728,1064.4729,1070.4896,9999.0,1070.4898,0.0,1071.4894,2.0,28.0,88.0,12.0,1.0,1.2,0.3,Time
,,S21,1,Female,21,anonymized,Serial_Dependence_U,2023.2.3,Win32,59.88023952,,,,,,,,,,,,1071.4898,2.0,1071.49,,,,1074.2402,1074.7395,1073.7232,1074.2402,1072.5067,48.0,1073.7232,1074.7395,1075.2395,1075.2396,1081.2566,9999.0,1081.2567,0.0,1082.2563,2.0,29.0,89.0,7.0,1.0,1.2,0.7,Time
,,S21,1,Female,21,anonymized,Serial_Dependence_U,2023.2.3,Win32,59.88023952,,,,,,,,,,,,1082.257,3.0,1084.5062,s,2.2235,,1086.856,1087.3569,1086.3394,1086.8559,1085.5233,133.0,1086.3394,1087.357,1087.8572,1087.8573,1093.8731,9999.0,1093.8733,0.0,1094.8727,3.0,0.0,90.0,0.0,1.0,0.8,0.3,Time
,,S21,1,Female,21,anonymized,Serial_Dependence_U,2023.2.3,Win32,59.88023952,,,,,,,,,,,,1094.8731,3.0,1094.8749,,,,1097.6232,1098.1228,1097.1067,1097.6232,1095.8899,85.0,1097.1066,1098.1228,1098.6227,1098.6228,1104.6398,9999.0,1104.64,0.0,1105.6393,3.0,1.0,91.0,12.0,1.0,1.2,0.3,Time
,,S21,1,Female,21,anonymized,Serial_Dependence_U,2023.2.3,Win32,59.88023952,,,,,,,,,,,,1105.6397,3.0,1105.6399,,,,1108.5742,1109.0729,1108.0734,1108.5742,1106.6566,9.0,1108.0734,1109.0729,1109.5728,1109.5729,1115.5898,9999.0,1115.5899,0.0,1116.5898,3.0,2.0,92.0,18.0,1.0,1.4,0.7,Time
,,S21,1,Female,21,anonymized,Serial_Dependence_U,2023.2.3,Win32,59.88023952,,,,,,,,,,,,1116.5904,3.0,1116.5907,,,,1119.1234,1119.6229,1118.6066,1119.1233,1117.5917,70.0,1118.6065,1119.6229,1120.1228,1120.123,1126.1397,9999.0,1126.14,0.0,1127.1396,3.0,3.0,93.0,11.0,1.0,1.0,0.3,Time
,,S21,1,Female,21,anonymized,Serial_Dependence_U,2023.2.3,Win32,59.88023952,,,,,,,,,,,,1127.1401,3.0,1127.1404,,,,1129.6914,1130.1896,1129.1733,1129.6912,1128.1569,337.0,1129.1732,1130.1897,1130.6895,1130.6895,1136.7064,9999.0,1136.7066,0.0,1137.7063,3.0,4.0,94.0,26.0,1.0,1.0,0.7,Time
,,S21,1,Female,21,anonymized,Serial_Dependence_U,2023.2.3,Win32,59.88023952,,,,,,,,,,,,1137.7069,3.0,1137.7071,,,,1140.8568,1141.3562,1140.3398,1140.8567,1138.7235,15.0,1140.3396,1141.3563,1141.8563,1141.8563,1147.8733,9999.0,1147.8735,0.0,1148.8733,3.0,5.0,95.0,9.0,1.0,1.6,0.7,Time
,,S21,1,Female,21,anonymized,Serial_Dependence_U,2023.2.3,Win32,59.88023952,,,,,,,,,,,,1148.8741,3.0,1148.8744,,,,1151.823,1152.3225,1151.3067,1151.823,1149.8902,75.0,1151.3066,1152.3225,1152.8231,1152.8231,1158.84,9999.0,1158.8402,0.0,1159.8399,3.0,6.0,96.0,3.0,1.0,1.4,0.3,Time
,,S21,1,Female,21,anonymized,Serial_Dependence_U,2023.2.3,Win32,59.88023952,,,,,,,,,,,,1159.8409,3.0,1159.8412,,,,1162.1897,1162.6896,1161.6733,1162.1896,1160.8569,204.0,1161.6732,1162.6896,1163.1894,1163.1894,1169.1901,9999.0,1169.1904,0.0,1170.1895,3.0,7.0,97.0,15.0,1.0,0.8,0.7,Time
,,S21,1,Female,21,anonymized,Serial_Dependence_U,2023.2.3,Win32,59.88023952,,,,,,,,,,,,1170.1901,3.0,1170.1903,,,,1172.9399,1173.4398,1172.4233,1172.9398,1171.2065,72.0,1172.4232,1173.4398,1173.9397,1173.9397,1179.9563,9999.0,1179.9564,0.0,1180.9565,3.0,8.0,98.0,2.0,1.0,1.2,0.3,Time
,,S21,1,Female,21,anonymized,Serial_Dependence_U,2023.2.3,Win32,59.88023952,,,,,,,,,,,,1180.957,3.0,1180.9573,,,,1183.7069,1184.2061,1183.1901,1183.7068,1181.9734,85.0,1183.19,1184.2062,1184.7063,1184.7063,1190.7234,9999.0,1190.7236,0.0,1191.7231,3.0,9.0,99.0,27.0,1.0,1.2,0.7,Time
,,S21,1,Female,21,anonymized,Serial_Dependence_U,2023.2.3,Win32,59.88023952,,,,,,,,,,,,1191.7237,3.0,1191.7239,,,,1194.6734,1195.173,1194.1567,1194.6733,1192.7401,266.0,1194.1566,1195.1731,1195.6731,1195.6731,1201.6898,9999.0,1201.69,0.0,1202.6897,3.0,10.0,100.0,23.0,1.0,1.4,0.3,Time
,,S21,1,Female,21,anonymized,Serial_Dependence_U,2023.2.3,Win32,59.88023952,,,,,,,,,,,,1202.6902,3.0,1202.6904,,,,1205.8402,1206.3398,1205.3235,1205.8401,1203.7068,325.0,1205.3235,1206.3399,1206.8398,1206.8398,1212.8566,9999.0,1212.8568,0.0,1213.8563,3.0,11.0,101.0,14.0,1.0,1.6,0.3,Time
,,S21,1,Female,21,anonymized,Serial_Dependence_U,2023.2.3,Win32,59.88023952,,,,,,,,,,,,1213.8569,3.0,1213.8571,,,,1216.2073,1216.7063,1215.6904,1216.2072,1214.8736,254.0,1215.6904,1216.7064,1217.2062,1217.2063,1223.2233,9999.0,1223.2234,0.0,1224.2228,3.0,12.0,102.0,20.0,1.0,0.8,0.3,Time
,,S21,1,Female,21,anonymized,Serial_Dependence_U,2023.2.3,Win32,59.88023952,,,,,,,,,,,,1224.2233,3.0,1224.2235,,,,1226.5736,1227.0731,1226.0568,1226.5735,1225.2401,1.0,1226.0566,1227.0731,1227.5732,1227.5732,1233.5901,9999.0,1233.5903,0.0,1234.5897,3.0,13.0,103.0,5.0,1.0,0.8,0.7,Time
,,S21,1,Female,21,anonymized,Serial_Dependence_U,2023.2.3,Win32,59.88023952,,,,,,,,,,,,1234.5902,3.0,1234.5904,,,,1236.9402,1237.4397,1236.4235,1236.9402,1235.6069,328.0,1236.4235,1237.4397,1237.9396,1237.9396,1243.9567,9999.0,1243.9569,0.0,1244.9563,3.0,14.0,104.0,25.0,1.0,0.8,0.7,Time
,,S21,1,Female,21,anonymized,Serial_Dependence_U,2023.2.3,Win32,59.88023952,,,,,,,,,,,,1244.9568,3.0,1244.957,,,,1247.7072,1248.2064,1247.1907,1247.7071,1245.9736,123.0,1247.1906,1248.2064,1248.7065,1248.7066,1254.7234,9999.0,1254.7235,0.0,1255.7233,3.0,15.0,105.0,22.0,1.0,1.2,0.3,Time
,,S21,1,Female,21,anonymized,Serial_Dependence_U,2023.2.3,Win32,59.88023952,,,,,,,,,,,,1255.7239,3.0,1255.7242,,,,1258.8737,1259.3733,1258.3565,1258.8735,1256.7403,342.0,1258.3565,1259.3733,1259.8732,1259.8733,1265.8903,9999.0,1265.8904,0.0,1266.8899,3.0,16.0,106.0,4.0,1.0,1.6,0.3,Time
,,S21,1,Female,21,anonymized,Serial_Dependence_U,2023.2.3,Win32,59.88023952,,,,,,,,,,,,1266.8904,3.0,1266.8906,,,,1269.6402,1270.1395,1269.1235,1269.6402,1267.9069,151.0,1269.1235,1270.1396,1270.6397,1270.6398,1276.6566,9999.0,1276.6568,0.0,1277.6562,3.0,17.0,107.0,17.0,1.0,1.2,0.7,Time
,,S21,1,Female,21,anonymized,Serial_Dependence_U,2023.2.3,Win32,59.88023952,,,,,,,,,,,,1277.6567,3.0,1277.6568,,,,1280.2069,1280.7066,1279.6904,1280.2068,1278.6733,213.0,1279.6903,1280.7066,1281.2064,1281.2064,1287.2234,9999.0,1287.2236,0.0,1288.2234,3.0,18.0,108.0,1.0,1.0,1.0,0.3,Time
,,S21,1,Female,21,anonymized,Serial_Dependence_U,2023.2.3,Win32,59.88023952,,,,,,,,,,,,1288.224,3.0,1288.2243,,,,1291.1737,1291.6732,1290.6569,1291.1736,1289.2399,22.0,1290.6569,1291.6732,1292.1733,1292.1733,1298.1902,9999.0,1298.1903,0.0,1299.1898,3.0,19.0,109.0,13.0,1.0,1.4,0.3,Time
,,S21,1,Female,21,anonymized,Serial_Dependence_U,2023.2.3,Win32,59.88023952,,,,,,,,,,,,1299.1902,3.0,1299.1904,,,,1302.1401,1302.6407,1301.6236,1302.1401,1300.2068,35.0,1301.6236,1302.6408,1303.1405,1303.1405,1309.1573,9999.0,1309.1575,0.0,1310.1568,3.0,20.0,110.0,28.0,1.0,1.4,0.7,Time
,,S21,1,Female,21,anonymized,Serial_Dependence_U,2023.2.3,Win32,59.88023952,,,,,,,,,,,,1310.1575,3.0,1310.1578,,,,1312.7068,1313.2066,1312.1907,1312.7067,1311.1736,257.0,1312.1906,1313.2066,1313.7075,1313.7075,1319.7231,9999.0,1319.7232,0.0,1320.7231,3.0,21.0,111.0,21.0,1.0,1.0,0.3,Time
,,S21,1,Female,21,anonymized,Serial_Dependence_U,2023.2.3,Win32,59.88023952,,,,,,,,,,,,1320.7235,3.0,1320.7237,,,,1323.4569,1323.9566,1322.9404,1323.4569,1321.7396,167.0,1322.9403,1323.9566,1324.4566,1324.4566,1330.4737,9999.0,1330.4738,0.0,1331.473,3.0,22.0,112.0,7.0,1.0,1.2,0.7,Time
,,S21,1,Female,21,anonymized,Serial_Dependence_U,2023.2.3,Win32,59.88023952,,,,,,,,,,,,1331.4735,3.0,1331.4739,,,,1334.4071,1334.9065,1333.8918,1334.4071,1332.4902,329.0,1333.8916,1334.9065,1335.4065,1335.4065,1341.4236,9999.0,1341.4238,0.0,1342.4233,3.0,23.0,113.0,8.0,1.0,1.4,0.7,Time
,,S21,1,Female,21,anonymized,Serial_Dependence_U,2023.2.3,Win32,59.88023952,,,,,,,,,,,,1342.4239,3.0,1342.4242,,,,1344.7735,1345.2729,1344.2567,1344.7735,1343.4401,265.0,1344.2565,1345.2729,1345.7731,1345.7731,1351.7903,9999.0,1351.7904,0.0,1352.7898,3.0,24.0,114.0,10.0,1.0,0.8,0.3,Time
,,S21,1,Female,21,anonymized,Serial_Dependence_U,2023.2.3,Win32,59.88023952,,,,,,,,,,,,1352.7903,3.0,1352.7904,,,,1355.3404,1355.84,1354.8237,1355.3404,1353.8071,348.0,1354.8237,1355.84,1356.3399,1356.3399,1362.3569,9999.0,1362.3571,0.0,1363.3566,3.0,25.0,115.0,16.0,1.0,1.0,0.7,Time
,,S21,1,Female,21,anonymized,Serial_Dependence_U,2023.2.3,Win32,59.88023952,,,,,,,,,,,,1363.3572,3.0,1363.3574,,,,1365.9069,1366.4065,1365.3903,1365.9069,1364.3732,348.0,1365.3902,1366.4066,1366.9066,1366.9066,1372.9236,9999.0,1372.9239,0.0,1373.9233,3.0,26.0,116.0,6.0,1.0,1.0,0.7,Time
,,S21,1,Female,21,anonymized,Serial_Dependence_U,2023.2.3,Win32,59.88023952,,,,,,,,,,,,1373.9238,3.0,1373.9239,,,,1377.0738,1377.5733,1376.5571,1377.0738,1374.9404,96.0,1376.557,1377.5734,1378.0733,1378.0733,1384.09,9999.0,1384.0901,0.0,1385.09,3.0,27.0,117.0,24.0,1.0,1.6,0.3,Time
,,S21,1,Female,21,anonymized,Serial_Dependence_U,2023.2.3,Win32,59.88023952,,,,,,,,,,,,1385.0905,3.0,1385.0906,,,,1388.2403,1388.7404,1387.7237,1388.2403,1386.1071,231.0,1387.7237,1388.7405,1389.2412,1389.2413,1395.2569,9999.0,1395.2571,0.0,1396.2565,3.0,28.0,118.0,29.0,1.0,1.6,0.7,Time
,,S21,1,Female,21,anonymized,Serial_Dependence_U,2023.2.3,Win32,59.88023952,,,,,,,,,,,,1396.257,3.0,1396.2571,,,,1399.4072,1399.9067,1398.8907,1399.4071,1397.2738,76.0,1398.8906,1399.9067,1400.4066,1400.4067,1406.4233,9999.0,1406.4236,0.0,1407.4236,3.0,29.0,119.0,19.0,1.0,1.6,0.7,Time
,,S21,1,Female,21,anonymized,Serial_Dependence_U,2023.2.3,Win32,59.88023952,,,,,,,,,,,,1407.4242,4.0,1420.0568,s,12.6118,,1422.7905,1423.29,1422.2738,1422.7903,1421.0574,167.0,1422.2738,1423.2902,1423.79,1423.7901,1429.8069,9999.0,1429.8071,0.0,1430.8067,4.0,0.0,120.0,12.0,1.0,1.2,0.3,Time
,,S21,1,Female,21,anonymized,Serial_Dependence_U,2023.2.3,Win32,59.88023952,,,,,,,,,,,,1430.8072,4.0,1430.8089,,,,1433.7572,1434.2568,1433.2405,1433.7572,1431.8239,200.0,1433.2404,1434.2568,1434.7569,1434.7569,1440.7737,9999.0,1440.7738,0.0,1441.7736,4.0,1.0,121.0,18.0,1.0,1.4,0.7,Time
,,S21,1,Female,21,anonymized,Serial_Dependence_U,2023.2.3,Win32,59.88023952,,,,,,,,,,,,1441.7741,4.0,1441.7744,,,,1444.3239,1444.8235,1443.807,1444.3238,1442.7905,150.0,1443.8069,1444.8236,1445.3259,1445.3264,1451.3404,9999.0,1451.3406,0.0,1452.34,4.0,2.0,122.0,6.0,1.0,1.0,0.7,Time
,,S21,1,Female,21,anonymized,Serial_Dependence_U,2023.2.3,Win32,59.88023952,,,,,,,,,,,,1452.3404,4.0,1452.3411,,,,1454.6737,1455.1735,1454.1571,1454.6736,1453.3405,61.0,1454.157,1455.1735,1455.6734,1455.6734,1461.6904,9999.0,1461.6906,0.0,1462.69,4.0,3.0,123.0,25.0,1.0,0.8,0.7,Time
,,S21,1,Female,21,anonymized,Serial_Dependence_U,2023.2.3,Win32,59.88023952,,,,,,,,,,,,1462.6905,4.0,1462.6907,,,,1465.4408,1465.941,1464.9238,1465.4407,1463.7072,54.0,1464.9238,1465.9411,1466.4409,1466.441,1472.4572,9999.0,1472.4574,0.0,1473.4567,4.0,4.0,124.0,17.0,1.0,1.2,0.7,Time
,,S21,1,Female,21,anonymized,Serial_Dependence_U,2023.2.3,Win32,59.88023952,,,,,,,,,,,,1473.4572,4.0,1473.4574,,,,1476.1908,1476.6902,1475.6739,1476.1907,1474.4584,119.0,1475.6738,1476.6902,1477.1903,1477.1903,1483.207,9999.0,1483.2073,0.0,1484.2069,4.0,5.0,125.0,7.0,1.0,1.2,0.7,Time
,,S21,1,Female,21,anonymized,Serial_Dependence_U,2023.2.3,Win32,59.88023952,,,,,,,,,,,,1484.2075,4.0,1484.2077,,,,1486.5405,1487.0402,1486.0239,1486.5405,1485.2071,98.0,1486.0238,1487.0402,1487.5402,1487.5403,1493.5572,9999.0,1493.5573,0.0,1494.5567,4.0,6.0,126.0,15.0,1.0,0.8,0.7,Time
,,S21,1,Female,21,anonymized,Serial_Dependence_U,2023.2.3,Win32,59.88023952,,,,,,,,,,,,1494.5574,4.0,1494.5577,,,,1497.3072,1497.8068,1496.7905,1497.3071,1495.574,275.0,1496.7904,1497.8068,1498.3069,1498.307,1504.3235,9999.0,1504.3237,0.0,1505.3236,4.0,7.0,127.0,27.0,1.0,1.2,0.7,Time
,,S21,1,Female,21,anonymized,Serial_Dependence_U,2023.2.3,Win32,59.88023952,,,,,,,,,,,,1505.3242,4.0,1505.3245,,,,1507.674,1508.1733,1507.1569,1507.674,1506.3408,87.0,1507.1569,1508.1734,1508.6735,1508.6735,1514.6905,9999.0,1514.6906,0.0,1515.6903,4.0,8.0,128.0,0.0,1.0,0.8,0.3,Time
,,S21,1,Female,21,anonymized,Serial_Dependence_U,2023.2.3,Win32,59.88023952,,,,,,,,,,,,1515.6908,4.0,1515.6909,,,,1518.8408,1519.3403,1518.3238,1518.8407,1516.7075,257.0,1518.3237,1519.3403,1519.8403,1519.8403,1525.8573,9999.0,1525.8575,0.0,1526.857,4.0,9.0,129.0,9.0,1.0,1.6,0.7,Time
,,S21,1,Female,21,anonymized,Serial_Dependence_U,2023.2.3,Win32,59.88023952,,,,,,,,,,,,1526.8576,4.0,1526.8578,,,,1529.8076,1530.3068,1529.2907,1529.8074,1527.8739,314.0,1529.2906,1530.3068,1530.8069,1530.8069,1536.8236,9999.0,1536.8239,0.0,1537.8236,4.0,10.0,130.0,23.0,1.0,1.4,0.3,Time
,,S21,1,Female,21,anonymized,Serial_Dependence_U,2023.2.3,Win32,59.88023952,,,,,,,,,,,,1537.824,4.0,1537.8242,,,,1540.974,1541.4736,1540.4574,1540.9739,1538.8406,150.0,1540.4573,1541.4736,1541.9735,1541.9736,1547.9906,9999.0,1547.9907,0.0,1548.9904,4.0,11.0,131.0,19.0,1.0,1.6,0.7,Time
,,S21,1,Female,21,anonymized,Serial_Dependence_U,2023.2.3,Win32,59.88023952,,,,,,,,,,,,1548.991,4.0,1548.9912,,,,1551.5404,1552.0402,1551.024,1551.5403,1550.0075,130.0,1551.0239,1552.0402,1552.5403,1552.5404,1558.5572,9999.0,1558.5575,0.0,1559.5569,4.0,12.0,132.0,26.0,1.0,1.0,0.7,Time
,,S21,1,Female,21,anonymized,Serial_Dependence_U,2023.2.3,Win32,59.88023952,,,,,,,,,,,,1559.5574,4.0,1559.5576,,,,1562.1073,1562.6069,1561.5905,1562.1073,1560.574,51.0,1561.5904,1562.6069,1563.1073,1563.1074,1569.1238,9999.0,1569.124,0.0,1570.1238,4.0,13.0,133.0,11.0,1.0,1.0,0.3,Time
,,S21,1,Female,21,anonymized,Serial_Dependence_U,2023.2.3,Win32,59.88023952,,,,,,,,,,,,1570.1243,4.0,1570.1245,,,,1572.4736,1572.9734,1571.957,1572.4736,1571.1407,37.0,1571.9569,1572.9734,1573.4736,1573.4737,1579.4909,9999.0,1579.4911,0.0,1580.4902,4.0,14.0,134.0,10.0,1.0,0.8,0.3,Time
,,S21,1,Female,21,anonymized,Serial_Dependence_U,2023.2.3,Win32,59.88023952,,,,,,,,,,,,1580.4907,4.0,1580.491,,,,1583.2409,1583.7402,1582.724,1583.2408,1581.5074,267.0,1582.724,1583.7402,1584.2406,1584.2406,1590.2572,9999.0,1590.2575,0.0,1591.2568,4.0,15.0,135.0,22.0,1.0,1.2,0.3,Time
,,S21,1,Female,21,anonymized,Serial_Dependence_U,2023.2.3,Win32,59.88023952,,,,,,,,,,,,1591.2574,4.0,1591.2576,,,,1594.3913,1594.8903,1593.8741,1594.3912,1592.2587,217.0,1593.8741,1594.8903,1595.3904,1595.3905,1601.4074,9999.0,1601.4075,0.0,1602.407,4.0,16.0,136.0,4.0,1.0,1.6,0.3,Time
,,S21,1,Female,21,anonymized,Serial_Dependence_U,2023.2.3,Win32,59.88023952,,,,,,,,,,,,1602.4076,4.0,1602.4079,,,,1605.3574,1605.8577,1604.8407,1605.3573,1603.4242,68.0,1604.8407,1605.8578,1606.357,1606.3572,1612.374,9999.0,1612.3742,0.0,1613.3737,4.0,17.0,137.0,28.0,1.0,1.4,0.7,Time
,,S21,1,Female,21,anonymized,Serial_Dependence_U,2023.2.3,Win32,59.88023952,,,,,,,,,,,,1613.3743,4.0,1613.3746,,,,1616.1238,1616.6237,1615.6075,1616.1238,1614.3909,80.0,1615.6075,1616.6238,1617.1235,1617.1235,1623.1403,9999.0,1623.1404,0.0,1624.1404,4.0,18.0,138.0,2.0,1.0,1.2,0.3,Time
,,S21,1,Female,21,anonymized,Serial_Dependence_U,2023.2.3,Win32,59.88023952,,,,,,,,,,,,1624.1408,4.0,1624.1411,,,,1626.4575,1626.9571,1625.957,1626.4574,1625.1407,12.0,1625.9569,1626.9572,1627.457,1627.457,1633.474,9999.0,1633.4742,0.0,1634.4736,4.0,19.0,139.0,20.0,1.0,0.8,0.3,Time
,,S21,1,Female,21,anonymized,Serial_Dependence_U,2023.2.3,Win32,59.88023952,,,,,,,,,,,,1634.4741,4.0,1634.4743,,,,1637.6242,1638.1237,1637.1077,1637.6241,1635.4908,11.0,1637.1076,1638.1238,1638.6237,1638.6237,1644.6405,9999.0,1644.6406,0.0,1645.6405,4.0,20.0,140.0,29.0,1.0,1.6,0.7,Time
,,S21,1,Female,21,anonymized,Serial_Dependence_U,2023.2.3,Win32,59.88023952,,,,,,,,,,,,1645.641,4.0,1645.6412,,,,1648.1908,1648.6907,1647.6742,1648.1908,1646.6575,127.0,1647.6742,1648.6907,1649.1909,1649.191,1655.2074,9999.0,1655.2076,0.0,1656.2075,4.0,21.0,141.0,21.0,1.0,1.0,0.3,Time
,,S21,1,Female,21,anonymized,Serial_Dependence_U,2023.2.3,Win32,59.88023952,,,,,,,,,,,,1656.2083,4.0,1656.2088,,,,1659.3575,1659.857,1658.8409,1659.3574,1657.2242,207.0,1658.8408,1659.857,1660.3569,1660.357,1666.3578,9999.0,1666.358,0.0,1667.3573,4.0,22.0,142.0,24.0,1.0,1.6,0.3,Time
,,S21,1,Female,21,anonymized,Serial_Dependence_U,2023.2.3,Win32,59.88023952,,,,,,,,,,,,1667.3579,4.0,1667.3582,,,,1670.3078,1670.8071,1669.7911,1670.3077,1668.3743,265.0,1669.7909,1670.8071,1671.3073,1671.3073,1677.3241,9999.0,1677.3242,0.0,1678.3237,4.0,23.0,143.0,3.0,1.0,1.4,0.3,Time
,,S21,1,Female,21,anonymized,Serial_Dependence_U,2023.2.3,Win32,59.88023952,,,,,,,,,,,,1678.3243,4.0,1678.3244,,,,1681.2743,1681.774,1680.7575,1681.2742,1679.341,311.0,1680.7575,1681.774,1682.2737,1682.2737,1688.2908,9999.0,1688.291,0.0,1689.2902,4.0,24.0,144.0,13.0,1.0,1.4,0.3,Time
,,S21,1,Female,21,anonymized,Serial_Dependence_U,2023.2.3,Win32,59.88023952,,,,,,,,,,,,1689.2907,4.0,1689.291,,,,1691.8414,1692.3403,1691.3249,1691.8413,1690.3083,274.0,1691.3247,1692.3404,1692.8402,1692.8402,1698.857,9999.0,1698.8572,0.0,1699.857,4.0,25.0,145.0,1.0,1.0,1.0,0.3,Time
,,S21,1,Female,21,anonymized,Serial_Dependence_U,2023.2.3,Win32,59.88023952,,,,,,,,,,,,1699.8574,4.0,1699.8576,,,,1703.0076,1703.5073,1702.4909,1703.0076,1700.8738,127.0,1702.4908,1703.5073,1704.007,1704.007,1710.0243,9999.0,1710.0244,0.0,1711.024,4.0,26.0,146.0,14.0,1.0,1.6,0.3,Time
,,S21,1,Female,21,anonymized,Serial_Dependence_U,2023.2.3,Win32,59.88023952,,,,,,,,,,,,1711.0246,4.0,1711.0249,,,,1713.3745,1713.8738,1712.8575,1713.3744,1712.041,196.0,1712.8573,1713.8738,1714.3737,1714.3738,1720.391,9999.0,1720.3912,0.0,1721.3905,4.0,27.0,147.0,5.0,1.0,0.8,0.7,Time
,,S21,1,Female,21,anonymized,Serial_Dependence_U,2023.2.3,Win32,59.88023952,,,,,,,,,,,,1721.391,4.0,1721.3912,,,,1723.9408,1724.4406,1723.4245,1723.9407,1722.4076,205.0,1723.4245,1724.4406,1724.9404,1724.9405,1730.9574,9999.0,1730.9576,0.0,1731.9572,4.0,28.0,148.0,16.0,1.0,1.0,0.7,Time
,,S21,1,Female,21,anonymized,Serial_Dependence_U,2023.2.3,Win32,59.88023952,,,,,,,,,,,,1731.9578,4.0,1731.9579,,,,1734.9076,1735.4071,1734.391,1734.9075,1732.9741,236.0,1734.391,1735.4071,1735.907,1735.9071,1741.9239,9999.0,1741.9241,0.0,1742.924,4.0,29.0,149.0,8.0,1.0,1.4,0.7,Time
,,S21,1,Female,21,anonymized,Serial_Dependence_U,2023.2.3,Win32,59.88023952,,,,,,,,,,,,1742.9248,5.0,1746.7741,s,3.8246,,1749.5245,1750.0238,1749.0076,1749.5244,1747.7911,135.0,1749.0076,1750.0238,1750.5239,1750.5239,1756.5411,9999.0,1756.5412,0.0,1757.5405,5.0,0.0,150.0,7.0,1.0,1.2,0.7,Time
,,S21,1,Female,21,anonymized,Serial_Dependence_U,2023.2.3,Win32,59.88023952,,,,,,,,,,,,1757.5412,5.0,1757.5434,,,,1759.8912,1760.3915,1759.3743,1759.8911,1758.5575,279.0,1759.3743,1760.3916,1760.8906,1760.8907,1766.9077,9999.0,1766.9079,0.0,1767.9074,5.0,1.0,151.0,5.0,1.0,0.8,0.7,Time
,,S21,1,Female,21,anonymized,Serial_Dependence_U,2023.2.3,Win32,59.88023952,,,,,,,,,,,,1767.908,5.0,1767.9083,,,,1770.2577,1770.7575,1769.741,1770.2577,1768.9244,58.0,1769.7408,1770.7575,1771.2573,1771.2573,1777.2742,9999.0,1777.2743,0.0,1778.2739,5.0,2.0,152.0,15.0,1.0,0.8,0.7,Time
,,S21,1,Female,21,anonymized,Serial_Dependence_U,2023.2.3,Win32,59.88023952,,,,,,,,,,,,1778.2743,5.0,1778.2745,,,,1781.0244,1781.5238,1780.5078,1781.0244,1779.2911,336.0,1780.5077,1781.5238,1782.0239,1782.024,1788.041,9999.0,1788.0411,0.0,1789.0407,5.0,3.0,153.0,12.0,1.0,1.2,0.3,Time
,,S21,1,Female,21,anonymized,Serial_Dependence_U,2023.2.3,Win32,59.88023952,,,,,,,,,,,,1789.0413,5.0,1789.0415,,,,1791.9912,1792.4906,1791.4745,1791.9911,1790.0577,131.0,1791.4745,1792.4906,1792.9905,1792.9906,1799.0079,9999.0,1799.008,0.0,1800.0073,5.0,4.0,154.0,23.0,1.0,1.4,0.3,Time
,,S21,1,Female,21,anonymized,Serial_Dependence_U,2023.2.3,Win32,59.88023952,,,,,,,,,,,,1800.008,5.0,1800.0083,,,,1802.9578,1803.4573,1802.441,1802.9577,1801.0243,217.0,1802.441,1803.4574,1803.9574,1803.9575,1809.9743,9999.0,1809.9745,0.0,1810.974,5.0,5.0,155.0,3.0,1.0,1.4,0.3,Time
,,S21,1,Female,21,anonymized,Serial_Dependence_U,2023.2.3,Win32,59.88023952,,,,,,,,,,,,1810.9744,5.0,1810.9746,,,,1813.3244,1813.8238,1812.8073,1813.3243,1811.9906,52.0,1812.8072,1813.8238,1814.3239,1814.3241,1820.341,9999.0,1820.3413,0.0,1821.3407,5.0,6.0,156.0,25.0,1.0,0.8,0.7,Time
,,S21,1,Female,21,anonymized,Serial_Dependence_U,2023.2.3,Win32,59.88023952,,,,,,,,,,,,1821.3413,5.0,1821.3416,,,,1824.2912,1824.7907,1823.7745,1824.2911,1822.3578,345.0,1823.7745,1824.7907,1825.2907,1825.2907,1831.3078,9999.0,1831.3078,0.0,1832.3074,5.0,7.0,157.0,28.0,1.0,1.4,0.7,Time
,,S21,1,Female,21,anonymized,Serial_Dependence_U,2023.2.3,Win32,59.88023952,,,,,,,,,,,,1832.308,5.0,1832.3082,,,,1835.4577,1835.9574,1834.9419,1835.4576,1833.3246,336.0,1834.9419,1835.9574,1836.4574,1836.4575,1842.4745,9999.0,1842.4748,0.0,1843.4748,5.0,8.0,158.0,4.0,1.0,1.6,0.3,Time
,,S21,1,Female,21,anonymized,Serial_Dependence_U,2023.2.3,Win32,59.88023952,,,,,,,,,,,,1843.4754,5.0,1843.4758,,,,1846.4245,1846.9242,1845.9081,1846.4244,1844.4912,169.0,1845.9079,1846.9243,1847.4242,1847.4242,1853.4412,9999.0,1853.4413,0.0,1854.4408,5.0,9.0,159.0,13.0,1.0,1.4,0.3,Time
,,S21,1,Female,21,anonymized,Serial_Dependence_U,2023.2.3,Win32,59.88023952,,,,,,,,,,,,1854.4413,5.0,1854.4416,,,,1856.7911,1857.2908,1856.2744,1856.791,1855.4579,70.0,1856.2742,1857.2908,1857.7907,1857.7907,1863.8074,9999.0,1863.8076,0.0,1864.8072,5.0,10.0,160.0,20.0,1.0,0.8,0.3,Time
,,S21,1,Female,21,anonymized,Serial_Dependence_U,2023.2.3,Win32,59.88023952,,,,,,,,,,,,1864.8076,5.0,1864.8078,,,,1867.7578,1868.2575,1867.2411,1867.7577,1865.8242,213.0,1867.241,1868.2575,1868.7575,1868.7575,1874.7744,9999.0,1874.7746,0.0,1875.7742,5.0,11.0,161.0,18.0,1.0,1.4,0.7,Time
,,S21,1,Female,21,anonymized,Serial_Dependence_U,2023.2.3,Win32,59.88023952,,,,,,,,,,,,1875.7746,5.0,1875.7748,,,,1878.3246,1878.8241,1877.8078,1878.3245,1876.7913,261.0,1877.8077,1878.8242,1879.3243,1879.3244,1885.3411,9999.0,1885.3413,0.0,1886.3409,5.0,12.0,162.0,21.0,1.0,1.0,0.3,Time
,,S21,1,Female,21,anonymized,Serial_Dependence_U,2023.2.3,Win32,59.88023952,,,,,,,,,,,,1886.3414,5.0,1886.3416,,,,1889.4748,1889.9742,1888.9742,1889.4747,1887.3581,19.0,1888.9741,1889.9742,1890.4744,1890.4744,1896.4913,9999.0,1896.4914,0.0,1897.4908,5.0,13.0,163.0,9.0,1.0,1.6,0.7,Time
,,S21,1,Female,21,anonymized,Serial_Dependence_U,2023.2.3,Win32,59.88023952,,,,,,,,,,,,1897.4912,5.0,1897.4915,,,,1900.2415,1900.7408,1899.7245,1900.2414,1898.5079,309.0,1899.7244,1900.7409,1901.2409,1901.2409,1907.2577,9999.0,1907.2579,0.0,1908.2575,5.0,14.0,164.0,2.0,1.0,1.2,0.3,Time
,,S21,1,Female,21,anonymized,Serial_Dependence_U,2023.2.3,Win32,59.88023952,,,,,,,,,,,,1908.258,5.0,1908.2582,,,,1910.808,1911.3075,1910.2913,1910.8078,1909.2746,6.0,1910.2912,1911.3075,1911.8074,1911.8075,1917.8246,9999.0,1917.8248,0.0,1918.8243,5.0,15.0,165.0,26.0,1.0,1.0,0.7,Time
,,S21,1,Female,21,anonymized,Serial_Dependence_U,2023.2.3,Win32,59.88023952,,,,,,,,,,,,1918.825,5.0,1918.8251,,,,1921.3747,1921.8743,1920.8579,1921.3747,1919.8412,175.0,1920.8577,1921.8743,1922.374,1922.3742,1928.3912,9999.0,1928.3914,0.0,1929.3908,5.0,16.0,166.0,1.0,1.0,1.0,0.3,Time
,,S21,1,Female,21,anonymized,Serial_Dependence_U,2023.2.3,Win32,59.88023952,,,,,,,,,,,,1929.3913,5.0,1929.3915,,,,1931.7413,1932.2405,1931.2245,1931.7412,1930.408,320.0,1931.2245,1932.2405,1932.7408,1932.7408,1938.7579,9999.0,1938.7581,0.0,1939.7576,5.0,17.0,167.0,10.0,1.0,0.8,0.3,Time
,,S21,1,Female,21,anonymized,Serial_Dependence_U,2023.2.3,Win32,59.88023952,,,,,,,,,,,,1939.7581,5.0,1939.7585,,,,1942.3081,1942.8074,1941.7914,1942.308,1940.7746,195.0,1941.7913,1942.8075,1943.3075,1943.3075,1949.3091,9999.0,1949.3096,0.0,1950.3077,5.0,18.0,168.0,11.0,1.0,1.0,0.3,Time
,,S21,1,Female,21,anonymized,Serial_Dependence_U,2023.2.3,Win32,59.88023952,,,,,,,,,,,,1950.3082,5.0,1950.3084,,,,1952.8583,1953.3584,1952.3413,1952.8582,1951.3243,326.0,1952.3413,1953.3585,1953.8575,1953.8576,1959.8746,9999.0,1959.8748,0.0,1960.8742,5.0,19.0,169.0,6.0,1.0,1.0,0.7,Time
,,S21,1,Female,21,anonymized,Serial_Dependence_U,2023.2.3,Win32,59.88023952,,,,,,,,,,,,1960.8747,5.0,1960.8749,,,,1963.6079,1964.1075,1963.0916,1963.6079,1961.8909,126.0,1963.0914,1964.1075,1964.6076,1964.6076,1970.6246,9999.0,1970.6247,0.0,1971.6241,5.0,20.0,170.0,22.0,1.0,1.2,0.3,Time
,,S21,1,Female,21,anonymized,Serial_Dependence_U,2023.2.3,Win32,59.88023952,,,,,,,,,,,,1971.6246,5.0,1971.6248,,,,1974.7747,1975.2744,1974.2581,1974.7746,1972.6413,336.0,1974.2581,1975.2745,1975.7742,1975.7743,1981.791,9999.0,1981.7913,0.0,1982.7909,5.0,21.0,171.0,19.0,1.0,1.6,0.7,Time
,,S21,1,Female,21,anonymized,Serial_Dependence_U,2023.2.3,Win32,59.88023952,,,,,,,,,,,,1982.7913,5.0,1982.7914,,,,1985.7246,1986.2242,1985.208,1985.7245,1983.7936,61.0,1985.2079,1986.2243,1986.7242,1986.7242,1992.7407,9999.0,1992.7409,0.0,1993.7411,5.0,22.0,172.0,8.0,1.0,1.4,0.7,Time
,,S21,1,Female,21,anonymized,Serial_Dependence_U,2023.2.3,Win32,59.88023952,,,,,,,,,,,,1993.7417,5.0,1993.742,,,,1996.2916,1996.791,1995.7747,1996.2916,1994.758,37.0,1995.7746,1996.791,1997.2911,1997.2912,2003.308,9999.0,2003.3082,0.0,2004.3076,5.0,23.0,173.0,16.0,1.0,1.0,0.7,Time
,,S21,1,Female,21,anonymized,Serial_Dependence_U,2023.2.3,Win32,59.88023952,,,,,,,,,,,,2004.3081,5.0,2004.3083,,,,2007.458,2007.9574,2006.9415,2007.4579,2005.3247,126.0,2006.9414,2007.9574,2008.4575,2008.4575,2014.4748,9999.0,2014.475,0.0,2015.4744,5.0,24.0,174.0,29.0,1.0,1.6,0.7,Time
,,S21,1,Female,21,anonymized,Serial_Dependence_U,2023.2.3,Win32,59.88023952,,,,,,,,,,,,2015.475,5.0,2015.4753,,,,2018.6079,2019.1077,2018.0914,2018.6079,2016.4749,297.0,2018.0913,2019.1077,2019.6078,2019.6079,2025.6252,9999.0,2025.6254,0.0,2026.6243,5.0,25.0,175.0,24.0,1.0,1.6,0.3,Time
,,S21,1,Female,21,anonymized,Serial_Dependence_U,2023.2.3,Win32,59.88023952,,,,,,,,,,,,2026.6248,5.0,2026.6252,,,,2029.3745,2029.8744,2028.8584,2029.3745,2027.6414,95.0,2028.8583,2029.8744,2030.3746,2030.3747,2036.3913,9999.0,2036.3916,0.0,2037.3909,5.0,26.0,176.0,27.0,1.0,1.2,0.7,Time
,,S21,1,Female,21,anonymized,Serial_Dependence_U,2023.2.3,Win32,59.88023952,,,,,,,,,,,,2037.3915,5.0,2037.3918,,,,2039.7415,2040.2409,2039.2248,2039.7414,2038.4081,356.0,2039.2247,2040.241,2040.7412,2040.7412,2046.758,9999.0,2046.7582,0.0,2047.7577,5.0,27.0,177.0,0.0,1.0,0.8,0.3,Time
,,S21,1,Female,21,anonymized,Serial_Dependence_U,2023.2.3,Win32,59.88023952,,,,,,,,,,,,2047.7582,5.0,2047.7585,,,,2050.8749,2051.3745,2050.3744,2050.8748,2048.7581,330.0,2050.3743,2051.3745,2051.8744,2051.8745,2057.8912,9999.0,2057.8914,0.0,2058.8911,5.0,28.0,178.0,14.0,1.0,1.6,0.3,Time
,,S21,1,Female,21,anonymized,Serial_Dependence_U,2023.2.3,Win32,59.88023952,,,,,,,,,,,,2058.8916,5.0,2058.8918,,,,2061.6416,2062.1412,2061.1249,2061.6415,2059.908,283.0,2061.1248,2062.1412,2062.6409,2062.641,2068.6579,9999.0,2068.6582,0.0,2069.6577,5.0,29.0,179.0,17.0,1.0,1.2,0.7,Time
,,S21,1,Female,21,anonymized,Serial_Dependence_U,2023.2.3,Win32,59.88023952,,,,,,,,,,,,2069.6583,6.0,2072.0416,s,2.3593,,2074.3912,2074.8911,2073.8745,2074.3912,2073.0583,39.0,2073.8745,2074.8911,2075.3912,2075.3912,2081.4081,9999.0,2081.4082,0.0,2082.4076,6.0,0.0,180.0,10.0,1.0,0.8,0.3,Time
,,S21,1,Female,21,anonymized,Serial_Dependence_U,2023.2.3,Win32,59.88023952,,,,,,,,,,,,2082.4081,6.0,2082.4101,,,,2085.3582,2085.8578,2084.8411,2085.3581,2083.4249,55.0,2084.8411,2085.8579,2086.3578,2086.3579,2092.3748,9999.0,2092.375,0.0,2093.3743,6.0,1.0,181.0,3.0,1.0,1.4,0.3,Time
,,S21,1,Female,21,anonymized,Serial_Dependence_U,2023.2.3,Win32,59.88023952,,,,,,,,,,,,2093.3748,6.0,2093.3751,,,,2096.5252,2097.0244,2096.0084,2096.525,2094.3916,340.0,2096.0082,2097.0244,2097.5245,2097.5246,2103.5414,9999.0,2103.5417,0.0,2104.5413,6.0,2.0,182.0,24.0,1.0,1.6,0.3,Time
,,S21,1,Female,21,anonymized,Serial_Dependence_U,2023.2.3,Win32,59.88023952,,,,,,,,,,,,2104.5418,6.0,2104.5421,,,,2107.2918,2107.7911,2106.7749,2107.2916,2105.558,41.0,2106.7748,2107.7911,2108.2912,2108.2912,2114.3082,9999.0,2114.3083,0.0,2115.3079,6.0,3.0,183.0,2.0,1.0,1.2,0.3,Time
,,S21,1,Female,21,anonymized,Serial_Dependence_U,2023.2.3,Win32,59.88023952,,,,,,,,,,,,2115.3085,6.0,2115.3087,,,,2117.6416,2118.1411,2117.1249,2117.6416,2116.3082,73.0,2117.1248,2118.1412,2118.6413,2118.6413,2124.6584,9999.0,2124.6585,0.0,2125.658,6.0,4.0,184.0,15.0,1.0,0.8,0.7,Time
,,S21,1,Female,21,anonymized,Serial_Dependence_U,2023.2.3,Win32,59.88023952,,,,,,,,,,,,2125.6586,6.0,2125.6589,,,,2128.608,2129.1078,2128.0911,2128.6079,2126.675,298.0,2128.091,2129.1078,2129.6079,2129.6079,2135.625,9999.0,2135.6252,0.0,2136.6245,6.0,5.0,185.0,23.0,1.0,1.4,0.3,Time
,,S21,1,Female,21,anonymized,Serial_Dependence_U,2023.2.3,Win32,59.88023952,,,,,,,,,,,,2136.6251,6.0,2136.6254,,,,2139.3751,2139.8745,2138.8583,2139.375,2137.6416,298.0,2138.8582,2139.8746,2140.3746,2140.3747,2146.3916,9999.0,2146.3918,0.0,2147.3914,6.0,6.0,186.0,17.0,1.0,1.2,0.7,Time
,,S21,1,Female,21,anonymized,Serial_Dependence_U,2023.2.3,Win32,59.88023952,,,,,,,,,,,,2147.3919,6.0,2147.3921,,,,2149.7418,2150.2413,2149.2248,2149.7417,2148.4104,306.0,2149.2248,2150.2414,2150.7413,2150.7413,2156.7579,9999.0,2156.7581,0.0,2157.758,6.0,7.0,187.0,20.0,1.0,0.8,0.3,Time
,,S21,1,Female,21,anonymized,Serial_Dependence_U,2023.2.3,Win32,59.88023952,,,,,,,,,,,,2157.7587,6.0,2157.759,,,,2160.9088,2161.4082,2160.3918,2160.9086,2158.775,219.0,2160.3917,2161.4082,2161.9079,2161.908,2167.9247,9999.0,2167.9247,0.0,2168.9247,6.0,8.0,188.0,9.0,1.0,1.6,0.7,Time
,,S21,1,Female,21,anonymized,Serial_Dependence_U,2023.2.3,Win32,59.88023952,,,,,,,,,,,,2168.9252,6.0,2168.9255,,,,2171.4751,2171.9744,2170.9584,2171.4749,2169.9418,208.0,2170.9583,2171.9744,2172.4743,2172.4743,2178.4749,9999.0,2178.4753,0.0,2179.4746,6.0,9.0,189.0,1.0,1.0,1.0,0.3,Time
,,S21,1,Female,21,anonymized,Serial_Dependence_U,2023.2.3,Win32,59.88023952,,,,,,,,,,,,2179.4752,6.0,2179.4754,,,,2182.625,2183.1244,2182.1085,2182.6247,2180.4919,16.0,2182.1084,2183.1245,2183.6248,2183.6248,2189.6416,9999.0,2189.6418,0.0,2190.6414,6.0,10.0,190.0,14.0,1.0,1.6,0.3,Time
,,S21,1,Female,21,anonymized,Serial_Dependence_U,2023.2.3,Win32,59.88023952,,,,,,,,,,,,2190.6419,6.0,2190.6421,,,,2193.5917,2194.0913,2193.0748,2193.5917,2191.6584,109.0,2193.0748,2194.0914,2194.5913,2194.5913,2200.6082,9999.0,2200.6085,0.0,2201.608,6.0,11.0,191.0,18.0,1.0,1.4,0.7,Time
,,S21,1,Female,21,anonymized,Serial_Dependence_U,2023.2.3,Win32,59.88023952,,,,,,,,,,,,2201.6084,6.0,2201.6087,,,,2204.1583,2204.6579,2203.6417,2204.1582,2202.6249,151.0,2203.6416,2204.6579,2205.1579,2205.1581,2211.1754,9999.0,2211.1755,0.0,2212.1749,6.0,12.0,192.0,16.0,1.0,1.0,0.7,Time
,,S21,1,Female,21,anonymized,Serial_Dependence_U,2023.2.3,Win32,59.88023952,,,,,,,,,,,,2212.1755,6.0,2212.1758,,,,2214.725,2215.2247,2214.2084,2214.7249,2213.1915,101.0,2214.2083,2215.2247,2215.7245,2215.7246,2221.7417,9999.0,2221.742,0.0,2222.7413,6.0,13.0,193.0,6.0,1.0,1.0,0.7,Time
,,S21,1,Female,21,anonymized,Serial_Dependence_U,2023.2.3,Win32,59.88023952,,,,,,,,,,,,2222.7418,6.0,2222.742,,,,2225.6919,2226.1913,2225.1752,2225.6918,2223.7585,358.0,2225.1751,2226.1913,2226.6913,2226.6914,2232.7081,9999.0,2232.7082,0.0,2233.7081,6.0,14.0,194.0,8.0,1.0,1.4,0.7,Time
,,S21,1,Female,21,anonymized,Serial_Dependence_U,2023.2.3,Win32,59.88023952,,,,,,,,,,,,2233.7086,6.0,2233.7089,,,,2236.0585,2236.5581,2235.5418,2236.0585,2234.7248,218.0,2235.5417,2236.5581,2237.0582,2237.0583,2243.0752,9999.0,2243.0753,0.0,2244.0747,6.0,15.0,195.0,0.0,1.0,0.8,0.3,Time
,,S21,1,Female,21,anonymized,Serial_Dependence_U,2023.2.3,Win32,59.88023952,,,,,,,,,,,,2244.0752,6.0,2244.0754,,,,2246.6257,2247.1247,2246.1085,2246.6256,2245.092,177.0,2246.1084,2247.1247,2247.6247,2247.6248,2253.6418,9999.0,2253.642,0.0,2254.6415,6.0,16.0,196.0,26.0,1.0,1.0,0.7,Time
,,S21,1,Female,21,anonymized,Serial_Dependence_U,2023.2.3,Win32,59.88023952,,,,,,,,,,,,2254.6421,6.0,2254.6424,,,,2257.7918,2258.2913,2257.2752,2257.7918,2255.6586,124.0,2257.275,2258.2915,2258.7914,2258.7915,2264.8085,9999.0,2264.8086,0.0,2265.8082,6.0,17.0,197.0,29.0,1.0,1.6,0.7,Time
,,S21,1,Female,21,anonymized,Serial_Dependence_U,2023.2.3,Win32,59.88023952,,,,,,,,,,,,2265.8088,6.0,2265.8092,,,,2268.9586,2269.4582,2268.4417,2268.9585,2266.8252,124.0,2268.4417,2269.4583,2269.9581,2269.9583,2275.9756,9999.0,2275.9759,0.0,2276.9749,6.0,18.0,198.0,19.0,1.0,1.6,0.7,Time
,,S21,1,Female,21,anonymized,Serial_Dependence_U,2023.2.3,Win32,59.88023952,,,,,,,,,,,,2276.9755,6.0,2276.9758,,,,2279.9247,2280.4248,2279.4086,2279.9247,2277.9919,16.0,2279.4086,2280.4248,2280.9247,2280.9248,2286.9419,9999.0,2286.9421,0.0,2287.9414,6.0,19.0,199.0,28.0,1.0,1.4,0.7,Time
,,S21,1,Female,21,anonymized,Serial_Dependence_U,2023.2.3,Win32,59.88023952,,,,,,,,,,,,2287.9419,6.0,2287.9422,,,,2290.6921,2291.1913,2290.175,2290.692,2288.9587,133.0,2290.175,2291.1913,2291.6916,2291.6917,2297.7084,9999.0,2297.7086,0.0,2298.7085,6.0,20.0,200.0,22.0,1.0,1.2,0.3,Time
,,S21,1,Female,21,anonymized,Serial_Dependence_U,2023.2.3,Win32,59.88023952,,,,,,,,,,,,2298.7091,6.0,2298.7093,,,,2301.8586,2302.3581,2301.3418,2301.8585,2299.7253,9.0,2301.3417,2302.3581,2302.8581,2302.8582,2308.8752,9999.0,2308.8756,0.0,2309.8747,6.0,21.0,201.0,4.0,1.0,1.6,0.3,Time
,,S21,1,Female,21,anonymized,Serial_Dependence_U,2023.2.3,Win32,59.88023952,,,,,,,,,,,,2309.8753,6.0,2309.8754,,,,2312.425,2312.9249,2311.9087,2312.4249,2310.8919,128.0,2311.9086,2312.9249,2313.4248,2313.4248,2319.4418,9999.0,2319.4421,0.0,2320.4415,6.0,22.0,202.0,11.0,1.0,1.0,0.3,Time
,,S21,1,Female,21,anonymized,Serial_Dependence_U,2023.2.3,Win32,59.88023952,,,,,,,,,,,,2320.4421,6.0,2320.4423,,,,2322.7921,2323.2916,2322.2751,2322.792,2321.4586,83.0,2322.275,2323.2917,2323.7915,2323.7915,2329.8086,9999.0,2329.8088,0.0,2330.8084,6.0,23.0,203.0,5.0,1.0,0.8,0.7,Time
,,S21,1,Female,21,anonymized,Serial_Dependence_U,2023.2.3,Win32,59.88023952,,,,,,,,,,,,2330.809,6.0,2330.8093,,,,2333.5587,2334.0582,2333.0423,2333.5586,2331.8253,306.0,2333.0423,2334.0582,2334.5581,2334.5582,2340.5755,9999.0,2340.5758,0.0,2341.5747,6.0,24.0,204.0,27.0,1.0,1.2,0.7,Time
,,S21,1,Female,21,anonymized,Serial_Dependence_U,2023.2.3,Win32,59.88023952,,,,,,,,,,,,2341.5752,6.0,2341.5753,,,,2344.1088,2344.6087,2343.5924,2344.1087,2342.5754,36.0,2343.5923,2344.6087,2345.1083,2345.1084,2351.1252,9999.0,2351.1254,0.0,2352.1247,6.0,25.0,205.0,21.0,1.0,1.0,0.3,Time
,,S21,1,Female,21,anonymized,Serial_Dependence_U,2023.2.3,Win32,59.88023952,,,,,,,,,,,,2352.1251,6.0,2352.1253,,,,2354.4585,2354.9589,2353.942,2354.4583,2353.1255,156.0,2353.9419,2354.9589,2355.459,2355.459,2361.4751,9999.0,2361.4754,0.0,2362.475,6.0,26.0,206.0,25.0,1.0,0.8,0.7,Time
,,S21,1,Female,21,anonymized,Serial_Dependence_U,2023.2.3,Win32,59.88023952,,,,,,,,,,,,2362.4756,6.0,2362.4758,,,,2365.2254,2365.7258,2364.7088,2365.2254,2363.492,225.0,2364.7088,2365.7259,2366.2251,2366.2251,2372.2419,9999.0,2372.242,0.0,2373.2417,6.0,27.0,207.0,7.0,1.0,1.2,0.7,Time
,,S21,1,Female,21,anonymized,Serial_Dependence_U,2023.2.3,Win32,59.88023952,,,,,,,,,,,,2373.2423,6.0,2373.2426,,,,2375.9921,2376.4916,2375.4753,2375.992,2374.2589,103.0,2375.4752,2376.4917,2376.9916,2376.9916,2382.9922,9999.0,2382.9924,0.0,2383.9917,6.0,28.0,208.0,12.0,1.0,1.2,0.3,Time
,,S21,1,Female,21,anonymized,Serial_Dependence_U,2023.2.3,Win32,59.88023952,,,,,,,,,,,,2383.9921,6.0,2383.9923,,,,2386.9423,2387.4417,2386.4255,2386.9422,2385.0087,77.0,2386.4254,2387.4417,2387.9415,2387.9415,2393.9587,9999.0,2393.9588,0.0,2394.9584,6.0,29.0,209.0,13.0,1.0,1.4,0.3,Time
,,S21,1,Female,21,anonymized,Serial_Dependence_U,2023.2.3,Win32,59.88023952,,,,,,,,,,,,2394.959,7.0,2400.4586,s,5.4783,,2403.6086,2404.1083,2403.0919,2403.6086,2401.4752,44.0,2403.0917,2404.1083,2404.6083,2404.6084,2410.6249,9999.0,2410.625,0.0,2411.625,7.0,0.0,210.0,19.0,1.0,1.6,0.7,Time
,,S21,1,Female,21,anonymized,Serial_Dependence_U,2023.2.3,Win32,59.88023952,,,,,,,,,,,,2411.6256,7.0,2411.6279,,,,2414.5588,2415.0584,2414.0424,2414.5588,2412.6417,338.0,2414.0423,2415.0585,2415.5584,2415.5584,2421.5754,9999.0,2421.5756,0.0,2422.5746,7.0,1.0,211.0,18.0,1.0,1.4,0.7,Time
,,S21,1,Female,21,anonymized,Serial_Dependence_U,2023.2.3,Win32,59.88023952,,,,,,,,,,,,2422.5749,7.0,2422.5751,,,,2425.5257,2426.0252,2425.0091,2425.5255,2423.5923,14.0,2425.009,2426.0252,2426.5249,2426.525,2432.5419,9999.0,2432.5422,0.0,2433.5417,7.0,2.0,212.0,13.0,1.0,1.4,0.3,Time
,,S21,1,Female,21,anonymized,Serial_Dependence_U,2023.2.3,Win32,59.88023952,,,,,,,,,,,,2433.5422,7.0,2433.5423,,,,2436.4755,2436.9751,2435.9592,2436.4754,2434.5586,278.0,2435.9591,2436.9751,2437.4748,2437.4749,2443.4919,9999.0,2443.4922,0.0,2444.4917,7.0,3.0,213.0,23.0,1.0,1.4,0.3,Time
,,S21,1,Female,21,anonymized,Serial_Dependence_U,2023.2.3,Win32,59.88023952,,,,,,,,,,,,2444.4922,7.0,2444.4924,,,,2447.0262,2447.5252,2446.5254,2447.0261,2445.5088,191.0,2446.5252,2447.5253,2448.025,2448.0251,2454.0422,9999.0,2454.0424,0.0,2455.0418,7.0,4.0,214.0,11.0,1.0,1.0,0.3,Time
,,S21,1,Female,21,anonymized,Serial_Dependence_U,2023.2.3,Win32,59.88023952,,,,,,,,,,,,2455.0424,7.0,2455.0426,,,,2457.9922,2458.4917,2457.4754,2457.9922,2456.0588,145.0,2457.4754,2458.4917,2458.9916,2458.9916,2465.0088,9999.0,2465.0089,0.0,2466.0084,7.0,5.0,215.0,3.0,1.0,1.4,0.3,Time
,,S21,1,Female,21,anonymized,Serial_Dependence_U,2023.2.3,Win32,59.88023952,,,,,,,,,,,,2466.0089,7.0,2466.0091,,,,2468.5593,2469.0583,2468.0422,2468.5593,2467.0255,131.0,2468.0421,2469.0583,2469.5584,2469.5585,2475.5753,9999.0,2475.5754,0.0,2476.575,7.0,6.0,216.0,16.0,1.0,1.0,0.7,Time
,,S21,1,Female,21,anonymized,Serial_Dependence_U,2023.2.3,Win32,59.88023952,,,,,,,,,,,,2476.5755,7.0,2476.5756,,,,2478.9255,2479.4261,2478.4089,2478.9252,2477.5923,104.0,2478.4088,2479.4261,2479.926,2479.9261,2485.9421,9999.0,2485.9422,0.0,2486.9418,7.0,7.0,217.0,0.0,1.0,0.8,0.3,Time
,,S21,1,Female,21,anonymized,Serial_Dependence_U,2023.2.3,Win32,59.88023952,,,,,,,,,,,,2486.9423,7.0,2486.9426,,,,2490.0926,2490.5922,2489.576,2490.0925,2487.9589,305.0,2489.5759,2490.5923,2491.0918,2491.0918,2497.1089,9999.0,2497.1091,0.0,2498.1085,7.0,8.0,218.0,4.0,1.0,1.6,0.3,Time
,,S21,1,Female,21,anonymized,Serial_Dependence_U,2023.2.3,Win32,59.88023952,,,,,,,,,,,,2498.1091,7.0,2498.1092,,,,2501.2586,2501.7585,2500.7422,2501.2585,2499.1253,168.0,2500.7421,2501.7586,2502.2584,2502.2584,2508.2753,9999.0,2508.2754,0.0,2509.2753,7.0,9.0,219.0,14.0,1.0,1.6,0.3,Time
,,S21,1,Female,21,anonymized,Serial_Dependence_U,2023.2.3,Win32,59.88023952,,,,,,,,,,,,2509.2758,7.0,2509.2761,,,,2511.6257,2512.1251,2511.1088,2511.6256,2510.2923,122.0,2511.1088,2512.1251,2512.6253,2512.6254,2518.6421,9999.0,2518.6423,0.0,2519.6419,7.0,10.0,220.0,25.0,1.0,0.8,0.7,Time
,,S21,1,Female,21,anonymized,Serial_Dependence_U,2023.2.3,Win32,59.88023952,,,,,,,,,,,,2519.6425,7.0,2519.6427,,,,2522.3923,2522.8918,2521.876,2522.3922,2520.6589,83.0,2521.876,2522.8919,2523.3919,2523.392,2529.4088,9999.0,2529.4089,0.0,2530.4084,7.0,11.0,221.0,12.0,1.0,1.2,0.3,Time
,,S21,1,Female,21,anonymized,Serial_Dependence_U,2023.2.3,Win32,59.88023952,,,,,,,,,,,,2530.409,7.0,2530.4092,,,,2533.1421,2533.6418,2532.6417,2533.142,2531.4255,193.0,2532.6417,2533.6418,2534.142,2534.1421,2540.159,9999.0,2540.1591,0.0,2541.1585,7.0,12.0,222.0,2.0,1.0,1.2,0.3,Time
,,S21,1,Female,21,anonymized,Serial_Dependence_U,2023.2.3,Win32,59.88023952,,,,,,,,,,,,2541.159,7.0,2541.1591,,,,2543.5093,2544.0088,2542.9924,2543.5092,2542.1756,34.0,2542.9923,2544.0088,2544.5084,2544.5084,2550.5254,9999.0,2550.5256,0.0,2551.5251,7.0,13.0,223.0,10.0,1.0,0.8,0.3,Time
,,S21,1,Female,21,anonymized,Serial_Dependence_U,2023.2.3,Win32,59.88023952,,,,,,,,,,,,2551.5255,7.0,2551.5257,,,,2554.6756,2555.1753,2554.1591,2554.6755,2552.5423,325.0,2554.159,2555.1753,2555.6751,2555.6752,2561.6923,9999.0,2561.6925,0.0,2562.692,7.0,14.0,224.0,9.0,1.0,1.6,0.7,Time
,,S21,1,Female,21,anonymized,Serial_Dependence_U,2023.2.3,Win32,59.88023952,,,,,,,,,,,,2562.6924,7.0,2562.6926,,,,2565.442,2565.9418,2564.9257,2565.442,2563.709,355.0,2564.9256,2565.9418,2566.4419,2566.4427,2572.4589,9999.0,2572.459,0.0,2573.4587,7.0,15.0,225.0,17.0,1.0,1.2,0.7,Time
,,S21,1,Female,21,anonymized,Serial_Dependence_U,2023.2.3,Win32,59.88023952,,,,,,,,,,,,2573.4591,7.0,2573.4593,,,,2575.8091,2576.3086,2575.2925,2575.8089,2574.4756,357.0,2575.2924,2576.3087,2576.8086,2576.8087,2582.8257,9999.0,2582.8258,0.0,2583.8253,7.0,16.0,226.0,5.0,1.0,0.8,0.7,Time
,,S21,1,Female,21,anonymized,Serial_Dependence_U,2023.2.3,Win32,59.88023952,,,,,,,,,,,,2583.8258,7.0,2583.8261,,,,2586.3756,2586.8753,2585.8589,2586.3756,2584.8423,132.0,2585.8589,2586.8753,2587.3751,2587.3752,2593.3923,9999.0,2593.3926,0.0,2594.3921,7.0,17.0,227.0,26.0,1.0,1.0,0.7,Time
,,S21,1,Female,21,anonymized,Serial_Dependence_U,2023.2.3,Win32,59.88023952,,,,,,,,,,,,2594.3927,7.0,2594.3928,,,,2597.1424,2597.642,2596.6256,2597.1424,2595.4089,128.0,2596.6254,2597.6421,2598.1422,2598.1422,2604.159,9999.0,2604.1592,0.0,2605.1587,7.0,18.0,228.0,22.0,1.0,1.2,0.3,Time
,,S21,1,Female,21,anonymized,Serial_Dependence_U,2023.2.3,Win32,59.88023952,,,,,,,,,,,,2605.1593,7.0,2605.1596,,,,2607.7091,2608.2086,2607.1925,2607.709,2606.1758,119.0,2607.1925,2608.2086,2608.7087,2608.7087,2614.7258,9999.0,2614.7259,0.0,2615.7254,7.0,19.0,229.0,21.0,1.0,1.0,0.3,Time
,,S21,1,Female,21,anonymized,Serial_Dependence_U,2023.2.3,Win32,59.88023952,,,,,,,,,,,,2615.726,7.0,2615.7263,,,,2618.4592,2618.9586,2617.9424,2618.4591,2616.7258,17.0,2617.9423,2618.9586,2619.4586,2619.4587,2625.4756,9999.0,2625.4758,0.0,2626.4753,7.0,20.0,230.0,27.0,1.0,1.2,0.7,Time
,,S21,1,Female,21,anonymized,Serial_Dependence_U,2023.2.3,Win32,59.88023952,,,,,,,,,,,,2626.4758,7.0,2626.476,,,,2629.6259,2630.1252,2629.1088,2629.6258,2627.4923,346.0,2629.1087,2630.1252,2630.6254,2630.6254,2636.6422,9999.0,2636.6425,0.0,2637.6421,7.0,21.0,231.0,24.0,1.0,1.6,0.3,Time
,,S21,1,Female,21,anonymized,Serial_Dependence_U,2023.2.3,Win32,59.88023952,,,,,,,,,,,,2637.6427,7.0,2637.643,,,,2639.9925,2640.4921,2639.4757,2639.9924,2638.6591,341.0,2639.4757,2640.4921,2640.992,2640.992,2647.0091,9999.0,2647.0093,0.0,2648.0087,7.0,22.0,232.0,15.0,1.0,0.8,0.7,Time
,,S21,1,Female,21,anonymized,Serial_Dependence_U,2023.2.3,Win32,59.88023952,,,,,,,,,,,,2648.0093,7.0,2648.0095,,,,2650.5592,2651.0588,2650.0428,2650.5591,2649.0259,318.0,2650.0426,2651.0588,2651.5589,2651.5589,2657.5758,9999.0,2657.5761,0.0,2658.5755,7.0,23.0,233.0,6.0,1.0,1.0,0.7,Time
,,S21,1,Female,21,anonymized,Serial_Dependence_U,2023.2.3,Win32,59.88023952,,,,,,,,,,,,2658.5761,7.0,2658.5764,,,,2661.1258,2661.6254,2660.6096,2661.1258,2659.5927,179.0,2660.6095,2661.6255,2662.1254,2662.1254,2668.1261,9999.0,2668.1262,0.0,2669.1255,7.0,24.0,234.0,1.0,1.0,1.0,0.3,Time
,,S21,1,Female,21,anonymized,Serial_Dependence_U,2023.2.3,Win32,59.88023952,,,,,,,,,,,,2669.1261,7.0,2669.1263,,,,2672.0761,2672.5753,2671.5594,2672.076,2670.1428,316.0,2671.5594,2672.5753,2673.0755,2673.0755,2679.0925,9999.0,2679.0927,0.0,2680.0924,7.0,25.0,235.0,8.0,1.0,1.4,0.7,Time
,,S21,1,Female,21,anonymized,Serial_Dependence_U,2023.2.3,Win32,59.88023952,,,,,,,,,,,,2680.0929,7.0,2680.0932,,,,2683.0425,2683.5421,2682.5257,2683.0425,2681.1092,7.0,2682.5257,2683.5421,2684.0421,2684.0421,2690.0592,9999.0,2690.0594,0.0,2691.0589,7.0,26.0,236.0,28.0,1.0,1.4,0.7,Time
,,S21,1,Female,21,anonymized,Serial_Dependence_U,2023.2.3,Win32,59.88023952,,,,,,,,,,,,2691.0595,7.0,2691.0597,,,,2693.8091,2694.3091,2693.2928,2693.809,2692.0759,38.0,2693.2927,2694.3091,2694.8087,2694.8088,2700.8258,9999.0,2700.8259,0.0,2701.8255,7.0,27.0,237.0,7.0,1.0,1.2,0.7,Time
,,S21,1,Female,21,anonymized,Serial_Dependence_U,2023.2.3,Win32,59.88023952,,,,,,,,,,,,2701.8261,7.0,2701.8263,,,,2704.1759,2704.6754,2703.6593,2704.1758,2702.8425,326.0,2703.6592,2704.6755,2705.1753,2705.1754,2711.1926,9999.0,2711.1928,0.0,2712.1918,7.0,28.0,238.0,20.0,1.0,0.8,0.3,Time
,,S21,1,Female,21,anonymized,Serial_Dependence_U,2023.2.3,Win32,59.88023952,,,,,,,,,,,,2712.1922,7.0,2712.1924,,,,2715.3427,2715.842,2714.8259,2715.3426,2713.209,89.0,2714.8259,2715.842,2716.3423,2716.3424,2722.3593,9999.0,2722.3594,0.0,2723.359,7.0,29.0,239.0,29.0,1.0,1.6,0.7,Time
,,S21,1,Female,21,anonymized,Serial_Dependence_U,2023.2.3,Win32,59.88023952,,,,,,,,,,,,2723.3595,8.0,2725.9757,s,2.5932,,2729.1259,2729.6255,2728.6097,2729.1258,2726.9927,290.0,2728.6096,2729.6256,2730.1255,2730.1256,2736.1425,9999.0,2736.1426,0.0,2737.1433,8.0,0.0,240.0,29.0,1.0,1.6,0.7,Time
,,S21,1,Female,21,anonymized,Serial_Dependence_U,2023.2.3,Win32,59.88023952,,,,,,,,,,,,2737.1445,8.0,2737.1478,,,,2739.6928,2740.1921,2739.1762,2739.6927,2738.1596,315.0,2739.1761,2740.1921,2740.6923,2740.6923,2746.7091,9999.0,2746.7093,0.0,2747.709,8.0,1.0,241.0,11.0,1.0,1.0,0.3,Time
,,S21,1,Female,21,anonymized,Serial_Dependence_U,2023.2.3,Win32,59.88023952,,,,,,,,,,,,2747.7096,8.0,2747.7099,,,,2750.2594,2750.7589,2749.7429,2750.2593,2748.726,131.0,2749.7429,2750.759,2751.2589,2751.259,2757.2761,9999.0,2757.2761,0.0,2758.2756,8.0,2.0,242.0,21.0,1.0,1.0,0.3,Time
,,S21,1,Female,21,anonymized,Serial_Dependence_U,2023.2.3,Win32,59.88023952,,,,,,,,,,,,2758.2762,8.0,2758.2764,,,,2760.8095,2761.3093,2760.2926,2760.8095,2759.2764,101.0,2760.2925,2761.3094,2761.8092,2761.8093,2767.8259,9999.0,2767.826,0.0,2768.8258,8.0,3.0,243.0,16.0,1.0,1.0,0.7,Time
,,S21,1,Female,21,anonymized,Serial_Dependence_U,2023.2.3,Win32,59.88023952,,,,,,,,,,,,2768.8263,8.0,2768.8266,,,,2771.1762,2771.6756,2770.6598,2771.1761,2769.8432,36.0,2770.6597,2771.6756,2772.1753,2772.1753,2778.1926,9999.0,2778.1928,0.0,2779.1921,8.0,4.0,244.0,20.0,1.0,0.8,0.3,Time
,,S21,1,Female,21,anonymized,Serial_Dependence_U,2023.2.3,Win32,59.88023952,,,,,,,,,,,,2779.1925,8.0,2779.1927,,,,2781.9427,2782.4422,2781.4261,2781.9426,2780.2094,35.0,2781.426,2782.4422,2782.9423,2782.9423,2788.9594,9999.0,2788.9595,0.0,2789.959,8.0,5.0,245.0,7.0,1.0,1.2,0.7,Time
,,S21,1,Female,21,anonymized,Serial_Dependence_U,2023.2.3,Win32,59.88023952,,,,,,,,,,,,2789.9595,8.0,2789.9597,,,,2792.4929,2792.9924,2791.9763,2792.4928,2790.9758,233.0,2791.9762,2792.9925,2793.4922,2793.4922,2799.5093,9999.0,2799.5095,0.0,2800.509,8.0,6.0,246.0,1.0,1.0,1.0,0.3,Time
,,S21,1,Female,21,anonymized,Serial_Dependence_U,2023.2.3,Win32,59.88023952,,,,,,,,,,,,2800.5096,8.0,2800.5098,,,,2803.6594,2804.1591,2803.1427,2803.6593,2801.5262,5.0,2803.1426,2804.1591,2804.659,2804.659,2810.6609,9999.0,2810.6613,0.0,2811.659,8.0,7.0,247.0,19.0,1.0,1.6,0.7,Time
,,S21,1,Female,21,anonymized,Serial_Dependence_U,2023.2.3,Win32,59.88023952,,,,,,,,,,,,2811.6596,8.0,2811.6597,,,,2814.0097,2814.509,2813.4928,2814.0096,2812.676,32.0,2813.4927,2814.509,2815.0093,2815.0094,2821.026,9999.0,2821.0262,0.0,2822.0257,8.0,8.0,248.0,15.0,1.0,0.8,0.7,Time
,,S21,1,Female,21,anonymized,Serial_Dependence_U,2023.2.3,Win32,59.88023952,,,,,,,,,,,,2822.0263,8.0,2822.0265,,,,2825.1763,2825.6758,2824.6594,2825.1762,2823.0429,78.0,2824.6593,2825.6758,2826.1759,2826.176,2832.1923,9999.0,2832.1927,0.0,2833.1925,8.0,9.0,249.0,14.0,1.0,1.6,0.3,Time
,,S21,1,Female,21,anonymized,Serial_Dependence_U,2023.2.3,Win32,59.88023952,,,,,,,,,,,,2833.1932,8.0,2833.1934,,,,2836.1427,2836.6423,2835.6261,2836.1426,2834.2095,2.0,2835.626,2836.6423,2837.1424,2837.1425,2843.1597,9999.0,2843.1599,0.0,2844.1592,8.0,10.0,250.0,28.0,1.0,1.4,0.7,Time
,,S21,1,Female,21,anonymized,Serial_Dependence_U,2023.2.3,Win32,59.88023952,,,,,,,,,,,,2844.1597,8.0,2844.16,,,,2847.1096,2847.6093,2846.593,2847.1095,2845.1765,243.0,2846.5929,2847.6093,2848.109,2848.1091,2854.1109,9999.0,2854.1114,0.0,2855.109,8.0,11.0,251.0,18.0,1.0,1.4,0.7,Time
,,S21,1,Female,21,anonymized,Serial_Dependence_U,2023.2.3,Win32,59.88023952,,,,,,,,,,,,2855.1096,8.0,2855.1097,,,,2857.6595,2858.159,2857.1428,2857.6595,2856.126,182.0,2857.1427,2858.159,2858.6592,2858.6592,2864.66,9999.0,2864.6603,0.0,2865.6591,8.0,12.0,252.0,6.0,1.0,1.0,0.7,Time
,,S21,1,Female,21,anonymized,Serial_Dependence_U,2023.2.3,Win32,59.88023952,,,,,,,,,,,,2865.6597,8.0,2865.66,,,,2868.4099,2868.9089,2867.8931,2868.4098,2866.6763,182.0,2867.893,2868.909,2869.409,2869.409,2875.4259,9999.0,2875.4261,0.0,2876.4258,8.0,13.0,253.0,22.0,1.0,1.2,0.3,Time
,,S21,1,Female,21,anonymized,Serial_Dependence_U,2023.2.3,Win32,59.88023952,,,,,,,,,,,,2876.4264,8.0,2876.4266,,,,2879.1596,2879.6592,2878.6435,2879.1596,2877.4428,325.0,2878.6434,2879.6592,2880.1591,2880.1592,2886.1762,9999.0,2886.1764,0.0,2887.1757,8.0,14.0,254.0,17.0,1.0,1.2,0.7,Time
,,S21,1,Female,21,anonymized,Serial_Dependence_U,2023.2.3,Win32,59.88023952,,,,,,,,,,,,2887.1764,8.0,2887.1766,,,,2889.5266,2890.0261,2889.0099,2889.5265,2888.1928,14.0,2889.0098,2890.0261,2890.5258,2890.5259,2896.5426,9999.0,2896.5428,0.0,2897.5425,8.0,15.0,255.0,10.0,1.0,0.8,0.3,Time
,,S21,1,Female,21,anonymized,Serial_Dependence_U,2023.2.3,Win32,59.88023952,,,,,,,,,,,,2897.5431,8.0,2897.5433,,,,2899.893,2900.3925,2899.3762,2899.8929,2898.5594,152.0,2899.3761,2900.3926,2900.8924,2900.8924,2906.9095,9999.0,2906.9098,0.0,2907.9091,8.0,16.0,256.0,0.0,1.0,0.8,0.3,Time
,,S21,1,Female,21,anonymized,Serial_Dependence_U,2023.2.3,Win32,59.88023952,,,,,,,,,,,,2907.9096,8.0,2907.9099,,,,2910.8596,2911.3591,2910.3428,2910.8596,2908.9263,161.0,2910.3428,2911.3592,2911.8591,2911.8592,2917.8762,9999.0,2917.8764,0.0,2918.8759,8.0,17.0,257.0,13.0,1.0,1.4,0.3,Time
,,S21,1,Female,21,anonymized,Serial_Dependence_U,2023.2.3,Win32,59.88023952,,,,,,,,,,,,2918.8765,8.0,2918.8767,,,,2922.0267,2922.5258,2921.5095,2922.0265,2919.8929,104.0,2921.5094,2922.5258,2923.026,2923.026,2929.0429,9999.0,2929.043,0.0,2930.0426,8.0,18.0,258.0,4.0,1.0,1.6,0.3,Time
,,S21,1,Female,21,anonymized,Serial_Dependence_U,2023.2.3,Win32,59.88023952,,,,,,,,,,,,2930.0432,8.0,2930.0435,,,,2932.3925,2932.8925,2931.8762,2932.3924,2931.0595,96.0,2931.8761,2932.8925,2933.3924,2933.3925,2939.4097,9999.0,2939.4099,0.0,2940.4092,8.0,19.0,259.0,25.0,1.0,0.8,0.7,Time
,,S21,1,Female,21,anonymized,Serial_Dependence_U,2023.2.3,Win32,59.88023952,,,,,,,,,,,,2940.4097,8.0,2940.4099,,,,2943.56,2944.0592,2943.043,2943.5599,2941.4259,133.0,2943.0428,2944.0593,2944.5593,2944.5593,2950.5763,9999.0,2950.5765,0.0,2951.5756,8.0,20.0,260.0,24.0,1.0,1.6,0.3,Time
,,S21,1,Female,21,anonymized,Serial_Dependence_U,2023.2.3,Win32,59.88023952,,,,,,,,,,,,2951.5762,8.0,2951.5763,,,,2954.3263,2954.8259,2953.8097,2954.3263,2952.5924,44.0,2953.8096,2954.8259,2955.326,2955.3261,2961.343,9999.0,2961.3432,0.0,2962.3427,8.0,21.0,261.0,27.0,1.0,1.2,0.7,Time
,,S21,1,Female,21,anonymized,Serial_Dependence_U,2023.2.3,Win32,59.88023952,,,,,,,,,,,,2962.3432,8.0,2962.3434,,,,2964.6933,2965.1931,2964.1764,2964.6932,2963.3599,290.0,2964.1764,2965.1931,2965.6926,2965.6927,2971.7097,9999.0,2971.7099,0.0,2972.7093,8.0,22.0,262.0,5.0,1.0,0.8,0.7,Time
,,S21,1,Female,21,anonymized,Serial_Dependence_U,2023.2.3,Win32,59.88023952,,,,,,,,,,,,2972.7098,8.0,2972.7101,,,,2975.6596,2976.1592,2975.1431,2975.6595,2973.7262,339.0,2975.1429,2976.1592,2976.6593,2976.6593,2982.6763,9999.0,2982.6765,0.0,2983.6757,8.0,23.0,263.0,8.0,1.0,1.4,0.7,Time
,,S21,1,Female,21,anonymized,Serial_Dependence_U,2023.2.3,Win32,59.88023952,,,,,,,,,,,,2983.676,8.0,2983.6761,,,,2986.8264,2987.326,2986.3097,2986.8264,2984.6933,174.0,2986.3096,2987.326,2987.8259,2987.8259,2993.8432,9999.0,2993.8434,0.0,2994.8427,8.0,24.0,264.0,9.0,1.0,1.6,0.7,Time
,,S21,1,Female,21,anonymized,Serial_Dependence_U,2023.2.3,Win32,59.88023952,,,,,,,,,,,,2994.8432,8.0,2994.8435,,,,2997.7938,2998.2926,2997.2763,2997.7936,2995.8598,181.0,2997.2763,2998.2927,2998.7927,2998.7928,3004.8097,9999.0,3004.8099,0.0,3005.8097,8.0,25.0,265.0,3.0,1.0,1.4,0.3,Time
,,S21,1,Female,21,anonymized,Serial_Dependence_U,2023.2.3,Win32,59.88023952,,,,,,,,,,,,3005.8105,8.0,3005.8109,,,,3008.3431,3008.8426,3007.8264,3008.343,3006.8099,230.0,3007.8264,3008.8426,3009.3427,3009.3428,3015.3597,9999.0,3015.3599,0.0,3016.3594,8.0,26.0,266.0,26.0,1.0,1.0,0.7,Time
,,S21,1,Female,21,anonymized,Serial_Dependence_U,2023.2.3,Win32,59.88023952,,,,,,,,,,,,3016.3598,8.0,3016.36,,,,3019.1098,3019.6093,3018.5933,3019.1097,3017.3765,89.0,3018.5932,3019.6094,3020.1091,3020.1091,3026.1259,9999.0,3026.1261,0.0,3027.1261,8.0,27.0,267.0,2.0,1.0,1.2,0.3,Time
,,S21,1,Female,21,anonymized,Serial_Dependence_U,2023.2.3,Win32,59.88023952,,,,,,,,,,,,3027.1266,8.0,3027.1269,,,,3030.0767,3030.5759,3029.5594,3030.0766,3028.1429,133.0,3029.5594,3030.5759,3031.076,3031.0761,3037.0931,9999.0,3037.0932,0.0,3038.0927,8.0,28.0,268.0,23.0,1.0,1.4,0.3,Time
,,S21,1,Female,21,anonymized,Serial_Dependence_U,2023.2.3,Win32,59.88023952,,,,,,,,,,,,3038.0932,8.0,3038.0933,,,,3040.8266,3041.3266,3040.3102,3040.8265,3039.1094,24.0,3040.31,3041.3267,3041.8262,3041.8263,3047.8431,9999.0,3047.8432,0.0,3048.8425,8.0,29.0,269.0,12.0,1.0,1.2,0.3,Time
