Scale_setup.started,Scale_setup.stopped,participant,expid,session,sex,age,date,expName,psychopyVersion,OS,frameRate,Intro.started,Intro.stopped,key_resp_2.keys,key_resp_2.rt,key_resp_2.duration,block.started,direction,Block_id,block.stopped,trial_direction,Block_resp_2.keys,Block_resp_2.rt,Block_resp_2.duration,ITI.started,ITI.stopped,Mask_2.started,Mask_2.stopped,encoding.started,encoding.stopped,Cue.started,Cue.stopped,Response.started,Response.stopped,keyDuration,Feedback_Time.started,FeedbackID_T,Feedback_Time.stopped,trials.thisRepN,trials.thisTrialN,trials.thisN,trials.thisIndex,trials.ran,TimeDur,Coherence1,TrialType
0.000100000023842,0.000200000047684,S22,994851,1,女,19,anonymized,Serial_Dependence_U,2023.2.3,Win32,120.48192771085394,,,,,,,,,,,,,,,,,,,,,,,,,,,,,,,,,,,
,,S22,994851,1,女,19,anonymized,Serial_Dependence_U,2023.2.3,Win32,120.48192771085394,17.177799999952313,17.935899999976158,space,0.7389999999999972,,,,,,,,,,,,,,,,,,,,,,,,,,,,,,,
,,S22,994851,1,女,19,anonymized,Serial_Dependence_U,2023.2.3,Win32,120.48192771085394,,,,,,17.940299999952316,9.0,0.0,19.40260000002384,9.0,s,1.447399999976156,,22.952600000023843,23.4525,22.44439999997616,22.9525,20.41160000002384,22.444299999952317,23.452899999976157,23.952600000023843,23.952700000047685,25.952600000023843,1087.0,25.952799999952312,4.0,26.952799999952312,0.0,0.0,0.0,16.0,1.0,1.0,0.7,Time
,,S22,994851,1,女,19,anonymized,Serial_Dependence_U,2023.2.3,Win32,120.48192771085394,,,,,,26.95329999995232,203.0,0.0,26.954299999952312,203.0,,,,30.902799999952315,31.40260000002384,30.394700000047685,30.90270000004768,27.961,30.394700000047685,31.402700000047687,31.90239999997615,31.902500000000003,33.50260000002385,1159.0,33.50270000004768,2.0,34.50239999997616,0.0,1.0,1.0,28.0,1.0,1.4,0.7,Time
,,S22,994851,1,女,19,anonymized,Serial_Dependence_U,2023.2.3,Win32,120.48192771085394,,,,,,34.50270000004768,123.0,0.0,34.50289999997615,123.0,,,,37.886,38.38589999997616,37.37770000004768,37.886,35.511,37.3775,38.386,38.88579999995231,38.88589999997616,40.26070000004768,812.0,40.26089999997616,3.0,41.26070000004768,0.0,2.0,2.0,20.0,1.0,0.8,0.3,Time
,,S22,994851,1,女,19,anonymized,Serial_Dependence_U,2023.2.3,Win32,120.48192771085394,,,,,,41.261100000023845,277.0,0.0,41.26129999995232,277.0,,,,45.03629999995232,45.536,44.536,45.03629999995232,42.26960000002384,44.53589999997615,45.536,46.03589999997615,46.03589999997615,47.68599999999999,997.0,47.68599999999999,2.0,48.68589999997616,0.0,3.0,3.0,12.0,1.0,1.2,0.3,Time
,,S22,994851,1,女,19,anonymized,Serial_Dependence_U,2023.2.3,Win32,120.48192771085394,,,,,,48.68629999995231,258.0,0.0,48.68660000002384,258.0,,,,52.46920000004768,52.96910000002384,51.96120000004768,52.46910000002384,49.694500000000005,51.96110000002383,52.96910000002384,53.46929999995231,53.46929999995231,54.60249999999999,757.0,54.60260000002384,1.0,55.60220000004769,0.0,4.0,4.0,2.0,1.0,1.2,0.3,Time
,,S22,994851,1,女,19,anonymized,Serial_Dependence_U,2023.2.3,Win32,120.48192771085394,,,,,,55.60279999995231,28.0,0.0,55.603,28.0,,,,59.18610000002384,59.68579999995231,58.67779999995231,59.18610000002384,56.611,58.67779999995231,59.68589999997616,60.18579999995231,60.18589999997616,61.88570000004768,1028.0,61.88570000004768,3.0,62.88560000002384,0.0,5.0,5.0,1.0,1.0,1.0,0.3,Time
,,S22,994851,1,女,19,anonymized,Serial_Dependence_U,2023.2.3,Win32,120.48192771085394,,,,,,62.886100000023845,231.0,0.0,62.88620000004768,231.0,,,,67.02760000002384,67.52760000002384,66.51970000004768,67.02760000002384,63.886,66.51960000002384,67.52760000002384,68.02760000002384,68.02770000004769,70.5275,1399.0,70.5275,2.0,71.5275,0.0,6.0,6.0,19.0,1.0,1.6,0.7,Time
,,S22,994851,1,女,19,anonymized,Serial_Dependence_U,2023.2.3,Win32,120.48192771085394,,,,,,71.52789999997616,266.0,0.0,71.52799999999999,266.0,,,,75.27789999997616,75.77760000002384,74.76929999995231,75.27789999997616,72.53610000002384,74.76929999995231,75.77760000002384,76.2775,76.2775,79.22739999997616,1392.0,79.22739999997616,4.0,80.22739999997616,0.0,7.0,7.0,7.0,1.0,1.2,0.7,Time
,,S22,994851,1,女,19,anonymized,Serial_Dependence_U,2023.2.3,Win32,120.48192771085394,,,,,,80.22770000004768,111.0,0.0,80.22789999997616,111.0,,,,84.36960000002384,84.86910000002383,83.86920000004768,84.3695,81.236,83.86910000002383,84.86910000002383,85.369,85.369,88.0525,1708.0,88.0525,4.0,89.05229999995231,0.0,8.0,8.0,9.0,1.0,1.6,0.7,Time
,,S22,994851,1,女,19,anonymized,Serial_Dependence_U,2023.2.3,Win32,120.48192771085394,,,,,,89.05270000004768,217.0,0.0,89.05289999997616,217.0,,,,92.40239999997615,92.90239999997615,91.8945,92.40239999997615,90.06110000002384,91.89439999997616,92.90239999997615,93.40239999997615,93.4025,95.19420000004769,1059.0,95.19429999995232,5.0,96.19420000004769,0.0,9.0,9.0,25.0,1.0,0.8,0.7,Time
,,S22,994851,1,女,19,anonymized,Serial_Dependence_U,2023.2.3,Win32,120.48192771085394,,,,,,96.1945,17.0,0.0,96.19470000004767,17.0,,,,99.9445,100.44410000002384,99.436,99.94439999997616,97.20279999995232,99.43589999997614,100.44410000002384,100.944,100.944,105.769,1057.0,105.769,2.0,106.76920000004768,0.0,10.0,10.0,17.0,1.0,1.2,0.7,Time
,,S22,994851,1,女,19,anonymized,Serial_Dependence_U,2023.2.3,Win32,120.48192771085394,,,,,,106.7695,333.0,0.0,106.76970000004768,333.0,,,,110.55289999997616,111.05239999997616,110.0447999999523,110.55279999995231,107.77779999995232,110.0445,111.05239999997616,111.55239999997616,111.55239999997616,114.0275,1225.0,114.02760000002384,3.0,115.02760000002384,0.0,11.0,11.0,22.0,1.0,1.2,0.3,Time
,,S22,994851,1,女,19,anonymized,Serial_Dependence_U,2023.2.3,Win32,120.48192771085394,,,,,,115.02779999995232,145.0,0.0,115.028,145.0,,,,118.41089999997617,118.91079999995232,117.90270000004767,118.41089999997617,116.03620000004769,117.90270000004767,118.91079999995232,119.41089999997617,119.41089999997617,121.71060000002385,1087.0,121.71060000002385,5.0,122.7105,0.0,12.0,12.0,10.0,1.0,0.8,0.3,Time
,,S22,994851,1,女,19,anonymized,Serial_Dependence_U,2023.2.3,Win32,120.48192771085394,,,,,,122.71079999995231,249.0,0.0,122.71079999995231,249.0,,,,126.69439999997616,127.194,126.186,126.69429999995232,123.71939999997616,126.186,127.19410000002384,127.69410000002384,127.69410000002384,129.47739999997617,1087.0,129.47750000000002,2.0,130.47729999995232,0.0,13.0,13.0,13.0,1.0,1.4,0.3,Time
,,S22,994851,1,女,19,anonymized,Serial_Dependence_U,2023.2.3,Win32,120.48192771085394,,,,,,130.47750000000002,286.0,0.0,130.4776000000238,286.0,,,,134.46079999995231,134.96050000000002,133.95289999997618,134.46070000004767,131.48610000002384,133.95289999997618,134.96060000002382,135.46060000002382,135.46070000004767,138.61910000002382,1014.0,138.61920000004767,2.0,139.61899999999997,0.0,14.0,14.0,3.0,1.0,1.4,0.3,Time
,,S22,994851,1,女,19,anonymized,Serial_Dependence_U,2023.2.3,Win32,120.48192771085394,,,,,,139.61939999997617,270.0,0.0,139.6196000000239,270.0,,,,143.8027000000477,144.30220000004766,143.29429999995233,143.8027000000477,140.62760000002385,143.29429999995233,144.30220000004766,144.8022999999523,144.8022999999523,147.05239999997616,1469.0,147.05239999997616,2.0,148.05220000004766,0.0,15.0,15.0,24.0,1.0,1.6,0.3,Time
,,S22,994851,1,女,19,anonymized,Serial_Dependence_U,2023.2.3,Win32,120.48192771085394,,,,,,148.0527999999523,215.0,0.0,148.05289999997615,215.0,,,,151.40260000002382,151.90239999997618,150.8942999999523,151.40249999999995,149.06079999995234,150.8942000000477,151.90249999999995,152.40220000004769,152.40220000004769,153.7025,863.0,153.70260000002384,4.0,154.7022000000477,0.0,16.0,16.0,5.0,1.0,0.8,0.7,Time
,,S22,994851,1,女,19,anonymized,Serial_Dependence_U,2023.2.3,Win32,120.48192771085394,,,,,,154.70260000002384,39.0,0.0,154.70260000002384,39.0,,,,158.2857999999523,158.7857999999523,157.77749999999995,158.28570000004763,155.71089999997616,157.77749999999995,158.7857999999523,159.28560000002386,159.28570000004763,159.81079999995234,141.0,159.81079999995234,1.0,160.8105,0.0,17.0,17.0,11.0,1.0,1.0,0.3,Time
,,S22,994851,1,女,19,anonymized,Serial_Dependence_U,2023.2.3,Win32,120.48192771085394,,,,,,160.81079999995234,142.0,0.0,160.81099999999998,142.0,,,,164.1942999999523,164.69389999997617,163.68610000002383,164.1942999999523,161.81920000004766,163.68599999999998,164.69389999997617,165.19410000002387,165.19410000002387,166.4522999999523,813.0,166.45239999997614,3.0,167.45210000002385,0.0,18.0,18.0,0.0,1.0,0.8,0.3,Time
,,S22,994851,1,女,19,anonymized,Serial_Dependence_U,2023.2.3,Win32,120.48192771085394,,,,,,167.4522999999523,116.0,0.0,167.45239999997614,116.0,,,,171.6362000000477,172.13560000002383,171.1277000000477,171.63610000002382,168.46079999995231,171.12760000002385,172.13560000002383,172.63579999995233,172.63589999997615,174.63560000002383,1511.0,174.63570000004768,2.0,175.63570000004768,0.0,19.0,19.0,14.0,1.0,1.6,0.3,Time
,,S22,994851,1,女,19,anonymized,Serial_Dependence_U,2023.2.3,Win32,120.48192771085394,,,,,,175.63610000002382,191.0,0.0,175.6362000000477,191.0,,,,179.81099999999998,180.31060000002384,179.3107000000477,179.81099999999998,176.64439999997614,179.3107000000477,180.31060000002384,180.8107000000477,180.8107000000477,184.10229999995232,1847.0,184.10229999995232,4.0,185.10229999995232,0.0,20.0,20.0,4.0,1.0,1.6,0.3,Time
,,S22,994851,1,女,19,anonymized,Serial_Dependence_U,2023.2.3,Win32,120.48192771085394,,,,,,185.1025,301.0,0.0,185.1027999999523,301.0,,,,189.04470000004767,189.544,188.53589999997612,189.04460000002385,186.10289999997616,188.53589999997612,189.544,190.04410000002383,190.04420000004768,192.25260000002385,1450.0,192.25260000002385,3.0,193.25210000002383,0.0,21.0,21.0,8.0,1.0,1.4,0.7,Time
,,S22,994851,1,女,19,anonymized,Serial_Dependence_U,2023.2.3,Win32,120.48192771085394,,,,,,193.25239999997612,207.0,0.0,193.25260000002385,207.0,,,,196.8027999999523,197.30239999997616,196.29420000004768,196.8027000000477,194.26110000002384,196.29420000004768,197.3025,197.8025,197.8025,199.51910000002383,997.0,199.51910000002383,3.0,200.5192000000477,0.0,22.0,22.0,6.0,1.0,1.0,0.7,Time
,,S22,994851,1,女,19,anonymized,Serial_Dependence_U,2023.2.3,Win32,120.48192771085394,,,,,,200.51960000002384,82.0,0.0,200.5197000000477,82.0,,,,204.6612000000477,205.16060000002383,204.15279999995232,204.66110000002385,201.5192000000477,204.15270000004767,205.16060000002383,205.66060000002383,205.66070000004763,207.9522999999523,1665.0,207.9522999999523,3.0,208.95260000002384,0.0,23.0,23.0,29.0,1.0,1.6,0.7,Time
,,S22,994851,1,女,19,anonymized,Serial_Dependence_U,2023.2.3,Win32,120.48192771085394,,,,,,208.95289999997615,255.0,0.0,208.95310000002385,255.0,,,,212.50260000002385,213.00239999997612,211.99439999997617,212.50260000002385,209.96079999995231,211.99420000004767,213.00239999997612,213.5022000000477,213.5022999999523,215.1272000000477,1075.0,215.1272000000477,4.0,216.12739999997612,0.0,24.0,24.0,26.0,1.0,1.0,0.7,Time
,,S22,994851,1,女,19,anonymized,Serial_Dependence_U,2023.2.3,Win32,120.48192771085394,,,,,,216.1277999999523,252.0,0.0,216.128,252.0,,,,219.7025,220.2023999999761,219.19460000002385,219.7023999999761,217.1275,219.1945,220.2023999999761,220.70210000002385,220.7022000000477,222.8272999999523,1243.0,222.8272999999523,4.0,223.82729999995237,0.0,25.0,25.0,21.0,1.0,1.0,0.3,Time
,,S22,994851,1,女,19,anonymized,Serial_Dependence_U,2023.2.3,Win32,120.48192771085394,,,,,,223.82770000004768,312.0,0.0,223.82789999997615,312.0,,,,227.77750000000003,228.27720000004769,227.26929999995235,227.77739999997615,224.83589999997616,227.26929999995235,228.27729999995236,228.77720000004769,228.77720000004769,231.3853999999762,1544.0,231.3853999999762,4.0,232.38570000004768,0.0,26.0,26.0,18.0,1.0,1.4,0.7,Time
,,S22,994851,1,女,19,anonymized,Serial_Dependence_U,2023.2.3,Win32,120.48192771085394,,,,,,232.3862000000477,308.0,0.0,232.38639999997616,308.0,,,,236.36929999995232,236.86910000002388,235.86110000002384,236.36920000004767,233.3942000000477,235.86110000002384,236.86920000004767,237.36910000002388,237.36910000002388,239.74379999995236,1451.0,239.74389999997615,3.0,240.74379999995236,0.0,27.0,27.0,23.0,1.0,1.4,0.3,Time
,,S22,994851,1,女,19,anonymized,Serial_Dependence_U,2023.2.3,Win32,120.48192771085394,,,,,,240.74410000002388,37.0,0.0,240.74420000004767,37.0,,,,244.09429999995237,244.594,243.5862999999523,244.09429999995237,241.7527000000477,243.5862000000477,244.59410000002384,245.094,245.094,246.96889999997612,906.0,246.96889999997612,4.0,247.9692000000477,0.0,28.0,28.0,15.0,1.0,0.8,0.7,Time
,,S22,994851,1,女,19,anonymized,Serial_Dependence_U,2023.2.3,Win32,120.48192771085394,,,,,,247.96950000000004,63.0,0.0,247.96960000002383,63.0,,,,251.7192000000477,252.21910000002384,251.21089999997616,251.7192000000477,248.9777000000477,251.21079999995231,252.2192000000477,252.71879999995235,252.71879999995235,254.5438999999762,1149.0,254.5438999999762,3.0,255.5438999999762,0.0,29.0,29.0,27.0,1.0,1.2,0.7,Time
,,S22,994851,1,女,19,anonymized,Serial_Dependence_U,2023.2.3,Win32,120.48192771085394,,,,,,255.54420000004768,237.0,1.0,257.4022000000477,237.0,s,1.846000000000004,,261.1526000000239,261.6523999999762,260.6445,261.15250000000003,258.411,260.6445,261.65250000000003,262.15250000000003,262.15250000000003,264.5272000000477,1209.0,264.52729999995233,3.0,264.53210000002383,1.0,0.0,30.0,27.0,1.0,1.2,0.7,Time
,,S22,994851,1,女,19,anonymized,Serial_Dependence_U,2023.2.3,Win32,120.48192771085394,,,,,,264.5322000000477,59.0,1.0,264.53289999997617,59.0,,,,267.9107000000477,268.4107000000477,267.40250000000003,267.9105,265.5358999999761,267.40229999995233,268.4107999999523,268.9107000000477,268.9108999999761,270.19389999997617,548.0,270.19389999997617,1.0,270.19889999997616,1.0,1.0,31.0,10.0,1.0,0.8,0.3,Time
,,S22,994851,1,女,19,anonymized,Serial_Dependence_U,2023.2.3,Win32,120.48192771085394,,,,,,270.1992000000477,296.0,1.0,270.1992000000477,296.0,,,,274.1692000000477,274.66900000000004,273.6607999999523,274.16910000002383,271.1942999999523,273.6607000000477,274.66910000002383,275.1687000000477,275.1687000000477,277.5357999999523,1185.0,277.5358999999761,2.0,277.54089999997615,1.0,2.0,32.0,23.0,1.0,1.4,0.3,Time
,,S22,994851,1,女,19,anonymized,Serial_Dependence_U,2023.2.3,Win32,120.48192771085394,,,,,,277.54110000002385,45.0,1.0,277.5412000000477,45.0,,,,281.6861000000238,282.18560000002384,281.17760000002386,281.6858999999762,278.5442999999524,281.17760000002386,282.18560000002384,282.6853999999762,282.6855,285.14389999997616,1669.0,285.14389999997616,3.0,285.14910000002385,1.0,3.0,33.0,29.0,1.0,1.6,0.7,Time
,,S22,994851,1,女,19,anonymized,Serial_Dependence_U,2023.2.3,Win32,120.48192771085394,,,,,,285.1492000000477,149.0,1.0,285.14929999995235,149.0,,,,289.086,289.5855,288.57760000002384,289.086,286.14429999995235,288.5775,289.5855,290.0857000000477,290.08589999997616,292.5772000000477,1545.0,292.57729999995234,4.0,292.5822000000477,1.0,4.0,34.0,28.0,1.0,1.4,0.7,Time
,,S22,994851,1,女,19,anonymized,Serial_Dependence_U,2023.2.3,Win32,120.48192771085394,,,,,,292.5823999999762,231.0,1.0,292.5823999999762,231.0,,,,296.56079999995234,297.06060000002384,296.0527999999524,296.5607000000477,293.586,296.0527000000477,297.0607000000477,297.5605,297.5605,299.8022000000477,1346.0,299.8022000000477,3.0,299.80670000004767,1.0,5.0,35.0,13.0,1.0,1.4,0.3,Time
,,S22,994851,1,女,19,anonymized,Serial_Dependence_U,2023.2.3,Win32,120.48192771085394,,,,,,299.80689999997617,272.0,1.0,299.80689999997617,272.0,,,,303.18600000000004,303.6857000000477,302.6777000000477,303.1858999999762,300.8108999999762,302.6777000000477,303.6857000000477,304.1857000000477,304.18579999995234,305.76050000000004,892.0,305.7606000000238,4.0,305.76529999995233,1.0,6.0,36.0,20.0,1.0,0.8,0.3,Time
,,S22,994851,1,女,19,anonymized,Serial_Dependence_U,2023.2.3,Win32,120.48192771085394,,,,,,305.7653999999762,288.0,1.0,305.76550000000003,288.0,,,,309.9023999999762,310.40210000002384,309.39410000002385,309.9023999999762,306.761,309.39410000002385,310.40210000002384,310.90229999995233,310.9023999999762,313.0273999999762,1452.0,313.02750000000003,2.0,313.0322000000477,1.0,7.0,37.0,9.0,1.0,1.6,0.7,Time
,,S22,994851,1,女,19,anonymized,Serial_Dependence_U,2023.2.3,Win32,120.48192771085394,,,,,,313.0322999999524,354.0,1.0,313.0322999999524,354.0,,,,317.211,317.7105,316.7025,317.211,314.0358999999761,316.7023999999762,317.7106000000239,318.2102999999523,318.2103999999762,320.54400000000004,1488.0,320.54410000002383,2.0,320.54879999995234,1.0,8.0,38.0,4.0,1.0,1.6,0.3,Time
,,S22,994851,1,女,19,anonymized,Serial_Dependence_U,2023.2.3,Win32,120.48192771085394,,,,,,320.5488999999762,185.0,1.0,320.54900000000004,185.0,,,,324.3277000000477,324.82729999995234,323.8195,324.32760000002384,321.5527999999524,323.8192999999523,324.82729999995234,325.3272000000477,325.3272000000477,326.96879999995235,1225.0,326.96879999995235,3.0,326.974,1.0,9.0,39.0,22.0,1.0,1.2,0.3,Time
,,S22,994851,1,女,19,anonymized,Serial_Dependence_U,2023.2.3,Win32,120.48192771085394,,,,,,326.97410000002384,153.0,1.0,326.9742000000477,153.0,,,,331.14439999997614,331.64389999997616,330.644,331.1442000000477,327.97760000002387,330.644,331.644,332.144,332.144,334.96879999995235,1875.0,334.96889999997614,4.0,334.97429999995234,1.0,10.0,40.0,24.0,1.0,1.6,0.3,Time
,,S22,994851,1,女,19,anonymized,Serial_Dependence_U,2023.2.3,Win32,120.48192771085394,,,,,,334.9743999999762,17.0,1.0,334.9743999999762,17.0,,,,338.3192000000477,338.819,337.8108999999762,338.31910000002387,335.97760000002387,337.81079999995234,338.819,339.31889999997617,339.319,341.0687999999523,973.0,341.06889999997617,4.0,341.0737999999523,1.0,11.0,41.0,25.0,1.0,0.8,0.7,Time
,,S22,994851,1,女,19,anonymized,Serial_Dependence_U,2023.2.3,Win32,120.48192771085394,,,,,,341.074,61.0,1.0,341.074,61.0,,,,344.4525,344.95229999995234,343.9442999999523,344.4523999999762,342.0777000000477,343.9442999999523,344.9523999999762,345.4523999999762,345.4525,346.8022000000477,786.0,346.8022999999523,3.0,346.80670000004767,1.0,12.0,42.0,0.0,1.0,0.8,0.3,Time
,,S22,994851,1,女,19,anonymized,Serial_Dependence_U,2023.2.3,Win32,120.48192771085394,,,,,,346.8067999999523,30.0,1.0,346.807,30.0,,,,350.33610000002386,350.8353999999762,349.8356000000239,350.33589999997616,347.80239999997616,349.8356000000239,350.8353999999762,351.3357000000477,351.3357000000477,353.5103999999762,1330.0,353.5103999999762,5.0,353.5148999999762,1.0,13.0,43.0,6.0,1.0,1.0,0.7,Time
,,S22,994851,1,女,19,anonymized,Serial_Dependence_U,2023.2.3,Win32,120.48192771085394,,,,,,353.51510000002384,101.0,1.0,353.5152000000477,101.0,,,,357.0607000000477,357.5605,356.55260000002386,357.06060000002384,354.5192000000477,356.55260000002386,357.5605,358.0603999999762,358.0603999999762,359.76029999995234,1122.0,359.7603999999762,4.0,359.7653999999762,1.0,14.0,44.0,16.0,1.0,1.0,0.7,Time
,,S22,994851,1,女,19,anonymized,Serial_Dependence_U,2023.2.3,Win32,120.48192771085394,,,,,,359.7656000000239,58.0,1.0,359.7656000000239,58.0,,,,363.7025,364.2022000000477,363.1942000000477,363.7025,360.7607000000477,363.1942000000477,364.2022000000477,364.7023999999762,364.7023999999762,366.69370000004767,1402.0,366.6937999999523,3.0,366.6983999999762,1.0,15.0,45.0,8.0,1.0,1.4,0.7,Time
,,S22,994851,1,女,19,anonymized,Serial_Dependence_U,2023.2.3,Win32,120.48192771085394,,,,,,366.6986000000239,11.0,1.0,366.6986000000239,11.0,,,,370.4442000000477,370.94370000004767,369.9357000000477,370.4442000000477,367.70229999995234,369.9357000000477,370.9437999999523,371.444,371.4441000000239,373.8021000000239,1730.0,373.8022000000477,5.0,373.8067999999523,1.0,16.0,46.0,7.0,1.0,1.2,0.7,Time
,,S22,994851,1,女,19,anonymized,Serial_Dependence_U,2023.2.3,Win32,120.48192771085394,,,,,,373.80689999997617,151.0,1.0,373.807,151.0,,,,377.1441000000239,377.6437999999523,376.6357999999523,377.1441000000239,374.8027999999524,376.6356000000238,377.64389999997616,378.14389999997616,378.14389999997616,380.14389999997616,1268.0,380.14389999997616,5.0,380.14839999997616,1.0,17.0,47.0,15.0,1.0,0.8,0.7,Time
,,S22,994851,1,女,19,anonymized,Serial_Dependence_U,2023.2.3,Win32,120.48192771085394,,,,,,380.1486000000239,38.0,1.0,380.1486000000239,38.0,,,,384.0942000000477,384.5937000000477,383.5857999999523,384.09410000002384,381.1523999999762,383.5857999999523,384.5937000000477,385.09389999997614,385.09389999997614,387.55239999997616,1706.0,387.55239999997616,4.0,387.5572999999523,1.0,18.0,48.0,18.0,1.0,1.4,0.7,Time
,,S22,994851,1,女,19,anonymized,Serial_Dependence_U,2023.2.3,Win32,120.48192771085394,,,,,,387.5575,38.0,1.0,387.5576000000239,38.0,,,,391.1356000000238,391.6355,390.6276000000239,391.1356000000238,388.561,390.6276000000239,391.6355,392.1356000000238,392.1357000000477,394.02729999995233,1095.0,394.02729999995233,4.0,394.03229999995233,1.0,19.0,49.0,21.0,1.0,1.0,0.3,Time
,,S22,994851,1,女,19,anonymized,Serial_Dependence_U,2023.2.3,Win32,120.48192771085394,,,,,,394.0325,157.0,1.0,394.0325,157.0,,,,397.6107999999524,398.1102999999523,397.1025,397.6107000000477,395.0362000000477,397.10239999997617,398.1102999999523,398.61039999997615,398.61039999997615,400.4521000000239,1214.0,400.4521000000239,4.0,400.45689999997614,1.0,20.0,50.0,11.0,1.0,1.0,0.3,Time
,,S22,994851,1,女,19,anonymized,Serial_Dependence_U,2023.2.3,Win32,120.48192771085394,,,,,,400.45710000002384,181.0,1.0,400.4572000000477,181.0,,,,404.0021000000239,404.502,403.49420000004767,404.0021000000239,401.46089999997616,403.49420000004767,404.502,405.0021000000239,405.0021000000239,407.1687000000477,1098.0,407.1687000000477,4.0,407.1732999999524,1.0,21.0,51.0,26.0,1.0,1.0,0.7,Time
,,S22,994851,1,女,19,anonymized,Serial_Dependence_U,2023.2.3,Win32,120.48192771085394,,,,,,407.17360000002384,60.0,1.0,407.17360000002384,60.0,,,,411.3192000000477,411.819,410.81060000002384,411.3191000000239,408.1772999999523,410.8105,411.819,412.31870000004767,412.31870000004767,415.6355,2041.0,415.6355,4.0,415.64089999997617,1.0,22.0,52.0,19.0,1.0,1.6,0.7,Time
,,S22,994851,1,女,19,anonymized,Serial_Dependence_U,2023.2.3,Win32,120.48192771085394,,,,,,415.6411000000239,20.0,1.0,415.6412000000477,20.0,,,,419.6191000000239,420.1187000000477,419.1107999999524,419.619,416.644,419.1106000000239,420.1187000000477,420.6192999999523,420.6192999999523,424.3357000000477,1734.0,424.3357000000477,4.0,424.3405,1.0,23.0,53.0,3.0,1.0,1.4,0.3,Time
,,S22,994851,1,女,19,anonymized,Serial_Dependence_U,2023.2.3,Win32,120.48192771085394,,,,,,424.3406000000239,278.0,1.0,424.3407000000477,278.0,,,,427.91910000002383,428.4187000000477,427.4107999999523,427.919,425.344,427.4107999999523,428.4187000000477,428.9187000000477,428.9187000000477,431.7355,1620.0,431.7356000000239,5.0,431.7412000000477,1.0,24.0,54.0,1.0,1.0,1.0,0.3,Time
,,S22,994851,1,女,19,anonymized,Serial_Dependence_U,2023.2.3,Win32,120.48192771085394,,,,,,431.7413999999762,173.0,1.0,431.7413999999762,173.0,,,,435.5107999999523,436.0103999999762,435.0026000000239,435.5107000000477,432.7357999999524,435.0025,436.0105,436.5103999999762,436.5103999999762,442.3437000000477,1760.0,442.3437000000477,5.0,442.3487999999524,1.0,25.0,55.0,2.0,1.0,1.2,0.3,Time
,,S22,994851,1,女,19,anonymized,Serial_Dependence_U,2023.2.3,Win32,120.48192771085394,,,,,,442.349,4.0,1.0,442.34910000002384,4.0,,,,446.0855,446.5853999999762,445.57779999995233,446.0855,443.3442000000477,445.57779999995233,446.5853999999762,447.0853999999762,447.0853999999762,449.98539999997615,2045.0,449.9855,5.0,449.9902000000477,1.0,26.0,56.0,17.0,1.0,1.2,0.7,Time
,,S22,994851,1,女,19,anonymized,Serial_Dependence_U,2023.2.3,Win32,120.48192771085394,,,,,,449.9902999999524,83.0,1.0,449.99039999997615,83.0,,,,454.1606000000239,454.66039999997616,453.6527000000477,454.1605,450.9856000000239,453.6525,454.66039999997616,455.1602000000477,455.1602999999523,457.78539999997616,2089.0,457.78539999997616,5.0,457.7902999999523,1.0,27.0,57.0,14.0,1.0,1.6,0.3,Time
,,S22,994851,1,女,19,anonymized,Serial_Dependence_U,2023.2.3,Win32,120.48192771085394,,,,,,457.7905,134.0,1.0,457.7905,134.0,,,,461.561,462.0603999999762,461.05239999997616,461.56079999995234,458.7857000000477,461.0522999999523,462.0605,462.5607000000477,462.5607000000477,464.89389999997616,1484.0,464.894,4.0,464.8992000000477,1.0,28.0,58.0,12.0,1.0,1.2,0.3,Time
,,S22,994851,1,女,19,anonymized,Serial_Dependence_U,2023.2.3,Win32,120.48192771085394,,,,,,464.8993999999762,245.0,1.0,464.8993999999762,245.0,,,,468.2441000000239,468.7437000000477,467.7356000000239,468.2441000000239,465.9025,467.7356000000239,468.7437000000477,469.244,469.244,470.5771000000239,1028.0,470.5772000000477,4.0,470.5817999999524,1.0,29.0,59.0,5.0,1.0,0.8,0.7,Time
,,S22,994851,1,女,19,anonymized,Serial_Dependence_U,2023.2.3,Win32,120.48192771085394,,,,,,470.582,267.0,2.0,1333.1392000000474,267.0,s,862.5419999999999,,1336.5182000000475,1337.0177000000474,1336.009799999952,1336.5181000000237,1334.142799999952,1336.0097000000474,1337.0177000000474,1337.5177000000474,1337.5177000000474,1341.950899999976,1027.0,1341.9509999999998,4.0,1341.9556000000237,2.0,0.0,60.0,20.0,1.0,0.8,0.3,Time
,,S22,994851,1,女,19,anonymized,Serial_Dependence_U,2023.2.3,Win32,120.48192771085394,,,,,,1341.955899999976,139.0,2.0,1341.9566000000236,139.0,,,,1345.301299999952,1345.801399999976,1344.7932000000474,1345.3012000000474,1342.959399999976,1344.7931000000235,1345.801399999976,1346.3012000000474,1346.3012000000474,1347.659299999952,1043.0,1347.659299999952,5.0,1347.663899999976,2.0,1.0,61.0,5.0,1.0,0.8,0.7,Time
,,S22,994851,1,女,19,anonymized,Serial_Dependence_U,2023.2.3,Win32,120.48192771085394,,,,,,1347.6639999999998,185.0,2.0,1347.6641000000236,185.0,,,,1351.8347000000474,1352.334399999976,1351.326399999976,1351.8346000000236,1348.6594999999998,1351.3262999999522,1352.334399999976,1352.834299999952,1352.834299999952,1357.0262000000475,1588.0,1357.0262000000475,3.0,1357.031399999976,2.0,2.0,62.0,24.0,1.0,1.6,0.3,Time
,,S22,994851,1,女,19,anonymized,Serial_Dependence_U,2023.2.3,Win32,120.48192771085394,,,,,,1357.0316000000237,90.0,2.0,1357.0316000000237,90.0,,,,1360.376399999976,1360.8759999999995,1359.8679999999997,1360.376399999976,1358.0347999999522,1359.867899999976,1360.8759999999995,1361.3759999999995,1361.3759999999995,1363.934299999952,1098.0,1363.934299999952,5.0,1363.9392000000475,2.0,3.0,63.0,15.0,1.0,0.8,0.7,Time
,,S22,994851,1,女,19,anonymized,Serial_Dependence_U,2023.2.3,Win32,120.48192771085394,,,,,,1363.9394999999995,308.0,2.0,1363.9394999999995,308.0,,,,1367.2846000000236,1367.7841000000235,1366.776299999952,1367.2844999999998,1364.9429999999998,1366.776299999952,1367.7841000000235,1368.284299999952,1368.284299999952,1370.675899999976,1301.0,1370.675899999976,5.0,1370.6807000000474,2.0,4.0,64.0,25.0,1.0,0.8,0.7,Time
,,S22,994851,1,女,19,anonymized,Serial_Dependence_U,2023.2.3,Win32,120.48192771085394,,,,,,1370.680899999976,337.0,2.0,1370.680899999976,337.0,,,,1374.8597000000475,1375.359399999976,1374.351299999952,1374.8594999999998,1371.6849999999995,1374.351299999952,1375.359399999976,1375.859299999952,1375.859299999952,1381.9262000000474,1880.0,1381.9262000000474,4.0,1381.931299999952,2.0,5.0,65.0,4.0,1.0,1.6,0.3,Time
,,S22,994851,1,女,19,anonymized,Serial_Dependence_U,2023.2.3,Win32,120.48192771085394,,,,,,1381.9313999999758,286.0,2.0,1381.9314999999997,286.0,,,,1385.8761000000236,1386.3759999999995,1385.3679999999997,1385.8761000000236,1382.934299999952,1385.367899999976,1386.3759999999995,1386.875899999976,1386.875899999976,1388.659299999952,1268.0,1388.659299999952,2.0,1388.6641000000236,2.0,6.0,66.0,18.0,1.0,1.4,0.7,Time
,,S22,994851,1,女,19,anonymized,Serial_Dependence_U,2023.2.3,Win32,120.48192771085394,,,,,,1388.6642999999522,273.0,2.0,1388.6642999999522,273.0,,,,1392.8431000000237,1393.342899999976,1392.3346000000236,1392.8431000000237,1389.6681000000235,1392.3346000000236,1393.342899999976,1393.842899999976,1393.842899999976,1396.2176000000236,1377.0,1396.2176000000236,2.0,1396.221899999976,2.0,7.0,67.0,14.0,1.0,1.6,0.3,Time
,,S22,994851,1,女,19,anonymized,Serial_Dependence_U,2023.2.3,Win32,120.48192771085394,,,,,,1396.2221000000236,340.0,2.0,1396.2221000000236,340.0,,,,1400.0011000000236,1400.5009999999995,1399.4929999999997,1400.0009999999995,1397.226299999952,1399.4929999999997,1400.5009999999995,1401.0009999999995,1401.0009999999995,1404.4677000000474,1334.0,1404.4677000000474,4.0,1404.4726000000237,2.0,8.0,68.0,12.0,1.0,1.2,0.3,Time
,,S22,994851,1,女,19,anonymized,Serial_Dependence_U,2023.2.3,Win32,120.48192771085394,,,,,,1404.472799999952,215.0,2.0,1404.472899999976,215.0,,,,1408.2181000000237,1408.7174999999995,1407.709399999976,1408.2179999999998,1405.4761000000235,1407.709399999976,1408.7174999999995,1409.217799999952,1409.217899999976,1411.2595,1125.0,1411.2595,2.0,1411.264399999976,2.0,9.0,69.0,7.0,1.0,1.2,0.7,Time
,,S22,994851,1,女,19,anonymized,Serial_Dependence_U,2023.2.3,Win32,120.48192771085394,,,,,,1411.2644999999998,21.0,2.0,1411.2646000000236,21.0,,,,1415.209399999976,1415.709399999976,1414.7012000000475,1415.209399999976,1412.2679999999998,1414.7012000000475,1415.709399999976,1416.209299999952,1416.209299999952,1419.800899999976,1510.0,1419.8009999999997,4.0,1419.8057000000474,2.0,10.0,70.0,8.0,1.0,1.4,0.7,Time
,,S22,994851,1,女,19,anonymized,Serial_Dependence_U,2023.2.3,Win32,120.48192771085394,,,,,,1419.8059999999998,254.0,2.0,1419.8059999999998,254.0,,,,1423.543,1424.042399999976,1423.0426000000236,1423.542899999976,1420.8096000000237,1423.0426000000236,1424.0424999999998,1424.5427999999522,1424.542899999976,1426.8677000000475,1330.0,1426.8677000000475,4.0,1426.8727000000474,2.0,11.0,71.0,27.0,1.0,1.2,0.7,Time
,,S22,994851,1,女,19,anonymized,Serial_Dependence_U,2023.2.3,Win32,120.48192771085394,,,,,,1426.872899999976,177.0,2.0,1426.872899999976,177.0,,,,1431.0177000000474,1431.5176000000235,1430.5095,1431.0177000000474,1427.8761000000236,1430.5095,1431.5177000000474,1432.0177000000474,1432.0177000000474,1434.7257999999522,1637.0,1434.725899999976,3.0,1434.7306000000235,2.0,12.0,72.0,9.0,1.0,1.6,0.7,Time
,,S22,994851,1,女,19,anonymized,Serial_Dependence_U,2023.2.3,Win32,120.48192771085394,,,,,,1434.7307000000474,223.0,2.0,1434.7307000000474,223.0,,,,1438.276299999952,1438.776299999952,1437.7679999999998,1438.276299999952,1435.7347000000475,1437.767899999976,1438.776299999952,1439.2759999999998,1439.2759999999998,1441.4509999999998,1092.0,1441.4509999999998,4.0,1441.4557000000475,2.0,13.0,73.0,16.0,1.0,1.0,0.7,Time
,,S22,994851,1,女,19,anonymized,Serial_Dependence_U,2023.2.3,Win32,120.48192771085394,,,,,,1441.455899999976,157.0,2.0,1441.4559999999997,157.0,,,,1444.8346000000236,1445.334299999952,1444.326399999976,1444.8346000000236,1442.4594999999997,1444.326399999976,1445.334399999976,1445.834399999976,1445.834399999976,1447.4674999999995,924.0,1447.4674999999995,4.0,1447.471899999976,2.0,14.0,74.0,10.0,1.0,0.8,0.3,Time
,,S22,994851,1,女,19,anonymized,Serial_Dependence_U,2023.2.3,Win32,120.48192771085394,,,,,,1447.4721000000236,301.0,2.0,1447.4722000000477,301.0,,,,1451.417899999976,1451.9176000000236,1450.91,1451.4177999999522,1448.476,1450.9097999999522,1451.9177000000475,1452.4176000000236,1452.4177000000475,1454.450899999976,1246.0,1454.450899999976,2.0,1454.455399999976,2.0,15.0,75.0,28.0,1.0,1.4,0.7,Time
,,S22,994851,1,女,19,anonymized,Serial_Dependence_U,2023.2.3,Win32,120.48192771085394,,,,,,1454.4554999999998,125.0,2.0,1454.4556000000237,125.0,,,,1458.6012000000474,1459.100899999976,1458.092799999952,1458.6011000000235,1455.459399999976,1458.092799999952,1459.100899999976,1459.6011000000235,1459.6011000000235,1461.8175,1427.0,1461.8175,2.0,1461.822399999976,2.0,16.0,76.0,29.0,1.0,1.6,0.7,Time
,,S22,994851,1,女,19,anonymized,Serial_Dependence_U,2023.2.3,Win32,120.48192771085394,,,,,,1461.8224999999998,208.0,2.0,1461.8224999999998,208.0,,,,1465.6012000000474,1466.1012000000474,1465.0929999999998,1465.6012000000474,1462.8262999999522,1465.092799999952,1466.1012000000474,1466.601,1466.601,1468.300899999976,1225.0,1468.300899999976,3.0,1468.305899999976,2.0,17.0,77.0,2.0,1.0,1.2,0.3,Time
,,S22,994851,1,女,19,anonymized,Serial_Dependence_U,2023.2.3,Win32,120.48192771085394,,,,,,1468.3059999999998,274.0,2.0,1468.3061000000237,274.0,,,,1471.842899999976,1472.3426000000236,1471.3346000000236,1471.842899999976,1469.301299999952,1471.3344999999997,1472.3427000000474,1472.8426000000236,1472.8426000000236,1474.7176000000236,1331.0,1474.7177000000474,5.0,1474.7225,2.0,18.0,78.0,6.0,1.0,1.0,0.7,Time
,,S22,994851,1,女,19,anonymized,Serial_Dependence_U,2023.2.3,Win32,120.48192771085394,,,,,,1474.7227000000476,310.0,2.0,1474.7227000000476,310.0,,,,1478.4594999999997,1478.959299999952,1477.9512000000475,1478.459399999976,1475.717899999976,1477.9512000000475,1478.959299999952,1479.4592000000475,1479.4592000000475,1481.5259999999998,1363.0,1481.5259999999998,4.0,1481.5311000000236,2.0,19.0,79.0,17.0,1.0,1.2,0.7,Time
,,S22,994851,1,女,19,anonymized,Serial_Dependence_U,2023.2.3,Win32,120.48192771085394,,,,,,1481.531299999952,113.0,2.0,1481.531399999976,113.0,,,,1485.5095,1486.0092999999522,1485.0012999999522,1485.5095,1482.5347000000477,1485.0012000000474,1486.0092999999522,1486.5091000000236,1486.5091000000236,1488.7257999999522,1669.0,1488.725899999976,4.0,1488.7307000000474,2.0,20.0,80.0,23.0,1.0,1.4,0.3,Time
,,S22,994851,1,女,19,anonymized,Serial_Dependence_U,2023.2.3,Win32,120.48192771085394,,,,,,1488.730899999976,104.0,2.0,1488.7309999999998,104.0,,,,1492.109299999952,1492.609299999952,1491.6012000000474,1492.1091000000235,1489.7347999999522,1491.6012000000474,1492.609299999952,1493.1092000000474,1493.109299999952,1495.0512000000474,1240.0,1495.0512000000474,5.0,1495.055899999976,2.0,21.0,81.0,0.0,1.0,0.8,0.3,Time
,,S22,994851,1,女,19,anonymized,Serial_Dependence_U,2023.2.3,Win32,120.48192771085394,,,,,,1495.0561000000237,21.0,2.0,1495.0561000000237,21.0,,,,1498.6342999999522,1499.134399999976,1498.1261000000236,1498.6342999999522,1496.059399999976,1498.1261000000236,1499.134399999976,1499.6342999999522,1499.6342999999522,1502.9176000000236,1456.0,1502.9177000000475,5.0,1502.9224999999997,2.0,22.0,82.0,11.0,1.0,1.0,0.3,Time
,,S22,994851,1,女,19,anonymized,Serial_Dependence_U,2023.2.3,Win32,120.48192771085394,,,,,,1502.9227000000474,226.0,2.0,1502.922799999952,226.0,,,,1506.5012000000474,1507.000899999976,1505.9927000000475,1506.5011000000236,1503.926399999976,1505.9927000000475,1507.000899999976,1507.5007000000476,1507.500799999952,1509.8762000000474,1347.0,1509.8762000000474,5.0,1509.880899999976,2.0,23.0,83.0,21.0,1.0,1.0,0.3,Time
,,S22,994851,1,女,19,anonymized,Serial_Dependence_U,2023.2.3,Win32,120.48192771085394,,,,,,1509.8811000000237,103.0,2.0,1509.8811000000237,103.0,,,,1513.459399999976,1513.959299999952,1512.9511000000236,1513.459399999976,1510.8842999999522,1512.9511000000236,1513.959299999952,1514.4592000000475,1514.459299999952,1521.700799999952,1179.0,1521.700799999952,4.0,1521.7056000000237,2.0,24.0,84.0,1.0,1.0,1.0,0.3,Time
,,S22,994851,1,女,19,anonymized,Serial_Dependence_U,2023.2.3,Win32,120.48192771085394,,,,,,1521.7057000000475,237.0,2.0,1521.7057999999522,237.0,,,,1525.2426000000237,1525.7426000000237,1524.7344999999998,1525.2424999999998,1522.7012000000475,1524.7344999999998,1525.7426000000237,1526.2427000000475,1526.2427000000475,1529.2174999999995,1667.0,1529.2176000000236,5.0,1529.222399999976,2.0,25.0,85.0,26.0,1.0,1.0,0.7,Time
,,S22,994851,1,女,19,anonymized,Serial_Dependence_U,2023.2.3,Win32,120.48192771085394,,,,,,1529.2225,263.0,2.0,1529.2227000000476,263.0,,,,1533.3679999999997,1533.8674999999998,1532.8596000000236,1533.367899999976,1530.2262000000474,1532.8596000000236,1533.8674999999998,1534.367399999976,1534.367399999976,1537.5174999999997,2148.0,1537.5176000000235,5.0,1537.522299999952,2.0,26.0,86.0,19.0,1.0,1.6,0.7,Time
,,S22,994851,1,女,19,anonymized,Serial_Dependence_U,2023.2.3,Win32,120.48192771085394,,,,,,1537.5224999999998,67.0,2.0,1537.5224999999998,67.0,,,,1541.492899999976,1541.9924999999998,1540.984399999976,1541.492799999952,1538.517899999976,1540.984299999952,1541.9924999999998,1542.4926000000237,1542.4927000000475,1544.6674999999998,1559.0,1544.6674999999998,4.0,1544.6726000000235,2.0,27.0,87.0,13.0,1.0,1.4,0.3,Time
,,S22,994851,1,女,19,anonymized,Serial_Dependence_U,2023.2.3,Win32,120.48192771085394,,,,,,1544.672799999952,49.0,2.0,1544.672799999952,49.0,,,,1548.451399999976,1548.9507000000474,1547.9429999999998,1548.4512999999522,1545.6761000000236,1547.942899999976,1548.9507000000474,1549.450799999952,1549.450799999952,1551.6677000000475,1579.0,1551.6677000000475,5.0,1551.6726000000235,2.0,28.0,88.0,22.0,1.0,1.2,0.3,Time
,,S22,994851,1,女,19,anonymized,Serial_Dependence_U,2023.2.3,Win32,120.48192771085394,,,,,,1551.6727000000474,98.0,2.0,1551.672799999952,98.0,,,,1555.6509999999998,1556.150899999976,1555.1429999999998,1555.650899999976,1552.6762000000474,1555.142799999952,1556.150899999976,1556.650799999952,1556.650899999976,1559.4756000000236,1908.0,1559.4757000000477,5.0,1559.480799999952,2.0,29.0,89.0,3.0,1.0,1.4,0.3,Time
,,S22,994851,1,女,19,anonymized,Serial_Dependence_U,2023.2.3,Win32,120.48192771085394,,,,,,1559.4811000000236,321.0,3.0,2036.641600000024,321.0,s,477.1462999999524,,2040.0197999999525,2040.5195,2039.511299999952,2040.019700000048,2037.644899999976,2039.511299999952,2040.5197999999525,2041.019600000024,2041.019600000024,2046.186,996.0,2046.1862000000476,4.0,2046.190600000024,3.0,0.0,90.0,10.0,1.0,0.8,0.3,Time
,,S22,994851,1,女,19,anonymized,Serial_Dependence_U,2023.2.3,Win32,120.48192771085394,,,,,,2046.190799999952,351.0,3.0,2046.191399999976,351.0,,,,2049.569899999976,2050.069399999976,2049.0615,2049.569799999952,2047.195,2049.0615,2050.069399999976,2050.569299999952,2050.569399999976,2052.261200000048,1117.0,2052.261200000048,5.0,2052.266600000024,3.0,1.0,91.0,20.0,1.0,0.8,0.3,Time
,,S22,994851,1,女,19,anonymized,Serial_Dependence_U,2023.2.3,Win32,120.48192771085394,,,,,,2052.266799999952,262.0,3.0,2052.266799999952,262.0,,,,2056.436399999976,2056.936,2055.928200000048,2056.436299999952,2053.261700000048,2055.928200000048,2056.936,2057.4361000000235,2057.4361000000235,2059.486,1391.0,2059.486100000024,2.0,2059.490899999976,3.0,2.0,92.0,24.0,1.0,1.6,0.3,Time
,,S22,994851,1,女,19,anonymized,Serial_Dependence_U,2023.2.3,Win32,120.48192771085394,,,,,,2059.491,304.0,3.0,2059.491100000024,304.0,,,,2063.669899999976,2064.1695,2063.161600000024,2063.669899999976,2060.494799999952,2063.1615,2064.1695,2064.6695,2064.6695,2067.0862000000475,1544.0,2067.086299999952,3.0,2067.091200000048,3.0,3.0,93.0,14.0,1.0,1.6,0.3,Time
,,S22,994851,1,女,19,anonymized,Serial_Dependence_U,2023.2.3,Win32,120.48192771085394,,,,,,2067.091399999976,148.0,3.0,2067.091399999976,148.0,,,,2070.836100000024,2071.3362000000475,2070.328100000024,2070.836100000024,2068.094799999952,2070.328100000024,2071.3362000000475,2071.8362000000475,2071.8362000000475,2074.419700000048,1600.0,2074.419700000048,5.0,2074.424899999976,3.0,4.0,94.0,17.0,1.0,1.2,0.7,Time
,,S22,994851,1,女,19,anonymized,Serial_Dependence_U,2023.2.3,Win32,120.48192771085394,,,,,,2074.425,14.0,3.0,2074.425100000024,14.0,,,,2077.97,2078.469399999976,2077.461299999952,2077.969899999976,2075.428100000024,2077.4612000000475,2078.469399999976,2078.969799999952,2078.969799999952,2081.002700000048,1310.0,2081.002799999952,5.0,2081.0077000000474,3.0,5.0,95.0,6.0,1.0,1.0,0.7,Time
,,S22,994851,1,女,19,anonymized,Serial_Dependence_U,2023.2.3,Win32,120.48192771085394,,,,,,2081.007799999952,249.0,3.0,2081.007899999976,249.0,,,,2084.353299999952,2084.852799999952,2083.844799999952,2084.353200000048,2082.0115,2083.844799999952,2084.852799999952,2085.352700000048,2085.352700000048,2087.2197000000474,1120.0,2087.2197000000474,5.0,2087.224799999952,3.0,6.0,96.0,25.0,1.0,0.8,0.7,Time
,,S22,994851,1,女,19,anonymized,Serial_Dependence_U,2023.2.3,Win32,120.48192771085394,,,,,,2087.224899999976,345.0,3.0,2087.225,345.0,,,,2090.77,2091.269399999976,2090.2615,2090.769899999976,2088.228299999952,2090.2615,2091.269399999976,2091.7695,2091.7695,2093.9445,1579.0,2093.9446000000235,5.0,2093.949399999976,3.0,7.0,97.0,26.0,1.0,1.0,0.7,Time
,,S22,994851,1,女,19,anonymized,Serial_Dependence_U,2023.2.3,Win32,120.48192771085394,,,,,,2093.949600000024,274.0,3.0,2093.949600000024,274.0,,,,2098.0946000000235,2098.5945,2097.586399999976,2098.0946000000235,2094.9527999999523,2097.586299999952,2098.5945,2099.0945,2099.0945,2101.444299999952,1662.0,2101.444399999976,3.0,2101.449200000048,3.0,8.0,98.0,29.0,1.0,1.6,0.7,Time
,,S22,994851,1,女,19,anonymized,Serial_Dependence_U,2023.2.3,Win32,120.48192771085394,,,,,,2101.449399999976,41.0,3.0,2101.449399999976,41.0,,,,2105.2196000000235,2105.719299999952,2104.711600000024,2105.2196000000235,2102.444799999952,2104.7115,2105.719399999976,2106.219399999976,2106.219399999976,2108.486100000024,1611.0,2108.486100000024,5.0,2108.490700000048,3.0,9.0,99.0,22.0,1.0,1.2,0.3,Time
,,S22,994851,1,女,19,anonymized,Serial_Dependence_U,2023.2.3,Win32,120.48192771085394,,,,,,2108.4907999999523,127.0,3.0,2108.490899999976,127.0,,,,2111.828100000024,2112.327899999976,2111.319799999952,2111.828,2109.4865,2111.319799999952,2112.327899999976,2112.828,2112.828,2114.677799999952,1105.0,2114.677899999976,5.0,2114.682600000024,3.0,10.0,100.0,15.0,1.0,0.8,0.7,Time
,,S22,994851,1,女,19,anonymized,Serial_Dependence_U,2023.2.3,Win32,120.48192771085394,,,,,,2114.6827999999523,310.0,3.0,2114.6827999999523,310.0,,,,2118.8612999999523,2119.360899999976,2118.353,2118.8612999999523,2115.686299999952,2118.352899999976,2119.360899999976,2119.8612999999523,2119.8612999999523,2122.2195,1554.0,2122.2196000000235,3.0,2122.2247000000475,3.0,11.0,101.0,4.0,1.0,1.6,0.3,Time
,,S22,994851,1,女,19,anonymized,Serial_Dependence_U,2023.2.3,Win32,120.48192771085394,,,,,,2122.224899999976,74.0,3.0,2122.224899999976,74.0,,,,2125.794799999952,2126.294399999976,2125.286399999976,2125.794799999952,2123.2197000000474,2125.286399999976,2126.294399999976,2126.7945,2126.7945,2129.502700000048,1186.0,2129.502799999952,4.0,2129.507899999976,3.0,12.0,102.0,1.0,1.0,1.0,0.3,Time
,,S22,994851,1,女,19,anonymized,Serial_Dependence_U,2023.2.3,Win32,120.48192771085394,,,,,,2129.508399999976,21.0,3.0,2129.508399999976,21.0,,,,2133.086600000024,2133.586100000024,2132.578100000024,2133.0865,2130.511399999976,2132.578100000024,2133.5862000000475,2134.086399999976,2134.086399999976,2147.694299999952,1118.0,2147.694399999976,4.0,2147.6991000000235,3.0,13.0,103.0,21.0,1.0,1.0,0.3,Time
,,S22,994851,1,女,19,anonymized,Serial_Dependence_U,2023.2.3,Win32,120.48192771085394,,,,,,2147.699200000048,4.0,3.0,2147.699299999952,4.0,,,,2151.644899999976,2152.1442000000475,2151.136399999976,2151.6447999999523,2148.703,2151.136399999976,2152.1442000000475,2152.644299999952,2152.644399999976,2156.360899999976,2130.0,2156.361,5.0,2156.365700000048,3.0,14.0,104.0,28.0,1.0,1.4,0.7,Time
,,S22,994851,1,女,19,anonymized,Serial_Dependence_U,2023.2.3,Win32,120.48192771085394,,,,,,2156.3657999999523,276.0,3.0,2156.365899999976,276.0,,,,2160.3115,2160.811299999952,2159.803200000048,2160.311299999952,2157.3695,2159.803100000024,2160.811299999952,2161.3111000000235,2161.3111000000235,2165.302600000024,2091.0,2165.302600000024,5.0,2165.307299999952,3.0,15.0,105.0,18.0,1.0,1.4,0.7,Time
,,S22,994851,1,女,19,anonymized,Serial_Dependence_U,2023.2.3,Win32,120.48192771085394,,,,,,2165.3075,316.0,3.0,2165.307700000048,316.0,,,,2168.844299999952,2169.344399999976,2168.3365,2168.844299999952,2166.303100000024,2168.3365,2169.344399999976,2169.844299999952,2169.844299999952,2173.794700000048,1883.0,2173.794700000048,5.0,2173.799200000048,3.0,16.0,106.0,16.0,1.0,1.0,0.7,Time
,,S22,994851,1,女,19,anonymized,Serial_Dependence_U,2023.2.3,Win32,120.48192771085394,,,,,,2173.799399999976,44.0,3.0,2173.7995,44.0,,,,2177.169700000048,2177.6695,2176.6615,2177.169600000024,2174.794700000048,2176.661399999976,2177.6695,2178.1695,2178.1695,2180.886299999952,1519.0,2180.886299999952,5.0,2180.891600000024,3.0,17.0,107.0,0.0,1.0,0.8,0.3,Time
,,S22,994851,1,女,19,anonymized,Serial_Dependence_U,2023.2.3,Win32,120.48192771085394,,,,,,2180.8917000000474,108.0,3.0,2180.8917000000474,108.0,,,,2185.036399999976,2185.5361000000235,2184.527899999976,2185.036299999952,2181.894399999976,2184.527799999952,2185.5361000000235,2186.0361000000235,2186.0361000000235,2189.094399999976,2225.0,2189.0945,5.0,2189.099399999976,3.0,18.0,108.0,9.0,1.0,1.6,0.7,Time
,,S22,994851,1,女,19,anonymized,Serial_Dependence_U,2023.2.3,Win32,120.48192771085394,,,,,,2189.0995,339.0,3.0,2189.0995,339.0,,,,2192.8446000000235,2193.3445,2192.336299999952,2192.8446000000235,2190.102899999976,2192.3362000000475,2193.3445,2193.844399999976,2193.844399999976,2481.9525,1158.0,2481.9525,3.0,2481.957200000048,3.0,19.0,109.0,27.0,1.0,1.2,0.7,Time
,,S22,994851,1,女,19,anonymized,Serial_Dependence_U,2023.2.3,Win32,120.48192771085394,,,,,,2481.957399999976,301.0,3.0,2481.957399999976,301.0,,,,2485.727799999952,2486.227799999952,2485.227600000024,2485.727799999952,2482.961299999952,2485.227600000024,2486.227799999952,2486.727600000024,2486.727700000048,2489.519100000024,1511.0,2489.5192000000475,4.0,2489.524,3.0,20.0,110.0,12.0,1.0,1.2,0.3,Time
,,S22,994851,1,女,19,anonymized,Serial_Dependence_U,2023.2.3,Win32,120.48192771085394,,,,,,2489.524200000048,175.0,3.0,2489.524200000048,175.0,,,,2493.269600000024,2493.7695,2492.761299999952,2493.2695,2490.527899999976,2492.761200000048,2493.7695,2494.2692000000475,2494.269299999952,2500.069100000024,1333.0,2500.069100000024,4.0,2500.073799999952,3.0,21.0,111.0,7.0,1.0,1.2,0.7,Time
,,S22,994851,1,女,19,anonymized,Serial_Dependence_U,2023.2.3,Win32,120.48192771085394,,,,,,2500.074,136.0,3.0,2500.0741000000235,136.0,,,,2504.044399999976,2504.544200000048,2503.536200000048,2504.0442999999523,2501.0695,2503.5361000000235,2504.544200000048,2505.044100000024,2505.044100000024,2507.2357000000475,1515.0,2507.235799999952,4.0,2507.240600000024,3.0,22.0,112.0,23.0,1.0,1.4,0.3,Time
,,S22,994851,1,女,19,anonymized,Serial_Dependence_U,2023.2.3,Win32,120.48192771085394,,,,,,2507.2407999999523,104.0,3.0,2507.240899999976,104.0,,,,2510.819399999976,2511.319200000048,2510.3111000000235,2510.819399999976,2508.244600000024,2510.311,2511.319200000048,2511.819100000024,2511.819200000048,2514.3442000000477,1483.0,2514.3442000000477,5.0,2514.348899999976,3.0,23.0,113.0,11.0,1.0,1.0,0.3,Time
,,S22,994851,1,女,19,anonymized,Serial_Dependence_U,2023.2.3,Win32,120.48192771085394,,,,,,2514.3492000000474,40.0,3.0,2514.3492000000474,40.0,,,,2518.4862999999523,2518.985899999976,2517.978,2518.486200000048,2515.345100000024,2517.978,2518.985899999976,2519.485899999976,2519.486,2522.710799999952,2215.0,2522.710899999976,5.0,2522.715899999976,3.0,24.0,114.0,19.0,1.0,1.6,0.7,Time
,,S22,994851,1,女,19,anonymized,Serial_Dependence_U,2023.2.3,Win32,120.48192771085394,,,,,,2522.716100000024,181.0,3.0,2522.716200000048,181.0,,,,2526.6945,2527.194200000048,2526.186,2526.6945,2523.7195,2526.186,2527.194200000048,2527.694299999952,2527.694299999952,2529.777399999976,1453.0,2529.777399999976,3.0,2529.7825,3.0,25.0,115.0,13.0,1.0,1.4,0.3,Time
,,S22,994851,1,女,19,anonymized,Serial_Dependence_U,2023.2.3,Win32,120.48192771085394,,,,,,2529.782600000024,342.0,3.0,2529.7827000000475,342.0,,,,2533.7196000000235,2534.219,2533.2112000000475,2533.7195,2530.777899999976,2533.2112000000475,2534.219100000023,2534.719299999952,2534.719299999952,2536.8025,1619.0,2536.802600000024,4.0,2536.807600000024,3.0,26.0,116.0,8.0,1.0,1.4,0.7,Time
,,S22,994851,1,女,19,anonymized,Serial_Dependence_U,2023.2.3,Win32,120.48192771085394,,,,,,2536.807899999976,327.0,3.0,2536.807899999976,327.0,,,,2540.777799999952,2541.277299999952,2540.269399999976,2540.7777000000474,2537.802899999976,2540.269299999952,2541.277399999976,2541.7775,2541.7775,2543.694200000048,1579.0,2543.694299999952,4.0,2543.698799999952,3.0,27.0,117.0,3.0,1.0,1.4,0.3,Time
,,S22,994851,1,女,19,anonymized,Serial_Dependence_U,2023.2.3,Win32,120.48192771085394,,,,,,2543.699,189.0,3.0,2543.6991000000235,189.0,,,,2547.4695,2547.969299999952,2546.961100000024,2547.4695,2544.6945,2546.961,2547.969299999952,2548.4692000000477,2548.4692000000477,2550.6525,1391.0,2550.6525,4.0,2550.657399999976,3.0,28.0,118.0,2.0,1.0,1.2,0.3,Time
,,S22,994851,1,女,19,anonymized,Serial_Dependence_U,2023.2.3,Win32,120.48192771085394,,,,,,2550.657600000024,179.0,3.0,2550.6577000000475,179.0,,,,2554.002899999976,2554.502799999952,2553.494399999976,2554.002799999952,2551.6611000000235,2553.494299999952,2554.502799999952,2555.002700000048,2555.002700000048,2556.7107000000474,1100.0,2556.7107000000474,5.0,2556.7155,3.0,29.0,119.0,5.0,1.0,0.8,0.7,Time
,,S22,994851,1,女,19,anonymized,Serial_Dependence_U,2023.2.3,Win32,120.48192771085394,,,,,,2556.715799999952,207.0,4.0,2560.1915,207.0,s,3.4600000000000364,,2564.3695,2564.869299999952,2563.861200000048,2564.369399999976,2561.1945,2563.861100000024,2564.869299999952,2565.3692000000474,2565.369299999952,2567.669,1668.0,2567.669,3.0,2567.674,4.0,0.0,120.0,24.0,1.0,1.6,0.3,Time
,,S22,994851,1,女,19,anonymized,Serial_Dependence_U,2023.2.3,Win32,120.48192771085394,,,,,,2567.674100000024,68.0,4.0,2567.6746000000235,68.0,,,,2571.2532000000474,2571.7525,2570.744299999952,2571.253100000024,2568.677600000024,2570.7442000000474,2571.7525,2572.252799999952,2572.252799999952,2574.1025,1184.0,2574.1025,4.0,2574.107,4.0,1.0,121.0,1.0,1.0,1.0,0.3,Time
,,S22,994851,1,女,19,anonymized,Serial_Dependence_U,2023.2.3,Win32,120.48192771085394,,,,,,2574.107200000048,236.0,4.0,2574.107200000048,236.0,,,,2578.085799999952,2578.5856000000235,2577.578,2578.085799999952,2575.111,2577.577899999976,2578.5856000000235,2579.0856000000235,2579.0856000000235,2581.510899999976,1787.0,2581.511,4.0,2581.516200000048,4.0,2.0,122.0,3.0,1.0,1.4,0.3,Time
,,S22,994851,1,女,19,anonymized,Serial_Dependence_U,2023.2.3,Win32,120.48192771085394,,,,,,2581.516399999976,307.0,4.0,2581.516399999976,307.0,,,,2585.253,2585.7525,2584.752700000048,2585.252899999976,2582.519299999952,2584.752600000023,2585.7525,2586.252299999952,2586.252399999976,2588.4522000000475,1558.0,2588.4522000000475,4.0,2588.456799999952,4.0,3.0,123.0,7.0,1.0,1.2,0.7,Time
,,S22,994851,1,女,19,anonymized,Serial_Dependence_U,2023.2.3,Win32,120.48192771085394,,,,,,2588.456899999976,275.0,4.0,2588.457,275.0,,,,2592.0361000000235,2592.535799999952,2591.527799999952,2592.0361000000235,2589.460899999976,2591.527799999952,2592.535799999952,2593.035899999976,2593.035899999976,2595.019,1270.0,2595.019,4.0,2595.023799999952,4.0,4.0,124.0,11.0,1.0,1.0,0.3,Time
,,S22,994851,1,女,19,anonymized,Serial_Dependence_U,2023.2.3,Win32,120.48192771085394,,,,,,2595.023899999976,195.0,4.0,2595.024,195.0,,,,2599.2027999999523,2599.702600000024,2598.694200000048,2599.202600000024,2596.0276000000235,2598.694200000048,2599.702600000024,2600.202600000024,2600.202600000024,2602.560799999952,1620.0,2602.560799999952,3.0,2602.565899999976,4.0,5.0,125.0,4.0,1.0,1.6,0.3,Time
,,S22,994851,1,女,19,anonymized,Serial_Dependence_U,2023.2.3,Win32,120.48192771085394,,,,,,2602.566100000024,217.0,4.0,2602.566100000024,217.0,,,,2606.7112000000475,2607.2106000000235,2606.202600000024,2606.7112000000475,2603.569399999976,2606.202600000024,2607.2107000000474,2607.710799999952,2607.710799999952,2610.769100000024,1908.0,2610.7692000000475,4.0,2610.7742999999523,4.0,6.0,126.0,29.0,1.0,1.6,0.7,Time
,,S22,994851,1,女,19,anonymized,Serial_Dependence_U,2023.2.3,Win32,120.48192771085394,,,,,,2610.7745,186.0,4.0,2610.7745,186.0,,,,2614.7445,2615.2442000000474,2614.236,2614.7445,2611.769299999952,2614.235899999976,2615.2442000000474,2615.7441000000235,2615.7441000000235,2619.1605,1758.0,2619.160600000024,4.0,2619.1656000000235,4.0,7.0,127.0,23.0,1.0,1.4,0.3,Time
,,S22,994851,1,女,19,anonymized,Serial_Dependence_U,2023.2.3,Win32,120.48192771085394,,,,,,2619.165799999952,38.0,4.0,2619.165799999952,38.0,,,,2622.910899999976,2623.4105,2622.4025,2622.910799999952,2620.169700000048,2622.4025,2623.410600000024,2623.910799999952,2623.911,2626.660700000048,1892.0,2626.660700000048,5.0,2626.665700000048,4.0,8.0,128.0,27.0,1.0,1.2,0.7,Time
,,S22,994851,1,女,19,anonymized,Serial_Dependence_U,2023.2.3,Win32,120.48192771085394,,,,,,2626.665799999952,173.0,4.0,2626.665899999976,173.0,,,,2630.611100000024,2631.110899999976,2630.102600000024,2630.611100000024,2627.669399999976,2630.1025,2631.110899999976,2631.610799999952,2631.610799999952,2635.094,2059.0,2635.094100000023,5.0,2635.0997000000475,4.0,9.0,129.0,8.0,1.0,1.4,0.7,Time
,,S22,994851,1,女,19,anonymized,Serial_Dependence_U,2023.2.3,Win32,120.48192771085394,,,,,,2635.099899999976,118.0,4.0,2635.099899999976,118.0,,,,2639.0442999999523,2639.544200000048,2638.536,2639.0442999999523,2636.102700000048,2638.535899999976,2639.5442999999523,2640.044,2640.044,2643.085799999952,2090.0,2643.085799999952,5.0,2643.0907000000475,4.0,10.0,130.0,28.0,1.0,1.4,0.7,Time
,,S22,994851,1,女,19,anonymized,Serial_Dependence_U,2023.2.3,Win32,120.48192771085394,,,,,,2643.090899999976,22.0,4.0,2643.090899999976,22.0,,,,2647.069399999976,2647.569,2646.5611000000235,2647.069299999952,2644.094399999976,2646.5611000000235,2647.569,2648.069,2648.069,2651.744,1787.0,2651.7441000000235,4.0,2651.7492000000475,4.0,11.0,131.0,13.0,1.0,1.4,0.3,Time
,,S22,994851,1,女,19,anonymized,Serial_Dependence_U,2023.2.3,Win32,120.48192771085394,,,,,,2651.749399999976,4.0,4.0,2651.749399999976,4.0,,,,2655.5195,2656.019,2655.011,2655.5195,2652.744600000024,2655.011,2656.019,2656.519,2656.519,2658.344100000023,1198.0,2658.3442000000477,3.0,2658.349299999952,4.0,12.0,132.0,22.0,1.0,1.2,0.3,Time
,,S22,994851,1,女,19,anonymized,Serial_Dependence_U,2023.2.3,Win32,120.48192771085394,,,,,,2658.3495,205.0,4.0,2658.3495,205.0,,,,2661.694399999976,2662.194,2661.1861000000235,2661.694299999952,2659.353,2661.1861000000235,2662.194,2662.693899999976,2662.694,2664.985799999952,1372.0,2664.985799999952,5.0,2664.990600000024,4.0,13.0,133.0,15.0,1.0,0.8,0.7,Time
,,S22,994851,1,女,19,anonymized,Serial_Dependence_U,2023.2.3,Win32,120.48192771085394,,,,,,2664.990700000048,22.0,4.0,2664.9907999999523,22.0,,,,2668.361100000024,2668.860899999976,2667.852600000024,2668.361100000024,2665.985899999976,2667.852600000024,2668.860899999976,2669.360799999952,2669.360799999952,2671.652399999976,1373.0,2671.652399999976,5.0,2671.657299999952,4.0,14.0,134.0,10.0,1.0,0.8,0.3,Time
,,S22,994851,1,女,19,anonymized,Serial_Dependence_U,2023.2.3,Win32,120.48192771085394,,,,,,2671.6575,290.0,4.0,2671.6575,290.0,,,,2675.394600000024,2675.894100000024,2674.885700000048,2675.394399999976,2672.6527000000474,2674.885700000048,2675.894100000024,2676.3942000000475,2676.3942000000475,2679.510700000048,1726.0,2679.5107999999523,5.0,2679.5152999999523,4.0,15.0,135.0,17.0,1.0,1.2,0.7,Time
,,S22,994851,1,女,19,anonymized,Serial_Dependence_U,2023.2.3,Win32,120.48192771085394,,,,,,2679.5155,304.0,4.0,2679.5155,304.0,,,,2683.686,2684.185799999952,2683.177899999976,2683.686,2680.511,2683.177799999952,2684.185799999952,2684.685600000023,2684.685600000023,2687.160600000024,1643.0,2687.160700000048,3.0,2687.1655,4.0,16.0,136.0,14.0,1.0,1.6,0.3,Time
,,S22,994851,1,女,19,anonymized,Serial_Dependence_U,2023.2.3,Win32,120.48192771085394,,,,,,2687.165799999952,321.0,4.0,2687.165799999952,321.0,,,,2690.510899999976,2691.010600000024,2690.002600000023,2690.510899999976,2688.169399999976,2690.002600000023,2691.010700000048,2691.510700000048,2691.5107999999523,2692.885600000024,983.0,2692.885600000024,4.0,2692.890100000024,4.0,17.0,137.0,5.0,1.0,0.8,0.7,Time
,,S22,994851,1,女,19,anonymized,Serial_Dependence_U,2023.2.3,Win32,120.48192771085394,,,,,,2692.890200000048,289.0,4.0,2692.8902999999523,289.0,,,,2696.661,2697.1605,2696.1526000000235,2696.660899999976,2693.886100000024,2696.1526000000235,2697.160600000024,2697.660600000024,2697.660600000024,2699.235600000024,1267.0,2699.235600000024,4.0,2699.240100000024,4.0,18.0,138.0,12.0,1.0,1.2,0.3,Time
,,S22,994851,1,女,19,anonymized,Serial_Dependence_U,2023.2.3,Win32,120.48192771085394,,,,,,2699.2402000000475,347.0,4.0,2699.240399999976,347.0,,,,2703.386,2703.8855,2702.877600000023,2703.385899999976,2700.2445,2702.8775,2703.885600000024,2704.385700000048,2704.385700000048,2706.7275,1585.0,2706.727600000024,3.0,2706.732,4.0,19.0,139.0,9.0,1.0,1.6,0.7,Time
,,S22,994851,1,女,19,anonymized,Serial_Dependence_U,2023.2.3,Win32,120.48192771085394,,,,,,2706.732200000048,50.0,4.0,2706.732299999952,50.0,,,,2710.2777000000474,2710.777399999976,2709.769100000024,2710.2776000000235,2707.736100000024,2709.769100000024,2710.777399999976,2711.2772000000477,2711.277399999976,2713.152399999976,1307.0,2713.152399999976,5.0,2713.157399999976,4.0,20.0,140.0,26.0,1.0,1.0,0.7,Time
,,S22,994851,1,女,19,anonymized,Serial_Dependence_U,2023.2.3,Win32,120.48192771085394,,,,,,2713.157600000024,87.0,4.0,2713.157600000024,87.0,,,,2716.727799999952,2717.227399999976,2716.2192000000477,2716.727700000048,2714.1532000000475,2716.2192000000477,2717.2275,2717.727600000024,2717.727600000024,2719.552399999976,1335.0,2719.552399999976,5.0,2719.557399999976,4.0,21.0,141.0,21.0,1.0,1.0,0.3,Time
,,S22,994851,1,女,19,anonymized,Serial_Dependence_U,2023.2.3,Win32,120.48192771085394,,,,,,2719.557600000024,194.0,4.0,2719.557600000024,194.0,,,,2722.894299999952,2723.394100000024,2722.386200000048,2722.894299999952,2720.5527000000475,2722.386100000024,2723.3942000000475,2723.893899999976,2723.894,2725.785700000048,1273.0,2725.785700000048,5.0,2725.790799999952,4.0,22.0,142.0,25.0,1.0,0.8,0.7,Time
,,S22,994851,1,女,19,anonymized,Serial_Dependence_U,2023.2.3,Win32,120.48192771085394,,,,,,2725.791,40.0,4.0,2725.791,40.0,,,,2729.3275,2729.827399999976,2728.8195,2729.3275,2726.785899999976,2728.819399999976,2729.8275,2730.3272000000475,2730.327299999952,2732.5025,1531.0,2732.5025,5.0,2732.507799999952,4.0,23.0,143.0,6.0,1.0,1.0,0.7,Time
,,S22,994851,1,女,19,anonymized,Serial_Dependence_U,2023.2.3,Win32,120.48192771085394,,,,,,2732.507899999976,176.0,4.0,2732.508,176.0,,,,2735.886200000048,2736.385700000048,2735.377600000023,2735.886100000024,2733.5107999999523,2735.377600000023,2736.385700000048,2736.886,2736.886,2738.502299999952,1283.0,2738.5025,5.0,2738.507799999952,4.0,24.0,144.0,0.0,1.0,0.8,0.3,Time
,,S22,994851,1,女,19,anonymized,Serial_Dependence_U,2023.2.3,Win32,120.48192771085394,,,,,,2738.508,128.0,4.0,2738.508,128.0,,,,2742.644299999952,2743.144100000024,2742.135899999976,2742.6442000000475,2739.502700000048,2742.135899999976,2743.1442000000475,2743.643899999976,2743.643899999976,2746.177299999952,1755.0,2746.177299999952,4.0,2746.1822000000475,4.0,25.0,145.0,19.0,1.0,1.6,0.7,Time
,,S22,994851,1,女,19,anonymized,Serial_Dependence_U,2023.2.3,Win32,120.48192771085394,,,,,,2746.182399999976,66.0,4.0,2746.182399999976,66.0,,,,2749.9607000000474,2750.4606000000235,2749.452600000024,2749.9606000000235,2747.186,2749.4525,2750.4607000000474,2750.9606000000235,2750.9606000000235,2753.027399999976,1398.0,2753.027399999976,4.0,2753.0321000000235,4.0,26.0,146.0,2.0,1.0,1.2,0.3,Time
,,S22,994851,1,女,19,anonymized,Serial_Dependence_U,2023.2.3,Win32,120.48192771085394,,,,,,2753.032299999952,2.0,4.0,2753.032299999952,2.0,,,,2756.4027000000474,2756.902299999952,2755.894399999976,2756.4026000000235,2754.027799999952,2755.894299999952,2756.902399999976,2757.402299999952,2757.402299999952,2759.118899999976,1245.0,2759.119,5.0,2759.1237000000474,4.0,27.0,147.0,20.0,1.0,0.8,0.3,Time
,,S22,994851,1,女,19,anonymized,Serial_Dependence_U,2023.2.3,Win32,120.48192771085394,,,,,,2759.123799999952,137.0,4.0,2759.123899999976,137.0,,,,2763.069399999976,2763.569299999952,2762.561,2763.069399999976,2760.1275,2762.560899999976,2763.569299999952,2764.069100000024,2764.069200000048,2766.960399999976,1935.0,2766.9605,5.0,2766.9657000000475,4.0,28.0,148.0,18.0,1.0,1.4,0.7,Time
,,S22,994851,1,女,19,anonymized,Serial_Dependence_U,2023.2.3,Win32,120.48192771085394,,,,,,2766.966,263.0,4.0,2766.966,263.0,,,,2770.511,2771.0105,2770.002799999952,2770.510899999976,2767.969100000023,2770.002700000048,2771.0105,2771.5105,2771.5105,2774.594,1367.0,2774.594100000023,5.0,2774.598700000048,4.0,29.0,149.0,16.0,1.0,1.0,0.7,Time
,,S22,994851,1,女,19,anonymized,Serial_Dependence_U,2023.2.3,Win32,120.48192771085394,,,,,,2774.598799999952,190.0,5.0,3062.873299999952,190.0,s,288.25970000004736,,3066.410899999976,3066.910399999976,3065.910399999976,3066.410899999976,3063.877399999976,3065.910399999976,3066.9105,3067.4102999999523,3067.410399999976,3069.6687000000475,1250.0,3069.668799999952,4.0,3069.673600000024,5.0,0.0,150.0,16.0,1.0,1.0,0.7,Time
,,S22,994851,1,女,19,anonymized,Serial_Dependence_U,2023.2.3,Win32,120.48192771085394,,,,,,3069.6737999999523,256.0,5.0,3069.674399999976,256.0,,,,3073.252299999952,3073.752,3072.743899999976,3073.252200000048,3070.6772000000474,3072.743799999952,3073.752,3074.252,3074.252100000024,3076.627100000024,1231.0,3076.627100000024,4.0,3076.631600000024,5.0,1.0,151.0,11.0,1.0,1.0,0.3,Time
,,S22,994851,1,女,19,anonymized,Serial_Dependence_U,2023.2.3,Win32,120.48192771085394,,,,,,3076.631700000048,56.0,5.0,3076.631799999952,56.0,,,,3080.6022999999523,3081.102100000024,3080.093799999952,3080.602200000048,3077.6275,3080.093799999952,3081.102100000024,3081.602100000024,3081.602100000024,3083.777,1512.0,3083.777,4.0,3083.781799999952,5.0,2.0,152.0,13.0,1.0,1.4,0.3,Time
,,S22,994851,1,女,19,anonymized,Serial_Dependence_U,2023.2.3,Win32,120.48192771085394,,,,,,3083.782,128.0,5.0,3083.7821000000235,128.0,,,,3087.9607000000474,3088.460399999976,3087.452299999952,3087.9606000000235,3084.785799999952,3087.4522000000475,3088.4605,3088.9605,3088.9605,3091.7022000000475,1617.0,3091.702299999952,3.0,3091.7072999999523,5.0,3.0,153.0,4.0,1.0,1.6,0.3,Time
,,S22,994851,1,女,19,anonymized,Serial_Dependence_U,2023.2.3,Win32,120.48192771085394,,,,,,3091.7075,267.0,5.0,3091.7075,267.0,,,,3095.644100000024,3096.143799999952,3095.1355,3095.644100000024,3092.702399999976,3095.1355,3096.143799999952,3096.6437000000474,3096.643799999952,3099.1602999999523,1848.0,3099.1602999999523,5.0,3099.165200000048,5.0,4.0,154.0,8.0,1.0,1.4,0.7,Time
,,S22,994851,1,女,19,anonymized,Serial_Dependence_U,2023.2.3,Win32,120.48192771085394,,,,,,3099.165299999952,33.0,5.0,3099.165399999976,33.0,,,,3102.943700000048,3103.4435,3102.4357000000477,3102.943700000048,3100.169399999976,3102.435600000023,3103.4435,3103.9437999999523,3103.943899999976,3106.077,1612.0,3106.077,5.0,3106.081899999976,5.0,5.0,155.0,22.0,1.0,1.2,0.3,Time
,,S22,994851,1,女,19,anonymized,Serial_Dependence_U,2023.2.3,Win32,120.48192771085394,,,,,,3106.082,272.0,5.0,3106.082100000024,272.0,,,,3109.6187000000477,3110.118899999976,3109.110799999952,3109.618600000023,3107.0775,3109.110799999952,3110.118899999976,3110.618600000023,3110.618600000023,3112.777,1483.0,3112.777,5.0,3112.7815,5.0,6.0,156.0,26.0,1.0,1.0,0.7,Time
,,S22,994851,1,女,19,anonymized,Serial_Dependence_U,2023.2.3,Win32,120.48192771085394,,,,,,3112.7817000000477,136.0,5.0,3112.7817000000477,136.0,,,,3116.152299999952,3116.6522000000477,3115.644299999952,3116.1522000000477,3113.777299999952,3115.6442000000475,3116.6522000000477,3117.152,3117.152100000023,3119.1436000000235,1431.0,3119.1436000000235,5.0,3119.1485,5.0,7.0,157.0,10.0,1.0,0.8,0.3,Time
,,S22,994851,1,女,19,anonymized,Serial_Dependence_U,2023.2.3,Win32,120.48192771085394,,,,,,3119.148600000024,318.0,5.0,3119.1487000000475,318.0,,,,3123.093700000048,3123.593899999976,3122.5857000000474,3123.093700000048,3120.1522000000477,3122.5856000000235,3123.593899999976,3124.093700000048,3124.093799999952,3126.593600000024,1695.0,3126.593700000048,4.0,3126.598700000048,5.0,8.0,158.0,18.0,1.0,1.4,0.7,Time
,,S22,994851,1,女,19,anonymized,Serial_Dependence_U,2023.2.3,Win32,120.48192771085394,,,,,,3126.598899999976,151.0,5.0,3126.599,151.0,,,,3130.377299999952,3130.877299999952,3129.8692000000474,3130.377299999952,3127.6025,3129.8692000000474,3130.877299999952,3131.377,3131.377,3134.293799999952,1584.0,3134.293799999952,5.0,3134.2987999999523,5.0,9.0,159.0,12.0,1.0,1.2,0.3,Time
,,S22,994851,1,女,19,anonymized,Serial_Dependence_U,2023.2.3,Win32,120.48192771085394,,,,,,3134.299,237.0,5.0,3134.299100000024,237.0,,,,3137.643899999976,3138.1436000000235,3137.135600000024,3137.643799999952,3135.302399999976,3137.1355,3138.1436000000235,3138.6437000000474,3138.6437000000474,3140.251899999976,1027.0,3140.252,4.0,3140.256399999976,5.0,10.0,160.0,15.0,1.0,0.8,0.7,Time
,,S22,994851,1,女,19,anonymized,Serial_Dependence_U,2023.2.3,Win32,120.48192771085394,,,,,,3140.2565,146.0,5.0,3140.256600000024,146.0,,,,3144.193899999976,3144.6937999999523,3143.6857000000477,3144.193899999976,3141.252299999952,3143.6855,3144.693899999976,3145.1937999999523,3145.193899999976,3147.626899999976,1634.0,3147.627,4.0,3147.631799999952,5.0,11.0,161.0,28.0,1.0,1.4,0.7,Time
,,S22,994851,1,女,19,anonymized,Serial_Dependence_U,2023.2.3,Win32,120.48192771085394,,,,,,3147.632,305.0,5.0,3147.632,305.0,,,,3151.369,3151.868799999952,3150.8607000000475,3151.368899999976,3148.627200000048,3150.860600000024,3151.868799999952,3152.368600000023,3152.368600000023,3154.360299999952,1463.0,3154.360399999976,4.0,3154.365,5.0,12.0,162.0,27.0,1.0,1.2,0.7,Time
,,S22,994851,1,女,19,anonymized,Serial_Dependence_U,2023.2.3,Win32,120.48192771085394,,,,,,3154.3652000000475,359.0,5.0,3154.3652000000475,359.0,,,,3158.510700000048,3159.0105,3158.002299999952,3158.510600000024,3155.369,3158.002299999952,3159.0105,3159.510399999976,3159.5105,3161.918600000024,1703.0,3161.9187000000475,4.0,3161.923600000024,5.0,13.0,163.0,29.0,1.0,1.6,0.7,Time
,,S22,994851,1,女,19,anonymized,Serial_Dependence_U,2023.2.3,Win32,120.48192771085394,,,,,,3161.9237999999523,183.0,5.0,3161.9237999999523,183.0,,,,3165.4942000000474,3165.993600000023,3164.9857000000475,3165.4941000000235,3162.919200000048,3164.9857000000475,3165.993600000023,3166.4935,3166.4935,3168.6437000000474,1423.0,3168.6437000000474,5.0,3168.6485,5.0,14.0,164.0,21.0,1.0,1.0,0.3,Time
,,S22,994851,1,女,19,anonymized,Serial_Dependence_U,2023.2.3,Win32,120.48192771085394,,,,,,3168.6487000000475,19.0,5.0,3168.6487000000475,19.0,,,,3172.794100000024,3173.293600000024,3172.285600000024,3172.794100000024,3169.652299999952,3172.285600000024,3173.293600000024,3173.793399999976,3173.7935,3176.3935,1756.0,3176.3935,4.0,3176.398399999976,5.0,15.0,165.0,19.0,1.0,1.6,0.7,Time
,,S22,994851,1,女,19,anonymized,Serial_Dependence_U,2023.2.3,Win32,120.48192771085394,,,,,,3176.3985,126.0,5.0,3176.398600000024,126.0,,,,3180.1357999999523,3180.635299999952,3179.627200000048,3180.135700000048,3177.394100000024,3179.627200000048,3180.635399999976,3181.135299999952,3181.135299999952,3183.4855,1560.0,3183.4855,5.0,3183.490600000024,5.0,16.0,166.0,17.0,1.0,1.2,0.7,Time
,,S22,994851,1,女,19,anonymized,Serial_Dependence_U,2023.2.3,Win32,120.48192771085394,,,,,,3183.490899999976,326.0,5.0,3183.490899999976,326.0,,,,3186.868899999976,3187.3687000000477,3186.360399999976,3186.868899999976,3184.494,3186.360299999952,3187.368799999952,3187.8685,3187.868600000023,3189.360200000048,1028.0,3189.360200000048,4.0,3189.364899999976,5.0,17.0,167.0,20.0,1.0,0.8,0.3,Time
,,S22,994851,1,女,19,anonymized,Serial_Dependence_U,2023.2.3,Win32,120.48192771085394,,,,,,3189.365,302.0,5.0,3189.3652000000475,302.0,,,,3192.7022000000475,3193.202,3192.193899999976,3192.7022000000475,3190.3607000000475,3192.1937999999523,3193.202100000024,3193.702,3193.702,3195.468600000024,1089.0,3195.468600000024,5.0,3195.473200000048,5.0,18.0,168.0,25.0,1.0,0.8,0.7,Time
,,S22,994851,1,女,19,anonymized,Serial_Dependence_U,2023.2.3,Win32,120.48192771085394,,,,,,3195.473399999976,285.0,5.0,3195.4735,285.0,,,,3199.252399999976,3199.752299999952,3198.743799999952,3199.252399999976,3196.477200000048,3198.743799999952,3199.752299999952,3200.252,3200.252100000024,3201.943600000024,1361.0,3201.943600000024,4.0,3201.948600000024,5.0,19.0,169.0,2.0,1.0,1.2,0.3,Time
,,S22,994851,1,女,19,anonymized,Serial_Dependence_U,2023.2.3,Win32,120.48192771085394,,,,,,3201.948799999952,83.0,5.0,3201.948799999952,83.0,,,,3206.127299999952,3206.626899999976,3205.618799999952,3206.127200000048,3202.9522000000475,3205.618799999952,3206.626899999976,3207.127,3207.127,3208.877,1359.0,3208.877,2.0,3208.881799999952,5.0,20.0,170.0,14.0,1.0,1.6,0.3,Time
,,S22,994851,1,女,19,anonymized,Serial_Dependence_U,2023.2.3,Win32,120.48192771085394,,,,,,3208.882,74.0,5.0,3208.882,74.0,,,,3212.219,3212.718799999952,3211.7105,3212.218899999976,3209.877700000048,3211.7105,3212.718799999952,3213.218799999952,3213.218799999952,3214.943700000048,1118.0,3214.943700000048,5.0,3214.948399999976,5.0,21.0,171.0,5.0,1.0,0.8,0.7,Time
,,S22,994851,1,女,19,anonymized,Serial_Dependence_U,2023.2.3,Win32,120.48192771085394,,,,,,3214.9485,42.0,5.0,3214.948600000024,42.0,,,,3219.127,3219.627,3218.619,3219.127,3215.952399999976,3218.618899999976,3219.627,3220.1267999999523,3220.1267999999523,3222.5685,1602.0,3222.5685,3.0,3222.573600000024,5.0,22.0,172.0,24.0,1.0,1.6,0.3,Time
,,S22,994851,1,女,19,anonymized,Serial_Dependence_U,2023.2.3,Win32,120.48192771085394,,,,,,3222.573799999952,297.0,5.0,3222.573799999952,297.0,,,,3226.1192000000474,3226.618799999952,3225.6105,3226.1191000000235,3223.577,3225.610399999976,3226.618799999952,3227.118600000023,3227.118600000023,3229.227100000024,1301.0,3229.227100000024,5.0,3229.232200000048,5.0,23.0,173.0,6.0,1.0,1.0,0.7,Time
,,S22,994851,1,女,19,anonymized,Serial_Dependence_U,2023.2.3,Win32,120.48192771085394,,,,,,3229.232399999976,201.0,5.0,3229.2325,201.0,,,,3233.202299999952,3233.701899999976,3232.694100000024,3233.202100000024,3230.227399999976,3232.693899999976,3233.702,3234.202100000024,3234.2022000000475,3236.5352999999523,1617.0,3236.535399999976,4.0,3236.540100000024,5.0,24.0,174.0,3.0,1.0,1.4,0.3,Time
,,S22,994851,1,女,19,anonymized,Serial_Dependence_U,2023.2.3,Win32,120.48192771085394,,,,,,3236.540399999976,1.0,5.0,3236.540399999976,1.0,,,,3240.2772000000477,3240.777,3239.768899999976,3240.277100000023,3237.535700000048,3239.768899999976,3240.777,3241.277,3241.277100000023,3243.201799999952,1361.0,3243.201799999952,4.0,3243.2065,5.0,25.0,175.0,7.0,1.0,1.2,0.7,Time
,,S22,994851,1,女,19,anonymized,Serial_Dependence_U,2023.2.3,Win32,120.48192771085394,,,,,,3243.2067000000475,59.0,5.0,3243.2067000000475,59.0,,,,3247.177299999952,3247.676799999952,3246.668899999976,3247.177299999952,3244.2022000000475,3246.668899999976,3247.676799999952,3248.177,3248.1771000000235,3252.335299999952,1286.0,3252.335299999952,2.0,3252.3405,5.0,26.0,176.0,23.0,1.0,1.4,0.3,Time
,,S22,994851,1,女,19,anonymized,Serial_Dependence_U,2023.2.3,Win32,120.48192771085394,,,,,,3252.340600000024,125.0,5.0,3252.3407000000475,125.0,,,,3255.719,3256.218600000024,3255.2106000000235,3255.718899999976,3253.343799999952,3255.2105,3256.218600000024,3256.7185,3256.718600000024,3258.4602000000477,938.0,3258.460299999952,4.0,3258.4655,5.0,27.0,177.0,0.0,1.0,0.8,0.3,Time
,,S22,994851,1,女,19,anonymized,Serial_Dependence_U,2023.2.3,Win32,120.48192771085394,,,,,,3258.4657000000475,157.0,5.0,3258.4657000000475,157.0,,,,3262.043899999976,3262.543600000024,3261.535700000048,3262.043799999952,3259.468899999976,3261.535700000048,3262.543600000024,3263.043600000024,3263.043600000024,3265.1435,1184.0,3265.1436000000235,4.0,3265.1485,5.0,28.0,178.0,1.0,1.0,1.0,0.3,Time
,,S22,994851,1,女,19,anonymized,Serial_Dependence_U,2023.2.3,Win32,120.48192771085394,,,,,,3265.1487000000475,196.0,5.0,3265.1487000000475,196.0,,,,3269.285799999952,3269.7852999999523,3268.777399999976,3269.285799999952,3266.144,3268.777299999952,3269.7852999999523,3270.2852999999523,3270.285399999976,3272.501899999976,1430.0,3272.501899999976,2.0,3272.506700000048,5.0,29.0,179.0,9.0,1.0,1.6,0.7,Time
,,S22,994851,1,女,19,anonymized,Serial_Dependence_U,2023.2.3,Win32,120.48192771085394,,,,,,3272.506899999976,127.0,6.0,3802.611100000024,127.0,s,530.0896000000239,,3806.556799999952,3807.0565,3806.048399999976,3806.556700000048,3803.615100000024,3806.048299999952,3807.056600000024,3807.556299999952,3807.556299999952,3812.798,2039.0,3812.798100000024,5.0,3812.803600000024,6.0,0.0,180.0,28.0,1.0,1.4,0.7,Time
,,S22,994851,1,女,19,anonymized,Serial_Dependence_U,2023.2.3,Win32,120.48192771085394,,,,,,3812.803799999952,21.0,6.0,3812.804399999976,21.0,,,,3816.7485,3817.248299999952,3816.240200000048,3816.748399999976,3813.806799999952,3816.240200000048,3817.248299999952,3817.748,3817.748100000024,3820.472899999976,1845.0,3820.472899999976,5.0,3820.4775,6.0,1.0,181.0,18.0,1.0,1.4,0.7,Time
,,S22,994851,1,女,19,anonymized,Serial_Dependence_U,2023.2.3,Win32,120.48192771085394,,,,,,3820.477700000048,123.0,6.0,3820.477700000048,123.0,,,,3824.623700000048,3825.1232000000473,3824.115100000024,3824.623600000024,3821.4815,3824.115100000024,3825.1232000000473,3825.6232000000473,3825.6232000000473,3827.956299999952,1972.0,3827.956399999976,4.0,3827.961100000024,6.0,2.0,182.0,9.0,1.0,1.6,0.7,Time
,,S22,994851,1,女,19,anonymized,Serial_Dependence_U,2023.2.3,Win32,120.48192771085394,,,,,,3827.961299999952,96.0,6.0,3827.961399999976,96.0,,,,3831.9402000000473,3832.439700000048,3831.432,3831.940100000024,3828.965100000024,3831.432,3832.439700000048,3832.939600000024,3832.939700000048,3835.8732000000473,1542.0,3835.873299999952,4.0,3835.878,6.0,3.0,183.0,23.0,1.0,1.4,0.3,Time
,,S22,994851,1,女,19,anonymized,Serial_Dependence_U,2023.2.3,Win32,120.48192771085394,,,,,,3835.878200000048,268.0,6.0,3835.878299999952,268.0,,,,3840.057,3840.556399999976,3839.548399999976,3840.056899999976,3836.881799999952,3839.548399999976,3840.5565,3841.0565,3841.0565,3843.3065,1452.0,3843.306600000024,2.0,3843.311399999976,6.0,4.0,184.0,24.0,1.0,1.6,0.3,Time
,,S22,994851,1,女,19,anonymized,Serial_Dependence_U,2023.2.3,Win32,120.48192771085394,,,,,,3843.311600000024,199.0,6.0,3843.311700000048,199.0,,,,3846.656600000024,3847.156299999952,3846.148200000048,3846.6565,3844.314899999976,3846.148100000024,3847.156299999952,3847.656299999952,3847.656299999952,3849.256299999952,1116.0,3849.256399999976,5.0,3849.260899999976,6.0,5.0,185.0,5.0,1.0,0.8,0.7,Time
,,S22,994851,1,女,19,anonymized,Serial_Dependence_U,2023.2.3,Win32,120.48192771085394,,,,,,3849.261,267.0,6.0,3849.261100000024,267.0,,,,3852.840200000048,3853.3397000000473,3852.331700000048,3852.840100000024,3850.265,3852.331700000048,3853.3397000000473,3853.839799999952,3853.839799999952,3856.323100000024,1334.0,3856.323100000024,5.0,3856.328,6.0,6.0,186.0,21.0,1.0,1.0,0.3,Time
,,S22,994851,1,女,19,anonymized,Serial_Dependence_U,2023.2.3,Win32,120.48192771085394,,,,,,3856.328200000048,277.0,6.0,3856.328299999952,277.0,,,,3860.106700000048,3860.606200000048,3859.598299999952,3860.106700000048,3857.331799999952,3859.598299999952,3860.606299999952,3861.106200000048,3861.106200000048,3863.098100000024,1397.0,3863.098100000024,4.0,3863.103,6.0,7.0,187.0,22.0,1.0,1.2,0.3,Time
,,S22,994851,1,女,19,anonymized,Serial_Dependence_U,2023.2.3,Win32,120.48192771085394,,,,,,3863.1032000000473,187.0,6.0,3863.103299999952,187.0,,,,3867.273399999976,3867.772899999976,3866.764899999976,3867.273299999952,3864.098299999952,3866.764799999952,3867.772899999976,3868.273100000024,3868.273100000024,3870.798100000024,1574.0,3870.798200000048,3.0,3870.802799999952,6.0,8.0,188.0,14.0,1.0,1.6,0.3,Time
,,S22,994851,1,女,19,anonymized,Serial_Dependence_U,2023.2.3,Win32,120.48192771085394,,,,,,3870.803100000024,172.0,6.0,3870.803100000024,172.0,,,,3874.748899999976,3875.248100000024,3874.24,3874.748799999952,3871.806700000048,3874.24,3875.248100000024,3875.748,3875.748100000024,3878.181399999976,1725.0,3878.181399999976,4.0,3878.186299999952,6.0,9.0,189.0,8.0,1.0,1.4,0.7,Time
,,S22,994851,1,女,19,anonymized,Serial_Dependence_U,2023.2.3,Win32,120.48192771085394,,,,,,3878.186399999976,131.0,6.0,3878.186399999976,131.0,,,,3881.723100000024,3882.223100000024,3881.215,3881.723,3879.181700000048,3881.214899999976,3882.223100000024,3882.723,3882.723,3884.514600000024,1119.0,3884.514700000048,4.0,3884.5205,6.0,10.0,190.0,6.0,1.0,1.0,0.7,Time
,,S22,994851,1,女,19,anonymized,Serial_Dependence_U,2023.2.3,Win32,120.48192771085394,,,,,,3884.5207000000473,148.0,6.0,3884.5207000000473,148.0,,,,3888.2985,3888.798100000024,3887.790100000024,3888.298299999952,3885.523299999952,3887.79,3888.798100000024,3889.298200000048,3889.298200000048,3890.814700000048,1146.0,3890.814700000048,3.0,3890.819600000024,6.0,11.0,191.0,2.0,1.0,1.2,0.3,Time
,,S22,994851,1,女,19,anonymized,Serial_Dependence_U,2023.2.3,Win32,120.48192771085394,,,,,,3890.819799999952,330.0,6.0,3890.819899999976,330.0,,,,3894.356899999976,3894.8565,3893.848299999952,3894.356899999976,3891.815,3893.848299999952,3894.8565,3895.356399999976,3895.3565,3897.606600000024,1431.0,3897.606600000024,5.0,3897.611299999952,6.0,12.0,192.0,16.0,1.0,1.0,0.7,Time
,,S22,994851,1,女,19,anonymized,Serial_Dependence_U,2023.2.3,Win32,120.48192771085394,,,,,,3897.6115,96.0,6.0,3897.611600000024,96.0,,,,3900.981799999952,3901.4815,3900.473299999952,3900.981799999952,3898.607,3900.473299999952,3901.4815,3901.981399999976,3901.981399999976,3904.289600000024,1364.0,3904.289700000048,5.0,3904.294200000048,6.0,13.0,193.0,10.0,1.0,0.8,0.3,Time
,,S22,994851,1,女,19,anonymized,Serial_Dependence_U,2023.2.3,Win32,120.48192771085394,,,,,,3904.294299999952,214.0,6.0,3904.294399999976,214.0,,,,3908.473200000048,3908.973,3907.965100000024,3908.473200000048,3905.298299999952,3907.964899999976,3908.973,3909.472899999976,3909.473,3912.623100000024,1441.0,3912.6232000000473,2.0,3912.6285,6.0,14.0,194.0,4.0,1.0,1.6,0.3,Time
,,S22,994851,1,女,19,anonymized,Serial_Dependence_U,2023.2.3,Win32,120.48192771085394,,,,,,3912.628600000024,130.0,6.0,3912.628700000048,130.0,,,,3916.3735,3916.872899999976,3915.865100000024,3916.373299999952,3913.631799999952,3915.865,3916.873,3917.373100000024,3917.3732000000473,3920.098,1543.0,3920.098,4.0,3920.102899999976,6.0,15.0,195.0,7.0,1.0,1.2,0.7,Time
,,S22,994851,1,女,19,anonymized,Serial_Dependence_U,2023.2.3,Win32,120.48192771085394,,,,,,3920.103,60.0,6.0,3920.103100000024,60.0,,,,3923.473200000048,3923.973,3922.965,3923.473200000048,3921.098600000024,3922.964899999976,3923.973,3924.472700000048,3924.472799999952,3926.514600000024,1211.0,3926.514600000024,5.0,3926.519899999976,6.0,16.0,196.0,0.0,1.0,0.8,0.3,Time
,,S22,994851,1,女,19,anonymized,Serial_Dependence_U,2023.2.3,Win32,120.48192771085394,,,,,,3926.52,45.0,6.0,3926.520100000024,45.0,,,,3930.256899999976,3930.756600000024,3929.7565,3930.256899999976,3927.523299999952,3929.756399999976,3930.756600000024,3931.2565,3931.2565,3933.972799999952,1453.0,3933.972799999952,4.0,3933.9775,6.0,17.0,197.0,17.0,1.0,1.2,0.7,Time
,,S22,994851,1,女,19,anonymized,Serial_Dependence_U,2023.2.3,Win32,120.48192771085394,,,,,,3933.977700000048,22.0,6.0,3933.977700000048,22.0,,,,3937.956600000024,3938.456299999952,3937.4485,3937.9565,3934.981700000048,3937.448399999976,3938.456299999952,3938.956299999952,3938.956399999976,3941.789700000048,1528.0,3941.789700000048,4.0,3941.794299999952,6.0,18.0,198.0,3.0,1.0,1.4,0.3,Time
,,S22,994851,1,女,19,anonymized,Serial_Dependence_U,2023.2.3,Win32,120.48192771085394,,,,,,3941.794399999976,291.0,6.0,3941.7945,291.0,,,,3945.565100000024,3946.064600000024,3945.056700000048,3945.565,3942.789899999976,3945.056600000024,3946.064700000048,3946.564700000048,3946.564700000048,3948.781200000048,1306.0,3948.781299999952,4.0,3948.786299999952,6.0,19.0,199.0,12.0,1.0,1.2,0.3,Time
,,S22,994851,1,女,19,anonymized,Serial_Dependence_U,2023.2.3,Win32,120.48192771085394,,,,,,3948.7865,341.0,6.0,3948.7865,341.0,,,,3952.365,3952.864899999976,3951.856600000024,3952.365,3949.789700000048,3951.8565,3952.864899999976,3953.364600000024,3953.364700000048,3955.073,979.0,3955.073100000024,3.0,3955.078100000024,6.0,20.0,200.0,11.0,1.0,1.0,0.3,Time
,,S22,994851,1,女,19,anonymized,Serial_Dependence_U,2023.2.3,Win32,120.48192771085394,,,,,,3955.078299999952,78.0,6.0,3955.078299999952,78.0,,,,3958.656600000024,3959.1567000000473,3958.148200000048,3958.656600000024,3956.081700000048,3958.148200000048,3959.1567000000473,3959.6565,3959.6565,3961.673100000024,1160.0,3961.673100000024,4.0,3961.677799999952,6.0,21.0,201.0,1.0,1.0,1.0,0.3,Time
,,S22,994851,1,女,19,anonymized,Serial_Dependence_U,2023.2.3,Win32,120.48192771085394,,,,,,3961.677899999976,198.0,6.0,3961.678,198.0,,,,3965.423299999952,3965.923,3964.915200000048,3965.423200000048,3962.6815,3964.915100000024,3965.923,3966.422799999952,3966.422899999976,3968.5645,1269.0,3968.564600000024,4.0,3968.569100000024,6.0,22.0,202.0,27.0,1.0,1.2,0.7,Time
,,S22,994851,1,女,19,anonymized,Serial_Dependence_U,2023.2.3,Win32,120.48192771085394,,,,,,3968.569299999952,183.0,6.0,3968.569299999952,183.0,,,,3971.914899999976,3972.414899999976,3971.406399999976,3971.914899999976,3969.573200000048,3971.406299999952,3972.414899999976,3972.914799999952,3972.914799999952,3974.548,1059.0,3974.548,5.0,3974.552200000048,6.0,23.0,203.0,25.0,1.0,0.8,0.7,Time
,,S22,994851,1,女,19,anonymized,Serial_Dependence_U,2023.2.3,Win32,120.48192771085394,,,,,,3974.552399999976,182.0,6.0,3974.552399999976,182.0,,,,3977.898100000024,3978.397899999976,3977.389899999976,3977.898100000024,3975.5565,3977.389899999976,3978.398,3978.898100000024,3978.898200000048,3980.756200000048,1125.0,3980.756299999952,5.0,3980.761100000024,6.0,24.0,204.0,15.0,1.0,0.8,0.7,Time
,,S22,994851,1,女,19,anonymized,Serial_Dependence_U,2023.2.3,Win32,120.48192771085394,,,,,,3980.761200000048,328.0,6.0,3980.761299999952,328.0,,,,3984.9065,3985.406100000024,3984.398299999952,3984.906399999976,3981.764899999976,3984.398299999952,3985.406200000048,3985.906299999952,3985.906299999952,3988.297899999976,1607.0,3988.297899999976,3.0,3988.302600000024,6.0,25.0,205.0,29.0,1.0,1.6,0.7,Time
,,S22,994851,1,女,19,anonymized,Serial_Dependence_U,2023.2.3,Win32,120.48192771085394,,,,,,3988.302799999952,156.0,6.0,3988.302799999952,156.0,,,,3991.848299999952,3992.347700000048,3991.339799999952,3991.848299999952,3989.306299999952,3991.3397000000473,3992.347799999952,3992.848,3992.848,3994.9395,1345.0,3994.9395,5.0,3994.944399999976,6.0,26.0,206.0,26.0,1.0,1.0,0.7,Time
,,S22,994851,1,女,19,anonymized,Serial_Dependence_U,2023.2.3,Win32,120.48192771085394,,,,,,3994.944600000024,352.0,6.0,3994.9447000000473,352.0,,,,3998.323399999976,3998.822700000048,3997.814899999976,3998.323299999952,3995.948,3997.814799999952,3998.822700000048,3999.323,3999.323100000024,4000.614899999976,882.0,4000.615,4.0,4000.619899999976,6.0,27.0,207.0,20.0,1.0,0.8,0.3,Time
,,S22,994851,1,女,19,anonymized,Serial_Dependence_U,2023.2.3,Win32,120.48192771085394,,,,,,4000.620100000024,107.0,6.0,4000.620100000024,107.0,,,,4004.756700000048,4005.256299999952,4004.2482000000473,4004.756600000024,4001.615100000024,4004.2482000000473,4005.256299999952,4005.756399999976,4005.7565,4008.272899999976,1616.0,4008.272899999976,3.0,4008.2785,6.0,28.0,208.0,19.0,1.0,1.6,0.7,Time
,,S22,994851,1,女,19,anonymized,Serial_Dependence_U,2023.2.3,Win32,120.48192771085394,,,,,,4008.278700000048,329.0,6.0,4008.278700000048,329.0,,,,4012.256799999952,4012.756200000048,4011.748100000024,4012.256799999952,4009.2815,4011.748100000024,4012.756200000048,4013.256,4013.256100000024,4015.381100000024,1543.0,4015.381200000048,4.0,4015.385799999952,6.0,29.0,209.0,13.0,1.0,1.4,0.3,Time
,,S22,994851,1,女,19,anonymized,Serial_Dependence_U,2023.2.3,Win32,120.48192771085394,,,,,,4015.386100000024,143.0,7.0,4746.452100000024,143.0,s,731.0557000000485,,4749.831,4750.330700000048,4749.322600000024,4749.830899999976,4747.455799999952,4749.322600000024,4750.330799999952,4750.8305,4750.830600000024,4753.722200000048,1152.0,4753.722200000048,5.0,4753.722299999952,7.0,0.0,210.0,10.0,1.0,0.8,0.3,Time
,,S22,994851,1,女,19,anonymized,Serial_Dependence_U,2023.2.3,Win32,120.48192771085394,,,,,,4753.7225,339.0,7.0,4753.723,339.0,,,,4757.105899999977,4757.606200000048,4756.597399999976,4757.105899999977,4754.731000000001,4756.597299999952,4757.606200000048,4758.105600000024,4758.105600000024,4760.005700000048,943.0,4760.005799999953,4.0,4760.010200000048,7.0,1.0,211.0,20.0,1.0,0.8,0.3,Time
,,S22,994851,1,女,19,anonymized,Serial_Dependence_U,2023.2.3,Win32,120.48192771085394,,,,,,4760.010299999953,106.0,7.0,4760.0103999999765,106.0,,,,4763.580799999952,4764.080600000024,4763.072700000048,4763.580700000048,4761.0058999999765,4763.072600000024,4764.080600000024,4764.581200000048,4764.581200000048,4765.9890000000005,854.0,4765.9890000000005,2.0,4765.993299999953,7.0,2.0,212.0,1.0,1.0,1.0,0.3,Time
,,S22,994851,1,女,19,anonymized,Serial_Dependence_U,2023.2.3,Win32,120.48192771085394,,,,,,4765.993399999977,118.0,7.0,4765.9935000000005,118.0,,,,4769.7642999999525,4770.264100000024,4769.256,4769.764200000048,4766.989700000048,4769.2558999999765,4770.264100000024,4770.7642999999525,4770.7642999999525,4772.622200000048,1086.0,4772.622200000048,2.0,4772.627,7.0,3.0,213.0,2.0,1.0,1.2,0.3,Time
,,S22,994851,1,女,19,anonymized,Serial_Dependence_U,2023.2.3,Win32,120.48192771085394,,,,,,4772.627200000048,45.0,7.0,4772.627200000048,45.0,,,,4776.797700000048,4777.297100000024,4776.297100000024,4776.797600000024,4773.631,4776.297100000024,4777.297100000024,4777.797299999953,4777.797299999953,4780.038899999977,1433.0,4780.039000000001,2.0,4780.043899999976,7.0,4.0,214.0,24.0,1.0,1.6,0.3,Time
,,S22,994851,1,女,19,anonymized,Serial_Dependence_U,2023.2.3,Win32,120.48192771085394,,,,,,4780.044100000024,144.0,7.0,4780.044100000024,144.0,,,,4783.622799999953,4784.122700000048,4783.114500000001,4783.622700000048,4781.047799999953,4783.114500000001,4784.122700000048,4784.622200000048,4784.622200000048,4786.6805,1455.0,4786.6805,5.0,4786.685100000024,7.0,5.0,215.0,21.0,1.0,1.0,0.3,Time
,,S22,994851,1,女,19,anonymized,Serial_Dependence_U,2023.2.3,Win32,120.48192771085394,,,,,,4786.685299999953,138.0,7.0,4786.685399999977,138.0,,,,4790.222600000024,4790.722299999952,4789.714299999952,4790.222600000024,4787.681200000048,4789.714200000048,4790.722399999976,4791.222299999952,4791.222299999952,4793.280399999976,1554.0,4793.280399999976,5.0,4793.284899999976,7.0,6.0,216.0,26.0,1.0,1.0,0.7,Time
,,S22,994851,1,女,19,anonymized,Serial_Dependence_U,2023.2.3,Win32,120.48192771085394,,,,,,4793.285100000024,130.0,7.0,4793.285100000024,130.0,,,,4797.430799999953,4797.930600000024,4796.922500000001,4797.430799999953,4794.289200000048,4796.922399999977,4797.930600000024,4798.430600000024,4798.430600000024,4801.305799999953,1730.0,4801.305799999953,4.0,4801.310600000024,7.0,7.0,217.0,9.0,1.0,1.6,0.7,Time
,,S22,994851,1,女,19,anonymized,Serial_Dependence_U,2023.2.3,Win32,120.48192771085394,,,,,,4801.310700000048,217.0,7.0,4801.310799999953,217.0,,,,4805.289399999976,4805.788799999953,4804.780799999952,4805.289299999952,4802.314200000048,4804.780700000048,4805.788799999953,4806.2891000000245,4806.2891000000245,4808.763799999952,1633.0,4808.763799999952,4.0,4808.768399999976,7.0,8.0,218.0,3.0,1.0,1.4,0.3,Time
,,S22,994851,1,女,19,anonymized,Serial_Dependence_U,2023.2.3,Win32,120.48192771085394,,,,,,4808.768600000024,171.0,7.0,4808.768600000024,171.0,,,,4812.314200000048,4812.8138999999765,4811.806100000024,4812.314100000024,4809.772700000048,4811.8060000000005,4812.814,4813.3138999999765,4813.314,4815.688799999953,1241.0,4815.688799999953,4.0,4815.693299999953,7.0,9.0,219.0,16.0,1.0,1.0,0.7,Time
,,S22,994851,1,女,19,anonymized,Serial_Dependence_U,2023.2.3,Win32,120.48192771085394,,,,,,4815.6933999999765,224.0,7.0,4815.6935,224.0,,,,4819.8312999999525,4820.330799999952,4819.330799999952,4819.831100000024,4816.697600000024,4819.330799999952,4820.330899999976,4820.830399999976,4820.830399999976,4823.763899999976,1936.0,4823.763899999976,4.0,4823.768600000024,7.0,10.0,220.0,19.0,1.0,1.6,0.7,Time
,,S22,994851,1,女,19,anonymized,Serial_Dependence_U,2023.2.3,Win32,120.48192771085394,,,,,,4823.768700000048,94.0,7.0,4823.7687999999525,94.0,,,,4827.714299999952,4828.213899999976,4827.205899999976,4827.714299999952,4824.772899999976,4827.205799999952,4828.214,4828.714299999952,4828.714399999976,4830.622299999953,1579.0,4830.622299999953,4.0,4830.627100000024,7.0,11.0,221.0,18.0,1.0,1.4,0.7,Time
,,S22,994851,1,女,19,anonymized,Serial_Dependence_U,2023.2.3,Win32,120.48192771085394,,,,,,4830.627299999953,353.0,7.0,4830.627299999953,353.0,,,,4834.597799999952,4835.097399999976,4834.089399999976,4834.597700000048,4831.622700000048,4834.089299999952,4835.097399999976,4835.597700000048,4835.597700000048,4837.255600000024,1330.0,4837.255700000048,3.0,4837.26,7.0,12.0,222.0,23.0,1.0,1.4,0.3,Time
,,S22,994851,1,女,19,anonymized,Serial_Dependence_U,2023.2.3,Win32,120.48192771085394,,,,,,4837.260200000048,144.0,7.0,4837.260299999953,144.0,,,,4840.789700000048,4841.288899999977,4840.289299999952,4840.789700000048,4838.256,4840.289200000048,4841.289000000001,4841.789200000048,4841.789200000048,4843.680799999953,1317.0,4843.680899999977,5.0,4843.685399999977,7.0,13.0,223.0,6.0,1.0,1.0,0.7,Time
,,S22,994851,1,女,19,anonymized,Serial_Dependence_U,2023.2.3,Win32,120.48192771085394,,,,,,4843.685600000024,295.0,7.0,4843.685700000048,295.0,,,,4847.030899999976,4847.5305,4846.522399999976,4847.030899999976,4844.689100000024,4846.522399999976,4847.5305,4848.030799999952,4848.030899999976,4850.197100000024,1328.0,4850.197200000048,5.0,4850.201700000048,7.0,14.0,224.0,25.0,1.0,0.8,0.7,Time
,,S22,994851,1,女,19,anonymized,Serial_Dependence_U,2023.2.3,Win32,120.48192771085394,,,,,,4850.2017999999525,211.0,7.0,4850.2017999999525,211.0,,,,4854.172899999977,4854.672399999977,4853.672399999977,4854.172799999953,4851.206,4853.672299999953,4854.672500000001,4855.172399999977,4855.172500000001,4857.347000000001,1249.0,4857.347000000001,2.0,4857.351700000048,7.0,15.0,225.0,13.0,1.0,1.4,0.3,Time
,,S22,994851,1,女,19,anonymized,Serial_Dependence_U,2023.2.3,Win32,120.48192771085394,,,,,,4857.351899999976,56.0,7.0,4857.352,56.0,,,,4860.680899999977,4861.180600000024,4860.180600000024,4860.680899999977,4858.347799999952,4860.1805,4861.180600000024,4861.680899999977,4861.680899999977,4864.772200000048,1240.0,4864.772200000048,5.0,4864.777399999976,7.0,16.0,226.0,15.0,1.0,0.8,0.7,Time
,,S22,994851,1,女,19,anonymized,Serial_Dependence_U,2023.2.3,Win32,120.48192771085394,,,,,,4864.777600000024,95.0,7.0,4864.777700000048,95.0,,,,4868.555899999977,4869.0553999999765,4868.047399999977,4868.555799999953,4865.780700000048,4868.047399999977,4869.0553999999765,4869.555299999953,4869.555299999953,4872.8471000000245,1458.0,4872.847200000048,4.0,4872.852100000024,7.0,17.0,227.0,12.0,1.0,1.2,0.3,Time
,,S22,994851,1,女,19,anonymized,Serial_Dependence_U,2023.2.3,Win32,120.48192771085394,,,,,,4872.852299999952,20.0,7.0,4872.852299999952,20.0,,,,4876.631,4877.130600000024,4876.122700000048,4876.631,4873.855500000001,4876.122600000024,4877.130600000024,4877.630700000048,4877.630700000048,4879.355399999977,1146.0,4879.355500000001,3.0,4879.360000000001,7.0,18.0,228.0,22.0,1.0,1.2,0.3,Time
,,S22,994851,1,女,19,anonymized,Serial_Dependence_U,2023.2.3,Win32,120.48192771085394,,,,,,4879.360200000048,47.0,7.0,4879.360299999953,47.0,,,,4883.306200000048,4883.805700000048,4882.797700000048,4883.306200000048,4880.364399999977,4882.797500000001,4883.805799999953,4884.305899999977,4884.305899999977,4886.897100000024,1559.0,4886.897100000024,4.0,4886.901899999976,7.0,19.0,229.0,28.0,1.0,1.4,0.7,Time
,,S22,994851,1,女,19,anonymized,Serial_Dependence_U,2023.2.3,Win32,120.48192771085394,,,,,,4886.902,229.0,7.0,4886.902,229.0,,,,4890.4645,4890.963899999976,4889.964100000024,4890.464399999976,4887.897600000024,4889.964,4890.963899999976,4891.464,4891.464,4893.7055,1212.0,4893.705600000024,4.0,4893.71,7.0,20.0,230.0,11.0,1.0,1.0,0.3,Time
,,S22,994851,1,女,19,anonymized,Serial_Dependence_U,2023.2.3,Win32,120.48192771085394,,,,,,4893.710200000048,280.0,7.0,4893.710200000048,280.0,,,,4897.455899999976,4897.955700000048,4896.9475,4897.455899999976,4894.714200000048,4896.947399999976,4897.955700000048,4898.455799999952,4898.455799999952,4902.305700000048,1545.0,4902.305700000048,4.0,4902.310600000024,7.0,21.0,231.0,27.0,1.0,1.2,0.7,Time
,,S22,994851,1,女,19,anonymized,Serial_Dependence_U,2023.2.3,Win32,120.48192771085394,,,,,,4902.310799999953,119.0,7.0,4902.310799999953,119.0,,,,4905.6805,4906.180600000024,4905.172600000024,4905.6805,4903.305799999953,4905.172500000001,4906.180600000024,4906.680600000024,4906.680700000048,4908.7221000000245,1132.0,4908.7221000000245,5.0,4908.726899999976,7.0,22.0,232.0,0.0,1.0,0.8,0.3,Time
,,S22,994851,1,女,19,anonymized,Serial_Dependence_U,2023.2.3,Win32,120.48192771085394,,,,,,4908.727100000024,176.0,7.0,4908.727200000048,176.0,,,,4912.672600000024,4913.172500000001,4912.1641000000245,4912.672600000024,4909.730899999977,4912.1641000000245,4913.172500000001,4913.672200000048,4913.672200000048,5255.928600000024,1252.0,5255.928600000024,2.0,5255.934,7.0,23.0,233.0,8.0,1.0,1.4,0.7,Time
,,S22,994851,1,女,19,anonymized,Serial_Dependence_U,2023.2.3,Win32,120.48192771085394,,,,,,5255.934200000048,143.0,7.0,5255.934200000048,143.0,,,,5259.270200000048,5259.770100000024,5258.762399999976,5259.270200000048,5256.929,5258.762299999952,5259.770100000024,5260.270100000024,5260.270100000024,5262.020100000024,1125.0,5262.020100000024,5.0,5262.020200000048,7.0,24.0,234.0,5.0,1.0,0.8,0.7,Time
,,S22,994851,1,女,19,anonymized,Serial_Dependence_U,2023.2.3,Win32,120.48192771085394,,,,,,5262.020399999977,337.0,7.0,5262.020399999977,337.0,,,,5266.162100000024,5266.662,5265.6535,5266.162100000024,5263.020100000024,5265.6535,5266.662,5267.161799999953,5267.161799999953,5270.395299999953,1609.0,5270.395299999953,3.0,5270.4006000000245,7.0,25.0,235.0,29.0,1.0,1.6,0.7,Time
,,S22,994851,1,女,19,anonymized,Serial_Dependence_U,2023.2.3,Win32,120.48192771085394,,,,,,5270.400700000048,335.0,7.0,5270.400799999952,335.0,,,,5274.578600000024,5275.078299999953,5274.070600000024,5274.578600000024,5271.403600000024,5274.0705,5275.078399999977,5275.578399999977,5275.5785000000005,5277.761799999953,1461.0,5277.761799999953,2.0,5277.766799999952,7.0,26.0,236.0,14.0,1.0,1.6,0.3,Time
,,S22,994851,1,女,19,anonymized,Serial_Dependence_U,2023.2.3,Win32,120.48192771085394,,,,,,5277.767,35.0,7.0,5277.767,35.0,,,,5281.937200000048,5282.436600000024,5281.428799999952,5281.937100000024,5278.7621000000245,5281.428700000048,5282.436700000048,5282.937,5282.937,5285.420100000024,1742.0,5285.420100000024,4.0,5285.425600000024,7.0,27.0,237.0,4.0,1.0,1.6,0.3,Time
,,S22,994851,1,女,19,anonymized,Serial_Dependence_U,2023.2.3,Win32,120.48192771085394,,,,,,5285.425700000048,3.0,7.0,5285.425799999953,3.0,,,,5289.162100000024,5289.661899999976,5288.653700000048,5289.162100000024,5286.421,5288.653700000048,5289.661899999976,5290.162,5290.162,5292.886899999977,1591.0,5292.886899999977,5.0,5292.892299999952,7.0,28.0,238.0,7.0,1.0,1.2,0.7,Time
,,S22,994851,1,女,19,anonymized,Serial_Dependence_U,2023.2.3,Win32,120.48192771085394,,,,,,5292.892399999976,279.0,7.0,5292.8925,279.0,,,,5296.6285,5297.128299999952,5296.1205,5296.6285,5293.8871000000245,5296.1205,5297.128299999952,5297.6285,5297.628600000024,5300.636700000048,1674.0,5300.636700000048,5.0,5300.641700000048,7.0,29.0,239.0,17.0,1.0,1.2,0.7,Time
,,S22,994851,1,女,19,anonymized,Serial_Dependence_U,2023.2.3,Win32,120.48192771085394,,,,,,5300.641899999976,211.0,8.0,5968.484200000048,211.0,s,667.8279999999995,,5972.429399999976,5972.929100000024,5971.921200000048,5972.429399999976,5969.488,5971.921100000024,5972.929200000048,5973.429200000048,5973.4292999999525,5976.195799999952,1574.0,5976.195899999976,4.0,5976.200600000024,8.0,0.0,240.0,18.0,1.0,1.4,0.7,Time
,,S22,994851,1,女,19,anonymized,Serial_Dependence_U,2023.2.3,Win32,120.48192771085394,,,,,,5976.200799999952,180.0,8.0,5976.201399999976,180.0,,,,5979.546200000048,5980.046,5979.037899999977,5979.546200000048,5977.204600000024,5979.037799999953,5980.046,5980.546100000024,5980.546299999953,5982.562399999976,1160.0,5982.562399999976,5.0,5982.567299999952,8.0,1.0,241.0,5.0,1.0,0.8,0.7,Time
,,S22,994851,1,女,19,anonymized,Serial_Dependence_U,2023.2.3,Win32,120.48192771085394,,,,,,5982.567399999976,152.0,8.0,5982.567399999976,152.0,,,,5986.712799999953,5987.212500000001,5986.2045,5986.712799999953,5983.571,5986.2045,5987.212500000001,5987.712700000048,5987.712700000048,5990.187399999976,1981.0,5990.1875,4.0,5990.192100000024,8.0,2.0,242.0,29.0,1.0,1.6,0.7,Time
,,S22,994851,1,女,19,anonymized,Serial_Dependence_U,2023.2.3,Win32,120.48192771085394,,,,,,5990.192200000048,139.0,8.0,5990.192299999952,139.0,,,,5994.371100000024,5994.870799999952,5993.863,5994.371,5991.196200000048,5993.862899999976,5994.870899999976,5995.371100000024,5995.371100000024,5997.379100000024,1511.0,5997.379100000024,2.0,5997.383899999976,8.0,3.0,243.0,14.0,1.0,1.6,0.3,Time
,,S22,994851,1,女,19,anonymized,Serial_Dependence_U,2023.2.3,Win32,120.48192771085394,,,,,,5997.384,106.0,8.0,5997.384,106.0,,,,6001.5463999999765,6002.045799999953,6001.046100000024,6001.546299999953,5998.379399999976,6001.045899999976,6002.045799999953,6002.545700000048,6002.545799999953,6004.879200000048,1572.0,6004.879200000048,3.0,6004.884100000024,8.0,4.0,244.0,4.0,1.0,1.6,0.3,Time
,,S22,994851,1,女,19,anonymized,Serial_Dependence_U,2023.2.3,Win32,120.48192771085394,,,,,,6004.884299999952,158.0,8.0,6004.884399999976,158.0,,,,6008.8295,6009.329200000048,6008.321299999952,6008.829399999976,6005.887700000048,6008.321299999952,6009.329200000048,6009.829200000048,6009.829200000048,6012.679,1668.0,6012.679100000024,4.0,6012.683700000048,8.0,5.0,245.0,28.0,1.0,1.4,0.7,Time
,,S22,994851,1,女,19,anonymized,Serial_Dependence_U,2023.2.3,Win32,120.48192771085394,,,,,,6012.6837999999525,232.0,8.0,6012.683899999976,232.0,,,,6016.221299999953,6016.720799999953,6015.713000000001,6016.221299999953,6013.68,6015.713000000001,6016.720899999977,6017.220899999977,6017.2210000000005,6019.695899999976,1363.0,6019.695899999976,5.0,6019.700899999976,8.0,6.0,246.0,6.0,1.0,1.0,0.7,Time
,,S22,994851,1,女,19,anonymized,Serial_Dependence_U,2023.2.3,Win32,120.48192771085394,,,,,,6019.701100000024,203.0,8.0,6019.701200000048,203.0,,,,6023.437600000024,6023.937399999976,6022.929700000048,6023.437600000024,6020.696100000024,6022.929700000048,6023.9375,6024.437799999952,6024.437799999952,6028.137600000024,1401.0,6028.137600000024,4.0,6028.142399999976,8.0,7.0,247.0,27.0,1.0,1.2,0.7,Time
,,S22,994851,1,女,19,anonymized,Serial_Dependence_U,2023.2.3,Win32,120.48192771085394,,,,,,6028.1425,206.0,8.0,6028.142600000024,206.0,,,,6031.687700000048,6032.1875,6031.179600000024,6031.687600000024,6029.146299999952,6031.1795,6032.1875,6032.687700000048,6032.687799999952,6035.821,1449.0,6035.821,5.0,6035.825899999976,8.0,8.0,248.0,16.0,1.0,1.0,0.7,Time
,,S22,994851,1,女,19,anonymized,Serial_Dependence_U,2023.2.3,Win32,120.48192771085394,,,,,,6035.826100000024,89.0,8.0,6035.826100000024,89.0,,,,6039.371200000048,6039.870899999976,6038.862600000024,6039.371100000024,6036.829600000024,6038.8625,6039.870899999976,6040.370899999976,6040.370899999976,6042.570799999952,1453.0,6042.570799999952,5.0,6042.575799999952,8.0,9.0,249.0,26.0,1.0,1.0,0.7,Time
,,S22,994851,1,女,19,anonymized,Serial_Dependence_U,2023.2.3,Win32,120.48192771085394,,,,,,6042.576,114.0,8.0,6042.576,114.0,,,,6046.1461000000245,6046.645899999977,6045.637799999952,6046.146000000001,6043.571399999976,6045.637700000048,6046.645899999977,6047.145799999953,6047.145799999953,6049.437399999976,1331.0,6049.437399999976,5.0,6049.442399999976,8.0,10.0,250.0,1.0,1.0,1.0,0.3,Time
,,S22,994851,1,女,19,anonymized,Serial_Dependence_U,2023.2.3,Win32,120.48192771085394,,,,,,6049.442600000024,33.0,8.0,6049.442700000048,33.0,,,,6053.587799999953,6054.087600000024,6053.079600000024,6053.587799999953,6050.446100000024,6053.079600000024,6054.087600000024,6054.587399999977,6054.587399999977,6057.870700000048,1634.0,6057.870700000048,3.0,6057.8755,8.0,11.0,251.0,9.0,1.0,1.6,0.7,Time
,,S22,994851,1,女,19,anonymized,Serial_Dependence_U,2023.2.3,Win32,120.48192771085394,,,,,,6057.875600000024,69.0,8.0,6057.875600000024,69.0,,,,6061.854200000048,6062.354,6061.346299999953,6061.854200000048,6058.8795,6061.346200000048,6062.354,6062.854200000048,6062.854299999953,6065.9872999999525,1705.0,6065.987399999976,4.0,6065.992100000024,8.0,12.0,252.0,3.0,1.0,1.4,0.3,Time
