Scale_setup.started,Scale_setup.stopped,participant,session,sex,age,date,expName,psychopyVersion,OS,frameRate,screen_scale_keys.started,screen_scale_keys.stopped,X Scale,Y Scale,rectangel_keys.started,rectangel_keys.stopped,Intro.started,Intro.stopped,key_resp_2.keys,key_resp_2.rt,key_resp_2.duration,block.started,Block_id,block.stopped,Block_resp_2.keys,Block_resp_2.rt,Block_resp_2.duration,ITI.started,ITI.stopped,Mask_2.started,Mask_2.stopped,M2.started,direction,M2.stopped,Cue.started,Cue.stopped,Response.started,Response.stopped,keyDuration,Feedback_Time.started,FeedbackID_T,Feedback_Time.stopped,trials.thisRepN,trials.thisTrialN,trials.thisN,trials.thisIndex,trials.ran,TimeDur,Coherence1,TrialType
0.0005,0.0011,S24,1,,,anonymized,Serial_Dependence_U,2023.2.3,Win32,59.88023952,,,,,,,,,,,,,,,,,,,,,,,,,,,,,,,,,,,,,,,,
,,S24,1,,,anonymized,Serial_Dependence_U,2023.2.3,Win32,59.88023952,0.0061,45.7354,0.0624,0.0597,45.7356,61.6845,61.6853,113.3759,space,51.6233,,,,,,,,,,,,,,,,,,,,,,,,,,,,,,
,,S24,1,,,anonymized,Serial_Dependence_U,2023.2.3,Win32,59.88023952,,,,,,,,,,,,113.3867,0.0,121.6915,s,8.2703,,124.0456,124.5405,123.5255,124.0454,122.7106,245.0,123.5253,124.5409,125.0413,125.0427,131.0585,9999.0,131.0596,0.0,132.0561,0.0,0.0,0.0,25.0,1.0,0.8,0.7,Time
,,S24,1,,,anonymized,Serial_Dependence_U,2023.2.3,Win32,59.88023952,,,,,,,,,,,,132.0568,0.0,132.06,,,,134.4062,134.9055,133.8902,134.406,133.074,109.0,133.8899,134.9056,135.4055,135.4055,141.4227,9999.0,141.423,0.0,142.4212,0.0,1.0,1.0,5.0,1.0,0.8,0.7,Time
,,S24,1,,,anonymized,Serial_Dependence_U,2023.2.3,Win32,59.88023952,,,,,,,,,,,,142.4227,0.0,142.4231,,,,145.5554,146.0544,145.0386,145.5552,143.4262,95.0,145.0383,146.0545,146.5537,146.5537,152.5557,9999.0,152.5562,0.0,153.5534,0.0,2.0,2.0,24.0,1.0,1.6,0.3,Time
,,S24,1,,,anonymized,Serial_Dependence_U,2023.2.3,Win32,59.88023952,,,,,,,,,,,,153.5543,0.0,153.5547,,,,156.5089,157.003,155.9914,156.5088,154.5712,13.0,155.9911,157.0031,157.5025,157.5028,163.5269,9999.0,163.5273,0.0,164.518,0.0,3.0,3.0,13.0,1.0,1.4,0.3,Time
,,S24,1,,,anonymized,Serial_Dependence_U,2023.2.3,Win32,59.88023952,,,,,,,,,,,,164.5197,0.0,164.5204,,,,167.0693,167.5676,166.553,167.069,165.5358,280.0,166.5527,167.5677,168.0673,168.0674,174.0843,9999.0,174.0849,0.0,175.0874,0.0,4.0,4.0,16.0,1.0,1.0,0.7,Time
,,S24,1,,,anonymized,Serial_Dependence_U,2023.2.3,Win32,59.88023952,,,,,,,,,,,,175.0882,0.0,175.0885,,,,177.4173,177.906,176.9015,177.417,176.0908,218.0,176.9013,177.906,178.3997,178.3999,184.4153,9999.0,184.4157,0.0,185.4042,0.0,5.0,5.0,20.0,1.0,0.8,0.3,Time
,,S24,1,,,anonymized,Serial_Dependence_U,2023.2.3,Win32,59.88023952,,,,,,,,,,,,185.4046,0.0,185.4048,,,,188.1329,188.6318,187.6233,188.1326,186.4201,197.0,187.623,188.6318,189.12,189.1201,195.1315,9999.0,195.132,0.0,196.1299,0.0,6.0,6.0,22.0,1.0,1.2,0.3,Time
,,S24,1,,,anonymized,Serial_Dependence_U,2023.2.3,Win32,59.88023952,,,,,,,,,,,,196.131,0.0,196.1317,,,,199.08,199.5801,198.5642,199.0799,197.1485,82.0,198.5639,199.5802,200.0699,200.07,206.0799,9999.0,206.0804,0.0,207.0787,0.0,7.0,7.0,3.0,1.0,1.4,0.3,Time
,,S24,1,,,anonymized,Serial_Dependence_U,2023.2.3,Win32,59.88023952,,,,,,,,,,,,207.0794,0.0,207.0798,,,,209.6135,210.1116,209.0976,209.6134,208.0956,9.0,209.0974,210.1117,210.6014,210.6015,216.613,9999.0,216.6135,0.0,217.61,0.0,8.0,8.0,1.0,1.0,1.0,0.3,Time
,,S24,1,,,anonymized,Serial_Dependence_U,2023.2.3,Win32,59.88023952,,,,,,,,,,,,217.6106,0.0,217.6108,,,,220.7611,221.26,220.2444,220.7609,218.6273,337.0,220.2442,221.2601,221.7603,221.7604,227.7772,9999.0,227.7776,0.0,228.7759,0.0,9.0,9.0,4.0,1.0,1.6,0.3,Time
,,S24,1,,,anonymized,Serial_Dependence_U,2023.2.3,Win32,59.88023952,,,,,,,,,,,,228.7771,0.0,228.7776,,,,231.9255,232.414,231.4102,231.9254,229.7989,61.0,231.41,232.414,232.9081,232.9081,238.9257,9999.0,238.9262,0.0,239.9237,0.0,10.0,10.0,9.0,1.0,1.6,0.7,Time
,,S24,1,,,anonymized,Serial_Dependence_U,2023.2.3,Win32,59.88023952,,,,,,,,,,,,239.9246,0.0,239.9251,,,,242.6797,243.1733,242.1575,242.6795,240.9422,63.0,242.1574,243.1733,243.6731,243.6732,249.6905,9999.0,249.6909,0.0,250.6895,0.0,11.0,11.0,12.0,1.0,1.2,0.3,Time
,,S24,1,,,anonymized,Serial_Dependence_U,2023.2.3,Win32,59.88023952,,,,,,,,,,,,250.691,0.0,250.6914,,,,253.0412,253.5385,252.5263,253.0405,251.7105,88.0,252.5262,253.5386,254.0279,254.028,260.0303,9999.0,260.0306,0.0,261.0216,0.0,12.0,12.0,10.0,1.0,0.8,0.3,Time
,,S24,1,,,anonymized,Serial_Dependence_U,2023.2.3,Win32,59.88023952,,,,,,,,,,,,261.0226,0.0,261.023,,,,263.7544,264.2541,263.2387,263.7543,262.0225,254.0,263.2386,264.2541,264.7541,264.7541,270.7698,9999.0,270.77,0.0,271.7698,0.0,13.0,13.0,27.0,1.0,1.2,0.7,Time
,,S24,1,,,anonymized,Serial_Dependence_U,2023.2.3,Win32,59.88023952,,,,,,,,,,,,271.7706,0.0,271.7709,,,,274.52,275.0189,274.0031,274.5198,272.7868,159.0,274.003,275.0189,275.5188,275.5188,281.5349,9999.0,281.5351,0.0,282.5351,0.0,14.0,14.0,17.0,1.0,1.2,0.7,Time
,,S24,1,,,anonymized,Serial_Dependence_U,2023.2.3,Win32,59.88023952,,,,,,,,,,,,282.536,0.0,282.5362,,,,285.4863,285.9844,284.9688,285.4861,283.5515,185.0,284.9688,285.9844,286.4848,286.4848,292.5001,9999.0,292.5003,0.0,293.4995,0.0,15.0,15.0,18.0,1.0,1.4,0.7,Time
,,S24,1,,,anonymized,Serial_Dependence_U,2023.2.3,Win32,59.88023952,,,,,,,,,,,,293.5,0.0,293.5002,,,,296.0497,296.5495,295.5335,296.0495,294.5172,10.0,295.5334,296.5495,297.0497,297.0499,303.0656,9999.0,303.066,0.0,304.0648,0.0,16.0,16.0,26.0,1.0,1.0,0.7,Time
,,S24,1,,,anonymized,Serial_Dependence_U,2023.2.3,Win32,59.88023952,,,,,,,,,,,,304.0655,0.0,304.0659,,,,306.399,306.8983,305.8826,306.3989,305.0656,337.0,305.8824,306.8985,307.3983,307.3984,313.4147,9999.0,313.4151,0.0,314.414,0.0,17.0,17.0,0.0,1.0,0.8,0.3,Time
,,S24,1,,,anonymized,Serial_Dependence_U,2023.2.3,Win32,59.88023952,,,,,,,,,,,,314.4148,0.0,314.4151,,,,316.7636,317.2627,316.2466,316.7635,315.4303,136.0,316.2465,317.2628,317.7628,317.7628,323.7802,9999.0,323.7807,0.0,324.7791,0.0,18.0,18.0,15.0,1.0,0.8,0.7,Time
,,S24,1,,,anonymized,Serial_Dependence_U,2023.2.3,Win32,59.88023952,,,,,,,,,,,,324.7798,0.0,324.7802,,,,327.7289,328.2279,327.212,327.7288,325.797,250.0,327.2119,328.228,328.7284,328.7285,334.745,9999.0,334.7453,0.0,335.7444,0.0,19.0,19.0,28.0,1.0,1.4,0.7,Time
,,S24,1,,,anonymized,Serial_Dependence_U,2023.2.3,Win32,59.88023952,,,,,,,,,,,,335.7456,0.0,335.7459,,,,338.4948,338.9939,337.9781,338.4946,336.7606,319.0,337.978,338.9939,339.4929,339.493,345.5091,9999.0,345.5093,0.0,346.5085,0.0,20.0,20.0,7.0,1.0,1.2,0.7,Time
,,S24,1,,,anonymized,Serial_Dependence_U,2023.2.3,Win32,59.88023952,,,,,,,,,,,,346.509,0.0,346.5093,,,,349.4595,349.9587,348.9432,349.4593,347.5261,232.0,348.9431,349.9587,350.4585,350.4586,356.4757,9999.0,356.4761,0.0,357.4746,0.0,21.0,21.0,8.0,1.0,1.4,0.7,Time
,,S24,1,,,anonymized,Serial_Dependence_U,2023.2.3,Win32,59.88023952,,,,,,,,,,,,357.4755,0.0,357.4758,,,,360.425,360.9232,359.9081,360.4249,358.4914,9.0,359.9079,360.9233,361.4232,361.4232,367.4394,9999.0,367.4396,0.0,368.439,0.0,22.0,22.0,23.0,1.0,1.4,0.3,Time
,,S24,1,,,anonymized,Serial_Dependence_U,2023.2.3,Win32,59.88023952,,,,,,,,,,,,368.4397,0.0,368.4401,,,,371.5895,372.0884,371.0724,371.5894,369.4562,47.0,371.0723,372.0884,372.5881,372.5881,378.6045,9999.0,378.6047,0.0,379.6041,0.0,23.0,23.0,29.0,1.0,1.6,0.7,Time
,,S24,1,,,anonymized,Serial_Dependence_U,2023.2.3,Win32,59.88023952,,,,,,,,,,,,379.6048,0.0,379.6051,,,,382.155,382.6538,381.6387,382.1549,380.622,78.0,381.6384,382.6538,383.1539,383.154,389.1696,9999.0,389.1698,0.0,390.1691,0.0,24.0,24.0,11.0,1.0,1.0,0.3,Time
,,S24,1,,,anonymized,Serial_Dependence_U,2023.2.3,Win32,59.88023952,,,,,,,,,,,,390.1698,0.0,390.1702,,,,392.9034,393.4018,392.3867,392.9032,391.1859,117.0,392.3866,393.4018,393.902,393.9021,399.9184,9999.0,399.9186,0.0,400.9181,0.0,25.0,25.0,2.0,1.0,1.2,0.3,Time
,,S24,1,,,anonymized,Serial_Dependence_U,2023.2.3,Win32,59.88023952,,,,,,,,,,,,400.9192,0.0,400.9197,,,,403.4513,403.9503,402.9344,403.4512,401.9188,28.0,402.9343,403.9503,404.4503,404.4503,410.4675,9999.0,410.4678,0.0,411.4659,0.0,26.0,26.0,6.0,1.0,1.0,0.7,Time
,,S24,1,,,anonymized,Serial_Dependence_U,2023.2.3,Win32,59.88023952,,,,,,,,,,,,411.4664,0.0,411.4666,,,,414.6172,415.1154,414.1,414.617,412.4834,261.0,414.0998,415.1155,415.6152,415.6154,421.6323,9999.0,421.6328,0.0,422.6312,0.0,27.0,27.0,19.0,1.0,1.6,0.7,Time
,,S24,1,,,anonymized,Serial_Dependence_U,2023.2.3,Win32,59.88023952,,,,,,,,,,,,422.6319,0.0,422.6322,,,,425.182,425.6808,424.6649,425.1818,423.6484,145.0,424.6648,425.6808,426.1807,426.1807,432.1819,9999.0,432.1823,0.0,433.1794,0.0,28.0,28.0,21.0,1.0,1.0,0.3,Time
,,S24,1,,,anonymized,Serial_Dependence_U,2023.2.3,Win32,59.88023952,,,,,,,,,,,,433.18,0.0,433.1801,,,,436.3303,436.8292,435.814,436.3301,434.198,97.0,435.8138,436.8293,437.329,437.329,443.3457,9999.0,443.3462,0.0,444.3448,0.0,29.0,29.0,14.0,1.0,1.6,0.3,Time
,,S24,1,,,anonymized,Serial_Dependence_U,2023.2.3,Win32,59.88023952,,,,,,,,,,,,444.3455,1.0,451.2104,s,6.8322,,454.1606,454.6598,453.6438,454.1604,452.2274,211.0,453.6436,454.6599,455.1596,455.1597,461.1607,9999.0,461.1611,0.0,462.1589,1.0,0.0,30.0,18.0,1.0,1.4,0.7,Time
,,S24,1,,,anonymized,Serial_Dependence_U,2023.2.3,Win32,59.88023952,,,,,,,,,,,,462.1595,1.0,462.1631,,,,465.3087,465.8083,464.7923,465.3086,463.1761,284.0,464.7922,465.8084,466.3087,466.3088,472.3252,9999.0,472.3256,0.0,473.3249,1.0,1.0,31.0,19.0,1.0,1.6,0.7,Time
,,S24,1,,,anonymized,Serial_Dependence_U,2023.2.3,Win32,59.88023952,,,,,,,,,,,,473.326,1.0,473.3264,,,,476.0743,476.5745,475.5573,476.0742,474.3413,150.0,475.5573,476.5746,477.0744,477.0745,483.0903,9999.0,483.0906,0.0,484.0898,1.0,2.0,32.0,17.0,1.0,1.2,0.7,Time
,,S24,1,,,anonymized,Serial_Dependence_U,2023.2.3,Win32,59.88023952,,,,,,,,,,,,484.0909,1.0,484.0913,,,,486.4239,486.9225,485.9227,486.4237,485.107,307.0,485.9226,486.9227,487.4223,487.4224,493.438,9999.0,493.4383,0.0,494.4378,1.0,3.0,33.0,25.0,1.0,0.8,0.7,Time
,,S24,1,,,anonymized,Serial_Dependence_U,2023.2.3,Win32,59.88023952,,,,,,,,,,,,494.4382,1.0,494.4384,,,,497.1887,497.6875,496.672,497.1885,495.4551,77.0,496.6719,497.6876,498.1878,498.1878,504.2045,9999.0,504.2049,0.0,505.2027,1.0,4.0,34.0,2.0,1.0,1.2,0.3,Time
,,S24,1,,,anonymized,Serial_Dependence_U,2023.2.3,Win32,59.88023952,,,,,,,,,,,,505.2033,1.0,505.2036,,,,507.7533,508.253,507.2363,507.7531,506.2204,317.0,507.2363,508.253,508.7525,508.7525,514.7694,9999.0,514.7697,0.0,515.768,1.0,5.0,35.0,26.0,1.0,1.0,0.7,Time
,,S24,1,,,anonymized,Serial_Dependence_U,2023.2.3,Win32,59.88023952,,,,,,,,,,,,515.7684,1.0,515.7687,,,,518.5179,519.0175,518.0013,518.5178,516.7848,60.0,518.0012,519.0175,519.5174,519.5174,525.5346,9999.0,525.5349,0.0,526.5332,1.0,6.0,36.0,12.0,1.0,1.2,0.3,Time
,,S24,1,,,anonymized,Serial_Dependence_U,2023.2.3,Win32,59.88023952,,,,,,,,,,,,526.5342,1.0,526.5346,,,,528.8676,529.366,528.3664,528.8674,527.5502,212.0,528.3663,529.366,529.8658,529.8659,535.8819,9999.0,535.8822,0.0,536.8813,1.0,7.0,37.0,0.0,1.0,0.8,0.3,Time
,,S24,1,,,anonymized,Serial_Dependence_U,2023.2.3,Win32,59.88023952,,,,,,,,,,,,536.8819,1.0,536.8822,,,,539.4209,539.9142,538.9031,539.4208,537.8828,131.0,538.903,539.9142,540.4141,540.4141,546.4356,9999.0,546.4358,0.0,547.4303,1.0,8.0,38.0,16.0,1.0,1.0,0.7,Time
,,S24,1,,,anonymized,Serial_Dependence_U,2023.2.3,Win32,59.88023952,,,,,,,,,,,,547.4315,1.0,547.4319,,,,550.5868,551.0799,550.067,550.5866,548.4541,0.0,550.0669,551.0801,551.5793,551.5794,557.5962,9999.0,557.5967,0.0,558.5956,1.0,9.0,39.0,14.0,1.0,1.6,0.3,Time
,,S24,1,,,anonymized,Serial_Dependence_U,2023.2.3,Win32,59.88023952,,,,,,,,,,,,558.597,1.0,558.5974,,,,561.5349,562.0278,561.0301,561.5348,559.6132,196.0,561.0298,562.0278,562.5283,562.5283,568.5438,9999.0,568.5441,0.0,569.5437,1.0,10.0,40.0,3.0,1.0,1.4,0.3,Time
,,S24,1,,,anonymized,Serial_Dependence_U,2023.2.3,Win32,59.88023952,,,,,,,,,,,,569.5443,1.0,569.5445,,,,572.2836,572.7824,571.7609,572.2835,570.5519,343.0,571.7607,572.7825,573.2823,573.2824,579.2941,9999.0,579.2945,0.0,580.2924,1.0,11.0,41.0,27.0,1.0,1.2,0.7,Time
,,S24,1,,,anonymized,Serial_Dependence_U,2023.2.3,Win32,59.88023952,,,,,,,,,,,,580.294,1.0,580.2944,,,,583.4431,583.9414,582.9262,583.4428,581.31,6.0,582.9259,583.9414,584.4416,584.4416,590.4581,9999.0,590.4588,0.0,591.4569,1.0,12.0,42.0,9.0,1.0,1.6,0.7,Time
,,S24,1,,,anonymized,Serial_Dependence_U,2023.2.3,Win32,59.88023952,,,,,,,,,,,,591.4576,1.0,591.458,,,,593.7912,594.2801,593.2746,593.791,592.4614,154.0,593.2744,594.2802,594.7808,594.7809,600.7906,9999.0,600.791,0.0,601.789,1.0,13.0,43.0,20.0,1.0,0.8,0.3,Time
,,S24,1,,,anonymized,Serial_Dependence_U,2023.2.3,Win32,59.88023952,,,,,,,,,,,,601.7898,1.0,601.7901,,,,604.3392,604.8275,603.8262,604.3391,602.8118,28.0,603.826,604.8275,605.3217,605.3217,611.3238,9999.0,611.3241,0.0,612.3205,1.0,14.0,44.0,21.0,1.0,1.0,0.3,Time
,,S24,1,,,anonymized,Serial_Dependence_U,2023.2.3,Win32,59.88023952,,,,,,,,,,,,612.3217,1.0,612.3226,,,,615.2548,615.7533,614.743,615.2546,613.327,359.0,614.7428,615.7533,616.2422,616.2423,622.2541,9999.0,622.2544,0.0,623.2528,1.0,15.0,45.0,23.0,1.0,1.4,0.3,Time
,,S24,1,,,anonymized,Serial_Dependence_U,2023.2.3,Win32,59.88023952,,,,,,,,,,,,623.2537,1.0,623.2541,,,,626.3763,626.8687,625.8713,626.3762,624.2694,245.0,625.8711,626.8688,627.3693,627.3695,633.386,9999.0,633.3863,0.0,634.3845,1.0,16.0,46.0,4.0,1.0,1.6,0.3,Time
,,S24,1,,,anonymized,Serial_Dependence_U,2023.2.3,Win32,59.88023952,,,,,,,,,,,,634.3854,1.0,634.3858,,,,637.5182,638.0173,637.009,637.518,635.4023,33.0,637.0088,638.0175,638.5176,638.5177,644.5341,9999.0,644.5346,0.0,645.533,1.0,17.0,47.0,29.0,1.0,1.6,0.7,Time
,,S24,1,,,anonymized,Serial_Dependence_U,2023.2.3,Win32,59.88023952,,,,,,,,,,,,645.5337,1.0,645.534,,,,648.4837,648.9827,647.9671,648.4835,646.551,2.0,647.967,648.9827,649.4822,649.4822,655.4994,9999.0,655.4998,0.0,656.4981,1.0,18.0,48.0,28.0,1.0,1.4,0.7,Time
,,S24,1,,,anonymized,Serial_Dependence_U,2023.2.3,Win32,59.88023952,,,,,,,,,,,,656.4992,1.0,656.4996,,,,659.0323,659.5305,658.5161,659.0323,657.4992,160.0,658.5159,659.5305,660.0312,660.0313,666.0479,9999.0,666.0482,0.0,667.0473,1.0,19.0,49.0,1.0,1.0,1.0,0.3,Time
,,S24,1,,,anonymized,Serial_Dependence_U,2023.2.3,Win32,59.88023952,,,,,,,,,,,,667.0481,1.0,667.0485,,,,669.7813,670.2797,669.2797,669.7811,668.0642,38.0,669.2796,670.2798,670.7796,670.7797,676.7961,9999.0,676.7965,0.0,677.7954,1.0,20.0,50.0,22.0,1.0,1.2,0.3,Time
,,S24,1,,,anonymized,Serial_Dependence_U,2023.2.3,Win32,59.88023952,,,,,,,,,,,,677.7963,1.0,677.7967,,,,680.7448,681.2441,680.2281,680.7447,678.8119,339.0,680.228,681.2441,681.744,681.7442,687.7454,9999.0,687.7457,0.0,688.7439,1.0,21.0,51.0,13.0,1.0,1.4,0.3,Time
,,S24,1,,,anonymized,Serial_Dependence_U,2023.2.3,Win32,59.88023952,,,,,,,,,,,,688.7448,1.0,688.7451,,,,691.0945,691.5939,690.5777,691.0943,689.761,176.0,690.5774,691.5939,692.0932,692.0933,698.1097,9999.0,698.11,0.0,699.1088,1.0,22.0,52.0,10.0,1.0,0.8,0.3,Time
,,S24,1,,,anonymized,Serial_Dependence_U,2023.2.3,Win32,59.88023952,,,,,,,,,,,,699.1097,1.0,699.11,,,,701.4597,701.9587,700.943,701.4595,700.1269,356.0,700.9428,701.9588,702.4583,702.4584,708.4739,9999.0,708.4742,0.0,709.4734,1.0,23.0,53.0,15.0,1.0,0.8,0.7,Time
,,S24,1,,,anonymized,Serial_Dependence_U,2023.2.3,Win32,59.88023952,,,,,,,,,,,,709.474,1.0,709.4743,,,,711.8081,712.307,711.2913,711.8079,710.4903,24.0,711.2911,712.307,712.8071,712.8072,718.823,9999.0,718.8231,0.0,719.8227,1.0,24.0,54.0,5.0,1.0,0.8,0.7,Time
,,S24,1,,,anonymized,Serial_Dependence_U,2023.2.3,Win32,59.88023952,,,,,,,,,,,,719.8239,1.0,719.8244,,,,722.7732,723.2723,722.2568,722.7731,720.8402,140.0,722.2566,723.2724,723.7715,723.7715,729.7889,9999.0,729.7892,0.0,730.787,1.0,25.0,55.0,8.0,1.0,1.4,0.7,Time
,,S24,1,,,anonymized,Serial_Dependence_U,2023.2.3,Win32,59.88023952,,,,,,,,,,,,730.7876,1.0,730.7877,,,,733.3373,733.8366,732.8205,733.3371,731.8054,251.0,732.8204,733.8367,734.3366,734.3366,740.354,9999.0,740.3543,0.0,741.3523,1.0,26.0,56.0,6.0,1.0,1.0,0.7,Time
,,S24,1,,,anonymized,Serial_Dependence_U,2023.2.3,Win32,59.88023952,,,,,,,,,,,,741.3526,1.0,741.3527,,,,743.893,744.3908,743.3761,743.8928,742.3607,305.0,743.3759,744.3909,744.8913,744.8914,750.8941,9999.0,750.8945,0.0,751.8901,1.0,27.0,57.0,11.0,1.0,1.0,0.3,Time
,,S24,1,,,anonymized,Serial_Dependence_U,2023.2.3,Win32,59.88023952,,,,,,,,,,,,751.8906,1.0,751.8908,,,,754.6188,755.1176,754.1034,754.6186,752.9019,328.0,754.1033,755.1177,755.6169,755.6169,761.6338,9999.0,761.6341,0.0,762.6332,1.0,28.0,58.0,7.0,1.0,1.2,0.7,Time
,,S24,1,,,anonymized,Serial_Dependence_U,2023.2.3,Win32,59.88023952,,,,,,,,,,,,762.634,1.0,762.6344,,,,765.7727,766.2713,765.2555,765.7726,763.6506,133.0,765.2554,766.2714,766.7657,766.7658,772.7823,9999.0,772.7827,0.0,773.7817,1.0,29.0,59.0,24.0,1.0,1.6,0.3,Time
,,S24,1,,,anonymized,Serial_Dependence_U,2023.2.3,Win32,59.88023952,,,,,,,,,,,,773.7828,2.0,781.0473,s,7.2403,,783.787,784.2797,783.2679,783.7868,782.0637,35.0,783.2677,784.2798,784.7793,784.7793,790.7968,9999.0,790.7971,0.0,791.7957,2.0,0.0,60.0,27.0,1.0,1.2,0.7,Time
,,S24,1,,,anonymized,Serial_Dependence_U,2023.2.3,Win32,59.88023952,,,,,,,,,,,,791.7966,2.0,791.7998,,,,794.7344,795.2285,794.2298,794.7343,792.8129,339.0,794.2295,795.2286,795.7284,795.7285,801.7441,9999.0,801.7443,0.0,802.7438,2.0,1.0,61.0,13.0,1.0,1.4,0.3,Time
,,S24,1,,,anonymized,Serial_Dependence_U,2023.2.3,Win32,59.88023952,,,,,,,,,,,,802.7454,2.0,802.7458,,,,805.6681,806.1598,805.1607,805.6679,803.7499,3.0,805.1605,806.1599,806.6597,806.6599,812.6822,9999.0,812.6826,0.0,813.6757,2.0,2.0,62.0,18.0,1.0,1.4,0.7,Time
,,S24,1,,,anonymized,Serial_Dependence_U,2023.2.3,Win32,59.88023952,,,,,,,,,,,,813.677,2.0,813.6776,,,,816.2146,816.7085,815.6934,816.2144,814.6771,244.0,815.6931,816.7085,817.2121,817.2122,823.2243,9999.0,823.2244,0.0,824.224,2.0,3.0,63.0,6.0,1.0,1.0,0.7,Time
,,S24,1,,,anonymized,Serial_Dependence_U,2023.2.3,Win32,59.88023952,,,,,,,,,,,,824.2246,2.0,824.2251,,,,826.5585,827.0569,826.0421,826.5583,825.2408,181.0,826.042,827.057,827.5625,827.5626,833.5734,9999.0,833.5738,0.0,834.5728,2.0,4.0,64.0,0.0,1.0,0.8,0.3,Time
,,S24,1,,,anonymized,Serial_Dependence_U,2023.2.3,Win32,59.88023952,,,,,,,,,,,,834.574,2.0,834.5744,,,,836.9228,837.4217,836.4058,836.9227,835.5892,291.0,836.4057,837.4217,837.9218,837.9218,843.9385,9999.0,843.9387,0.0,844.9382,2.0,5.0,65.0,15.0,1.0,0.8,0.7,Time
,,S24,1,,,anonymized,Serial_Dependence_U,2023.2.3,Win32,59.88023952,,,,,,,,,,,,844.9389,2.0,844.9393,,,,848.0773,848.5757,847.5618,848.0772,845.9445,251.0,847.5617,848.5757,849.0763,849.0764,855.0787,9999.0,855.0791,0.0,856.0764,2.0,6.0,66.0,4.0,1.0,1.6,0.3,Time
,,S24,1,,,anonymized,Serial_Dependence_U,2023.2.3,Win32,59.88023952,,,,,,,,,,,,856.0772,2.0,856.0775,,,,859.2201,859.7187,858.7037,859.2199,857.0953,286.0,858.7035,859.7187,860.2186,860.2186,866.2415,9999.0,866.2418,0.0,867.2352,2.0,7.0,67.0,19.0,1.0,1.6,0.7,Time
,,S24,1,,,anonymized,Serial_Dependence_U,2023.2.3,Win32,59.88023952,,,,,,,,,,,,867.2362,2.0,867.2367,,,,869.7692,870.2677,869.2582,869.7689,868.2524,43.0,869.2581,870.2678,870.7721,870.7722,876.7843,9999.0,876.7847,0.0,877.7833,2.0,8.0,68.0,16.0,1.0,1.0,0.7,Time
,,S24,1,,,anonymized,Serial_Dependence_U,2023.2.3,Win32,59.88023952,,,,,,,,,,,,877.7847,2.0,877.7856,,,,880.1228,880.6163,879.6172,880.1227,878.8007,335.0,879.617,880.6164,881.1228,881.1229,887.132,9999.0,887.1323,0.0,888.1312,2.0,9.0,69.0,20.0,1.0,0.8,0.3,Time
,,S24,1,,,anonymized,Serial_Dependence_U,2023.2.3,Win32,59.88023952,,,,,,,,,,,,888.1319,2.0,888.1323,,,,891.0661,891.5647,890.5498,891.0659,889.1389,157.0,890.5492,891.5647,892.0704,892.0705,898.0864,9999.0,898.0867,0.0,899.0852,2.0,10.0,70.0,8.0,1.0,1.4,0.7,Time
,,S24,1,,,anonymized,Serial_Dependence_U,2023.2.3,Win32,59.88023952,,,,,,,,,,,,899.0858,2.0,899.0861,,,,901.631,902.1298,901.1146,901.6308,900.0982,273.0,901.1143,902.13,902.6297,902.6298,908.6519,9999.0,908.6522,0.0,909.6448,2.0,11.0,71.0,26.0,1.0,1.0,0.7,Time
,,S24,1,,,anonymized,Serial_Dependence_U,2023.2.3,Win32,59.88023952,,,,,,,,,,,,909.6455,2.0,909.6458,,,,912.5793,913.0782,912.063,912.5792,910.6619,331.0,912.0627,913.0783,913.5815,913.5816,919.595,9999.0,919.5954,0.0,920.5937,2.0,12.0,72.0,28.0,1.0,1.4,0.7,Time
,,S24,1,,,anonymized,Serial_Dependence_U,2023.2.3,Win32,59.88023952,,,,,,,,,,,,920.5948,2.0,920.5954,,,,923.7281,924.2265,923.2114,923.7279,921.6016,51.0,923.2112,924.2265,924.7269,924.727,930.7424,9999.0,930.7428,0.0,931.7424,2.0,13.0,73.0,9.0,1.0,1.6,0.7,Time
,,S24,1,,,anonymized,Serial_Dependence_U,2023.2.3,Win32,59.88023952,,,,,,,,,,,,931.7431,2.0,931.7434,,,,934.0836,934.5749,933.5597,934.0833,932.7435,45.0,933.5595,934.575,935.0791,935.0792,941.0916,9999.0,941.092,0.0,942.091,2.0,14.0,74.0,5.0,1.0,0.8,0.7,Time
,,S24,1,,,anonymized,Serial_Dependence_U,2023.2.3,Win32,59.88023952,,,,,,,,,,,,942.0918,2.0,942.0921,,,,944.6243,945.1239,944.1083,944.6241,943.0964,348.0,944.1081,945.1239,945.6232,945.6233,951.6397,9999.0,951.64,0.0,952.6387,2.0,15.0,75.0,11.0,1.0,1.0,0.3,Time
,,S24,1,,,anonymized,Serial_Dependence_U,2023.2.3,Win32,59.88023952,,,,,,,,,,,,952.6393,2.0,952.6394,,,,955.373,955.8722,954.857,955.3728,953.6435,6.0,954.8568,955.8722,956.3615,956.3615,962.3714,9999.0,962.3718,0.0,963.3734,2.0,16.0,76.0,12.0,1.0,1.2,0.3,Time
,,S24,1,,,anonymized,Serial_Dependence_U,2023.2.3,Win32,59.88023952,,,,,,,,,,,,963.3739,2.0,963.3742,,,,966.122,966.6207,965.6049,966.1217,964.3877,207.0,965.6048,966.6208,967.1206,967.1207,973.1375,9999.0,973.138,0.0,974.1363,2.0,17.0,77.0,2.0,1.0,1.2,0.3,Time
,,S24,1,,,anonymized,Serial_Dependence_U,2023.2.3,Win32,59.88023952,,,,,,,,,,,,974.1373,2.0,974.138,,,,977.2701,977.7684,976.7577,977.27,975.1426,333.0,976.7574,977.7685,978.2736,978.2736,984.2765,9999.0,984.2769,0.0,985.2674,2.0,18.0,78.0,29.0,1.0,1.6,0.7,Time
,,S24,1,,,anonymized,Serial_Dependence_U,2023.2.3,Win32,59.88023952,,,,,,,,,,,,985.2686,2.0,985.2692,,,,988.0215,988.5172,987.5019,988.0214,986.2893,207.0,987.5017,988.5173,989.0172,989.0172,995.0391,9999.0,995.0395,0.0,996.0329,2.0,19.0,79.0,7.0,1.0,1.2,0.7,Time
,,S24,1,,,anonymized,Serial_Dependence_U,2023.2.3,Win32,59.88023952,,,,,,,,,,,,996.0336,2.0,996.0339,,,,998.7835,999.2823,998.2669,998.7833,997.0584,257.0,998.2667,999.2824,999.7824,999.7825,1005.7997,9999.0,1005.8,0.0,1006.7977,2.0,20.0,80.0,22.0,1.0,1.2,0.3,Time
,,S24,1,,,anonymized,Serial_Dependence_U,2023.2.3,Win32,59.88023952,,,,,,,,,,,,1006.7984,2.0,1006.7988,,,,1009.7477,1010.2541,1009.238,1009.7476,1007.8149,214.0,1009.2378,1010.2542,1010.7471,1010.7471,1016.7642,9999.0,1016.7646,0.0,1017.7635,2.0,21.0,81.0,3.0,1.0,1.4,0.3,Time
,,S24,1,,,anonymized,Serial_Dependence_U,2023.2.3,Win32,59.88023952,,,,,,,,,,,,1017.7643,2.0,1017.7645,,,,1020.8849,1021.3791,1020.3812,1020.8847,1018.7738,67.0,1020.3808,1021.3792,1021.8795,1021.8795,1027.8957,9999.0,1027.8961,0.0,1028.8951,2.0,22.0,82.0,14.0,1.0,1.6,0.3,Time
,,S24,1,,,anonymized,Serial_Dependence_U,2023.2.3,Win32,59.88023952,,,,,,,,,,,,1028.8958,2.0,1028.8962,,,,1032.0458,1032.5449,1031.5293,1032.0455,1029.9132,3.0,1031.529,1032.5449,1033.0451,1033.0452,1039.0603,9999.0,1039.0605,0.0,1040.06,2.0,23.0,83.0,24.0,1.0,1.6,0.3,Time
,,S24,1,,,anonymized,Serial_Dependence_U,2023.2.3,Win32,59.88023952,,,,,,,,,,,,1040.0608,2.0,1040.0611,,,,1042.611,1043.1097,1042.0944,1042.6108,1041.0775,142.0,1042.0942,1043.1097,1043.6099,1043.61,1049.6255,9999.0,1049.6257,0.0,1050.6247,2.0,24.0,84.0,21.0,1.0,1.0,0.3,Time
,,S24,1,,,anonymized,Serial_Dependence_U,2023.2.3,Win32,59.88023952,,,,,,,,,,,,1050.6253,2.0,1050.6255,,,,1053.5765,1054.0751,1053.0593,1053.5763,1051.6431,121.0,1053.0592,1054.0752,1054.5747,1054.5748,1060.591,9999.0,1060.5913,0.0,1061.5901,2.0,25.0,85.0,23.0,1.0,1.4,0.3,Time
,,S24,1,,,anonymized,Serial_Dependence_U,2023.2.3,Win32,59.88023952,,,,,,,,,,,,1061.5906,2.0,1061.591,,,,1064.34,1064.8397,1063.8234,1064.3399,1062.6073,106.0,1063.8233,1064.8399,1065.3394,1065.3394,1071.3565,9999.0,1071.3567,0.0,1072.356,2.0,26.0,86.0,17.0,1.0,1.2,0.7,Time
,,S24,1,,,anonymized,Serial_Dependence_U,2023.2.3,Win32,59.88023952,,,,,,,,,,,,1072.3568,2.0,1072.3572,,,,1074.7061,1075.2054,1074.1899,1074.706,1073.3731,358.0,1074.1898,1075.2054,1075.705,1075.7051,1081.7216,9999.0,1081.722,0.0,1082.7208,2.0,27.0,87.0,25.0,1.0,0.8,0.7,Time
,,S24,1,,,anonymized,Serial_Dependence_U,2023.2.3,Win32,59.88023952,,,,,,,,,,,,1082.7217,2.0,1082.722,,,,1085.0713,1085.5708,1084.5552,1085.0713,1083.7385,76.0,1084.555,1085.5709,1086.0705,1086.0706,1092.0865,9999.0,1092.0868,0.0,1093.0856,2.0,28.0,88.0,10.0,1.0,0.8,0.3,Time
,,S24,1,,,anonymized,Serial_Dependence_U,2023.2.3,Win32,59.88023952,,,,,,,,,,,,1093.0861,2.0,1093.0863,,,,1095.637,1096.1359,1095.1198,1095.6369,1094.1024,139.0,1095.1197,1096.136,1096.6359,1096.636,1102.6521,9999.0,1102.6525,0.0,1103.6513,2.0,29.0,89.0,1.0,1.0,1.0,0.3,Time
,,S24,1,,,anonymized,Serial_Dependence_U,2023.2.3,Win32,59.88023952,,,,,,,,,,,,1103.6522,3.0,1152.7448,s,49.0656,,1155.4947,1155.9941,1154.978,1155.4944,1153.7611,348.0,1154.9778,1155.9942,1156.4936,1156.4937,1162.5103,9999.0,1162.5106,0.0,1163.5093,3.0,0.0,90.0,12.0,1.0,1.2,0.3,Time
,,S24,1,,,anonymized,Serial_Dependence_U,2023.2.3,Win32,59.88023952,,,,,,,,,,,,1163.5101,3.0,1163.5132,,,,1165.8591,1166.3598,1165.3431,1165.859,1164.5264,155.0,1165.3429,1166.3599,1166.8587,1166.8588,1172.8746,9999.0,1172.8748,0.0,1173.8739,3.0,1.0,91.0,0.0,1.0,0.8,0.3,Time
,,S24,1,,,anonymized,Serial_Dependence_U,2023.2.3,Win32,59.88023952,,,,,,,,,,,,1173.8744,3.0,1173.8747,,,,1176.8085,1177.3068,1176.2919,1176.8083,1174.8909,257.0,1176.2917,1177.3068,1177.8066,1177.8066,1183.8233,9999.0,1183.8237,0.0,1184.8223,3.0,2.0,92.0,8.0,1.0,1.4,0.7,Time
,,S24,1,,,anonymized,Serial_Dependence_U,2023.2.3,Win32,59.88023952,,,,,,,,,,,,1184.8229,3.0,1184.8232,,,,1187.3727,1187.872,1186.8566,1187.3726,1185.8401,289.0,1186.8564,1187.8721,1188.3718,1188.3719,1194.388,9999.0,1194.3882,0.0,1195.3874,3.0,3.0,93.0,11.0,1.0,1.0,0.3,Time
,,S24,1,,,anonymized,Serial_Dependence_U,2023.2.3,Win32,59.88023952,,,,,,,,,,,,1195.3879,3.0,1195.3883,,,,1197.9222,1198.4203,1197.4059,1197.922,1196.3888,183.0,1197.4057,1198.4204,1198.9203,1198.9204,1204.9376,9999.0,1204.9379,0.0,1205.9368,3.0,4.0,94.0,1.0,1.0,1.0,0.3,Time
,,S24,1,,,anonymized,Serial_Dependence_U,2023.2.3,Win32,59.88023952,,,,,,,,,,,,1205.9376,3.0,1205.9379,,,,1209.0865,1209.5857,1208.5699,1209.0864,1206.9539,335.0,1208.5698,1209.5858,1210.0862,1210.0863,1216.1031,9999.0,1216.1034,0.0,1217.1018,3.0,5.0,95.0,14.0,1.0,1.6,0.3,Time
,,S24,1,,,anonymized,Serial_Dependence_U,2023.2.3,Win32,59.88023952,,,,,,,,,,,,1217.1026,3.0,1217.103,,,,1220.2509,1220.7505,1219.7344,1220.2508,1218.1188,20.0,1219.7343,1220.7505,1221.2505,1221.2506,1227.2676,9999.0,1227.268,0.0,1228.2668,3.0,6.0,96.0,4.0,1.0,1.6,0.3,Time
,,S24,1,,,anonymized,Serial_Dependence_U,2023.2.3,Win32,59.88023952,,,,,,,,,,,,1228.2678,3.0,1228.2683,,,,1230.8163,1231.3159,1230.3005,1230.8162,1229.2846,270.0,1230.3004,1231.316,1231.8156,1231.8156,1237.8318,9999.0,1237.832,0.0,1238.8315,3.0,7.0,97.0,21.0,1.0,1.0,0.3,Time
,,S24,1,,,anonymized,Serial_Dependence_U,2023.2.3,Win32,59.88023952,,,,,,,,,,,,1238.8321,3.0,1238.8326,,,,1241.5813,1242.0809,1241.0648,1241.5812,1239.8485,205.0,1241.0646,1242.0809,1242.5808,1242.5808,1248.5974,9999.0,1248.5976,0.0,1249.5964,3.0,8.0,98.0,7.0,1.0,1.2,0.7,Time
,,S24,1,,,anonymized,Serial_Dependence_U,2023.2.3,Win32,59.88023952,,,,,,,,,,,,1249.5968,3.0,1249.5971,,,,1252.3469,1252.8466,1251.8306,1252.3468,1250.6148,216.0,1251.8305,1252.8466,1253.3465,1253.3466,1259.363,9999.0,1259.3633,0.0,1260.3617,3.0,9.0,99.0,17.0,1.0,1.2,0.7,Time
,,S24,1,,,anonymized,Serial_Dependence_U,2023.2.3,Win32,59.88023952,,,,,,,,,,,,1260.3625,3.0,1260.3631,,,,1263.1126,1263.6119,1262.596,1263.1125,1261.3796,134.0,1262.5959,1263.6119,1264.112,1264.1121,1270.1272,9999.0,1270.1273,0.0,1271.1277,3.0,10.0,100.0,22.0,1.0,1.2,0.3,Time
,,S24,1,,,anonymized,Serial_Dependence_U,2023.2.3,Win32,59.88023952,,,,,,,,,,,,1271.1285,3.0,1271.1288,,,,1273.4504,1273.9493,1272.9339,1273.4504,1272.1276,129.0,1272.9338,1273.9493,1274.4489,1274.449,1280.4499,9999.0,1280.4502,0.0,1281.4485,3.0,11.0,101.0,10.0,1.0,0.8,0.3,Time
,,S24,1,,,anonymized,Serial_Dependence_U,2023.2.3,Win32,59.88023952,,,,,,,,,,,,1281.4492,3.0,1281.4495,,,,1283.7804,1284.2751,1283.2765,1283.7802,1282.4599,287.0,1283.2763,1284.2751,1284.7659,1284.7659,1290.7756,9999.0,1290.776,0.0,1291.7748,3.0,12.0,102.0,5.0,1.0,0.8,0.7,Time
,,S24,1,,,anonymized,Serial_Dependence_U,2023.2.3,Win32,59.88023952,,,,,,,,,,,,1291.7758,3.0,1291.7762,,,,1294.7239,1295.224,1294.2072,1294.7237,1292.7908,224.0,1294.2071,1295.224,1295.7239,1295.724,1301.7399,9999.0,1301.7401,0.0,1302.7396,3.0,13.0,103.0,18.0,1.0,1.4,0.7,Time
,,S24,1,,,anonymized,Serial_Dependence_U,2023.2.3,Win32,59.88023952,,,,,,,,,,,,1302.7404,3.0,1302.7407,,,,1305.0899,1305.5892,1304.5733,1305.0898,1303.7572,108.0,1304.5731,1305.5892,1306.0892,1306.0894,1312.1057,9999.0,1312.1059,0.0,1313.1051,3.0,14.0,104.0,20.0,1.0,0.8,0.3,Time
,,S24,1,,,anonymized,Serial_Dependence_U,2023.2.3,Win32,59.88023952,,,,,,,,,,,,1313.106,3.0,1313.1062,,,,1316.0552,1316.5538,1315.5377,1316.055,1314.1227,94.0,1315.5377,1316.5538,1317.0536,1317.0536,1323.0705,9999.0,1323.0708,0.0,1324.069,3.0,15.0,105.0,23.0,1.0,1.4,0.3,Time
,,S24,1,,,anonymized,Serial_Dependence_U,2023.2.3,Win32,59.88023952,,,,,,,,,,,,1324.0694,3.0,1324.0696,,,,1326.8202,1327.3187,1326.3036,1326.8201,1325.087,170.0,1326.3033,1327.3187,1327.8192,1327.8192,1333.8361,9999.0,1333.8363,0.0,1334.8346,3.0,16.0,106.0,27.0,1.0,1.2,0.7,Time
,,S24,1,,,anonymized,Serial_Dependence_U,2023.2.3,Win32,59.88023952,,,,,,,,,,,,1334.8354,3.0,1334.8359,,,,1337.986,1338.4845,1337.469,1337.9858,1335.8527,317.0,1337.4689,1338.4846,1338.9845,1338.9847,1345.0007,9999.0,1345.0011,0.0,1346.0003,3.0,17.0,107.0,29.0,1.0,1.6,0.7,Time
,,S24,1,,,anonymized,Serial_Dependence_U,2023.2.3,Win32,59.88023952,,,,,,,,,,,,1346.0013,3.0,1346.0019,,,,1348.9504,1349.4497,1348.4332,1348.9502,1347.0176,34.0,1348.4331,1349.4498,1349.9491,1349.9493,1355.966,9999.0,1355.9663,0.0,1356.9655,3.0,18.0,108.0,3.0,1.0,1.4,0.3,Time
,,S24,1,,,anonymized,Serial_Dependence_U,2023.2.3,Win32,59.88023952,,,,,,,,,,,,1356.9665,3.0,1356.967,,,,1359.7161,1360.2146,1359.199,1359.716,1357.982,162.0,1359.1988,1360.2146,1360.715,1360.7151,1366.7301,9999.0,1366.7303,0.0,1367.7296,3.0,19.0,109.0,2.0,1.0,1.2,0.3,Time
,,S24,1,,,anonymized,Serial_Dependence_U,2023.2.3,Win32,59.88023952,,,,,,,,,,,,1367.7303,3.0,1367.7306,,,,1370.664,1371.1633,1370.1475,1370.6639,1368.7316,148.0,1370.1473,1371.1634,1371.6631,1371.6632,1377.6786,9999.0,1377.6788,0.0,1378.6787,3.0,20.0,110.0,13.0,1.0,1.4,0.3,Time
,,S24,1,,,anonymized,Serial_Dependence_U,2023.2.3,Win32,59.88023952,,,,,,,,,,,,1378.6796,3.0,1378.6799,,,,1381.8288,1382.3285,1381.3126,1381.8287,1379.6955,2.0,1381.3124,1382.3285,1382.828,1382.8282,1388.8436,9999.0,1388.8439,0.0,1389.8431,3.0,21.0,111.0,24.0,1.0,1.6,0.3,Time
,,S24,1,,,anonymized,Serial_Dependence_U,2023.2.3,Win32,59.88023952,,,,,,,,,,,,1389.8437,3.0,1389.8439,,,,1392.7768,1393.2767,1392.2611,1392.7767,1390.8601,223.0,1392.261,1393.2768,1393.7763,1393.7764,1399.7929,9999.0,1399.7932,0.0,1400.7915,3.0,22.0,112.0,28.0,1.0,1.4,0.7,Time
,,S24,1,,,anonymized,Serial_Dependence_U,2023.2.3,Win32,59.88023952,,,,,,,,,,,,1400.7921,3.0,1400.7924,,,,1403.3429,1403.8416,1402.8364,1403.3427,1401.809,339.0,1402.8362,1403.8416,1404.3422,1404.3423,1410.3583,9999.0,1410.3586,0.0,1411.3572,3.0,23.0,113.0,26.0,1.0,1.0,0.7,Time
,,S24,1,,,anonymized,Serial_Dependence_U,2023.2.3,Win32,59.88023952,,,,,,,,,,,,1411.3581,3.0,1411.3584,,,,1414.5069,1415.0061,1413.9902,1414.5068,1412.375,250.0,1413.9901,1415.0061,1415.5061,1415.5062,1421.5235,9999.0,1421.5238,0.0,1422.5227,3.0,24.0,114.0,19.0,1.0,1.6,0.7,Time
,,S24,1,,,anonymized,Serial_Dependence_U,2023.2.3,Win32,59.88023952,,,,,,,,,,,,1422.5234,3.0,1422.5237,,,,1425.0564,1425.5549,1424.539,1425.0563,1423.5239,19.0,1424.5389,1425.5549,1426.0548,1426.0549,1432.056,9999.0,1432.0565,0.0,1433.0547,3.0,25.0,115.0,16.0,1.0,1.0,0.7,Time
,,S24,1,,,anonymized,Serial_Dependence_U,2023.2.3,Win32,59.88023952,,,,,,,,,,,,1433.0556,3.0,1433.056,,,,1435.4054,1435.9039,1434.8887,1435.4052,1434.0716,271.0,1434.8885,1435.904,1436.4036,1436.4037,1442.4193,9999.0,1442.4195,0.0,1443.4196,3.0,26.0,116.0,15.0,1.0,0.8,0.7,Time
,,S24,1,,,anonymized,Serial_Dependence_U,2023.2.3,Win32,59.88023952,,,,,,,,,,,,1443.4205,3.0,1443.4208,,,,1446.5698,1447.0688,1446.0535,1446.5697,1444.4359,209.0,1446.0533,1447.0689,1447.5687,1447.5687,1453.5855,9999.0,1453.5858,0.0,1454.5849,3.0,27.0,117.0,9.0,1.0,1.6,0.7,Time
,,S24,1,,,anonymized,Serial_Dependence_U,2023.2.3,Win32,59.88023952,,,,,,,,,,,,1454.5857,3.0,1454.586,,,,1456.935,1457.4344,1456.4184,1456.9348,1455.6021,115.0,1456.4181,1457.4345,1457.9343,1457.9343,1463.9507,9999.0,1463.9511,0.0,1464.9499,3.0,28.0,118.0,25.0,1.0,0.8,0.7,Time
,,S24,1,,,anonymized,Serial_Dependence_U,2023.2.3,Win32,59.88023952,,,,,,,,,,,,1464.9507,3.0,1464.9509,,,,1467.4993,1467.9986,1466.9839,1467.4992,1465.9671,12.0,1466.9837,1467.9986,1468.4986,1468.4987,1474.5158,9999.0,1474.5161,0.0,1475.515,3.0,29.0,119.0,6.0,1.0,1.0,0.7,Time
,,S24,1,,,anonymized,Serial_Dependence_U,2023.2.3,Win32,59.88023952,,,,,,,,,,,,1475.5158,4.0,1489.4637,s,13.9168,,1492.2139,1492.7127,1491.6969,1492.2137,1490.4809,322.0,1491.6968,1492.7127,1493.2127,1493.2128,1499.229,9999.0,1499.2295,0.0,1500.2275,4.0,0.0,120.0,17.0,1.0,1.2,0.7,Time
,,S24,1,,,anonymized,Serial_Dependence_U,2023.2.3,Win32,59.88023952,,,,,,,,,,,,1500.2283,4.0,1500.2316,,,,1503.1785,1503.6775,1502.6617,1503.1782,1501.2449,86.0,1502.6615,1503.6776,1504.1777,1504.1778,1510.1937,9999.0,1510.1941,0.0,1511.1935,4.0,1.0,121.0,3.0,1.0,1.4,0.3,Time
,,S24,1,,,anonymized,Serial_Dependence_U,2023.2.3,Win32,59.88023952,,,,,,,,,,,,1511.1946,4.0,1511.1951,,,,1513.944,1514.4427,1513.4269,1513.9439,1512.2111,93.0,1513.4267,1514.4428,1514.9427,1514.9428,1520.9592,9999.0,1520.9594,0.0,1521.958,4.0,2.0,122.0,7.0,1.0,1.2,0.7,Time
,,S24,1,,,anonymized,Serial_Dependence_U,2023.2.3,Win32,59.88023952,,,,,,,,,,,,1521.9589,4.0,1521.9593,,,,1524.9085,1525.4078,1524.3928,1524.9083,1522.9757,264.0,1524.3926,1525.4079,1525.908,1525.9081,1531.9243,9999.0,1531.9248,0.0,1532.9236,4.0,3.0,123.0,18.0,1.0,1.4,0.7,Time
,,S24,1,,,anonymized,Serial_Dependence_U,2023.2.3,Win32,59.88023952,,,,,,,,,,,,1532.9247,4.0,1532.9251,,,,1535.4728,1535.9731,1534.9571,1535.4727,1533.9406,187.0,1534.9569,1535.9731,1536.4726,1536.4728,1542.4896,9999.0,1542.49,0.0,1543.4888,4.0,4.0,124.0,26.0,1.0,1.0,0.7,Time
,,S24,1,,,anonymized,Serial_Dependence_U,2023.2.3,Win32,59.88023952,,,,,,,,,,,,1543.4896,4.0,1543.4899,,,,1546.6388,1547.1384,1546.1226,1546.6386,1544.5063,97.0,1546.1224,1547.1385,1547.6382,1547.6382,1553.6544,9999.0,1553.6547,0.0,1554.6537,4.0,5.0,125.0,4.0,1.0,1.6,0.3,Time
,,S24,1,,,anonymized,Serial_Dependence_U,2023.2.3,Win32,59.88023952,,,,,,,,,,,,1554.6545,4.0,1554.6549,,,,1557.004,1557.503,1556.4875,1557.0039,1555.6712,121.0,1556.4874,1557.5031,1558.003,1558.0031,1564.0197,9999.0,1564.02,0.0,1565.0187,4.0,6.0,126.0,15.0,1.0,0.8,0.7,Time
,,S24,1,,,anonymized,Serial_Dependence_U,2023.2.3,Win32,59.88023952,,,,,,,,,,,,1565.0198,4.0,1565.0202,,,,1567.7515,1568.2515,1567.2362,1567.7514,1566.0199,64.0,1567.236,1568.2516,1568.7515,1568.7515,1574.7686,9999.0,1574.7691,0.0,1575.7667,4.0,7.0,127.0,2.0,1.0,1.2,0.3,Time
,,S24,1,,,anonymized,Serial_Dependence_U,2023.2.3,Win32,59.88023952,,,,,,,,,,,,1575.7671,4.0,1575.7674,,,,1578.9172,1579.4165,1578.4013,1578.9171,1576.7846,72.0,1578.4012,1579.4165,1579.9169,1579.917,1585.9332,9999.0,1585.9336,0.0,1586.9322,4.0,8.0,128.0,14.0,1.0,1.6,0.3,Time
,,S24,1,,,anonymized,Serial_Dependence_U,2023.2.3,Win32,59.88023952,,,,,,,,,,,,1586.9334,4.0,1586.9339,,,,1589.4832,1589.9821,1588.9668,1589.483,1587.9499,206.0,1588.9666,1589.9822,1590.4816,1590.4817,1596.4986,9999.0,1596.499,0.0,1597.4969,4.0,9.0,129.0,1.0,1.0,1.0,0.3,Time
,,S24,1,,,anonymized,Serial_Dependence_U,2023.2.3,Win32,59.88023952,,,,,,,,,,,,1597.4973,4.0,1597.4975,,,,1600.4482,1600.9467,1599.9311,1600.448,1598.5143,103.0,1599.9309,1600.9467,1601.4469,1601.447,1607.4636,9999.0,1607.4639,0.0,1608.4629,4.0,10.0,130.0,8.0,1.0,1.4,0.7,Time
,,S24,1,,,anonymized,Serial_Dependence_U,2023.2.3,Win32,59.88023952,,,,,,,,,,,,1608.464,4.0,1608.4644,,,,1610.8121,1611.3116,1610.2956,1610.812,1609.4789,343.0,1610.2955,1611.3116,1611.8124,1611.8125,1617.8277,9999.0,1617.8278,0.0,1618.8278,4.0,11.0,131.0,5.0,1.0,0.8,0.7,Time
,,S24,1,,,anonymized,Serial_Dependence_U,2023.2.3,Win32,59.88023952,,,,,,,,,,,,1618.8292,4.0,1618.8297,,,,1621.3787,1621.8772,1620.8615,1621.3785,1619.8453,241.0,1620.8614,1621.8773,1622.3773,1622.3775,1628.3929,9999.0,1628.3932,0.0,1629.3927,4.0,12.0,132.0,21.0,1.0,1.0,0.3,Time
,,S24,1,,,anonymized,Serial_Dependence_U,2023.2.3,Win32,59.88023952,,,,,,,,,,,,1629.3938,4.0,1629.3942,,,,1631.7434,1632.2426,1631.2271,1631.7432,1630.4098,226.0,1631.2269,1632.2426,1632.7426,1632.7426,1638.7584,9999.0,1638.7587,0.0,1639.7582,4.0,13.0,133.0,25.0,1.0,0.8,0.7,Time
,,S24,1,,,anonymized,Serial_Dependence_U,2023.2.3,Win32,59.88023952,,,,,,,,,,,,1639.759,4.0,1639.7594,,,,1642.1088,1642.6072,1641.5921,1642.1087,1640.776,264.0,1641.5919,1642.6072,1643.1078,1643.108,1649.1243,9999.0,1649.1246,0.0,1650.1236,4.0,14.0,134.0,0.0,1.0,0.8,0.3,Time
,,S24,1,,,anonymized,Serial_Dependence_U,2023.2.3,Win32,59.88023952,,,,,,,,,,,,1650.1245,4.0,1650.1248,,,,1653.257,1653.7561,1652.7405,1653.2568,1651.1265,347.0,1652.7403,1653.7561,1654.256,1654.256,1660.2729,9999.0,1660.2732,0.0,1661.272,4.0,15.0,135.0,29.0,1.0,1.6,0.7,Time
,,S24,1,,,anonymized,Serial_Dependence_U,2023.2.3,Win32,59.88023952,,,,,,,,,,,,1661.2728,4.0,1661.2731,,,,1664.2221,1664.7214,1663.7058,1664.2219,1662.2888,316.0,1663.7056,1664.7215,1665.2213,1665.2214,1671.2378,9999.0,1671.2381,0.0,1672.237,4.0,16.0,136.0,23.0,1.0,1.4,0.3,Time
,,S24,1,,,anonymized,Serial_Dependence_U,2023.2.3,Win32,59.88023952,,,,,,,,,,,,1672.2378,4.0,1672.2381,,,,1675.3876,1675.8864,1674.8699,1675.3873,1673.2546,327.0,1674.8698,1675.8864,1676.3856,1676.3856,1682.3865,9999.0,1682.3869,0.0,1683.3854,4.0,17.0,137.0,9.0,1.0,1.6,0.7,Time
,,S24,1,,,anonymized,Serial_Dependence_U,2023.2.3,Win32,59.88023952,,,,,,,,,,,,1683.3863,4.0,1683.3866,,,,1685.9357,1686.4348,1685.4191,1685.9356,1684.4028,82.0,1685.4189,1686.4349,1686.9349,1686.9349,1692.951,9999.0,1692.9512,0.0,1693.9504,4.0,18.0,138.0,16.0,1.0,1.0,0.7,Time
,,S24,1,,,anonymized,Serial_Dependence_U,2023.2.3,Win32,59.88023952,,,,,,,,,,,,1693.9516,4.0,1693.9521,,,,1696.9014,1697.3997,1696.3847,1696.9012,1694.9685,339.0,1696.3845,1697.3997,1697.8996,1697.8997,1703.9166,9999.0,1703.9171,0.0,1704.9158,4.0,19.0,139.0,13.0,1.0,1.4,0.3,Time
,,S24,1,,,anonymized,Serial_Dependence_U,2023.2.3,Win32,59.88023952,,,,,,,,,,,,1704.9168,4.0,1704.9173,,,,1707.8483,1708.3484,1707.3328,1707.8482,1705.9168,196.0,1707.3327,1708.3484,1708.8482,1708.8483,1714.8652,9999.0,1714.8656,0.0,1715.8642,4.0,20.0,140.0,28.0,1.0,1.4,0.7,Time
,,S24,1,,,anonymized,Serial_Dependence_U,2023.2.3,Win32,59.88023952,,,,,,,,,,,,1715.8651,4.0,1715.8653,,,,1718.6143,1719.1135,1718.0972,1718.6141,1716.8804,182.0,1718.0972,1719.1135,1719.6131,1719.6132,1725.629,9999.0,1725.6293,0.0,1726.6285,4.0,21.0,141.0,27.0,1.0,1.2,0.7,Time
,,S24,1,,,anonymized,Serial_Dependence_U,2023.2.3,Win32,59.88023952,,,,,,,,,,,,1726.6289,4.0,1726.6291,,,,1729.1791,1729.679,1728.6628,1729.179,1727.6461,260.0,1728.6626,1729.679,1730.1786,1730.1788,1736.1954,9999.0,1736.1957,0.0,1737.1934,4.0,22.0,142.0,6.0,1.0,1.0,0.7,Time
,,S24,1,,,anonymized,Serial_Dependence_U,2023.2.3,Win32,59.88023952,,,,,,,,,,,,1737.194,4.0,1737.1943,,,,1740.3279,1740.8266,1739.8103,1740.3277,1738.1948,199.0,1739.8102,1740.8266,1741.3272,1741.3272,1747.3435,9999.0,1747.3438,0.0,1748.3423,4.0,23.0,143.0,19.0,1.0,1.6,0.7,Time
,,S24,1,,,anonymized,Serial_Dependence_U,2023.2.3,Win32,59.88023952,,,,,,,,,,,,1748.3432,4.0,1748.3435,,,,1750.6935,1751.1925,1750.1759,1750.6933,1749.3594,180.0,1750.1758,1751.1925,1751.6924,1751.6924,1757.7093,9999.0,1757.7097,0.0,1758.7081,4.0,24.0,144.0,10.0,1.0,0.8,0.3,Time
,,S24,1,,,anonymized,Serial_Dependence_U,2023.2.3,Win32,59.88023952,,,,,,,,,,,,1758.7089,4.0,1758.7092,,,,1761.2588,1761.7567,1760.7417,1761.2587,1759.7276,81.0,1760.7415,1761.7567,1762.2566,1762.2566,1768.2736,9999.0,1768.2739,0.0,1769.2727,4.0,25.0,145.0,11.0,1.0,1.0,0.3,Time
,,S24,1,,,anonymized,Serial_Dependence_U,2023.2.3,Win32,59.88023952,,,,,,,,,,,,1769.2735,4.0,1769.2741,,,,1771.6238,1772.1228,1771.1067,1771.6237,1770.2906,215.0,1771.1066,1772.1229,1772.6219,1772.622,1778.6383,9999.0,1778.6385,0.0,1779.638,4.0,26.0,146.0,20.0,1.0,0.8,0.3,Time
,,S24,1,,,anonymized,Serial_Dependence_U,2023.2.3,Win32,59.88023952,,,,,,,,,,,,1779.6389,4.0,1779.6393,,,,1782.3888,1782.8875,1781.8723,1782.3886,1780.6559,65.0,1781.8721,1782.8876,1783.3882,1783.3883,1789.4032,9999.0,1789.4034,0.0,1790.4034,4.0,27.0,147.0,22.0,1.0,1.2,0.3,Time
,,S24,1,,,anonymized,Serial_Dependence_U,2023.2.3,Win32,59.88023952,,,,,,,,,,,,1790.4045,4.0,1790.405,,,,1793.1533,1793.6528,1792.637,1793.1532,1791.4206,137.0,1792.6369,1793.6528,1794.1527,1794.1527,1800.1694,9999.0,1800.1697,0.0,1801.1688,4.0,28.0,148.0,12.0,1.0,1.2,0.3,Time
,,S24,1,,,anonymized,Serial_Dependence_U,2023.2.3,Win32,59.88023952,,,,,,,,,,,,1801.1696,4.0,1801.17,,,,1804.3019,1804.8011,1803.7938,1804.3017,1802.1771,160.0,1803.7937,1804.8012,1805.3012,1805.3012,1811.3176,9999.0,1811.3179,0.0,1812.3168,4.0,29.0,149.0,24.0,1.0,1.6,0.3,Time
,,S24,1,,,anonymized,Serial_Dependence_U,2023.2.3,Win32,59.88023952,,,,,,,,,,,,1812.318,5.0,1825.3314,s,12.9861,,1828.2822,1828.7879,1827.7654,1828.282,1826.3566,230.0,1827.7653,1828.788,1829.2807,1829.2808,1835.2972,9999.0,1835.2975,0.0,1836.2967,5.0,0.0,150.0,28.0,1.0,1.4,0.7,Time
,,S24,1,,,anonymized,Serial_Dependence_U,2023.2.3,Win32,59.88023952,,,,,,,,,,,,1836.2975,5.0,1836.3007,,,,1838.847,1839.3463,1838.3303,1838.8468,1837.3143,145.0,1838.3301,1839.3463,1839.8456,1839.8456,1845.8533,9999.0,1845.8536,0.0,1846.8449,5.0,1.0,151.0,11.0,1.0,1.0,0.3,Time
,,S24,1,,,anonymized,Serial_Dependence_U,2023.2.3,Win32,59.88023952,,,,,,,,,,,,1846.8455,5.0,1846.846,,,,1849.5958,1850.0948,1849.0792,1849.5957,1847.863,124.0,1849.0789,1850.0949,1850.5947,1850.5948,1856.6114,9999.0,1856.6117,0.0,1857.6104,5.0,2.0,152.0,12.0,1.0,1.2,0.3,Time
,,S24,1,,,anonymized,Serial_Dependence_U,2023.2.3,Win32,59.88023952,,,,,,,,,,,,1857.6114,5.0,1857.6119,,,,1860.161,1860.6599,1859.6435,1860.1608,1858.6283,323.0,1859.6435,1860.66,1861.1601,1861.1602,1867.1762,9999.0,1867.1765,0.0,1868.1747,5.0,3.0,153.0,21.0,1.0,1.0,0.3,Time
,,S24,1,,,anonymized,Serial_Dependence_U,2023.2.3,Win32,59.88023952,,,,,,,,,,,,1868.1754,5.0,1868.1757,,,,1871.3264,1871.8254,1870.8096,1871.3262,1869.1928,161.0,1870.8094,1871.8255,1872.3248,1872.3249,1878.3416,9999.0,1878.3419,0.0,1879.3406,5.0,4.0,154.0,4.0,1.0,1.6,0.3,Time
,,S24,1,,,anonymized,Serial_Dependence_U,2023.2.3,Win32,59.88023952,,,,,,,,,,,,1879.3414,5.0,1879.3417,,,,1882.4912,1882.9901,1881.9747,1882.491,1880.3575,44.0,1881.9746,1882.9902,1883.49,1883.49,1889.5067,9999.0,1889.5071,0.0,1890.5058,5.0,5.0,155.0,19.0,1.0,1.6,0.7,Time
,,S24,1,,,anonymized,Serial_Dependence_U,2023.2.3,Win32,59.88023952,,,,,,,,,,,,1890.5069,5.0,1890.5073,,,,1893.0566,1893.5555,1892.5393,1893.0563,1891.5231,203.0,1892.5391,1893.5555,1894.0551,1894.0552,1900.0718,9999.0,1900.0722,0.0,1901.0707,5.0,6.0,156.0,16.0,1.0,1.0,0.7,Time
,,S24,1,,,anonymized,Serial_Dependence_U,2023.2.3,Win32,59.88023952,,,,,,,,,,,,1901.0719,5.0,1901.0724,,,,1904.0212,1904.5205,1903.505,1904.021,1902.0884,205.0,1903.5048,1904.5206,1905.0204,1905.0205,1911.0359,9999.0,1911.036,0.0,1912.0353,5.0,7.0,157.0,8.0,1.0,1.4,0.7,Time
,,S24,1,,,anonymized,Serial_Dependence_U,2023.2.3,Win32,59.88023952,,,,,,,,,,,,1912.0357,5.0,1912.0359,,,,1914.7697,1915.2686,1914.2537,1914.7696,1913.0525,104.0,1914.2535,1915.2687,1915.7689,1915.7689,1921.7852,9999.0,1921.7855,0.0,1922.7844,5.0,8.0,158.0,22.0,1.0,1.2,0.3,Time
,,S24,1,,,anonymized,Serial_Dependence_U,2023.2.3,Win32,59.88023952,,,,,,,,,,,,1922.7852,5.0,1922.7855,,,,1925.9187,1926.417,1925.4017,1925.9184,1923.7857,12.0,1925.4016,1926.4171,1926.9176,1926.9176,1932.9343,9999.0,1932.9347,0.0,1933.9327,5.0,9.0,159.0,14.0,1.0,1.6,0.3,Time
,,S24,1,,,anonymized,Serial_Dependence_U,2023.2.3,Win32,59.88023952,,,,,,,,,,,,1933.9336,5.0,1933.9339,,,,1936.4826,1936.9817,1935.9673,1936.4825,1934.95,192.0,1935.9671,1936.9817,1937.4825,1937.4825,1943.498,9999.0,1943.4982,0.0,1944.4978,5.0,10.0,160.0,6.0,1.0,1.0,0.7,Time
,,S24,1,,,anonymized,Serial_Dependence_U,2023.2.3,Win32,59.88023952,,,,,,,,,,,,1944.4987,5.0,1944.499,,,,1947.0488,1947.5479,1946.5322,1947.0487,1945.5157,265.0,1946.532,1947.548,1948.0478,1948.0479,1954.0648,9999.0,1954.0653,0.0,1955.0631,5.0,11.0,161.0,26.0,1.0,1.0,0.7,Time
,,S24,1,,,anonymized,Serial_Dependence_U,2023.2.3,Win32,59.88023952,,,,,,,,,,,,1955.0638,5.0,1955.0643,,,,1957.9968,1958.4959,1957.4793,1957.9967,1956.0643,35.0,1957.4792,1958.4959,1958.9959,1958.996,1965.0126,9999.0,1965.0129,0.0,1966.0119,5.0,12.0,162.0,3.0,1.0,1.4,0.3,Time
,,S24,1,,,anonymized,Serial_Dependence_U,2023.2.3,Win32,59.88023952,,,,,,,,,,,,1966.0129,5.0,1966.0132,,,,1969.162,1969.6612,1968.6454,1969.1618,1967.0281,245.0,1968.6452,1969.6613,1970.1612,1970.1614,1976.1777,9999.0,1976.1782,0.0,1977.1769,5.0,13.0,163.0,24.0,1.0,1.6,0.3,Time
,,S24,1,,,anonymized,Serial_Dependence_U,2023.2.3,Win32,59.88023952,,,,,,,,,,,,1977.1778,5.0,1977.178,,,,1979.9273,1980.4261,1979.4104,1979.9271,1978.1941,9.0,1979.4102,1980.4261,1980.9261,1980.9262,1986.9431,9999.0,1986.9433,0.0,1987.9415,5.0,14.0,164.0,2.0,1.0,1.2,0.3,Time
,,S24,1,,,anonymized,Serial_Dependence_U,2023.2.3,Win32,59.88023952,,,,,,,,,,,,1987.942,5.0,1987.9422,,,,1990.2926,1990.7912,1989.7761,1990.2924,1988.9587,273.0,1989.776,1990.7913,1991.2915,1991.2916,1997.3088,9999.0,1997.3091,0.0,1998.3073,5.0,15.0,165.0,5.0,1.0,0.8,0.7,Time
,,S24,1,,,anonymized,Serial_Dependence_U,2023.2.3,Win32,59.88023952,,,,,,,,,,,,1998.3081,5.0,1998.3085,,,,2000.8565,2001.3565,2000.3411,2000.8563,1999.3244,17.0,2000.341,2001.3566,2001.8558,2001.8558,2007.8722,9999.0,2007.8724,0.0,2008.8725,5.0,16.0,166.0,1.0,1.0,1.0,0.3,Time
,,S24,1,,,anonymized,Serial_Dependence_U,2023.2.3,Win32,59.88023952,,,,,,,,,,,,2008.8736,5.0,2008.8741,,,,2011.6227,2012.1218,2011.1063,2011.6226,2009.8895,76.0,2011.1062,2012.1219,2012.622,2012.6221,2018.6374,9999.0,2018.6376,0.0,2019.6378,5.0,17.0,167.0,7.0,1.0,1.2,0.7,Time
,,S24,1,,,anonymized,Serial_Dependence_U,2023.2.3,Win32,59.88023952,,,,,,,,,,,,2019.6388,5.0,2019.6392,,,,2022.5879,2023.0865,2022.0713,2022.5877,2020.6548,127.0,2022.0711,2023.0866,2023.5865,2023.5865,2029.6034,9999.0,2029.6038,0.0,2030.6023,5.0,18.0,168.0,23.0,1.0,1.4,0.3,Time
,,S24,1,,,anonymized,Serial_Dependence_U,2023.2.3,Win32,59.88023952,,,,,,,,,,,,2030.6033,5.0,2030.604,,,,2033.7364,2034.2355,2033.2195,2033.7363,2031.6031,173.0,2033.2193,2034.2356,2034.7355,2034.7355,2040.7516,9999.0,2040.7518,0.0,2041.751,5.0,19.0,169.0,9.0,1.0,1.6,0.7,Time
,,S24,1,,,anonymized,Serial_Dependence_U,2023.2.3,Win32,59.88023952,,,,,,,,,,,,2041.7518,5.0,2041.7522,,,,2044.5011,2045.0004,2043.9845,2044.501,2042.7685,152.0,2043.9843,2045.0005,2045.5001,2045.5001,2051.5167,9999.0,2051.5169,0.0,2052.5161,5.0,20.0,170.0,17.0,1.0,1.2,0.7,Time
,,S24,1,,,anonymized,Serial_Dependence_U,2023.2.3,Win32,59.88023952,,,,,,,,,,,,2052.517,5.0,2052.5172,,,,2054.8668,2055.3656,2054.3497,2054.8666,2053.5334,232.0,2054.3495,2055.3657,2055.8656,2055.8656,2061.882,9999.0,2061.8823,0.0,2062.8815,5.0,21.0,171.0,0.0,1.0,0.8,0.3,Time
,,S24,1,,,anonymized,Serial_Dependence_U,2023.2.3,Win32,59.88023952,,,,,,,,,,,,2062.8823,5.0,2062.8827,,,,2065.2312,2065.7309,2064.7153,2065.2311,2063.898,233.0,2064.7152,2065.7311,2066.2305,2066.2306,2072.2473,9999.0,2072.2477,0.0,2073.2467,5.0,22.0,172.0,20.0,1.0,0.8,0.3,Time
,,S24,1,,,anonymized,Serial_Dependence_U,2023.2.3,Win32,59.88023952,,,,,,,,,,,,2073.2474,5.0,2073.2478,,,,2075.5973,2076.0958,2075.0805,2075.597,2074.2678,353.0,2075.0803,2076.0958,2076.5958,2076.5959,2082.6123,9999.0,2082.6127,0.0,2083.6118,5.0,23.0,173.0,10.0,1.0,0.8,0.3,Time
,,S24,1,,,anonymized,Serial_Dependence_U,2023.2.3,Win32,59.88023952,,,,,,,,,,,,2083.6126,5.0,2083.6128,,,,2086.7612,2087.2605,2086.2453,2086.7611,2084.6291,218.0,2086.2452,2087.2605,2087.761,2087.7611,2093.7772,9999.0,2093.7775,0.0,2094.7764,5.0,24.0,174.0,29.0,1.0,1.6,0.7,Time
,,S24,1,,,anonymized,Serial_Dependence_U,2023.2.3,Win32,59.88023952,,,,,,,,,,,,2094.7772,5.0,2094.7776,,,,2097.1264,2097.6262,2096.6104,2097.1263,2095.7948,25.0,2096.6102,2097.6263,2098.1264,2098.1264,2104.1428,9999.0,2104.1431,0.0,2105.142,5.0,25.0,175.0,15.0,1.0,0.8,0.7,Time
,,S24,1,,,anonymized,Serial_Dependence_U,2023.2.3,Win32,59.88023952,,,,,,,,,,,,2105.1428,5.0,2105.1431,,,,2107.8914,2108.3912,2107.3756,2107.8914,2106.1597,172.0,2107.3754,2108.3912,2108.8909,2108.891,2114.9076,9999.0,2114.9079,0.0,2115.9073,5.0,26.0,176.0,27.0,1.0,1.2,0.7,Time
,,S24,1,,,anonymized,Serial_Dependence_U,2023.2.3,Win32,59.88023952,,,,,,,,,,,,2115.9081,5.0,2115.9084,,,,2118.8572,2119.3567,2118.3408,2118.857,2116.9246,250.0,2118.3407,2119.3567,2119.8562,2119.8563,2125.8731,9999.0,2125.8735,0.0,2126.8714,5.0,27.0,177.0,13.0,1.0,1.4,0.3,Time
,,S24,1,,,anonymized,Serial_Dependence_U,2023.2.3,Win32,59.88023952,,,,,,,,,,,,2126.8718,5.0,2126.8721,,,,2129.8228,2130.3211,2129.3056,2129.8226,2127.8895,177.0,2129.3054,2130.3212,2130.8218,2130.8218,2136.8392,9999.0,2136.8395,0.0,2137.8371,5.0,28.0,178.0,18.0,1.0,1.4,0.7,Time
,,S24,1,,,anonymized,Serial_Dependence_U,2023.2.3,Win32,59.88023952,,,,,,,,,,,,2137.8379,5.0,2137.8382,,,,2140.1878,2140.6869,2139.6711,2140.1876,2138.8547,57.0,2139.671,2140.6869,2141.1864,2141.1865,2147.2033,9999.0,2147.2037,0.0,2148.2022,5.0,29.0,179.0,25.0,1.0,0.8,0.7,Time
,,S24,1,,,anonymized,Serial_Dependence_U,2023.2.3,Win32,59.88023952,,,,,,,,,,,,2148.2035,6.0,2155.8854,s,7.6544,,2158.6349,2159.1337,2158.1176,2158.6347,2156.902,320.0,2158.1175,2159.1337,2159.6333,2159.6334,2165.6502,9999.0,2165.6506,0.0,2166.6491,6.0,0.0,180.0,7.0,1.0,1.2,0.7,Time
,,S24,1,,,anonymized,Serial_Dependence_U,2023.2.3,Win32,59.88023952,,,,,,,,,,,,2166.6498,6.0,2166.6539,,,,2169.5838,2170.0822,2169.0665,2169.5835,2167.6505,266.0,2169.0663,2170.0823,2170.5823,2170.5824,2176.5993,9999.0,2176.5996,0.0,2177.5984,6.0,1.0,181.0,8.0,1.0,1.4,0.7,Time
,,S24,1,,,anonymized,Serial_Dependence_U,2023.2.3,Win32,59.88023952,,,,,,,,,,,,2177.5994,6.0,2177.5997,,,,2180.3486,2180.8474,2179.8323,2180.3485,2178.6158,105.0,2179.8322,2180.8474,2181.3479,2181.348,2187.3638,9999.0,2187.3642,0.0,2188.3631,6.0,2.0,182.0,12.0,1.0,1.2,0.3,Time
,,S24,1,,,anonymized,Serial_Dependence_U,2023.2.3,Win32,59.88023952,,,,,,,,,,,,2188.364,6.0,2188.3643,,,,2190.9128,2191.4121,2190.3973,2190.9127,2189.3808,323.0,2190.397,2191.4122,2191.9131,2191.9131,2197.9283,9999.0,2197.9284,0.0,2198.9281,6.0,3.0,183.0,1.0,1.0,1.0,0.3,Time
,,S24,1,,,anonymized,Serial_Dependence_U,2023.2.3,Win32,59.88023952,,,,,,,,,,,,2198.929,6.0,2198.9293,,,,2201.6621,2202.1614,2201.1466,2201.6619,2199.9447,131.0,2201.1464,2202.1615,2202.6613,2202.6613,2208.6779,9999.0,2208.6785,0.0,2209.6771,6.0,4.0,184.0,17.0,1.0,1.2,0.7,Time
,,S24,1,,,anonymized,Serial_Dependence_U,2023.2.3,Win32,59.88023952,,,,,,,,,,,,2209.6779,6.0,2209.6782,,,,2212.8261,2213.3256,2212.3109,2212.826,2210.6947,211.0,2212.3108,2213.3257,2213.8261,2213.8262,2219.843,9999.0,2219.8433,0.0,2220.8419,6.0,5.0,185.0,24.0,1.0,1.6,0.3,Time
,,S24,1,,,anonymized,Serial_Dependence_U,2023.2.3,Win32,59.88023952,,,,,,,,,,,,2220.8431,6.0,2220.8436,,,,2223.9998,2224.4907,2223.4759,2223.9996,2221.8593,42.0,2223.4756,2224.4908,2224.9912,2224.9913,2231.0083,9999.0,2231.0085,0.0,2232.0071,6.0,6.0,186.0,14.0,1.0,1.6,0.3,Time
,,S24,1,,,anonymized,Serial_Dependence_U,2023.2.3,Win32,59.88023952,,,,,,,,,,,,2232.0079,6.0,2232.0082,,,,2235.1407,2235.6397,2234.6242,2235.1405,2233.0082,184.0,2234.624,2235.6397,2236.1465,2236.1466,2242.1559,9999.0,2242.1562,0.0,2243.1453,6.0,7.0,187.0,4.0,1.0,1.6,0.3,Time
,,S24,1,,,anonymized,Serial_Dependence_U,2023.2.3,Win32,59.88023952,,,,,,,,,,,,2243.1462,6.0,2243.1465,,,,2246.0894,2246.5883,2245.5722,2246.0892,2244.1563,34.0,2245.5721,2246.5883,2247.0875,2247.0875,2253.1048,9999.0,2253.1051,0.0,2254.1038,6.0,8.0,188.0,18.0,1.0,1.4,0.7,Time
,,S24,1,,,anonymized,Serial_Dependence_U,2023.2.3,Win32,59.88023952,,,,,,,,,,,,2254.1047,6.0,2254.105,,,,2256.6551,2257.1532,2256.138,2256.6549,2255.1208,328.0,2256.1378,2257.1534,2257.6533,2257.6533,2263.67,9999.0,2263.6703,0.0,2264.6688,6.0,9.0,189.0,6.0,1.0,1.0,0.7,Time
,,S24,1,,,anonymized,Serial_Dependence_U,2023.2.3,Win32,59.88023952,,,,,,,,,,,,2264.6696,6.0,2264.6698,,,,2267.8197,2268.3187,2267.3029,2267.8195,2265.6855,332.0,2267.3027,2268.3187,2268.8185,2268.8185,2274.8348,9999.0,2274.8351,0.0,2275.8341,6.0,10.0,190.0,29.0,1.0,1.6,0.7,Time
,,S24,1,,,anonymized,Serial_Dependence_U,2023.2.3,Win32,59.88023952,,,,,,,,,,,,2275.8353,6.0,2275.8359,,,,2278.3837,2278.8829,2277.8668,2278.3836,2276.8518,102.0,2277.8667,2278.8829,2279.3836,2279.3836,2285.3999,9999.0,2285.4002,0.0,2286.3991,6.0,11.0,191.0,16.0,1.0,1.0,0.7,Time
,,S24,1,,,anonymized,Serial_Dependence_U,2023.2.3,Win32,59.88023952,,,,,,,,,,,,2286.4,6.0,2286.4004,,,,2288.95,2289.448,2288.4328,2288.9498,2287.4166,250.0,2288.4327,2289.4481,2289.9486,2289.9487,2295.9655,9999.0,2295.966,0.0,2296.9646,6.0,12.0,192.0,26.0,1.0,1.0,0.7,Time
,,S24,1,,,anonymized,Serial_Dependence_U,2023.2.3,Win32,59.88023952,,,,,,,,,,,,2296.9653,6.0,2296.9657,,,,2300.1153,2300.6141,2299.5983,2300.1151,2297.9817,39.0,2299.5981,2300.6142,2301.1141,2301.1142,2307.1307,9999.0,2307.1311,0.0,2308.1293,6.0,13.0,193.0,9.0,1.0,1.6,0.7,Time
,,S24,1,,,anonymized,Serial_Dependence_U,2023.2.3,Win32,59.88023952,,,,,,,,,,,,2308.1304,6.0,2308.1309,,,,2310.8797,2311.3788,2310.3634,2310.8796,2309.147,340.0,2310.3633,2311.3788,2311.8793,2311.8793,2317.8948,9999.0,2317.8949,0.0,2318.8946,6.0,14.0,194.0,27.0,1.0,1.2,0.7,Time
,,S24,1,,,anonymized,Serial_Dependence_U,2023.2.3,Win32,59.88023952,,,,,,,,,,,,2318.8953,6.0,2318.8957,,,,2321.8454,2322.3443,2321.3288,2321.8452,2319.9123,230.0,2321.3287,2322.3444,2322.8441,2322.8441,2328.8607,9999.0,2328.861,0.0,2329.8595,6.0,15.0,195.0,13.0,1.0,1.4,0.3,Time
,,S24,1,,,anonymized,Serial_Dependence_U,2023.2.3,Win32,59.88023952,,,,,,,,,,,,2329.8603,6.0,2329.8607,,,,2332.5937,2333.0922,2332.0926,2332.5937,2330.877,199.0,2332.0924,2333.0923,2333.5928,2333.5929,2339.608,9999.0,2339.6082,0.0,2340.6077,6.0,16.0,196.0,22.0,1.0,1.2,0.3,Time
,,S24,1,,,anonymized,Serial_Dependence_U,2023.2.3,Win32,59.88023952,,,,,,,,,,,,2340.6085,6.0,2340.609,,,,2343.5588,2344.0574,2343.042,2343.5585,2341.6251,155.0,2343.0418,2344.0575,2344.5579,2344.558,2350.5741,9999.0,2350.5746,0.0,2351.5728,6.0,17.0,197.0,28.0,1.0,1.4,0.7,Time
,,S24,1,,,anonymized,Serial_Dependence_U,2023.2.3,Win32,59.88023952,,,,,,,,,,,,2351.5734,6.0,2351.5737,,,,2354.1241,2354.6231,2353.6075,2354.1238,2352.5903,336.0,2353.6073,2354.6232,2355.1231,2355.1231,2361.139,9999.0,2361.1392,0.0,2362.1388,6.0,18.0,198.0,21.0,1.0,1.0,0.3,Time
,,S24,1,,,anonymized,Serial_Dependence_U,2023.2.3,Win32,59.88023952,,,,,,,,,,,,2362.1396,6.0,2362.14,,,,2364.4893,2364.9883,2363.9725,2364.4892,2363.1557,219.0,2363.9723,2364.9884,2365.4881,2365.4883,2371.5047,9999.0,2371.505,0.0,2372.5038,6.0,19.0,199.0,25.0,1.0,0.8,0.7,Time
,,S24,1,,,anonymized,Serial_Dependence_U,2023.2.3,Win32,59.88023952,,,,,,,,,,,,2372.5046,6.0,2372.5049,,,,2374.8544,2375.3531,2374.3381,2374.8543,2373.5215,87.0,2374.338,2375.3531,2375.8534,2375.8535,2381.8698,9999.0,2381.8701,0.0,2382.8692,6.0,20.0,200.0,0.0,1.0,0.8,0.3,Time
,,S24,1,,,anonymized,Serial_Dependence_U,2023.2.3,Win32,59.88023952,,,,,,,,,,,,2382.87,6.0,2382.8703,,,,2385.2028,2385.7017,2384.6857,2385.2027,2383.8775,24.0,2384.6855,2385.7017,2386.1918,2386.1918,2392.2019,9999.0,2392.2023,0.0,2393.2007,6.0,21.0,201.0,10.0,1.0,0.8,0.3,Time
,,S24,1,,,anonymized,Serial_Dependence_U,2023.2.3,Win32,59.88023952,,,,,,,,,,,,2393.2014,6.0,2393.2017,,,,2396.1503,2396.6496,2395.6336,2396.1502,2394.2179,133.0,2395.6334,2396.6496,2397.1501,2397.1502,2403.1664,9999.0,2403.1666,0.0,2404.1658,6.0,22.0,202.0,3.0,1.0,1.4,0.3,Time
,,S24,1,,,anonymized,Serial_Dependence_U,2023.2.3,Win32,59.88023952,,,,,,,,,,,,2404.1667,6.0,2404.1669,,,,2407.1163,2407.615,2406.5993,2407.1162,2405.183,181.0,2406.5991,2407.615,2408.1152,2408.1152,2414.1195,9999.0,2414.12,0.0,2415.1142,6.0,23.0,203.0,23.0,1.0,1.4,0.3,Time
,,S24,1,,,anonymized,Serial_Dependence_U,2023.2.3,Win32,59.88023952,,,,,,,,,,,,2415.1149,6.0,2415.1152,,,,2417.4646,2417.9637,2416.9558,2417.4645,2416.1314,171.0,2416.9557,2417.9638,2418.463,2418.4631,2424.4648,9999.0,2424.4652,0.0,2425.4628,6.0,24.0,204.0,5.0,1.0,0.8,0.7,Time
,,S24,1,,,anonymized,Serial_Dependence_U,2023.2.3,Win32,59.88023952,,,,,,,,,,,,2425.4636,6.0,2425.4639,,,,2428.6122,2429.1117,2428.096,2428.6122,2426.48,94.0,2428.0959,2429.1117,2429.6115,2429.6116,2435.6288,9999.0,2435.6291,0.0,2436.6281,6.0,25.0,205.0,19.0,1.0,1.6,0.7,Time
,,S24,1,,,anonymized,Serial_Dependence_U,2023.2.3,Win32,59.88023952,,,,,,,,,,,,2436.6293,6.0,2436.6298,,,,2439.1786,2439.6777,2438.6621,2439.1785,2437.6451,294.0,2438.6618,2439.6779,2440.1773,2440.1773,2446.1934,9999.0,2446.1937,0.0,2447.1932,6.0,26.0,206.0,11.0,1.0,1.0,0.3,Time
,,S24,1,,,anonymized,Serial_Dependence_U,2023.2.3,Win32,59.88023952,,,,,,,,,,,,2447.1943,6.0,2447.1946,,,,2449.9433,2450.4427,2449.4273,2449.9432,2448.2102,164.0,2449.4271,2450.4428,2450.9427,2450.9428,2456.9592,9999.0,2456.9595,0.0,2457.9584,6.0,27.0,207.0,2.0,1.0,1.2,0.3,Time
,,S24,1,,,anonymized,Serial_Dependence_U,2023.2.3,Win32,59.88023952,,,,,,,,,,,,2457.9594,6.0,2457.9598,,,,2460.3077,2460.8076,2459.7915,2460.3076,2458.9756,50.0,2459.7914,2460.8077,2461.308,2461.308,2467.3241,9999.0,2467.3245,0.0,2468.3232,6.0,28.0,208.0,15.0,1.0,0.8,0.7,Time
,,S24,1,,,anonymized,Serial_Dependence_U,2023.2.3,Win32,59.88023952,,,,,,,,,,,,2468.3239,6.0,2468.3242,,,,2470.6742,2471.1729,2470.1579,2470.674,2469.34,304.0,2470.1577,2471.173,2471.6726,2471.6727,2477.6892,9999.0,2477.6895,0.0,2478.6884,6.0,29.0,209.0,20.0,1.0,0.8,0.3,Time
,,S24,1,,,anonymized,Serial_Dependence_U,2023.2.3,Win32,59.88023952,,,,,,,,,,,,2478.6892,7.0,2480.3892,s,1.6689,,2483.5378,2484.0372,2483.0213,2483.5377,2481.4058,159.0,2483.0212,2484.0373,2484.5371,2484.5371,2490.5539,9999.0,2490.5541,0.0,2491.5532,7.0,0.0,210.0,24.0,1.0,1.6,0.3,Time
,,S24,1,,,anonymized,Serial_Dependence_U,2023.2.3,Win32,59.88023952,,,,,,,,,,,,2491.5541,7.0,2491.5568,,,,2494.1036,2494.6032,2493.5873,2494.1035,2492.5705,13.0,2493.5871,2494.6033,2495.1033,2495.1033,2501.1195,9999.0,2501.1198,0.0,2502.1192,7.0,1.0,211.0,16.0,1.0,1.0,0.7,Time
,,S24,1,,,anonymized,Serial_Dependence_U,2023.2.3,Win32,59.88023952,,,,,,,,,,,,2502.1201,7.0,2502.1204,,,,2504.469,2504.9683,2503.9529,2504.4688,2503.136,63.0,2503.9527,2504.9684,2505.4684,2505.4685,2511.4846,9999.0,2511.4849,0.0,2512.4836,7.0,2.0,212.0,15.0,1.0,0.8,0.7,Time
,,S24,1,,,anonymized,Serial_Dependence_U,2023.2.3,Win32,59.88023952,,,,,,,,,,,,2512.4843,7.0,2512.4846,,,,2515.0166,2515.5157,2514.5,2515.0165,2513.4899,329.0,2514.4998,2515.5158,2516.0165,2516.0165,2522.0233,9999.0,2522.0237,0.0,2523.0157,7.0,3.0,213.0,21.0,1.0,1.0,0.3,Time
,,S24,1,,,anonymized,Serial_Dependence_U,2023.2.3,Win32,59.88023952,,,,,,,,,,,,2523.0165,7.0,2523.0169,,,,2525.9668,2526.4654,2525.4494,2525.9666,2524.0332,263.0,2525.4492,2526.4654,2526.9651,2526.9651,2532.9819,9999.0,2532.9821,0.0,2533.9804,7.0,4.0,214.0,23.0,1.0,1.4,0.3,Time
,,S24,1,,,anonymized,Serial_Dependence_U,2023.2.3,Win32,59.88023952,,,,,,,,,,,,2533.9814,7.0,2533.9819,,,,2536.5314,2537.0301,2536.0145,2536.5313,2534.998,358.0,2536.0144,2537.0301,2537.5302,2537.5303,2543.5456,9999.0,2543.5459,0.0,2544.5452,7.0,5.0,215.0,26.0,1.0,1.0,0.7,Time
,,S24,1,,,anonymized,Serial_Dependence_U,2023.2.3,Win32,59.88023952,,,,,,,,,,,,2544.5458,7.0,2544.546,,,,2547.4967,2547.9956,2546.9794,2547.4966,2545.5627,326.0,2546.9793,2547.9956,2548.4956,2548.4957,2554.5108,9999.0,2554.5109,0.0,2555.5109,7.0,6.0,216.0,8.0,1.0,1.4,0.7,Time
,,S24,1,,,anonymized,Serial_Dependence_U,2023.2.3,Win32,59.88023952,,,,,,,,,,,,2555.5118,7.0,2555.5121,,,,2558.6612,2559.1603,2558.1448,2558.6611,2556.5282,231.0,2558.1446,2559.1603,2559.6604,2559.6604,2565.6766,9999.0,2565.6769,0.0,2566.6753,7.0,7.0,217.0,4.0,1.0,1.6,0.3,Time
,,S24,1,,,anonymized,Serial_Dependence_U,2023.2.3,Win32,59.88023952,,,,,,,,,,,,2566.6757,7.0,2566.6759,,,,2569.0098,2569.508,2568.5089,2569.0097,2567.694,248.0,2568.5087,2569.5081,2570.0086,2570.0087,2576.0256,9999.0,2576.0259,0.0,2577.0239,7.0,8.0,218.0,5.0,1.0,0.8,0.7,Time
,,S24,1,,,anonymized,Serial_Dependence_U,2023.2.3,Win32,59.88023952,,,,,,,,,,,,2577.0242,7.0,2577.0243,,,,2579.775,2580.2738,2579.2585,2579.7749,2578.0419,313.0,2579.2584,2580.2739,2580.7742,2580.7743,2586.7906,9999.0,2586.791,0.0,2587.7891,7.0,9.0,219.0,12.0,1.0,1.2,0.3,Time
,,S24,1,,,anonymized,Serial_Dependence_U,2023.2.3,Win32,59.88023952,,,,,,,,,,,,2587.79,7.0,2587.7905,,,,2590.14,2590.6389,2589.6238,2590.1399,2588.8065,47.0,2589.6236,2590.6389,2591.1394,2591.1395,2597.1554,9999.0,2597.1557,0.0,2598.1542,7.0,10.0,220.0,10.0,1.0,0.8,0.3,Time
,,S24,1,,,anonymized,Serial_Dependence_U,2023.2.3,Win32,59.88023952,,,,,,,,,,,,2598.1546,7.0,2598.1548,,,,2601.289,2601.7879,2600.7725,2601.2889,2599.1562,167.0,2600.7723,2601.788,2602.2878,2602.288,2608.3043,9999.0,2608.3046,0.0,2609.3034,7.0,11.0,221.0,14.0,1.0,1.6,0.3,Time
,,S24,1,,,anonymized,Serial_Dependence_U,2023.2.3,Win32,59.88023952,,,,,,,,,,,,2609.3042,7.0,2609.3044,,,,2611.8538,2612.3526,2611.3372,2611.8536,2610.3205,49.0,2611.337,2612.3527,2612.8528,2612.853,2618.8693,9999.0,2618.8696,0.0,2619.8684,7.0,12.0,222.0,1.0,1.0,1.0,0.3,Time
,,S24,1,,,anonymized,Serial_Dependence_U,2023.2.3,Win32,59.88023952,,,,,,,,,,,,2619.8692,7.0,2619.8696,,,,2622.6189,2623.1183,2622.1023,2622.6188,2620.886,213.0,2622.1021,2623.1183,2623.6182,2623.6182,2629.635,9999.0,2629.6354,0.0,2630.6339,7.0,13.0,223.0,17.0,1.0,1.2,0.7,Time
,,S24,1,,,anonymized,Serial_Dependence_U,2023.2.3,Win32,59.88023952,,,,,,,,,,,,2630.635,7.0,2630.6354,,,,2633.3587,2633.8559,2632.8577,2633.3585,2631.6418,42.0,2632.8575,2633.856,2634.3562,2634.3563,2640.3576,9999.0,2640.358,0.0,2641.3554,7.0,14.0,224.0,27.0,1.0,1.2,0.7,Time
,,S24,1,,,anonymized,Serial_Dependence_U,2023.2.3,Win32,59.88023952,,,,,,,,,,,,2641.3562,7.0,2641.3565,,,,2644.1066,2644.5981,2643.5821,2644.1065,2642.3658,102.0,2643.5818,2644.5982,2645.0978,2645.0979,2651.115,9999.0,2651.1155,0.0,2652.1135,7.0,15.0,225.0,2.0,1.0,1.2,0.3,Time
,,S24,1,,,anonymized,Serial_Dependence_U,2023.2.3,Win32,59.88023952,,,,,,,,,,,,2652.1146,7.0,2652.1153,,,,2654.6479,2655.1461,2654.1307,2654.6477,2653.1218,29.0,2654.1305,2655.1461,2655.6459,2655.6459,2661.6631,9999.0,2661.6635,0.0,2662.6624,7.0,16.0,226.0,11.0,1.0,1.0,0.3,Time
,,S24,1,,,anonymized,Serial_Dependence_U,2023.2.3,Win32,59.88023952,,,,,,,,,,,,2662.6633,7.0,2662.6637,,,,2665.3965,2665.8953,2664.8794,2665.3964,2663.6786,42.0,2664.8793,2665.8953,2666.3953,2666.3954,2672.4121,9999.0,2672.4124,0.0,2673.4109,7.0,17.0,227.0,22.0,1.0,1.2,0.3,Time
,,S24,1,,,anonymized,Serial_Dependence_U,2023.2.3,Win32,59.88023952,,,,,,,,,,,,2673.4119,7.0,2673.4124,,,,2676.3442,2676.8434,2675.8279,2676.3441,2674.4158,14.0,2675.8277,2676.8434,2677.3435,2677.3437,2683.3599,9999.0,2683.3602,0.0,2684.3585,7.0,18.0,228.0,28.0,1.0,1.4,0.7,Time
,,S24,1,,,anonymized,Serial_Dependence_U,2023.2.3,Win32,59.88023952,,,,,,,,,,,,2684.3589,7.0,2684.359,,,,2687.5097,2688.0088,2686.9933,2687.5095,2685.3771,4.0,2686.9932,2688.0088,2688.5088,2688.509,2694.5249,9999.0,2694.5253,0.0,2695.5236,7.0,19.0,229.0,9.0,1.0,1.6,0.7,Time
,,S24,1,,,anonymized,Serial_Dependence_U,2023.2.3,Win32,59.88023952,,,,,,,,,,,,2695.5241,7.0,2695.5243,,,,2697.8751,2698.3739,2697.3582,2697.8749,2696.5418,163.0,2697.358,2698.374,2698.8739,2698.874,2704.8901,9999.0,2704.8904,0.0,2705.8894,7.0,20.0,230.0,25.0,1.0,0.8,0.7,Time
,,S24,1,,,anonymized,Serial_Dependence_U,2023.2.3,Win32,59.88023952,,,,,,,,,,,,2705.8902,7.0,2705.8905,,,,2708.8233,2709.3226,2708.3068,2708.8231,2706.8906,263.0,2708.3066,2709.3227,2709.8225,2709.8226,2715.8389,9999.0,2715.8392,0.0,2716.838,7.0,21.0,231.0,18.0,1.0,1.4,0.7,Time
,,S24,1,,,anonymized,Serial_Dependence_U,2023.2.3,Win32,59.88023952,,,,,,,,,,,,2716.8389,7.0,2716.8392,,,,2719.788,2720.2875,2719.2721,2719.7878,2717.8552,289.0,2719.2718,2720.2875,2720.7874,2720.7875,2726.8039,9999.0,2726.8043,0.0,2727.8028,7.0,22.0,232.0,3.0,1.0,1.4,0.3,Time
,,S24,1,,,anonymized,Serial_Dependence_U,2023.2.3,Win32,59.88023952,,,,,,,,,,,,2727.8037,7.0,2727.804,,,,2730.9368,2731.4356,2730.4201,2730.9366,2728.8033,100.0,2730.4199,2731.4357,2731.9354,2731.9355,2737.9527,9999.0,2737.9531,0.0,2738.9513,7.0,23.0,233.0,19.0,1.0,1.6,0.7,Time
,,S24,1,,,anonymized,Serial_Dependence_U,2023.2.3,Win32,59.88023952,,,,,,,,,,,,2738.9522,7.0,2738.9525,,,,2741.9019,2742.4007,2741.3856,2741.9018,2739.9691,156.0,2741.3854,2742.4008,2742.9011,2742.9012,2748.9175,9999.0,2748.9178,0.0,2749.9166,7.0,24.0,234.0,13.0,1.0,1.4,0.3,Time
,,S24,1,,,anonymized,Serial_Dependence_U,2023.2.3,Win32,59.88023952,,,,,,,,,,,,2749.9174,7.0,2749.9176,,,,2753.0672,2753.5658,2752.5498,2753.0671,2750.9336,101.0,2752.5496,2753.5658,2754.0652,2754.0653,2760.0662,9999.0,2760.0665,0.0,2761.065,7.0,25.0,235.0,29.0,1.0,1.6,0.7,Time
,,S24,1,,,anonymized,Serial_Dependence_U,2023.2.3,Win32,59.88023952,,,,,,,,,,,,2761.0659,7.0,2761.0663,,,,2763.8154,2764.314,2763.2988,2763.8152,2762.0827,296.0,2763.2987,2764.3141,2764.8138,2764.8139,2770.8306,9999.0,2770.831,0.0,2771.8298,7.0,26.0,236.0,7.0,1.0,1.2,0.7,Time
,,S24,1,,,anonymized,Serial_Dependence_U,2023.2.3,Win32,59.88023952,,,,,,,,,,,,2771.8308,7.0,2771.8312,,,,2774.1645,2774.6628,2773.6633,2774.1642,2772.8476,295.0,2773.6632,2774.6629,2775.1627,2775.1628,2781.1795,9999.0,2781.1798,0.0,2782.1789,7.0,27.0,237.0,0.0,1.0,0.8,0.3,Time
,,S24,1,,,anonymized,Serial_Dependence_U,2023.2.3,Win32,59.88023952,,,,,,,,,,,,2782.1797,7.0,2782.18,,,,2784.5126,2785.0107,2784.0115,2784.5124,2783.1962,316.0,2784.0115,2785.0107,2785.5106,2785.5107,2791.5115,9999.0,2791.5118,0.0,2792.5102,7.0,28.0,238.0,20.0,1.0,0.8,0.3,Time
,,S24,1,,,anonymized,Serial_Dependence_U,2023.2.3,Win32,59.88023952,,,,,,,,,,,,2792.511,7.0,2792.5113,,,,2795.0609,2795.56,2794.5445,2795.0607,2793.5285,359.0,2794.5444,2795.56,2796.0604,2796.0604,2802.0764,9999.0,2802.0767,0.0,2803.0755,7.0,29.0,239.0,6.0,1.0,1.0,0.7,Time
,,S24,1,,,anonymized,Serial_Dependence_U,2023.2.3,Win32,59.88023952,,,,,,,,,,,,2803.0765,8.0,2807.5919,s,4.4907,,2810.1252,2810.6244,2809.6242,2810.1251,2808.6089,114.0,2809.6242,2810.6245,2811.1248,2811.1249,2817.1399,9999.0,2817.14,0.0,2818.1397,8.0,0.0,240.0,11.0,1.0,1.0,0.3,Time
,,S24,1,,,anonymized,Serial_Dependence_U,2023.2.3,Win32,59.88023952,,,,,,,,,,,,2818.1407,8.0,2818.1434,,,,2820.4906,2820.9895,2819.9744,2820.4905,2819.1569,325.0,2819.9742,2820.9897,2821.4895,2821.4896,2827.5065,9999.0,2827.5068,0.0,2828.5051,8.0,1.0,241.0,5.0,1.0,0.8,0.7,Time
,,S24,1,,,anonymized,Serial_Dependence_U,2023.2.3,Win32,59.88023952,,,,,,,,,,,,2828.5059,8.0,2828.5064,,,,2831.4554,2831.9546,2830.9391,2831.4553,2829.523,284.0,2830.939,2831.9547,2832.4542,2832.4542,2838.4713,9999.0,2838.4716,0.0,2839.4703,8.0,2.0,242.0,28.0,1.0,1.4,0.7,Time
,,S24,1,,,anonymized,Serial_Dependence_U,2023.2.3,Win32,59.88023952,,,,,,,,,,,,2839.4712,8.0,2839.4717,,,,2842.6202,2843.1193,2842.1041,2842.6201,2840.4876,79.0,2842.1039,2843.1194,2843.6193,2843.6194,2849.6354,9999.0,2849.6356,0.0,2850.6353,8.0,3.0,243.0,29.0,1.0,1.6,0.7,Time
,,S24,1,,,anonymized,Serial_Dependence_U,2023.2.3,Win32,59.88023952,,,,,,,,,,,,2850.6364,8.0,2850.6369,,,,2853.5685,2854.0683,2853.0534,2853.5685,2851.6364,99.0,2853.0533,2854.0683,2854.5684,2854.5685,2860.5847,9999.0,2860.5851,0.0,2861.5841,8.0,4.0,244.0,13.0,1.0,1.4,0.3,Time
,,S24,1,,,anonymized,Serial_Dependence_U,2023.2.3,Win32,59.88023952,,,,,,,,,,,,2861.5852,8.0,2861.5857,,,,2863.9344,2864.4328,2863.4181,2863.9343,2862.6018,247.0,2863.4179,2864.4329,2864.9334,2864.9335,2870.9495,9999.0,2870.9496,0.0,2871.9487,8.0,5.0,245.0,0.0,1.0,0.8,0.3,Time
,,S24,1,,,anonymized,Serial_Dependence_U,2023.2.3,Win32,59.88023952,,,,,,,,,,,,2871.9494,8.0,2871.9497,,,,2875.0833,2875.5819,2874.5822,2875.0831,2872.9667,302.0,2874.582,2875.5819,2876.0817,2876.0818,2882.0988,9999.0,2882.0991,0.0,2883.0978,8.0,6.0,246.0,24.0,1.0,1.6,0.3,Time
,,S24,1,,,anonymized,Serial_Dependence_U,2023.2.3,Win32,59.88023952,,,,,,,,,,,,2883.0986,8.0,2883.0989,,,,2885.4316,2885.9301,2884.9225,2885.4311,2884.106,302.0,2884.9223,2885.9302,2886.4298,2886.4299,2892.4357,9999.0,2892.4359,0.0,2893.4355,8.0,7.0,247.0,15.0,1.0,0.8,0.7,Time
,,S24,1,,,anonymized,Serial_Dependence_U,2023.2.3,Win32,59.88023952,,,,,,,,,,,,2893.4365,8.0,2893.4369,,,,2896.3797,2896.878,2895.8634,2896.3795,2894.4469,152.0,2895.8632,2896.8781,2897.3783,2897.3784,2903.3956,9999.0,2903.396,0.0,2904.3943,8.0,8.0,248.0,3.0,1.0,1.4,0.3,Time
,,S24,1,,,anonymized,Serial_Dependence_U,2023.2.3,Win32,59.88023952,,,,,,,,,,,,2904.3952,8.0,2904.3956,,,,2907.1439,2907.6433,2906.6275,2907.1439,2905.4109,121.0,2906.6273,2907.6433,2908.144,2908.144,2914.1603,9999.0,2914.1606,0.0,2915.1596,8.0,9.0,249.0,7.0,1.0,1.2,0.7,Time
,,S24,1,,,anonymized,Serial_Dependence_U,2023.2.3,Win32,59.88023952,,,,,,,,,,,,2915.1604,8.0,2915.1609,,,,2917.9093,2918.4094,2917.3933,2917.9091,2916.1759,191.0,2917.3931,2918.4094,2918.9091,2918.9092,2924.9247,9999.0,2924.9249,0.0,2925.9241,8.0,10.0,250.0,2.0,1.0,1.2,0.3,Time
,,S24,1,,,anonymized,Serial_Dependence_U,2023.2.3,Win32,59.88023952,,,,,,,,,,,,2925.9246,8.0,2925.9248,,,,2928.875,2929.3737,2928.3589,2928.8749,2926.9414,244.0,2928.3587,2929.3737,2929.8743,2929.8744,2935.8802,9999.0,2935.8804,0.0,2936.8729,8.0,11.0,251.0,23.0,1.0,1.4,0.3,Time
,,S24,1,,,anonymized,Serial_Dependence_U,2023.2.3,Win32,59.88023952,,,,,,,,,,,,2936.8745,8.0,2936.8751,,,,2939.2076,2939.7058,2938.6903,2939.2074,2937.8792,346.0,2938.6901,2939.7059,2940.2054,2940.2055,2946.223,9999.0,2946.2235,0.0,2947.2213,8.0,12.0,252.0,10.0,1.0,0.8,0.3,Time
,,S24,1,,,anonymized,Serial_Dependence_U,2023.2.3,Win32,59.88023952,,,,,,,,,,,,2947.2224,8.0,2947.2231,,,,2950.3721,2950.8766,2949.8553,2950.3719,2948.2451,151.0,2949.8551,2950.8766,2951.3711,2951.3712,2957.3873,9999.0,2957.3876,0.0,2958.3864,8.0,13.0,253.0,14.0,1.0,1.6,0.3,Time
,,S24,1,,,anonymized,Serial_Dependence_U,2023.2.3,Win32,59.88023952,,,,,,,,,,,,2958.3875,8.0,2958.3878,,,,2961.1364,2961.6362,2960.6205,2961.1362,2959.4123,97.0,2960.6203,2961.6362,2962.1362,2962.1363,2968.1528,9999.0,2968.1534,0.0,2969.1519,8.0,14.0,254.0,17.0,1.0,1.2,0.7,Time
,,S24,1,,,anonymized,Serial_Dependence_U,2023.2.3,Win32,59.88023952,,,,,,,,,,,,2969.153,8.0,2969.1534,,,,2972.2748,2972.768,2971.7693,2972.2747,2970.1603,15.0,2971.7692,2972.7682,2973.2681,2973.2683,2979.2843,9999.0,2979.2846,0.0,2980.2836,8.0,15.0,255.0,4.0,1.0,1.6,0.3,Time
,,S24,1,,,anonymized,Serial_Dependence_U,2023.2.3,Win32,59.88023952,,,,,,,,,,,,2980.2845,8.0,2980.2848,,,,2982.834,2983.3331,2982.3173,2982.8338,2981.301,325.0,2982.3171,2983.3332,2983.8329,2983.833,2989.8495,9999.0,2989.8497,0.0,2990.8487,8.0,16.0,256.0,1.0,1.0,1.0,0.3,Time
,,S24,1,,,anonymized,Serial_Dependence_U,2023.2.3,Win32,59.88023952,,,,,,,,,,,,2990.8496,8.0,2990.8499,,,,2993.5987,2994.0977,2993.0825,2993.5986,2991.8663,59.0,2993.0823,2994.0977,2994.5977,2994.5978,3000.6151,9999.0,3000.6154,0.0,3001.6138,8.0,17.0,257.0,12.0,1.0,1.2,0.3,Time
,,S24,1,,,anonymized,Serial_Dependence_U,2023.2.3,Win32,59.88023952,,,,,,,,,,,,3001.6146,8.0,3001.6149,,,,3004.165,3004.6636,3003.6477,3004.1648,3002.6318,154.0,3003.6476,3004.6636,3005.1633,3005.1633,3011.1801,9999.0,3011.1805,0.0,3012.1789,8.0,18.0,258.0,26.0,1.0,1.0,0.7,Time
,,S24,1,,,anonymized,Serial_Dependence_U,2023.2.3,Win32,59.88023952,,,,,,,,,,,,3012.1797,8.0,3012.18,,,,3014.53,3015.0288,3014.013,3014.5298,3013.1966,52.0,3014.0129,3015.0289,3015.5284,3015.5286,3021.5459,9999.0,3021.5462,0.0,3022.5441,8.0,19.0,259.0,25.0,1.0,0.8,0.7,Time
,,S24,1,,,anonymized,Serial_Dependence_U,2023.2.3,Win32,59.88023952,,,,,,,,,,,,3022.5449,8.0,3022.5452,,,,3025.4778,3025.9772,3024.9616,3025.4777,3023.5456,267.0,3024.9613,3025.9773,3026.4769,3026.4769,3032.4936,9999.0,3032.4939,0.0,3033.493,8.0,20.0,260.0,18.0,1.0,1.4,0.7,Time
,,S24,1,,,anonymized,Serial_Dependence_U,2023.2.3,Win32,59.88023952,,,,,,,,,,,,3033.4938,8.0,3033.4942,,,,3036.6431,3037.1424,3036.1267,3036.6429,3034.5103,120.0,3036.1265,3037.1425,3037.6425,3037.6426,3043.6589,9999.0,3043.6593,0.0,3044.6583,8.0,21.0,261.0,9.0,1.0,1.6,0.7,Time
,,S24,1,,,anonymized,Serial_Dependence_U,2023.2.3,Win32,59.88023952,,,,,,,,,,,,3044.6594,8.0,3044.6599,,,,3047.2082,3047.7078,3046.6917,3047.208,3045.6745,120.0,3046.6916,3047.7078,3048.2075,3048.2076,3054.2238,9999.0,3054.2241,0.0,3055.213,8.0,22.0,262.0,16.0,1.0,1.0,0.7,Time
,,S24,1,,,anonymized,Serial_Dependence_U,2023.2.3,Win32,59.88023952,,,,,,,,,,,,3055.2139,8.0,3055.2142,,,,3057.7569,3058.2558,3057.2399,3057.7567,3056.2239,334.0,3057.2398,3058.2559,3058.7461,3058.7462,3064.7558,9999.0,3064.7562,0.0,3065.755,8.0,23.0,263.0,21.0,1.0,1.0,0.3,Time
,,S24,1,,,anonymized,Serial_Dependence_U,2023.2.3,Win32,59.88023952,,,,,,,,,,,,3065.7561,8.0,3065.7564,,,,3068.505,3069.0041,3067.9884,3068.5049,3066.7723,290.0,3067.9882,3069.0041,3069.4942,3069.4942,3075.5037,9999.0,3075.5042,0.0,3076.5033,8.0,24.0,264.0,22.0,1.0,1.2,0.3,Time
,,S24,1,,,anonymized,Serial_Dependence_U,2023.2.3,Win32,59.88023952,,,,,,,,,,,,3076.5041,8.0,3076.5043,,,,3079.4533,3079.9526,3078.9369,3079.4532,3077.5204,84.0,3078.9368,3079.9527,3080.4524,3080.4524,3086.4764,9999.0,3086.4768,0.0,3087.4676,8.0,25.0,265.0,8.0,1.0,1.4,0.7,Time
,,S24,1,,,anonymized,Serial_Dependence_U,2023.2.3,Win32,59.88023952,,,,,,,,,,,,3087.4681,8.0,3087.4683,,,,3089.8235,3090.3175,3089.3022,3089.8233,3088.486,240.0,3089.302,3090.3176,3090.8218,3090.8219,3096.8413,9999.0,3096.8417,0.0,3097.8332,8.0,26.0,266.0,20.0,1.0,0.8,0.3,Time
,,S24,1,,,anonymized,Serial_Dependence_U,2023.2.3,Win32,59.88023952,,,,,,,,,,,,3097.8341,8.0,3097.8346,,,,3100.3902,3100.883,3099.8746,3100.3902,3098.8518,322.0,3099.8744,3100.883,3101.3826,3101.3827,3107.3992,9999.0,3107.3996,0.0,3108.405,8.0,27.0,267.0,6.0,1.0,1.0,0.7,Time
,,S24,1,,,anonymized,Serial_Dependence_U,2023.2.3,Win32,59.88023952,,,,,,,,,,,,3108.4061,8.0,3108.4068,,,,3111.5495,3112.0478,3111.0331,3111.5492,3109.4162,201.0,3111.033,3112.0479,3112.5481,3112.5482,3118.5688,9999.0,3118.5692,0.0,3119.5639,8.0,28.0,268.0,19.0,1.0,1.6,0.7,Time
,,S24,1,,,anonymized,Serial_Dependence_U,2023.2.3,Win32,59.88023952,,,,,,,,,,,,3119.5648,8.0,3119.5651,,,,3122.3142,3122.8131,3121.7976,3122.3141,3120.5882,29.0,3121.7975,3122.8132,3123.3135,3123.3136,3129.33,9999.0,3129.3304,0.0,3130.3288,8.0,29.0,269.0,27.0,1.0,1.2,0.7,Time
