Scale_setup.started,Scale_setup.stopped,participant,session,sex,age,date,expName,psychopyVersion,OS,frameRate,screen_scale_keys.started,screen_scale_keys.stopped,X Scale,Y Scale,rectangel_keys.started,rectangel_keys.stopped,Intro.started,Intro.stopped,key_resp_2.keys,key_resp_2.rt,key_resp_2.duration,block.started,Block_id,block.stopped,Block_resp_2.keys,Block_resp_2.rt,Block_resp_2.duration,ITI.started,ITI.stopped,Mask_2.started,Mask_2.stopped,M2.started,direction,M2.stopped,Cue.started,Cue.stopped,Response.started,Response.stopped,keyDuration,Feedback_Time.started,FeedbackID_T,Feedback_Time.stopped,trials.thisRepN,trials.thisTrialN,trials.thisN,trials.thisIndex,trials.ran,TimeDur,Coherence1,TrialType
0.0004,0.0009,S27,1,Female,25,anonymized,Serial_Dependence_U,2023.2.3,Win32,59.17159763,,,,,,,,,,,,,,,,,,,,,,,,,,,,,,,,,,,,,,,,
,,S27,1,Female,25,anonymized,Serial_Dependence_U,2023.2.3,Win32,59.17159763,0.0044,8.7594,0.05,0.05,8.7598,12.24,12.2413,157.3748,space,145.0417,,,,,,,,,,,,,,,,,,,,,,,,,,,,,,
,,S27,1,Female,25,anonymized,Serial_Dependence_U,2023.2.3,Win32,59.17159763,,,,,,,,,,,,157.4027,0.0,164.7371,s,7.301,,167.4756,167.9686,166.9607,167.4753,165.7563,112.0,166.9603,167.9692,168.4686,168.4694,174.1852,2179.5,174.187,5.0,175.1822,0.0,0.0,0.0,17.0,1.0,1.2,0.7,Time
,,S27,1,Female,25,anonymized,Serial_Dependence_U,2023.2.3,Win32,59.17159763,,,,,,,,,,,,175.1837,0.0,175.191,,,,177.9376,178.4306,177.4156,177.9373,176.1992,66.0,177.4154,178.4308,178.9306,178.9308,180.7976,1255.6,180.7981,3.0,181.7957,0.0,1.0,1.0,27.0,1.0,1.2,0.7,Time
,,S27,1,Female,25,anonymized,Serial_Dependence_U,2023.2.3,Win32,59.17159763,,,,,,,,,,,,181.7974,0.0,181.7981,,,,184.3459,184.8444,183.8303,184.3457,182.8131,281.0,183.8299,184.8444,185.3442,185.3442,188.3102,1921.3,188.3108,5.0,189.3089,0.0,2.0,2.0,1.0,1.0,1.0,0.3,Time
,,S27,1,Female,25,anonymized,Serial_Dependence_U,2023.2.3,Win32,59.17159763,,,,,,,,,,,,189.31,0.0,189.3106,,,,192.2422,192.7408,191.7312,192.242,190.3147,157.0,191.731,192.7409,193.2406,193.2407,194.9954,1282.0,194.9961,2.0,195.9893,0.0,3.0,3.0,23.0,1.0,1.4,0.3,Time
,,S27,1,Female,25,anonymized,Serial_Dependence_U,2023.2.3,Win32,59.17159763,,,,,,,,,,,,195.9902,0.0,195.9907,,,,199.1223,199.6207,198.6057,199.1222,196.9961,359.0,198.6055,199.6208,200.1209,200.1209,201.754,1431.6,201.7545,2.0,202.7534,0.0,4.0,4.0,19.0,1.0,1.6,0.7,Time
,,S27,1,Female,25,anonymized,Serial_Dependence_U,2023.2.3,Win32,59.17159763,,,,,,,,,,,,202.7544,0.0,202.7553,,,,205.2867,205.7846,204.7696,205.2864,203.7599,288.0,204.7693,205.7846,206.2848,206.2849,208.1845,1411.3,208.1852,5.0,209.1832,0.0,5.0,5.0,16.0,1.0,1.0,0.7,Time
,,S27,1,Female,25,anonymized,Serial_Dependence_U,2023.2.3,Win32,59.17159763,,,,,,,,,,,,209.1842,0.0,209.185,,,,211.5206,212.0153,211.006,211.5204,210.2008,181.0,211.0057,212.0156,212.5149,212.5151,214.0704,1234.3,214.0711,5.0,215.064,0.0,6.0,6.0,20.0,1.0,0.8,0.3,Time
,,S27,1,Female,25,anonymized,Serial_Dependence_U,2023.2.3,Win32,59.17159763,,,,,,,,,,,,215.0652,0.0,215.066,,,,217.5974,218.1409,217.0868,217.5972,216.0814,273.0,217.0865,218.141,218.6124,218.6125,219.9191,849.6,219.9199,2.0,220.9115,0.0,7.0,7.0,21.0,1.0,1.0,0.3,Time
,,S27,1,Female,25,anonymized,Serial_Dependence_U,2023.2.3,Win32,59.17159763,,,,,,,,,,,,220.9126,0.0,220.9133,,,,224.0611,224.5596,223.5451,224.0609,221.9289,135.0,223.5448,224.5596,225.0595,225.0597,227.3415,1190.3,227.342,2.0,228.3413,0.0,8.0,8.0,9.0,1.0,1.6,0.7,Time
,,S27,1,Female,25,anonymized,Serial_Dependence_U,2023.2.3,Win32,59.17159763,,,,,,,,,,,,228.3427,0.0,228.3432,,,,231.0916,231.5899,230.5747,231.0912,229.3589,36.0,230.5744,231.5902,232.0895,232.0897,233.3066,851.6,233.3072,2.0,234.3051,0.0,9.0,9.0,7.0,1.0,1.2,0.7,Time
,,S27,1,Female,25,anonymized,Serial_Dependence_U,2023.2.3,Win32,59.17159763,,,,,,,,,,,,234.3062,0.0,234.3067,,,,236.8622,237.3542,236.3393,236.8582,235.3239,231.0,236.3391,237.3543,237.8541,237.8543,249.2724,9999.0,249.2727,0.0,250.0647,0.0,10.0,10.0,26.0,1.0,1.0,0.7,Time
,,S27,1,Female,25,anonymized,Serial_Dependence_U,2023.2.3,Win32,59.17159763,,,,,,,,,,,,250.0658,0.0,250.0664,,,,253.0033,253.4966,252.4985,253.0029,251.0824,41.0,252.4982,253.4967,253.9961,253.9962,255.5461,1009.6,255.5465,2.0,256.5451,0.0,11.0,11.0,18.0,1.0,1.4,0.7,Time
,,S27,1,Female,25,anonymized,Serial_Dependence_U,2023.2.3,Win32,59.17159763,,,,,,,,,,,,256.5461,0.0,256.5466,,,,259.2773,259.777,258.7616,259.2771,257.547,20.0,258.7613,259.7771,260.2767,260.2767,261.7263,1366.2,261.727,4.0,262.7259,0.0,12.0,12.0,2.0,1.0,1.2,0.3,Time
,,S27,1,Female,25,anonymized,Serial_Dependence_U,2023.2.3,Win32,59.17159763,,,,,,,,,,,,262.7269,0.0,262.7275,,,,265.0637,265.5578,264.5596,265.0633,263.7444,203.0,264.5593,265.5578,266.0576,266.0577,268.1906,1796.4,268.1914,5.0,269.189,0.0,13.0,13.0,5.0,1.0,0.8,0.7,Time
,,S27,1,Female,25,anonymized,Serial_Dependence_U,2023.2.3,Win32,59.17159763,,,,,,,,,,,,269.1903,0.0,269.191,,,,272.1223,272.6214,271.6063,272.122,270.1948,110.0,271.6059,272.6214,273.1213,273.1215,273.7766,631.8000001,273.7771,1.0,274.7704,0.0,14.0,14.0,28.0,1.0,1.4,0.7,Time
,,S27,1,Female,25,anonymized,Serial_Dependence_U,2023.2.3,Win32,59.17159763,,,,,,,,,,,,274.7721,0.0,274.7727,,,,277.7209,278.2187,277.2038,277.7207,275.792,171.0,277.2035,278.2188,278.7184,278.7185,280.2349,1306.2,280.2356,2.0,281.2339,0.0,15.0,15.0,3.0,1.0,1.4,0.3,Time
,,S27,1,Female,25,anonymized,Serial_Dependence_U,2023.2.3,Win32,59.17159763,,,,,,,,,,,,281.2349,0.0,281.2355,,,,284.1837,284.6821,283.6674,284.1832,282.2511,284.0,283.667,284.6821,285.182,285.182,285.3323,107.3,285.3329,1.0,286.3322,0.0,16.0,16.0,8.0,1.0,1.4,0.7,Time
,,S27,1,Female,25,anonymized,Serial_Dependence_U,2023.2.3,Win32,59.17159763,,,,,,,,,,,,286.334,0.0,286.3349,,,,289.0653,289.5678,288.5529,289.0651,287.3384,189.0,288.5524,289.5678,290.0632,290.0633,290.5019,412.8000001,290.5023,1.0,291.496,0.0,17.0,17.0,22.0,1.0,1.2,0.3,Time
,,S27,1,Female,25,anonymized,Serial_Dependence_U,2023.2.3,Win32,59.17159763,,,,,,,,,,,,291.4971,0.0,291.4979,,,,293.8299,294.3284,293.3136,293.8297,292.503,243.0,293.3132,294.3285,294.8278,294.828,296.5447,1391.7,296.5454,5.0,297.5428,0.0,18.0,18.0,15.0,1.0,0.8,0.7,Time
,,S27,1,Female,25,anonymized,Serial_Dependence_U,2023.2.3,Win32,59.17159763,,,,,,,,,,,,297.5438,0.0,297.5445,,,,299.8931,300.3915,299.3766,299.8929,298.5604,138.0,299.3764,300.3916,300.8914,300.8915,303.0581,2000.8,303.0586,5.0,304.0564,0.0,19.0,19.0,0.0,1.0,0.8,0.3,Time
,,S27,1,Female,25,anonymized,Serial_Dependence_U,2023.2.3,Win32,59.17159763,,,,,,,,,,,,304.0576,0.0,304.058,,,,306.7957,307.289,306.2904,306.7954,305.0791,30.0,306.2902,307.2891,307.7885,307.7887,309.5603,1394.0,309.5608,4.0,310.5544,0.0,20.0,20.0,12.0,1.0,1.2,0.3,Time
,,S27,1,Female,25,anonymized,Serial_Dependence_U,2023.2.3,Win32,59.17159763,,,,,,,,,,,,310.5553,0.0,310.5559,,,,313.1042,313.6027,312.5873,313.1039,311.5776,112.0,312.587,313.6027,314.1061,314.1062,314.3365,203.7,314.3371,1.0,315.3353,0.0,21.0,21.0,6.0,1.0,1.0,0.7,Time
,,S27,1,Female,25,anonymized,Serial_Dependence_U,2023.2.3,Win32,59.17159763,,,,,,,,,,,,315.3371,0.0,315.3381,,,,317.6895,318.1838,317.1747,317.6892,316.3528,115.0,317.1744,318.1839,318.6841,318.6842,319.6562,928.5,319.6568,4.0,320.6498,0.0,22.0,22.0,10.0,1.0,0.8,0.3,Time
,,S27,1,Female,25,anonymized,Serial_Dependence_U,2023.2.3,Win32,59.17159763,,,,,,,,,,,,320.6512,0.0,320.6518,,,,323.1994,323.698,322.6832,323.1991,321.6677,307.0,322.683,323.6981,324.1985,324.1985,325.2365,1014.8,325.2369,3.0,326.2302,0.0,23.0,23.0,11.0,1.0,1.0,0.3,Time
,,S27,1,Female,25,anonymized,Serial_Dependence_U,2023.2.3,Win32,59.17159763,,,,,,,,,,,,326.2314,0.0,326.2318,,,,329.1635,329.6616,328.6528,329.1632,327.2343,264.0,328.6524,329.6616,330.1616,330.1619,331.2337,1048.8,331.2343,2.0,332.2273,0.0,24.0,24.0,13.0,1.0,1.4,0.3,Time
,,S27,1,Female,25,anonymized,Serial_Dependence_U,2023.2.3,Win32,59.17159763,,,,,,,,,,,,332.2285,0.0,332.229,,,,335.3776,335.8759,334.8606,335.3773,333.2448,259.0,334.8604,335.876,336.3754,336.3755,337.5311,807.6999999,337.5318,1.0,338.5245,0.0,25.0,25.0,14.0,1.0,1.6,0.3,Time
,,S27,1,Female,25,anonymized,Serial_Dependence_U,2023.2.3,Win32,59.17159763,,,,,,,,,,,,338.5258,0.0,338.5266,,,,341.6747,342.173,341.1585,341.6745,339.5432,257.0,341.1582,342.1732,342.673,342.6731,343.723,1006.9,343.7235,1.0,344.7218,0.0,26.0,26.0,4.0,1.0,1.6,0.3,Time
,,S27,1,Female,25,anonymized,Serial_Dependence_U,2023.2.3,Win32,59.17159763,,,,,,,,,,,,344.7228,0.0,344.7236,,,,347.8727,348.37,347.3552,347.8723,345.7393,296.0,347.3549,348.3701,348.8698,348.8699,350.7534,1545.5,350.7542,3.0,351.752,0.0,27.0,27.0,29.0,1.0,1.6,0.7,Time
,,S27,1,Female,25,anonymized,Serial_Dependence_U,2023.2.3,Win32,59.17159763,,,,,,,,,,,,351.7531,0.0,351.7536,,,,354.9023,355.4002,354.3856,354.902,352.7702,38.0,354.3853,355.4003,355.9002,355.9004,357.556,1278.6,357.5565,2.0,358.5489,0.0,28.0,28.0,24.0,1.0,1.6,0.3,Time
,,S27,1,Female,25,anonymized,Serial_Dependence_U,2023.2.3,Win32,59.17159763,,,,,,,,,,,,358.5498,0.0,358.5503,,,,360.8824,361.3808,360.3711,360.8822,359.5537,76.0,360.3708,361.3809,361.8805,361.8807,363.0863,1089.4,363.087,5.0,364.0796,0.0,29.0,29.0,25.0,1.0,0.8,0.7,Time
,,S27,1,Female,25,anonymized,Serial_Dependence_U,2023.2.3,Win32,59.17159763,,,,,,,,,,,,364.0808,1.0,372.7921,s,8.6549,,375.3423,375.8408,374.8256,375.342,373.8147,161.0,374.8253,375.8409,376.3407,376.3409,378.4237,1709.8,378.4243,5.0,379.4226,1.0,0.0,30.0,11.0,1.0,1.0,0.3,Time
,,S27,1,Female,25,anonymized,Serial_Dependence_U,2023.2.3,Win32,59.17159763,,,,,,,,,,,,379.424,1.0,379.4289,,,,382.5729,383.0712,382.0557,382.5727,380.4449,323.0,382.0555,383.0713,383.5707,383.5709,385.4709,1413.8,385.4716,2.0,386.4694,1.0,1.0,31.0,4.0,1.0,1.6,0.3,Time
,,S27,1,Female,25,anonymized,Serial_Dependence_U,2023.2.3,Win32,59.17159763,,,,,,,,,,,,386.4707,1.0,386.4714,,,,389.0028,389.5015,388.487,389.0026,387.4768,323.0,388.4868,389.5015,390.0015,390.0016,390.2071,182.0,390.2075,1.0,391.2012,1.0,2.0,32.0,1.0,1.0,1.0,0.3,Time
,,S27,1,Female,25,anonymized,Serial_Dependence_U,2023.2.3,Win32,59.17159763,,,,,,,,,,,,391.2027,1.0,391.2034,,,,393.5341,394.0331,393.0179,393.5339,392.207,83.0,393.0176,394.0332,394.5328,394.5331,395.5325,975.0999999,395.5331,4.0,396.5316,1.0,3.0,33.0,25.0,1.0,0.8,0.7,Time
,,S27,1,Female,25,anonymized,Serial_Dependence_U,2023.2.3,Win32,59.17159763,,,,,,,,,,,,396.5327,1.0,396.5333,,,,399.2689,399.7631,398.7487,399.2686,397.5372,334.0,398.7484,399.7632,400.263,400.2631,401.8187,1263.8,401.8193,4.0,402.812,1.0,4.0,34.0,17.0,1.0,1.2,0.7,Time
,,S27,1,Female,25,anonymized,Serial_Dependence_U,2023.2.3,Win32,59.17159763,,,,,,,,,,,,402.813,1.0,402.8135,,,,405.9616,406.4604,405.4456,405.9614,403.8295,129.0,405.4452,406.4604,406.9603,406.9605,408.5108,1321.9,408.5114,2.0,409.5087,1.0,5.0,35.0,14.0,1.0,1.6,0.3,Time
,,S27,1,Female,25,anonymized,Serial_Dependence_U,2023.2.3,Win32,59.17159763,,,,,,,,,,,,409.5101,1.0,409.5108,,,,411.8473,412.3405,411.3319,411.8469,410.5129,28.0,411.3315,412.3407,412.8407,412.8408,414.3477,1276.8,414.3485,5.0,415.3391,1.0,6.0,36.0,15.0,1.0,0.8,0.7,Time
,,S27,1,Female,25,anonymized,Serial_Dependence_U,2023.2.3,Win32,59.17159763,,,,,,,,,,,,415.3405,1.0,415.3411,,,,417.8897,418.388,417.3736,417.8893,416.357,268.0,417.3733,418.3881,418.8878,418.8881,420.338,1033.3,420.3386,3.0,421.3367,1.0,7.0,37.0,26.0,1.0,1.0,0.7,Time
,,S27,1,Female,25,anonymized,Serial_Dependence_U,2023.2.3,Win32,59.17159763,,,,,,,,,,,,421.3378,1.0,421.3388,,,,424.491,424.9852,423.9706,424.4906,422.3595,305.0,423.9702,424.9853,425.4853,425.4853,426.857,1028.9,426.8576,1.0,427.8507,1.0,8.0,38.0,9.0,1.0,1.6,0.7,Time
,,S27,1,Female,25,anonymized,Serial_Dependence_U,2023.2.3,Win32,59.17159763,,,,,,,,,,,,427.8519,1.0,427.8525,,,,430.7839,431.2823,430.2677,430.7836,428.857,274.0,430.2673,431.2824,431.7824,431.7825,433.1384,895.5,433.1389,1.0,434.1313,1.0,9.0,39.0,18.0,1.0,1.4,0.7,Time
,,S27,1,Female,25,anonymized,Serial_Dependence_U,2023.2.3,Win32,59.17159763,,,,,,,,,,,,434.133,1.0,434.1336,,,,437.2645,437.7631,436.7477,437.2642,435.1361,269.0,436.7474,437.7631,438.263,438.2631,439.102,816.4,439.1026,1.0,440.0947,1.0,10.0,40.0,24.0,1.0,1.6,0.3,Time
,,S27,1,Female,25,anonymized,Serial_Dependence_U,2023.2.3,Win32,59.17159763,,,,,,,,,,,,440.0957,1.0,440.0962,,,,443.0276,443.5273,442.5117,443.0274,441.1018,348.0,442.5115,443.5273,444.0266,444.0268,445.1099,1001.5,445.1105,2.0,446.1088,1.0,11.0,41.0,3.0,1.0,1.4,0.3,Time
,,S27,1,Female,25,anonymized,Serial_Dependence_U,2023.2.3,Win32,59.17159763,,,,,,,,,,,,446.1102,1.0,446.1111,,,,448.4594,448.9575,447.9432,448.4591,447.1334,300.0,447.9429,448.9576,449.4574,449.4577,450.8075,994.5,450.808,4.0,451.8063,1.0,12.0,42.0,20.0,1.0,0.8,0.3,Time
,,S27,1,Female,25,anonymized,Serial_Dependence_U,2023.2.3,Win32,59.17159763,,,,,,,,,,,,451.8078,1.0,451.8086,,,,454.557,455.0551,454.0404,454.5565,452.8239,337.0,454.0399,455.0552,455.5551,455.5553,457.1384,1232.8,457.1389,3.0,458.1368,1.0,13.0,43.0,22.0,1.0,1.2,0.3,Time
,,S27,1,Female,25,anonymized,Serial_Dependence_U,2023.2.3,Win32,59.17159763,,,,,,,,,,,,458.1382,1.0,458.1387,,,,461.2926,461.7855,460.77,461.2923,459.1546,71.0,460.7698,461.7855,462.2851,462.2852,463.208,637.5,463.2085,1.0,464.2013,1.0,14.0,44.0,29.0,1.0,1.6,0.7,Time
,,S27,1,Female,25,anonymized,Serial_Dependence_U,2023.2.3,Win32,59.17159763,,,,,,,,,,,,464.2024,1.0,464.2028,,,,466.9342,467.433,466.4214,466.9339,465.2075,329.0,466.4211,467.4331,467.9328,467.9329,469.4214,1131.2,469.4219,2.0,470.4148,1.0,15.0,45.0,27.0,1.0,1.2,0.7,Time
,,S27,1,Female,25,anonymized,Serial_Dependence_U,2023.2.3,Win32,59.17159763,,,,,,,,,,,,470.416,1.0,470.4164,,,,472.7486,473.2467,472.2368,472.7484,471.4173,319.0,472.2366,473.2468,473.7471,473.7472,475.7796,1610.4,475.7802,5.0,476.779,1.0,16.0,46.0,10.0,1.0,0.8,0.3,Time
,,S27,1,Female,25,anonymized,Serial_Dependence_U,2023.2.3,Win32,59.17159763,,,,,,,,,,,,476.7802,1.0,476.7808,,,,479.7118,480.21,479.1993,479.7115,477.784,53.0,479.1989,480.2101,480.7102,480.7104,484.1968,2492.5,484.1973,5.0,485.1912,1.0,17.0,47.0,13.0,1.0,1.4,0.3,Time
,,S27,1,Female,25,anonymized,Serial_Dependence_U,2023.2.3,Win32,59.17159763,,,,,,,,,,,,485.1924,1.0,485.1931,,,,487.5253,488.0235,487.0086,487.525,486.1969,62.0,487.0083,488.0236,488.5234,488.5235,489.3788,831.7,489.3795,3.0,490.3726,1.0,18.0,48.0,5.0,1.0,0.8,0.7,Time
,,S27,1,Female,25,anonymized,Serial_Dependence_U,2023.2.3,Win32,59.17159763,,,,,,,,,,,,490.3737,1.0,490.3741,,,,493.3226,493.8209,492.8063,493.3223,491.3938,307.0,492.806,493.821,494.3209,494.3211,494.7593,415.0,494.7598,1.0,495.7533,1.0,19.0,49.0,8.0,1.0,1.4,0.7,Time
,,S27,1,Female,25,anonymized,Serial_Dependence_U,2023.2.3,Win32,59.17159763,,,,,,,,,,,,495.7546,1.0,495.7554,,,,498.3033,498.8018,497.7872,498.3031,496.771,71.0,497.7869,498.8018,499.3016,499.3017,500.4522,1118.2,500.4529,4.0,501.4504,1.0,20.0,50.0,21.0,1.0,1.0,0.3,Time
,,S27,1,Female,25,anonymized,Serial_Dependence_U,2023.2.3,Win32,59.17159763,,,,,,,,,,,,501.4517,1.0,501.4523,,,,504.1845,504.6825,503.6677,504.1842,502.4563,105.0,503.6674,504.6826,505.1822,505.1824,505.7207,514.5,505.7213,1.0,506.7153,1.0,21.0,51.0,12.0,1.0,1.2,0.3,Time
,,S27,1,Female,25,anonymized,Serial_Dependence_U,2023.2.3,Win32,59.17159763,,,,,,,,,,,,506.7163,1.0,506.7167,,,,509.6534,510.147,509.1485,509.6532,507.7324,137.0,509.1482,510.147,510.6466,510.6467,511.652,965.5,511.6525,1.0,512.6459,1.0,22.0,52.0,28.0,1.0,1.4,0.7,Time
,,S27,1,Female,25,anonymized,Serial_Dependence_U,2023.2.3,Win32,59.17159763,,,,,,,,,,,,512.6476,1.0,512.6486,,,,514.979,515.4772,514.4633,514.9788,513.6485,315.0,514.463,515.4772,515.9775,515.9777,517.2327,1240.1,517.2333,5.0,518.2265,1.0,23.0,53.0,0.0,1.0,0.8,0.3,Time
,,S27,1,Female,25,anonymized,Serial_Dependence_U,2023.2.3,Win32,59.17159763,,,,,,,,,,,,518.2275,1.0,518.2279,,,,521.3601,521.8579,520.8438,521.3598,519.2324,96.0,520.8435,521.8579,522.358,522.3581,523.1804,798.6999999,523.1809,1.0,524.1738,1.0,24.0,54.0,19.0,1.0,1.6,0.7,Time
,,S27,1,Female,25,anonymized,Serial_Dependence_U,2023.2.3,Win32,59.17159763,,,,,,,,,,,,524.1753,1.0,524.176,,,,526.7071,527.2056,526.1907,526.7069,525.1788,3.0,526.1904,527.2056,527.7052,527.7056,528.6611,932.0,528.6617,2.0,529.6584,1.0,25.0,55.0,16.0,1.0,1.0,0.7,Time
,,S27,1,Female,25,anonymized,Serial_Dependence_U,2023.2.3,Win32,59.17159763,,,,,,,,,,,,529.6595,1.0,529.6598,,,,532.3888,532.8863,531.872,532.3884,530.66,356.0,531.8717,532.8864,533.386,533.3862,534.8245,1413.9,534.8251,4.0,535.8185,1.0,26.0,56.0,2.0,1.0,1.2,0.3,Time
,,S27,1,Female,25,anonymized,Serial_Dependence_U,2023.2.3,Win32,59.17159763,,,,,,,,,,,,535.8196,1.0,535.8203,,,,538.3521,538.8504,537.8356,538.3519,536.8216,44.0,537.8354,538.8505,539.3502,539.3504,540.1675,770.8000001,540.1681,2.0,541.1659,1.0,27.0,57.0,6.0,1.0,1.0,0.7,Time
,,S27,1,Female,25,anonymized,Serial_Dependence_U,2023.2.3,Win32,59.17159763,,,,,,,,,,,,541.1669,1.0,541.1677,,,,543.9083,544.3977,543.3991,543.9075,542.1887,99.0,543.3989,544.3977,544.8971,544.8972,546.5024,1309.5,546.5029,4.0,547.4962,1.0,28.0,58.0,7.0,1.0,1.2,0.7,Time
,,S27,1,Female,25,anonymized,Serial_Dependence_U,2023.2.3,Win32,59.17159763,,,,,,,,,,,,547.4977,1.0,547.4983,,,,550.4371,550.928,549.9295,550.4361,548.5199,116.0,549.9293,550.9281,551.4278,551.428,552.3345,882.1999999,552.3351,1.0,553.3274,1.0,29.0,59.0,23.0,1.0,1.4,0.3,Time
,,S27,1,Female,25,anonymized,Serial_Dependence_U,2023.2.3,Win32,59.17159763,,,,,,,,,,,,553.329,2.0,584.6632,s,31.2983,,587.0131,587.5115,586.4963,587.0128,585.6804,149.0,586.4962,587.5116,588.0111,588.0113,588.8503,562.0999999,588.8509,2.0,589.8437,2.0,0.0,60.0,15.0,1.0,0.8,0.7,Time
,,S27,1,Female,25,anonymized,Serial_Dependence_U,2023.2.3,Win32,59.17159763,,,,,,,,,,,,589.8447,2.0,589.8494,,,,592.3774,592.8759,591.8613,592.3771,590.8516,293.0,591.8611,592.8759,593.3753,593.3754,594.459,802.8000001,594.4594,2.0,595.4582,2.0,1.0,61.0,6.0,1.0,1.0,0.7,Time
,,S27,1,Female,25,anonymized,Serial_Dependence_U,2023.2.3,Win32,59.17159763,,,,,,,,,,,,595.4592,2.0,595.4597,,,,598.0084,598.5067,597.4956,598.0081,596.4756,31.0,597.4955,598.5067,599.0063,599.0065,600.6728,1403.5,600.6735,5.0,601.6715,2.0,2.0,62.0,21.0,1.0,1.0,0.3,Time
,,S27,1,Female,25,anonymized,Serial_Dependence_U,2023.2.3,Win32,59.17159763,,,,,,,,,,,,601.6726,2.0,601.6733,,,,604.2389,604.7369,603.7197,604.2386,602.6948,9.0,603.7192,604.737,605.2367,605.2368,606.6368,1216.4,606.6375,4.0,607.6358,2.0,3.0,63.0,26.0,1.0,1.0,0.7,Time
,,S27,1,Female,25,anonymized,Serial_Dependence_U,2023.2.3,Win32,59.17159763,,,,,,,,,,,,607.6371,2.0,607.6376,,,,609.9697,610.468,609.456,609.9695,608.6531,261.0,609.4557,610.468,610.9677,610.9679,613.1042,1815.5,613.1046,5.0,614.0995,2.0,4.0,64.0,5.0,1.0,0.8,0.7,Time
,,S27,1,Female,25,anonymized,Serial_Dependence_U,2023.2.3,Win32,59.17159763,,,,,,,,,,,,614.1005,2.0,614.1013,,,,617.2382,617.7311,616.7213,617.2381,615.1171,92.0,616.721,617.7311,618.2312,618.2313,618.9536,698.7,618.9542,1.0,619.9466,2.0,5.0,65.0,9.0,1.0,1.6,0.7,Time
,,S27,1,Female,25,anonymized,Serial_Dependence_U,2023.2.3,Win32,59.17159763,,,,,,,,,,,,619.9483,2.0,619.9487,,,,622.6969,623.1955,622.1803,622.6966,620.9648,199.0,622.1799,623.1955,623.6961,623.6963,624.3197,600.1999999,624.3208,1.0,625.3108,2.0,6.0,66.0,22.0,1.0,1.2,0.3,Time
,,S27,1,Female,25,anonymized,Serial_Dependence_U,2023.2.3,Win32,59.17159763,,,,,,,,,,,,625.3121,2.0,625.3128,,,,628.462,628.9592,627.9448,628.4615,626.3271,107.0,627.9445,628.9592,629.459,629.4592,630.6592,832.1,630.6599,1.0,631.6582,2.0,7.0,67.0,24.0,1.0,1.6,0.3,Time
,,S27,1,Female,25,anonymized,Serial_Dependence_U,2023.2.3,Win32,59.17159763,,,,,,,,,,,,631.6593,2.0,631.66,,,,634.8085,635.3068,634.2926,634.8083,632.6757,4.0,634.2921,635.3068,635.8065,635.8066,637.2899,1299.1,637.2904,2.0,638.2884,2.0,8.0,68.0,4.0,1.0,1.6,0.3,Time
,,S27,1,Female,25,anonymized,Serial_Dependence_U,2023.2.3,Win32,59.17159763,,,,,,,,,,,,638.2895,2.0,638.2899,,,,641.4275,641.9204,640.9219,641.4273,639.3057,222.0,640.9218,641.9205,642.4204,642.4205,643.8531,921.6,643.8536,1.0,644.8523,2.0,9.0,69.0,14.0,1.0,1.6,0.3,Time
,,S27,1,Female,25,anonymized,Serial_Dependence_U,2023.2.3,Win32,59.17159763,,,,,,,,,,,,644.8533,2.0,644.8541,,,,647.6061,648.1008,647.0857,647.6059,645.8696,354.0,647.0854,648.1009,648.6042,648.6044,648.9481,323.8,648.95,1.0,649.95,2.0,10.0,70.0,27.0,1.0,1.2,0.7,Time
,,S27,1,Female,25,anonymized,Serial_Dependence_U,2023.2.3,Win32,59.17159763,,,,,,,,,,,,649.9512,2.0,649.9517,,,,652.6997,653.1984,652.184,652.6994,650.9681,186.0,652.1837,653.1984,653.6981,653.6982,654.8706,1132.2,654.8712,2.0,655.8645,2.0,11.0,71.0,17.0,1.0,1.2,0.7,Time
,,S27,1,Female,25,anonymized,Serial_Dependence_U,2023.2.3,Win32,59.17159763,,,,,,,,,,,,655.8659,2.0,655.8665,,,,658.5851,659.0793,658.0807,658.5849,656.8704,50.0,658.0804,659.0794,659.5789,659.579,660.246,621.5,660.2466,1.0,661.2446,2.0,12.0,72.0,12.0,1.0,1.2,0.3,Time
,,S27,1,Female,25,anonymized,Serial_Dependence_U,2023.2.3,Win32,59.17159763,,,,,,,,,,,,661.2459,2.0,661.2463,,,,664.1952,664.6931,663.677,664.1949,662.2624,198.0,663.6766,664.6931,665.1923,665.1924,665.9938,765.1,665.9947,1.0,666.992,2.0,13.0,73.0,18.0,1.0,1.4,0.7,Time
,,S27,1,Female,25,anonymized,Serial_Dependence_U,2023.2.3,Win32,59.17159763,,,,,,,,,,,,666.9933,2.0,666.9942,,,,669.3424,669.8407,668.8261,669.342,668.0115,112.0,668.8258,669.8408,670.3409,670.3411,671.1082,746.9000001,671.109,2.0,672.1062,2.0,14.0,74.0,10.0,1.0,0.8,0.3,Time
,,S27,1,Female,25,anonymized,Serial_Dependence_U,2023.2.3,Win32,59.17159763,,,,,,,,,,,,672.1073,2.0,672.1079,,,,675.0566,675.5549,674.5454,675.0564,673.1246,267.0,674.5451,675.555,676.0548,676.055,676.7221,640.5,676.7226,1.0,677.7205,2.0,15.0,75.0,3.0,1.0,1.4,0.3,Time
,,S27,1,Female,25,anonymized,Serial_Dependence_U,2023.2.3,Win32,59.17159763,,,,,,,,,,,,677.7217,2.0,677.7223,,,,680.6416,681.1355,680.1373,680.6414,678.7224,220.0,680.1371,681.1356,681.6351,681.6351,683.4028,1381.5,683.4034,3.0,684.4008,2.0,16.0,76.0,23.0,1.0,1.4,0.3,Time
,,S27,1,Female,25,anonymized,Serial_Dependence_U,2023.2.3,Win32,59.17159763,,,,,,,,,,,,684.4023,2.0,684.4028,,,,687.1509,687.6494,686.6384,687.1505,685.4186,345.0,686.6382,687.6495,688.149,688.149,689.8658,1324.0,689.8665,4.0,690.8648,2.0,17.0,77.0,7.0,1.0,1.2,0.7,Time
,,S27,1,Female,25,anonymized,Serial_Dependence_U,2023.2.3,Win32,59.17159763,,,,,,,,,,,,690.8659,2.0,690.8665,,,,693.5989,694.0959,693.0811,693.5985,691.8704,10.0,693.0808,694.0959,694.5963,694.5964,696.5846,1294.2,696.5852,4.0,697.5783,2.0,18.0,78.0,2.0,1.0,1.2,0.3,Time
,,S27,1,Female,25,anonymized,Serial_Dependence_U,2023.2.3,Win32,59.17159763,,,,,,,,,,,,697.5795,2.0,697.58,,,,700.7284,701.2268,700.2125,700.7281,698.6008,76.0,700.2123,701.2268,701.7261,701.7262,702.6324,866.8000001,702.633,1.0,703.6253,2.0,19.0,79.0,29.0,1.0,1.6,0.7,Time
,,S27,1,Female,25,anonymized,Serial_Dependence_U,2023.2.3,Win32,59.17159763,,,,,,,,,,,,703.6263,2.0,703.6269,,,,706.5633,707.0573,706.0592,706.563,704.6436,233.0,706.0589,707.0574,707.5573,707.5573,709.7625,2168.3,709.763,5.0,710.7553,2.0,20.0,80.0,13.0,1.0,1.4,0.3,Time
,,S27,1,Female,25,anonymized,Serial_Dependence_U,2023.2.3,Win32,59.17159763,,,,,,,,,,,,710.7567,2.0,710.7574,,,,713.8889,714.3877,713.373,713.8886,711.7604,12.0,713.3729,714.3877,714.8871,714.8871,716.492,1566.1,716.4926,3.0,717.4858,2.0,21.0,81.0,19.0,1.0,1.6,0.7,Time
,,S27,1,Female,25,anonymized,Serial_Dependence_U,2023.2.3,Win32,59.17159763,,,,,,,,,,,,717.4875,2.0,717.4878,,,,720.0194,720.5181,719.5071,720.0192,718.5034,94.0,719.5067,720.5181,721.0178,721.018,722.4341,1369.4,722.4346,5.0,723.4332,2.0,22.0,82.0,16.0,1.0,1.0,0.7,Time
,,S27,1,Female,25,anonymized,Serial_Dependence_U,2023.2.3,Win32,59.17159763,,,,,,,,,,,,723.4348,2.0,723.4352,,,,725.9666,726.4653,725.4533,725.9664,724.4388,165.0,725.453,726.4654,726.9652,726.9653,728.0863,1098.4,728.0868,4.0,729.0808,2.0,23.0,83.0,11.0,1.0,1.0,0.3,Time
,,S27,1,Female,25,anonymized,Serial_Dependence_U,2023.2.3,Win32,59.17159763,,,,,,,,,,,,729.0819,2.0,729.0823,,,,731.4142,731.9125,730.8978,731.4139,730.0854,316.0,730.8977,731.9125,732.4126,732.4127,733.4506,1014.1,733.4511,4.0,734.445,2.0,24.0,84.0,25.0,1.0,0.8,0.7,Time
,,S27,1,Female,25,anonymized,Serial_Dependence_U,2023.2.3,Win32,59.17159763,,,,,,,,,,,,734.4466,2.0,734.4472,,,,736.7826,737.2772,736.2674,736.7825,735.4487,112.0,736.2671,737.2772,737.7767,737.7769,739.6595,1495.5,739.6602,5.0,740.6586,2.0,25.0,85.0,0.0,1.0,0.8,0.3,Time
,,S27,1,Female,25,anonymized,Serial_Dependence_U,2023.2.3,Win32,59.17159763,,,,,,,,,,,,740.6597,2.0,740.6603,,,,743.5923,744.0918,743.0757,743.5921,741.6652,102.0,743.0755,744.0918,744.5904,744.5906,745.5735,958.4,745.5741,1.0,746.5725,2.0,26.0,86.0,28.0,1.0,1.4,0.7,Time
,,S27,1,Female,25,anonymized,Serial_Dependence_U,2023.2.3,Win32,59.17159763,,,,,,,,,,,,746.5739,2.0,746.5747,,,,749.5229,750.0209,749.0069,749.5225,747.5905,166.0,749.0067,750.0209,750.5207,750.5208,751.938,1149.0,751.9387,2.0,752.9362,2.0,27.0,87.0,8.0,1.0,1.4,0.7,Time
,,S27,1,Female,25,anonymized,Serial_Dependence_U,2023.2.3,Win32,59.17159763,,,,,,,,,,,,752.9374,2.0,752.9383,,,,755.4698,755.9682,754.9586,755.4694,753.954,194.0,754.9583,755.9684,756.4681,756.4683,758.573,1982.2,758.5734,5.0,759.5667,2.0,28.0,88.0,1.0,1.0,1.0,0.3,Time
,,S27,1,Female,25,anonymized,Serial_Dependence_U,2023.2.3,Win32,59.17159763,,,,,,,,,,,,759.5678,2.0,759.5682,,,,761.9048,762.3983,761.3895,761.9047,760.5727,135.0,761.3892,762.3984,762.8986,762.8988,764.732,1457.1,764.7324,5.0,765.731,2.0,29.0,89.0,20.0,1.0,0.8,0.3,Time
,,S27,1,Female,25,anonymized,Serial_Dependence_U,2023.2.3,Win32,59.17159763,,,,,,,,,,,,765.7322,3.0,769.046,s,3.2857,,771.7959,772.2945,771.2791,771.7957,770.0641,129.0,771.2789,772.2946,772.7944,772.7945,774.2274,1396.9,774.2281,4.0,775.2263,3.0,0.0,90.0,7.0,1.0,1.2,0.7,Time
,,S27,1,Female,25,anonymized,Serial_Dependence_U,2023.2.3,Win32,59.17159763,,,,,,,,,,,,775.2274,3.0,775.2317,,,,778.3607,778.8579,777.8428,778.3605,776.2323,242.0,777.8425,778.8581,779.3578,779.3579,780.5461,1149.7,780.5466,2.0,781.5403,3.0,1.0,91.0,4.0,1.0,1.6,0.3,Time
,,S27,1,Female,25,anonymized,Serial_Dependence_U,2023.2.3,Win32,59.17159763,,,,,,,,,,,,781.5414,3.0,781.5419,,,,784.4907,784.9893,783.9741,784.4903,782.5626,174.0,783.9739,784.9895,785.4887,785.4889,786.6885,1174.2,786.6891,2.0,787.6873,3.0,2.0,92.0,8.0,1.0,1.4,0.7,Time
,,S27,1,Female,25,anonymized,Serial_Dependence_U,2023.2.3,Win32,59.17159763,,,,,,,,,,,,787.6882,3.0,787.6889,,,,790.4423,790.9359,789.9254,790.442,788.7054,159.0,789.9252,790.9361,791.4357,791.4358,792.8911,1432.2,792.8917,4.0,793.8843,3.0,3.0,93.0,17.0,1.0,1.2,0.7,Time
,,S27,1,Female,25,anonymized,Serial_Dependence_U,2023.2.3,Win32,59.17159763,,,,,,,,,,,,793.8855,3.0,793.8859,,,,796.2181,796.7164,795.7059,796.2178,794.8902,134.0,795.7057,796.7165,797.2165,797.2167,798.9053,1665.3,798.9058,5.0,799.8986,3.0,4.0,94.0,10.0,1.0,0.8,0.3,Time
,,S27,1,Female,25,anonymized,Serial_Dependence_U,2023.2.3,Win32,59.17159763,,,,,,,,,,,,799.9001,3.0,799.9007,,,,802.2369,802.731,801.7202,802.2366,800.9041,86.0,801.7199,802.731,803.2301,803.2302,805.3844,1789.7,805.3851,5.0,806.3789,3.0,5.0,95.0,20.0,1.0,0.8,0.3,Time
,,S27,1,Female,25,anonymized,Serial_Dependence_U,2023.2.3,Win32,59.17159763,,,,,,,,,,,,806.3802,3.0,806.3808,,,,809.3128,809.8105,808.7963,809.3125,807.3842,78.0,808.796,809.8106,810.3109,810.3111,811.9489,1614.2,811.9495,4.0,812.9426,3.0,6.0,96.0,23.0,1.0,1.4,0.3,Time
,,S27,1,Female,25,anonymized,Serial_Dependence_U,2023.2.3,Win32,59.17159763,,,,,,,,,,,,812.9437,3.0,812.9442,,,,815.6788,816.1746,815.1638,815.6785,813.9489,294.0,815.1633,816.1746,816.6742,816.6743,818.6134,1915.5,818.6139,5.0,819.6064,3.0,7.0,97.0,2.0,1.0,1.2,0.3,Time
,,S27,1,Female,25,anonymized,Serial_Dependence_U,2023.2.3,Win32,59.17159763,,,,,,,,,,,,819.6081,3.0,819.6087,,,,822.761,823.2545,822.2433,822.7608,820.6274,213.0,822.2431,823.2547,823.7543,823.7544,824.8712,1088.4,824.8718,1.0,825.8701,3.0,8.0,98.0,14.0,1.0,1.6,0.3,Time
,,S27,1,Female,25,anonymized,Serial_Dependence_U,2023.2.3,Win32,59.17159763,,,,,,,,,,,,825.8715,3.0,825.8723,,,,828.4038,828.9021,827.8916,828.4036,826.8775,162.0,827.8912,828.9021,829.4023,829.4024,831.1349,1705.4,831.1355,5.0,832.134,3.0,9.0,99.0,1.0,1.0,1.0,0.3,Time
,,S27,1,Female,25,anonymized,Serial_Dependence_U,2023.2.3,Win32,59.17159763,,,,,,,,,,,,832.1352,3.0,832.1359,,,,834.6674,835.1657,834.1555,834.6671,833.14,281.0,834.1552,835.1657,835.6654,835.6656,836.9544,1265.3,836.955,4.0,837.9479,3.0,10.0,100.0,21.0,1.0,1.0,0.3,Time
,,S27,1,Female,25,anonymized,Serial_Dependence_U,2023.2.3,Win32,59.17159763,,,,,,,,,,,,837.9491,3.0,837.9498,,,,841.0979,841.5962,840.5819,841.0976,838.9662,281.0,840.5815,841.5963,842.0958,842.096,843.1459,1036.6,843.1466,1.0,844.1456,3.0,11.0,101.0,19.0,1.0,1.6,0.7,Time
,,S27,1,Female,25,anonymized,Serial_Dependence_U,2023.2.3,Win32,59.17159763,,,,,,,,,,,,844.1465,3.0,844.1471,,,,846.4778,846.9774,845.9627,846.4777,845.15,267.0,845.9623,846.9775,847.4769,847.477,848.311,807.3000001,848.3117,3.0,849.3095,3.0,12.0,102.0,5.0,1.0,0.8,0.7,Time
,,S27,1,Female,25,anonymized,Serial_Dependence_U,2023.2.3,Win32,59.17159763,,,,,,,,,,,,849.3104,3.0,849.311,,,,852.243,852.7413,851.7263,852.2428,850.3156,81.0,851.726,852.7414,853.2409,853.241,854.5459,982.0,854.5464,2.0,855.54,3.0,13.0,103.0,18.0,1.0,1.4,0.7,Time
,,S27,1,Female,25,anonymized,Serial_Dependence_U,2023.2.3,Win32,59.17159763,,,,,,,,,,,,855.5411,3.0,855.5417,,,,858.2632,858.755,857.756,858.263,856.546,51.0,857.7558,858.755,859.2549,859.255,859.7595,481.0,859.76,1.0,860.7541,3.0,14.0,104.0,27.0,1.0,1.2,0.7,Time
,,S27,1,Female,25,anonymized,Serial_Dependence_U,2023.2.3,Win32,59.17159763,,,,,,,,,,,,860.7553,3.0,860.7559,,,,863.6885,864.186,863.1765,863.6883,861.7715,230.0,863.1763,864.186,864.6858,864.6859,865.5025,789.4000001,865.503,1.0,866.5015,3.0,15.0,105.0,13.0,1.0,1.4,0.3,Time
,,S27,1,Female,25,anonymized,Serial_Dependence_U,2023.2.3,Win32,59.17159763,,,,,,,,,,,,866.5028,3.0,866.5034,,,,869.0396,869.5339,868.535,869.0394,867.5242,6.0,868.5347,869.534,870.0331,870.0333,872.2998,2170.0,872.3003,5.0,873.2986,3.0,16.0,106.0,16.0,1.0,1.0,0.7,Time
,,S27,1,Female,25,anonymized,Serial_Dependence_U,2023.2.3,Win32,59.17159763,,,,,,,,,,,,873.2998,3.0,873.3005,,,,875.6362,876.1305,875.1157,875.6359,874.3062,123.0,875.1154,876.1306,876.6303,876.6304,877.6197,949.9000001,877.6205,4.0,878.6129,3.0,17.0,107.0,25.0,1.0,0.8,0.7,Time
,,S27,1,Female,25,anonymized,Serial_Dependence_U,2023.2.3,Win32,59.17159763,,,,,,,,,,,,878.6141,3.0,878.6146,,,,881.3462,881.8451,880.8302,881.3459,879.6203,23.0,880.8299,881.8452,882.3446,882.3447,883.7335,1365.7,883.734,4.0,884.7267,3.0,18.0,108.0,22.0,1.0,1.2,0.3,Time
,,S27,1,Female,25,anonymized,Serial_Dependence_U,2023.2.3,Win32,59.17159763,,,,,,,,,,,,884.728,3.0,884.7287,,,,887.2649,887.7587,886.7604,887.2647,885.7445,237.0,886.7602,887.7588,888.2585,888.2586,890.047,1294.8,890.0476,4.0,891.0399,3.0,19.0,109.0,6.0,1.0,1.0,0.7,Time
,,S27,1,Female,25,anonymized,Serial_Dependence_U,2023.2.3,Win32,59.17159763,,,,,,,,,,,,891.0415,3.0,891.0421,,,,893.3743,893.8722,892.8621,893.3739,892.0463,252.0,892.8619,893.8723,894.3721,894.3723,895.7268,1331.6,895.7272,5.0,896.7212,3.0,20.0,110.0,15.0,1.0,0.8,0.7,Time
,,S27,1,Female,25,anonymized,Serial_Dependence_U,2023.2.3,Win32,59.17159763,,,,,,,,,,,,896.7223,3.0,896.7228,,,,899.2546,899.7534,898.7435,899.2543,897.7273,147.0,898.7432,899.7535,900.2527,900.2528,901.3703,1086.0,901.3709,4.0,902.3689,3.0,21.0,111.0,11.0,1.0,1.0,0.3,Time
,,S27,1,Female,25,anonymized,Serial_Dependence_U,2023.2.3,Win32,59.17159763,,,,,,,,,,,,902.3699,3.0,902.3706,,,,905.5022,906.0002,904.9858,905.502,903.3739,301.0,904.9855,906.0003,906.4999,906.5,910.9374,4081.6,910.9379,5.0,911.9315,3.0,22.0,112.0,24.0,1.0,1.6,0.3,Time
,,S27,1,Female,25,anonymized,Serial_Dependence_U,2023.2.3,Win32,59.17159763,,,,,,,,,,,,911.9336,3.0,911.9342,,,,914.8692,915.3625,914.3646,914.869,912.9483,9.0,914.3643,915.3625,915.8622,915.8624,917.335,1397.6,917.3356,3.0,918.3281,3.0,23.0,113.0,3.0,1.0,1.4,0.3,Time
,,S27,1,Female,25,anonymized,Serial_Dependence_U,2023.2.3,Win32,59.17159763,,,,,,,,,,,,918.3295,3.0,918.3304,,,,920.6617,921.1598,920.1449,920.6614,919.3339,51.0,920.1447,921.1599,921.6602,921.6603,922.5491,865.4,922.5497,4.0,923.5428,3.0,24.0,114.0,0.0,1.0,0.8,0.3,Time
,,S27,1,Female,25,anonymized,Serial_Dependence_U,2023.2.3,Win32,59.17159763,,,,,,,,,,,,923.5443,3.0,923.545,,,,926.6746,927.1744,926.1635,926.6744,924.5601,210.0,926.1632,927.1744,927.6737,927.6738,928.6786,981.6,928.6792,1.0,929.6764,3.0,25.0,115.0,9.0,1.0,1.6,0.7,Time
,,S27,1,Female,25,anonymized,Serial_Dependence_U,2023.2.3,Win32,59.17159763,,,,,,,,,,,,929.6774,3.0,929.678,,,,932.8059,933.3048,932.2935,932.8057,930.6795,203.0,932.2932,933.3049,933.8046,933.8047,934.7712,941.0,934.772,1.0,935.7702,3.0,26.0,116.0,29.0,1.0,1.6,0.7,Time
,,S27,1,Female,25,anonymized,Serial_Dependence_U,2023.2.3,Win32,59.17159763,,,,,,,,,,,,935.7711,3.0,935.7717,,,,938.3037,938.8019,937.791,938.3034,936.7882,228.0,937.7907,938.8019,939.3018,939.3018,941.1413,1815.3,941.1418,5.0,942.1333,3.0,27.0,117.0,26.0,1.0,1.0,0.7,Time
,,S27,1,Female,25,anonymized,Serial_Dependence_U,2023.2.3,Win32,59.17159763,,,,,,,,,,,,942.1343,3.0,942.1345,,,,945.0556,945.549,944.5505,945.0553,943.1402,315.0,944.5502,945.549,946.0487,946.0489,946.9543,866.5999999,946.9547,1.0,947.9495,3.0,28.0,118.0,28.0,1.0,1.4,0.7,Time
,,S27,1,Female,25,anonymized,Serial_Dependence_U,2023.2.3,Win32,59.17159763,,,,,,,,,,,,947.9506,3.0,947.9511,,,,950.6854,951.1796,950.1702,950.6851,948.9534,187.0,950.17,951.1798,951.6794,951.6795,953.6126,1907.0,953.613,5.0,954.6119,3.0,29.0,119.0,12.0,1.0,1.2,0.3,Time
,,S27,1,Female,25,anonymized,Serial_Dependence_U,2023.2.3,Win32,59.17159763,,,,,,,,,,,,954.6132,4.0,964.3575,s,9.7068,,966.908,967.4063,966.3909,966.9076,965.3745,256.0,966.3906,967.4064,967.9054,967.9055,968.7556,833.0,968.7563,2.0,969.7547,4.0,0.0,120.0,16.0,1.0,1.0,0.7,Time
,,S27,1,Female,25,anonymized,Serial_Dependence_U,2023.2.3,Win32,59.17159763,,,,,,,,,,,,969.7556,4.0,969.7601,,,,972.6772,973.17,972.1725,972.6769,970.7606,281.0,972.1722,973.1701,973.6695,973.6697,975.3862,1383.4,975.3868,3.0,976.3853,4.0,1.0,121.0,18.0,1.0,1.4,0.7,Time
,,S27,1,Female,25,anonymized,Serial_Dependence_U,2023.2.3,Win32,59.17159763,,,,,,,,,,,,976.3866,4.0,976.3873,,,,978.9193,979.4171,978.4024,978.919,977.3906,168.0,978.4021,979.4172,979.9167,979.9169,981.7832,1588.2,981.7838,5.0,982.7817,4.0,2.0,122.0,11.0,1.0,1.0,0.3,Time
,,S27,1,Female,25,anonymized,Serial_Dependence_U,2023.2.3,Win32,59.17159763,,,,,,,,,,,,982.7829,4.0,982.7837,,,,985.1156,985.6145,984.602,985.1153,983.7881,73.0,984.6019,985.6145,986.1143,986.1144,987.5862,1448.3,987.5868,5.0,988.5798,4.0,3.0,123.0,15.0,1.0,0.8,0.7,Time
,,S27,1,Female,25,anonymized,Serial_Dependence_U,2023.2.3,Win32,59.17159763,,,,,,,,,,,,988.581,4.0,988.5816,,,,991.7338,992.2279,991.2171,991.7336,989.6015,200.0,991.2169,992.228,992.7276,992.7278,994.6943,1940.4,994.6948,4.0,995.6969,4.0,4.0,124.0,24.0,1.0,1.6,0.3,Time
,,S27,1,Female,25,anonymized,Serial_Dependence_U,2023.2.3,Win32,59.17159763,,,,,,,,,,,,995.6982,4.0,995.6989,,,,998.4143,998.9079,997.9102,998.4141,996.6989,6.0,997.91,998.908,999.4079,999.4079,1002.4125,2754.8,1002.4131,5.0,1003.4059,4.0,5.0,125.0,2.0,1.0,1.2,0.3,Time
,,S27,1,Female,25,anonymized,Serial_Dependence_U,2023.2.3,Win32,59.17159763,,,,,,,,,,,,1003.4071,4.0,1003.4079,,,,1005.7616,1006.2551,1005.2404,1005.7614,1004.4235,75.0,1005.24,1006.2552,1006.7548,1006.7549,1008.9874,1968.3,1008.988,5.0,1009.9873,4.0,6.0,126.0,20.0,1.0,0.8,0.3,Time
,,S27,1,Female,25,anonymized,Serial_Dependence_U,2023.2.3,Win32,59.17159763,,,,,,,,,,,,1009.9885,4.0,1009.9889,,,,1012.7199,1013.2186,1012.2089,1012.7196,1010.9931,333.0,1012.2085,1013.2186,1013.7183,1013.7185,1015.5069,1765.5,1015.5075,5.0,1016.5001,4.0,7.0,127.0,27.0,1.0,1.2,0.7,Time
,,S27,1,Female,25,anonymized,Serial_Dependence_U,2023.2.3,Win32,59.17159763,,,,,,,,,,,,1016.5011,4.0,1016.5016,,,,1019.6217,1020.1158,1019.1176,1019.6216,1017.506,244.0,1019.1174,1020.1159,1020.6153,1020.6153,1021.8651,1206.5,1021.8657,2.0,1022.864,4.0,8.0,128.0,14.0,1.0,1.6,0.3,Time
,,S27,1,Female,25,anonymized,Serial_Dependence_U,2023.2.3,Win32,59.17159763,,,,,,,,,,,,1022.8654,4.0,1022.8662,,,,1025.9973,1026.4963,1025.4808,1025.9971,1023.8695,67.0,1025.4805,1026.4963,1026.9954,1026.9959,1027.4835,464.6999999,1027.484,1.0,1028.4784,4.0,9.0,129.0,4.0,1.0,1.6,0.3,Time
,,S27,1,Female,25,anonymized,Serial_Dependence_U,2023.2.3,Win32,59.17159763,,,,,,,,,,,,1028.4796,4.0,1028.48,,,,1030.8163,1031.3101,1030.3118,1030.8161,1029.5012,80.0,1030.3115,1031.3101,1031.8104,1031.8105,1033.3982,1339.7,1033.3988,5.0,1034.392,4.0,10.0,130.0,25.0,1.0,0.8,0.7,Time
,,S27,1,Female,25,anonymized,Serial_Dependence_U,2023.2.3,Win32,59.17159763,,,,,,,,,,,,1034.3931,4.0,1034.3937,,,,1036.9418,1037.4405,1036.4256,1036.9416,1035.4096,130.0,1036.4254,1037.4406,1037.9402,1037.9403,1040.8893,2924.1,1040.8898,5.0,1041.8884,4.0,11.0,131.0,26.0,1.0,1.0,0.7,Time
,,S27,1,Female,25,anonymized,Serial_Dependence_U,2023.2.3,Win32,59.17159763,,,,,,,,,,,,1041.8894,4.0,1041.8898,,,,1044.6383,1045.1368,1044.1219,1044.6381,1042.9067,106.0,1044.1216,1045.1369,1045.6372,1045.6373,1047.8531,2195.2,1047.8537,5.0,1048.8521,4.0,12.0,132.0,12.0,1.0,1.2,0.3,Time
,,S27,1,Female,25,anonymized,Serial_Dependence_U,2023.2.3,Win32,59.17159763,,,,,,,,,,,,1048.8535,4.0,1048.8545,,,,1051.985,1052.4835,1051.4687,1051.9848,1049.8535,241.0,1051.4685,1052.4836,1052.9834,1052.9835,1054.3836,1357.4,1054.3843,2.0,1055.3824,4.0,13.0,133.0,29.0,1.0,1.6,0.7,Time
,,S27,1,Female,25,anonymized,Serial_Dependence_U,2023.2.3,Win32,59.17159763,,,,,,,,,,,,1055.3838,4.0,1055.3844,,,,1058.1213,1058.6147,1057.6001,1058.121,1056.3875,355.0,1057.5999,1058.6147,1059.1142,1059.1143,1060.8014,1663.9,1060.8019,5.0,1061.7962,4.0,14.0,134.0,22.0,1.0,1.2,0.3,Time
,,S27,1,Female,25,anonymized,Serial_Dependence_U,2023.2.3,Win32,59.17159763,,,,,,,,,,,,1061.7972,4.0,1061.7978,,,,1064.7508,1065.2449,1064.2348,1064.7505,1062.8186,97.0,1064.2346,1065.2452,1065.7446,1065.7447,1066.7663,999.0,1066.7669,2.0,1067.7605,4.0,15.0,135.0,13.0,1.0,1.4,0.3,Time
,,S27,1,Female,25,anonymized,Serial_Dependence_U,2023.2.3,Win32,59.17159763,,,,,,,,,,,,1067.7615,4.0,1067.7622,,,,1070.2938,1070.7921,1069.7822,1070.2937,1068.7777,79.0,1069.782,1070.7922,1071.2921,1071.2921,1074.6457,3329.9,1074.6461,5.0,1075.6401,4.0,16.0,136.0,21.0,1.0,1.0,0.3,Time
,,S27,1,Female,25,anonymized,Serial_Dependence_U,2023.2.3,Win32,59.17159763,,,,,,,,,,,,1075.6412,4.0,1075.6419,,,,1078.5948,1079.088,1078.0797,1078.5945,1076.661,204.0,1078.0794,1079.0881,1079.5882,1079.5884,1080.5437,811.4000001,1080.5442,1.0,1081.537,4.0,17.0,137.0,8.0,1.0,1.4,0.7,Time
,,S27,1,Female,25,anonymized,Serial_Dependence_U,2023.2.3,Win32,59.17159763,,,,,,,,,,,,1081.5382,4.0,1081.5389,,,,1083.8713,1084.3693,1083.3593,1083.871,1082.5389,126.0,1083.3591,1084.3694,1084.8688,1084.869,1087.124,1809.7,1087.1246,5.0,1088.1177,4.0,18.0,138.0,0.0,1.0,0.8,0.3,Time
,,S27,1,Female,25,anonymized,Serial_Dependence_U,2023.2.3,Win32,59.17159763,,,,,,,,,,,,1088.1189,4.0,1088.1193,,,,1091.0673,1091.5659,1090.5514,1091.067,1089.1349,120.0,1090.5511,1091.566,1092.066,1092.0661,1092.188,83.30000007,1092.1885,1.0,1093.1821,4.0,19.0,139.0,28.0,1.0,1.4,0.7,Time
,,S27,1,Female,25,anonymized,Serial_Dependence_U,2023.2.3,Win32,59.17159763,,,,,,,,,,,,1093.1831,4.0,1093.1838,,,,1095.732,1096.2303,1095.2156,1095.7318,1094.1997,153.0,1095.2153,1096.2303,1096.7303,1096.7304,1098.4687,1526.1,1098.4692,5.0,1099.4629,4.0,20.0,140.0,6.0,1.0,1.0,0.7,Time
,,S27,1,Female,25,anonymized,Serial_Dependence_U,2023.2.3,Win32,59.17159763,,,,,,,,,,,,1099.4642,4.0,1099.4648,,,,1101.9963,1102.4945,1101.4795,1101.9961,1100.4676,51.0,1101.4791,1102.4945,1102.9943,1102.9944,1103.7012,644.9,1103.7018,1.0,1104.6931,4.0,21.0,141.0,1.0,1.0,1.0,0.3,Time
,,S27,1,Female,25,anonymized,Serial_Dependence_U,2023.2.3,Win32,59.17159763,,,,,,,,,,,,1104.6941,4.0,1104.6947,,,,1107.8265,1108.3253,1107.3102,1107.8262,1105.6969,320.0,1107.3099,1108.3253,1108.8248,1108.825,1110.1583,1013.0,1110.1588,1.0,1111.157,4.0,22.0,142.0,19.0,1.0,1.6,0.7,Time
,,S27,1,Female,25,anonymized,Serial_Dependence_U,2023.2.3,Win32,59.17159763,,,,,,,,,,,,1111.1585,4.0,1111.1589,,,,1114.3071,1114.8053,1113.7908,1114.3067,1112.1745,327.0,1113.7905,1114.8054,1115.3054,1115.3055,1117.7105,2381.6,1117.7111,5.0,1118.7033,4.0,23.0,143.0,9.0,1.0,1.6,0.7,Time
,,S27,1,Female,25,anonymized,Serial_Dependence_U,2023.2.3,Win32,59.17159763,,,,,,,,,,,,1118.7046,4.0,1118.7053,,,,1121.642,1122.135,1121.1368,1121.6414,1119.7211,193.0,1121.1365,1122.1351,1122.6352,1122.6353,1124.2244,1259.4,1124.2249,2.0,1125.2172,4.0,24.0,144.0,3.0,1.0,1.4,0.3,Time
,,S27,1,Female,25,anonymized,Serial_Dependence_U,2023.2.3,Win32,59.17159763,,,,,,,,,,,,1125.2186,4.0,1125.2192,,,,1127.5709,1128.0662,1127.0513,1127.5706,1126.2351,107.0,1127.0511,1128.0663,1128.5659,1128.566,1129.8991,991.7,1129.8996,4.0,1130.8981,4.0,25.0,145.0,10.0,1.0,0.8,0.3,Time
,,S27,1,Female,25,anonymized,Serial_Dependence_U,2023.2.3,Win32,59.17159763,,,,,,,,,,,,1130.8992,4.0,1130.8996,,,,1133.6522,1134.1465,1133.132,1133.652,1131.9156,5.0,1133.1317,1134.1466,1134.6463,1134.6465,1136.4184,1410.4,1136.419,4.0,1137.4122,4.0,26.0,146.0,17.0,1.0,1.2,0.7,Time
,,S27,1,Female,25,anonymized,Serial_Dependence_U,2023.2.3,Win32,59.17159763,,,,,,,,,,,,1137.4137,4.0,1137.4144,,,,1139.7621,1140.2605,1139.2456,1139.7618,1138.4295,3.0,1139.2454,1140.2605,1140.7601,1140.7601,1142.3814,1265.8,1142.3819,5.0,1143.3756,4.0,27.0,147.0,5.0,1.0,0.8,0.7,Time
,,S27,1,Female,25,anonymized,Serial_Dependence_U,2023.2.3,Win32,59.17159763,,,,,,,,,,,,1143.3767,4.0,1143.3774,,,,1146.3092,1146.8074,1145.797,1146.3088,1144.3933,5.0,1145.7968,1146.8079,1147.3069,1147.3071,1149.9124,1514.4,1149.9129,4.0,1150.9053,4.0,28.0,148.0,23.0,1.0,1.4,0.3,Time
,,S27,1,Female,25,anonymized,Serial_Dependence_U,2023.2.3,Win32,59.17159763,,,,,,,,,,,,1150.9061,4.0,1150.9064,,,,1153.6391,1154.1377,1153.1271,1153.6389,1151.9124,155.0,1153.1268,1154.1377,1154.6374,1154.6375,1156.5538,1442.4,1156.5544,4.0,1157.5528,4.0,29.0,149.0,7.0,1.0,1.2,0.7,Time
,,S27,1,Female,25,anonymized,Serial_Dependence_U,2023.2.3,Win32,59.17159763,,,,,,,,,,,,1157.554,5.0,1159.7021,s,2.1096,,1162.2522,1162.7502,1161.7352,1162.252,1160.7187,302.0,1161.735,1162.7503,1163.25,1163.2501,1164.7737,1192.9,1164.7743,4.0,1165.7653,5.0,0.0,150.0,6.0,1.0,1.0,0.7,Time
,,S27,1,Female,25,anonymized,Serial_Dependence_U,2023.2.3,Win32,59.17159763,,,,,,,,,,,,1165.766,5.0,1165.7686,,,,1168.5158,1169.014,1167.9995,1168.5155,1166.7831,298.0,1167.9992,1169.0141,1169.5136,1169.5138,1170.9311,1308.3,1170.9318,4.0,1171.9297,5.0,1.0,151.0,7.0,1.0,1.2,0.7,Time
,,S27,1,Female,25,anonymized,Serial_Dependence_U,2023.2.3,Win32,59.17159763,,,,,,,,,,,,1171.9308,5.0,1171.9313,,,,1174.8633,1175.3612,1174.3501,1174.8631,1172.9469,129.0,1174.3498,1175.3613,1175.8612,1175.8613,1177.2276,1072.4,1177.2281,2.0,1178.2263,5.0,2.0,152.0,28.0,1.0,1.4,0.7,Time
,,S27,1,Female,25,anonymized,Serial_Dependence_U,2023.2.3,Win32,59.17159763,,,,,,,,,,,,1178.2274,5.0,1178.228,,,,1180.7605,1181.2585,1180.2437,1180.7602,1179.2306,343.0,1180.2434,1181.2585,1181.7581,1181.7583,1183.2918,1183.4,1183.2925,4.0,1184.2904,5.0,3.0,153.0,11.0,1.0,1.0,0.3,Time
,,S27,1,Female,25,anonymized,Serial_Dependence_U,2023.2.3,Win32,59.17159763,,,,,,,,,,,,1184.2916,5.0,1184.2923,,,,1187.0278,1187.5222,1186.5117,1187.0276,1185.3086,69.0,1186.5115,1187.5223,1188.0221,1188.0223,1190.3054,1684.1,1190.3059,5.0,1191.3042,5.0,4.0,154.0,22.0,1.0,1.2,0.3,Time
,,S27,1,Female,25,anonymized,Serial_Dependence_U,2023.2.3,Win32,59.17159763,,,,,,,,,,,,1191.3055,5.0,1191.3062,,,,1194.2373,1194.7356,1193.7249,1194.237,1192.3216,136.0,1193.7247,1194.7357,1195.2356,1195.2357,1197.5235,1765.4,1197.524,4.0,1198.5175,5.0,5.0,155.0,8.0,1.0,1.4,0.7,Time
,,S27,1,Female,25,anonymized,Serial_Dependence_U,2023.2.3,Win32,59.17159763,,,,,,,,,,,,1198.5187,5.0,1198.5193,,,,1201.6512,1202.1492,1201.1374,1201.6509,1199.5223,187.0,1201.1372,1202.1492,1202.649,1202.6491,1203.9156,1137.8,1203.9162,2.0,1204.9146,5.0,6.0,156.0,9.0,1.0,1.6,0.7,Time
,,S27,1,Female,25,anonymized,Serial_Dependence_U,2023.2.3,Win32,59.17159763,,,,,,,,,,,,1204.9156,5.0,1204.9163,,,,1207.4648,1207.9632,1206.948,1207.4646,1205.9364,81.0,1206.9477,1207.9632,1208.4629,1208.463,1210.2794,1449.4,1210.2801,5.0,1211.2787,5.0,7.0,157.0,16.0,1.0,1.0,0.7,Time
,,S27,1,Female,25,anonymized,Serial_Dependence_U,2023.2.3,Win32,59.17159763,,,,,,,,,,,,1211.2797,5.0,1211.2804,,,,1214.2282,1214.7265,1213.7117,1214.2279,1212.2958,69.0,1213.7115,1214.7266,1215.2262,1215.2263,1217.6924,1215.3,1217.6929,2.0,1218.6915,5.0,8.0,158.0,18.0,1.0,1.4,0.7,Time
,,S27,1,Female,25,anonymized,Serial_Dependence_U,2023.2.3,Win32,59.17159763,,,,,,,,,,,,1218.6926,5.0,1218.6933,,,,1221.8292,1222.3234,1221.3255,1221.8289,1219.7095,46.0,1221.3252,1222.3234,1222.823,1222.8231,1224.7945,1344.0,1224.7951,2.0,1225.7884,5.0,9.0,159.0,29.0,1.0,1.6,0.7,Time
,,S27,1,Female,25,anonymized,Serial_Dependence_U,2023.2.3,Win32,59.17159763,,,,,,,,,,,,1225.7896,5.0,1225.7901,,,,1228.9382,1229.4366,1228.4222,1228.938,1226.806,164.0,1228.4219,1229.4367,1229.9366,1229.9366,1231.9371,1644.9,1231.9377,3.0,1232.9352,5.0,10.0,160.0,4.0,1.0,1.6,0.3,Time
,,S27,1,Female,25,anonymized,Serial_Dependence_U,2023.2.3,Win32,59.17159763,,,,,,,,,,,,1232.9363,5.0,1232.9369,,,,1235.6849,1236.1837,1235.1686,1235.6847,1233.9526,132.0,1235.1683,1236.1838,1236.6833,1236.6834,1238.4831,1414.8,1238.4836,4.0,1239.482,5.0,11.0,161.0,17.0,1.0,1.2,0.7,Time
,,S27,1,Female,25,anonymized,Serial_Dependence_U,2023.2.3,Win32,59.17159763,,,,,,,,,,,,1239.4832,5.0,1239.4835,,,,1242.2155,1242.7142,1241.7022,1242.2152,1240.5002,40.0,1241.7019,1242.7143,1243.2139,1243.2141,1245.6971,1381.6,1245.6978,4.0,1246.6956,5.0,12.0,162.0,12.0,1.0,1.2,0.3,Time
,,S27,1,Female,25,anonymized,Serial_Dependence_U,2023.2.3,Win32,59.17159763,,,,,,,,,,,,1246.697,5.0,1246.6976,,,,1249.6582,1250.1606,1249.1289,1249.6577,1247.713,317.0,1249.1286,1250.1607,1250.6604,1250.6605,1252.4101,1550.0,1252.4105,4.0,1253.4092,5.0,13.0,163.0,23.0,1.0,1.4,0.3,Time
,,S27,1,Female,25,anonymized,Serial_Dependence_U,2023.2.3,Win32,59.17159763,,,,,,,,,,,,1253.4102,5.0,1253.4109,,,,1256.1595,1256.6574,1255.6429,1256.1593,1254.4265,74.0,1255.6425,1256.6575,1257.1573,1257.1575,1259.196,1643.6,1259.1965,5.0,1260.1893,5.0,14.0,164.0,27.0,1.0,1.2,0.7,Time
,,S27,1,Female,25,anonymized,Serial_Dependence_U,2023.2.3,Win32,59.17159763,,,,,,,,,,,,1260.1905,5.0,1260.1911,,,,1262.5398,1263.0378,1262.0228,1262.5396,1261.2072,252.0,1262.0226,1263.0378,1263.5378,1263.5383,1264.9763,1011.2,1264.9768,4.0,1265.9704,5.0,15.0,165.0,10.0,1.0,0.8,0.3,Time
,,S27,1,Female,25,anonymized,Serial_Dependence_U,2023.2.3,Win32,59.17159763,,,,,,,,,,,,1265.9721,5.0,1265.973,,,,1268.5041,1269.002,1267.9871,1268.5039,1266.9727,73.0,1267.9867,1269.0021,1269.5018,1269.5019,1270.652,908.0999999,1270.6525,2.0,1271.6511,5.0,16.0,166.0,21.0,1.0,1.0,0.3,Time
,,S27,1,Female,25,anonymized,Serial_Dependence_U,2023.2.3,Win32,59.17159763,,,,,,,,,,,,1271.6522,5.0,1271.6531,,,,1274.0009,1274.4994,1273.4849,1274.0007,1272.6682,100.0,1273.4846,1274.4995,1274.9991,1274.9993,1276.6665,1314.6,1276.667,5.0,1277.6647,5.0,17.0,167.0,25.0,1.0,0.8,0.7,Time
,,S27,1,Female,25,anonymized,Serial_Dependence_U,2023.2.3,Win32,59.17159763,,,,,,,,,,,,1277.6665,5.0,1277.6675,,,,1280.799,1281.2966,1280.2861,1280.7987,1278.6708,249.0,1280.2858,1281.2967,1281.7965,1281.7967,1283.5292,1221.1,1283.5302,2.0,1284.5278,5.0,18.0,168.0,14.0,1.0,1.6,0.3,Time
,,S27,1,Female,25,anonymized,Serial_Dependence_U,2023.2.3,Win32,59.17159763,,,,,,,,,,,,1284.5291,5.0,1284.5298,,,,1286.8789,1287.377,1286.362,1286.8786,1285.547,43.0,1286.3617,1287.377,1287.8769,1287.877,1289.5984,1390.3,1289.599,5.0,1290.5924,5.0,19.0,169.0,0.0,1.0,0.8,0.3,Time
,,S27,1,Female,25,anonymized,Serial_Dependence_U,2023.2.3,Win32,59.17159763,,,,,,,,,,,,1290.5936,5.0,1290.5942,,,,1293.3265,1293.8241,1292.8135,1293.3264,1291.6103,201.0,1292.8133,1293.8242,1294.324,1294.3241,1296.3965,1394.8,1296.397,4.0,1297.3889,5.0,20.0,170.0,2.0,1.0,1.2,0.3,Time
,,S27,1,Female,25,anonymized,Serial_Dependence_U,2023.2.3,Win32,59.17159763,,,,,,,,,,,,1297.3902,5.0,1297.3909,,,,1299.7196,1300.2213,1299.212,1299.7194,1298.3961,193.0,1299.2118,1300.2213,1300.7205,1300.7207,1302.1257,1077.5,1302.1263,5.0,1303.12,5.0,21.0,171.0,5.0,1.0,0.8,0.7,Time
,,S27,1,Female,25,anonymized,Serial_Dependence_U,2023.2.3,Win32,59.17159763,,,,,,,,,,,,1303.1212,5.0,1303.1219,,,,1305.6696,1306.1685,1305.1535,1305.6694,1304.1372,52.0,1305.1533,1306.1686,1306.6682,1306.6684,1308.1576,1338.9,1308.1583,5.0,1309.1504,5.0,22.0,172.0,26.0,1.0,1.0,0.7,Time
,,S27,1,Female,25,anonymized,Serial_Dependence_U,2023.2.3,Win32,59.17159763,,,,,,,,,,,,1309.1516,5.0,1309.1522,,,,1311.4844,1311.9824,1310.9675,1311.484,1310.1559,155.0,1310.9673,1311.9825,1312.482,1312.4822,1313.6047,961.8,1313.6054,4.0,1314.5982,5.0,23.0,173.0,15.0,1.0,0.8,0.7,Time
,,S27,1,Female,25,anonymized,Serial_Dependence_U,2023.2.3,Win32,59.17159763,,,,,,,,,,,,1314.5998,5.0,1314.6002,,,,1317.5315,1318.0301,1317.0146,1317.5313,1315.604,358.0,1317.0144,1318.0302,1318.5298,1318.5299,1320.4517,1492.5,1320.4522,4.0,1321.447,5.0,24.0,174.0,3.0,1.0,1.4,0.3,Time
,,S27,1,Female,25,anonymized,Serial_Dependence_U,2023.2.3,Win32,59.17159763,,,,,,,,,,,,1321.4475,5.0,1321.4477,,,,1324.5783,1325.0767,1324.0616,1324.5781,1322.45,196.0,1324.0613,1325.0768,1325.5767,1325.5768,1327.3932,1529.4,1327.3939,3.0,1328.3919,5.0,25.0,175.0,24.0,1.0,1.6,0.3,Time
,,S27,1,Female,25,anonymized,Serial_Dependence_U,2023.2.3,Win32,59.17159763,,,,,,,,,,,,1328.3935,5.0,1328.394,,,,1330.9419,1331.4404,1330.426,1330.9416,1329.4091,5.0,1330.4257,1331.4404,1331.9401,1331.9402,1333.762,1342.2,1333.7626,5.0,1334.7557,5.0,26.0,176.0,1.0,1.0,1.0,0.3,Time
,,S27,1,Female,25,anonymized,Serial_Dependence_U,2023.2.3,Win32,59.17159763,,,,,,,,,,,,1334.7568,5.0,1334.7572,,,,1337.0942,1337.5872,1336.5786,1337.0939,1335.7732,24.0,1336.5785,1337.5873,1338.0874,1338.0879,1339.5429,1432.1,1339.5434,5.0,1340.5361,5.0,27.0,177.0,20.0,1.0,0.8,0.3,Time
,,S27,1,Female,25,anonymized,Serial_Dependence_U,2023.2.3,Win32,59.17159763,,,,,,,,,,,,1340.5374,5.0,1340.5381,,,,1343.6695,1344.1682,1343.1532,1343.6693,1341.5432,256.0,1343.1529,1344.1684,1344.6677,1344.6679,1345.7889,1048.5,1345.7894,1.0,1346.7835,5.0,28.0,178.0,19.0,1.0,1.6,0.7,Time
,,S27,1,Female,25,anonymized,Serial_Dependence_U,2023.2.3,Win32,59.17159763,,,,,,,,,,,,1346.7848,5.0,1346.7853,,,,1349.7036,1350.1985,1349.2,1349.7034,1347.7898,359.0,1349.1998,1350.1985,1350.6984,1350.6985,1352.7702,1373.9,1352.7709,3.0,1353.7636,5.0,29.0,179.0,13.0,1.0,1.4,0.3,Time
,,S27,1,Female,25,anonymized,Serial_Dependence_U,2023.2.3,Win32,59.17159763,,,,,,,,,,,,1353.7647,6.0,1356.1627,s,2.348,,1359.3621,1359.8608,1358.8291,1359.3619,1357.1968,353.0,1358.8289,1359.8608,1360.3602,1360.3603,1362.627,1765.7,1362.6275,4.0,1363.6259,6.0,0.0,180.0,19.0,1.0,1.6,0.7,Time
,,S27,1,Female,25,anonymized,Serial_Dependence_U,2023.2.3,Win32,59.17159763,,,,,,,,,,,,1363.6269,6.0,1363.6316,,,,1366.3925,1366.8906,1365.8601,1366.3923,1364.6582,300.0,1365.86,1366.8907,1367.391,1367.3911,1369.657,2176.2,1369.6576,5.0,1370.6561,6.0,1.0,181.0,12.0,1.0,1.2,0.3,Time
,,S27,1,Female,25,anonymized,Serial_Dependence_U,2023.2.3,Win32,59.17159763,,,,,,,,,,,,1370.6572,6.0,1370.6577,,,,1373.6562,1374.1544,1373.1231,1373.656,1371.6901,125.0,1373.1229,1374.1544,1374.6538,1374.654,1376.7206,1445.8,1376.7212,3.0,1377.7191,6.0,2.0,182.0,13.0,1.0,1.4,0.3,Time
,,S27,1,Female,25,anonymized,Serial_Dependence_U,2023.2.3,Win32,59.17159763,,,,,,,,,,,,1377.7202,6.0,1377.7207,,,,1380.5192,1381.0178,1379.9862,1380.519,1378.7539,1.0,1379.9859,1381.0178,1381.5179,1381.5181,1382.7182,1174.8,1382.7187,3.0,1383.7165,6.0,3.0,183.0,2.0,1.0,1.2,0.3,Time
,,S27,1,Female,25,anonymized,Serial_Dependence_U,2023.2.3,Win32,59.17159763,,,,,,,,,,,,1383.7175,6.0,1383.7182,,,,1386.3167,1386.8153,1385.7836,1386.3164,1384.7511,81.0,1385.7833,1386.8154,1387.315,1387.3151,1387.8489,498.5,1387.8494,1.0,1388.8477,6.0,4.0,184.0,21.0,1.0,1.0,0.3,Time
,,S27,1,Female,25,anonymized,Serial_Dependence_U,2023.2.3,Win32,59.17159763,,,,,,,,,,,,1388.8488,6.0,1388.8494,,,,1391.2478,1391.7467,1390.7147,1391.2476,1389.8828,336.0,1390.7144,1391.7467,1392.2459,1392.246,1393.5466,1181.6,1393.5474,5.0,1394.5451,6.0,5.0,185.0,10.0,1.0,0.8,0.3,Time
,,S27,1,Female,25,anonymized,Serial_Dependence_U,2023.2.3,Win32,59.17159763,,,,,,,,,,,,1394.5462,6.0,1394.5465,,,,1397.545,1398.0434,1397.0116,1397.5447,1395.5792,114.0,1397.0113,1398.0435,1398.5432,1398.5433,1404.5749,9999.0,1404.5754,0.0,1405.5735,6.0,6.0,186.0,23.0,1.0,1.4,0.3,Time
,,S27,1,Female,25,anonymized,Serial_Dependence_U,2023.2.3,Win32,59.17159763,,,,,,,,,,,,1405.5745,6.0,1405.5749,,,,1408.3058,1408.8054,1407.7909,1408.3056,1406.5754,318.0,1407.7906,1408.8056,1409.3043,1409.3044,1411.4375,835.2,1411.4377,1.0,1412.437,6.0,7.0,187.0,27.0,1.0,1.2,0.7,Time
,,S27,1,Female,25,anonymized,Serial_Dependence_U,2023.2.3,Win32,59.17159763,,,,,,,,,,,,1412.4378,6.0,1412.4383,,,,1415.5888,1416.085,1415.0698,1415.5886,1413.453,258.0,1415.0697,1416.0851,1416.5844,1416.5845,1418.97,1361.9,1418.9703,2.0,1419.9667,6.0,8.0,188.0,24.0,1.0,1.6,0.3,Time
,,S27,1,Female,25,anonymized,Serial_Dependence_U,2023.2.3,Win32,59.17159763,,,,,,,,,,,,1419.9677,6.0,1419.9679,,,,1422.3162,1422.8151,1421.8022,1422.316,1420.9834,104.0,1421.8021,1422.8151,1423.3151,1423.3152,1424.9343,856.1,1424.9345,4.0,1425.9308,6.0,9.0,189.0,5.0,1.0,0.8,0.7,Time
,,S27,1,Female,25,anonymized,Serial_Dependence_U,2023.2.3,Win32,59.17159763,,,,,,,,,,,,1425.9318,6.0,1425.9322,,,,1428.4804,1428.9793,1427.9635,1428.4802,1426.9475,15.0,1427.9634,1428.9793,1429.4785,1429.4785,1432.5322,1263.4,1432.5325,4.0,1433.5275,6.0,10.0,190.0,6.0,1.0,1.0,0.7,Time
,,S27,1,Female,25,anonymized,Serial_Dependence_U,2023.2.3,Win32,59.17159763,,,,,,,,,,,,1433.5283,6.0,1433.5289,,,,1435.8769,1436.3757,1435.3604,1435.8767,1434.5441,82.0,1435.3603,1436.3758,1436.8753,1436.8753,1438.1281,1210.2,1438.1282,5.0,1439.1252,6.0,11.0,191.0,25.0,1.0,0.8,0.7,Time
,,S27,1,Female,25,anonymized,Serial_Dependence_U,2023.2.3,Win32,59.17159763,,,,,,,,,,,,1439.1261,6.0,1439.1268,,,,1441.8597,1442.3564,1441.345,1441.8596,1440.1412,182.0,1441.3448,1442.3565,1442.8564,1442.8564,1442.9097,32.89999998,1442.91,1.0,1443.9059,6.0,12.0,192.0,22.0,1.0,1.2,0.3,Time
,,S27,1,Female,25,anonymized,Serial_Dependence_U,2023.2.3,Win32,59.17159763,,,,,,,,,,,,1443.9067,6.0,1443.9073,,,,1447.0549,1447.5543,1446.5384,1447.0547,1444.9222,265.0,1446.5383,1447.5544,1448.0543,1448.0544,1449.6033,1214.1,1449.6037,2.0,1450.6022,6.0,13.0,193.0,29.0,1.0,1.6,0.7,Time
,,S27,1,Female,25,anonymized,Serial_Dependence_U,2023.2.3,Win32,59.17159763,,,,,,,,,,,,1450.6028,6.0,1450.603,,,,1453.5518,1454.0513,1453.0355,1453.5515,1451.6193,206.0,1453.0354,1454.0513,1454.5508,1454.5509,1456.2335,1307.9,1456.2338,2.0,1457.2332,6.0,14.0,194.0,18.0,1.0,1.4,0.7,Time
,,S27,1,Female,25,anonymized,Serial_Dependence_U,2023.2.3,Win32,59.17159763,,,,,,,,,,,,1457.2342,6.0,1457.2347,,,,1459.7827,1460.2807,1459.266,1459.7825,1458.2497,262.0,1459.2659,1460.2807,1460.7811,1460.7811,1461.5476,747.3,1461.5479,2.0,1462.5474,6.0,15.0,195.0,16.0,1.0,1.0,0.7,Time
,,S27,1,Female,25,anonymized,Serial_Dependence_U,2023.2.3,Win32,59.17159763,,,,,,,,,,,,1462.5482,6.0,1462.5486,,,,1464.8968,1465.396,1464.3804,1464.8967,1463.565,132.0,1464.3803,1465.3961,1465.8959,1465.8959,1468.3445,1546.3,1468.3449,5.0,1469.3441,6.0,16.0,196.0,20.0,1.0,0.8,0.3,Time
,,S27,1,Female,25,anonymized,Serial_Dependence_U,2023.2.3,Win32,59.17159763,,,,,,,,,,,,1469.3454,6.0,1469.3461,,,,1471.693,1472.1927,1471.1776,1471.6929,1470.3602,294.0,1471.1774,1472.1928,1472.6926,1472.6926,1473.2922,199.4,1473.2927,1.0,1474.2919,6.0,17.0,197.0,15.0,1.0,0.8,0.7,Time
,,S27,1,Female,25,anonymized,Serial_Dependence_U,2023.2.3,Win32,59.17159763,,,,,,,,,,,,1474.293,6.0,1474.2935,,,,1476.8413,1477.3407,1476.3246,1476.8411,1475.3083,321.0,1476.3244,1477.3408,1477.8397,1477.8398,1478.3732,514.4,1478.3736,1.0,1479.3726,6.0,18.0,198.0,11.0,1.0,1.0,0.3,Time
,,S27,1,Female,25,anonymized,Serial_Dependence_U,2023.2.3,Win32,59.17159763,,,,,,,,,,,,1479.3733,6.0,1479.3736,,,,1481.7224,1482.2215,1481.2062,1481.7222,1480.3888,211.0,1481.206,1482.2216,1482.7216,1482.7216,1484.104,1361.1,1484.1044,5.0,1485.1039,6.0,19.0,199.0,0.0,1.0,0.8,0.3,Time
,,S27,1,Female,25,anonymized,Serial_Dependence_U,2023.2.3,Win32,59.17159763,,,,,,,,,,,,1485.1047,6.0,1485.1052,,,,1487.8237,1488.3192,1487.32,1487.8236,1486.1074,259.0,1487.3199,1488.3192,1488.8189,1488.8189,1489.7189,639.4,1489.7192,1.0,1490.7182,6.0,20.0,200.0,7.0,1.0,1.2,0.7,Time
,,S27,1,Female,25,anonymized,Serial_Dependence_U,2023.2.3,Win32,59.17159763,,,,,,,,,,,,1490.7193,6.0,1490.7198,,,,1493.8673,1494.3652,1493.3542,1493.8672,1491.7383,182.0,1493.3541,1494.3653,1494.866,1494.8662,1495.8161,918.8000001,1495.8165,1.0,1496.8153,6.0,21.0,201.0,14.0,1.0,1.6,0.3,Time
,,S27,1,Female,25,anonymized,Serial_Dependence_U,2023.2.3,Win32,59.17159763,,,,,,,,,,,,1496.8163,6.0,1496.8167,,,,1499.7646,1500.2626,1499.2478,1499.7644,1497.832,11.0,1499.2476,1500.2628,1500.7631,1500.7632,1502.1797,1380.4,1502.1799,3.0,1503.1792,6.0,22.0,202.0,28.0,1.0,1.4,0.7,Time
,,S27,1,Female,25,anonymized,Serial_Dependence_U,2023.2.3,Win32,59.17159763,,,,,,,,,,,,1503.1804,6.0,1503.181,,,,1506.3284,1506.8273,1505.8121,1506.3283,1504.1956,114.0,1505.8118,1506.8273,1507.3271,1507.3272,1508.2936,934.0,1508.2939,1.0,1509.2928,6.0,23.0,203.0,4.0,1.0,1.6,0.3,Time
,,S27,1,Female,25,anonymized,Serial_Dependence_U,2023.2.3,Win32,59.17159763,,,,,,,,,,,,1509.2937,6.0,1509.2941,,,,1512.2284,1512.7243,1511.7125,1512.2283,1510.2961,174.0,1511.7124,1512.7244,1513.2245,1513.2247,1515.2238,1636.0,1515.224,4.0,1516.223,6.0,24.0,204.0,3.0,1.0,1.4,0.3,Time
,,S27,1,Female,25,anonymized,Serial_Dependence_U,2023.2.3,Win32,59.17159763,,,,,,,,,,,,1516.224,6.0,1516.2247,,,,1518.9715,1519.4704,1518.455,1518.9714,1517.2389,60.0,1518.455,1519.4704,1519.9713,1519.9714,1521.4038,1079.6,1521.4041,2.0,1522.4036,6.0,25.0,205.0,17.0,1.0,1.2,0.7,Time
,,S27,1,Female,25,anonymized,Serial_Dependence_U,2023.2.3,Win32,59.17159763,,,,,,,,,,,,1522.4051,6.0,1522.4059,,,,1524.9533,1525.4519,1524.4363,1524.9532,1523.4202,23.0,1524.4361,1525.4519,1525.9517,1525.9518,1527.8174,1824.0,1527.8176,5.0,1528.8173,6.0,26.0,206.0,26.0,1.0,1.0,0.7,Time
,,S27,1,Female,25,anonymized,Serial_Dependence_U,2023.2.3,Win32,59.17159763,,,,,,,,,,,,1528.8184,6.0,1528.8189,,,,1531.7664,1532.2652,1531.2499,1531.7662,1529.8348,170.0,1531.2497,1532.2653,1532.7649,1532.7649,1534.1483,1118.3,1534.1487,2.0,1535.1478,6.0,27.0,207.0,8.0,1.0,1.4,0.7,Time
,,S27,1,Female,25,anonymized,Serial_Dependence_U,2023.2.3,Win32,59.17159763,,,,,,,,,,,,1535.1488,6.0,1535.1493,,,,1537.7002,1538.1963,1537.1813,1537.7001,1536.1653,250.0,1537.1812,1538.1964,1538.6962,1538.6963,1540.3816,1405.3,1540.3818,5.0,1541.3783,6.0,28.0,208.0,1.0,1.0,1.0,0.3,Time
,,S27,1,Female,25,anonymized,Serial_Dependence_U,2023.2.3,Win32,59.17159763,,,,,,,,,,,,1541.3794,6.0,1541.3798,,,,1544.5312,1545.0263,1544.0112,1544.5311,1542.395,268.0,1544.011,1545.0263,1545.5263,1545.5264,1547.159,1232.6,1547.1594,2.0,1548.1585,6.0,29.0,209.0,9.0,1.0,1.6,0.7,Time
,,S27,1,Female,25,anonymized,Serial_Dependence_U,2023.2.3,Win32,59.17159763,,,,,,,,,,,,1548.1594,7.0,1587.412,s,39.2166,,1590.3569,1590.8552,1589.84,1590.3567,1588.4241,268.0,1589.84,1590.8552,1591.3557,1591.3558,1592.9551,1107.2,1592.9554,2.0,1593.9543,7.0,0.0,210.0,8.0,1.0,1.4,0.7,Time
,,S27,1,Female,25,anonymized,Serial_Dependence_U,2023.2.3,Win32,59.17159763,,,,,,,,,,,,1593.9552,7.0,1593.9589,,,,1596.3041,1596.8032,1595.7909,1596.304,1594.971,168.0,1595.7908,1596.8033,1597.3031,1597.3031,1598.6402,879.8000001,1598.6405,4.0,1599.6352,7.0,1.0,211.0,25.0,1.0,0.8,0.7,Time
,,S27,1,Female,25,anonymized,Serial_Dependence_U,2023.2.3,Win32,59.17159763,,,,,,,,,,,,1599.6364,7.0,1599.6368,,,,1602.1845,1602.6837,1601.6681,1602.1844,1600.6517,29.0,1601.668,1602.6837,1603.1838,1603.1839,1605.153,1761.7,1605.1533,5.0,1606.149,7.0,2.0,212.0,6.0,1.0,1.0,0.7,Time
,,S27,1,Female,25,anonymized,Serial_Dependence_U,2023.2.3,Win32,59.17159763,,,,,,,,,,,,1606.1498,7.0,1606.1502,,,,1609.2984,1609.7971,1608.7816,1609.2983,1607.1661,198.0,1608.7816,1609.7972,1610.2968,1610.2968,1611.9299,1141.3,1611.9302,2.0,1612.9285,7.0,3.0,213.0,4.0,1.0,1.6,0.3,Time
,,S27,1,Female,25,anonymized,Serial_Dependence_U,2023.2.3,Win32,59.17159763,,,,,,,,,,,,1612.9293,7.0,1612.9296,,,,1615.4786,1615.9776,1614.9619,1615.4784,1613.946,120.0,1614.9617,1615.9776,1616.4777,1616.4778,1617.1433,633.9000001,1617.1439,1.0,1618.1432,7.0,4.0,214.0,11.0,1.0,1.0,0.3,Time
,,S27,1,Female,25,anonymized,Serial_Dependence_U,2023.2.3,Win32,59.17159763,,,,,,,,,,,,1618.144,7.0,1618.1444,,,,1620.8762,1621.3749,1620.3635,1620.876,1619.149,177.0,1620.3632,1621.375,1621.8752,1621.8753,1622.2915,254.9,1622.2919,1.0,1623.2911,7.0,5.0,215.0,22.0,1.0,1.2,0.3,Time
,,S27,1,Female,25,anonymized,Serial_Dependence_U,2023.2.3,Win32,59.17159763,,,,,,,,,,,,1623.2919,7.0,1623.2924,,,,1626.0411,1626.5392,1625.524,1626.0409,1624.3077,100.0,1625.5239,1626.5393,1627.0391,1627.0392,1627.806,102.5,1627.8063,1.0,1628.8054,7.0,6.0,216.0,17.0,1.0,1.2,0.7,Time
,,S27,1,Female,25,anonymized,Serial_Dependence_U,2023.2.3,Win32,59.17159763,,,,,,,,,,,,1628.8065,7.0,1628.807,,,,1631.9544,1632.4534,1631.4379,1631.9544,1629.8216,201.0,1631.4376,1632.4534,1632.9531,1632.9534,1634.0912,611.8,1634.0916,1.0,1635.0857,7.0,7.0,217.0,29.0,1.0,1.6,0.7,Time
,,S27,1,Female,25,anonymized,Serial_Dependence_U,2023.2.3,Win32,59.17159763,,,,,,,,,,,,1635.0865,7.0,1635.0871,,,,1637.6356,1638.1343,1637.1186,1637.6353,1636.1023,123.0,1637.1185,1638.1344,1638.6341,1638.6341,1640.5667,1768.4,1640.567,5.0,1641.566,7.0,8.0,218.0,1.0,1.0,1.0,0.3,Time
,,S27,1,Female,25,anonymized,Serial_Dependence_U,2023.2.3,Win32,59.17159763,,,,,,,,,,,,1641.5668,7.0,1641.567,,,,1643.8991,1644.3982,1643.3849,1643.8991,1642.5827,203.0,1643.3848,1644.3982,1644.898,1644.8981,1648.0299,2498.8,1648.0302,5.0,1649.0296,7.0,9.0,219.0,15.0,1.0,0.8,0.7,Time
,,S27,1,Female,25,anonymized,Serial_Dependence_U,2023.2.3,Win32,59.17159763,,,,,,,,,,,,1649.0306,7.0,1649.031,,,,1651.5787,1652.0772,1651.0621,1651.5786,1650.0464,262.0,1651.0621,1652.0773,1652.5778,1652.5779,1655.2104,292.4,1655.2109,1.0,1656.2087,7.0,10.0,220.0,21.0,1.0,1.0,0.3,Time
,,S27,1,Female,25,anonymized,Serial_Dependence_U,2023.2.3,Win32,59.17159763,,,,,,,,,,,,1656.2096,7.0,1656.2098,,,,1658.5587,1659.0578,1658.0421,1658.5587,1657.2264,54.0,1658.042,1659.0578,1659.5584,1659.5584,1662.5404,2528.2,1662.5407,5.0,1663.5394,7.0,11.0,221.0,5.0,1.0,0.8,0.7,Time
,,S27,1,Female,25,anonymized,Serial_Dependence_U,2023.2.3,Win32,59.17159763,,,,,,,,,,,,1663.5401,7.0,1663.5403,,,,1666.6716,1667.1709,1666.1597,1666.6714,1664.5562,11.0,1666.1595,1667.171,1667.6708,1667.6709,1668.6544,956.8,1668.6548,1.0,1669.6533,7.0,12.0,222.0,24.0,1.0,1.6,0.3,Time
,,S27,1,Female,25,anonymized,Serial_Dependence_U,2023.2.3,Win32,59.17159763,,,,,,,,,,,,1669.6541,7.0,1669.6545,,,,1672.0028,1672.5017,1671.4863,1672.0027,1670.6706,99.0,1671.4862,1672.5018,1673.0017,1673.0018,1674.5513,1515.5,1674.5516,5.0,1675.5507,7.0,13.0,223.0,20.0,1.0,0.8,0.3,Time
,,S27,1,Female,25,anonymized,Serial_Dependence_U,2023.2.3,Win32,59.17159763,,,,,,,,,,,,1675.5516,7.0,1675.5519,,,,1678.4996,1678.9984,1677.9834,1678.4996,1676.569,91.0,1677.9833,1678.9985,1679.4986,1679.4988,1682.0312,265.1999999,1682.0314,1.0,1683.0304,7.0,14.0,224.0,13.0,1.0,1.4,0.3,Time
,,S27,1,Female,25,anonymized,Serial_Dependence_U,2023.2.3,Win32,59.17159763,,,,,,,,,,,,1683.031,7.0,1683.0313,,,,1685.3794,1685.8795,1684.8631,1685.3793,1684.0473,298.0,1684.863,1685.8796,1686.3792,1686.3793,1687.6285,1115.6,1687.6288,5.0,1688.6282,7.0,15.0,225.0,10.0,1.0,0.8,0.3,Time
,,S27,1,Female,25,anonymized,Serial_Dependence_U,2023.2.3,Win32,59.17159763,,,,,,,,,,,,1688.6291,7.0,1688.6298,,,,1691.377,1691.8766,1690.8611,1691.3769,1689.6446,44.0,1690.8609,1691.8766,1692.3763,1692.3764,1694.8918,1835.5,1694.8921,5.0,1695.8911,7.0,16.0,226.0,12.0,1.0,1.2,0.3,Time
,,S27,1,Female,25,anonymized,Serial_Dependence_U,2023.2.3,Win32,59.17159763,,,,,,,,,,,,1695.8922,7.0,1695.893,,,,1699.0398,1699.5392,1698.5235,1699.0397,1696.9086,86.0,1698.5233,1699.5392,1700.0392,1700.0392,1700.1724,94.30000007,1700.1727,1.0,1701.1723,7.0,17.0,227.0,19.0,1.0,1.6,0.7,Time
,,S27,1,Female,25,anonymized,Serial_Dependence_U,2023.2.3,Win32,59.17159763,,,,,,,,,,,,1701.1733,7.0,1701.1739,,,,1703.7038,1704.2042,1703.1876,1703.7037,1702.1726,155.0,1703.1875,1704.2042,1704.704,1704.7041,1706.1539,1075.1,1706.1546,4.0,1707.1528,7.0,18.0,228.0,16.0,1.0,1.0,0.7,Time
,,S27,1,Female,25,anonymized,Serial_Dependence_U,2023.2.3,Win32,59.17159763,,,,,,,,,,,,1707.1538,7.0,1707.1544,,,,1710.3016,1710.8003,1709.7852,1710.3014,1708.1684,183.0,1709.785,1710.8004,1711.3012,1711.3013,1713.2497,1590.4,1713.2499,3.0,1714.2496,7.0,19.0,229.0,9.0,1.0,1.6,0.7,Time
,,S27,1,Female,25,anonymized,Serial_Dependence_U,2023.2.3,Win32,59.17159763,,,,,,,,,,,,1714.2504,7.0,1714.2508,,,,1717.1989,1717.6982,1716.682,1717.1987,1715.2665,48.0,1716.6819,1717.6982,1718.1981,1718.1982,1719.8472,1192.1,1719.8475,2.0,1720.8468,7.0,20.0,230.0,28.0,1.0,1.4,0.7,Time
,,S27,1,Female,25,anonymized,Serial_Dependence_U,2023.2.3,Win32,59.17159763,,,,,,,,,,,,1720.8478,7.0,1720.8484,,,,1723.9956,1724.495,1723.4791,1723.9956,1721.8632,12.0,1723.479,1724.495,1724.9949,1724.995,1726.4943,1115.5,1726.4946,1.0,1727.4936,7.0,21.0,231.0,14.0,1.0,1.6,0.3,Time
,,S27,1,Female,25,anonymized,Serial_Dependence_U,2023.2.3,Win32,59.17159763,,,,,,,,,,,,1727.4947,7.0,1727.4952,,,,1730.4426,1730.942,1729.9259,1730.4425,1728.5097,357.0,1729.9257,1730.942,1731.4418,1731.4419,1733.8732,1925.7,1733.8734,5.0,1734.8736,7.0,22.0,232.0,23.0,1.0,1.4,0.3,Time
,,S27,1,Female,25,anonymized,Serial_Dependence_U,2023.2.3,Win32,59.17159763,,,,,,,,,,,,1734.8745,7.0,1734.8748,,,,1737.8228,1738.3219,1737.3068,1737.8227,1735.8912,131.0,1737.3066,1738.3219,1738.8214,1738.8215,1739.3744,158.9000001,1739.3746,1.0,1740.3712,7.0,23.0,233.0,3.0,1.0,1.4,0.3,Time
,,S27,1,Female,25,anonymized,Serial_Dependence_U,2023.2.3,Win32,59.17159763,,,,,,,,,,,,1740.3724,7.0,1740.3728,,,,1743.1203,1743.6192,1742.6043,1743.1201,1741.3888,359.0,1742.6042,1743.6192,1744.1194,1744.1196,1746.702,2194.4,1746.7022,5.0,1747.7012,7.0,24.0,234.0,27.0,1.0,1.2,0.7,Time
,,S27,1,Female,25,anonymized,Serial_Dependence_U,2023.2.3,Win32,59.17159763,,,,,,,,,,,,1747.7022,7.0,1747.7027,,,,1750.4528,1750.9499,1749.9343,1750.4527,1748.718,227.0,1749.9342,1750.9501,1751.4496,1751.4497,1753.5153,1595.8,1753.5157,5.0,1754.5148,7.0,25.0,235.0,2.0,1.0,1.2,0.3,Time
,,S27,1,Female,25,anonymized,Serial_Dependence_U,2023.2.3,Win32,59.17159763,,,,,,,,,,,,1754.5157,7.0,1754.516,,,,1757.2645,1757.7635,1756.7478,1757.2644,1755.5317,86.0,1756.7476,1757.7635,1758.2633,1758.2634,1760.1291,1328.8,1760.1294,4.0,1761.1286,7.0,26.0,236.0,7.0,1.0,1.2,0.7,Time
,,S27,1,Female,25,anonymized,Serial_Dependence_U,2023.2.3,Win32,59.17159763,,,,,,,,,,,,1761.1296,7.0,1761.1301,,,,1763.6781,1764.1768,1763.1615,1763.678,1762.1453,254.0,1763.1613,1764.1768,1764.677,1764.6771,1766.8929,1471.3,1766.8933,5.0,1767.8919,7.0,27.0,237.0,26.0,1.0,1.0,0.7,Time
,,S27,1,Female,25,anonymized,Serial_Dependence_U,2023.2.3,Win32,59.17159763,,,,,,,,,,,,1767.8929,7.0,1767.8933,,,,1770.8249,1771.3241,1770.3116,1770.8248,1768.9088,349.0,1770.3116,1771.3242,1771.8237,1771.8238,1773.3593,1061.2,1773.3594,2.0,1774.3559,7.0,28.0,238.0,18.0,1.0,1.4,0.7,Time
,,S27,1,Female,25,anonymized,Serial_Dependence_U,2023.2.3,Win32,59.17159763,,,,,,,,,,,,1774.3571,7.0,1774.3578,,,,1776.7052,1777.2044,1776.1923,1776.7051,1775.3755,119.0,1776.1921,1777.2044,1777.7042,1777.7043,1779.4533,1291.6,1779.4536,5.0,1780.4526,7.0,29.0,239.0,0.0,1.0,0.8,0.3,Time
,,S27,1,Female,25,anonymized,Serial_Dependence_U,2023.2.3,Win32,59.17159763,,,,,,,,,,,,1780.4534,8.0,1783.9017,s,3.4195,,1786.6515,1787.1501,1786.1345,1786.6513,1784.919,22.0,1786.1343,1787.1502,1787.65,1787.6501,1789.1859,793.6,1789.1861,1.0,1790.1819,8.0,0.0,240.0,7.0,1.0,1.2,0.7,Time
,,S27,1,Female,25,anonymized,Serial_Dependence_U,2023.2.3,Win32,59.17159763,,,,,,,,,,,,1790.183,8.0,1790.187,,,,1792.7322,1793.2307,1792.2155,1792.732,1791.1987,142.0,1792.2153,1793.2308,1793.7305,1793.7306,1794.517,643.3000001,1794.5173,1.0,1795.5128,8.0,1.0,241.0,6.0,1.0,1.0,0.7,Time
,,S27,1,Female,25,anonymized,Serial_Dependence_U,2023.2.3,Win32,59.17159763,,,,,,,,,,,,1795.5138,8.0,1795.5144,,,,1798.2616,1798.7607,1797.7457,1798.2613,1796.5295,312.0,1797.7457,1798.7607,1799.261,1799.2612,1800.694,1116.2,1800.6943,2.0,1801.6931,8.0,2.0,242.0,2.0,1.0,1.2,0.3,Time
,,S27,1,Female,25,anonymized,Serial_Dependence_U,2023.2.3,Win32,59.17159763,,,,,,,,,,,,1801.6941,8.0,1801.6943,,,,1804.6425,1805.1416,1804.1255,1804.6424,1802.7113,345.0,1804.1253,1805.1417,1805.6414,1805.6415,1807.3408,1321.8,1807.3411,2.0,1808.3403,8.0,3.0,243.0,23.0,1.0,1.4,0.3,Time
,,S27,1,Female,25,anonymized,Serial_Dependence_U,2023.2.3,Win32,59.17159763,,,,,,,,,,,,1808.3417,8.0,1808.3423,,,,1810.8897,1811.3891,1810.3736,1810.8896,1809.3575,263.0,1810.3735,1811.3892,1811.8888,1811.889,1815.3247,1380.4,1815.325,5.0,1816.3201,8.0,4.0,244.0,11.0,1.0,1.0,0.3,Time
,,S27,1,Female,25,anonymized,Serial_Dependence_U,2023.2.3,Win32,59.17159763,,,,,,,,,,,,1816.3212,8.0,1816.3215,,,,1818.6719,1819.1687,1818.1531,1818.6718,1817.3374,349.0,1818.153,1819.1688,1819.6688,1819.6688,1821.8711,1558.2,1821.8714,5.0,1822.8674,8.0,5.0,245.0,15.0,1.0,0.8,0.7,Time
,,S27,1,Female,25,anonymized,Serial_Dependence_U,2023.2.3,Win32,59.17159763,,,,,,,,,,,,1822.8685,8.0,1822.8689,,,,1825.8167,1826.3155,1825.3003,1825.8164,1823.884,322.0,1825.3001,1826.3155,1826.8152,1826.8154,1828.5508,1494.3,1828.5511,4.0,1829.5475,8.0,6.0,246.0,13.0,1.0,1.4,0.3,Time
,,S27,1,Female,25,anonymized,Serial_Dependence_U,2023.2.3,Win32,59.17159763,,,,,,,,,,,,1829.5488,8.0,1829.5494,,,,1832.0799,1832.5794,1831.5679,1832.0799,1830.5656,232.0,1831.5678,1832.5795,1833.0794,1833.0795,1834.6625,1285.8,1834.6629,4.0,1835.6612,8.0,7.0,247.0,26.0,1.0,1.0,0.7,Time
,,S27,1,Female,25,anonymized,Serial_Dependence_U,2023.2.3,Win32,59.17159763,,,,,,,,,,,,1835.6623,8.0,1835.6628,,,,1838.5939,1839.0927,1838.0776,1838.5937,1836.664,292.0,1838.0774,1839.0928,1839.593,1839.5931,1841.7921,1682.6,1841.7923,4.0,1842.7913,8.0,8.0,248.0,3.0,1.0,1.4,0.3,Time
,,S27,1,Female,25,anonymized,Serial_Dependence_U,2023.2.3,Win32,59.17159763,,,,,,,,,,,,1842.7921,8.0,1842.7923,,,,1845.9405,1846.4394,1845.4243,1845.9404,1843.8086,293.0,1845.4242,1846.4395,1846.9398,1846.9399,1848.3254,1263.9,1848.3257,2.0,1849.3223,8.0,9.0,249.0,19.0,1.0,1.6,0.7,Time
,,S27,1,Female,25,anonymized,Serial_Dependence_U,2023.2.3,Win32,59.17159763,,,,,,,,,,,,1849.3233,8.0,1849.3238,,,,1851.8719,1852.3698,1851.3549,1851.8717,1850.3434,134.0,1851.3548,1852.3698,1852.8701,1852.8702,1854.0198,1123.2,1854.0202,4.0,1855.0195,8.0,10.0,250.0,16.0,1.0,1.0,0.7,Time
,,S27,1,Female,25,anonymized,Serial_Dependence_U,2023.2.3,Win32,59.17159763,,,,,,,,,,,,1855.0214,8.0,1855.022,,,,1858.1685,1858.6672,1857.6517,1858.1684,1856.0361,195.0,1857.6516,1858.6673,1859.1673,1859.1674,1860.903,1714.4,1860.9034,4.0,1861.8997,8.0,11.0,251.0,24.0,1.0,1.6,0.3,Time
,,S27,1,Female,25,anonymized,Serial_Dependence_U,2023.2.3,Win32,59.17159763,,,,,,,,,,,,1861.9008,8.0,1861.9013,,,,1864.4488,1864.948,1863.9322,1864.4487,1862.9165,140.0,1863.9321,1864.9481,1865.4474,1865.4476,1866.9516,1414.8,1866.9519,5.0,1867.9467,8.0,12.0,252.0,1.0,1.0,1.0,0.3,Time
,,S27,1,Female,25,anonymized,Serial_Dependence_U,2023.2.3,Win32,59.17159763,,,,,,,,,,,,1867.9477,8.0,1867.9481,,,,1870.2796,1870.7788,1869.7665,1870.2794,1868.9634,189.0,1869.7664,1870.7789,1871.2787,1871.2787,1873.0655,1519.9,1873.0657,5.0,1874.0603,8.0,13.0,253.0,0.0,1.0,0.8,0.3,Time
,,S27,1,Female,25,anonymized,Serial_Dependence_U,2023.2.3,Win32,59.17159763,,,,,,,,,,,,1874.0612,8.0,1874.0615,,,,1877.2099,1877.7087,1876.6931,1877.2098,1875.0821,216.0,1876.693,1877.7087,1878.2086,1878.2086,1879.5081,1268.0,1879.5085,2.0,1880.5075,8.0,14.0,254.0,14.0,1.0,1.6,0.3,Time
,,S27,1,Female,25,anonymized,Serial_Dependence_U,2023.2.3,Win32,59.17159763,,,,,,,,,,,,1880.5084,8.0,1880.5092,,,,1882.8573,1883.3561,1882.3404,1882.857,1881.5245,294.0,1882.3404,1883.3562,1883.856,1883.8561,1885.5214,1344.9,1885.5218,5.0,1886.5211,8.0,15.0,255.0,25.0,1.0,0.8,0.7,Time
,,S27,1,Female,25,anonymized,Serial_Dependence_U,2023.2.3,Win32,59.17159763,,,,,,,,,,,,1886.5219,8.0,1886.5224,,,,1889.0706,1889.5699,1888.5541,1889.0705,1887.5376,208.0,1888.5541,1889.5699,1890.07,1890.0701,1892.0519,1785.6,1892.0522,5.0,1893.0509,8.0,16.0,256.0,21.0,1.0,1.0,0.3,Time
,,S27,1,Female,25,anonymized,Serial_Dependence_U,2023.2.3,Win32,59.17159763,,,,,,,,,,,,1893.0513,8.0,1893.0515,,,,1896.2013,1896.6997,1895.6848,1896.2011,1894.0733,42.0,1895.6847,1896.6999,1897.2001,1897.2002,1898.8495,1186.9,1898.8498,2.0,1899.8489,8.0,17.0,257.0,9.0,1.0,1.6,0.7,Time
,,S27,1,Female,25,anonymized,Serial_Dependence_U,2023.2.3,Win32,59.17159763,,,,,,,,,,,,1899.85,8.0,1899.8505,,,,1902.7981,1903.2972,1902.2816,1902.7979,1900.8659,182.0,1902.2815,1903.2973,1903.7967,1903.7968,1905.6791,1685.7,1905.6797,4.0,1906.6796,8.0,18.0,258.0,28.0,1.0,1.4,0.7,Time
,,S27,1,Female,25,anonymized,Serial_Dependence_U,2023.2.3,Win32,59.17159763,,,,,,,,,,,,1906.6807,8.0,1906.6815,,,,1909.4314,1909.9273,1908.912,1909.4313,1907.6958,229.0,1908.9118,1909.9273,1910.4264,1910.4265,1912.5769,1632.3,1912.5774,5.0,1913.5762,8.0,19.0,259.0,17.0,1.0,1.2,0.7,Time
,,S27,1,Female,25,anonymized,Serial_Dependence_U,2023.2.3,Win32,59.17159763,,,,,,,,,,,,1913.577,8.0,1913.5776,,,,1916.3088,1916.8079,1915.796,1916.3087,1914.5924,268.0,1915.7958,1916.8079,1917.3076,1917.3078,1919.0568,1369.1,1919.0573,4.0,1920.0563,8.0,20.0,260.0,27.0,1.0,1.2,0.7,Time
,,S27,1,Female,25,anonymized,Serial_Dependence_U,2023.2.3,Win32,59.17159763,,,,,,,,,,,,1920.0574,8.0,1920.0578,,,,1922.389,1922.8884,1921.873,1922.3888,1921.0604,146.0,1921.873,1922.8886,1923.3879,1923.388,1925.3872,1574.3,1925.3875,5.0,1926.3868,8.0,21.0,261.0,20.0,1.0,0.8,0.3,Time
,,S27,1,Female,25,anonymized,Serial_Dependence_U,2023.2.3,Win32,59.17159763,,,,,,,,,,,,1926.3877,8.0,1926.3884,,,,1929.5197,1930.0185,1929.003,1929.5195,1927.3908,67.0,1929.0028,1930.0185,1930.5181,1930.5181,1931.418,876.1,1931.4183,1.0,1932.4174,8.0,22.0,262.0,29.0,1.0,1.6,0.7,Time
,,S27,1,Female,25,anonymized,Serial_Dependence_U,2023.2.3,Win32,59.17159763,,,,,,,,,,,,1932.4183,8.0,1932.4188,,,,1934.7506,1935.2491,1934.2339,1934.7505,1933.4215,325.0,1934.2337,1935.2491,1935.7495,1935.7495,1937.1991,1151.3,1937.1995,5.0,1938.1984,8.0,23.0,263.0,5.0,1.0,0.8,0.7,Time
,,S27,1,Female,25,anonymized,Serial_Dependence_U,2023.2.3,Win32,59.17159763,,,,,,,,,,,,1938.1995,8.0,1938.2,,,,1940.9476,1941.4467,1940.431,1940.9474,1939.2148,18.0,1940.4309,1941.4467,1941.9464,1941.9466,1945.5951,3296.0,1945.5955,5.0,1946.5943,8.0,24.0,264.0,22.0,1.0,1.2,0.3,Time
,,S27,1,Female,25,anonymized,Serial_Dependence_U,2023.2.3,Win32,59.17159763,,,,,,,,,,,,1946.5953,8.0,1946.5957,,,,1949.527,1950.0258,1949.0107,1949.5269,1947.5979,347.0,1949.0105,1950.0259,1950.5261,1950.5263,1951.992,1050.7,1951.9923,2.0,1952.9914,8.0,25.0,265.0,18.0,1.0,1.4,0.7,Time
,,S27,1,Female,25,anonymized,Serial_Dependence_U,2023.2.3,Win32,59.17159763,,,,,,,,,,,,1952.9926,8.0,1952.9933,,,,1955.9246,1956.423,1955.4074,1955.9244,1953.9928,238.0,1955.4073,1956.4231,1956.9228,1956.9229,1958.6224,1559.4,1958.6227,4.0,1959.6215,8.0,26.0,266.0,8.0,1.0,1.4,0.7,Time
,,S27,1,Female,25,anonymized,Serial_Dependence_U,2023.2.3,Win32,59.17159763,,,,,,,,,,,,1959.6226,8.0,1959.6231,,,,1962.7546,1963.2531,1962.2411,1962.7544,1960.6261,99.0,1962.2411,1963.2531,1963.7532,1963.7534,1965.057,1281.9,1965.0573,2.0,1966.0521,8.0,27.0,267.0,4.0,1.0,1.6,0.3,Time
,,S27,1,Female,25,anonymized,Serial_Dependence_U,2023.2.3,Win32,59.17159763,,,,,,,,,,,,1966.0532,8.0,1966.0538,,,,1968.8012,1969.3006,1968.2851,1968.8011,1967.0689,23.0,1968.285,1969.3006,1969.8002,1969.8003,1971.9831,1783.8,1971.9835,5.0,1972.982,8.0,28.0,268.0,12.0,1.0,1.2,0.3,Time
,,S27,1,Female,25,anonymized,Serial_Dependence_U,2023.2.3,Win32,59.17159763,,,,,,,,,,,,1972.9826,8.0,1972.9829,,,,1975.3162,1975.8141,1974.8024,1975.3162,1973.9997,66.0,1974.8022,1975.8141,1976.3141,1976.3142,1979.2133,2179.4,1979.2136,5.0,1980.2123,8.0,29.0,269.0,10.0,1.0,0.8,0.3,Time
