Scale_setup.started,Scale_setup.stopped,participant,session,sex,age,date,expName,psychopyVersion,OS,frameRate,screen_scale_keys.started,screen_scale_keys.stopped,X Scale,Y Scale,rectangel_keys.started,rectangel_keys.stopped,Intro.started,Intro.stopped,key_resp_2.keys,key_resp_2.rt,key_resp_2.duration,block.started,Block_id,block.stopped,Block_resp_2.keys,Block_resp_2.rt,Block_resp_2.duration,ITI.started,ITI.stopped,Mask_2.started,Mask_2.stopped,M2.started,direction,M2.stopped,Cue.started,Cue.stopped,Response.started,Response.stopped,keyDuration,Feedback_Time.started,FeedbackID_T,Feedback_Time.stopped,trials.thisRepN,trials.thisTrialN,trials.thisN,trials.thisIndex,trials.ran,TimeDur,Coherence1,TrialType
0.0002,0.0005,S28,1,female,29,anonymized,Serial_Dependence_U,2023.2.3,Win32,60.24096386,,,,,,,,,,,,,,,,,,,,,,,,,,,,,,,,,,,,,,,,
,,S28,1,female,29,anonymized,Serial_Dependence_U,2023.2.3,Win32,60.24096386,0.0025,6.5359,0.0595,0.0672,6.5363,8.8381,8.8386,32.7579,space,23.8511,,,,,,,,,,,,,,,,,,,,,,,,,,,,,,
,,S28,1,female,29,anonymized,Serial_Dependence_U,2023.2.3,Win32,60.24096386,,,,,,,,,,,,32.7694,0.0,34.2411,s,1.442,,37.1935,37.6922,36.6773,37.1931,35.262,22.0,36.677,37.6928,38.1927,38.1934,44.2116,9999.0,44.2127,0.0,45.2107,0.0,0.0,0.0,18.0,1.0,1.4,0.7,Time
,,S28,1,female,29,anonymized,Serial_Dependence_U,2023.2.3,Win32,60.24096386,,,,,,,,,,,,45.2119,0.0,45.2165,,,,47.5617,48.0602,47.0445,47.5615,46.2282,311.0,47.0444,48.0603,48.5608,48.5609,54.5623,9999.0,54.5626,0.0,55.5618,0.0,1.0,1.0,25.0,1.0,0.8,0.7,Time
,,S28,1,female,29,anonymized,Serial_Dependence_U,2023.2.3,Win32,60.24096386,,,,,,,,,,,,55.5624,0.0,55.5626,,,,58.1137,58.6129,57.5969,58.1133,56.5794,187.0,57.5966,58.613,59.1131,59.1133,65.1204,9999.0,65.1209,0.0,66.1136,0.0,2.0,2.0,21.0,1.0,1.0,0.3,Time
,,S28,1,female,29,anonymized,Serial_Dependence_U,2023.2.3,Win32,60.24096386,,,,,,,,,,,,66.1143,0.0,66.1148,,,,68.6648,69.1648,68.1495,68.6646,67.1324,297.0,68.1492,69.1649,69.6643,69.6643,75.6656,9999.0,75.6661,0.0,76.6658,0.0,3.0,3.0,26.0,1.0,1.0,0.7,Time
,,S28,1,female,29,anonymized,Serial_Dependence_U,2023.2.3,Win32,60.24096386,,,,,,,,,,,,76.6663,0.0,76.6668,,,,79.2177,79.7161,78.6997,79.2174,77.683,106.0,78.6996,79.7162,80.2164,80.2164,86.2186,9999.0,86.2192,0.0,87.2178,0.0,4.0,4.0,16.0,1.0,1.0,0.7,Time
,,S28,1,female,29,anonymized,Serial_Dependence_U,2023.2.3,Win32,60.24096386,,,,,,,,,,,,87.2187,0.0,87.2193,,,,89.57,90.0684,89.0527,89.5698,88.2361,298.0,89.0525,90.0686,90.5678,90.5679,96.5706,9999.0,96.5711,0.0,97.5699,0.0,5.0,5.0,5.0,1.0,0.8,0.7,Time
,,S28,1,female,29,anonymized,Serial_Dependence_U,2023.2.3,Win32,60.24096386,,,,,,,,,,,,97.5715,0.0,97.5722,,,,100.5216,101.0199,100.0046,100.5212,98.5878,274.0,100.0045,101.02,101.52,101.5201,107.5225,9999.0,107.5231,0.0,108.5221,0.0,6.0,6.0,3.0,1.0,1.4,0.3,Time
,,S28,1,female,29,anonymized,Serial_Dependence_U,2023.2.3,Win32,60.24096386,,,,,,,,,,,,108.5232,0.0,108.5238,,,,110.8727,111.3721,110.3562,110.8724,109.5391,271.0,110.356,111.3721,111.8723,111.8724,117.8746,9999.0,117.8751,0.0,118.8734,0.0,7.0,7.0,0.0,1.0,0.8,0.3,Time
,,S28,1,female,29,anonymized,Serial_Dependence_U,2023.2.3,Win32,60.24096386,,,,,,,,,,,,118.8736,0.0,118.874,,,,122.0246,122.5242,121.5083,122.0243,119.891,44.0,121.508,122.5243,123.024,123.024,129.0262,9999.0,129.0269,0.0,130.0261,0.0,8.0,8.0,4.0,1.0,1.6,0.3,Time
,,S28,1,female,29,anonymized,Serial_Dependence_U,2023.2.3,Win32,60.24096386,,,,,,,,,,,,130.0273,0.0,130.0277,,,,133.177,133.6766,132.6611,133.1767,131.0456,338.0,132.6608,133.6767,134.1763,134.1764,140.1775,9999.0,140.1781,0.0,141.1774,0.0,9.0,9.0,19.0,1.0,1.6,0.7,Time
,,S28,1,female,29,anonymized,Serial_Dependence_U,2023.2.3,Win32,60.24096386,,,,,,,,,,,,141.1782,0.0,141.179,,,,144.3143,144.8117,143.8124,144.3142,142.1953,358.0,143.8121,144.8118,145.3117,145.3117,151.3131,9999.0,151.3137,0.0,152.313,0.0,10.0,10.0,9.0,1.0,1.6,0.7,Time
,,S28,1,female,29,anonymized,Serial_Dependence_U,2023.2.3,Win32,60.24096386,,,,,,,,,,,,152.3139,0.0,152.3147,,,,155.2521,155.7475,154.7485,155.252,153.331,215.0,154.7483,155.7477,156.2476,156.2478,162.2663,9999.0,162.2668,0.0,163.265,0.0,11.0,11.0,28.0,1.0,1.4,0.7,Time
,,S28,1,female,29,anonymized,Serial_Dependence_U,2023.2.3,Win32,60.24096386,,,,,,,,,,,,163.2659,0.0,163.2665,,,,166.0158,166.5157,165.4993,166.0155,164.2835,330.0,165.4991,166.5157,167.0157,167.0157,173.0183,9999.0,173.0187,0.0,174.0172,0.0,12.0,12.0,7.0,1.0,1.2,0.7,Time
,,S28,1,female,29,anonymized,Serial_Dependence_U,2023.2.3,Win32,60.24096386,,,,,,,,,,,,174.0181,0.0,174.0187,,,,176.5686,177.0676,176.0522,176.5682,175.035,314.0,176.0519,177.0676,177.5676,177.5677,183.569,9999.0,183.5694,0.0,184.5689,0.0,13.0,13.0,11.0,1.0,1.0,0.3,Time
,,S28,1,female,29,anonymized,Serial_Dependence_U,2023.2.3,Win32,60.24096386,,,,,,,,,,,,184.5696,0.0,184.5701,,,,186.9042,187.4036,186.391,186.9039,185.5875,32.0,186.3908,187.4038,187.9031,187.9033,193.9225,9999.0,193.9228,0.0,194.9214,0.0,14.0,14.0,15.0,1.0,0.8,0.7,Time
,,S28,1,female,29,anonymized,Serial_Dependence_U,2023.2.3,Win32,60.24096386,,,,,,,,,,,,194.9227,0.0,194.9233,,,,197.6728,198.1717,197.1612,197.6724,195.9395,234.0,197.161,198.1718,198.6719,198.672,204.6923,9999.0,204.6924,0.0,205.6899,0.0,15.0,15.0,17.0,1.0,1.2,0.7,Time
,,S28,1,female,29,anonymized,Serial_Dependence_U,2023.2.3,Win32,60.24096386,,,,,,,,,,,,205.6912,0.0,205.6918,,,,208.2243,208.7235,207.7077,208.2241,206.6966,174.0,207.7074,208.7235,209.2119,209.2119,215.2129,9999.0,215.2131,0.0,216.2084,0.0,16.0,16.0,1.0,1.0,1.0,0.3,Time
,,S28,1,female,29,anonymized,Serial_Dependence_U,2023.2.3,Win32,60.24096386,,,,,,,,,,,,216.2101,0.0,216.2109,,,,218.5592,219.0583,218.0421,218.559,217.2294,242.0,218.042,219.0584,219.5589,219.5591,225.5774,9999.0,225.5779,0.0,226.5771,0.0,17.0,17.0,10.0,1.0,0.8,0.3,Time
,,S28,1,female,29,anonymized,Serial_Dependence_U,2023.2.3,Win32,60.24096386,,,,,,,,,,,,226.5784,0.0,226.5789,,,,229.7286,230.2277,229.2115,229.7284,227.5951,238.0,229.2113,230.2278,230.7283,230.7284,236.7335,9999.0,236.7337,0.0,237.7285,0.0,18.0,18.0,14.0,1.0,1.6,0.3,Time
,,S28,1,female,29,anonymized,Serial_Dependence_U,2023.2.3,Win32,60.24096386,,,,,,,,,,,,237.7287,0.0,237.7289,,,,240.6801,241.1793,240.164,240.68,238.7465,263.0,240.1636,241.1794,241.6803,241.6804,247.6984,9999.0,247.699,0.0,248.6979,0.0,19.0,19.0,13.0,1.0,1.4,0.3,Time
,,S28,1,female,29,anonymized,Serial_Dependence_U,2023.2.3,Win32,60.24096386,,,,,,,,,,,,248.699,0.0,248.6996,,,,251.0356,251.5314,250.5329,251.0355,249.7189,267.0,250.5326,251.5315,252.0315,252.0316,258.0503,9999.0,258.0509,0.0,259.0493,0.0,20.0,20.0,20.0,1.0,0.8,0.3,Time
,,S28,1,female,29,anonymized,Serial_Dependence_U,2023.2.3,Win32,60.24096386,,,,,,,,,,,,259.0513,0.0,259.0517,,,,261.7877,262.2832,261.2837,261.7877,260.0672,274.0,261.2833,262.2833,262.7834,262.7835,268.7857,9999.0,268.7862,0.0,269.7847,0.0,21.0,21.0,12.0,1.0,1.2,0.3,Time
,,S28,1,female,29,anonymized,Serial_Dependence_U,2023.2.3,Win32,60.24096386,,,,,,,,,,,,269.7854,0.0,269.7858,,,,272.9362,273.4351,272.4191,272.9359,270.8023,272.0,272.4188,273.4351,273.9354,273.9354,279.9378,9999.0,279.9382,0.0,280.9373,0.0,22.0,22.0,24.0,1.0,1.6,0.3,Time
,,S28,1,female,29,anonymized,Serial_Dependence_U,2023.2.3,Win32,60.24096386,,,,,,,,,,,,280.9385,0.0,280.939,,,,284.0769,284.5713,283.5724,284.0767,281.9554,176.0,283.5722,284.5714,285.0706,285.0706,291.0732,9999.0,291.0737,0.0,292.0727,0.0,23.0,23.0,29.0,1.0,1.6,0.7,Time
,,S28,1,female,29,anonymized,Serial_Dependence_U,2023.2.3,Win32,60.24096386,,,,,,,,,,,,292.0745,0.0,292.0752,,,,295.0071,295.5059,294.4909,295.007,293.0793,248.0,294.4908,295.506,296.0068,296.0071,302.0238,9999.0,302.0239,0.0,303.0242,0.0,24.0,24.0,8.0,1.0,1.4,0.7,Time
,,S28,1,female,29,anonymized,Serial_Dependence_U,2023.2.3,Win32,60.24096386,,,,,,,,,,,,303.0246,0.0,303.0248,,,,305.7754,306.2749,305.258,305.7752,304.0412,2.0,305.2579,306.2749,306.7747,306.7748,312.776,9999.0,312.7761,0.0,313.7764,0.0,25.0,25.0,27.0,1.0,1.2,0.7,Time
,,S28,1,female,29,anonymized,Serial_Dependence_U,2023.2.3,Win32,60.24096386,,,,,,,,,,,,313.777,0.0,313.7774,,,,316.5268,317.0268,316.011,316.5266,314.7942,147.0,316.0109,317.0268,317.5266,317.5266,323.5282,9999.0,323.5283,0.0,324.5285,0.0,26.0,26.0,2.0,1.0,1.2,0.3,Time
,,S28,1,female,29,anonymized,Serial_Dependence_U,2023.2.3,Win32,60.24096386,,,,,,,,,,,,324.5293,0.0,324.5299,,,,327.2633,327.7624,326.7467,327.2631,325.5294,135.0,326.7465,327.7625,328.2629,328.263,334.281,9999.0,334.2814,0.0,335.2807,0.0,27.0,27.0,22.0,1.0,1.2,0.3,Time
,,S28,1,female,29,anonymized,Serial_Dependence_U,2023.2.3,Win32,60.24096386,,,,,,,,,,,,335.2817,0.0,335.2821,,,,337.8179,338.314,337.299,337.8178,336.2866,302.0,337.2988,338.3141,338.8141,338.8142,344.8153,9999.0,344.8157,0.0,345.8151,0.0,28.0,28.0,6.0,1.0,1.0,0.7,Time
,,S28,1,female,29,anonymized,Serial_Dependence_U,2023.2.3,Win32,60.24096386,,,,,,,,,,,,345.8161,0.0,345.8168,,,,348.7663,349.2664,348.2533,348.7661,346.8378,356.0,348.2531,349.2665,349.7662,349.7663,355.784,9999.0,355.7845,0.0,356.784,0.0,29.0,29.0,23.0,1.0,1.4,0.3,Time
,,S28,1,female,29,anonymized,Serial_Dependence_U,2023.2.3,Win32,60.24096386,,,,,,,,,,,,356.7851,1.0,380.5229,s,23.7134,,383.0591,383.5558,382.5569,383.0589,381.5402,265.0,382.5566,383.5558,384.0559,384.0559,390.0573,9999.0,390.0578,0.0,391.0569,1.0,0.0,30.0,11.0,1.0,1.0,0.3,Time
,,S28,1,female,29,anonymized,Serial_Dependence_U,2023.2.3,Win32,60.24096386,,,,,,,,,,,,391.0571,1.0,391.0591,,,,393.8087,394.3084,393.2923,393.8085,392.075,71.0,393.2921,394.3086,394.8083,394.8085,400.8268,9999.0,400.8273,0.0,401.8262,1.0,1.0,31.0,17.0,1.0,1.2,0.7,Time
,,S28,1,female,29,anonymized,Serial_Dependence_U,2023.2.3,Win32,60.24096386,,,,,,,,,,,,401.8274,1.0,401.8278,,,,404.3652,404.8599,403.849,404.365,402.8305,257.0,403.8488,404.86,405.3603,405.3604,411.378,9999.0,411.3783,0.0,412.3777,1.0,2.0,32.0,21.0,1.0,1.0,0.3,Time
,,S28,1,female,29,anonymized,Serial_Dependence_U,2023.2.3,Win32,60.24096386,,,,,,,,,,,,412.378,1.0,412.3783,,,,415.5003,415.995,414.9963,415.5002,413.3946,249.0,414.9959,415.9951,416.4954,416.4957,422.5139,9999.0,422.5145,0.0,423.5135,1.0,3.0,33.0,9.0,1.0,1.6,0.7,Time
,,S28,1,female,29,anonymized,Serial_Dependence_U,2023.2.3,Win32,60.24096386,,,,,,,,,,,,423.5146,1.0,423.515,,,,426.4648,426.964,425.9476,426.4644,424.5315,123.0,425.9475,426.9641,427.464,427.4641,433.4818,9999.0,433.4825,0.0,434.4818,1.0,4.0,34.0,8.0,1.0,1.4,0.7,Time
,,S28,1,female,29,anonymized,Serial_Dependence_U,2023.2.3,Win32,60.24096386,,,,,,,,,,,,434.482,1.0,434.4822,,,,437.2339,437.7328,436.7163,437.2336,435.5,144.0,436.7162,437.733,438.2331,438.2333,444.2512,9999.0,444.2517,0.0,445.251,1.0,5.0,35.0,7.0,1.0,1.2,0.7,Time
,,S28,1,female,29,anonymized,Serial_Dependence_U,2023.2.3,Win32,60.24096386,,,,,,,,,,,,445.252,1.0,445.2524,,,,447.6025,448.1014,447.0852,447.6023,446.2693,198.0,447.0849,448.1015,448.6016,448.6017,454.6033,9999.0,454.6039,0.0,455.6023,1.0,6.0,36.0,5.0,1.0,0.8,0.7,Time
,,S28,1,female,29,anonymized,Serial_Dependence_U,2023.2.3,Win32,60.24096386,,,,,,,,,,,,455.6035,1.0,455.604,,,,458.5377,459.0367,458.0251,458.5373,456.6234,28.0,458.025,459.0369,459.5363,459.5364,465.5409,9999.0,465.5411,0.0,466.5384,1.0,7.0,37.0,28.0,1.0,1.4,0.7,Time
,,S28,1,female,29,anonymized,Serial_Dependence_U,2023.2.3,Win32,60.24096386,,,,,,,,,,,,466.54,1.0,466.5406,,,,469.0934,469.5884,468.5722,469.0932,467.5561,59.0,468.5721,469.5884,470.0887,470.0889,476.107,9999.0,476.1075,0.0,477.1066,1.0,8.0,38.0,26.0,1.0,1.0,0.7,Time
,,S28,1,female,29,anonymized,Serial_Dependence_U,2023.2.3,Win32,60.24096386,,,,,,,,,,,,477.1077,1.0,477.1082,,,,479.8583,480.3574,479.3419,479.8581,478.1246,75.0,479.3417,480.3575,480.8573,480.8575,486.8759,9999.0,486.8764,0.0,487.8752,1.0,9.0,39.0,22.0,1.0,1.2,0.3,Time
,,S28,1,female,29,anonymized,Serial_Dependence_U,2023.2.3,Win32,60.24096386,,,,,,,,,,,,487.8759,1.0,487.8763,,,,490.4145,490.9087,489.9101,490.4144,488.8929,274.0,489.9097,490.9087,491.4095,491.4096,497.4282,9999.0,497.4288,0.0,498.4275,1.0,10.0,40.0,1.0,1.0,1.0,0.3,Time
,,S28,1,female,29,anonymized,Serial_Dependence_U,2023.2.3,Win32,60.24096386,,,,,,,,,,,,498.4289,1.0,498.4294,,,,501.5791,502.0778,501.0623,501.5788,499.4457,171.0,501.062,502.0779,502.5784,502.5786,508.5968,9999.0,508.5972,0.0,509.5961,1.0,11.0,41.0,19.0,1.0,1.6,0.7,Time
,,S28,1,female,29,anonymized,Serial_Dependence_U,2023.2.3,Win32,60.24096386,,,,,,,,,,,,509.5973,1.0,509.5977,,,,512.7339,513.2299,512.2144,512.7338,510.6018,317.0,512.2142,513.23,513.7301,513.7301,519.7321,9999.0,519.7326,0.0,520.7311,1.0,12.0,42.0,4.0,1.0,1.6,0.3,Time
,,S28,1,female,29,anonymized,Serial_Dependence_U,2023.2.3,Win32,60.24096386,,,,,,,,,,,,520.7318,1.0,520.7322,,,,523.0521,523.5486,522.5496,523.052,521.736,77.0,522.5495,523.5487,524.0488,524.049,530.0511,9999.0,530.0513,0.0,531.0495,1.0,13.0,43.0,10.0,1.0,0.8,0.3,Time
,,S28,1,female,29,anonymized,Serial_Dependence_U,2023.2.3,Win32,60.24096386,,,,,,,,,,,,531.0504,1.0,531.0509,,,,533.5851,534.0838,533.0681,533.5848,532.0554,97.0,533.0678,534.0838,534.5841,534.5842,540.586,9999.0,540.5865,0.0,541.5852,1.0,14.0,44.0,6.0,1.0,1.0,0.7,Time
,,S28,1,female,29,anonymized,Serial_Dependence_U,2023.2.3,Win32,60.24096386,,,,,,,,,,,,541.5864,1.0,541.587,,,,543.9369,544.4357,543.4202,543.9367,542.6034,77.0,543.42,544.4357,544.936,544.9361,550.9379,9999.0,550.9383,0.0,551.9371,1.0,15.0,45.0,25.0,1.0,0.8,0.7,Time
,,S28,1,female,29,anonymized,Serial_Dependence_U,2023.2.3,Win32,60.24096386,,,,,,,,,,,,551.9381,1.0,551.9387,,,,554.8722,555.3711,554.3557,554.8719,552.9389,316.0,554.3555,555.3712,555.8713,555.8715,561.8733,9999.0,561.8737,0.0,562.8726,1.0,16.0,46.0,23.0,1.0,1.4,0.3,Time
,,S28,1,female,29,anonymized,Serial_Dependence_U,2023.2.3,Win32,60.24096386,,,,,,,,,,,,562.8736,1.0,562.874,,,,565.824,566.3233,565.3076,565.8238,563.8907,342.0,565.3073,566.3234,566.8234,566.8235,572.828,9999.0,572.8283,0.0,573.8248,1.0,17.0,47.0,18.0,1.0,1.4,0.7,Time
,,S28,1,female,29,anonymized,Serial_Dependence_U,2023.2.3,Win32,60.24096386,,,,,,,,,,,,573.8266,1.0,573.827,,,,576.9765,577.4752,576.4634,576.9763,574.8467,193.0,576.4631,577.4752,577.9762,577.9764,583.9931,9999.0,583.9937,0.0,584.9936,1.0,18.0,48.0,24.0,1.0,1.6,0.3,Time
,,S28,1,female,29,anonymized,Serial_Dependence_U,2023.2.3,Win32,60.24096386,,,,,,,,,,,,584.995,1.0,584.9954,,,,587.5448,588.0441,587.0283,587.5446,586.0115,349.0,587.0281,588.0442,588.5438,588.5439,594.5626,9999.0,594.5631,0.0,595.562,1.0,19.0,49.0,16.0,1.0,1.0,0.7,Time
,,S28,1,female,29,anonymized,Serial_Dependence_U,2023.2.3,Win32,60.24096386,,,,,,,,,,,,595.5631,1.0,595.5634,,,,597.9136,598.4125,597.3995,597.9134,596.5802,65.0,597.3994,598.4125,598.9126,598.9126,604.931,9999.0,604.9315,0.0,605.9302,1.0,20.0,50.0,15.0,1.0,0.8,0.7,Time
,,S28,1,female,29,anonymized,Serial_Dependence_U,2023.2.3,Win32,60.24096386,,,,,,,,,,,,605.9308,1.0,605.9312,,,,608.8823,609.381,608.3655,608.8821,606.9488,10.0,608.3653,609.381,609.8808,609.8809,615.8828,9999.0,615.8833,0.0,616.8829,1.0,21.0,51.0,3.0,1.0,1.4,0.3,Time
,,S28,1,female,29,anonymized,Serial_Dependence_U,2023.2.3,Win32,60.24096386,,,,,,,,,,,,616.8846,1.0,616.885,,,,619.8255,620.3171,619.3209,619.8248,617.9006,17.0,619.3207,620.3172,620.8169,620.8171,626.8354,9999.0,626.8357,0.0,627.8346,1.0,22.0,52.0,13.0,1.0,1.4,0.3,Time
,,S28,1,female,29,anonymized,Serial_Dependence_U,2023.2.3,Win32,60.24096386,,,,,,,,,,,,627.8356,1.0,627.836,,,,630.186,630.6851,629.6692,630.1857,628.8528,71.0,629.669,630.6852,631.185,631.1852,637.2032,9999.0,637.2034,0.0,638.2028,1.0,23.0,53.0,0.0,1.0,0.8,0.3,Time
,,S28,1,female,29,anonymized,Serial_Dependence_U,2023.2.3,Win32,60.24096386,,,,,,,,,,,,638.2034,1.0,638.2036,,,,640.9538,641.4533,640.4369,640.9537,639.2202,28.0,640.4368,641.4534,641.9537,641.9538,647.9553,9999.0,647.9556,0.0,648.9551,1.0,24.0,54.0,27.0,1.0,1.2,0.7,Time
,,S28,1,female,29,anonymized,Serial_Dependence_U,2023.2.3,Win32,60.24096386,,,,,,,,,,,,648.9561,1.0,648.9563,,,,652.1075,652.6061,651.5898,652.1072,649.9724,275.0,651.5897,652.6062,653.1063,653.1064,659.108,9999.0,659.1082,0.0,660.1075,1.0,25.0,55.0,29.0,1.0,1.6,0.7,Time
,,S28,1,female,29,anonymized,Serial_Dependence_U,2023.2.3,Win32,60.24096386,,,,,,,,,,,,660.1086,1.0,660.1091,,,,663.2582,663.7579,662.7415,663.258,661.1254,93.0,662.7414,663.7579,664.2576,664.2576,670.2592,9999.0,670.2594,0.0,671.2595,1.0,26.0,56.0,14.0,1.0,1.6,0.3,Time
,,S28,1,female,29,anonymized,Serial_Dependence_U,2023.2.3,Win32,60.24096386,,,,,,,,,,,,671.2605,1.0,671.2607,,,,673.9934,674.4929,673.4765,673.9933,672.26,236.0,673.4765,674.493,674.9931,674.9932,680.9948,9999.0,680.9951,0.0,681.9949,1.0,27.0,57.0,2.0,1.0,1.2,0.3,Time
,,S28,1,female,29,anonymized,Serial_Dependence_U,2023.2.3,Win32,60.24096386,,,,,,,,,,,,681.996,1.0,681.9964,,,,684.7288,685.228,684.212,684.7287,682.9952,133.0,684.212,685.228,685.7289,685.729,691.7506,9999.0,691.7507,0.0,692.7463,1.0,28.0,58.0,12.0,1.0,1.2,0.3,Time
,,S28,1,female,29,anonymized,Serial_Dependence_U,2023.2.3,Win32,60.24096386,,,,,,,,,,,,692.7471,1.0,692.7475,,,,695.084,695.58,694.5817,695.0839,693.7689,90.0,694.5815,695.58,696.0807,696.0808,702.0986,9999.0,702.0991,0.0,703.0982,1.0,29.0,59.0,20.0,1.0,0.8,0.3,Time
,,S28,1,female,29,anonymized,Serial_Dependence_U,2023.2.3,Win32,60.24096386,,,,,,,,,,,,703.099,2.0,705.7322,s,2.6008,,708.6835,709.183,708.1673,708.6832,706.7536,253.0,708.167,709.1831,709.6826,709.6827,715.6843,9999.0,715.6846,0.0,716.684,2.0,0.0,60.0,3.0,1.0,1.4,0.3,Time
,,S28,1,female,29,anonymized,Serial_Dependence_U,2023.2.3,Win32,60.24096386,,,,,,,,,,,,716.6845,2.0,716.6871,,,,719.6236,720.1181,719.102,719.6234,717.6885,81.0,719.1018,720.1182,720.6187,720.6188,726.6233,9999.0,726.6236,0.0,727.6195,2.0,1.0,61.0,28.0,1.0,1.4,0.7,Time
,,S28,1,female,29,anonymized,Serial_Dependence_U,2023.2.3,Win32,60.24096386,,,,,,,,,,,,727.6207,2.0,727.6211,,,,730.1547,730.6541,729.6379,730.1544,728.6237,111.0,729.6376,730.6542,731.1538,731.1539,737.1558,9999.0,737.1562,0.0,738.1549,2.0,2.0,62.0,6.0,1.0,1.0,0.7,Time
,,S28,1,female,29,anonymized,Serial_Dependence_U,2023.2.3,Win32,60.24096386,,,,,,,,,,,,738.1558,2.0,738.1563,,,,740.6937,741.189,740.1902,740.6936,739.1732,183.0,740.19,741.1892,741.6888,741.689,747.7076,9999.0,747.7081,0.0,748.7069,2.0,3.0,63.0,1.0,1.0,1.0,0.3,Time
,,S28,1,female,29,anonymized,Serial_Dependence_U,2023.2.3,Win32,60.24096386,,,,,,,,,,,,748.708,2.0,748.7087,,,,751.2586,751.7577,750.7412,751.2583,749.7251,202.0,750.741,751.7578,752.2579,752.2581,758.2763,9999.0,758.2769,0.0,759.2752,2.0,4.0,64.0,21.0,1.0,1.0,0.3,Time
,,S28,1,female,29,anonymized,Serial_Dependence_U,2023.2.3,Win32,60.24096386,,,,,,,,,,,,759.276,2.0,759.2765,,,,762.0106,762.5092,761.4966,762.0103,760.2939,356.0,761.4966,762.5093,763.0093,763.0094,769.0113,9999.0,769.0117,0.0,770.011,2.0,5.0,65.0,2.0,1.0,1.2,0.3,Time
,,S28,1,female,29,anonymized,Serial_Dependence_U,2023.2.3,Win32,60.24096386,,,,,,,,,,,,770.012,2.0,770.0124,,,,772.367,772.8611,771.8458,772.3668,771.0293,355.0,771.8455,772.8611,773.3617,773.3617,779.3799,9999.0,779.3806,0.0,780.379,2.0,6.0,66.0,25.0,1.0,0.8,0.7,Time
,,S28,1,female,29,anonymized,Serial_Dependence_U,2023.2.3,Win32,60.24096386,,,,,,,,,,,,780.3801,2.0,780.3806,,,,783.5299,784.0294,783.0134,783.5298,781.3975,288.0,783.0132,784.0295,784.5298,784.5299,790.5313,9999.0,790.5318,0.0,791.5311,2.0,7.0,67.0,9.0,1.0,1.6,0.7,Time
,,S28,1,female,29,anonymized,Serial_Dependence_U,2023.2.3,Win32,60.24096386,,,,,,,,,,,,791.5318,2.0,791.5323,,,,794.4659,794.965,793.9488,794.4657,792.5323,193.0,793.9486,794.9651,795.4648,795.4648,801.4663,9999.0,801.4668,0.0,802.4662,2.0,8.0,68.0,23.0,1.0,1.4,0.3,Time
,,S28,1,female,29,anonymized,Serial_Dependence_U,2023.2.3,Win32,60.24096386,,,,,,,,,,,,802.4666,2.0,802.4669,,,,804.8177,805.3171,804.3013,804.8175,803.4837,232.0,804.3011,805.3172,805.8169,805.8169,811.8197,9999.0,811.8201,0.0,812.8184,2.0,9.0,69.0,20.0,1.0,0.8,0.3,Time
,,S28,1,female,29,anonymized,Serial_Dependence_U,2023.2.3,Win32,60.24096386,,,,,,,,,,,,812.8195,2.0,812.8201,,,,815.3745,815.8693,814.8559,815.3743,813.8369,48.0,814.8559,815.8693,816.3694,816.3695,822.3877,9999.0,822.3882,0.0,823.387,2.0,10.0,70.0,16.0,1.0,1.0,0.7,Time
,,S28,1,female,29,anonymized,Serial_Dependence_U,2023.2.3,Win32,60.24096386,,,,,,,,,,,,823.3873,2.0,823.3878,,,,826.3382,826.8376,825.8218,826.338,824.4045,143.0,825.8215,826.8376,827.3377,827.3378,833.3397,9999.0,833.3402,0.0,834.3393,2.0,11.0,71.0,8.0,1.0,1.4,0.7,Time
,,S28,1,female,29,anonymized,Serial_Dependence_U,2023.2.3,Win32,60.24096386,,,,,,,,,,,,834.3408,2.0,834.3415,,,,837.491,837.9904,836.9744,837.4909,835.3581,99.0,836.9742,837.9905,838.4902,838.4903,844.5085,9999.0,844.5091,0.0,845.5079,2.0,12.0,72.0,4.0,1.0,1.6,0.3,Time
,,S28,1,female,29,anonymized,Serial_Dependence_U,2023.2.3,Win32,60.24096386,,,,,,,,,,,,845.5096,2.0,845.5101,,,,848.2462,848.7421,847.7267,848.2461,846.5095,185.0,847.7264,848.7421,849.2421,849.2423,855.2637,9999.0,855.2638,0.0,856.2597,2.0,13.0,73.0,7.0,1.0,1.2,0.7,Time
,,S28,1,female,29,anonymized,Serial_Dependence_U,2023.2.3,Win32,60.24096386,,,,,,,,,,,,856.2602,2.0,856.2609,,,,859.0112,859.5107,858.4953,859.011,857.2799,256.0,858.4951,859.5108,860.0104,860.0105,866.012,9999.0,866.0126,0.0,867.0116,2.0,14.0,74.0,27.0,1.0,1.2,0.7,Time
,,S28,1,female,29,anonymized,Serial_Dependence_U,2023.2.3,Win32,60.24096386,,,,,,,,,,,,867.0119,2.0,867.0121,,,,869.5641,870.0628,869.047,869.564,868.029,181.0,869.0467,870.0628,870.5625,870.5625,876.5681,9999.0,876.5683,0.0,877.5639,2.0,15.0,75.0,11.0,1.0,1.0,0.3,Time
,,S28,1,female,29,anonymized,Serial_Dependence_U,2023.2.3,Win32,60.24096386,,,,,,,,,,,,877.5649,2.0,877.5653,,,,880.2825,880.7814,879.7683,880.2821,878.5656,112.0,879.7681,880.7815,881.2811,881.2811,887.2833,9999.0,887.2838,0.0,888.2827,2.0,16.0,76.0,12.0,1.0,1.2,0.3,Time
,,S28,1,female,29,anonymized,Serial_Dependence_U,2023.2.3,Win32,60.24096386,,,,,,,,,,,,888.2836,2.0,888.2841,,,,891.0178,891.5167,890.501,891.0176,889.2883,320.0,890.5007,891.5167,892.017,892.0171,898.0348,9999.0,898.0352,0.0,899.0343,2.0,17.0,77.0,22.0,1.0,1.2,0.3,Time
,,S28,1,female,29,anonymized,Serial_Dependence_U,2023.2.3,Win32,60.24096386,,,,,,,,,,,,899.035,2.0,899.0354,,,,901.9698,902.4686,901.4542,901.9696,900.0524,266.0,901.4541,902.4686,902.9686,902.9687,908.9707,9999.0,908.9711,0.0,909.9699,2.0,18.0,78.0,13.0,1.0,1.4,0.3,Time
,,S28,1,female,29,anonymized,Serial_Dependence_U,2023.2.3,Win32,60.24096386,,,,,,,,,,,,909.971,2.0,909.9713,,,,912.5216,913.0207,912.0049,912.5213,910.9879,11.0,912.0047,913.0208,913.5204,913.5204,919.5225,9999.0,919.5231,0.0,920.5215,2.0,19.0,79.0,26.0,1.0,1.0,0.7,Time
,,S28,1,female,29,anonymized,Serial_Dependence_U,2023.2.3,Win32,60.24096386,,,,,,,,,,,,920.5219,2.0,920.5223,,,,922.8727,923.3721,922.3554,922.8725,921.5396,104.0,922.3553,923.3721,923.8723,923.8723,929.891,9999.0,929.8916,0.0,930.8901,2.0,20.0,80.0,5.0,1.0,0.8,0.7,Time
,,S28,1,female,29,anonymized,Serial_Dependence_U,2023.2.3,Win32,60.24096386,,,,,,,,,,,,930.8908,2.0,930.8911,,,,934.0412,934.5407,933.5242,934.041,931.9074,108.0,933.5241,934.5407,935.041,935.041,941.043,9999.0,941.0437,0.0,942.0426,2.0,21.0,81.0,24.0,1.0,1.6,0.3,Time
,,S28,1,female,29,anonymized,Serial_Dependence_U,2023.2.3,Win32,60.24096386,,,,,,,,,,,,942.0438,2.0,942.0441,,,,944.3947,944.8932,943.8774,944.3946,943.0605,89.0,943.8771,944.8933,945.3934,945.3934,951.3952,9999.0,951.3957,0.0,952.3948,2.0,22.0,82.0,10.0,1.0,0.8,0.3,Time
,,S28,1,female,29,anonymized,Serial_Dependence_U,2023.2.3,Win32,60.24096386,,,,,,,,,,,,952.3961,2.0,952.3966,,,,954.7124,955.2119,954.2004,954.7122,953.3959,324.0,954.2002,955.2119,955.7116,955.7118,961.7303,9999.0,961.7308,0.0,962.7298,2.0,23.0,83.0,15.0,1.0,0.8,0.7,Time
,,S28,1,female,29,anonymized,Serial_Dependence_U,2023.2.3,Win32,60.24096386,,,,,,,,,,,,962.7309,2.0,962.7313,,,,965.8818,966.3804,965.3647,965.8815,963.7479,189.0,965.3645,966.3804,966.8804,966.8805,972.9019,9999.0,972.902,0.0,973.8981,2.0,24.0,84.0,14.0,1.0,1.6,0.3,Time
,,S28,1,female,29,anonymized,Serial_Dependence_U,2023.2.3,Win32,60.24096386,,,,,,,,,,,,973.899,2.0,973.8996,,,,976.8511,977.349,976.3327,976.8506,974.9154,342.0,976.3325,977.349,977.8491,977.8493,983.8703,9999.0,983.8706,0.0,984.8673,2.0,25.0,85.0,18.0,1.0,1.4,0.7,Time
,,S28,1,female,29,anonymized,Serial_Dependence_U,2023.2.3,Win32,60.24096386,,,,,,,,,,,,984.8686,2.0,984.8691,,,,988.0188,988.5178,987.502,988.0186,985.8852,298.0,987.5017,988.5179,989.0179,989.018,995.0199,9999.0,995.0205,0.0,996.019,2.0,26.0,86.0,19.0,1.0,1.6,0.7,Time
,,S28,1,female,29,anonymized,Serial_Dependence_U,2023.2.3,Win32,60.24096386,,,,,,,,,,,,996.0199,2.0,996.0205,,,,998.3542,998.8528,997.8375,998.354,997.024,211.0,997.8373,998.8528,999.3528,999.3529,1005.3711,9999.0,1005.3715,0.0,1006.371,2.0,27.0,87.0,0.0,1.0,0.8,0.3,Time
,,S28,1,female,29,anonymized,Serial_Dependence_U,2023.2.3,Win32,60.24096386,,,,,,,,,,,,1006.372,2.0,1006.3723,,,,1009.5054,1010.0047,1008.9886,1009.5053,1007.3718,195.0,1008.9883,1010.0048,1010.5051,1010.5051,1016.5074,9999.0,1016.5077,0.0,1017.5066,2.0,28.0,88.0,29.0,1.0,1.6,0.7,Time
,,S28,1,female,29,anonymized,Serial_Dependence_U,2023.2.3,Win32,60.24096386,,,,,,,,,,,,1017.5077,2.0,1017.5081,,,,1020.2416,1020.7402,1019.7249,1020.2414,1018.5081,226.0,1019.7245,1020.7402,1021.2404,1021.2405,1027.2421,9999.0,1027.2425,0.0,1028.2415,2.0,29.0,89.0,17.0,1.0,1.2,0.7,Time
,,S28,1,female,29,anonymized,Serial_Dependence_U,2023.2.3,Win32,60.24096386,,,,,,,,,,,,1028.2421,3.0,1033.4115,s,5.1484,,1036.1437,1036.643,1035.6279,1036.1434,1034.4149,111.0,1035.6278,1036.643,1037.143,1037.143,1043.1448,9999.0,1043.1455,0.0,1044.1444,3.0,0.0,90.0,12.0,1.0,1.2,0.3,Time
,,S28,1,female,29,anonymized,Serial_Dependence_U,2023.2.3,Win32,60.24096386,,,,,,,,,,,,1044.1448,3.0,1044.147,,,,1046.68,1047.1784,1046.1618,1046.6799,1045.1518,19.0,1046.1616,1047.1784,1047.6787,1047.6788,1053.6975,9999.0,1053.6981,0.0,1054.6966,3.0,1.0,91.0,16.0,1.0,1.0,0.7,Time
,,S28,1,female,29,anonymized,Serial_Dependence_U,2023.2.3,Win32,60.24096386,,,,,,,,,,,,1054.6973,3.0,1054.6978,,,,1057.6485,1058.1473,1057.131,1057.6481,1055.7147,352.0,1057.1307,1058.1474,1058.6472,1058.6472,1064.654,9999.0,1064.6544,0.0,1065.6487,3.0,2.0,92.0,28.0,1.0,1.4,0.7,Time
,,S28,1,female,29,anonymized,Serial_Dependence_U,2023.2.3,Win32,60.24096386,,,,,,,,,,,,1065.6503,3.0,1065.6507,,,,1068.1864,1068.6825,1067.6706,1068.1863,1066.6701,148.0,1067.6705,1068.6826,1069.1828,1069.183,1075.1898,9999.0,1075.1901,0.0,1076.1838,3.0,3.0,93.0,21.0,1.0,1.0,0.3,Time
,,S28,1,female,29,anonymized,Serial_Dependence_U,2023.2.3,Win32,60.24096386,,,,,,,,,,,,1076.1849,3.0,1076.1855,,,,1078.7194,1079.2176,1078.2065,1078.7192,1077.1893,8.0,1078.2064,1079.2176,1079.7177,1079.7181,1085.7251,9999.0,1085.7254,0.0,1086.7195,3.0,4.0,94.0,26.0,1.0,1.0,0.7,Time
,,S28,1,female,29,anonymized,Serial_Dependence_U,2023.2.3,Win32,60.24096386,,,,,,,,,,,,1086.721,3.0,1086.7215,,,,1089.2715,1089.7699,1088.7587,1089.2714,1087.7415,180.0,1088.7585,1089.77,1090.2699,1090.27,1096.275,9999.0,1096.2752,0.0,1097.2712,3.0,5.0,95.0,6.0,1.0,1.0,0.7,Time
,,S28,1,female,29,anonymized,Serial_Dependence_U,2023.2.3,Win32,60.24096386,,,,,,,,,,,,1097.2733,3.0,1097.2739,,,,1099.9904,1100.4888,1099.4791,1099.9901,1098.2773,73.0,1099.479,1100.4889,1100.9883,1100.9883,1106.9942,9999.0,1106.9943,0.0,1107.99,3.0,6.0,96.0,7.0,1.0,1.2,0.7,Time
,,S28,1,female,29,anonymized,Serial_Dependence_U,2023.2.3,Win32,60.24096386,,,,,,,,,,,,1107.9917,3.0,1107.9922,,,,1111.1461,1111.6405,1110.6294,1111.1459,1109.0121,330.0,1110.6291,1111.6407,1112.1405,1112.1406,1118.1458,9999.0,1118.146,0.0,1119.1416,3.0,7.0,97.0,14.0,1.0,1.6,0.3,Time
,,S28,1,female,29,anonymized,Serial_Dependence_U,2023.2.3,Win32,60.24096386,,,,,,,,,,,,1119.1425,3.0,1119.1432,,,,1122.0813,1122.576,1121.5775,1122.0811,1120.1633,129.0,1121.5773,1122.5761,1123.076,1123.0762,1129.0848,9999.0,1129.0851,0.0,1130.0777,3.0,8.0,98.0,18.0,1.0,1.4,0.7,Time
,,S28,1,female,29,anonymized,Serial_Dependence_U,2023.2.3,Win32,60.24096386,,,,,,,,,,,,1130.0792,3.0,1130.0799,,,,1133.2296,1133.7278,1132.7189,1133.2293,1131.0962,137.0,1132.7188,1133.7282,1134.2283,1134.2284,1140.2352,9999.0,1140.2354,0.0,1141.2293,3.0,9.0,99.0,19.0,1.0,1.6,0.7,Time
,,S28,1,female,29,anonymized,Serial_Dependence_U,2023.2.3,Win32,60.24096386,,,,,,,,,,,,1141.2309,3.0,1141.2319,,,,1143.9685,1144.4638,1143.4645,1143.9684,1142.2519,52.0,1143.4643,1144.4638,1144.9668,1144.9669,1150.982,9999.0,1150.9823,0.0,1151.9817,3.0,10.0,100.0,27.0,1.0,1.2,0.7,Time
,,S28,1,female,29,anonymized,Serial_Dependence_U,2023.2.3,Win32,60.24096386,,,,,,,,,,,,1151.9831,3.0,1151.9838,,,,1154.9323,1155.4322,1154.4159,1154.9322,1152.999,224.0,1154.4158,1155.4322,1155.9317,1155.9317,1161.933,9999.0,1161.9331,0.0,1162.9333,3.0,11.0,101.0,3.0,1.0,1.4,0.3,Time
,,S28,1,female,29,anonymized,Serial_Dependence_U,2023.2.3,Win32,60.24096386,,,,,,,,,,,,1162.9339,3.0,1162.9341,,,,1165.4675,1165.9667,1164.9668,1165.4674,1163.9502,169.0,1164.9667,1165.9668,1166.4675,1166.4677,1172.469,9999.0,1172.4695,0.0,1173.4689,3.0,12.0,102.0,11.0,1.0,1.0,0.3,Time
,,S28,1,female,29,anonymized,Serial_Dependence_U,2023.2.3,Win32,60.24096386,,,,,,,,,,,,1173.4701,3.0,1173.4706,,,,1175.8136,1176.3027,1175.3035,1175.8133,1174.4868,36.0,1175.3033,1176.3028,1176.803,1176.8031,1182.805,9999.0,1182.8054,0.0,1183.804,3.0,13.0,103.0,25.0,1.0,0.8,0.7,Time
,,S28,1,female,29,anonymized,Serial_Dependence_U,2023.2.3,Win32,60.24096386,,,,,,,,,,,,1183.8053,3.0,1183.8057,,,,1186.1557,1186.6539,1185.639,1186.1555,1184.8221,126.0,1185.6388,1186.6539,1187.1544,1187.1546,1193.1733,9999.0,1193.1738,0.0,1194.172,3.0,14.0,104.0,0.0,1.0,0.8,0.3,Time
,,S28,1,female,29,anonymized,Serial_Dependence_U,2023.2.3,Win32,60.24096386,,,,,,,,,,,,1194.1722,3.0,1194.1725,,,,1197.3069,1197.8061,1196.795,1197.3066,1195.1743,132.0,1196.7948,1197.8062,1198.3062,1198.3063,1204.3084,9999.0,1204.3089,0.0,1205.3078,3.0,15.0,105.0,29.0,1.0,1.6,0.7,Time
,,S28,1,female,29,anonymized,Serial_Dependence_U,2023.2.3,Win32,60.24096386,,,,,,,,,,,,1205.3092,3.0,1205.3099,,,,1207.643,1208.1418,1207.1289,1207.6428,1206.3259,213.0,1207.1287,1208.142,1208.642,1208.6421,1214.6592,9999.0,1214.6596,0.0,1215.6594,3.0,16.0,106.0,10.0,1.0,0.8,0.3,Time
,,S28,1,female,29,anonymized,Serial_Dependence_U,2023.2.3,Win32,60.24096386,,,,,,,,,,,,1215.6599,3.0,1215.6601,,,,1218.5979,1219.0936,1218.0776,1218.5978,1216.664,332.0,1218.0774,1219.0936,1219.5935,1219.5935,1225.5984,9999.0,1225.5986,0.0,1226.5983,3.0,17.0,107.0,13.0,1.0,1.4,0.3,Time
,,S28,1,female,29,anonymized,Serial_Dependence_U,2023.2.3,Win32,60.24096386,,,,,,,,,,,,1226.5986,3.0,1226.5986,,,,1229.3464,1229.8456,1228.8294,1229.3462,1227.6119,185.0,1228.8292,1229.8458,1230.3458,1230.346,1236.3481,9999.0,1236.3485,0.0,1237.3468,3.0,18.0,108.0,22.0,1.0,1.2,0.3,Time
,,S28,1,female,29,anonymized,Serial_Dependence_U,2023.2.3,Win32,60.24096386,,,,,,,,,,,,1237.3472,3.0,1237.3478,,,,1240.0991,1240.5971,1239.5822,1240.0989,1238.3645,90.0,1239.582,1240.5972,1241.0977,1241.0982,1247.1164,9999.0,1247.1169,0.0,1248.1159,3.0,19.0,109.0,2.0,1.0,1.2,0.3,Time
,,S28,1,female,29,anonymized,Serial_Dependence_U,2023.2.3,Win32,60.24096386,,,,,,,,,,,,1248.117,3.0,1248.1174,,,,1251.251,1251.7498,1250.7336,1251.2508,1249.1171,179.0,1250.7334,1251.7498,1252.2501,1252.2502,1258.2685,9999.0,1258.2692,0.0,1259.2676,3.0,20.0,110.0,4.0,1.0,1.6,0.3,Time
,,S28,1,female,29,anonymized,Serial_Dependence_U,2023.2.3,Win32,60.24096386,,,,,,,,,,,,1259.2696,3.0,1259.27,,,,1262.0016,1262.5012,1261.4862,1262.0014,1260.2694,223.0,1261.4859,1262.5012,1263.0016,1263.0016,1269.0038,9999.0,1269.0043,0.0,1270.0032,3.0,21.0,111.0,17.0,1.0,1.2,0.7,Time
,,S28,1,female,29,anonymized,Serial_Dependence_U,2023.2.3,Win32,60.24096386,,,,,,,,,,,,1270.0042,3.0,1270.0047,,,,1272.9548,1273.4538,1272.4382,1272.9545,1271.0216,327.0,1272.4381,1273.4538,1273.9544,1273.9545,1279.9716,9999.0,1279.9721,0.0,1280.9715,3.0,22.0,112.0,23.0,1.0,1.4,0.3,Time
,,S28,1,female,29,anonymized,Serial_Dependence_U,2023.2.3,Win32,60.24096386,,,,,,,,,,,,1280.9717,3.0,1280.9719,,,,1284.1236,1284.6225,1283.6066,1284.1234,1281.9894,61.0,1283.6063,1284.6226,1285.1227,1285.1227,1291.1403,9999.0,1291.1405,0.0,1292.1402,3.0,23.0,113.0,24.0,1.0,1.6,0.3,Time
,,S28,1,female,29,anonymized,Serial_Dependence_U,2023.2.3,Win32,60.24096386,,,,,,,,,,,,1292.1406,3.0,1292.141,,,,1295.0919,1295.5913,1294.5757,1295.0916,1293.1607,120.0,1294.5755,1295.5914,1296.091,1296.091,1302.0922,9999.0,1302.0928,0.0,1303.0923,3.0,24.0,114.0,8.0,1.0,1.4,0.7,Time
,,S28,1,female,29,anonymized,Serial_Dependence_U,2023.2.3,Win32,60.24096386,,,,,,,,,,,,1303.0928,3.0,1303.0931,,,,1306.2481,1306.7434,1305.7319,1306.2479,1304.1101,43.0,1305.7318,1306.7435,1307.2434,1307.2435,1313.2616,9999.0,1313.262,0.0,1314.2609,3.0,25.0,115.0,9.0,1.0,1.6,0.7,Time
,,S28,1,female,29,anonymized,Serial_Dependence_U,2023.2.3,Win32,60.24096386,,,,,,,,,,,,1314.2612,3.0,1314.2614,,,,1316.6009,1317.0953,1316.0966,1316.6006,1315.2797,289.0,1316.0965,1317.0954,1317.5952,1317.5953,1323.6013,9999.0,1323.6015,0.0,1324.5968,3.0,26.0,116.0,5.0,1.0,0.8,0.7,Time
,,S28,1,female,29,anonymized,Serial_Dependence_U,2023.2.3,Win32,60.24096386,,,,,,,,,,,,1324.5985,3.0,1324.5991,,,,1327.12,1327.6137,1326.603,1327.1199,1325.6018,288.0,1326.6029,1327.6139,1328.1135,1328.1136,1334.132,9999.0,1334.1323,0.0,1335.1315,3.0,27.0,117.0,1.0,1.0,1.0,0.3,Time
,,S28,1,female,29,anonymized,Serial_Dependence_U,2023.2.3,Win32,60.24096386,,,,,,,,,,,,1335.1318,3.0,1335.1319,,,,1337.4834,1337.9823,1336.9667,1337.4832,1336.1497,47.0,1336.9664,1337.9825,1338.4821,1338.4821,1344.4836,9999.0,1344.4841,0.0,1345.4834,3.0,28.0,118.0,15.0,1.0,0.8,0.7,Time
,,S28,1,female,29,anonymized,Serial_Dependence_U,2023.2.3,Win32,60.24096386,,,,,,,,,,,,1345.4839,3.0,1345.4844,,,,1347.818,1348.3173,1347.3006,1347.8178,1346.4843,207.0,1347.3006,1348.3173,1348.8176,1348.8178,1354.825,9999.0,1354.8254,0.0,1355.819,3.0,29.0,119.0,20.0,1.0,0.8,0.3,Time
,,S28,1,female,29,anonymized,Serial_Dependence_U,2023.2.3,Win32,60.24096386,,,,,,,,,,,,1355.8202,4.0,1357.6529,s,1.8094,,1360.4039,1360.9033,1359.8878,1360.4038,1358.6699,156.0,1359.8874,1360.9034,1361.4036,1361.4037,1367.4221,9999.0,1367.4226,0.0,1368.4213,4.0,0.0,120.0,22.0,1.0,1.2,0.3,Time
,,S28,1,female,29,anonymized,Serial_Dependence_U,2023.2.3,Win32,60.24096386,,,,,,,,,,,,1368.4225,4.0,1368.425,,,,1371.3729,1371.8719,1370.8563,1371.3727,1369.4407,284.0,1370.856,1371.8719,1372.3721,1372.3722,1378.3738,9999.0,1378.3741,0.0,1379.3737,4.0,1.0,121.0,3.0,1.0,1.4,0.3,Time
,,S28,1,female,29,anonymized,Serial_Dependence_U,2023.2.3,Win32,60.24096386,,,,,,,,,,,,1379.375,4.0,1379.3756,,,,1381.9249,1382.4239,1381.4079,1381.9246,1380.3918,144.0,1381.4078,1382.424,1382.924,1382.924,1388.9256,9999.0,1388.9259,0.0,1389.9251,4.0,2.0,122.0,16.0,1.0,1.0,0.7,Time
,,S28,1,female,29,anonymized,Serial_Dependence_U,2023.2.3,Win32,60.24096386,,,,,,,,,,,,1389.9256,4.0,1389.9258,,,,1392.2761,1392.7753,1391.759,1392.276,1390.9431,163.0,1391.7589,1392.7753,1393.2755,1393.2756,1399.278,9999.0,1399.2783,0.0,1400.277,4.0,3.0,123.0,20.0,1.0,0.8,0.3,Time
,,S28,1,female,29,anonymized,Serial_Dependence_U,2023.2.3,Win32,60.24096386,,,,,,,,,,,,1400.2776,4.0,1400.2778,,,,1403.2116,1403.711,1402.6946,1403.2115,1401.2781,15.0,1402.6945,1403.711,1404.2113,1404.2113,1410.229,9999.0,1410.2292,0.0,1411.229,4.0,4.0,124.0,18.0,1.0,1.4,0.7,Time
,,S28,1,female,29,anonymized,Serial_Dependence_U,2023.2.3,Win32,60.24096386,,,,,,,,,,,,1411.2295,4.0,1411.2298,,,,1414.3801,1414.8796,1413.863,1414.38,1412.247,12.0,1413.8629,1414.8796,1415.3796,1415.3797,1421.3816,9999.0,1421.3817,0.0,1422.3811,4.0,5.0,125.0,19.0,1.0,1.6,0.7,Time
,,S28,1,female,29,anonymized,Serial_Dependence_U,2023.2.3,Win32,60.24096386,,,,,,,,,,,,1422.3816,4.0,1422.3819,,,,1425.3322,1425.8321,1424.8153,1425.3321,1423.3992,296.0,1424.8153,1425.8322,1426.3317,1426.3318,1432.3338,9999.0,1432.3341,0.0,1433.3334,4.0,6.0,126.0,13.0,1.0,1.4,0.3,Time
,,S28,1,female,29,anonymized,Serial_Dependence_U,2023.2.3,Win32,60.24096386,,,,,,,,,,,,1433.3342,4.0,1433.3347,,,,1435.6674,1436.1669,1435.1509,1435.6673,1434.3502,67.0,1435.1508,1436.167,1436.6671,1436.6672,1442.6696,9999.0,1442.6699,0.0,1443.6688,4.0,7.0,127.0,0.0,1.0,0.8,0.3,Time
,,S28,1,female,29,anonymized,Serial_Dependence_U,2023.2.3,Win32,60.24096386,,,,,,,,,,,,1443.6697,4.0,1443.6701,,,,1446.4028,1446.9025,1445.8858,1446.4027,1444.6696,219.0,1445.8857,1446.9025,1447.4025,1447.4026,1453.4045,9999.0,1453.4048,0.0,1454.4037,4.0,8.0,128.0,17.0,1.0,1.2,0.7,Time
,,S28,1,female,29,anonymized,Serial_Dependence_U,2023.2.3,Win32,60.24096386,,,,,,,,,,,,1454.4042,4.0,1454.4045,,,,1456.9387,1457.4377,1456.4377,1456.9386,1455.4217,306.0,1456.4376,1457.4378,1457.938,1457.9382,1463.9559,9999.0,1463.9561,0.0,1464.956,4.0,9.0,129.0,26.0,1.0,1.0,0.7,Time
,,S28,1,female,29,anonymized,Serial_Dependence_U,2023.2.3,Win32,60.24096386,,,,,,,,,,,,1464.9568,4.0,1464.9572,,,,1467.6906,1468.1896,1467.1742,1467.6904,1465.973,153.0,1467.174,1468.1896,1468.6899,1468.6899,1474.6918,9999.0,1474.692,0.0,1475.6913,4.0,10.0,130.0,12.0,1.0,1.2,0.3,Time
,,S28,1,female,29,anonymized,Serial_Dependence_U,2023.2.3,Win32,60.24096386,,,,,,,,,,,,1475.6921,4.0,1475.6924,,,,1478.0434,1478.5415,1477.5252,1478.0431,1476.7092,298.0,1477.5251,1478.5415,1479.0416,1479.0417,1485.0433,9999.0,1485.0435,0.0,1486.0426,4.0,11.0,131.0,25.0,1.0,0.8,0.7,Time
,,S28,1,female,29,anonymized,Serial_Dependence_U,2023.2.3,Win32,60.24096386,,,,,,,,,,,,1486.0429,4.0,1486.0431,,,,1488.3936,1488.8934,1487.8774,1488.3935,1487.0603,26.0,1487.8772,1488.8934,1489.3936,1489.3936,1495.3952,9999.0,1495.3955,0.0,1496.3947,4.0,12.0,132.0,5.0,1.0,0.8,0.7,Time
,,S28,1,female,29,anonymized,Serial_Dependence_U,2023.2.3,Win32,60.24096386,,,,,,,,,,,,1496.3954,4.0,1496.3957,,,,1499.3463,1499.8454,1498.8297,1499.346,1497.4134,64.0,1498.8294,1499.8454,1500.3456,1500.3457,1506.3481,9999.0,1506.3485,0.0,1507.3472,4.0,13.0,133.0,8.0,1.0,1.4,0.7,Time
,,S28,1,female,29,anonymized,Serial_Dependence_U,2023.2.3,Win32,60.24096386,,,,,,,,,,,,1507.3486,4.0,1507.3492,,,,1510.4852,1510.9809,1509.9656,1510.4851,1508.3536,128.0,1509.9654,1510.9809,1511.4809,1511.481,1517.483,9999.0,1517.4835,0.0,1518.4825,4.0,14.0,134.0,4.0,1.0,1.6,0.3,Time
,,S28,1,female,29,anonymized,Serial_Dependence_U,2023.2.3,Win32,60.24096386,,,,,,,,,,,,1518.4836,4.0,1518.4838,,,,1521.6171,1522.1162,1521.0999,1521.6168,1519.4835,101.0,1521.0997,1522.1162,1522.6162,1522.6163,1528.6181,9999.0,1528.6185,0.0,1529.6175,4.0,15.0,135.0,14.0,1.0,1.6,0.3,Time
,,S28,1,female,29,anonymized,Serial_Dependence_U,2023.2.3,Win32,60.24096386,,,,,,,,,,,,1529.6183,4.0,1529.6189,,,,1532.3692,1532.8683,1531.8516,1532.369,1530.6354,223.0,1531.8513,1532.8685,1533.3684,1533.3685,1539.3759,9999.0,1539.3765,0.0,1540.3697,4.0,16.0,136.0,27.0,1.0,1.2,0.7,Time
,,S28,1,female,29,anonymized,Serial_Dependence_U,2023.2.3,Win32,60.24096386,,,,,,,,,,,,1540.3709,4.0,1540.3714,,,,1542.7045,1543.2038,1542.1881,1542.7043,1541.3708,354.0,1542.1879,1543.2039,1543.7036,1543.7037,1549.7056,9999.0,1549.7063,0.0,1550.7046,4.0,17.0,137.0,15.0,1.0,0.8,0.7,Time
,,S28,1,female,29,anonymized,Serial_Dependence_U,2023.2.3,Win32,60.24096386,,,,,,,,,,,,1550.7056,4.0,1550.7063,,,,1553.6392,1554.1386,1553.1227,1553.6391,1551.711,192.0,1553.1224,1554.1386,1554.6386,1554.6387,1560.6409,9999.0,1560.6414,0.0,1561.6403,4.0,18.0,138.0,23.0,1.0,1.4,0.3,Time
,,S28,1,female,29,anonymized,Serial_Dependence_U,2023.2.3,Win32,60.24096386,,,,,,,,,,,,1561.6413,4.0,1561.6417,,,,1563.9921,1564.4911,1563.4755,1563.9918,1562.6584,100.0,1563.4752,1564.4913,1564.9912,1564.9913,1571.0127,9999.0,1571.0129,0.0,1572.0088,4.0,19.0,139.0,10.0,1.0,0.8,0.3,Time
,,S28,1,female,29,anonymized,Serial_Dependence_U,2023.2.3,Win32,60.24096386,,,,,,,,,,,,1572.0101,4.0,1572.0106,,,,1575.1603,1575.6598,1574.6438,1575.16,1573.0269,256.0,1574.6435,1575.6599,1576.1592,1576.1593,1582.1612,9999.0,1582.1617,0.0,1583.1608,4.0,20.0,140.0,24.0,1.0,1.6,0.3,Time
,,S28,1,female,29,anonymized,Serial_Dependence_U,2023.2.3,Win32,60.24096386,,,,,,,,,,,,1583.1611,4.0,1583.1619,,,,1586.096,1586.595,1585.5793,1586.0958,1584.1776,334.0,1585.5791,1586.5951,1587.0953,1587.0955,1593.1139,9999.0,1593.1144,0.0,1594.1134,4.0,21.0,141.0,28.0,1.0,1.4,0.7,Time
,,S28,1,female,29,anonymized,Serial_Dependence_U,2023.2.3,Win32,60.24096386,,,,,,,,,,,,1594.1148,4.0,1594.1152,,,,1596.8644,1597.3632,1596.347,1596.8642,1595.1311,120.0,1596.3468,1597.3633,1597.8635,1597.8635,1603.8655,9999.0,1603.8661,0.0,1604.8647,4.0,22.0,142.0,2.0,1.0,1.2,0.3,Time
,,S28,1,female,29,anonymized,Serial_Dependence_U,2023.2.3,Win32,60.24096386,,,,,,,,,,,,1604.8649,4.0,1604.8652,,,,1607.399,1607.8989,1606.8822,1607.3987,1605.8655,216.0,1606.882,1607.899,1608.3985,1608.3985,1614.4004,9999.0,1614.4009,0.0,1615.4,4.0,23.0,143.0,21.0,1.0,1.0,0.3,Time
,,S28,1,female,29,anonymized,Serial_Dependence_U,2023.2.3,Win32,60.24096386,,,,,,,,,,,,1615.4004,4.0,1615.401,,,,1618.5366,1619.0341,1618.0354,1618.5366,1616.4181,44.0,1618.0353,1619.0341,1619.5342,1619.5342,1625.5365,9999.0,1625.5368,0.0,1626.5355,4.0,24.0,144.0,29.0,1.0,1.6,0.7,Time
,,S28,1,female,29,anonymized,Serial_Dependence_U,2023.2.3,Win32,60.24096386,,,,,,,,,,,,1626.5361,4.0,1626.5366,,,,1629.6714,1630.17,1629.1588,1629.6712,1627.5542,93.0,1629.1586,1630.1703,1630.6698,1630.6699,1636.6756,9999.0,1636.6759,0.0,1637.6716,4.0,25.0,145.0,9.0,1.0,1.6,0.7,Time
,,S28,1,female,29,anonymized,Serial_Dependence_U,2023.2.3,Win32,60.24096386,,,,,,,,,,,,1637.6733,4.0,1637.6737,,,,1640.2229,1640.7217,1639.7061,1640.2228,1638.6917,57.0,1639.7058,1640.7217,1641.2217,1641.2218,1647.2238,9999.0,1647.2243,0.0,1648.2233,4.0,26.0,146.0,11.0,1.0,1.0,0.3,Time
,,S28,1,female,29,anonymized,Serial_Dependence_U,2023.2.3,Win32,60.24096386,,,,,,,,,,,,1648.2243,4.0,1648.2246,,,,1650.9582,1651.4569,1650.4411,1650.9579,1649.2245,119.0,1650.4408,1651.457,1651.9571,1651.9572,1657.975,9999.0,1657.9757,0.0,1658.9751,4.0,27.0,147.0,7.0,1.0,1.2,0.7,Time
,,S28,1,female,29,anonymized,Serial_Dependence_U,2023.2.3,Win32,60.24096386,,,,,,,,,,,,1658.9765,4.0,1658.9771,,,,1661.5267,1662.0258,1661.0103,1661.5264,1659.993,235.0,1661.0101,1662.0259,1662.5259,1662.526,1668.5279,9999.0,1668.5285,0.0,1669.5273,4.0,28.0,148.0,1.0,1.0,1.0,0.3,Time
,,S28,1,female,29,anonymized,Serial_Dependence_U,2023.2.3,Win32,60.24096386,,,,,,,,,,,,1669.5283,4.0,1669.5286,,,,1672.0825,1672.5774,1671.5626,1672.0823,1670.5449,23.0,1671.5624,1672.5775,1673.0778,1673.0779,1679.0959,9999.0,1679.0962,0.0,1680.0956,4.0,29.0,149.0,6.0,1.0,1.0,0.7,Time
,,S28,1,female,29,anonymized,Serial_Dependence_U,2023.2.3,Win32,60.24096386,,,,,,,,,,,,1680.0967,5.0,1681.7964,s,1.6689,,1684.331,1684.8297,1683.818,1684.3307,1682.814,90.0,1683.8178,1684.8298,1685.3296,1685.3296,1691.3322,9999.0,1691.3327,0.0,1692.3315,5.0,0.0,150.0,11.0,1.0,1.0,0.3,Time
,,S28,1,female,29,anonymized,Serial_Dependence_U,2023.2.3,Win32,60.24096386,,,,,,,,,,,,1692.3326,5.0,1692.3359,,,,1695.4831,1695.9821,1694.97,1695.4828,1693.3497,103.0,1694.9699,1695.9822,1696.4819,1696.482,1702.4841,9999.0,1702.4846,0.0,1703.4834,5.0,1.0,151.0,19.0,1.0,1.6,0.7,Time
,,S28,1,female,29,anonymized,Serial_Dependence_U,2023.2.3,Win32,60.24096386,,,,,,,,,,,,1703.4845,5.0,1703.4849,,,,1705.8346,1706.3337,1705.3178,1705.8344,1704.502,8.0,1705.3175,1706.3338,1706.8338,1706.8339,1712.8512,9999.0,1712.8515,0.0,1713.8513,5.0,2.0,152.0,20.0,1.0,0.8,0.3,Time
,,S28,1,female,29,anonymized,Serial_Dependence_U,2023.2.3,Win32,60.24096386,,,,,,,,,,,,1713.8517,5.0,1713.8521,,,,1716.9868,1717.4856,1716.47,1716.9865,1714.8529,348.0,1716.4699,1717.4857,1717.9854,1717.9854,1723.9874,9999.0,1723.9878,0.0,1724.9869,5.0,3.0,153.0,24.0,1.0,1.6,0.3,Time
,,S28,1,female,29,anonymized,Serial_Dependence_U,2023.2.3,Win32,60.24096386,,,,,,,,,,,,1724.9877,5.0,1724.9881,,,,1727.3076,1727.8041,1726.8042,1727.3076,1725.9885,35.0,1726.8039,1727.8041,1728.3042,1728.3043,1734.3063,9999.0,1734.3068,0.0,1735.306,5.0,4.0,154.0,5.0,1.0,0.8,0.7,Time
,,S28,1,female,29,anonymized,Serial_Dependence_U,2023.2.3,Win32,60.24096386,,,,,,,,,,,,1735.307,5.0,1735.3074,,,,1737.6572,1738.1565,1737.1408,1737.6569,1736.324,241.0,1737.1406,1738.1567,1738.6564,1738.6565,1744.6626,9999.0,1744.6629,0.0,1745.6585,5.0,5.0,155.0,10.0,1.0,0.8,0.3,Time
,,S28,1,female,29,anonymized,Serial_Dependence_U,2023.2.3,Win32,60.24096386,,,,,,,,,,,,1745.6601,5.0,1745.6607,,,,1748.8095,1749.3087,1748.2927,1748.8092,1746.6758,76.0,1748.2924,1749.3087,1749.8089,1749.8089,1755.8276,9999.0,1755.8279,0.0,1756.8262,5.0,6.0,156.0,29.0,1.0,1.6,0.7,Time
,,S28,1,female,29,anonymized,Serial_Dependence_U,2023.2.3,Win32,60.24096386,,,,,,,,,,,,1756.8265,5.0,1756.8271,,,,1759.1786,1759.6771,1758.6617,1759.1783,1757.8476,182.0,1758.6614,1759.6772,1760.1773,1760.1774,1766.1958,9999.0,1766.1962,0.0,1767.195,5.0,7.0,157.0,15.0,1.0,0.8,0.7,Time
,,S28,1,female,29,anonymized,Serial_Dependence_U,2023.2.3,Win32,60.24096386,,,,,,,,,,,,1767.1962,5.0,1767.1965,,,,1769.5305,1770.0288,1769.0131,1769.5304,1768.2004,90.0,1769.0128,1770.0289,1770.5291,1770.5292,1776.5478,9999.0,1776.5483,0.0,1777.5469,5.0,8.0,158.0,0.0,1.0,0.8,0.3,Time
,,S28,1,female,29,anonymized,Serial_Dependence_U,2023.2.3,Win32,60.24096386,,,,,,,,,,,,1777.5478,5.0,1777.5483,,,,1780.2819,1780.7806,1779.7652,1780.2816,1778.5483,256.0,1779.7649,1780.7806,1781.2811,1781.2812,1787.283,9999.0,1787.2835,0.0,1788.2823,5.0,9.0,159.0,2.0,1.0,1.2,0.3,Time
,,S28,1,female,29,anonymized,Serial_Dependence_U,2023.2.3,Win32,60.24096386,,,,,,,,,,,,1788.2833,5.0,1788.2838,,,,1791.0332,1791.5326,1790.5166,1791.033,1789.299,19.0,1790.5164,1791.5326,1792.0333,1792.0334,1798.0511,9999.0,1798.0515,0.0,1799.0506,5.0,10.0,160.0,12.0,1.0,1.2,0.3,Time
,,S28,1,female,29,anonymized,Serial_Dependence_U,2023.2.3,Win32,60.24096386,,,,,,,,,,,,1799.0513,5.0,1799.0519,,,,1802.0029,1802.5015,1801.486,1802.0027,1800.0679,327.0,1801.4857,1802.5016,1803.0018,1803.002,1809.023,9999.0,1809.0237,0.0,1810.0196,5.0,11.0,161.0,18.0,1.0,1.4,0.7,Time
,,S28,1,female,29,anonymized,Serial_Dependence_U,2023.2.3,Win32,60.24096386,,,,,,,,,,,,1810.0207,5.0,1810.0212,,,,1812.3706,1812.8698,1811.8532,1812.3704,1811.0377,127.0,1811.8532,1812.8698,1813.3699,1813.3699,1819.3723,9999.0,1819.3727,0.0,1820.3712,5.0,12.0,162.0,25.0,1.0,0.8,0.7,Time
,,S28,1,female,29,anonymized,Serial_Dependence_U,2023.2.3,Win32,60.24096386,,,,,,,,,,,,1820.3716,5.0,1820.3719,,,,1823.3061,1823.8053,1822.794,1823.3058,1821.39,358.0,1822.7938,1823.8053,1824.3055,1824.3055,1830.3065,9999.0,1830.3067,0.0,1831.3066,5.0,13.0,163.0,23.0,1.0,1.4,0.3,Time
,,S28,1,female,29,anonymized,Serial_Dependence_U,2023.2.3,Win32,60.24096386,,,,,,,,,,,,1831.3071,5.0,1831.3077,,,,1834.2586,1834.7576,1833.7406,1834.2582,1832.3241,118.0,1833.7405,1834.7577,1835.2578,1835.2579,1841.2601,9999.0,1841.2604,0.0,1842.2593,5.0,14.0,164.0,3.0,1.0,1.4,0.3,Time
,,S28,1,female,29,anonymized,Serial_Dependence_U,2023.2.3,Win32,60.24096386,,,,,,,,,,,,1842.2608,5.0,1842.2615,,,,1845.0106,1845.5093,1844.4936,1845.0103,1843.2773,202.0,1844.4933,1845.5093,1846.0096,1846.0096,1852.0116,9999.0,1852.0122,0.0,1853.0112,5.0,15.0,165.0,22.0,1.0,1.2,0.3,Time
,,S28,1,female,29,anonymized,Serial_Dependence_U,2023.2.3,Win32,60.24096386,,,,,,,,,,,,1853.0126,5.0,1853.013,,,,1855.5453,1856.0447,1855.0293,1855.545,1854.0123,9.0,1855.0291,1856.0448,1856.5446,1856.5446,1862.5462,9999.0,1862.5466,0.0,1863.5459,5.0,16.0,166.0,26.0,1.0,1.0,0.7,Time
,,S28,1,female,29,anonymized,Serial_Dependence_U,2023.2.3,Win32,60.24096386,,,,,,,,,,,,1863.5474,5.0,1863.548,,,,1866.1014,1866.6016,1865.5844,1866.1012,1864.5694,266.0,1865.5842,1866.6017,1867.0969,1867.0969,1873.0991,9999.0,1873.0997,0.0,1874.0982,5.0,17.0,167.0,21.0,1.0,1.0,0.3,Time
,,S28,1,female,29,anonymized,Serial_Dependence_U,2023.2.3,Win32,60.24096386,,,,,,,,,,,,1874.0994,5.0,1874.0998,,,,1876.8503,1877.3488,1876.3325,1876.85,1875.1162,140.0,1876.3323,1877.3489,1877.8488,1877.8489,1883.851,9999.0,1883.8513,0.0,1884.8498,5.0,18.0,168.0,27.0,1.0,1.2,0.7,Time
,,S28,1,female,29,anonymized,Serial_Dependence_U,2023.2.3,Win32,60.24096386,,,,,,,,,,,,1884.8502,5.0,1884.8507,,,,1888.0017,1888.5009,1887.485,1888.0015,1885.8682,40.0,1887.4848,1888.5009,1889.0009,1889.0009,1895.0026,9999.0,1895.0028,0.0,1896.0024,5.0,19.0,169.0,4.0,1.0,1.6,0.3,Time
,,S28,1,female,29,anonymized,Serial_Dependence_U,2023.2.3,Win32,60.24096386,,,,,,,,,,,,1896.0031,5.0,1896.0035,,,,1898.953,1899.4523,1898.4367,1898.9529,1897.0202,180.0,1898.4366,1899.4523,1899.9523,1899.9523,1905.9537,9999.0,1905.954,0.0,1906.9542,5.0,20.0,170.0,13.0,1.0,1.4,0.3,Time
,,S28,1,female,29,anonymized,Serial_Dependence_U,2023.2.3,Win32,60.24096386,,,,,,,,,,,,1906.9549,5.0,1906.9553,,,,1909.7052,1910.2045,1909.1886,1909.705,1907.9714,45.0,1909.1885,1910.2045,1910.7046,1910.7046,1916.7069,9999.0,1916.7074,0.0,1917.7062,5.0,21.0,171.0,7.0,1.0,1.2,0.7,Time
,,S28,1,female,29,anonymized,Serial_Dependence_U,2023.2.3,Win32,60.24096386,,,,,,,,,,,,1917.7081,5.0,1917.7086,,,,1920.2413,1920.7399,1919.7241,1920.2411,1918.708,1.0,1919.7238,1920.74,1921.2404,1921.2407,1927.258,9999.0,1927.2585,0.0,1928.2576,5.0,22.0,172.0,16.0,1.0,1.0,0.7,Time
,,S28,1,female,29,anonymized,Serial_Dependence_U,2023.2.3,Win32,60.24096386,,,,,,,,,,,,1928.258,5.0,1928.2582,,,,1931.2101,1931.7091,1930.6919,1931.2099,1929.2763,154.0,1930.6918,1931.7091,1932.2085,1932.2086,1938.2103,9999.0,1938.2107,0.0,1939.2098,5.0,23.0,173.0,8.0,1.0,1.4,0.7,Time
,,S28,1,female,29,anonymized,Serial_Dependence_U,2023.2.3,Win32,60.24096386,,,,,,,,,,,,1939.2105,5.0,1939.2109,,,,1942.3614,1942.8609,1941.8448,1942.3612,1940.2273,219.0,1941.8445,1942.861,1943.361,1943.3611,1949.3628,9999.0,1949.3634,0.0,1950.3618,5.0,24.0,174.0,9.0,1.0,1.6,0.7,Time
,,S28,1,female,29,anonymized,Serial_Dependence_U,2023.2.3,Win32,60.24096386,,,,,,,,,,,,1950.3622,5.0,1950.3625,,,,1953.3134,1953.8132,1952.7973,1953.313,1951.3794,357.0,1952.797,1953.8132,1954.3128,1954.3128,1960.3153,9999.0,1960.3157,0.0,1961.3145,5.0,25.0,175.0,28.0,1.0,1.4,0.7,Time
,,S28,1,female,29,anonymized,Serial_Dependence_U,2023.2.3,Win32,60.24096386,,,,,,,,,,,,1961.3159,5.0,1961.3164,,,,1963.8544,1964.3482,1963.3492,1963.8542,1962.332,230.0,1963.3488,1964.3482,1964.8483,1964.8483,1970.8503,9999.0,1970.8508,0.0,1971.8492,5.0,26.0,176.0,6.0,1.0,1.0,0.7,Time
,,S28,1,female,29,anonymized,Serial_Dependence_U,2023.2.3,Win32,60.24096386,,,,,,,,,,,,1971.85,5.0,1971.8504,,,,1975.0015,1975.4998,1974.484,1975.0013,1972.8678,226.0,1974.4837,1975.4998,1976.0004,1976.0005,1982.018,9999.0,1982.0185,0.0,1983.018,5.0,27.0,177.0,14.0,1.0,1.6,0.3,Time
,,S28,1,female,29,anonymized,Serial_Dependence_U,2023.2.3,Win32,60.24096386,,,,,,,,,,,,1983.0186,5.0,1983.0191,,,,1985.5404,1986.0358,1985.0363,1985.5403,1984.0197,126.0,1985.0361,1986.0359,1986.541,1986.541,1992.5539,9999.0,1992.5543,0.0,1993.5537,5.0,28.0,178.0,1.0,1.0,1.0,0.3,Time
,,S28,1,female,29,anonymized,Serial_Dependence_U,2023.2.3,Win32,60.24096386,,,,,,,,,,,,1993.5544,5.0,1993.5548,,,,1996.2914,1996.7875,1995.7886,1996.2914,1994.5719,180.0,1995.7885,1996.7875,1997.2874,1997.2874,2003.2895,9999.0,2003.29,0.0,2004.2887,5.0,29.0,179.0,17.0,1.0,1.2,0.7,Time
,,S28,1,female,29,anonymized,Serial_Dependence_U,2023.2.3,Win32,60.24096386,,,,,,,,,,,,2004.2896,6.0,2005.5888,s,1.2677,,2008.7403,2009.2394,2008.2235,2008.74,2006.6063,262.0,2008.2232,2009.2394,2009.7397,2009.7398,2015.7418,9999.0,2015.7423,0.0,2016.741,6.0,0.0,180.0,9.0,1.0,1.6,0.7,Time
,,S28,1,female,29,anonymized,Serial_Dependence_U,2023.2.3,Win32,60.24096386,,,,,,,,,,,,2016.7424,6.0,2016.7454,,,,2019.6762,2020.1752,2019.1592,2019.676,2017.7428,125.0,2019.159,2020.1752,2020.6753,2020.6754,2026.6935,9999.0,2026.6941,0.0,2027.6929,6.0,1.0,181.0,28.0,1.0,1.4,0.7,Time
,,S28,1,female,29,anonymized,Serial_Dependence_U,2023.2.3,Win32,60.24096386,,,,,,,,,,,,2027.6936,6.0,2027.6941,,,,2030.8271,2031.3268,2030.3104,2030.8269,2028.6939,308.0,2030.3101,2031.3269,2031.8267,2031.8267,2037.8298,9999.0,2037.8301,0.0,2038.8288,6.0,2.0,182.0,19.0,1.0,1.6,0.7,Time
,,S28,1,female,29,anonymized,Serial_Dependence_U,2023.2.3,Win32,60.24096386,,,,,,,,,,,,2038.8299,6.0,2038.8305,,,,2041.3793,2041.8788,2040.8633,2041.379,2039.8466,346.0,2040.8631,2041.8788,2042.379,2042.379,2048.3816,9999.0,2048.3818,0.0,2049.3802,6.0,3.0,183.0,21.0,1.0,1.0,0.3,Time
,,S28,1,female,29,anonymized,Serial_Dependence_U,2023.2.3,Win32,60.24096386,,,,,,,,,,,,2049.3808,6.0,2049.3811,,,,2051.7322,2052.2307,2051.2155,2051.732,2050.3988,243.0,2051.2152,2052.2307,2052.7311,2052.7312,2058.7497,9999.0,2058.7503,0.0,2059.7492,6.0,4.0,184.0,25.0,1.0,0.8,0.7,Time
,,S28,1,female,29,anonymized,Serial_Dependence_U,2023.2.3,Win32,60.24096386,,,,,,,,,,,,2059.7505,6.0,2059.7511,,,,2062.2833,2062.7831,2061.7674,2062.2831,2060.7553,55.0,2061.7671,2062.7832,2063.2829,2063.2831,2069.2851,9999.0,2069.2858,0.0,2070.2847,6.0,5.0,185.0,26.0,1.0,1.0,0.7,Time
,,S28,1,female,29,anonymized,Serial_Dependence_U,2023.2.3,Win32,60.24096386,,,,,,,,,,,,2070.286,6.0,2070.2865,,,,2072.607,2073.1016,2072.0903,2072.6068,2071.2876,81.0,2072.09,2073.1016,2073.6017,2073.6018,2079.6194,9999.0,2079.6198,0.0,2080.6191,6.0,6.0,186.0,0.0,1.0,0.8,0.3,Time
,,S28,1,female,29,anonymized,Serial_Dependence_U,2023.2.3,Win32,60.24096386,,,,,,,,,,,,2080.6195,6.0,2080.6199,,,,2083.7423,2084.2367,2083.2412,2083.7422,2081.6363,16.0,2083.2412,2084.2368,2084.7372,2084.7374,2090.7551,9999.0,2090.7554,0.0,2091.7548,6.0,7.0,187.0,29.0,1.0,1.6,0.7,Time
,,S28,1,female,29,anonymized,Serial_Dependence_U,2023.2.3,Win32,60.24096386,,,,,,,,,,,,2091.7555,6.0,2091.7561,,,,2094.707,2095.2058,2094.1902,2094.7067,2092.7723,4.0,2094.19,2095.2059,2095.7058,2095.7058,2101.7076,9999.0,2101.7082,0.0,2102.7064,6.0,8.0,188.0,3.0,1.0,1.4,0.3,Time
,,S28,1,female,29,anonymized,Serial_Dependence_U,2023.2.3,Win32,60.24096386,,,,,,,,,,,,2102.7067,6.0,2102.7068,,,,2105.059,2105.5576,2104.5408,2105.0589,2103.7242,108.0,2104.5405,2105.5576,2106.0577,2106.0579,2112.0752,9999.0,2112.0755,0.0,2113.0756,6.0,9.0,189.0,10.0,1.0,0.8,0.3,Time
,,S28,1,female,29,anonymized,Serial_Dependence_U,2023.2.3,Win32,60.24096386,,,,,,,,,,,,2113.0768,6.0,2113.0772,,,,2115.8105,2116.3091,2115.2967,2115.8103,2114.0797,9.0,2115.2966,2116.3092,2116.8093,2116.8093,2122.815,9999.0,2122.8154,0.0,2123.8111,6.0,10.0,190.0,27.0,1.0,1.2,0.7,Time
,,S28,1,female,29,anonymized,Serial_Dependence_U,2023.2.3,Win32,60.24096386,,,,,,,,,,,,2123.8122,6.0,2123.8127,,,,2126.1623,2126.6611,2125.6453,2126.162,2124.8293,97.0,2125.645,2126.6611,2127.1616,2127.1616,2133.1635,9999.0,2133.1642,0.0,2134.1628,6.0,11.0,191.0,5.0,1.0,0.8,0.7,Time
,,S28,1,female,29,anonymized,Serial_Dependence_U,2023.2.3,Win32,60.24096386,,,,,,,,,,,,2134.1636,6.0,2134.1642,,,,2137.2977,2137.7965,2136.7796,2137.2975,2135.1644,29.0,2136.7796,2137.7965,2138.2967,2138.2967,2144.2995,9999.0,2144.2998,0.0,2145.2983,6.0,12.0,192.0,24.0,1.0,1.6,0.3,Time
,,S28,1,female,29,anonymized,Serial_Dependence_U,2023.2.3,Win32,60.24096386,,,,,,,,,,,,2145.2995,6.0,2145.2998,,,,2147.8331,2148.3322,2147.3164,2147.8329,2146.2997,289.0,2147.3162,2148.3322,2148.8319,2148.8319,2154.8331,9999.0,2154.8337,0.0,2155.8339,6.0,13.0,193.0,11.0,1.0,1.0,0.3,Time
,,S28,1,female,29,anonymized,Serial_Dependence_U,2023.2.3,Win32,60.24096386,,,,,,,,,,,,2155.8357,6.0,2155.8362,,,,2158.5851,2159.0839,2158.0684,2158.5849,2156.8518,98.0,2158.0682,2159.084,2159.5844,2159.5845,2165.5861,9999.0,2165.5864,0.0,2166.5856,6.0,14.0,194.0,2.0,1.0,1.2,0.3,Time
,,S28,1,female,29,anonymized,Serial_Dependence_U,2023.2.3,Win32,60.24096386,,,,,,,,,,,,2166.5862,6.0,2166.5865,,,,2169.3196,2169.8192,2168.8026,2169.3195,2167.5865,87.0,2168.8026,2169.8193,2170.3197,2170.3197,2176.3211,9999.0,2176.3214,0.0,2177.3209,6.0,15.0,195.0,12.0,1.0,1.2,0.3,Time
,,S28,1,female,29,anonymized,Serial_Dependence_U,2023.2.3,Win32,60.24096386,,,,,,,,,,,,2177.3218,6.0,2177.3221,,,,2179.6732,2180.1716,2179.1552,2179.6729,2178.3389,146.0,2179.1551,2180.1716,2180.6715,2180.6717,2186.6899,9999.0,2186.6904,0.0,2187.6896,6.0,16.0,196.0,15.0,1.0,0.8,0.7,Time
,,S28,1,female,29,anonymized,Serial_Dependence_U,2023.2.3,Win32,60.24096386,,,,,,,,,,,,2187.6915,6.0,2187.692,,,,2190.4245,2190.9233,2189.9076,2190.4243,2188.691,357.0,2189.9073,2190.9233,2191.4234,2191.4235,2197.4417,9999.0,2197.4423,0.0,2198.4412,6.0,17.0,197.0,22.0,1.0,1.2,0.3,Time
,,S28,1,female,29,anonymized,Serial_Dependence_U,2023.2.3,Win32,60.24096386,,,,,,,,,,,,2198.4419,6.0,2198.4423,,,,2200.7915,2201.2917,2200.2747,2200.7914,2199.459,252.0,2200.2747,2201.2917,2201.7916,2201.7916,2207.793,9999.0,2207.7934,0.0,2208.7931,6.0,18.0,198.0,20.0,1.0,0.8,0.3,Time
,,S28,1,female,29,anonymized,Serial_Dependence_U,2023.2.3,Win32,60.24096386,,,,,,,,,,,,2208.7936,6.0,2208.7941,,,,2211.3272,2211.8268,2210.8111,2211.3269,2209.7935,77.0,2210.8108,2211.8269,2212.3271,2212.3272,2218.3459,9999.0,2218.3464,0.0,2219.3449,6.0,19.0,199.0,1.0,1.0,1.0,0.3,Time
,,S28,1,female,29,anonymized,Serial_Dependence_U,2023.2.3,Win32,60.24096386,,,,,,,,,,,,2219.3452,6.0,2219.3453,,,,2222.4819,2222.9786,2221.9787,2222.4818,2220.3624,97.0,2221.9786,2222.9787,2223.4788,2223.4788,2229.485,9999.0,2229.4857,0.0,2230.4809,6.0,20.0,200.0,14.0,1.0,1.6,0.3,Time
,,S28,1,female,29,anonymized,Serial_Dependence_U,2023.2.3,Win32,60.24096386,,,,,,,,,,,,2230.4822,6.0,2230.4827,,,,2233.4325,2233.9311,2232.9158,2233.4324,2231.4988,111.0,2232.9157,2233.9312,2234.4316,2234.4317,2240.4338,9999.0,2240.4342,0.0,2241.4329,6.0,21.0,201.0,13.0,1.0,1.4,0.3,Time
,,S28,1,female,29,anonymized,Serial_Dependence_U,2023.2.3,Win32,60.24096386,,,,,,,,,,,,2241.434,6.0,2241.4345,,,,2244.1559,2244.6499,2243.654,2244.1557,2242.453,122.0,2243.6538,2244.65,2245.1504,2245.1505,2251.1687,9999.0,2251.1693,0.0,2252.168,6.0,22.0,202.0,17.0,1.0,1.2,0.7,Time
,,S28,1,female,29,anonymized,Serial_Dependence_U,2023.2.3,Win32,60.24096386,,,,,,,,,,,,2252.1692,6.0,2252.1696,,,,2255.3032,2255.8019,2254.7859,2255.303,2253.1695,19.0,2254.7856,2255.8019,2256.3021,2256.3022,2262.304,9999.0,2262.3045,0.0,2263.3035,6.0,23.0,203.0,4.0,1.0,1.6,0.3,Time
,,S28,1,female,29,anonymized,Serial_Dependence_U,2023.2.3,Win32,60.24096386,,,,,,,,,,,,2263.3048,6.0,2263.3053,,,,2266.0389,2266.537,2265.5207,2266.0386,2264.3045,235.0,2265.5204,2266.5371,2267.0368,2267.0368,2273.0392,9999.0,2273.0396,0.0,2274.0386,6.0,24.0,204.0,7.0,1.0,1.2,0.7,Time
,,S28,1,female,29,anonymized,Serial_Dependence_U,2023.2.3,Win32,60.24096386,,,,,,,,,,,,2274.0395,6.0,2274.0401,,,,2276.5898,2277.0889,2276.0733,2276.5896,2275.0567,195.0,2276.073,2277.0889,2277.5893,2277.5894,2283.6076,9999.0,2283.6081,0.0,2284.6069,6.0,25.0,205.0,6.0,1.0,1.0,0.7,Time
,,S28,1,female,29,anonymized,Serial_Dependence_U,2023.2.3,Win32,60.24096386,,,,,,,,,,,,2284.6074,6.0,2284.608,,,,2287.141,2287.6409,2286.6266,2287.1409,2285.608,151.0,2286.6266,2287.6409,2288.1407,2288.1407,2294.1425,9999.0,2294.1429,0.0,2295.1421,6.0,26.0,206.0,16.0,1.0,1.0,0.7,Time
,,S28,1,female,29,anonymized,Serial_Dependence_U,2023.2.3,Win32,60.24096386,,,,,,,,,,,,2295.1425,6.0,2295.1432,,,,2298.0764,2298.5763,2297.5609,2298.0763,2296.1592,53.0,2297.5606,2298.5763,2299.0764,2299.0764,2305.0777,9999.0,2305.0782,0.0,2306.0777,6.0,27.0,207.0,23.0,1.0,1.4,0.3,Time
,,S28,1,female,29,anonymized,Serial_Dependence_U,2023.2.3,Win32,60.24096386,,,,,,,,,,,,2306.0781,6.0,2306.0786,,,,2309.0298,2309.5284,2308.5124,2309.0295,2307.0956,316.0,2308.5121,2309.5285,2310.0286,2310.0286,2316.0306,9999.0,2316.0311,0.0,2317.0296,6.0,28.0,208.0,8.0,1.0,1.4,0.7,Time
,,S28,1,female,29,anonymized,Serial_Dependence_U,2023.2.3,Win32,60.24096386,,,,,,,,,,,,2317.0303,6.0,2317.0307,,,,2319.9638,2320.4635,2319.4508,2319.9636,2318.0304,194.0,2319.4507,2320.4635,2320.9637,2320.9637,2326.9666,9999.0,2326.9671,0.0,2327.9653,6.0,29.0,209.0,18.0,1.0,1.4,0.7,Time
,,S28,1,female,29,anonymized,Serial_Dependence_U,2023.2.3,Win32,60.24096386,,,,,,,,,,,,2327.9671,7.0,2331.1492,s,3.1605,,2333.7039,2334.1993,2333.1835,2333.7038,2332.1665,302.0,2333.1831,2334.1993,2334.6993,2334.6993,2340.701,9999.0,2340.7013,0.0,2341.7009,7.0,0.0,210.0,6.0,1.0,1.0,0.7,Time
,,S28,1,female,29,anonymized,Serial_Dependence_U,2023.2.3,Win32,60.24096386,,,,,,,,,,,,2341.7015,7.0,2341.7041,,,,2344.8358,2345.3348,2344.3184,2344.8356,2342.7016,242.0,2344.3182,2345.3349,2345.8353,2345.8354,2351.8579,9999.0,2351.858,0.0,2352.8532,7.0,1.0,211.0,4.0,1.0,1.6,0.3,Time
,,S28,1,female,29,anonymized,Serial_Dependence_U,2023.2.3,Win32,60.24096386,,,,,,,,,,,,2352.8547,7.0,2352.8558,,,,2355.788,2356.287,2355.2741,2355.7878,2353.8717,219.0,2355.274,2356.287,2356.7871,2356.7872,2362.806,9999.0,2362.8065,0.0,2363.805,7.0,2.0,212.0,13.0,1.0,1.4,0.3,Time
,,S28,1,female,29,anonymized,Serial_Dependence_U,2023.2.3,Win32,60.24096386,,,,,,,,,,,,2363.8053,7.0,2363.8056,,,,2366.5565,2367.0555,2366.0404,2366.5562,2364.8235,188.0,2366.0401,2367.0556,2367.5562,2367.5563,2373.5742,9999.0,2373.5743,0.0,2374.5737,7.0,3.0,213.0,7.0,1.0,1.2,0.7,Time
,,S28,1,female,29,anonymized,Serial_Dependence_U,2023.2.3,Win32,60.24096386,,,,,,,,,,,,2374.5741,7.0,2374.5743,,,,2377.5082,2378.0077,2376.9915,2377.5081,2375.5909,108.0,2376.9914,2378.0077,2378.5078,2378.5079,2384.5091,9999.0,2384.5092,0.0,2385.5093,7.0,4.0,214.0,8.0,1.0,1.4,0.7,Time
,,S28,1,female,29,anonymized,Serial_Dependence_U,2023.2.3,Win32,60.24096386,,,,,,,,,,,,2385.5101,7.0,2385.5104,,,,2387.8598,2388.3596,2387.3432,2387.8598,2386.5271,83.0,2387.3432,2388.3597,2388.8595,2388.8596,2394.862,9999.0,2394.8625,0.0,2395.8612,7.0,5.0,215.0,5.0,1.0,0.8,0.7,Time
,,S28,1,female,29,anonymized,Serial_Dependence_U,2023.2.3,Win32,60.24096386,,,,,,,,,,,,2395.8622,7.0,2395.8628,,,,2399.0115,2399.5116,2398.4956,2399.0114,2396.8787,223.0,2398.4956,2399.5117,2400.0118,2400.0119,2406.0135,9999.0,2406.0136,0.0,2407.0133,7.0,6.0,216.0,29.0,1.0,1.6,0.7,Time
,,S28,1,female,29,anonymized,Serial_Dependence_U,2023.2.3,Win32,60.24096386,,,,,,,,,,,,2407.014,7.0,2407.0143,,,,2409.7641,2410.2639,2409.2473,2409.764,2408.0309,216.0,2409.2472,2410.264,2410.7637,2410.7637,2416.7653,9999.0,2416.7655,0.0,2417.7657,7.0,7.0,217.0,27.0,1.0,1.2,0.7,Time
,,S28,1,female,29,anonymized,Serial_Dependence_U,2023.2.3,Win32,60.24096386,,,,,,,,,,,,2417.7665,7.0,2417.7669,,,,2420.3167,2420.816,2419.7995,2420.3165,2418.7828,23.0,2419.7994,2420.8161,2421.316,2421.316,2427.3175,9999.0,2427.3178,0.0,2428.3168,7.0,8.0,218.0,11.0,1.0,1.0,0.3,Time
,,S28,1,female,29,anonymized,Serial_Dependence_U,2023.2.3,Win32,60.24096386,,,,,,,,,,,,2428.3172,7.0,2428.3174,,,,2431.4682,2431.9677,2430.9511,2431.4681,2429.3347,170.0,2430.951,2431.9677,2432.4681,2432.4682,2438.4693,9999.0,2438.4695,0.0,2439.4694,7.0,9.0,219.0,14.0,1.0,1.6,0.3,Time
,,S28,1,female,29,anonymized,Serial_Dependence_U,2023.2.3,Win32,60.24096386,,,,,,,,,,,,2439.4701,7.0,2439.4704,,,,2442.4205,2442.92,2441.9034,2442.4204,2440.4877,51.0,2441.9033,2442.92,2443.4203,2443.4204,2449.4226,9999.0,2449.4231,0.0,2450.4215,7.0,10.0,220.0,18.0,1.0,1.4,0.7,Time
,,S28,1,female,29,anonymized,Serial_Dependence_U,2023.2.3,Win32,60.24096386,,,,,,,,,,,,2450.4224,7.0,2450.4228,,,,2452.7717,2453.2716,2452.255,2452.7716,2451.4394,137.0,2452.2549,2453.2717,2453.7717,2453.7717,2459.7734,9999.0,2459.7736,0.0,2460.7733,7.0,11.0,221.0,20.0,1.0,0.8,0.3,Time
,,S28,1,female,29,anonymized,Serial_Dependence_U,2023.2.3,Win32,60.24096386,,,,,,,,,,,,2460.774,7.0,2460.7743,,,,2463.5078,2464.0072,2462.9909,2463.5077,2461.7742,66.0,2462.9908,2464.0073,2464.5072,2464.5072,2470.5088,9999.0,2470.5091,0.0,2471.5089,7.0,12.0,222.0,17.0,1.0,1.2,0.7,Time
,,S28,1,female,29,anonymized,Serial_Dependence_U,2023.2.3,Win32,60.24096386,,,,,,,,,,,,2471.5095,7.0,2471.5098,,,,2474.2429,2474.7424,2473.742,2474.2428,2472.5256,254.0,2473.7419,2474.7424,2475.2426,2475.2426,2481.244,9999.0,2481.2443,0.0,2482.244,7.0,13.0,223.0,12.0,1.0,1.2,0.3,Time
,,S28,1,female,29,anonymized,Serial_Dependence_U,2023.2.3,Win32,60.24096386,,,,,,,,,,,,2482.2447,7.0,2482.2449,,,,2484.7945,2485.2945,2484.2778,2484.7944,2483.262,126.0,2484.2776,2485.2946,2485.7945,2485.7946,2491.7958,9999.0,2491.796,0.0,2492.796,7.0,14.0,224.0,21.0,1.0,1.0,0.3,Time
,,S28,1,female,29,anonymized,Serial_Dependence_U,2023.2.3,Win32,60.24096386,,,,,,,,,,,,2492.7969,7.0,2492.797,,,,2495.9468,2496.4463,2495.4296,2495.9468,2493.8136,188.0,2495.4296,2496.4463,2496.9465,2496.9466,2502.9475,9999.0,2502.9476,0.0,2503.9475,7.0,15.0,225.0,19.0,1.0,1.6,0.7,Time
,,S28,1,female,29,anonymized,Serial_Dependence_U,2023.2.3,Win32,60.24096386,,,,,,,,,,,,2503.9481,7.0,2503.9483,,,,2506.2819,2506.7812,2505.765,2506.2818,2504.948,50.0,2505.7649,2506.7812,2507.2819,2507.282,2513.2832,9999.0,2513.2834,0.0,2514.2825,7.0,16.0,226.0,0.0,1.0,0.8,0.3,Time
,,S28,1,female,29,anonymized,Serial_Dependence_U,2023.2.3,Win32,60.24096386,,,,,,,,,,,,2514.2828,7.0,2514.283,,,,2516.6335,2517.1334,2516.1168,2516.6333,2515.2999,306.0,2516.1167,2517.1335,2517.6334,2517.6335,2523.635,9999.0,2523.6352,0.0,2524.6349,7.0,17.0,227.0,10.0,1.0,0.8,0.3,Time
,,S28,1,female,29,anonymized,Serial_Dependence_U,2023.2.3,Win32,60.24096386,,,,,,,,,,,,2524.6353,7.0,2524.6355,,,,2526.9858,2527.4854,2526.4689,2526.9857,2525.6521,218.0,2526.4689,2527.4854,2527.9856,2527.9857,2533.987,9999.0,2533.9872,0.0,2534.9871,7.0,18.0,228.0,25.0,1.0,0.8,0.7,Time
,,S28,1,female,29,anonymized,Serial_Dependence_U,2023.2.3,Win32,60.24096386,,,,,,,,,,,,2534.9879,7.0,2534.9884,,,,2537.7209,2538.2205,2537.2206,2537.7208,2536.0045,227.0,2537.2205,2538.2206,2538.7205,2538.7205,2544.7224,9999.0,2544.7226,0.0,2545.722,7.0,19.0,229.0,22.0,1.0,1.2,0.3,Time
,,S28,1,female,29,anonymized,Serial_Dependence_U,2023.2.3,Win32,60.24096386,,,,,,,,,,,,2545.7226,7.0,2545.7228,,,,2548.073,2548.5727,2547.5562,2548.073,2546.7391,136.0,2547.5562,2548.5727,2549.0724,2549.0724,2555.074,9999.0,2555.0742,0.0,2556.0736,7.0,20.0,230.0,15.0,1.0,0.8,0.7,Time
,,S28,1,female,29,anonymized,Serial_Dependence_U,2023.2.3,Win32,60.24096386,,,,,,,,,,,,2556.074,7.0,2556.0741,,,,2559.2248,2559.7249,2558.7083,2559.2247,2557.0912,249.0,2558.7082,2559.725,2560.2248,2560.2249,2566.226,9999.0,2566.2263,0.0,2567.2261,7.0,21.0,231.0,9.0,1.0,1.6,0.7,Time
,,S28,1,female,29,anonymized,Serial_Dependence_U,2023.2.3,Win32,60.24096386,,,,,,,,,,,,2567.2268,7.0,2567.2271,,,,2569.778,2570.2772,2569.2611,2569.7778,2568.2435,164.0,2569.2608,2570.2773,2570.7767,2570.7768,2576.7781,9999.0,2576.7783,0.0,2577.7779,7.0,22.0,232.0,16.0,1.0,1.0,0.7,Time
,,S28,1,female,29,anonymized,Serial_Dependence_U,2023.2.3,Win32,60.24096386,,,,,,,,,,,,2577.7783,7.0,2577.7786,,,,2580.7287,2581.2284,2580.2117,2580.7286,2578.7951,51.0,2580.2116,2581.2284,2581.7285,2581.7286,2587.7298,9999.0,2587.73,0.0,2588.7299,7.0,23.0,233.0,28.0,1.0,1.4,0.7,Time
,,S28,1,female,29,anonymized,Serial_Dependence_U,2023.2.3,Win32,60.24096386,,,,,,,,,,,,2588.7304,7.0,2588.7306,,,,2591.2808,2591.7802,2590.7642,2591.2808,2589.7471,342.0,2590.7642,2591.7802,2592.2807,2592.2807,2598.2821,9999.0,2598.2823,0.0,2599.2817,7.0,24.0,234.0,1.0,1.0,1.0,0.3,Time
,,S28,1,female,29,anonymized,Serial_Dependence_U,2023.2.3,Win32,60.24096386,,,,,,,,,,,,2599.2823,7.0,2599.2824,,,,2602.0176,2602.5165,2601.5004,2602.0175,2600.2992,34.0,2601.5003,2602.5165,2603.0163,2603.0164,2609.0178,9999.0,2609.0181,0.0,2610.0172,7.0,25.0,235.0,2.0,1.0,1.2,0.3,Time
,,S28,1,female,29,anonymized,Serial_Dependence_U,2023.2.3,Win32,60.24096386,,,,,,,,,,,,2610.0179,7.0,2610.0181,,,,2612.9521,2613.4512,2612.4513,2612.952,2611.0343,228.0,2612.4512,2613.4513,2613.9514,2613.9514,2619.9535,9999.0,2619.9538,0.0,2620.9532,7.0,26.0,236.0,3.0,1.0,1.4,0.3,Time
,,S28,1,female,29,anonymized,Serial_Dependence_U,2023.2.3,Win32,60.24096386,,,,,,,,,,,,2620.954,7.0,2620.9544,,,,2623.8702,2624.3695,2623.3698,2623.8702,2621.9536,222.0,2623.3697,2624.3696,2624.87,2624.87,2630.8717,9999.0,2630.872,0.0,2631.8716,7.0,27.0,237.0,23.0,1.0,1.4,0.3,Time
,,S28,1,female,29,anonymized,Serial_Dependence_U,2023.2.3,Win32,60.24096386,,,,,,,,,,,,2631.8723,7.0,2631.8726,,,,2635.0222,2635.5219,2634.5054,2635.0222,2632.8884,0.0,2634.5052,2635.5219,2636.0223,2636.0223,2642.0235,9999.0,2642.0237,0.0,2643.0238,7.0,28.0,238.0,24.0,1.0,1.6,0.3,Time
,,S28,1,female,29,anonymized,Serial_Dependence_U,2023.2.3,Win32,60.24096386,,,,,,,,,,,,2643.0248,7.0,2643.0251,,,,2645.574,2646.074,2645.0577,2645.5739,2644.0418,117.0,2645.0575,2646.0741,2646.574,2646.574,2652.5755,9999.0,2652.5758,0.0,2653.5751,7.0,29.0,239.0,26.0,1.0,1.0,0.7,Time
,,S28,1,female,29,anonymized,Serial_Dependence_U,2023.2.3,Win32,60.24096386,,,,,,,,,,,,2653.5754,8.0,2654.8423,s,1.2526,,2657.7767,2658.2764,2657.2596,2657.7766,2655.8592,128.0,2657.2596,2658.2765,2658.7769,2658.7769,2664.7945,9999.0,2664.7946,0.0,2665.7942,8.0,0.0,240.0,8.0,1.0,1.4,0.7,Time
,,S28,1,female,29,anonymized,Serial_Dependence_U,2023.2.3,Win32,60.24096386,,,,,,,,,,,,2665.7948,8.0,2665.7969,,,,2668.1457,2668.6452,2667.629,2668.1455,2666.812,111.0,2667.6289,2668.6453,2669.1456,2669.1457,2675.1474,9999.0,2675.1479,0.0,2676.1467,8.0,1.0,241.0,0.0,1.0,0.8,0.3,Time
,,S28,1,female,29,anonymized,Serial_Dependence_U,2023.2.3,Win32,60.24096386,,,,,,,,,,,,2676.148,8.0,2676.1485,,,,2679.2808,2679.7802,2678.7802,2679.2807,2677.1651,27.0,2678.7801,2679.7802,2680.2804,2680.2805,2686.2818,9999.0,2686.282,0.0,2687.2815,8.0,2.0,242.0,4.0,1.0,1.6,0.3,Time
,,S28,1,female,29,anonymized,Serial_Dependence_U,2023.2.3,Win32,60.24096386,,,,,,,,,,,,2687.2821,8.0,2687.2823,,,,2690.016,2690.5154,2689.4992,2690.0159,2688.2832,52.0,2689.499,2690.5155,2691.016,2691.0162,2697.0172,9999.0,2697.0174,0.0,2698.0168,8.0,3.0,243.0,7.0,1.0,1.2,0.7,Time
,,S28,1,female,29,anonymized,Serial_Dependence_U,2023.2.3,Win32,60.24096386,,,,,,,,,,,,2698.0173,8.0,2698.0174,,,,2700.3679,2700.8679,2699.8511,2700.3679,2699.0342,109.0,2699.851,2700.868,2701.3674,2701.3675,2707.3692,9999.0,2707.3693,0.0,2708.3691,8.0,4.0,244.0,15.0,1.0,0.8,0.7,Time
,,S28,1,female,29,anonymized,Serial_Dependence_U,2023.2.3,Win32,60.24096386,,,,,,,,,,,,2708.3699,8.0,2708.3702,,,,2710.92,2711.4195,2710.4032,2710.9199,2709.3865,148.0,2710.4031,2711.4196,2711.9196,2711.9197,2717.9372,9999.0,2717.9373,0.0,2718.9373,8.0,5.0,245.0,1.0,1.0,1.0,0.3,Time
,,S28,1,female,29,anonymized,Serial_Dependence_U,2023.2.3,Win32,60.24096386,,,,,,,,,,,,2718.9379,8.0,2718.938,,,,2722.0726,2722.5718,2721.5555,2722.0724,2719.9395,171.0,2721.5554,2722.5718,2723.0722,2723.0723,2729.0897,9999.0,2729.0899,0.0,2730.0894,8.0,6.0,246.0,19.0,1.0,1.6,0.7,Time
,,S28,1,female,29,anonymized,Serial_Dependence_U,2023.2.3,Win32,60.24096386,,,,,,,,,,,,2730.09,8.0,2730.0903,,,,2732.8243,2733.3236,2732.3074,2732.8241,2731.0921,289.0,2732.3072,2733.3236,2733.8237,2733.8238,2739.8249,9999.0,2739.825,0.0,2740.8247,8.0,7.0,247.0,22.0,1.0,1.2,0.3,Time
,,S28,1,female,29,anonymized,Serial_Dependence_U,2023.2.3,Win32,60.24096386,,,,,,,,,,,,2740.8251,8.0,2740.8254,,,,2743.7589,2744.2592,2743.2421,2743.7588,2741.8252,99.0,2743.242,2744.2593,2744.7593,2744.7594,2750.777,9999.0,2750.7772,0.0,2751.7765,8.0,8.0,248.0,13.0,1.0,1.4,0.3,Time
,,S28,1,female,29,anonymized,Serial_Dependence_U,2023.2.3,Win32,60.24096386,,,,,,,,,,,,2751.7767,8.0,2751.7769,,,,2754.1277,2754.6274,2753.6104,2754.1276,2752.7937,85.0,2753.6104,2754.6274,2755.1276,2755.1277,2761.1291,9999.0,2761.1292,0.0,2762.1291,8.0,9.0,249.0,5.0,1.0,0.8,0.7,Time
,,S28,1,female,29,anonymized,Serial_Dependence_U,2023.2.3,Win32,60.24096386,,,,,,,,,,,,2762.1299,8.0,2762.1302,,,,2764.6813,2765.18,2764.1639,2764.6812,2763.1464,74.0,2764.1636,2765.18,2765.68,2765.6802,2771.6972,9999.0,2771.6973,0.0,2772.6973,8.0,10.0,250.0,16.0,1.0,1.0,0.7,Time
,,S28,1,female,29,anonymized,Serial_Dependence_U,2023.2.3,Win32,60.24096386,,,,,,,,,,,,2772.6979,8.0,2772.698,,,,2775.2325,2775.7315,2774.7317,2775.2324,2773.7151,138.0,2774.7316,2775.7316,2776.2318,2776.2319,2782.2492,9999.0,2782.2494,0.0,2783.2495,8.0,11.0,251.0,21.0,1.0,1.0,0.3,Time
,,S28,1,female,29,anonymized,Serial_Dependence_U,2023.2.3,Win32,60.24096386,,,,,,,,,,,,2783.2501,8.0,2783.2503,,,,2786.401,2786.9001,2785.8838,2786.4009,2784.2668,304.0,2785.8837,2786.9002,2787.3999,2787.3999,2793.4016,9999.0,2793.4019,0.0,2794.4012,8.0,12.0,252.0,24.0,1.0,1.6,0.3,Time
,,S28,1,female,29,anonymized,Serial_Dependence_U,2023.2.3,Win32,60.24096386,,,,,,,,,,,,2794.4017,8.0,2794.4019,,,,2797.5362,2798.0357,2797.0353,2797.5361,2795.4189,341.0,2797.0352,2798.0357,2798.5358,2798.5359,2804.537,9999.0,2804.5373,0.0,2805.5367,8.0,13.0,253.0,29.0,1.0,1.6,0.7,Time
,,S28,1,female,29,anonymized,Serial_Dependence_U,2023.2.3,Win32,60.24096386,,,,,,,,,,,,2805.5373,8.0,2805.5376,,,,2808.6711,2809.171,2808.1546,2808.671,2806.554,254.0,2808.1546,2809.171,2809.6709,2809.671,2815.6733,9999.0,2815.6737,0.0,2816.672,8.0,14.0,254.0,14.0,1.0,1.6,0.3,Time
,,S28,1,female,29,anonymized,Serial_Dependence_U,2023.2.3,Win32,60.24096386,,,,,,,,,,,,2816.6724,8.0,2816.6726,,,,2819.2236,2819.7229,2818.706,2819.2234,2817.6893,79.0,2818.7059,2819.723,2820.2231,2820.2232,2826.2411,9999.0,2826.2413,0.0,2827.2411,8.0,15.0,255.0,26.0,1.0,1.0,0.7,Time
,,S28,1,female,29,anonymized,Serial_Dependence_U,2023.2.3,Win32,60.24096386,,,,,,,,,,,,2827.2417,8.0,2827.242,,,,2829.9918,2830.4914,2829.4751,2829.9917,2828.2583,321.0,2829.475,2830.4915,2830.9913,2830.9914,2836.993,9999.0,2836.9932,0.0,2837.9928,8.0,16.0,256.0,27.0,1.0,1.2,0.7,Time
,,S28,1,female,29,anonymized,Serial_Dependence_U,2023.2.3,Win32,60.24096386,,,,,,,,,,,,2837.9933,8.0,2837.9934,,,,2840.9283,2841.4273,2840.4107,2840.9281,2839.01,235.0,2840.4106,2841.4274,2841.9271,2841.9273,2847.9452,9999.0,2847.9453,0.0,2848.9446,8.0,17.0,257.0,28.0,1.0,1.4,0.7,Time
,,S28,1,female,29,anonymized,Serial_Dependence_U,2023.2.3,Win32,60.24096386,,,,,,,,,,,,2848.9449,8.0,2848.9452,,,,2851.6967,2852.1956,2851.1792,2851.6965,2849.9621,304.0,2851.179,2852.1956,2852.6961,2852.6962,2858.7135,9999.0,2858.7137,0.0,2859.7133,8.0,18.0,258.0,12.0,1.0,1.2,0.3,Time
,,S28,1,female,29,anonymized,Serial_Dependence_U,2023.2.3,Win32,60.24096386,,,,,,,,,,,,2859.7137,8.0,2859.7139,,,,2862.2651,2862.7645,2861.7478,2862.265,2860.7308,143.0,2861.7477,2862.7646,2863.2646,2863.2647,2869.2821,9999.0,2869.2823,0.0,2870.2818,8.0,19.0,259.0,6.0,1.0,1.0,0.7,Time
,,S28,1,female,29,anonymized,Serial_Dependence_U,2023.2.3,Win32,60.24096386,,,,,,,,,,,,2870.2821,8.0,2870.2822,,,,2873.4337,2873.9332,2872.9165,2873.4336,2871.2993,259.0,2872.9164,2873.9333,2874.4329,2874.433,2880.4345,9999.0,2880.4348,0.0,2881.4342,8.0,20.0,260.0,9.0,1.0,1.6,0.7,Time
,,S28,1,female,29,anonymized,Serial_Dependence_U,2023.2.3,Win32,60.24096386,,,,,,,,,,,,2881.4349,8.0,2881.4351,,,,2884.1688,2884.6683,2883.6681,2884.1687,2882.4515,336.0,2883.668,2884.6684,2885.1683,2885.1684,2891.1696,9999.0,2891.1698,0.0,2892.17,8.0,21.0,261.0,17.0,1.0,1.2,0.7,Time
,,S28,1,female,29,anonymized,Serial_Dependence_U,2023.2.3,Win32,60.24096386,,,,,,,,,,,,2892.1709,8.0,2892.1713,,,,2894.7207,2895.2202,2894.2042,2894.7206,2893.1868,264.0,2894.2041,2895.2202,2895.7204,2895.7204,2901.7216,9999.0,2901.7217,0.0,2902.7215,8.0,22.0,262.0,11.0,1.0,1.0,0.3,Time
,,S28,1,female,29,anonymized,Serial_Dependence_U,2023.2.3,Win32,60.24096386,,,,,,,,,,,,2902.7223,8.0,2902.7226,,,,2905.4554,2905.9557,2904.9391,2905.4553,2903.7385,318.0,2904.939,2905.9557,2906.4553,2906.4553,2912.457,9999.0,2912.4572,0.0,2913.4571,8.0,23.0,263.0,2.0,1.0,1.2,0.3,Time
,,S28,1,female,29,anonymized,Serial_Dependence_U,2023.2.3,Win32,60.24096386,,,,,,,,,,,,2913.4579,8.0,2913.4582,,,,2916.408,2916.9073,2915.891,2916.4078,2914.4747,182.0,2915.8909,2916.9074,2917.4076,2917.4077,2923.4091,9999.0,2923.4094,0.0,2924.4092,8.0,24.0,264.0,23.0,1.0,1.4,0.3,Time
,,S28,1,female,29,anonymized,Serial_Dependence_U,2023.2.3,Win32,60.24096386,,,,,,,,,,,,2924.4098,8.0,2924.41,,,,2927.36,2927.8599,2926.8432,2927.3599,2925.4263,81.0,2926.8431,2927.8599,2928.3597,2928.3599,2934.3608,9999.0,2934.361,0.0,2935.3611,8.0,25.0,265.0,3.0,1.0,1.4,0.3,Time
,,S28,1,female,29,anonymized,Serial_Dependence_U,2023.2.3,Win32,60.24096386,,,,,,,,,,,,2935.3622,8.0,2935.3627,,,,2937.7124,2938.2117,2937.1953,2937.7122,2936.3795,331.0,2937.1952,2938.2117,2938.7119,2938.712,2944.7132,9999.0,2944.7134,0.0,2945.7128,8.0,26.0,266.0,10.0,1.0,0.8,0.3,Time
,,S28,1,female,29,anonymized,Serial_Dependence_U,2023.2.3,Win32,60.24096386,,,,,,,,,,,,2945.7136,8.0,2945.7139,,,,2948.0642,2948.5632,2947.5475,2948.0641,2946.7303,305.0,2947.5474,2948.5633,2949.0635,2949.0636,2955.0646,9999.0,2955.0649,0.0,2956.0648,8.0,27.0,267.0,25.0,1.0,0.8,0.7,Time
,,S28,1,female,29,anonymized,Serial_Dependence_U,2023.2.3,Win32,60.24096386,,,,,,,,,,,,2956.0657,8.0,2956.0661,,,,2959.0158,2959.5155,2958.499,2959.0157,2957.0819,281.0,2958.4989,2959.5156,2960.0153,2960.0154,2966.0173,9999.0,2966.0177,0.0,2967.0166,8.0,28.0,268.0,18.0,1.0,1.4,0.7,Time
,,S28,1,female,29,anonymized,Serial_Dependence_U,2023.2.3,Win32,60.24096386,,,,,,,,,,,,2967.0172,8.0,2967.0174,,,,2969.3676,2969.8672,2968.8511,2969.3675,2968.0341,201.0,2968.851,2969.8672,2970.3674,2970.3674,2976.3685,9999.0,2976.3686,0.0,2977.3686,8.0,29.0,269.0,20.0,1.0,0.8,0.3,Time
