Scale_setup.started,Scale_setup.stopped,participant,session,sex,age,date,expName,psychopyVersion,OS,frameRate,screen_scale_keys.started,screen_scale_keys.stopped,X Scale,Y Scale,rectangel_keys.started,rectangel_keys.stopped,Intro.started,Intro.stopped,key_resp_2.keys,key_resp_2.rt,key_resp_2.duration,block.started,Block_id,block.stopped,Block_resp_2.keys,Block_resp_2.rt,Block_resp_2.duration,ITI.started,ITI.stopped,Mask_2.started,Mask_2.stopped,M2.started,direction,M2.stopped,Cue.started,Cue.stopped,Response.started,Response.stopped,keyDuration,Feedback_Time.started,FeedbackID_T,Feedback_Time.stopped,trials.thisRepN,trials.thisTrialN,trials.thisN,trials.thisIndex,trials.ran,TimeDur,Coherence1,TrialType
0.0004,0.0009,S29,1,Male,23,anonymized,Serial_Dependence_U,2023.2.3,Win32,59.88023952,,,,,,,,,,,,,,,,,,,,,,,,,,,,,,,,,,,,,,,,
,,S29,1,Male,23,anonymized,Serial_Dependence_U,2023.2.3,Win32,59.88023952,0.0035,9.9484,0.05,0.05,9.9486,12.0921,12.0926,42.4915,space,30.3534,,,,,,,,,,,,,,,,,,,,,,,,,,,,,,
,,S29,1,Male,23,anonymized,Serial_Dependence_U,2023.2.3,Win32,59.88023952,,,,,,,,,,,,42.522,0.0,46.291,s,3.7248,,49.0426,49.5396,48.5236,49.0422,47.311,327.0,48.5235,49.5402,50.0402,50.0413,56.0608,9999.0,56.0631,0.0,57.0566,0.0,0.0,0.0,2.0,1.0,1.2,0.3,Time
,,S29,1,Male,23,anonymized,Serial_Dependence_U,2023.2.3,Win32,59.88023952,,,,,,,,,,,,57.0595,0.0,57.0637,,,,59.5739,60.0743,59.0627,59.5737,58.0573,116.0,59.0625,60.0743,60.5741,60.5744,66.5885,9999.0,66.5889,0.0,67.5886,0.0,1.0,1.0,1.0,1.0,1.0,0.3,Time
,,S29,1,Male,23,anonymized,Serial_Dependence_U,2023.2.3,Win32,59.88023952,,,,,,,,,,,,67.5898,0.0,67.5905,,,,69.9389,70.438,69.4257,69.9388,68.6077,118.0,69.4255,70.438,70.9381,70.9381,76.9545,9999.0,76.9547,0.0,77.9548,0.0,2.0,2.0,5.0,1.0,0.8,0.7,Time
,,S29,1,Male,23,anonymized,Serial_Dependence_U,2023.2.3,Win32,59.88023952,,,,,,,,,,,,77.9555,0.0,77.9559,,,,80.7045,81.2037,80.1962,80.7044,78.9734,181.0,80.1911,81.2038,81.7046,81.7047,87.7213,9999.0,87.7218,0.0,88.7158,0.0,3.0,3.0,17.0,1.0,1.2,0.7,Time
,,S29,1,Male,23,anonymized,Serial_Dependence_U,2023.2.3,Win32,59.88023952,,,,,,,,,,,,88.7186,0.0,88.7189,,,,91.8462,92.3366,91.3233,91.8456,89.7108,219.0,91.3232,92.3367,92.8368,92.8369,98.8528,9999.0,98.853,0.0,99.8533,0.0,4.0,4.0,14.0,1.0,1.6,0.3,Time
,,S29,1,Male,23,anonymized,Serial_Dependence_U,2023.2.3,Win32,59.88023952,,,,,,,,,,,,99.8542,0.0,99.8552,,,,102.8037,103.3027,102.2875,102.8036,100.8707,321.0,102.2874,103.3027,103.802,103.8021,109.8033,9999.0,109.8037,0.0,110.8019,0.0,5.0,5.0,8.0,1.0,1.4,0.7,Time
,,S29,1,Male,23,anonymized,Serial_Dependence_U,2023.2.3,Win32,59.88023952,,,,,,,,,,,,110.8026,0.0,110.803,,,,113.5524,114.0415,113.0365,113.5523,111.8193,82.0,113.0361,114.0417,114.5348,114.5349,120.5515,9999.0,120.5518,0.0,121.5525,0.0,6.0,6.0,27.0,1.0,1.2,0.7,Time
,,S29,1,Male,23,anonymized,Serial_Dependence_U,2023.2.3,Win32,59.88023952,,,,,,,,,,,,121.556,0.0,121.5566,,,,123.8849,124.3845,123.3687,123.8849,122.5528,101.0,123.3686,124.3846,124.8839,124.8839,130.9014,9999.0,130.9017,0.0,131.9011,0.0,7.0,7.0,0.0,1.0,0.8,0.3,Time
,,S29,1,Male,23,anonymized,Serial_Dependence_U,2023.2.3,Win32,59.88023952,,,,,,,,,,,,131.9019,0.0,131.9023,,,,134.4509,134.9506,133.9341,134.4509,132.9176,184.0,133.934,134.9507,135.4508,135.4508,141.4678,9999.0,141.4686,0.0,142.4664,0.0,8.0,8.0,16.0,1.0,1.0,0.7,Time
,,S29,1,Male,23,anonymized,Serial_Dependence_U,2023.2.3,Win32,59.88023952,,,,,,,,,,,,142.4674,0.0,142.4679,,,,145.4168,145.9158,144.9008,145.4167,143.4841,269.0,144.9006,145.9159,146.4161,146.4161,152.4327,9999.0,152.433,0.0,153.4319,0.0,9.0,9.0,18.0,1.0,1.4,0.7,Time
,,S29,1,Male,23,anonymized,Serial_Dependence_U,2023.2.3,Win32,59.88023952,,,,,,,,,,,,153.4324,0.0,153.4327,,,,155.7829,156.2817,155.2657,155.7828,154.449,164.0,155.2657,156.2817,156.7815,156.7816,162.7981,9999.0,162.7985,0.0,163.7979,0.0,10.0,10.0,20.0,1.0,0.8,0.3,Time
,,S29,1,Male,23,anonymized,Serial_Dependence_U,2023.2.3,Win32,59.88023952,,,,,,,,,,,,163.7984,0.0,163.7988,,,,166.3483,166.8479,165.8317,166.3482,164.815,327.0,165.8315,166.848,167.3476,167.3476,173.3645,9999.0,173.3647,0.0,174.3643,0.0,11.0,11.0,21.0,1.0,1.0,0.3,Time
,,S29,1,Male,23,anonymized,Serial_Dependence_U,2023.2.3,Win32,59.88023952,,,,,,,,,,,,174.3652,0.0,174.3657,,,,177.5144,178.0149,176.9984,177.5143,175.3811,19.0,176.9984,178.0149,178.514,178.5141,184.5305,9999.0,184.5311,0.0,185.5305,0.0,12.0,12.0,4.0,1.0,1.6,0.3,Time
,,S29,1,Male,23,anonymized,Serial_Dependence_U,2023.2.3,Win32,59.88023952,,,,,,,,,,,,185.5311,0.0,185.5334,,,,188.4645,188.9634,187.947,188.4644,186.5312,15.0,187.9469,188.9634,189.4632,189.4634,195.4799,9999.0,195.48,0.0,196.4797,0.0,13.0,13.0,3.0,1.0,1.4,0.3,Time
,,S29,1,Male,23,anonymized,Serial_Dependence_U,2023.2.3,Win32,59.88023952,,,,,,,,,,,,196.4807,0.0,196.4814,,,,198.8295,199.3293,198.313,198.8294,197.4973,1.0,198.3129,199.3295,199.8291,199.8291,205.8465,9999.0,205.8468,0.0,206.8453,0.0,14.0,14.0,25.0,1.0,0.8,0.7,Time
,,S29,1,Male,23,anonymized,Serial_Dependence_U,2023.2.3,Win32,59.88023952,,,,,,,,,,,,206.8462,0.0,206.8468,,,,209.9952,210.4947,209.4788,209.9952,207.8621,172.0,209.4787,210.4948,210.9957,210.9957,217.0117,9999.0,217.0124,0.0,218.0111,0.0,15.0,15.0,24.0,1.0,1.6,0.3,Time
,,S29,1,Male,23,anonymized,Serial_Dependence_U,2023.2.3,Win32,59.88023952,,,,,,,,,,,,218.0126,0.0,218.0137,,,,221.1629,221.6617,220.6451,221.1625,219.0293,28.0,220.6448,221.6618,222.1615,222.1616,228.1771,9999.0,228.1773,0.0,229.1768,0.0,16.0,16.0,9.0,1.0,1.6,0.7,Time
,,S29,1,Male,23,anonymized,Serial_Dependence_U,2023.2.3,Win32,59.88023952,,,,,,,,,,,,229.1772,0.0,229.1775,,,,231.7272,232.2267,231.2107,231.7271,230.1939,329.0,231.2105,232.2267,232.7269,232.7272,238.7436,9999.0,238.7438,0.0,239.7427,0.0,17.0,17.0,6.0,1.0,1.0,0.7,Time
,,S29,1,Male,23,anonymized,Serial_Dependence_U,2023.2.3,Win32,59.88023952,,,,,,,,,,,,239.7433,0.0,239.7436,,,,242.0931,242.5931,241.577,242.0931,240.7599,326.0,241.5769,242.5932,243.0931,243.0931,249.1087,9999.0,249.109,0.0,250.1084,0.0,18.0,18.0,15.0,1.0,0.8,0.7,Time
,,S29,1,Male,23,anonymized,Serial_Dependence_U,2023.2.3,Win32,59.88023952,,,,,,,,,,,,250.1089,0.0,250.1092,,,,253.259,253.7589,252.7422,253.2589,251.1255,206.0,252.742,253.7589,254.259,254.2591,260.2754,9999.0,260.2757,0.0,261.2753,0.0,19.0,19.0,19.0,1.0,1.6,0.7,Time
,,S29,1,Male,23,anonymized,Serial_Dependence_U,2023.2.3,Win32,59.88023952,,,,,,,,,,,,261.2767,0.0,261.2774,,,,263.8248,264.3243,263.3083,263.8247,262.2929,188.0,263.3082,264.3243,264.8241,264.8243,270.8413,9999.0,270.8415,0.0,271.8403,0.0,20.0,20.0,11.0,1.0,1.0,0.3,Time
,,S29,1,Male,23,anonymized,Serial_Dependence_U,2023.2.3,Win32,59.88023952,,,,,,,,,,,,271.8408,0.0,271.8412,,,,274.7907,275.29,274.2741,274.7907,272.8578,284.0,274.274,275.2901,275.7911,275.7912,281.8101,9999.0,281.8106,0.0,282.8061,0.0,21.0,21.0,28.0,1.0,1.4,0.7,Time
,,S29,1,Male,23,anonymized,Serial_Dependence_U,2023.2.3,Win32,59.88023952,,,,,,,,,,,,282.8067,0.0,282.807,,,,285.5424,286.0398,285.0399,285.542,283.8234,338.0,285.0399,286.0398,286.5392,286.5393,292.5564,9999.0,292.5567,0.0,293.5558,0.0,22.0,22.0,22.0,1.0,1.2,0.3,Time
,,S29,1,Male,23,anonymized,Serial_Dependence_U,2023.2.3,Win32,59.88023952,,,,,,,,,,,,293.5568,0.0,293.5572,,,,296.106,296.6058,295.5892,296.1059,294.5731,3.0,295.5891,296.606,297.1065,297.1068,303.1228,9999.0,303.1231,0.0,304.122,0.0,23.0,23.0,26.0,1.0,1.0,0.7,Time
,,S29,1,Male,23,anonymized,Serial_Dependence_U,2023.2.3,Win32,59.88023952,,,,,,,,,,,,304.1227,0.0,304.1238,,,,307.2555,307.755,306.7441,307.2554,305.1269,67.0,306.7439,307.7551,308.2545,308.2545,314.2715,9999.0,314.2719,0.0,315.2711,0.0,24.0,24.0,29.0,1.0,1.6,0.7,Time
,,S29,1,Male,23,anonymized,Serial_Dependence_U,2023.2.3,Win32,59.88023952,,,,,,,,,,,,315.2716,0.0,315.2719,,,,318.2213,318.7204,317.7053,318.2212,316.2892,112.0,317.705,318.7205,319.2204,319.2205,325.2383,9999.0,325.2385,0.0,326.2388,0.0,25.0,25.0,23.0,1.0,1.4,0.3,Time
,,S29,1,Male,23,anonymized,Serial_Dependence_U,2023.2.3,Win32,59.88023952,,,,,,,,,,,,326.2414,0.0,326.2417,,,,328.9868,329.4872,328.4705,328.9867,327.2551,304.0,328.4703,329.4873,329.9861,329.9862,335.9925,9999.0,335.9936,0.0,336.9918,0.0,26.0,26.0,12.0,1.0,1.2,0.3,Time
,,S29,1,Male,23,anonymized,Serial_Dependence_U,2023.2.3,Win32,59.88023952,,,,,,,,,,,,336.9958,0.0,336.996,,,,339.3194,339.8076,338.804,339.3193,337.9925,85.0,338.8038,339.8077,340.3029,340.3029,346.3201,9999.0,346.3228,0.0,347.3186,0.0,27.0,27.0,10.0,1.0,0.8,0.3,Time
,,S29,1,Male,23,anonymized,Serial_Dependence_U,2023.2.3,Win32,59.88023952,,,,,,,,,,,,347.3193,0.0,347.3196,,,,350.2685,350.7682,349.7521,350.2685,348.3357,195.0,349.752,350.7682,351.2682,351.2683,357.2859,9999.0,357.2862,0.0,358.2848,0.0,28.0,28.0,13.0,1.0,1.4,0.3,Time
,,S29,1,Male,23,anonymized,Serial_Dependence_U,2023.2.3,Win32,59.88023952,,,,,,,,,,,,358.2858,0.0,358.2862,,,,361.0181,361.5178,360.5025,361.018,359.2877,124.0,360.5024,361.518,362.018,362.0182,368.035,9999.0,368.0356,0.0,369.0343,0.0,29.0,29.0,7.0,1.0,1.2,0.7,Time
,,S29,1,Male,23,anonymized,Serial_Dependence_U,2023.2.3,Win32,59.88023952,,,,,,,,,,,,369.0362,1.0,387.6658,s,18.6001,,390.8171,391.3162,390.304,390.8168,388.6835,149.0,390.3037,391.3162,391.8153,391.8153,397.8324,9999.0,397.833,0.0,398.832,1.0,0.0,30.0,19.0,1.0,1.6,0.7,Time
,,S29,1,Male,23,anonymized,Serial_Dependence_U,2023.2.3,Win32,59.88023952,,,,,,,,,,,,398.8332,1.0,398.837,,,,401.3826,401.8814,400.8654,401.3822,399.8495,152.0,400.865,401.8816,402.3815,402.3815,408.399,9999.0,408.3997,0.0,409.3977,1.0,1.0,31.0,26.0,1.0,1.0,0.7,Time
,,S29,1,Male,23,anonymized,Serial_Dependence_U,2023.2.3,Win32,59.88023952,,,,,,,,,,,,409.399,1.0,409.3997,,,,412.5483,413.0474,412.0317,412.548,410.4165,178.0,412.0313,413.0475,413.5482,413.5483,419.5645,9999.0,419.5651,0.0,420.5636,1.0,2.0,32.0,24.0,1.0,1.6,0.3,Time
,,S29,1,Male,23,anonymized,Serial_Dependence_U,2023.2.3,Win32,59.88023952,,,,,,,,,,,,420.5642,1.0,420.5648,,,,423.3173,423.8134,422.7972,423.317,421.5813,185.0,422.797,423.8135,424.3136,424.3137,430.3181,9999.0,430.3185,0.0,431.3126,1.0,3.0,33.0,12.0,1.0,1.2,0.3,Time
,,S29,1,Male,23,anonymized,Serial_Dependence_U,2023.2.3,Win32,59.88023952,,,,,,,,,,,,431.3133,1.0,431.3141,,,,433.8464,434.3458,433.3307,433.8463,432.3294,129.0,433.3306,434.3459,434.8455,434.8456,440.8627,9999.0,440.863,0.0,441.8623,1.0,4.0,34.0,11.0,1.0,1.0,0.3,Time
,,S29,1,Male,23,anonymized,Serial_Dependence_U,2023.2.3,Win32,59.88023952,,,,,,,,,,,,441.8631,1.0,441.8636,,,,444.8122,445.3115,444.2959,444.8121,442.8791,327.0,444.2957,445.3115,445.8115,445.8116,451.8335,9999.0,451.8346,0.0,452.828,1.0,5.0,35.0,3.0,1.0,1.4,0.3,Time
,,S29,1,Male,23,anonymized,Serial_Dependence_U,2023.2.3,Win32,59.88023952,,,,,,,,,,,,452.8284,1.0,452.8287,,,,455.7826,456.2777,455.2632,455.7826,453.8465,15.0,455.263,456.2777,456.7783,456.7784,462.7857,9999.0,462.7861,0.0,463.7847,1.0,6.0,36.0,28.0,1.0,1.4,0.7,Time
,,S29,1,Male,23,anonymized,Serial_Dependence_U,2023.2.3,Win32,59.88023952,,,,,,,,,,,,463.7857,1.0,463.786,,,,466.1335,466.6339,465.6195,466.1333,464.8085,314.0,465.6195,466.634,467.1277,467.1278,473.1434,9999.0,473.1436,0.0,474.1435,1.0,7.0,37.0,20.0,1.0,0.8,0.3,Time
,,S29,1,Male,23,anonymized,Serial_Dependence_U,2023.2.3,Win32,59.88023952,,,,,,,,,,,,474.1444,1.0,474.1449,,,,476.6767,477.1765,476.1619,476.6766,475.1603,325.0,476.1618,477.1765,477.6769,477.6769,483.6926,9999.0,483.6928,0.0,484.6922,1.0,8.0,38.0,6.0,1.0,1.0,0.7,Time
,,S29,1,Male,23,anonymized,Serial_Dependence_U,2023.2.3,Win32,59.88023952,,,,,,,,,,,,484.6926,1.0,484.6929,,,,487.4299,487.9255,486.9115,487.4295,485.7092,38.0,486.9113,487.9255,488.4261,488.4261,494.4423,9999.0,494.4425,0.0,495.4414,1.0,9.0,39.0,7.0,1.0,1.2,0.7,Time
,,S29,1,Male,23,anonymized,Serial_Dependence_U,2023.2.3,Win32,59.88023952,,,,,,,,,,,,495.4419,1.0,495.4422,,,,497.7751,498.2749,497.2582,497.7751,496.4428,21.0,497.2581,498.275,498.7746,498.7748,504.7916,9999.0,504.7919,0.0,505.7911,1.0,10.0,40.0,15.0,1.0,0.8,0.7,Time
,,S29,1,Male,23,anonymized,Serial_Dependence_U,2023.2.3,Win32,59.88023952,,,,,,,,,,,,505.7922,1.0,505.7926,,,,508.141,508.6411,507.6244,508.1409,506.8077,117.0,507.6243,508.6412,509.1404,509.1404,515.1569,9999.0,515.157,0.0,516.1567,1.0,11.0,41.0,10.0,1.0,0.8,0.3,Time
,,S29,1,Male,23,anonymized,Serial_Dependence_U,2023.2.3,Win32,59.88023952,,,,,,,,,,,,516.1573,1.0,516.1575,,,,518.7072,519.2061,518.1927,518.7071,517.1737,222.0,518.1906,519.2062,519.7066,519.7067,525.7233,9999.0,525.7235,0.0,526.7229,1.0,12.0,42.0,21.0,1.0,1.0,0.3,Time
,,S29,1,Male,23,anonymized,Serial_Dependence_U,2023.2.3,Win32,59.88023952,,,,,,,,,,,,526.7236,1.0,526.725,,,,529.4727,529.9721,528.9561,529.4727,527.7404,129.0,528.956,529.9721,530.4723,530.4723,536.4907,9999.0,536.4913,0.0,537.4891,1.0,13.0,43.0,2.0,1.0,1.2,0.3,Time
,,S29,1,Male,23,anonymized,Serial_Dependence_U,2023.2.3,Win32,59.88023952,,,,,,,,,,,,537.4898,1.0,537.4903,,,,540.6387,541.1391,540.1226,540.6386,538.5057,243.0,540.1225,541.1391,541.6384,541.6385,547.64,9999.0,547.6408,0.0,548.6379,1.0,14.0,44.0,29.0,1.0,1.6,0.7,Time
,,S29,1,Male,23,anonymized,Serial_Dependence_U,2023.2.3,Win32,59.88023952,,,,,,,,,,,,548.6386,1.0,548.639,,,,551.5755,552.0746,551.061,551.5753,549.6453,297.0,551.0607,552.0747,552.5707,552.5708,558.5878,9999.0,558.5885,0.0,559.5872,1.0,15.0,45.0,18.0,1.0,1.4,0.7,Time
,,S29,1,Male,23,anonymized,Serial_Dependence_U,2023.2.3,Win32,59.88023952,,,,,,,,,,,,559.5877,1.0,559.5883,,,,562.7379,563.2368,562.2215,562.7375,560.605,27.0,562.2211,563.2369,563.737,563.737,569.7544,9999.0,569.7553,0.0,570.7532,1.0,16.0,46.0,9.0,1.0,1.6,0.7,Time
,,S29,1,Male,23,anonymized,Serial_Dependence_U,2023.2.3,Win32,59.88023952,,,,,,,,,,,,570.7561,1.0,570.7566,,,,573.1039,573.6028,572.5867,573.1036,571.771,279.0,572.5863,573.6028,574.1026,574.1026,580.1195,9999.0,580.1202,0.0,581.1189,1.0,17.0,47.0,5.0,1.0,0.8,0.7,Time
,,S29,1,Male,23,anonymized,Serial_Dependence_U,2023.2.3,Win32,59.88023952,,,,,,,,,,,,581.1195,1.0,581.1201,,,,583.8707,584.3599,583.353,583.8702,582.1364,253.0,583.3527,584.3601,584.8588,584.8592,590.8736,9999.0,590.8738,0.0,591.8736,1.0,18.0,48.0,27.0,1.0,1.2,0.7,Time
,,S29,1,Male,23,anonymized,Serial_Dependence_U,2023.2.3,Win32,59.88023952,,,,,,,,,,,,591.8741,1.0,591.8744,,,,594.4191,594.9181,593.9041,594.4187,592.8886,338.0,593.9035,594.9181,595.4201,595.4208,601.435,9999.0,601.4357,0.0,602.4341,1.0,19.0,49.0,16.0,1.0,1.0,0.7,Time
,,S29,1,Male,23,anonymized,Serial_Dependence_U,2023.2.3,Win32,59.88023952,,,,,,,,,,,,602.4347,1.0,602.4357,,,,605.1679,605.6675,604.6516,605.1677,603.4385,257.0,604.6513,605.6676,606.1673,606.1673,612.184,9999.0,612.1847,0.0,613.183,1.0,20.0,50.0,22.0,1.0,1.2,0.3,Time
,,S29,1,Male,23,anonymized,Serial_Dependence_U,2023.2.3,Win32,59.88023952,,,,,,,,,,,,613.1835,1.0,613.1842,,,,616.3176,616.8165,615.8006,616.3172,614.1877,306.0,615.8003,616.8165,617.3185,617.3187,623.3335,9999.0,623.3343,0.0,624.3329,1.0,21.0,51.0,14.0,1.0,1.6,0.3,Time
,,S29,1,Male,23,anonymized,Serial_Dependence_U,2023.2.3,Win32,59.88023952,,,,,,,,,,,,624.3341,1.0,624.3351,,,,626.6835,627.1823,626.1667,626.6832,625.3498,254.0,626.1664,627.1823,627.6822,627.6822,633.6992,9999.0,633.6999,0.0,634.7023,1.0,22.0,52.0,0.0,1.0,0.8,0.3,Time
,,S29,1,Male,23,anonymized,Serial_Dependence_U,2023.2.3,Win32,59.88023952,,,,,,,,,,,,634.7028,1.0,634.7031,,,,637.2494,637.7498,636.7328,637.2492,635.7163,242.0,636.7324,637.7498,638.2483,638.2484,644.2663,9999.0,644.2672,0.0,645.2647,1.0,23.0,53.0,1.0,1.0,1.0,0.3,Time
,,S29,1,Male,23,anonymized,Serial_Dependence_U,2023.2.3,Win32,59.88023952,,,,,,,,,,,,645.2657,1.0,645.2664,,,,648.4149,648.9143,647.8986,648.4146,646.2845,136.0,647.8982,648.9143,649.4142,649.4142,655.4307,9999.0,655.4313,0.0,656.4306,1.0,24.0,54.0,4.0,1.0,1.6,0.3,Time
,,S29,1,Male,23,anonymized,Serial_Dependence_U,2023.2.3,Win32,59.88023952,,,,,,,,,,,,656.4324,1.0,656.4333,,,,659.3809,659.8801,658.8641,659.3807,657.448,90.0,658.8637,659.8801,660.3801,660.3802,666.3996,9999.0,666.4001,0.0,667.3961,1.0,25.0,55.0,13.0,1.0,1.4,0.3,Time
,,S29,1,Male,23,anonymized,Serial_Dependence_U,2023.2.3,Win32,59.88023952,,,,,,,,,,,,667.3975,1.0,667.3983,,,,669.7349,670.2328,669.2308,669.7348,668.4145,200.0,669.2304,670.2329,670.7333,670.7333,676.746,9999.0,676.7469,0.0,677.7455,1.0,26.0,56.0,25.0,1.0,0.8,0.7,Time
,,S29,1,Male,23,anonymized,Serial_Dependence_U,2023.2.3,Win32,59.88023952,,,,,,,,,,,,677.7462,1.0,677.747,,,,680.4995,680.9954,679.9795,680.4994,678.763,0.0,679.9792,680.9955,681.4962,681.4963,687.5119,9999.0,687.513,0.0,688.5115,1.0,27.0,57.0,17.0,1.0,1.2,0.7,Time
,,S29,1,Male,23,anonymized,Serial_Dependence_U,2023.2.3,Win32,59.88023952,,,,,,,,,,,,688.5123,1.0,688.5129,,,,691.4622,691.961,690.9457,691.4619,689.5287,322.0,690.9454,691.961,692.461,692.461,698.4793,9999.0,698.4809,0.0,699.4773,1.0,28.0,58.0,23.0,1.0,1.4,0.3,Time
,,S29,1,Male,23,anonymized,Serial_Dependence_U,2023.2.3,Win32,59.88023952,,,,,,,,,,,,699.4781,1.0,699.4789,,,,702.4279,702.927,701.9118,702.4276,700.4953,245.0,701.9115,702.927,703.427,703.4271,709.4294,9999.0,709.4295,0.0,710.4265,1.0,29.0,59.0,8.0,1.0,1.4,0.7,Time
,,S29,1,Male,23,anonymized,Serial_Dependence_U,2023.2.3,Win32,59.88023952,,,,,,,,,,,,710.427,2.0,735.7434,s,25.3011,,738.2925,738.7911,737.7758,738.2922,736.7602,237.0,737.7754,738.7912,739.2911,739.2911,745.3081,9999.0,745.3087,0.0,746.31,2.0,0.0,60.0,16.0,1.0,1.0,0.7,Time
,,S29,1,Male,23,anonymized,Serial_Dependence_U,2023.2.3,Win32,59.88023952,,,,,,,,,,,,746.3125,2.0,746.3198,,,,749.4612,749.9573,748.9412,749.4612,747.3262,35.0,748.9408,749.9573,750.457,750.4571,756.4743,9999.0,756.475,0.0,757.4734,2.0,1.0,61.0,19.0,1.0,1.6,0.7,Time
,,S29,1,Male,23,anonymized,Serial_Dependence_U,2023.2.3,Win32,59.88023952,,,,,,,,,,,,757.4744,2.0,757.4752,,,,760.4072,760.9061,759.894,760.4069,758.4906,299.0,759.8939,760.9061,761.4063,761.4064,767.4229,9999.0,767.4236,0.0,768.423,2.0,2.0,62.0,18.0,1.0,1.4,0.7,Time
,,S29,1,Male,23,anonymized,Serial_Dependence_U,2023.2.3,Win32,59.88023952,,,,,,,,,,,,768.4275,2.0,768.4279,,,,770.9729,771.4722,770.4568,770.9726,769.4397,146.0,770.4564,771.4722,771.9722,771.9723,777.9892,9999.0,777.9899,0.0,778.9884,2.0,3.0,63.0,26.0,1.0,1.0,0.7,Time
,,S29,1,Male,23,anonymized,Serial_Dependence_U,2023.2.3,Win32,59.88023952,,,,,,,,,,,,778.9893,2.0,778.9903,,,,781.3393,781.839,780.8221,781.339,780.0057,204.0,780.8218,781.8392,782.341,782.3414,788.3554,9999.0,788.356,0.0,789.3563,2.0,4.0,64.0,10.0,1.0,0.8,0.3,Time
,,S29,1,Male,23,anonymized,Serial_Dependence_U,2023.2.3,Win32,59.88023952,,,,,,,,,,,,789.3581,2.0,789.3587,,,,792.1089,792.6064,791.5925,792.1088,790.3741,259.0,791.5924,792.6066,793.1096,793.1096,799.1207,9999.0,799.1214,0.0,800.1201,2.0,5.0,65.0,17.0,1.0,1.2,0.7,Time
,,S29,1,Male,23,anonymized,Serial_Dependence_U,2023.2.3,Win32,59.88023952,,,,,,,,,,,,800.1208,2.0,800.1214,,,,803.2709,803.7699,802.7545,803.2707,801.1375,271.0,802.7542,803.7699,804.2698,804.2699,810.2864,9999.0,810.287,0.0,811.2868,2.0,6.0,66.0,14.0,1.0,1.6,0.3,Time
,,S29,1,Male,23,anonymized,Serial_Dependence_U,2023.2.3,Win32,59.88023952,,,,,,,,,,,,811.2881,2.0,811.2887,,,,814.0368,814.5359,813.5198,814.0365,812.3033,92.0,813.5195,814.5359,815.0359,815.0359,821.0527,9999.0,821.0535,0.0,822.0527,2.0,7.0,67.0,2.0,1.0,1.2,0.3,Time
,,S29,1,Male,23,anonymized,Serial_Dependence_U,2023.2.3,Win32,59.88023952,,,,,,,,,,,,822.0539,2.0,822.0548,,,,824.4027,824.9016,823.886,824.4024,823.0693,283.0,823.8857,824.9016,825.4028,825.4031,831.4226,9999.0,831.423,0.0,832.4179,2.0,8.0,68.0,0.0,1.0,0.8,0.3,Time
,,S29,1,Male,23,anonymized,Serial_Dependence_U,2023.2.3,Win32,59.88023952,,,,,,,,,,,,832.4189,2.0,832.4196,,,,835.1558,835.6583,834.6402,835.1557,833.4352,207.0,834.64,835.659,836.1512,836.1512,842.1677,9999.0,842.168,0.0,843.1667,2.0,9.0,69.0,27.0,1.0,1.2,0.7,Time
,,S29,1,Male,23,anonymized,Serial_Dependence_U,2023.2.3,Win32,59.88023952,,,,,,,,,,,,843.1672,2.0,843.1674,,,,846.3015,846.8,845.8004,846.3013,844.1839,191.0,845.8003,846.8,847.3003,847.3004,853.3179,9999.0,853.3187,0.0,854.317,2.0,10.0,70.0,9.0,1.0,1.6,0.7,Time
,,S29,1,Male,23,anonymized,Serial_Dependence_U,2023.2.3,Win32,59.88023952,,,,,,,,,,,,854.3179,2.0,854.3181,,,,856.6668,857.166,856.1501,856.6667,855.3347,97.0,856.15,857.1661,857.666,857.6661,863.6829,9999.0,863.6832,0.0,864.6824,2.0,11.0,71.0,25.0,1.0,0.8,0.7,Time
,,S29,1,Male,23,anonymized,Serial_Dependence_U,2023.2.3,Win32,59.88023952,,,,,,,,,,,,864.6832,2.0,864.6836,,,,867.6334,868.1321,867.1161,867.6333,865.6992,188.0,867.116,868.1321,868.632,868.6321,874.6485,9999.0,874.6488,0.0,875.6484,2.0,12.0,72.0,8.0,1.0,1.4,0.7,Time
,,S29,1,Male,23,anonymized,Serial_Dependence_U,2023.2.3,Win32,59.88023952,,,,,,,,,,,,875.6494,2.0,875.6498,,,,878.5982,879.0979,878.0829,878.5982,876.6652,56.0,878.0827,879.0979,879.5979,879.5979,885.6146,9999.0,885.6149,0.0,886.6142,2.0,13.0,73.0,13.0,1.0,1.4,0.3,Time
,,S29,1,Male,23,anonymized,Serial_Dependence_U,2023.2.3,Win32,59.88023952,,,,,,,,,,,,886.6151,2.0,886.6155,,,,889.1643,889.6638,888.6476,889.1642,887.6321,189.0,888.6475,889.6638,890.1637,890.1639,896.1805,9999.0,896.1808,0.0,897.1803,2.0,14.0,74.0,1.0,1.0,1.0,0.3,Time
,,S29,1,Male,23,anonymized,Serial_Dependence_U,2023.2.3,Win32,59.88023952,,,,,,,,,,,,897.1811,2.0,897.1817,,,,900.1309,900.6299,899.6133,900.1308,898.1971,130.0,899.6133,900.63,901.1299,901.13,907.1467,9999.0,907.1473,0.0,908.146,2.0,15.0,75.0,23.0,1.0,1.4,0.3,Time
,,S29,1,Male,23,anonymized,Serial_Dependence_U,2023.2.3,Win32,59.88023952,,,,,,,,,,,,908.1468,2.0,908.1472,,,,911.2962,911.7964,910.7793,911.296,909.164,91.0,910.7792,911.7965,912.2958,912.2959,918.3122,9999.0,918.3123,0.0,919.312,2.0,16.0,76.0,4.0,1.0,1.6,0.3,Time
,,S29,1,Male,23,anonymized,Serial_Dependence_U,2023.2.3,Win32,59.88023952,,,,,,,,,,,,919.3129,2.0,919.3133,,,,922.4463,922.9449,921.9292,922.4462,920.3285,2.0,921.9292,922.9449,923.4447,923.4447,929.4611,9999.0,929.4613,0.0,930.4605,2.0,17.0,77.0,29.0,1.0,1.6,0.7,Time
,,S29,1,Male,23,anonymized,Serial_Dependence_U,2023.2.3,Win32,59.88023952,,,,,,,,,,,,930.4611,2.0,930.4615,,,,933.2109,933.7107,932.6944,933.2108,931.4781,290.0,932.6943,933.7108,934.2109,934.211,940.2273,9999.0,940.2278,0.0,941.2276,2.0,18.0,78.0,7.0,1.0,1.2,0.7,Time
,,S29,1,Male,23,anonymized,Serial_Dependence_U,2023.2.3,Win32,59.88023952,,,,,,,,,,,,941.2287,2.0,941.2295,,,,943.777,944.2763,943.2614,943.7769,942.244,273.0,943.2613,944.2764,944.7767,944.7767,950.7873,9999.0,950.7876,0.0,951.7766,2.0,19.0,79.0,21.0,1.0,1.0,0.3,Time
,,S29,1,Male,23,anonymized,Serial_Dependence_U,2023.2.3,Win32,59.88023952,,,,,,,,,,,,951.7771,2.0,951.7776,,,,954.7144,955.2098,954.2094,954.7137,952.7937,170.0,954.2093,955.2099,955.7115,955.7116,961.7257,9999.0,961.7258,0.0,962.7256,2.0,20.0,80.0,28.0,1.0,1.4,0.7,Time
,,S29,1,Male,23,anonymized,Serial_Dependence_U,2023.2.3,Win32,59.88023952,,,,,,,,,,,,962.7264,2.0,962.727,,,,965.0758,965.5748,964.5597,965.0755,963.7426,254.0,964.5594,965.5748,966.0748,966.0748,972.0918,9999.0,972.092,0.0,973.0911,2.0,21.0,81.0,20.0,1.0,0.8,0.3,Time
,,S29,1,Male,23,anonymized,Serial_Dependence_U,2023.2.3,Win32,59.88023952,,,,,,,,,,,,973.0916,2.0,973.092,,,,975.6256,976.1241,975.1096,975.6254,974.1083,222.0,975.1095,976.1241,976.6262,976.6264,982.6418,9999.0,982.6421,0.0,983.6408,2.0,22.0,82.0,6.0,1.0,1.0,0.7,Time
,,S29,1,Male,23,anonymized,Serial_Dependence_U,2023.2.3,Win32,59.88023952,,,,,,,,,,,,983.6417,2.0,983.6423,,,,986.7906,987.2902,986.2743,986.7905,984.6573,107.0,986.2743,987.2903,987.7905,987.7905,993.8093,9999.0,993.8099,0.0,994.8071,2.0,23.0,83.0,24.0,1.0,1.6,0.3,Time
,,S29,1,Male,23,anonymized,Serial_Dependence_U,2023.2.3,Win32,59.88023952,,,,,,,,,,,,994.808,2.0,994.8087,,,,997.7578,998.2562,997.2401,997.7577,995.8257,231.0,997.2401,998.2562,998.7566,998.7568,1004.7728,9999.0,1004.7731,0.0,1005.773,2.0,24.0,84.0,3.0,1.0,1.4,0.3,Time
,,S29,1,Male,23,anonymized,Serial_Dependence_U,2023.2.3,Win32,59.88023952,,,,,,,,,,,,1005.7743,2.0,1005.775,,,,1008.1228,1008.6226,1007.6059,1008.1227,1006.7894,84.0,1007.6057,1008.6227,1009.1225,1009.1225,1015.1396,9999.0,1015.1399,0.0,1016.1385,2.0,25.0,85.0,15.0,1.0,0.8,0.7,Time
,,S29,1,Male,23,anonymized,Serial_Dependence_U,2023.2.3,Win32,59.88023952,,,,,,,,,,,,1016.1393,2.0,1016.1398,,,,1018.8883,1019.3884,1018.3723,1018.8882,1017.1554,219.0,1018.3722,1019.3884,1019.8885,1019.8886,1025.9042,9999.0,1025.9044,0.0,1026.9043,2.0,26.0,86.0,22.0,1.0,1.2,0.3,Time
,,S29,1,Male,23,anonymized,Serial_Dependence_U,2023.2.3,Win32,59.88023952,,,,,,,,,,,,1026.9053,2.0,1026.9059,,,,1029.6389,1030.1377,1029.1223,1029.6388,1027.9211,171.0,1029.1223,1030.1378,1030.6377,1030.6379,1036.6549,9999.0,1036.6554,0.0,1037.6535,2.0,27.0,87.0,12.0,1.0,1.2,0.3,Time
,,S29,1,Male,23,anonymized,Serial_Dependence_U,2023.2.3,Win32,59.88023952,,,,,,,,,,,,1037.6544,2.0,1037.6549,,,,1040.005,1040.5029,1039.487,1040.0047,1038.6705,323.0,1039.487,1040.5029,1041.0037,1041.0038,1047.0201,9999.0,1047.0203,0.0,1048.0194,2.0,28.0,88.0,5.0,1.0,0.8,0.7,Time
,,S29,1,Male,23,anonymized,Serial_Dependence_U,2023.2.3,Win32,59.88023952,,,,,,,,,,,,1048.0205,2.0,1048.021,,,,1050.5697,1051.0697,1050.0537,1050.5696,1049.0377,65.0,1050.0535,1051.0697,1051.5691,1051.5692,1057.5857,9999.0,1057.5858,0.0,1058.5856,2.0,29.0,89.0,11.0,1.0,1.0,0.3,Time
,,S29,1,Male,23,anonymized,Serial_Dependence_U,2023.2.3,Win32,59.88023952,,,,,,,,,,,,1058.5864,3.0,1065.6347,s,7.0181,,1068.5567,1069.0517,1068.0543,1068.5566,1066.6521,155.0,1068.0542,1069.0518,1069.5516,1069.5517,1075.5555,9999.0,1075.5557,0.0,1076.5556,3.0,0.0,90.0,23.0,1.0,1.4,0.3,Time
,,S29,1,Male,23,anonymized,Serial_Dependence_U,2023.2.3,Win32,59.88023952,,,,,,,,,,,,1076.5562,3.0,1076.5592,,,,1079.501,1080.0003,1078.9844,1079.5009,1077.5719,270.0,1078.9843,1080.0004,1080.5003,1080.5004,1086.5167,9999.0,1086.5169,0.0,1087.5163,3.0,1.0,91.0,8.0,1.0,1.4,0.7,Time
,,S29,1,Male,23,anonymized,Serial_Dependence_U,2023.2.3,Win32,59.88023952,,,,,,,,,,,,1087.517,3.0,1087.5173,,,,1090.6499,1091.1496,1090.1356,1090.6498,1088.518,28.0,1090.1355,1091.1496,1091.6495,1091.6496,1097.6509,9999.0,1097.6512,0.0,1098.6495,3.0,2.0,92.0,24.0,1.0,1.6,0.3,Time
,,S29,1,Male,23,anonymized,Serial_Dependence_U,2023.2.3,Win32,59.88023952,,,,,,,,,,,,1098.6499,3.0,1098.6504,,,,1100.9995,1101.4991,1100.4837,1100.9994,1099.6669,274.0,1100.4836,1101.4991,1101.9984,1101.9985,1108.0158,9999.0,1108.0165,0.0,1109.0151,3.0,3.0,93.0,15.0,1.0,0.8,0.7,Time
,,S29,1,Male,23,anonymized,Serial_Dependence_U,2023.2.3,Win32,59.88023952,,,,,,,,,,,,1109.0157,3.0,1109.0163,,,,1111.366,1111.8647,1110.8492,1111.3657,1110.0325,323.0,1110.8489,1111.8647,1112.3646,1112.3646,1118.3815,9999.0,1118.3824,0.0,1119.381,3.0,4.0,94.0,10.0,1.0,0.8,0.3,Time
,,S29,1,Male,23,anonymized,Serial_Dependence_U,2023.2.3,Win32,59.88023952,,,,,,,,,,,,1119.3817,3.0,1119.3826,,,,1122.1322,1122.6307,1121.6157,1122.1318,1120.3987,106.0,1121.6153,1122.6307,1123.131,1123.1312,1129.1347,9999.0,1129.1351,0.0,1130.1332,3.0,5.0,95.0,27.0,1.0,1.2,0.7,Time
,,S29,1,Male,23,anonymized,Serial_Dependence_U,2023.2.3,Win32,59.88023952,,,,,,,,,,,,1130.1345,3.0,1130.135,,,,1132.8816,1133.3798,1132.3639,1132.8812,1131.1512,346.0,1132.3637,1133.3798,1133.8798,1133.8799,1139.8967,9999.0,1139.8973,0.0,1140.8966,3.0,6.0,96.0,22.0,1.0,1.2,0.3,Time
,,S29,1,Male,23,anonymized,Serial_Dependence_U,2023.2.3,Win32,59.88023952,,,,,,,,,,,,1140.8975,3.0,1140.898,,,,1143.6468,1144.146,1143.1302,1143.6466,1141.9143,322.0,1143.1298,1144.146,1144.646,1144.646,1150.6624,9999.0,1150.6631,0.0,1151.6627,3.0,7.0,97.0,7.0,1.0,1.2,0.7,Time
,,S29,1,Male,23,anonymized,Serial_Dependence_U,2023.2.3,Win32,59.88023952,,,,,,,,,,,,1151.6642,3.0,1151.665,,,,1154.3994,1154.8952,1153.8962,1154.3992,1152.6796,205.0,1153.8959,1154.8953,1155.3965,1155.3967,1161.4148,9999.0,1161.4156,0.0,1162.4131,3.0,8.0,98.0,17.0,1.0,1.2,0.7,Time
,,S29,1,Male,23,anonymized,Serial_Dependence_U,2023.2.3,Win32,59.88023952,,,,,,,,,,,,1162.4152,3.0,1162.4156,,,,1164.9455,1165.4461,1164.4346,1164.9452,1163.4312,81.0,1164.4343,1165.4463,1165.9448,1165.9449,1171.9611,9999.0,1171.9619,0.0,1172.9604,3.0,9.0,99.0,16.0,1.0,1.0,0.7,Time
,,S29,1,Male,23,anonymized,Serial_Dependence_U,2023.2.3,Win32,59.88023952,,,,,,,,,,,,1172.9611,3.0,1172.9618,,,,1175.9129,1176.4112,1175.3944,1175.9126,1173.9782,206.0,1175.3942,1176.4112,1176.9106,1176.9106,1182.9273,9999.0,1182.928,0.0,1183.927,3.0,10.0,100.0,3.0,1.0,1.4,0.3,Time
,,S29,1,Male,23,anonymized,Serial_Dependence_U,2023.2.3,Win32,59.88023952,,,,,,,,,,,,1183.9285,3.0,1183.9296,,,,1186.2776,1186.7759,1185.7604,1186.2772,1184.944,91.0,1185.7601,1186.776,1187.2762,1187.2763,1193.2834,9999.0,1193.284,0.0,1194.2806,3.0,11.0,101.0,0.0,1.0,0.8,0.3,Time
,,S29,1,Male,23,anonymized,Serial_Dependence_U,2023.2.3,Win32,59.88023952,,,,,,,,,,,,1194.2823,3.0,1194.2833,,,,1196.6288,1197.12,1196.116,1196.6286,1195.3012,73.0,1196.1159,1197.12,1197.6147,1197.6147,1203.6257,9999.0,1203.6265,0.0,1204.6251,3.0,12.0,102.0,25.0,1.0,0.8,0.7,Time
,,S29,1,Male,23,anonymized,Serial_Dependence_U,2023.2.3,Win32,59.88023952,,,,,,,,,,,,1204.6259,3.0,1204.6266,,,,1207.1762,1207.6754,1206.6589,1207.1759,1205.642,180.0,1206.6585,1207.6754,1208.1755,1208.1756,1214.192,9999.0,1214.1927,0.0,1215.191,3.0,13.0,103.0,6.0,1.0,1.0,0.7,Time
,,S29,1,Male,23,anonymized,Serial_Dependence_U,2023.2.3,Win32,59.88023952,,,,,,,,,,,,1215.1918,3.0,1215.1927,,,,1217.9306,1218.4262,1217.4252,1217.9305,1216.2083,316.0,1217.4249,1218.4264,1218.9286,1218.9287,1224.9411,9999.0,1224.9419,0.0,1225.9401,3.0,14.0,104.0,12.0,1.0,1.2,0.3,Time
,,S29,1,Male,23,anonymized,Serial_Dependence_U,2023.2.3,Win32,59.88023952,,,,,,,,,,,,1225.9411,3.0,1225.9417,,,,1229.0913,1229.5899,1228.5739,1229.091,1226.9579,323.0,1228.5735,1229.59,1230.0899,1230.09,1236.1067,9999.0,1236.1074,0.0,1237.1073,3.0,15.0,105.0,9.0,1.0,1.6,0.7,Time
,,S29,1,Male,23,anonymized,Serial_Dependence_U,2023.2.3,Win32,59.88023952,,,,,,,,,,,,1237.1087,3.0,1237.1098,,,,1239.6402,1240.1403,1239.125,1239.6398,1238.1111,163.0,1239.1245,1240.1404,1240.6395,1240.6396,1246.6559,9999.0,1246.6566,0.0,1247.6555,3.0,16.0,106.0,11.0,1.0,1.0,0.3,Time
,,S29,1,Male,23,anonymized,Serial_Dependence_U,2023.2.3,Win32,59.88023952,,,,,,,,,,,,1247.6563,3.0,1247.6569,,,,1250.6059,1251.1052,1250.0897,1250.6056,1248.673,299.0,1250.0894,1251.1053,1251.6051,1251.6051,1257.6222,9999.0,1257.6229,0.0,1258.6232,3.0,17.0,107.0,28.0,1.0,1.4,0.7,Time
,,S29,1,Male,23,anonymized,Serial_Dependence_U,2023.2.3,Win32,59.88023952,,,,,,,,,,,,1258.6246,3.0,1258.6247,,,,1261.7718,1262.2717,1261.255,1261.7715,1259.6389,68.0,1261.2548,1262.2717,1262.772,1262.7722,1268.7878,9999.0,1268.7886,0.0,1269.7878,3.0,18.0,108.0,14.0,1.0,1.6,0.3,Time
,,S29,1,Male,23,anonymized,Serial_Dependence_U,2023.2.3,Win32,59.88023952,,,,,,,,,,,,1269.7891,3.0,1269.7898,,,,1272.938,1273.442,1272.4212,1272.9377,1270.8047,254.0,1272.4208,1273.4421,1273.937,1273.9372,1279.9586,9999.0,1279.9589,0.0,1280.9531,3.0,19.0,109.0,29.0,1.0,1.6,0.7,Time
,,S29,1,Male,23,anonymized,Serial_Dependence_U,2023.2.3,Win32,59.88023952,,,,,,,,,,,,1280.9539,3.0,1280.9546,,,,1283.3036,1283.8028,1282.787,1283.3033,1281.9702,168.0,1282.7867,1283.8029,1284.3028,1284.3028,1290.3197,9999.0,1290.3204,0.0,1291.3191,3.0,20.0,110.0,5.0,1.0,0.8,0.7,Time
,,S29,1,Male,23,anonymized,Serial_Dependence_U,2023.2.3,Win32,59.88023952,,,,,,,,,,,,1291.3204,3.0,1291.3211,,,,1294.4699,1294.9687,1293.9525,1294.4693,1292.3371,340.0,1293.9522,1294.9687,1295.4685,1295.4686,1301.4855,9999.0,1301.4861,0.0,1302.485,3.0,21.0,111.0,4.0,1.0,1.6,0.3,Time
,,S29,1,Male,23,anonymized,Serial_Dependence_U,2023.2.3,Win32,59.88023952,,,,,,,,,,,,1302.486,3.0,1302.4868,,,,1304.8359,1305.3353,1304.3188,1304.8356,1303.5031,60.0,1304.3185,1305.3353,1305.8353,1305.8353,1311.8527,9999.0,1311.8531,0.0,1312.8516,3.0,22.0,112.0,20.0,1.0,0.8,0.3,Time
,,S29,1,Male,23,anonymized,Serial_Dependence_U,2023.2.3,Win32,59.88023952,,,,,,,,,,,,1312.8529,3.0,1312.8534,,,,1315.3883,1315.8887,1314.8708,1315.3881,1313.8686,345.0,1314.8706,1315.8887,1316.3861,1316.3861,1322.3872,9999.0,1322.3877,0.0,1323.3831,3.0,23.0,113.0,1.0,1.0,1.0,0.3,Time
,,S29,1,Male,23,anonymized,Serial_Dependence_U,2023.2.3,Win32,59.88023952,,,,,,,,,,,,1323.3835,3.0,1323.384,,,,1325.9333,1326.4327,1325.4168,1325.9332,1324.4015,349.0,1325.4167,1326.4327,1326.9334,1326.9335,1332.9497,9999.0,1332.95,0.0,1333.9491,3.0,24.0,114.0,26.0,1.0,1.0,0.7,Time
,,S29,1,Male,23,anonymized,Serial_Dependence_U,2023.2.3,Win32,59.88023952,,,,,,,,,,,,1333.9498,3.0,1333.9501,,,,1336.8995,1337.399,1336.3837,1336.8994,1334.9664,261.0,1336.3835,1337.3991,1337.8996,1337.8998,1343.9156,9999.0,1343.916,0.0,1344.9154,3.0,25.0,115.0,13.0,1.0,1.4,0.3,Time
,,S29,1,Male,23,anonymized,Serial_Dependence_U,2023.2.3,Win32,59.88023952,,,,,,,,,,,,1344.9162,3.0,1344.9185,,,,1348.0515,1348.5481,1347.5322,1348.051,1345.9173,257.0,1347.5322,1348.5482,1349.0482,1349.0482,1355.0496,9999.0,1355.0498,0.0,1356.051,3.0,26.0,116.0,19.0,1.0,1.6,0.7,Time
,,S29,1,Male,23,anonymized,Serial_Dependence_U,2023.2.3,Win32,59.88023952,,,,,,,,,,,,1356.0529,3.0,1356.054,,,,1358.5981,1359.0975,1358.0816,1358.598,1357.0647,196.0,1358.0815,1359.0975,1359.5973,1359.5974,1365.5993,9999.0,1365.5996,0.0,1366.5967,3.0,27.0,117.0,21.0,1.0,1.0,0.3,Time
,,S29,1,Male,23,anonymized,Serial_Dependence_U,2023.2.3,Win32,59.88023952,,,,,,,,,,,,1366.5974,3.0,1366.5977,,,,1369.5315,1370.0303,1369.0141,1369.5315,1367.5984,247.0,1369.014,1370.0303,1370.5299,1370.53,1376.5325,9999.0,1376.5332,0.0,1377.5297,3.0,28.0,118.0,18.0,1.0,1.4,0.7,Time
,,S29,1,Male,23,anonymized,Serial_Dependence_U,2023.2.3,Win32,59.88023952,,,,,,,,,,,,1377.5308,3.0,1377.5313,,,,1380.2796,1380.7789,1379.7629,1380.2796,1378.5467,165.0,1379.7629,1380.7789,1381.2795,1381.2796,1387.2956,9999.0,1387.2958,0.0,1388.2956,3.0,29.0,119.0,2.0,1.0,1.2,0.3,Time
,,S29,1,Male,23,anonymized,Serial_Dependence_U,2023.2.3,Win32,59.88023952,,,,,,,,,,,,1388.2964,4.0,1432.7589,s,44.4367,,1435.709,1436.2082,1435.1925,1435.7089,1433.7756,108.0,1435.1924,1436.2083,1436.7084,1436.7084,1442.7121,9999.0,1442.7125,0.0,1443.7092,4.0,0.0,120.0,13.0,1.0,1.4,0.3,Time
,,S29,1,Male,23,anonymized,Serial_Dependence_U,2023.2.3,Win32,59.88023952,,,,,,,,,,,,1443.7097,4.0,1443.7162,,,,1446.8581,1447.3578,1446.3415,1446.858,1444.7254,352.0,1446.3414,1447.3579,1447.8705,1447.8705,1453.8745,9999.0,1453.8747,0.0,1454.8738,4.0,1.0,121.0,24.0,1.0,1.6,0.3,Time
,,S29,1,Male,23,anonymized,Serial_Dependence_U,2023.2.3,Win32,59.88023952,,,,,,,,,,,,1454.8743,4.0,1454.8746,,,,1457.2242,1457.7234,1456.7081,1457.2242,1455.8911,109.0,1456.7078,1457.7234,1458.2238,1458.2238,1464.2415,9999.0,1464.2419,0.0,1465.2407,4.0,2.0,122.0,10.0,1.0,0.8,0.3,Time
,,S29,1,Male,23,anonymized,Serial_Dependence_U,2023.2.3,Win32,59.88023952,,,,,,,,,,,,1465.2416,4.0,1465.243,,,,1467.9903,1468.4898,1467.4745,1467.9903,1466.259,193.0,1467.4743,1468.4898,1468.9893,1468.9893,1475.0071,9999.0,1475.0073,0.0,1476.0056,4.0,3.0,123.0,2.0,1.0,1.2,0.3,Time
,,S29,1,Male,23,anonymized,Serial_Dependence_U,2023.2.3,Win32,59.88023952,,,,,,,,,,,,1476.0061,4.0,1476.0065,,,,1478.9402,1479.4389,1478.4392,1478.94,1477.0229,147.0,1478.439,1479.4389,1479.9389,1479.9389,1485.9397,9999.0,1485.9402,0.0,1486.9381,4.0,4.0,124.0,8.0,1.0,1.4,0.7,Time
,,S29,1,Male,23,anonymized,Serial_Dependence_U,2023.2.3,Win32,59.88023952,,,,,,,,,,,,1486.9386,4.0,1486.9389,,,,1490.0889,1490.5881,1489.5724,1490.0888,1487.9553,10.0,1489.5723,1490.5882,1491.0883,1491.0883,1497.1052,9999.0,1497.1054,0.0,1498.1048,4.0,5.0,125.0,29.0,1.0,1.6,0.7,Time
,,S29,1,Male,23,anonymized,Serial_Dependence_U,2023.2.3,Win32,59.88023952,,,,,,,,,,,,1498.1059,4.0,1498.1065,,,,1500.8379,1501.3377,1500.3228,1500.8378,1499.1213,324.0,1500.3226,1501.3378,1501.8375,1501.8376,1507.8537,9999.0,1507.8539,0.0,1508.8534,4.0,6.0,126.0,27.0,1.0,1.2,0.7,Time
,,S29,1,Male,23,anonymized,Serial_Dependence_U,2023.2.3,Win32,59.88023952,,,,,,,,,,,,1508.8538,4.0,1508.8541,,,,1511.2055,1511.7035,1510.6883,1511.2051,1509.8715,215.0,1510.688,1511.7037,1512.2034,1512.2034,1518.2203,9999.0,1518.221,0.0,1519.2209,4.0,7.0,127.0,5.0,1.0,0.8,0.7,Time
,,S29,1,Male,23,anonymized,Serial_Dependence_U,2023.2.3,Win32,59.88023952,,,,,,,,,,,,1519.2229,4.0,1519.2239,,,,1521.9424,1522.4359,1521.4268,1521.9422,1520.2249,252.0,1521.4265,1522.436,1522.9359,1522.936,1528.9533,9999.0,1528.9538,0.0,1529.9523,4.0,8.0,128.0,17.0,1.0,1.2,0.7,Time
,,S29,1,Male,23,anonymized,Serial_Dependence_U,2023.2.3,Win32,59.88023952,,,,,,,,,,,,1529.9536,4.0,1529.9543,,,,1532.5023,1533.0017,1531.9858,1532.5021,1530.9698,258.0,1531.9855,1533.0017,1533.5019,1533.502,1539.5189,9999.0,1539.5195,0.0,1540.5182,4.0,9.0,129.0,16.0,1.0,1.0,0.7,Time
,,S29,1,Male,23,anonymized,Serial_Dependence_U,2023.2.3,Win32,59.88023952,,,,,,,,,,,,1540.5189,4.0,1540.5198,,,,1543.469,1543.9686,1542.9519,1543.4686,1541.5356,342.0,1542.9516,1543.9686,1544.4687,1544.4688,1550.4855,9999.0,1550.4864,0.0,1551.4845,4.0,10.0,130.0,23.0,1.0,1.4,0.3,Time
,,S29,1,Male,23,anonymized,Serial_Dependence_U,2023.2.3,Win32,59.88023952,,,,,,,,,,,,1551.4858,4.0,1551.4866,,,,1554.6342,1555.1336,1554.1177,1554.634,1552.502,325.0,1554.1175,1555.1337,1555.6337,1555.6337,1561.6412,9999.0,1561.642,0.0,1562.6352,4.0,11.0,131.0,14.0,1.0,1.6,0.3,Time
,,S29,1,Male,23,anonymized,Serial_Dependence_U,2023.2.3,Win32,59.88023952,,,,,,,,,,,,1562.6358,4.0,1562.6361,,,,1565.1557,1565.6528,1564.6453,1565.1556,1563.6397,187.0,1564.6452,1565.6531,1566.1553,1566.1554,1572.1683,9999.0,1572.1686,0.0,1573.1667,4.0,12.0,132.0,1.0,1.0,1.0,0.3,Time
,,S29,1,Male,23,anonymized,Serial_Dependence_U,2023.2.3,Win32,59.88023952,,,,,,,,,,,,1573.1672,4.0,1573.1679,,,,1576.1176,1576.6156,1575.6004,1576.1175,1574.1883,20.0,1575.6004,1576.6158,1577.1159,1577.1159,1583.1336,9999.0,1583.134,0.0,1584.1331,4.0,13.0,133.0,3.0,1.0,1.4,0.3,Time
,,S29,1,Male,23,anonymized,Serial_Dependence_U,2023.2.3,Win32,59.88023952,,,,,,,,,,,,1584.1335,4.0,1584.1341,,,,1587.2716,1587.7678,1586.7688,1587.2715,1585.1495,120.0,1586.7684,1587.768,1588.2665,1588.2667,1594.2812,9999.0,1594.2815,0.0,1595.2805,4.0,14.0,134.0,9.0,1.0,1.6,0.7,Time
,,S29,1,Male,23,anonymized,Serial_Dependence_U,2023.2.3,Win32,59.88023952,,,,,,,,,,,,1595.2811,4.0,1595.2813,,,,1598.2142,1598.7142,1597.6988,1598.2142,1596.2979,64.0,1597.6987,1598.7142,1599.2142,1599.2143,1605.2316,9999.0,1605.2329,0.0,1606.2302,4.0,15.0,135.0,28.0,1.0,1.4,0.7,Time
,,S29,1,Male,23,anonymized,Serial_Dependence_U,2023.2.3,Win32,59.88023952,,,,,,,,,,,,1606.2308,4.0,1606.2312,,,,1608.9811,1609.4802,1608.4646,1608.981,1607.2482,37.0,1608.4645,1609.4803,1609.9805,1609.9805,1615.9967,9999.0,1615.9969,0.0,1616.9957,4.0,16.0,136.0,12.0,1.0,1.2,0.3,Time
,,S29,1,Male,23,anonymized,Serial_Dependence_U,2023.2.3,Win32,59.88023952,,,,,,,,,,,,1616.9963,4.0,1616.9966,,,,1619.3471,1619.8457,1618.8296,1619.347,1618.013,228.0,1618.8296,1619.8458,1620.3459,1620.346,1626.3624,9999.0,1626.3626,0.0,1627.3624,4.0,17.0,137.0,25.0,1.0,0.8,0.7,Time
,,S29,1,Male,23,anonymized,Serial_Dependence_U,2023.2.3,Win32,59.88023952,,,,,,,,,,,,1627.3634,4.0,1627.3643,,,,1630.3119,1630.8112,1629.7952,1630.3117,1628.3798,249.0,1629.7951,1630.8112,1631.3113,1631.3113,1637.3282,9999.0,1637.3285,0.0,1638.3278,4.0,18.0,138.0,18.0,1.0,1.4,0.7,Time
,,S29,1,Male,23,anonymized,Serial_Dependence_U,2023.2.3,Win32,59.88023952,,,,,,,,,,,,1638.3288,4.0,1638.3293,,,,1640.8655,1641.3661,1640.3614,1640.8649,1639.345,330.0,1640.3614,1641.3661,1641.8635,1641.8637,1647.8781,9999.0,1647.8786,0.0,1648.8772,4.0,19.0,139.0,26.0,1.0,1.0,0.7,Time
,,S29,1,Male,23,anonymized,Serial_Dependence_U,2023.2.3,Win32,59.88023952,,,,,,,,,,,,1648.8778,4.0,1648.8785,,,,1651.4272,1651.9264,1650.9134,1651.4272,1649.8941,244.0,1650.9134,1651.9264,1652.4264,1652.4265,1658.4435,9999.0,1658.4437,0.0,1659.4435,4.0,20.0,140.0,6.0,1.0,1.0,0.7,Time
,,S29,1,Male,23,anonymized,Serial_Dependence_U,2023.2.3,Win32,59.88023952,,,,,,,,,,,,1659.4444,4.0,1659.4449,,,,1661.9932,1662.4929,1661.4767,1661.9932,1660.4605,239.0,1661.4766,1662.493,1662.9926,1662.9927,1669.0105,9999.0,1669.011,0.0,1670.0103,4.0,21.0,141.0,11.0,1.0,1.0,0.3,Time
,,S29,1,Male,23,anonymized,Serial_Dependence_U,2023.2.3,Win32,59.88023952,,,,,,,,,,,,1670.0113,4.0,1670.0122,,,,1672.3591,1672.8589,1671.8432,1672.359,1671.0286,83.0,1671.8429,1672.8589,1673.3586,1673.3586,1679.3761,9999.0,1679.3764,0.0,1680.3748,4.0,22.0,142.0,15.0,1.0,0.8,0.7,Time
,,S29,1,Male,23,anonymized,Serial_Dependence_U,2023.2.3,Win32,59.88023952,,,,,,,,,,,,1680.3755,4.0,1680.3758,,,,1682.725,1683.2249,1682.2093,1682.7249,1681.3927,232.0,1682.2092,1683.2249,1683.7145,1683.7146,1689.7289,9999.0,1689.7292,0.0,1690.7267,4.0,23.0,143.0,0.0,1.0,0.8,0.3,Time
,,S29,1,Male,23,anonymized,Serial_Dependence_U,2023.2.3,Win32,59.88023952,,,,,,,,,,,,1690.7281,4.0,1690.7287,,,,1693.275,1693.7758,1692.7583,1693.2748,1691.7418,94.0,1692.758,1693.7761,1694.2749,1694.2751,1700.2907,9999.0,1700.2914,0.0,1701.2901,4.0,24.0,144.0,21.0,1.0,1.0,0.3,Time
,,S29,1,Male,23,anonymized,Serial_Dependence_U,2023.2.3,Win32,59.88023952,,,,,,,,,,,,1701.2906,4.0,1701.2911,,,,1704.0419,1704.5411,1703.5282,1704.0416,1702.3078,163.0,1703.5281,1704.5411,1705.04,1705.0401,1711.0603,9999.0,1711.0607,0.0,1712.0571,4.0,25.0,145.0,22.0,1.0,1.2,0.3,Time
,,S29,1,Male,23,anonymized,Serial_Dependence_U,2023.2.3,Win32,59.88023952,,,,,,,,,,,,1712.0595,4.0,1712.0599,,,,1714.7938,1715.2892,1714.276,1714.7931,1713.064,347.0,1714.2759,1715.2892,1715.7893,1715.7894,1721.8057,9999.0,1721.8064,0.0,1722.8054,4.0,26.0,146.0,7.0,1.0,1.2,0.7,Time
,,S29,1,Male,23,anonymized,Serial_Dependence_U,2023.2.3,Win32,59.88023952,,,,,,,,,,,,1722.8064,4.0,1722.807,,,,1725.956,1726.4549,1725.4406,1725.9557,1723.8228,324.0,1725.4403,1726.455,1726.9551,1726.9551,1732.9718,9999.0,1732.9725,0.0,1733.9717,4.0,27.0,147.0,19.0,1.0,1.6,0.7,Time
,,S29,1,Male,23,anonymized,Serial_Dependence_U,2023.2.3,Win32,59.88023952,,,,,,,,,,,,1733.973,4.0,1733.9737,,,,1736.3215,1736.8235,1735.8086,1736.3214,1734.9886,234.0,1735.8086,1736.8236,1737.3207,1737.3207,1743.338,9999.0,1743.3387,0.0,1744.3372,4.0,28.0,148.0,20.0,1.0,0.8,0.3,Time
,,S29,1,Male,23,anonymized,Serial_Dependence_U,2023.2.3,Win32,59.88023952,,,,,,,,,,,,1744.3383,4.0,1744.339,,,,1747.4877,1747.9869,1746.971,1747.4874,1745.3546,66.0,1746.9707,1747.987,1748.4866,1748.4867,1754.5035,9999.0,1754.504,0.0,1755.5048,4.0,29.0,149.0,4.0,1.0,1.6,0.3,Time
,,S29,1,Male,23,anonymized,Serial_Dependence_U,2023.2.3,Win32,59.88023952,,,,,,,,,,,,1755.5067,5.0,1799.8677,s,44.3302,,1802.2172,1802.7163,1801.7004,1802.217,1800.8837,313.0,1801.7001,1802.7163,1803.2163,1803.2164,1809.2334,9999.0,1809.234,0.0,1810.234,5.0,0.0,150.0,15.0,1.0,0.8,0.7,Time
,,S29,1,Male,23,anonymized,Serial_Dependence_U,2023.2.3,Win32,59.88023952,,,,,,,,,,,,1810.2357,5.0,1810.238,,,,1813.1868,1813.6839,1812.6702,1813.1868,1811.2523,81.0,1812.6702,1813.6841,1814.1859,1814.186,1820.1993,9999.0,1820.2001,0.0,1821.1984,5.0,1.0,151.0,13.0,1.0,1.4,0.3,Time
,,S29,1,Male,23,anonymized,Serial_Dependence_U,2023.2.3,Win32,59.88023952,,,,,,,,,,,,1821.199,5.0,1821.1997,,,,1824.3489,1824.848,1823.8321,1824.3486,1822.2155,192.0,1823.8319,1824.848,1825.3488,1825.3489,1831.3648,9999.0,1831.3655,0.0,1832.3642,5.0,2.0,152.0,9.0,1.0,1.6,0.7,Time
,,S29,1,Male,23,anonymized,Serial_Dependence_U,2023.2.3,Win32,59.88023952,,,,,,,,,,,,1832.3652,5.0,1832.3658,,,,1835.0888,1835.5849,1834.5869,1835.0886,1833.3857,123.0,1834.5869,1835.585,1836.0807,1836.0807,1842.0975,9999.0,1842.0983,0.0,1843.0972,5.0,3.0,153.0,17.0,1.0,1.2,0.7,Time
,,S29,1,Male,23,anonymized,Serial_Dependence_U,2023.2.3,Win32,59.88023952,,,,,,,,,,,,1843.0978,5.0,1843.0988,,,,1845.8473,1846.3472,1845.3309,1845.847,1844.1149,146.0,1845.3305,1846.3473,1846.8468,1846.8468,1852.8499,9999.0,1852.8503,0.0,1853.8471,5.0,4.0,154.0,27.0,1.0,1.2,0.7,Time
,,S29,1,Male,23,anonymized,Serial_Dependence_U,2023.2.3,Win32,59.88023952,,,,,,,,,,,,1853.8487,5.0,1853.8494,,,,1856.9963,1857.4963,1856.4799,1856.9962,1854.8665,159.0,1856.4796,1857.4963,1857.9964,1857.9969,1864.0126,9999.0,1864.0132,0.0,1865.0144,5.0,5.0,155.0,4.0,1.0,1.6,0.3,Time
,,S29,1,Male,23,anonymized,Serial_Dependence_U,2023.2.3,Win32,59.88023952,,,,,,,,,,,,1865.0161,5.0,1865.0167,,,,1867.5623,1868.0616,1867.0455,1867.5623,1866.0293,34.0,1867.0455,1868.0616,1868.5618,1868.5619,1874.5789,9999.0,1874.5795,0.0,1875.5786,5.0,6.0,156.0,16.0,1.0,1.0,0.7,Time
,,S29,1,Male,23,anonymized,Serial_Dependence_U,2023.2.3,Win32,59.88023952,,,,,,,,,,,,1875.5802,5.0,1875.5812,,,,1878.5285,1879.0282,1878.0117,1878.5282,1876.5955,289.0,1878.0115,1879.0283,1879.5283,1879.5283,1885.533,9999.0,1885.5331,0.0,1886.5271,5.0,7.0,157.0,8.0,1.0,1.4,0.7,Time
,,S29,1,Male,23,anonymized,Serial_Dependence_U,2023.2.3,Win32,59.88023952,,,,,,,,,,,,1886.5277,5.0,1886.5284,,,,1889.0657,1889.5602,1888.5618,1889.0655,1887.5448,40.0,1888.5615,1889.5603,1890.0601,1890.0602,1896.0771,9999.0,1896.0778,0.0,1897.0764,5.0,8.0,158.0,6.0,1.0,1.0,0.7,Time
,,S29,1,Male,23,anonymized,Serial_Dependence_U,2023.2.3,Win32,59.88023952,,,,,,,,,,,,1897.077,5.0,1897.0777,,,,1900.027,1900.5263,1899.5104,1900.0266,1898.0944,307.0,1899.51,1900.5263,1901.0271,1901.0271,1907.0428,9999.0,1907.0435,0.0,1908.0421,5.0,9.0,159.0,18.0,1.0,1.4,0.7,Time
,,S29,1,Male,23,anonymized,Serial_Dependence_U,2023.2.3,Win32,59.88023952,,,,,,,,,,,,1908.0433,5.0,1908.0441,,,,1911.1761,1911.6759,1910.6596,1911.1758,1909.0445,178.0,1910.6592,1911.676,1912.1761,1912.1763,1918.192,9999.0,1918.1926,0.0,1919.1918,5.0,10.0,160.0,14.0,1.0,1.6,0.3,Time
,,S29,1,Male,23,anonymized,Serial_Dependence_U,2023.2.3,Win32,59.88023952,,,,,,,,,,,,1919.1928,5.0,1919.1936,,,,1921.5421,1922.0413,1921.0252,1921.5419,1920.2091,298.0,1921.0249,1922.0413,1922.5413,1922.5414,1928.5461,9999.0,1928.5462,0.0,1929.5408,5.0,11.0,161.0,5.0,1.0,0.8,0.7,Time
,,S29,1,Male,23,anonymized,Serial_Dependence_U,2023.2.3,Win32,59.88023952,,,,,,,,,,,,1929.5422,5.0,1929.5436,,,,1932.6911,1933.1905,1932.1746,1932.6909,1930.5591,61.0,1932.1744,1933.1905,1933.6907,1933.6908,1939.6958,9999.0,1939.6963,0.0,1940.696,5.0,12.0,162.0,24.0,1.0,1.6,0.3,Time
,,S29,1,Male,23,anonymized,Serial_Dependence_U,2023.2.3,Win32,59.88023952,,,,,,,,,,,,1940.6965,5.0,1940.6968,,,,1943.2403,1943.7416,1942.7265,1943.2402,1941.7099,202.0,1942.7262,1943.7417,1944.2403,1944.2403,1950.2437,9999.0,1950.2438,0.0,1951.2392,5.0,13.0,163.0,21.0,1.0,1.0,0.3,Time
,,S29,1,Male,23,anonymized,Serial_Dependence_U,2023.2.3,Win32,59.88023952,,,,,,,,,,,,1951.2399,5.0,1951.2409,,,,1953.9901,1954.4919,1953.4732,1953.9898,1952.2567,317.0,1953.4729,1954.492,1954.992,1954.9922,1961.0057,9999.0,1961.0064,0.0,1962.0052,5.0,14.0,164.0,12.0,1.0,1.2,0.3,Time
,,S29,1,Male,23,anonymized,Serial_Dependence_U,2023.2.3,Win32,59.88023952,,,,,,,,,,,,1962.0057,5.0,1962.0064,,,,1965.1565,1965.6547,1964.6391,1965.1561,1963.0223,107.0,1964.6388,1965.6547,1966.1548,1966.1548,1972.1716,9999.0,1972.1723,0.0,1973.1712,5.0,15.0,165.0,19.0,1.0,1.6,0.7,Time
,,S29,1,Male,23,anonymized,Serial_Dependence_U,2023.2.3,Win32,59.88023952,,,,,,,,,,,,1973.1719,5.0,1973.1726,,,,1975.9218,1976.4213,1975.4052,1975.9214,1974.1887,36.0,1975.4048,1976.4214,1976.9216,1976.9216,1982.9377,9999.0,1982.9384,0.0,1983.938,5.0,16.0,166.0,7.0,1.0,1.2,0.7,Time
,,S29,1,Male,23,anonymized,Serial_Dependence_U,2023.2.3,Win32,59.88023952,,,,,,,,,,,,1983.9399,5.0,1983.9413,,,,1986.8875,1987.3866,1986.3708,1986.8872,1984.9545,268.0,1986.3706,1987.3866,1987.8875,1987.8877,1993.9038,9999.0,1993.9045,0.0,1994.9027,5.0,17.0,167.0,3.0,1.0,1.4,0.3,Time
,,S29,1,Male,23,anonymized,Serial_Dependence_U,2023.2.3,Win32,59.88023952,,,,,,,,,,,,1994.9034,5.0,1994.9043,,,,1997.8374,1998.3358,1997.3364,1997.8373,1995.9201,165.0,1997.3363,1998.3358,1998.8358,1998.8358,2004.8382,9999.0,2004.8397,0.0,2005.8355,5.0,18.0,168.0,23.0,1.0,1.4,0.3,Time
,,S29,1,Male,23,anonymized,Serial_Dependence_U,2023.2.3,Win32,59.88023952,,,,,,,,,,,,2005.8359,5.0,2005.8366,,,,2008.9866,2009.4853,2008.4688,2008.9865,2006.8569,140.0,2008.4688,2009.4854,2009.9863,2009.9863,2016.0015,9999.0,2016.0017,0.0,2017.0014,5.0,19.0,169.0,29.0,1.0,1.6,0.7,Time
,,S29,1,Male,23,anonymized,Serial_Dependence_U,2023.2.3,Win32,59.88023952,,,,,,,,,,,,2017.0024,5.0,2017.0029,,,,2019.5519,2020.0509,2019.0363,2019.5518,2018.0193,166.0,2019.0361,2020.0509,2020.5515,2020.5517,2026.5673,9999.0,2026.5675,0.0,2027.5668,5.0,20.0,170.0,1.0,1.0,1.0,0.3,Time
,,S29,1,Male,23,anonymized,Serial_Dependence_U,2023.2.3,Win32,59.88023952,,,,,,,,,,,,2027.5675,5.0,2027.5678,,,,2029.9174,2030.4165,2029.4011,2029.9173,2028.5843,72.0,2029.4011,2030.4165,2030.9168,2030.9168,2036.9334,9999.0,2036.9336,0.0,2037.9326,5.0,21.0,171.0,10.0,1.0,0.8,0.3,Time
,,S29,1,Male,23,anonymized,Serial_Dependence_U,2023.2.3,Win32,59.88023952,,,,,,,,,,,,2037.933,5.0,2037.9333,,,,2040.2832,2040.7826,2039.7663,2040.2831,2038.9498,99.0,2039.7662,2040.7826,2041.283,2041.2832,2047.2907,9999.0,2047.2909,0.0,2048.2889,5.0,22.0,172.0,20.0,1.0,0.8,0.3,Time
,,S29,1,Male,23,anonymized,Serial_Dependence_U,2023.2.3,Win32,59.88023952,,,,,,,,,,,,2048.2905,5.0,2048.2908,,,,2051.0326,2051.5323,2050.516,2051.0326,2049.3014,56.0,2050.5159,2051.5324,2052.0324,2052.0326,2058.0484,9999.0,2058.0486,0.0,2059.0482,5.0,23.0,173.0,2.0,1.0,1.2,0.3,Time
,,S29,1,Male,23,anonymized,Serial_Dependence_U,2023.2.3,Win32,59.88023952,,,,,,,,,,,,2059.0486,5.0,2059.0488,,,,2061.3838,2061.8809,2060.8663,2061.3836,2060.0498,312.0,2060.8662,2061.8809,2062.3818,2062.3819,2068.3987,9999.0,2068.3989,0.0,2069.3976,5.0,24.0,174.0,25.0,1.0,0.8,0.7,Time
,,S29,1,Male,23,anonymized,Serial_Dependence_U,2023.2.3,Win32,59.88023952,,,,,,,,,,,,2069.3985,5.0,2069.399,,,,2072.3474,2072.8469,2071.831,2072.3473,2070.4144,75.0,2071.8308,2072.847,2073.3476,2073.3477,2079.3637,9999.0,2079.3639,0.0,2080.3638,5.0,25.0,175.0,28.0,1.0,1.4,0.7,Time
,,S29,1,Male,23,anonymized,Serial_Dependence_U,2023.2.3,Win32,59.88023952,,,,,,,,,,,,2080.3647,5.0,2080.3651,,,,2082.8968,2083.3968,2082.3814,2082.8966,2081.3807,106.0,2082.3812,2083.3969,2083.8962,2083.8963,2089.9128,9999.0,2089.913,0.0,2090.9126,5.0,26.0,176.0,11.0,1.0,1.0,0.3,Time
,,S29,1,Male,23,anonymized,Serial_Dependence_U,2023.2.3,Win32,59.88023952,,,,,,,,,,,,2090.9132,5.0,2090.9135,,,,2093.6629,2094.1623,2093.1463,2093.6628,2091.9295,309.0,2093.1462,2094.1623,2094.6619,2094.6621,2100.6789,9999.0,2100.6792,0.0,2101.6782,5.0,27.0,177.0,22.0,1.0,1.2,0.3,Time
,,S29,1,Male,23,anonymized,Serial_Dependence_U,2023.2.3,Win32,59.88023952,,,,,,,,,,,,2101.6788,5.0,2101.6794,,,,2104.0293,2104.5287,2103.513,2104.0292,2102.6955,32.0,2103.5129,2104.5288,2105.0279,2105.0279,2111.0451,9999.0,2111.0453,0.0,2112.0457,5.0,28.0,178.0,0.0,1.0,0.8,0.3,Time
,,S29,1,Male,23,anonymized,Serial_Dependence_U,2023.2.3,Win32,59.88023952,,,,,,,,,,,,2112.0469,5.0,2112.0486,,,,2114.5793,2115.0779,2114.0633,2114.5791,2113.0613,311.0,2114.0632,2115.078,2115.5782,2115.5783,2121.594,9999.0,2121.5942,0.0,2122.5939,5.0,29.0,179.0,26.0,1.0,1.0,0.7,Time
,,S29,1,Male,23,anonymized,Serial_Dependence_U,2023.2.3,Win32,59.88023952,,,,,,,,,,,,2122.5948,6.0,2125.9778,s,3.3557,,2128.311,2128.8099,2127.796,2128.311,2126.9794,117.0,2127.7959,2128.8099,2129.3099,2129.31,2135.3265,9999.0,2135.3267,0.0,2136.3259,6.0,0.0,180.0,25.0,1.0,0.8,0.7,Time
,,S29,1,Male,23,anonymized,Serial_Dependence_U,2023.2.3,Win32,59.88023952,,,,,,,,,,,,2136.3263,6.0,2136.3307,,,,2138.8764,2139.3763,2138.3604,2138.8763,2137.3431,100.0,2138.3604,2139.3763,2139.8761,2139.8762,2145.8932,9999.0,2145.8936,0.0,2146.8918,6.0,1.0,181.0,26.0,1.0,1.0,0.7,Time
,,S29,1,Male,23,anonymized,Serial_Dependence_U,2023.2.3,Win32,59.88023952,,,,,,,,,,,,2146.8923,6.0,2146.8927,,,,2150.0425,2150.5417,2149.5259,2150.0425,2147.9118,71.0,2149.5258,2150.5418,2151.0427,2151.043,2157.0489,9999.0,2157.0498,0.0,2158.0418,6.0,2.0,182.0,14.0,1.0,1.6,0.3,Time
,,S29,1,Male,23,anonymized,Serial_Dependence_U,2023.2.3,Win32,59.88023952,,,,,,,,,,,,2158.043,6.0,2158.0438,,,,2161.1752,2161.6744,2160.6596,2161.1749,2159.0442,195.0,2160.6595,2161.6745,2162.1743,2162.1743,2168.178,9999.0,2168.1806,0.0,2169.1798,6.0,3.0,183.0,24.0,1.0,1.6,0.3,Time
,,S29,1,Male,23,anonymized,Serial_Dependence_U,2023.2.3,Win32,59.88023952,,,,,,,,,,,,2169.1805,6.0,2169.1813,,,,2171.4995,2171.9901,2170.9969,2171.4988,2170.1937,92.0,2170.9968,2171.9901,2172.4901,2172.4901,2178.4913,9999.0,2178.4915,0.0,2179.4901,6.0,4.0,184.0,0.0,1.0,0.8,0.3,Time
,,S29,1,Male,23,anonymized,Serial_Dependence_U,2023.2.3,Win32,59.88023952,,,,,,,,,,,,2179.491,6.0,2179.4938,,,,2182.0407,2182.5445,2181.5239,2182.0406,2180.5067,261.0,2181.5238,2182.5445,2183.0391,2183.0391,2189.0564,9999.0,2189.0568,0.0,2190.0557,6.0,5.0,185.0,21.0,1.0,1.0,0.3,Time
,,S29,1,Male,23,anonymized,Serial_Dependence_U,2023.2.3,Win32,59.88023952,,,,,,,,,,,,2190.0564,6.0,2190.057,,,,2193.0058,2193.5052,2192.4888,2193.0057,2191.074,274.0,2192.4888,2193.5053,2194.0052,2194.0052,2200.0219,9999.0,2200.0221,0.0,2201.0217,6.0,6.0,186.0,3.0,1.0,1.4,0.3,Time
,,S29,1,Male,23,anonymized,Serial_Dependence_U,2023.2.3,Win32,59.88023952,,,,,,,,,,,,2201.0225,6.0,2201.023,,,,2203.5716,2204.0716,2203.0554,2203.5715,2202.0385,168.0,2203.0552,2204.0716,2204.5714,2204.5715,2210.5882,9999.0,2210.5883,0.0,2211.5875,6.0,7.0,187.0,6.0,1.0,1.0,0.7,Time
,,S29,1,Male,23,anonymized,Serial_Dependence_U,2023.2.3,Win32,59.88023952,,,,,,,,,,,,2211.5884,6.0,2211.5891,,,,2213.9378,2214.4374,2213.421,2213.9376,2212.6048,29.0,2213.4209,2214.4375,2214.9367,2214.9368,2220.9541,9999.0,2220.9543,0.0,2221.9535,6.0,8.0,188.0,10.0,1.0,0.8,0.3,Time
,,S29,1,Male,23,anonymized,Serial_Dependence_U,2023.2.3,Win32,59.88023952,,,,,,,,,,,,2221.9541,6.0,2221.9547,,,,2224.9038,2225.4038,2224.3878,2224.9038,2222.9704,197.0,2224.3877,2225.4039,2225.9036,2225.9037,2231.9202,9999.0,2231.9203,0.0,2232.9193,6.0,9.0,189.0,13.0,1.0,1.4,0.3,Time
,,S29,1,Male,23,anonymized,Serial_Dependence_U,2023.2.3,Win32,59.88023952,,,,,,,,,,,,2232.9201,6.0,2232.9203,,,,2235.4538,2235.9527,2234.9527,2235.4536,2233.9363,36.0,2234.9525,2235.9527,2236.4525,2236.4526,2242.4694,9999.0,2242.4706,0.0,2243.4687,6.0,10.0,190.0,11.0,1.0,1.0,0.3,Time
,,S29,1,Male,23,anonymized,Serial_Dependence_U,2023.2.3,Win32,59.88023952,,,,,,,,,,,,2243.4694,6.0,2243.4702,,,,2246.02,2246.5196,2245.5028,2246.0198,2244.4862,46.0,2245.5025,2246.5198,2247.0218,2247.0221,2253.0351,9999.0,2253.0359,0.0,2254.0352,6.0,11.0,191.0,1.0,1.0,1.0,0.3,Time
,,S29,1,Male,23,anonymized,Serial_Dependence_U,2023.2.3,Win32,59.88023952,,,,,,,,,,,,2254.0366,6.0,2254.0375,,,,2256.7855,2257.2844,2256.2683,2256.7852,2255.0523,272.0,2256.2681,2257.2845,2257.7852,2257.7852,2263.8014,9999.0,2263.8021,0.0,2264.8007,6.0,12.0,192.0,12.0,1.0,1.2,0.3,Time
,,S29,1,Male,23,anonymized,Serial_Dependence_U,2023.2.3,Win32,59.88023952,,,,,,,,,,,,2264.8017,6.0,2264.8026,,,,2267.1515,2267.6503,2266.6345,2267.1512,2265.8179,31.0,2266.6342,2267.6504,2268.1502,2268.1504,2274.1673,9999.0,2274.1684,0.0,2275.1665,6.0,13.0,193.0,5.0,1.0,0.8,0.7,Time
,,S29,1,Male,23,anonymized,Serial_Dependence_U,2023.2.3,Win32,59.88023952,,,,,,,,,,,,2275.1673,6.0,2275.1681,,,,2278.1172,2278.6163,2277.6009,2278.1169,2276.1837,160.0,2277.6005,2278.6164,2279.1161,2279.1161,2285.1336,9999.0,2285.1345,0.0,2286.1325,6.0,14.0,194.0,23.0,1.0,1.4,0.3,Time
,,S29,1,Male,23,anonymized,Serial_Dependence_U,2023.2.3,Win32,59.88023952,,,,,,,,,,,,2286.1337,6.0,2286.1346,,,,2288.6827,2289.1824,2288.1661,2288.6826,2287.1499,0.0,2288.1657,2289.1825,2289.6821,2289.6822,2295.6985,9999.0,2295.6987,0.0,2296.6983,6.0,15.0,195.0,16.0,1.0,1.0,0.7,Time
,,S29,1,Male,23,anonymized,Serial_Dependence_U,2023.2.3,Win32,59.88023952,,,,,,,,,,,,2296.6993,6.0,2296.6997,,,,2299.4329,2299.931,2298.9163,2299.4328,2297.7151,25.0,2298.9162,2299.9312,2300.4314,2300.4314,2306.4477,9999.0,2306.448,0.0,2307.4481,6.0,16.0,196.0,17.0,1.0,1.2,0.7,Time
,,S29,1,Male,23,anonymized,Serial_Dependence_U,2023.2.3,Win32,59.88023952,,,,,,,,,,,,2307.4491,6.0,2307.4498,,,,2310.5975,2311.0975,2310.0812,2310.5975,2308.4643,92.0,2310.0811,2311.0976,2311.5975,2311.5976,2317.6135,9999.0,2317.6137,0.0,2318.614,6.0,17.0,197.0,4.0,1.0,1.6,0.3,Time
,,S29,1,Male,23,anonymized,Serial_Dependence_U,2023.2.3,Win32,59.88023952,,,,,,,,,,,,2318.6146,6.0,2318.6164,,,,2321.5466,2322.0537,2321.0358,2321.5465,2319.6205,180.0,2321.0354,2322.0538,2322.5464,2322.5465,2328.5638,9999.0,2328.5641,0.0,2329.5627,6.0,18.0,198.0,18.0,1.0,1.4,0.7,Time
,,S29,1,Male,23,anonymized,Serial_Dependence_U,2023.2.3,Win32,59.88023952,,,,,,,,,,,,2329.5638,6.0,2329.5644,,,,2332.697,2333.1954,2332.1807,2332.6969,2330.5796,203.0,2332.1805,2333.1954,2333.6954,2333.6955,2339.7118,9999.0,2339.712,0.0,2340.7114,6.0,19.0,199.0,29.0,1.0,1.6,0.7,Time
,,S29,1,Male,23,anonymized,Serial_Dependence_U,2023.2.3,Win32,59.88023952,,,,,,,,,,,,2340.712,6.0,2340.7123,,,,2343.062,2343.5618,2342.5454,2343.0619,2341.7287,124.0,2342.5453,2343.5619,2344.0617,2344.0618,2350.0781,9999.0,2350.0783,0.0,2351.0779,6.0,20.0,200.0,20.0,1.0,0.8,0.3,Time
,,S29,1,Male,23,anonymized,Serial_Dependence_U,2023.2.3,Win32,59.88023952,,,,,,,,,,,,2351.0791,6.0,2351.0798,,,,2354.0117,2354.5112,2353.4952,2354.0116,2352.0795,272.0,2353.495,2354.5113,2355.0105,2355.0105,2361.0118,9999.0,2361.0125,0.0,2362.0101,6.0,21.0,201.0,8.0,1.0,1.4,0.7,Time
,,S29,1,Male,23,anonymized,Serial_Dependence_U,2023.2.3,Win32,59.88023952,,,,,,,,,,,,2362.0107,6.0,2362.0111,,,,2365.1605,2365.6601,2364.6446,2365.1603,2363.031,110.0,2364.6445,2365.6601,2366.1598,2366.1599,2372.1616,9999.0,2372.1621,0.0,2373.1625,6.0,22.0,202.0,19.0,1.0,1.6,0.7,Time
,,S29,1,Male,23,anonymized,Serial_Dependence_U,2023.2.3,Win32,59.88023952,,,,,,,,,,,,2373.164,6.0,2373.1642,,,,2375.8948,2376.3923,2375.3764,2375.8948,2374.1658,48.0,2375.3763,2376.3923,2376.8925,2376.8926,2382.9093,9999.0,2382.9097,0.0,2383.9085,6.0,23.0,203.0,22.0,1.0,1.2,0.3,Time
,,S29,1,Male,23,anonymized,Serial_Dependence_U,2023.2.3,Win32,59.88023952,,,,,,,,,,,,2383.9093,6.0,2383.9097,,,,2386.6587,2387.1597,2386.1421,2386.6586,2384.9257,226.0,2386.142,2387.1598,2387.6588,2387.6588,2393.6751,9999.0,2393.6752,0.0,2394.6742,6.0,24.0,204.0,2.0,1.0,1.2,0.3,Time
,,S29,1,Male,23,anonymized,Serial_Dependence_U,2023.2.3,Win32,59.88023952,,,,,,,,,,,,2394.6746,6.0,2394.6748,,,,2397.4095,2397.9077,2396.9082,2397.4094,2395.6916,167.0,2396.9081,2397.9077,2398.4077,2398.4078,2404.4246,9999.0,2404.4251,0.0,2405.4243,6.0,25.0,205.0,7.0,1.0,1.2,0.7,Time
,,S29,1,Male,23,anonymized,Serial_Dependence_U,2023.2.3,Win32,59.88023952,,,,,,,,,,,,2405.4253,6.0,2405.426,,,,2408.3737,2408.8739,2407.8569,2408.3736,2406.441,98.0,2407.8568,2408.8739,2409.3732,2409.3732,2415.39,9999.0,2415.3902,0.0,2416.3896,6.0,26.0,206.0,28.0,1.0,1.4,0.7,Time
,,S29,1,Male,23,anonymized,Serial_Dependence_U,2023.2.3,Win32,59.88023952,,,,,,,,,,,,2416.3901,6.0,2416.3908,,,,2418.74,2419.24,2418.224,2418.7398,2417.4067,77.0,2418.2239,2419.24,2419.7393,2419.7394,2425.7563,9999.0,2425.7565,0.0,2426.7561,6.0,27.0,207.0,15.0,1.0,0.8,0.7,Time
,,S29,1,Male,23,anonymized,Serial_Dependence_U,2023.2.3,Win32,59.88023952,,,,,,,,,,,,2426.7565,6.0,2426.7569,,,,2429.9059,2430.4055,2429.3891,2429.9057,2427.7726,325.0,2429.389,2430.4055,2430.9054,2430.9054,2436.9223,9999.0,2436.9225,0.0,2437.9215,6.0,28.0,208.0,9.0,1.0,1.6,0.7,Time
,,S29,1,Male,23,anonymized,Serial_Dependence_U,2023.2.3,Win32,59.88023952,,,,,,,,,,,,2437.9221,6.0,2437.9225,,,,2440.6604,2441.1575,2440.1435,2440.6599,2438.9387,173.0,2440.1427,2441.1577,2441.6573,2441.6575,2447.6715,9999.0,2447.6717,0.0,2448.671,6.0,29.0,209.0,27.0,1.0,1.2,0.7,Time
,,S29,1,Male,23,anonymized,Serial_Dependence_U,2023.2.3,Win32,59.88023952,,,,,,,,,,,,2448.6721,7.0,2522.6673,s,73.9625,,2525.399,2525.8981,2524.8821,2525.3989,2523.6705,101.0,2524.882,2525.8982,2526.3986,2526.3987,2532.4167,9999.0,2532.417,0.0,2533.421,7.0,0.0,210.0,22.0,1.0,1.2,0.3,Time
,,S29,1,Male,23,anonymized,Serial_Dependence_U,2023.2.3,Win32,59.88023952,,,,,,,,,,,,2533.4225,7.0,2533.4253,,,,2536.5505,2537.0483,2536.0324,2536.5504,2534.4207,237.0,2536.0323,2537.0484,2537.5484,2537.5484,2543.5532,9999.0,2543.5542,0.0,2544.5475,7.0,1.0,211.0,29.0,1.0,1.6,0.7,Time
,,S29,1,Male,23,anonymized,Serial_Dependence_U,2023.2.3,Win32,59.88023952,,,,,,,,,,,,2544.5484,7.0,2544.5488,,,,2547.4978,2547.997,2546.9822,2547.4977,2545.5708,123.0,2546.9821,2547.997,2548.4969,2548.497,2554.4981,9999.0,2554.4986,0.0,2555.4965,7.0,2.0,212.0,23.0,1.0,1.4,0.3,Time
,,S29,1,Male,23,anonymized,Serial_Dependence_U,2023.2.3,Win32,59.88023952,,,,,,,,,,,,2555.4973,7.0,2555.4976,,,,2558.03,2558.5315,2557.5147,2558.0299,2556.5137,269.0,2557.5145,2558.5315,2559.0303,2559.0303,2565.046,9999.0,2565.0463,0.0,2566.0454,7.0,3.0,213.0,6.0,1.0,1.0,0.7,Time
,,S29,1,Male,23,anonymized,Serial_Dependence_U,2023.2.3,Win32,59.88023952,,,,,,,,,,,,2566.046,7.0,2566.0463,,,,2568.9972,2569.4957,2568.4804,2568.997,2567.0638,263.0,2568.4801,2569.4958,2569.9954,2569.9954,2576.0143,9999.0,2576.0149,0.0,2577.0118,7.0,4.0,214.0,18.0,1.0,1.4,0.7,Time
,,S29,1,Male,23,anonymized,Serial_Dependence_U,2023.2.3,Win32,59.88023952,,,,,,,,,,,,2577.0124,7.0,2577.0127,,,,2580.1622,2580.6616,2579.6454,2580.1621,2578.0286,313.0,2579.6452,2580.6616,2581.1617,2581.1619,2587.1782,9999.0,2587.1785,0.0,2588.1776,7.0,5.0,215.0,24.0,1.0,1.6,0.3,Time
,,S29,1,Male,23,anonymized,Serial_Dependence_U,2023.2.3,Win32,59.88023952,,,,,,,,,,,,2588.1782,7.0,2588.1785,,,,2590.7279,2591.227,2590.2114,2590.7278,2589.1956,280.0,2590.2112,2591.2271,2591.7272,2591.7273,2597.7444,9999.0,2597.7446,0.0,2598.7434,7.0,6.0,216.0,21.0,1.0,1.0,0.3,Time
,,S29,1,Male,23,anonymized,Serial_Dependence_U,2023.2.3,Win32,59.88023952,,,,,,,,,,,,2598.7439,7.0,2598.7444,,,,2601.694,2602.1933,2601.1774,2601.6938,2599.7609,101.0,2601.1773,2602.1933,2602.6937,2602.6938,2608.71,9999.0,2608.7103,0.0,2609.7094,7.0,7.0,217.0,8.0,1.0,1.4,0.7,Time
,,S29,1,Male,23,anonymized,Serial_Dependence_U,2023.2.3,Win32,59.88023952,,,,,,,,,,,,2609.71,7.0,2609.7102,,,,2612.0609,2612.5592,2611.5434,2612.0608,2610.7273,17.0,2611.5433,2612.5593,2613.0594,2613.0595,2619.0617,9999.0,2619.0621,0.0,2620.059,7.0,8.0,218.0,20.0,1.0,0.8,0.3,Time
,,S29,1,Male,23,anonymized,Serial_Dependence_U,2023.2.3,Win32,59.88023952,,,,,,,,,,,,2620.06,7.0,2620.0609,,,,2623.2085,2623.7088,2622.6929,2623.2085,2621.0765,302.0,2622.6928,2623.7089,2624.2089,2624.209,2630.2253,9999.0,2630.2255,0.0,2631.2245,7.0,9.0,219.0,4.0,1.0,1.6,0.3,Time
,,S29,1,Male,23,anonymized,Serial_Dependence_U,2023.2.3,Win32,59.88023952,,,,,,,,,,,,2631.2251,7.0,2631.2254,,,,2634.3751,2634.8739,2633.8588,2634.375,2632.2415,45.0,2633.8586,2634.874,2635.3746,2635.3746,2641.3911,9999.0,2641.3915,0.0,2642.3904,7.0,10.0,220.0,19.0,1.0,1.6,0.7,Time
,,S29,1,Male,23,anonymized,Serial_Dependence_U,2023.2.3,Win32,59.88023952,,,,,,,,,,,,2642.3909,7.0,2642.3912,,,,2645.1408,2645.6398,2644.6238,2645.1406,2643.4087,101.0,2644.6237,2645.6399,2646.1399,2646.1399,2652.1571,9999.0,2652.1574,0.0,2653.1566,7.0,11.0,221.0,17.0,1.0,1.2,0.7,Time
,,S29,1,Male,23,anonymized,Serial_Dependence_U,2023.2.3,Win32,59.88023952,,,,,,,,,,,,2653.1572,7.0,2653.1577,,,,2655.8827,2656.3734,2655.379,2655.8823,2654.1628,140.0,2655.3787,2656.3735,2656.8727,2656.8728,2662.8894,9999.0,2662.8895,0.0,2663.8889,7.0,12.0,222.0,7.0,1.0,1.2,0.7,Time
,,S29,1,Male,23,anonymized,Serial_Dependence_U,2023.2.3,Win32,59.88023952,,,,,,,,,,,,2663.8895,7.0,2663.8897,,,,2666.2247,2666.7237,2665.7078,2666.2247,2664.9063,157.0,2665.7077,2666.724,2667.2223,2667.2223,2673.2396,9999.0,2673.2401,0.0,2674.2387,7.0,13.0,223.0,25.0,1.0,0.8,0.7,Time
,,S29,1,Male,23,anonymized,Serial_Dependence_U,2023.2.3,Win32,59.88023952,,,,,,,,,,,,2674.2398,7.0,2674.2437,,,,2676.5895,2677.0881,2676.0723,2676.5894,2675.2552,157.0,2676.0722,2677.0882,2677.588,2677.588,2683.5908,9999.0,2683.5915,0.0,2684.5879,7.0,14.0,224.0,0.0,1.0,0.8,0.3,Time
,,S29,1,Male,23,anonymized,Serial_Dependence_U,2023.2.3,Win32,59.88023952,,,,,,,,,,,,2684.5884,7.0,2684.5888,,,,2687.5377,2688.0375,2687.0223,2687.5376,2685.6104,50.0,2687.0223,2688.0375,2688.5373,2688.5374,2694.5537,9999.0,2694.554,0.0,2695.5536,7.0,15.0,225.0,13.0,1.0,1.4,0.3,Time
,,S29,1,Male,23,anonymized,Serial_Dependence_U,2023.2.3,Win32,59.88023952,,,,,,,,,,,,2695.5546,7.0,2695.555,,,,2698.288,2698.7868,2697.7868,2698.2878,2696.5704,254.0,2697.7867,2698.7871,2699.2867,2699.2867,2705.3028,9999.0,2705.303,0.0,2706.3024,7.0,16.0,226.0,2.0,1.0,1.2,0.3,Time
,,S29,1,Male,23,anonymized,Serial_Dependence_U,2023.2.3,Win32,59.88023952,,,,,,,,,,,,2706.3029,7.0,2706.3034,,,,2709.2526,2709.7527,2708.7366,2709.2526,2707.3194,348.0,2708.7366,2709.7528,2710.2529,2710.253,2716.2688,9999.0,2716.2691,0.0,2717.269,7.0,17.0,227.0,3.0,1.0,1.4,0.3,Time
,,S29,1,Male,23,anonymized,Serial_Dependence_U,2023.2.3,Win32,59.88023952,,,,,,,,,,,,2717.2701,7.0,2717.2705,,,,2720.4189,2720.9185,2719.9022,2720.4189,2718.2858,160.0,2719.9022,2720.9185,2721.4189,2721.419,2727.4355,9999.0,2727.4357,0.0,2728.4343,7.0,18.0,228.0,14.0,1.0,1.6,0.3,Time
,,S29,1,Male,23,anonymized,Serial_Dependence_U,2023.2.3,Win32,59.88023952,,,,,,,,,,,,2728.4348,7.0,2728.4352,,,,2730.7845,2731.2843,2730.2678,2730.7844,2729.4515,85.0,2730.2677,2731.2844,2731.7845,2731.7846,2737.8024,9999.0,2737.8028,0.0,2738.8009,7.0,19.0,229.0,10.0,1.0,0.8,0.3,Time
,,S29,1,Male,23,anonymized,Serial_Dependence_U,2023.2.3,Win32,59.88023952,,,,,,,,,,,,2738.8014,7.0,2738.8018,,,,2741.7504,2742.2505,2741.2359,2741.7503,2739.8207,145.0,2741.2357,2742.2505,2742.7504,2742.7509,2748.7666,9999.0,2748.767,0.0,2749.7667,7.0,20.0,230.0,28.0,1.0,1.4,0.7,Time
,,S29,1,Male,23,anonymized,Serial_Dependence_U,2023.2.3,Win32,59.88023952,,,,,,,,,,,,2749.7677,7.0,2749.7684,,,,2752.9007,2753.3997,2752.3857,2752.9006,2750.7843,250.0,2752.3856,2753.3998,2753.8992,2753.8993,2759.9024,9999.0,2759.9028,0.0,2760.899,7.0,21.0,231.0,9.0,1.0,1.6,0.7,Time
,,S29,1,Male,23,anonymized,Serial_Dependence_U,2023.2.3,Win32,59.88023952,,,,,,,,,,,,2760.8999,7.0,2760.9003,,,,2763.4506,2763.9489,2762.9352,2763.4506,2761.9193,243.0,2762.9351,2763.9489,2764.449,2764.449,2770.4657,9999.0,2770.4659,0.0,2771.4649,7.0,22.0,232.0,16.0,1.0,1.0,0.7,Time
,,S29,1,Male,23,anonymized,Serial_Dependence_U,2023.2.3,Win32,59.88023952,,,,,,,,,,,,2771.4664,7.0,2771.4671,,,,2774.2158,2774.7147,2773.6988,2774.2156,2772.4827,337.0,2773.6987,2774.7148,2775.2161,2775.2165,2781.2311,9999.0,2781.2318,0.0,2782.2307,7.0,23.0,233.0,12.0,1.0,1.2,0.3,Time
,,S29,1,Male,23,anonymized,Serial_Dependence_U,2023.2.3,Win32,59.88023952,,,,,,,,,,,,2782.2313,7.0,2782.2323,,,,2784.5815,2785.0804,2784.0646,2784.5813,2783.2481,138.0,2784.0642,2785.0805,2785.5806,2785.5806,2791.5975,9999.0,2791.5982,0.0,2792.5965,7.0,24.0,234.0,15.0,1.0,0.8,0.7,Time
,,S29,1,Male,23,anonymized,Serial_Dependence_U,2023.2.3,Win32,59.88023952,,,,,,,,,,,,2792.5972,7.0,2792.5979,,,,2795.1479,2795.6464,2794.6307,2795.1477,2793.6141,104.0,2794.6303,2795.6465,2796.1461,2796.1462,2802.1506,9999.0,2802.1508,0.0,2803.1461,7.0,25.0,235.0,26.0,1.0,1.0,0.7,Time
,,S29,1,Male,23,anonymized,Serial_Dependence_U,2023.2.3,Win32,59.88023952,,,,,,,,,,,,2803.1471,7.0,2803.1478,,,,2805.6772,2806.1815,2805.1699,2805.677,2804.1633,105.0,2805.1696,2806.1817,2806.6813,2806.6816,2812.6967,9999.0,2812.697,0.0,2813.6953,7.0,26.0,236.0,11.0,1.0,1.0,0.3,Time
,,S29,1,Male,23,anonymized,Serial_Dependence_U,2023.2.3,Win32,59.88023952,,,,,,,,,,,,2813.6964,7.0,2813.6969,,,,2816.4288,2816.9282,2815.913,2816.4288,2814.712,115.0,2815.913,2816.9282,2817.4285,2817.429,2823.4451,9999.0,2823.4453,0.0,2824.445,7.0,27.0,237.0,27.0,1.0,1.2,0.7,Time
,,S29,1,Male,23,anonymized,Serial_Dependence_U,2023.2.3,Win32,59.88023952,,,,,,,,,,,,2824.446,7.0,2824.4465,,,,2826.9945,2827.4943,2826.4776,2826.9945,2825.4612,238.0,2826.4776,2827.4943,2827.9942,2827.9942,2834.0109,9999.0,2834.0111,0.0,2835.0104,7.0,28.0,238.0,1.0,1.0,1.0,0.3,Time
,,S29,1,Male,23,anonymized,Serial_Dependence_U,2023.2.3,Win32,59.88023952,,,,,,,,,,,,2835.0108,7.0,2835.0111,,,,2837.3607,2837.8602,2836.8438,2837.3606,2836.0283,359.0,2836.8438,2837.8602,2838.3606,2838.3607,2844.3768,9999.0,2844.3771,0.0,2845.3761,7.0,29.0,239.0,5.0,1.0,0.8,0.7,Time
,,S29,1,Male,23,anonymized,Serial_Dependence_U,2023.2.3,Win32,59.88023952,,,,,,,,,,,,2845.3766,8.0,2850.8268,s,5.4301,,2853.5599,2854.0592,2853.0442,2853.5598,2851.8301,149.0,2853.0441,2854.0592,2854.5596,2854.5596,2860.5761,9999.0,2860.5762,0.0,2861.5772,8.0,0.0,240.0,12.0,1.0,1.2,0.3,Time
,,S29,1,Male,23,anonymized,Serial_Dependence_U,2023.2.3,Win32,59.88023952,,,,,,,,,,,,2861.5789,8.0,2861.5805,,,,2864.326,2864.8248,2863.8089,2864.3258,2862.5944,115.0,2863.8088,2864.8249,2865.3252,2865.3253,2871.3415,9999.0,2871.3418,0.0,2872.3412,8.0,1.0,241.0,7.0,1.0,1.2,0.7,Time
,,S29,1,Male,23,anonymized,Serial_Dependence_U,2023.2.3,Win32,59.88023952,,,,,,,,,,,,2872.3418,8.0,2872.3421,,,,2875.2744,2875.7742,2874.7576,2875.2743,2873.3424,32.0,2874.7576,2875.7743,2876.2745,2876.2746,2882.2911,9999.0,2882.2913,0.0,2883.2908,8.0,2.0,242.0,18.0,1.0,1.4,0.7,Time
,,S29,1,Male,23,anonymized,Serial_Dependence_U,2023.2.3,Win32,59.88023952,,,,,,,,,,,,2883.2919,8.0,2883.2933,,,,2885.8404,2886.34,2885.3237,2885.8404,2884.3088,37.0,2885.3235,2886.34,2886.8403,2886.8404,2892.8564,9999.0,2892.8569,0.0,2893.8566,8.0,3.0,243.0,16.0,1.0,1.0,0.7,Time
,,S29,1,Male,23,anonymized,Serial_Dependence_U,2023.2.3,Win32,59.88023952,,,,,,,,,,,,2893.8571,8.0,2893.8576,,,,2896.6076,2897.1067,2896.0907,2896.6072,2894.8733,27.0,2896.0906,2897.1069,2897.6079,2897.6082,2903.6228,9999.0,2903.6235,0.0,2904.6219,8.0,4.0,244.0,17.0,1.0,1.2,0.7,Time
,,S29,1,Male,23,anonymized,Serial_Dependence_U,2023.2.3,Win32,59.88023952,,,,,,,,,,,,2904.6225,8.0,2904.624,,,,2907.5558,2908.0553,2907.0437,2907.5556,2905.6397,288.0,2907.0435,2908.0553,2908.5552,2908.5553,2914.5717,9999.0,2914.5719,0.0,2915.5715,8.0,5.0,245.0,23.0,1.0,1.4,0.3,Time
,,S29,1,Male,23,anonymized,Serial_Dependence_U,2023.2.3,Win32,59.88023952,,,,,,,,,,,,2915.5724,8.0,2915.5732,,,,2917.9217,2918.421,2917.4064,2917.9216,2916.5889,309.0,2917.4063,2918.4211,2918.9212,2918.9216,2924.94,9999.0,2924.9403,0.0,2925.937,8.0,6.0,246.0,5.0,1.0,0.8,0.7,Time
,,S29,1,Male,23,anonymized,Serial_Dependence_U,2023.2.3,Win32,59.88023952,,,,,,,,,,,,2925.9376,8.0,2925.938,,,,2928.6752,2929.1756,2928.1574,2928.6747,2926.9412,1.0,2928.1573,2929.1756,2929.6705,2929.6706,2935.6871,9999.0,2935.6873,0.0,2936.686,8.0,7.0,247.0,22.0,1.0,1.2,0.3,Time
,,S29,1,Male,23,anonymized,Serial_Dependence_U,2023.2.3,Win32,59.88023952,,,,,,,,,,,,2936.6866,8.0,2936.6869,,,,2939.837,2940.3359,2939.3201,2939.8369,2937.7042,329.0,2939.32,2940.336,2940.8359,2940.836,2946.8525,9999.0,2946.8528,0.0,2947.8528,8.0,8.0,248.0,14.0,1.0,1.6,0.3,Time
,,S29,1,Male,23,anonymized,Serial_Dependence_U,2023.2.3,Win32,59.88023952,,,,,,,,,,,,2947.8539,8.0,2947.8549,,,,2951.0026,2951.5019,2950.4867,2951.0025,2948.87,184.0,2950.4866,2951.502,2952.0025,2952.0026,2958.0194,9999.0,2958.0198,0.0,2959.0186,8.0,9.0,249.0,9.0,1.0,1.6,0.7,Time
,,S29,1,Male,23,anonymized,Serial_Dependence_U,2023.2.3,Win32,59.88023952,,,,,,,,,,,,2959.0196,8.0,2959.0203,,,,2962.1686,2962.6678,2961.652,2962.1685,2960.0363,356.0,2961.6518,2962.6678,2963.1684,2963.1685,2969.1705,9999.0,2969.171,0.0,2970.1675,8.0,10.0,250.0,4.0,1.0,1.6,0.3,Time
,,S29,1,Male,23,anonymized,Serial_Dependence_U,2023.2.3,Win32,59.88023952,,,,,,,,,,,,2970.1685,8.0,2970.169,,,,2973.3175,2973.8173,2972.8008,2973.3174,2971.1854,308.0,2972.8006,2973.8173,2974.317,2974.3171,2980.3336,9999.0,2980.3337,0.0,2981.3336,8.0,11.0,251.0,29.0,1.0,1.6,0.7,Time
,,S29,1,Male,23,anonymized,Serial_Dependence_U,2023.2.3,Win32,59.88023952,,,,,,,,,,,,2981.3345,8.0,2981.3351,,,,2984.2836,2984.7831,2983.7667,2984.2835,2982.3505,331.0,2983.7666,2984.7831,2985.2835,2985.2835,2991.2999,9999.0,2991.3002,0.0,2992.2992,8.0,12.0,252.0,3.0,1.0,1.4,0.3,Time
,,S29,1,Male,23,anonymized,Serial_Dependence_U,2023.2.3,Win32,59.88023952,,,,,,,,,,,,2992.2999,8.0,2992.3003,,,,2994.6495,2995.1493,2994.133,2994.6492,2993.3168,90.0,2994.1329,2995.1493,2995.6492,2995.6494,3001.6659,9999.0,3001.6661,0.0,3002.6657,8.0,13.0,253.0,25.0,1.0,0.8,0.7,Time
,,S29,1,Male,23,anonymized,Serial_Dependence_U,2023.2.3,Win32,59.88023952,,,,,,,,,,,,3002.6666,8.0,3002.6673,,,,3005.2153,3005.7146,3004.6986,3005.2151,3003.6823,205.0,3004.6985,3005.7146,3006.2145,3006.2146,3012.2316,9999.0,3012.2319,0.0,3013.2307,8.0,14.0,254.0,1.0,1.0,1.0,0.3,Time
,,S29,1,Male,23,anonymized,Serial_Dependence_U,2023.2.3,Win32,59.88023952,,,,,,,,,,,,3013.2314,8.0,3013.2318,,,,3016.1658,3016.6644,3015.6491,3016.1657,3014.2481,28.0,3015.649,3016.6646,3017.1641,3017.1643,3023.1806,9999.0,3023.1808,0.0,3024.1799,8.0,15.0,255.0,13.0,1.0,1.4,0.3,Time
,,S29,1,Male,23,anonymized,Serial_Dependence_U,2023.2.3,Win32,59.88023952,,,,,,,,,,,,3024.1805,8.0,3024.1807,,,,3026.7314,3027.2303,3026.2141,3026.7311,3025.1978,260.0,3026.214,3027.2303,3027.7301,3027.7302,3033.7317,9999.0,3033.7319,0.0,3034.7309,8.0,16.0,256.0,26.0,1.0,1.0,0.7,Time
,,S29,1,Male,23,anonymized,Serial_Dependence_U,2023.2.3,Win32,59.88023952,,,,,,,,,,,,3034.7329,8.0,3034.7338,,,,3037.2797,3037.7792,3036.765,3037.2795,3035.75,186.0,3036.7648,3037.7793,3038.2792,3038.2792,3044.2962,9999.0,3044.2965,0.0,3045.295,8.0,17.0,257.0,11.0,1.0,1.0,0.3,Time
,,S29,1,Male,23,anonymized,Serial_Dependence_U,2023.2.3,Win32,59.88023952,,,,,,,,,,,,3045.2956,8.0,3045.2958,,,,3048.0458,3048.5451,3047.5295,3048.0457,3046.3126,76.0,3047.5294,3048.5451,3049.0456,3049.0457,3055.0473,9999.0,3055.0474,0.0,3056.05,8.0,18.0,258.0,27.0,1.0,1.2,0.7,Time
,,S29,1,Male,23,anonymized,Serial_Dependence_U,2023.2.3,Win32,59.88023952,,,,,,,,,,,,3056.0507,8.0,3056.0511,,,,3058.995,3059.4942,3058.4793,3058.9949,3057.0627,247.0,3058.4792,3059.4942,3059.9948,3059.995,3066.0108,9999.0,3066.0111,0.0,3067.0111,8.0,19.0,259.0,8.0,1.0,1.4,0.7,Time
,,S29,1,Male,23,anonymized,Serial_Dependence_U,2023.2.3,Win32,59.88023952,,,,,,,,,,,,3067.0121,8.0,3067.0129,,,,3069.3453,3069.8437,3068.828,3069.3449,3068.0128,114.0,3068.8277,3069.8437,3070.3437,3070.3438,3076.3607,9999.0,3076.3615,0.0,3077.3598,8.0,20.0,260.0,0.0,1.0,0.8,0.3,Time
,,S29,1,Male,23,anonymized,Serial_Dependence_U,2023.2.3,Win32,59.88023952,,,,,,,,,,,,3077.3607,8.0,3077.3613,,,,3079.71,3080.2099,3079.1934,3079.7098,3078.3779,85.0,3079.1933,3080.21,3080.7117,3080.7118,3086.7263,9999.0,3086.7265,0.0,3087.7259,8.0,21.0,261.0,10.0,1.0,0.8,0.3,Time
,,S29,1,Male,23,anonymized,Serial_Dependence_U,2023.2.3,Win32,59.88023952,,,,,,,,,,,,3087.727,8.0,3087.7274,,,,3090.0763,3090.576,3089.5595,3090.0762,3088.7429,206.0,3089.5594,3090.5761,3091.0757,3091.0759,3097.0924,9999.0,3097.0926,0.0,3098.0922,8.0,22.0,262.0,15.0,1.0,0.8,0.7,Time
,,S29,1,Male,23,anonymized,Serial_Dependence_U,2023.2.3,Win32,59.88023952,,,,,,,,,,,,3098.0928,8.0,3098.0934,,,,3100.643,3101.1425,3100.1253,3100.6429,3099.1096,109.0,3100.1252,3101.1426,3101.6419,3101.6419,3107.6584,9999.0,3107.6586,0.0,3108.6576,8.0,23.0,263.0,6.0,1.0,1.0,0.7,Time
,,S29,1,Male,23,anonymized,Serial_Dependence_U,2023.2.3,Win32,59.88023952,,,,,,,,,,,,3108.6581,8.0,3108.6585,,,,3111.8088,3112.3075,3111.2921,3111.8087,3109.6748,223.0,3111.292,3112.3075,3112.8075,3112.8076,3118.8239,9999.0,3118.8241,0.0,3119.8235,8.0,24.0,264.0,19.0,1.0,1.6,0.7,Time
,,S29,1,Male,23,anonymized,Serial_Dependence_U,2023.2.3,Win32,59.88023952,,,,,,,,,,,,3119.8245,8.0,3119.8249,,,,3122.9738,3123.4738,3122.4579,3122.9738,3120.8415,152.0,3122.4577,3123.474,3123.9731,3123.9731,3129.9907,9999.0,3129.9914,0.0,3130.9901,8.0,25.0,265.0,24.0,1.0,1.6,0.3,Time
,,S29,1,Male,23,anonymized,Serial_Dependence_U,2023.2.3,Win32,59.88023952,,,,,,,,,,,,3130.9915,8.0,3130.992,,,,3133.9237,3134.423,3133.4228,3133.9235,3132.0066,338.0,3133.4227,3134.4231,3134.9228,3134.9229,3140.9391,9999.0,3140.9393,0.0,3141.9408,8.0,26.0,266.0,28.0,1.0,1.4,0.7,Time
,,S29,1,Male,23,anonymized,Serial_Dependence_U,2023.2.3,Win32,59.88023952,,,,,,,,,,,,3141.9413,8.0,3141.9419,,,,3144.4895,3144.9884,3143.9722,3144.4894,3142.9644,254.0,3143.9721,3144.9885,3145.4887,3145.4888,3151.5064,9999.0,3151.5073,0.0,3152.5041,8.0,27.0,267.0,21.0,1.0,1.0,0.3,Time
,,S29,1,Male,23,anonymized,Serial_Dependence_U,2023.2.3,Win32,59.88023952,,,,,,,,,,,,3152.5047,8.0,3152.5049,,,,3154.8583,3155.3545,3154.3397,3154.8581,3153.5216,292.0,3154.3396,3155.3545,3155.8548,3155.8548,3161.8709,9999.0,3161.8711,0.0,3162.8703,8.0,28.0,268.0,20.0,1.0,0.8,0.3,Time
,,S29,1,Male,23,anonymized,Serial_Dependence_U,2023.2.3,Win32,59.88023952,,,,,,,,,,,,3162.871,8.0,3162.8714,,,,3165.605,3166.1039,3165.0884,3165.605,3163.8875,91.0,3165.0883,3166.104,3166.6036,3166.6036,3172.6216,9999.0,3172.6219,0.0,3173.6206,8.0,29.0,269.0,2.0,1.0,1.2,0.3,Time
