Scale_setup.started,Scale_setup.stopped,participant,session,sex,age,date,expName,psychopyVersion,OS,frameRate,screen_scale_keys.started,screen_scale_keys.stopped,X Scale,Y Scale,rectangel_keys.started,rectangel_keys.stopped,Intro.started,Intro.stopped,key_resp_2.keys,key_resp_2.rt,key_resp_2.duration,block.started,Block_id,block.stopped,Block_resp_2.keys,Block_resp_2.rt,Block_resp_2.duration,ITI.started,ITI.stopped,Mask_2.started,Mask_2.stopped,M2.started,direction,M2.stopped,Cue.started,Cue.stopped,Response.started,Response.stopped,keyDuration,Feedback_Time.started,FeedbackID_T,Feedback_Time.stopped,trials.thisRepN,trials.thisTrialN,trials.thisN,trials.thisIndex,trials.ran,TimeDur,Coherence1,TrialType
0.0006,0.0011,S30,1,Female,29,anonymized,Serial_Dependence_U,2023.2.3,Win32,60.24096386,,,,,,,,,,,,,,,,,,,,,,,,,,,,,,,,,,,,,,,,
,,S30,1,Female,29,anonymized,Serial_Dependence_U,2023.2.3,Win32,60.24096386,0.0038,34.1487,0.05,0.05,34.1497,36.6085,36.6098,36.858,space,0.1964,,,,,,,,,,,,,,,,,,,,,,,,,,,,,,
,,S30,1,Female,29,anonymized,Serial_Dependence_U,2023.2.3,Win32,60.24096386,,,,,,,,,,,,36.8707,0.0,39.2394,s,2.3351,,41.7863,42.2844,41.2707,41.7856,40.256,200.0,41.2702,42.285,42.7843,42.7856,48.7938,9999.0,48.7953,0.0,49.7918,0.0,0.0,0.0,11.0,1.0,1.0,0.3,Time
,,S30,1,Female,29,anonymized,Serial_Dependence_U,2023.2.3,Win32,60.24096386,,,,,,,,,,,,49.7945,0.0,49.7991,,,,52.1407,52.6376,51.6237,52.14,50.8082,188.0,51.6234,52.6377,53.1368,53.137,59.1461,9999.0,59.1473,0.0,60.145,0.0,1.0,1.0,15.0,1.0,0.8,0.7,Time
,,S30,1,Female,29,anonymized,Serial_Dependence_U,2023.2.3,Win32,60.24096386,,,,,,,,,,,,60.1466,0.0,60.1485,,,,62.6754,63.1739,62.1645,62.6747,61.1607,285.0,62.1644,63.174,63.6731,63.6733,69.682,9999.0,69.6824,0.0,70.6803,0.0,2.0,2.0,26.0,1.0,1.0,0.7,Time
,,S30,1,Female,29,anonymized,Serial_Dependence_U,2023.2.3,Win32,60.24096386,,,,,,,,,,,,70.6811,0.0,70.6819,,,,73.4275,73.9266,72.9115,73.4273,71.6974,206.0,72.9114,73.9267,74.4259,74.4261,80.4352,9999.0,80.4364,0.0,81.4329,0.0,3.0,3.0,22.0,1.0,1.2,0.3,Time
,,S30,1,Female,29,anonymized,Serial_Dependence_U,2023.2.3,Win32,60.24096386,,,,,,,,,,,,81.4337,0.0,81.4352,,,,83.9818,84.4796,83.4643,83.9813,82.4503,356.0,83.4641,84.4797,84.9785,84.9786,90.9898,9999.0,90.9908,0.0,91.9864,0.0,4.0,4.0,21.0,1.0,1.0,0.3,Time
,,S30,1,Female,29,anonymized,Serial_Dependence_U,2023.2.3,Win32,60.24096386,,,,,,,,,,,,91.9873,0.0,91.989,,,,94.9351,95.4313,94.4175,94.9347,93.0023,344.0,94.417,95.4314,95.9311,95.9313,101.9401,9999.0,101.9406,0.0,102.9386,0.0,5.0,5.0,13.0,1.0,1.4,0.3,Time
,,S30,1,Female,29,anonymized,Serial_Dependence_U,2023.2.3,Win32,60.24096386,,,,,,,,,,,,102.9396,0.0,102.9404,,,,106.0851,106.5836,105.5721,106.0849,103.9555,113.0,105.5708,106.5836,107.0833,107.0834,113.0934,9999.0,113.0946,0.0,114.0906,0.0,6.0,6.0,19.0,1.0,1.6,0.7,Time
,,S30,1,Female,29,anonymized,Serial_Dependence_U,2023.2.3,Win32,60.24096386,,,,,,,,,,,,114.0917,0.0,114.0932,,,,116.4397,116.9371,115.9243,116.4389,115.1091,187.0,115.9239,116.9372,117.436,117.4362,123.4459,9999.0,123.4468,0.0,124.4437,0.0,7.0,7.0,5.0,1.0,0.8,0.7,Time
,,S30,1,Female,29,anonymized,Serial_Dependence_U,2023.2.3,Win32,60.24096386,,,,,,,,,,,,124.4449,0.0,124.4466,,,,127.3903,127.889,126.8752,127.3901,125.4597,194.0,126.8742,127.8891,128.3884,128.3885,134.3979,9999.0,134.3989,0.0,135.3965,0.0,8.0,8.0,28.0,1.0,1.4,0.7,Time
,,S30,1,Female,29,anonymized,Serial_Dependence_U,2023.2.3,Win32,60.24096386,,,,,,,,,,,,135.3975,0.0,135.3983,,,,137.9437,138.4423,137.428,137.9432,136.4125,351.0,137.4274,138.4425,138.9415,138.9417,144.9527,9999.0,144.9536,0.0,145.9492,0.0,9.0,9.0,16.0,1.0,1.0,0.7,Time
,,S30,1,Female,29,anonymized,Serial_Dependence_U,2023.2.3,Win32,60.24096386,,,,,,,,,,,,145.9502,0.0,145.9508,,,,148.6972,149.1945,148.181,148.6967,146.9656,89.0,148.1804,149.1945,149.6941,149.6942,155.7036,9999.0,155.7042,0.0,156.7015,0.0,10.0,10.0,7.0,1.0,1.2,0.7,Time
,,S30,1,Female,29,anonymized,Serial_Dependence_U,2023.2.3,Win32,60.24096386,,,,,,,,,,,,156.702,0.0,156.703,,,,159.8483,160.3467,159.3341,159.8482,157.7196,102.0,159.3336,160.3467,160.8461,160.8461,166.856,9999.0,166.8568,0.0,167.8539,0.0,11.0,11.0,4.0,1.0,1.6,0.3,Time
,,S30,1,Female,29,anonymized,Serial_Dependence_U,2023.2.3,Win32,60.24096386,,,,,,,,,,,,167.8548,0.0,167.8553,,,,171.0012,171.4991,170.4867,171.0007,168.8707,203.0,170.4861,171.4992,171.9986,171.9988,178.0077,9999.0,178.0083,0.0,179.0057,0.0,12.0,12.0,24.0,1.0,1.6,0.3,Time
,,S30,1,Female,29,anonymized,Serial_Dependence_U,2023.2.3,Win32,60.24096386,,,,,,,,,,,,179.0063,0.0,179.0068,,,,181.7545,182.2516,181.24,181.7539,180.023,269.0,181.2395,182.2516,182.7511,182.7512,188.7607,9999.0,188.762,0.0,189.7583,0.0,13.0,13.0,17.0,1.0,1.2,0.7,Time
,,S30,1,Female,29,anonymized,Serial_Dependence_U,2023.2.3,Win32,60.24096386,,,,,,,,,,,,189.7589,0.0,189.76,,,,192.6897,193.188,192.1727,192.6892,190.761,280.0,192.1726,193.1881,193.687,193.6872,199.6962,9999.0,199.6971,0.0,200.6942,0.0,14.0,14.0,3.0,1.0,1.4,0.3,Time
,,S30,1,Female,29,anonymized,Serial_Dependence_U,2023.2.3,Win32,60.24096386,,,,,,,,,,,,200.6948,0.0,200.6952,,,,203.243,203.7408,202.7263,203.2424,201.7115,322.0,202.7257,203.7409,204.2404,204.2406,210.249,9999.0,210.2497,0.0,211.2474,0.0,15.0,15.0,6.0,1.0,1.0,0.7,Time
,,S30,1,Female,29,anonymized,Serial_Dependence_U,2023.2.3,Win32,60.24096386,,,,,,,,,,,,211.2484,0.0,211.2495,,,,214.3948,214.8929,213.8805,214.3942,212.2644,348.0,213.8799,214.893,215.3917,215.3918,221.4014,9999.0,221.4031,0.0,222.3998,0.0,16.0,16.0,29.0,1.0,1.6,0.7,Time
,,S30,1,Female,29,anonymized,Serial_Dependence_U,2023.2.3,Win32,60.24096386,,,,,,,,,,,,222.401,0.0,222.4017,,,,225.3463,225.8447,224.8348,225.346,223.4162,267.0,224.8341,225.8448,226.3441,226.3442,232.3537,9999.0,232.3547,0.0,233.3517,0.0,17.0,17.0,8.0,1.0,1.4,0.7,Time
,,S30,1,Female,29,anonymized,Serial_Dependence_U,2023.2.3,Win32,60.24096386,,,,,,,,,,,,233.3523,0.0,233.3534,,,,235.7003,236.1978,235.1845,235.6997,234.3687,216.0,235.184,236.198,236.6979,236.698,242.7076,9999.0,242.7084,0.0,243.7051,0.0,18.0,18.0,25.0,1.0,0.8,0.7,Time
,,S30,1,Female,29,anonymized,Serial_Dependence_U,2023.2.3,Win32,60.24096386,,,,,,,,,,,,243.7061,0.0,243.7067,,,,246.8515,247.3503,246.3354,246.8513,244.7209,101.0,246.3353,247.3504,247.8496,247.8499,253.859,9999.0,253.8596,0.0,254.8574,0.0,19.0,19.0,14.0,1.0,1.6,0.3,Time
,,S30,1,Female,29,anonymized,Serial_Dependence_U,2023.2.3,Win32,60.24096386,,,,,,,,,,,,254.8584,0.0,254.8594,,,,258.0045,258.5023,257.4887,258.004,255.8753,178.0,257.4882,258.5024,259.0018,259.002,265.0116,9999.0,265.0125,0.0,266.0092,0.0,20.0,20.0,9.0,1.0,1.6,0.7,Time
,,S30,1,Female,29,anonymized,Serial_Dependence_U,2023.2.3,Win32,60.24096386,,,,,,,,,,,,266.0099,0.0,266.0104,,,,268.7588,269.2554,268.2403,268.7582,267.0261,205.0,268.2401,269.2556,269.7544,269.7545,275.7636,9999.0,275.7644,0.0,276.7617,0.0,21.0,21.0,27.0,1.0,1.2,0.7,Time
,,S30,1,Female,29,anonymized,Serial_Dependence_U,2023.2.3,Win32,60.24096386,,,,,,,,,,,,276.7623,0.0,276.7633,,,,279.1103,279.6088,278.5956,279.1097,277.778,305.0,278.5951,279.6088,280.1073,280.1075,286.118,9999.0,286.1189,0.0,287.1156,0.0,22.0,22.0,0.0,1.0,0.8,0.3,Time
,,S30,1,Female,29,anonymized,Serial_Dependence_U,2023.2.3,Win32,60.24096386,,,,,,,,,,,,287.1166,0.0,287.118,,,,289.6646,290.1615,289.1476,289.6639,288.1325,74.0,289.1474,290.1616,290.6603,290.6603,296.6697,9999.0,296.6703,0.0,297.6682,0.0,23.0,23.0,1.0,1.0,1.0,0.3,Time
,,S30,1,Female,29,anonymized,Serial_Dependence_U,2023.2.3,Win32,60.24096386,,,,,,,,,,,,297.6692,0.0,297.6696,,,,300.4161,300.9137,299.8992,300.4155,298.6863,270.0,299.8991,300.9137,301.4134,301.4137,307.4224,9999.0,307.4239,0.0,308.4206,0.0,24.0,24.0,2.0,1.0,1.2,0.3,Time
,,S30,1,Female,29,anonymized,Serial_Dependence_U,2023.2.3,Win32,60.24096386,,,,,,,,,,,,308.4212,0.0,308.4223,,,,310.7519,311.2501,310.2362,310.7518,309.4264,228.0,310.2361,311.2502,311.7495,311.7496,317.7603,9999.0,317.7615,0.0,318.7628,0.0,25.0,25.0,10.0,1.0,0.8,0.3,Time
,,S30,1,Female,29,anonymized,Serial_Dependence_U,2023.2.3,Win32,60.24096386,,,,,,,,,,,,318.7632,0.0,318.7638,,,,321.7043,322.2028,321.1886,321.7041,319.7732,289.0,321.1881,322.203,322.7024,322.7025,328.7136,9999.0,328.7143,0.0,329.7099,0.0,26.0,26.0,18.0,1.0,1.4,0.7,Time
,,S30,1,Female,29,anonymized,Serial_Dependence_U,2023.2.3,Win32,60.24096386,,,,,,,,,,,,329.7109,0.0,329.7119,,,,332.657,333.155,332.1404,332.6565,330.7264,171.0,332.1403,333.1552,333.6543,333.6544,339.6649,9999.0,339.6661,0.0,340.662,0.0,27.0,27.0,23.0,1.0,1.4,0.3,Time
,,S30,1,Female,29,anonymized,Serial_Dependence_U,2023.2.3,Win32,60.24096386,,,,,,,,,,,,340.6625,0.0,340.6635,,,,343.0106,343.5084,342.4952,343.01,341.6782,199.0,342.4946,343.5085,343.9967,343.9969,350.0003,9999.0,350.0015,0.0,350.9992,0.0,28.0,28.0,20.0,1.0,0.8,0.3,Time
,,S30,1,Female,29,anonymized,Serial_Dependence_U,2023.2.3,Win32,60.24096386,,,,,,,,,,,,351.0006,0.0,351.0016,,,,353.7465,354.2443,353.2299,353.7459,352.0145,202.0,353.2294,354.2443,354.7441,354.7442,360.753,9999.0,360.7541,0.0,361.7515,0.0,29.0,29.0,12.0,1.0,1.2,0.3,Time
,,S30,1,Female,29,anonymized,Serial_Dependence_U,2023.2.3,Win32,60.24096386,,,,,,,,,,,,361.7524,1.0,365.1968,s,3.4098,,367.5446,368.0431,367.0299,367.5442,366.2127,205.0,367.0293,368.0432,368.5426,368.5428,374.5519,9999.0,374.5527,0.0,375.5505,1.0,0.0,30.0,10.0,1.0,0.8,0.3,Time
,,S30,1,Female,29,anonymized,Serial_Dependence_U,2023.2.3,Win32,60.24096386,,,,,,,,,,,,375.5521,1.0,375.5625,,,,378.714,379.2118,378.1975,378.7135,376.5826,276.0,378.197,379.212,379.7114,379.7116,385.7207,9999.0,385.7214,0.0,386.7188,1.0,1.0,31.0,14.0,1.0,1.6,0.3,Time
,,S30,1,Female,29,anonymized,Serial_Dependence_U,2023.2.3,Win32,60.24096386,,,,,,,,,,,,386.7197,1.0,386.7209,,,,389.2662,389.7645,388.7521,389.266,387.7352,327.0,388.7515,389.7646,390.2642,390.2643,396.2738,9999.0,396.2747,0.0,397.272,1.0,2.0,32.0,11.0,1.0,1.0,0.3,Time
,,S30,1,Female,29,anonymized,Serial_Dependence_U,2023.2.3,Win32,60.24096386,,,,,,,,,,,,397.2736,1.0,397.2749,,,,400.2191,400.717,399.7026,400.2185,398.2888,89.0,399.7023,400.717,401.2163,401.2164,407.2259,9999.0,407.2269,0.0,408.2243,1.0,3.0,33.0,3.0,1.0,1.4,0.3,Time
,,S30,1,Female,29,anonymized,Serial_Dependence_U,2023.2.3,Win32,60.24096386,,,,,,,,,,,,408.2255,1.0,408.227,,,,410.5723,411.0715,410.0571,410.5719,409.2405,55.0,410.0566,411.0716,411.5701,411.5702,417.5793,9999.0,417.58,0.0,418.578,1.0,4.0,34.0,20.0,1.0,0.8,0.3,Time
,,S30,1,Female,29,anonymized,Serial_Dependence_U,2023.2.3,Win32,60.24096386,,,,,,,,,,,,418.5792,1.0,418.5798,,,,420.9261,421.424,420.4119,420.9256,419.5941,3.0,420.4113,421.424,421.9229,421.923,427.9324,9999.0,427.9334,0.0,428.9311,1.0,5.0,35.0,0.0,1.0,0.8,0.3,Time
,,S30,1,Female,29,anonymized,Serial_Dependence_U,2023.2.3,Win32,60.24096386,,,,,,,,,,,,428.9326,1.0,428.9335,,,,431.6782,432.1769,431.162,431.6777,429.9473,72.0,431.1616,432.177,432.6761,432.6763,438.6869,9999.0,438.6876,0.0,439.683,1.0,6.0,36.0,22.0,1.0,1.2,0.3,Time
,,S30,1,Female,29,anonymized,Serial_Dependence_U,2023.2.3,Win32,60.24096386,,,,,,,,,,,,439.6839,1.0,439.685,,,,442.0314,442.5294,441.5152,442.0309,440.6999,138.0,441.5146,442.5295,443.0291,443.0293,449.038,9999.0,449.0386,0.0,450.0364,1.0,7.0,37.0,5.0,1.0,0.8,0.7,Time
,,S30,1,Female,29,anonymized,Serial_Dependence_U,2023.2.3,Win32,60.24096386,,,,,,,,,,,,450.0373,1.0,450.0388,,,,456.0971,456.5951,455.5806,456.0969,453.9624,340.0,455.5803,456.5952,464.3122,464.3122,470.3286,9999.0,470.3294,0.0,471.3255,1.0,8.0,38.0,29.0,1.0,1.6,0.7,Time
,,S30,1,Female,29,anonymized,Serial_Dependence_U,2023.2.3,Win32,60.24096386,,,,,,,,,,,,471.3261,1.0,471.3266,,,,474.0721,474.5712,473.5561,474.072,472.3412,229.0,473.556,474.5713,475.0704,475.0706,481.0795,9999.0,481.0797,0.0,482.0781,1.0,9.0,39.0,27.0,1.0,1.2,0.7,Time
,,S30,1,Female,29,anonymized,Serial_Dependence_U,2023.2.3,Win32,60.24096386,,,,,,,,,,,,482.0795,1.0,482.0807,,,,485.2248,485.7227,484.7096,485.2244,483.0949,315.0,484.7094,485.7228,486.2227,486.2228,492.2316,9999.0,492.2319,0.0,493.2302,1.0,10.0,40.0,9.0,1.0,1.6,0.7,Time
,,S30,1,Female,29,anonymized,Serial_Dependence_U,2023.2.3,Win32,60.24096386,,,,,,,,,,,,493.2316,1.0,493.2326,,,,495.7775,496.276,495.2613,495.7773,494.2459,78.0,495.2609,496.2762,496.7754,496.7754,502.7868,9999.0,502.7871,0.0,503.7827,1.0,11.0,41.0,1.0,1.0,1.0,0.3,Time
,,S30,1,Female,29,anonymized,Serial_Dependence_U,2023.2.3,Win32,60.24096386,,,,,,,,,,,,503.7833,1.0,503.7841,,,,506.731,507.2281,506.2146,506.7308,504.7987,204.0,506.2142,507.2282,507.7281,507.7282,513.7378,9999.0,513.7386,0.0,514.7359,1.0,12.0,42.0,8.0,1.0,1.4,0.7,Time
,,S30,1,Female,29,anonymized,Serial_Dependence_U,2023.2.3,Win32,60.24096386,,,,,,,,,,,,514.7373,1.0,514.7384,,,,517.2834,517.7815,516.7664,517.2828,515.752,0.0,516.7663,517.7816,518.2808,518.281,524.2913,9999.0,524.2917,0.0,525.2879,1.0,13.0,43.0,6.0,1.0,1.0,0.7,Time
,,S30,1,Female,29,anonymized,Serial_Dependence_U,2023.2.3,Win32,60.24096386,,,,,,,,,,,,525.2885,1.0,525.2889,,,,528.4349,528.9334,527.9185,528.4345,526.3049,193.0,527.9184,528.9335,529.4325,529.4326,535.4432,9999.0,535.4435,0.0,536.4403,1.0,14.0,44.0,19.0,1.0,1.6,0.7,Time
,,S30,1,Female,29,anonymized,Serial_Dependence_U,2023.2.3,Win32,60.24096386,,,,,,,,,,,,536.4417,1.0,536.4423,,,,539.3871,539.8859,538.8721,539.387,537.4574,74.0,538.872,539.8861,540.3855,540.3856,546.3943,9999.0,546.3946,0.0,547.3924,1.0,15.0,45.0,13.0,1.0,1.4,0.3,Time
,,S30,1,Female,29,anonymized,Serial_Dependence_U,2023.2.3,Win32,60.24096386,,,,,,,,,,,,547.3931,1.0,547.3934,,,,549.9413,550.4387,549.424,549.941,548.4092,157.0,549.4239,550.4388,550.9383,550.9385,556.9485,9999.0,556.9488,0.0,557.9457,1.0,16.0,46.0,26.0,1.0,1.0,0.7,Time
,,S30,1,Female,29,anonymized,Serial_Dependence_U,2023.2.3,Win32,60.24096386,,,,,,,,,,,,557.947,1.0,557.9475,,,,560.893,561.3917,560.3773,560.8925,558.962,249.0,560.3768,561.3917,561.8912,561.8914,567.8997,9999.0,567.9,0.0,568.8978,1.0,17.0,47.0,23.0,1.0,1.4,0.3,Time
,,S30,1,Female,29,anonymized,Serial_Dependence_U,2023.2.3,Win32,60.24096386,,,,,,,,,,,,568.8984,1.0,568.8987,,,,571.2476,571.7444,570.7295,571.2473,569.9159,38.0,570.7293,571.7445,572.2437,572.2439,578.2544,9999.0,578.2555,0.0,579.2511,1.0,18.0,48.0,15.0,1.0,0.8,0.7,Time
,,S30,1,Female,29,anonymized,Serial_Dependence_U,2023.2.3,Win32,60.24096386,,,,,,,,,,,,579.252,1.0,579.2526,,,,581.9984,582.4975,581.4831,581.9982,580.2689,122.0,581.4827,582.4976,582.9967,582.9967,589.0059,9999.0,589.0062,0.0,590.0042,1.0,19.0,49.0,12.0,1.0,1.2,0.3,Time
,,S30,1,Female,29,anonymized,Serial_Dependence_U,2023.2.3,Win32,60.24096386,,,,,,,,,,,,590.0058,1.0,590.0065,,,,592.7508,593.2493,592.2357,592.7507,591.0194,14.0,592.2355,593.2493,593.7487,593.7487,599.7584,9999.0,599.7587,0.0,600.7567,1.0,20.0,50.0,7.0,1.0,1.2,0.7,Time
,,S30,1,Female,29,anonymized,Serial_Dependence_U,2023.2.3,Win32,60.24096386,,,,,,,,,,,,600.7581,1.0,600.7586,,,,603.6797,604.1688,603.171,603.6796,601.759,98.0,603.1707,604.1688,604.6678,604.6679,610.6789,9999.0,610.6792,0.0,611.6761,1.0,21.0,51.0,18.0,1.0,1.4,0.7,Time
,,S30,1,Female,29,anonymized,Serial_Dependence_U,2023.2.3,Win32,60.24096386,,,,,,,,,,,,611.6778,1.0,611.6785,,,,614.8243,615.3214,614.3093,614.8237,612.6933,238.0,614.3087,615.3214,615.8211,615.8212,621.8301,9999.0,621.831,0.0,622.8276,1.0,22.0,52.0,4.0,1.0,1.6,0.3,Time
,,S30,1,Female,29,anonymized,Serial_Dependence_U,2023.2.3,Win32,60.24096386,,,,,,,,,,,,622.8282,1.0,622.8289,,,,625.5756,626.0737,625.0593,625.5749,623.8455,139.0,625.0587,626.0738,626.5726,626.5726,632.5837,9999.0,632.584,0.0,633.5808,1.0,23.0,53.0,17.0,1.0,1.2,0.7,Time
,,S30,1,Female,29,anonymized,Serial_Dependence_U,2023.2.3,Win32,60.24096386,,,,,,,,,,,,633.5831,1.0,633.5845,,,,635.9288,636.4264,635.4126,635.9285,634.5967,243.0,635.4119,636.4264,636.9262,636.9264,642.9364,9999.0,642.937,0.0,643.9337,1.0,24.0,54.0,25.0,1.0,0.8,0.7,Time
,,S30,1,Female,29,anonymized,Serial_Dependence_U,2023.2.3,Win32,60.24096386,,,,,,,,,,,,643.9351,1.0,643.9365,,,,646.8823,647.3792,646.3649,646.8821,644.9501,155.0,646.3642,647.3793,647.8788,647.8792,653.888,9999.0,653.8889,0.0,654.8861,1.0,25.0,55.0,28.0,1.0,1.4,0.7,Time
,,S30,1,Female,29,anonymized,Serial_Dependence_U,2023.2.3,Win32,60.24096386,,,,,,,,,,,,654.8873,1.0,654.8883,,,,657.4343,657.9324,656.9182,657.4338,655.9022,192.0,656.9176,657.9325,658.4314,658.4316,664.4411,9999.0,664.4418,0.0,665.4386,1.0,26.0,56.0,21.0,1.0,1.0,0.3,Time
,,S30,1,Female,29,anonymized,Serial_Dependence_U,2023.2.3,Win32,60.24096386,,,,,,,,,,,,665.4393,1.0,665.4406,,,,668.5862,669.0841,668.0706,668.5855,666.4549,236.0,668.0701,669.0842,669.5837,669.5838,675.5939,9999.0,675.5941,0.0,676.5911,1.0,27.0,57.0,24.0,1.0,1.6,0.3,Time
,,S30,1,Female,29,anonymized,Serial_Dependence_U,2023.2.3,Win32,60.24096386,,,,,,,,,,,,676.5922,1.0,676.5933,,,,679.339,679.8367,678.823,679.3388,677.6078,59.0,678.8226,679.8369,680.3359,680.3359,686.3458,9999.0,686.3465,0.0,687.3438,1.0,28.0,58.0,2.0,1.0,1.2,0.3,Time
,,S30,1,Female,29,anonymized,Serial_Dependence_U,2023.2.3,Win32,60.24096386,,,,,,,,,,,,687.345,1.0,687.3462,,,,689.8918,690.3893,689.3768,689.8911,688.3613,157.0,689.3763,690.3894,690.8889,690.889,696.9001,9999.0,696.9005,0.0,697.8967,1.0,29.0,59.0,16.0,1.0,1.0,0.7,Time
,,S30,1,Female,29,anonymized,Serial_Dependence_U,2023.2.3,Win32,60.24096386,,,,,,,,,,,,697.8979,2.0,701.1261,s,3.1714,,703.4741,703.972,702.958,703.4739,702.1425,258.0,702.9575,703.9721,704.4715,704.4715,710.4815,9999.0,710.4825,0.0,711.4791,2.0,0.0,60.0,15.0,1.0,0.8,0.7,Time
,,S30,1,Female,29,anonymized,Serial_Dependence_U,2023.2.3,Win32,60.24096386,,,,,,,,,,,,711.4802,2.0,711.4854,,,,714.0271,714.5248,713.5109,714.0267,712.4959,58.0,713.5103,714.525,715.0242,715.0243,721.0345,9999.0,721.0349,0.0,722.0322,2.0,1.0,61.0,26.0,1.0,1.0,0.7,Time
,,S30,1,Female,29,anonymized,Serial_Dependence_U,2023.2.3,Win32,60.24096386,,,,,,,,,,,,722.0335,2.0,722.035,,,,725.1792,725.6767,724.664,725.1788,723.0485,275.0,724.6639,725.6767,726.1762,726.1763,732.1856,9999.0,732.1866,0.0,733.1842,2.0,2.0,62.0,24.0,1.0,1.6,0.3,Time
,,S30,1,Female,29,anonymized,Serial_Dependence_U,2023.2.3,Win32,60.24096386,,,,,,,,,,,,733.1854,2.0,733.1869,,,,735.7331,736.2303,735.2148,735.7327,734.2007,70.0,735.2147,736.2305,736.7295,736.7296,742.7401,9999.0,742.7405,0.0,743.7369,2.0,3.0,63.0,1.0,1.0,1.0,0.3,Time
,,S30,1,Female,29,anonymized,Serial_Dependence_U,2023.2.3,Win32,60.24096386,,,,,,,,,,,,743.738,2.0,743.7392,,,,746.285,746.7827,745.769,746.2847,744.7549,333.0,745.7684,746.7829,747.2821,747.2823,753.2916,9999.0,753.2919,0.0,754.2894,2.0,4.0,64.0,6.0,1.0,1.0,0.7,Time
,,S30,1,Female,29,anonymized,Serial_Dependence_U,2023.2.3,Win32,60.24096386,,,,,,,,,,,,754.2903,2.0,754.2906,,,,757.2364,757.7349,756.7225,757.2361,755.3054,233.0,756.7219,757.7349,758.2343,758.2344,764.2446,9999.0,764.2452,0.0,765.2425,2.0,5.0,65.0,13.0,1.0,1.4,0.3,Time
,,S30,1,Female,29,anonymized,Serial_Dependence_U,2023.2.3,Win32,60.24096386,,,,,,,,,,,,765.244,2.0,765.2455,,,,768.3899,768.8874,767.8744,768.3897,766.2587,338.0,767.874,768.8876,769.387,769.3871,775.3962,9999.0,775.3971,0.0,776.3939,2.0,6.0,66.0,9.0,1.0,1.6,0.7,Time
,,S30,1,Female,29,anonymized,Serial_Dependence_U,2023.2.3,Win32,60.24096386,,,,,,,,,,,,776.3948,2.0,776.3959,,,,779.1414,779.6405,778.6265,779.1409,777.4125,9.0,778.6263,779.6406,780.1391,780.1392,786.1499,9999.0,786.1503,0.0,787.1472,2.0,7.0,67.0,2.0,1.0,1.2,0.3,Time
,,S30,1,Female,29,anonymized,Serial_Dependence_U,2023.2.3,Win32,60.24096386,,,,,,,,,,,,787.1489,2.0,787.1505,,,,789.8948,790.3926,789.3799,789.8943,788.1628,73.0,789.3794,790.3927,790.8921,790.8922,796.9011,9999.0,796.9014,0.0,797.8994,2.0,8.0,68.0,12.0,1.0,1.2,0.3,Time
,,S30,1,Female,29,anonymized,Serial_Dependence_U,2023.2.3,Win32,60.24096386,,,,,,,,,,,,797.9002,2.0,797.901,,,,800.2495,800.7462,799.7313,800.2491,798.9158,217.0,799.731,800.7463,801.2454,801.2455,807.255,9999.0,807.2557,0.0,808.2533,2.0,9.0,69.0,10.0,1.0,0.8,0.3,Time
,,S30,1,Female,29,anonymized,Serial_Dependence_U,2023.2.3,Win32,60.24096386,,,,,,,,,,,,808.2546,2.0,808.2553,,,,811.2003,811.698,810.6843,811.1999,809.2701,309.0,810.6837,811.6981,812.1977,812.1979,818.2071,9999.0,818.208,0.0,819.2054,2.0,10.0,70.0,23.0,1.0,1.4,0.3,Time
,,S30,1,Female,29,anonymized,Serial_Dependence_U,2023.2.3,Win32,60.24096386,,,,,,,,,,,,819.2071,2.0,819.2087,,,,821.5535,822.0513,821.0372,821.5532,820.222,98.0,821.0366,822.0515,822.5508,822.551,828.5615,9999.0,828.5622,0.0,829.5585,2.0,11.0,71.0,25.0,1.0,0.8,0.7,Time
,,S30,1,Female,29,anonymized,Serial_Dependence_U,2023.2.3,Win32,60.24096386,,,,,,,,,,,,829.56,2.0,829.5612,,,,831.9065,832.4044,831.3907,831.906,830.5751,4.0,831.3902,832.4045,832.9039,832.9041,838.9151,9999.0,838.9156,0.0,839.9112,2.0,12.0,72.0,20.0,1.0,0.8,0.3,Time
,,S30,1,Female,29,anonymized,Serial_Dependence_U,2023.2.3,Win32,60.24096386,,,,,,,,,,,,839.912,2.0,839.9131,,,,842.859,843.3565,842.342,842.8584,840.9283,244.0,842.3418,843.3566,843.8561,843.8562,849.8667,9999.0,849.8668,0.0,850.8638,2.0,13.0,73.0,3.0,1.0,1.4,0.3,Time
,,S30,1,Female,29,anonymized,Serial_Dependence_U,2023.2.3,Win32,60.24096386,,,,,,,,,,,,850.865,2.0,850.8661,,,,854.0113,854.5092,853.4953,854.0112,851.8808,319.0,853.4951,854.5093,855.0087,855.0088,861.0189,9999.0,861.0196,0.0,862.0156,2.0,14.0,74.0,29.0,1.0,1.6,0.7,Time
,,S30,1,Female,29,anonymized,Serial_Dependence_U,2023.2.3,Win32,60.24096386,,,,,,,,,,,,862.0162,2.0,862.0173,,,,864.3636,864.8622,863.8481,864.3633,863.0337,25.0,863.8473,864.8622,865.3618,865.3619,871.3718,9999.0,871.3722,0.0,872.3688,2.0,15.0,75.0,5.0,1.0,0.8,0.7,Time
,,S30,1,Female,29,anonymized,Serial_Dependence_U,2023.2.3,Win32,60.24096386,,,,,,,,,,,,872.3692,2.0,872.3694,,,,875.1162,875.6144,874.6,875.1161,873.385,45.0,874.5998,875.6145,876.1139,876.114,882.1247,9999.0,882.1253,0.0,883.1216,2.0,16.0,76.0,27.0,1.0,1.2,0.7,Time
,,S30,1,Female,29,anonymized,Serial_Dependence_U,2023.2.3,Win32,60.24096386,,,,,,,,,,,,883.1223,2.0,883.1234,,,,886.0686,886.5672,885.5528,886.0685,884.1378,294.0,885.5526,886.5674,887.0666,887.0668,893.0758,9999.0,893.0761,0.0,894.0739,2.0,17.0,77.0,8.0,1.0,1.4,0.7,Time
,,S30,1,Female,29,anonymized,Serial_Dependence_U,2023.2.3,Win32,60.24096386,,,,,,,,,,,,894.0746,2.0,894.076,,,,897.0208,897.5201,896.5049,897.0207,895.09,310.0,896.5048,897.5201,898.0199,898.0199,904.0314,9999.0,904.0316,0.0,905.0265,2.0,18.0,78.0,18.0,1.0,1.4,0.7,Time
,,S30,1,Female,29,anonymized,Serial_Dependence_U,2023.2.3,Win32,60.24096386,,,,,,,,,,,,905.027,2.0,905.0278,,,,907.5576,908.0563,907.0417,907.5573,906.0324,289.0,907.0414,908.0564,908.5551,908.5552,914.5648,9999.0,914.5656,0.0,915.5628,2.0,19.0,79.0,21.0,1.0,1.0,0.3,Time
,,S30,1,Female,29,anonymized,Serial_Dependence_U,2023.2.3,Win32,60.24096386,,,,,,,,,,,,915.5634,2.0,915.564,,,,917.911,918.4095,917.3947,917.9106,916.5792,167.0,917.3944,918.4096,918.909,918.9091,924.918,9999.0,924.9189,0.0,925.9159,2.0,20.0,80.0,0.0,1.0,0.8,0.3,Time
,,S30,1,Female,29,anonymized,Serial_Dependence_U,2023.2.3,Win32,60.24096386,,,,,,,,,,,,925.9166,2.0,925.9171,,,,928.4636,928.9625,927.9475,928.4632,926.9322,26.0,927.9473,928.9626,929.462,929.4621,935.4715,9999.0,935.4725,0.0,936.4689,2.0,21.0,81.0,16.0,1.0,1.0,0.7,Time
,,S30,1,Female,29,anonymized,Serial_Dependence_U,2023.2.3,Win32,60.24096386,,,,,,,,,,,,936.4696,2.0,936.4702,,,,939.2174,939.7148,938.701,939.2169,937.4853,215.0,938.7006,939.7148,940.2147,940.2148,946.2232,9999.0,946.2235,0.0,947.2216,2.0,22.0,82.0,22.0,1.0,1.2,0.3,Time
,,S30,1,Female,29,anonymized,Serial_Dependence_U,2023.2.3,Win32,60.24096386,,,,,,,,,,,,947.2228,2.0,947.2234,,,,949.9707,950.4674,949.4527,949.9701,948.2374,116.0,949.4525,950.4676,950.9664,950.9665,956.9758,9999.0,956.9761,0.0,957.9739,2.0,23.0,83.0,7.0,1.0,1.2,0.7,Time
,,S30,1,Female,29,anonymized,Serial_Dependence_U,2023.2.3,Win32,60.24096386,,,,,,,,,,,,957.9745,2.0,957.9753,,,,961.1208,961.6192,960.605,961.1207,958.9903,66.0,960.6048,961.6193,962.1185,962.1186,968.1297,9999.0,968.1303,0.0,969.126,2.0,24.0,84.0,19.0,1.0,1.6,0.7,Time
,,S30,1,Female,29,anonymized,Serial_Dependence_U,2023.2.3,Win32,60.24096386,,,,,,,,,,,,969.1267,2.0,969.1274,,,,972.0729,972.5719,971.5571,972.0729,970.1421,138.0,971.557,972.5719,973.0709,973.071,979.0804,9999.0,979.0806,0.0,980.0784,2.0,25.0,85.0,28.0,1.0,1.4,0.7,Time
,,S30,1,Female,29,anonymized,Serial_Dependence_U,2023.2.3,Win32,60.24096386,,,,,,,,,,,,980.079,2.0,980.0793,,,,982.626,983.1247,982.11,982.6259,981.0945,119.0,982.1098,983.1249,983.6238,983.624,989.6337,9999.0,989.6341,0.0,990.6319,2.0,26.0,86.0,11.0,1.0,1.0,0.3,Time
,,S30,1,Female,29,anonymized,Serial_Dependence_U,2023.2.3,Win32,60.24096386,,,,,,,,,,,,990.6332,2.0,990.6339,,,,993.7794,994.2767,993.2631,993.7791,991.6476,107.0,993.2619,994.2767,994.7759,994.776,1000.7866,9999.0,1000.7876,0.0,1001.7838,2.0,27.0,87.0,4.0,1.0,1.6,0.3,Time
,,S30,1,Female,29,anonymized,Serial_Dependence_U,2023.2.3,Win32,60.24096386,,,,,,,,,,,,1001.785,2.0,1001.7856,,,,1004.9301,1005.4291,1004.4147,1004.93,1002.8011,6.0,1004.4145,1005.4292,1005.9284,1005.9286,1011.938,9999.0,1011.9384,0.0,1012.9363,2.0,28.0,88.0,14.0,1.0,1.6,0.3,Time
,,S30,1,Female,29,anonymized,Serial_Dependence_U,2023.2.3,Win32,60.24096386,,,,,,,,,,,,1012.9379,2.0,1012.939,,,,1015.6849,1016.182,1015.1669,1015.6847,1013.953,22.0,1015.1668,1016.1821,1016.6809,1016.6811,1022.6904,9999.0,1022.6906,0.0,1023.6888,2.0,29.0,89.0,17.0,1.0,1.2,0.7,Time
,,S30,1,Female,29,anonymized,Serial_Dependence_U,2023.2.3,Win32,60.24096386,,,,,,,,,,,,1023.6901,3.0,1027.0181,s,3.2961,,1029.5657,1030.0635,1029.0492,1029.565,1028.0335,311.0,1029.0487,1030.0637,1030.5633,1030.5633,1036.5731,9999.0,1036.5734,0.0,1037.5703,3.0,0.0,90.0,16.0,1.0,1.0,0.7,Time
,,S30,1,Female,29,anonymized,Serial_Dependence_U,2023.2.3,Win32,60.24096386,,,,,,,,,,,,1037.571,3.0,1037.575,,,,1040.7175,1041.2158,1040.201,1040.7169,1038.5864,56.0,1040.2009,1041.216,1041.7153,1041.7154,1047.7255,9999.0,1047.7258,0.0,1048.7227,3.0,1.0,91.0,14.0,1.0,1.6,0.3,Time
,,S30,1,Female,29,anonymized,Serial_Dependence_U,2023.2.3,Win32,60.24096386,,,,,,,,,,,,1048.7238,3.0,1048.7243,,,,1051.4704,1051.9682,1050.9533,1051.4699,1049.7395,301.0,1050.9532,1051.9684,1052.4683,1052.4684,1058.4768,9999.0,1058.4771,0.0,1059.4748,3.0,2.0,92.0,2.0,1.0,1.2,0.3,Time
,,S30,1,Female,29,anonymized,Serial_Dependence_U,2023.2.3,Win32,60.24096386,,,,,,,,,,,,1059.4756,3.0,1059.4759,,,,1062.2222,1062.7208,1061.7061,1062.222,1060.4913,156.0,1061.706,1062.7208,1063.2201,1063.2203,1069.2296,9999.0,1069.2298,0.0,1070.2277,3.0,3.0,93.0,27.0,1.0,1.2,0.7,Time
,,S30,1,Female,29,anonymized,Serial_Dependence_U,2023.2.3,Win32,60.24096386,,,,,,,,,,,,1070.2284,3.0,1070.2287,,,,1072.9766,1073.4736,1072.459,1072.976,1071.2459,289.0,1072.4589,1073.4738,1073.9731,1073.9732,1079.9833,9999.0,1079.9839,0.0,1080.9807,3.0,4.0,94.0,7.0,1.0,1.2,0.7,Time
,,S30,1,Female,29,anonymized,Serial_Dependence_U,2023.2.3,Win32,60.24096386,,,,,,,,,,,,1080.9818,3.0,1080.9823,,,,1083.328,1083.8268,1082.812,1083.3279,1081.9967,248.0,1082.8119,1083.8269,1084.3263,1084.3265,1090.3367,9999.0,1090.3378,0.0,1091.3335,3.0,5.0,95.0,0.0,1.0,0.8,0.3,Time
,,S30,1,Female,29,anonymized,Serial_Dependence_U,2023.2.3,Win32,60.24096386,,,,,,,,,,,,1091.3341,3.0,1091.3352,,,,1094.4803,1094.9791,1093.9648,1094.4801,1092.3496,225.0,1093.964,1094.9793,1095.4787,1095.4788,1101.4882,9999.0,1101.4886,0.0,1102.4856,3.0,6.0,96.0,29.0,1.0,1.6,0.7,Time
,,S30,1,Female,29,anonymized,Serial_Dependence_U,2023.2.3,Win32,60.24096386,,,,,,,,,,,,1102.4862,3.0,1102.4865,,,,1105.4326,1105.9316,1104.9168,1105.4324,1103.5019,265.0,1104.9165,1105.9317,1106.4309,1106.431,1112.4401,9999.0,1112.4408,0.0,1113.4384,3.0,7.0,97.0,8.0,1.0,1.4,0.7,Time
,,S30,1,Female,29,anonymized,Serial_Dependence_U,2023.2.3,Win32,60.24096386,,,,,,,,,,,,1113.4391,3.0,1113.4401,,,,1115.9861,1116.4843,1115.4701,1115.9859,1114.4543,103.0,1115.4696,1116.4844,1116.9837,1116.984,1122.9946,9999.0,1122.9951,0.0,1123.9912,3.0,8.0,98.0,6.0,1.0,1.0,0.7,Time
,,S30,1,Female,29,anonymized,Serial_Dependence_U,2023.2.3,Win32,60.24096386,,,,,,,,,,,,1123.9924,3.0,1123.9935,,,,1126.7394,1127.2367,1126.2228,1126.7392,1125.0071,14.0,1126.2222,1127.2367,1127.7364,1127.7366,1133.7462,9999.0,1133.7469,0.0,1134.7436,3.0,9.0,99.0,12.0,1.0,1.2,0.3,Time
,,S30,1,Female,29,anonymized,Serial_Dependence_U,2023.2.3,Win32,60.24096386,,,,,,,,,,,,1134.7443,3.0,1134.7452,,,,1137.2911,1137.7899,1136.7762,1137.291,1135.7598,253.0,1136.7757,1137.79,1138.2894,1138.2896,1144.2987,9999.0,1144.2991,0.0,1145.2966,3.0,10.0,100.0,11.0,1.0,1.0,0.3,Time
,,S30,1,Female,29,anonymized,Serial_Dependence_U,2023.2.3,Win32,60.24096386,,,,,,,,,,,,1145.2972,3.0,1145.2982,,,,1148.2435,1148.7422,1147.7285,1148.2434,1146.3129,226.0,1147.7283,1148.7422,1149.2418,1149.2419,1155.2508,9999.0,1155.2511,0.0,1156.2493,3.0,11.0,101.0,28.0,1.0,1.4,0.7,Time
,,S30,1,Female,29,anonymized,Serial_Dependence_U,2023.2.3,Win32,60.24096386,,,,,,,,,,,,1156.2502,3.0,1156.2506,,,,1159.1965,1159.6946,1158.6811,1159.1961,1157.2662,56.0,1158.6809,1159.6947,1160.1941,1160.1943,1166.2041,9999.0,1166.2044,0.0,1167.2019,3.0,12.0,102.0,3.0,1.0,1.4,0.3,Time
,,S30,1,Female,29,anonymized,Serial_Dependence_U,2023.2.3,Win32,60.24096386,,,,,,,,,,,,1167.2035,3.0,1167.2042,,,,1170.3501,1170.8467,1169.8329,1170.3499,1168.2254,155.0,1169.8327,1170.8468,1171.3462,1171.3463,1177.3558,9999.0,1177.356,0.0,1178.3541,3.0,13.0,103.0,24.0,1.0,1.6,0.3,Time
,,S30,1,Female,29,anonymized,Serial_Dependence_U,2023.2.3,Win32,60.24096386,,,,,,,,,,,,1178.3557,3.0,1178.3565,,,,1180.6845,1181.1832,1180.1697,1180.6845,1179.3544,261.0,1180.1695,1181.1834,1181.6827,1181.6828,1187.6918,9999.0,1187.6921,0.0,1188.6903,3.0,14.0,104.0,20.0,1.0,0.8,0.3,Time
,,S30,1,Female,29,anonymized,Serial_Dependence_U,2023.2.3,Win32,60.24096386,,,,,,,,,,,,1188.6916,3.0,1188.6922,,,,1191.2374,1191.7365,1190.7234,1191.2373,1189.7061,270.0,1190.7229,1191.7365,1192.2357,1192.2359,1198.2463,9999.0,1198.2468,0.0,1199.2435,3.0,15.0,105.0,21.0,1.0,1.0,0.3,Time
,,S30,1,Female,29,anonymized,Serial_Dependence_U,2023.2.3,Win32,60.24096386,,,,,,,,,,,,1199.2451,3.0,1199.2466,,,,1201.5913,1202.0896,1201.0755,1201.5907,1200.26,85.0,1201.0749,1202.0897,1202.589,1202.5892,1208.5987,9999.0,1208.5992,0.0,1209.5961,3.0,16.0,106.0,15.0,1.0,0.8,0.7,Time
,,S30,1,Female,29,anonymized,Serial_Dependence_U,2023.2.3,Win32,60.24096386,,,,,,,,,,,,1209.5975,3.0,1209.599,,,,1212.5446,1213.0418,1212.0289,1212.544,1210.6138,323.0,1212.0285,1213.0419,1213.5414,1213.5415,1219.5523,9999.0,1219.5529,0.0,1220.5483,3.0,17.0,107.0,23.0,1.0,1.4,0.3,Time
,,S30,1,Female,29,anonymized,Serial_Dependence_U,2023.2.3,Win32,60.24096386,,,,,,,,,,,,1220.5491,3.0,1220.5503,,,,1223.4964,1223.9939,1222.9793,1223.496,1221.5655,354.0,1222.9792,1223.9939,1224.4939,1224.4941,1230.5031,9999.0,1230.504,0.0,1231.5008,3.0,18.0,108.0,13.0,1.0,1.4,0.3,Time
,,S30,1,Female,29,anonymized,Serial_Dependence_U,2023.2.3,Win32,60.24096386,,,,,,,,,,,,1231.5015,3.0,1231.5027,,,,1233.8491,1234.3477,1233.3331,1233.8486,1232.5187,293.0,1233.3328,1234.3477,1234.8469,1234.8469,1240.8565,9999.0,1240.857,0.0,1241.8546,3.0,19.0,109.0,25.0,1.0,0.8,0.7,Time
,,S30,1,Female,29,anonymized,Serial_Dependence_U,2023.2.3,Win32,60.24096386,,,,,,,,,,,,1241.8558,3.0,1241.8569,,,,1244.4021,1244.9,1243.8868,1244.4017,1242.8705,93.0,1243.8863,1244.9001,1245.4001,1245.4002,1251.409,9999.0,1251.4098,0.0,1252.4079,3.0,20.0,110.0,26.0,1.0,1.0,0.7,Time
,,S30,1,Female,29,anonymized,Serial_Dependence_U,2023.2.3,Win32,60.24096386,,,,,,,,,,,,1252.4093,3.0,1252.4103,,,,1254.7561,1255.2534,1254.2397,1254.7556,1253.425,200.0,1254.2396,1255.2535,1255.7528,1255.7528,1261.7631,9999.0,1261.7633,0.0,1262.7605,3.0,21.0,111.0,10.0,1.0,0.8,0.3,Time
,,S30,1,Female,29,anonymized,Serial_Dependence_U,2023.2.3,Win32,60.24096386,,,,,,,,,,,,1262.7616,3.0,1262.7627,,,,1265.5085,1266.0067,1264.9932,1265.5084,1263.7781,318.0,1264.9927,1266.0068,1266.5058,1266.506,1272.5171,9999.0,1272.5178,0.0,1273.5147,3.0,22.0,112.0,17.0,1.0,1.2,0.7,Time
,,S30,1,Female,29,anonymized,Serial_Dependence_U,2023.2.3,Win32,60.24096386,,,,,,,,,,,,1273.5163,3.0,1273.5171,,,,1276.6613,1277.1582,1276.1451,1276.6611,1274.5297,32.0,1276.1448,1277.1583,1277.6575,1277.6577,1283.6669,9999.0,1283.6677,0.0,1286.9278,3.0,23.0,113.0,9.0,1.0,1.6,0.7,Time
,,S30,1,Female,29,anonymized,Serial_Dependence_U,2023.2.3,Win32,60.24096386,,,,,,,,,,,,1286.9292,3.0,1286.9296,,,,1289.1772,1289.675,1288.6608,1289.1766,1287.4464,210.0,1288.6605,1289.6751,1290.1744,1290.1745,1296.1842,9999.0,1296.1848,0.0,1297.1827,3.0,24.0,114.0,22.0,1.0,1.2,0.3,Time
,,S30,1,Female,29,anonymized,Serial_Dependence_U,2023.2.3,Win32,60.24096386,,,,,,,,,,,,1297.184,3.0,1297.1849,,,,1299.5302,1300.0291,1299.0163,1299.5298,1298.1986,96.0,1299.0158,1300.0291,1300.528,1300.5282,1306.5386,9999.0,1306.5394,0.0,1307.5358,3.0,25.0,115.0,5.0,1.0,0.8,0.7,Time
,,S30,1,Female,29,anonymized,Serial_Dependence_U,2023.2.3,Win32,60.24096386,,,,,,,,,,,,1307.537,3.0,1307.5381,,,,1310.6839,1311.1803,1310.1664,1310.6834,1308.5517,160.0,1310.166,1311.1804,1311.6803,1311.6803,1317.6898,9999.0,1317.6906,0.0,1318.6883,3.0,26.0,116.0,19.0,1.0,1.6,0.7,Time
,,S30,1,Female,29,anonymized,Serial_Dependence_U,2023.2.3,Win32,60.24096386,,,,,,,,,,,,1318.6899,3.0,1318.6909,,,,1321.2375,1321.734,1320.7204,1321.2371,1319.704,41.0,1320.7199,1321.734,1322.2334,1322.2335,1328.2427,9999.0,1328.2434,0.0,1329.2405,3.0,27.0,117.0,1.0,1.0,1.0,0.3,Time
,,S30,1,Female,29,anonymized,Serial_Dependence_U,2023.2.3,Win32,60.24096386,,,,,,,,,,,,1329.2417,3.0,1329.2422,,,,1332.389,1332.886,1331.8713,1332.3887,1330.2582,273.0,1331.8711,1332.886,1333.3854,1333.3855,1339.3948,9999.0,1339.3955,0.0,1340.3951,3.0,28.0,118.0,4.0,1.0,1.6,0.3,Time
,,S30,1,Female,29,anonymized,Serial_Dependence_U,2023.2.3,Win32,60.24096386,,,,,,,,,,,,1340.3963,3.0,1340.3965,,,,1343.3403,1343.8388,1342.8249,1343.34,1341.4095,190.0,1342.8244,1343.8389,1344.3371,1344.3372,1350.3486,9999.0,1350.3489,0.0,1351.3449,3.0,29.0,119.0,18.0,1.0,1.4,0.7,Time
,,S30,1,Female,29,anonymized,Serial_Dependence_U,2023.2.3,Win32,60.24096386,,,,,,,,,,,,1351.3466,4.0,1354.0449,s,2.6809,,1356.789,1357.287,1356.274,1356.7886,1355.0577,153.0,1356.2735,1357.287,1357.7869,1357.787,1363.7971,9999.0,1363.798,0.0,1364.7956,4.0,0.0,120.0,7.0,1.0,1.2,0.7,Time
,,S30,1,Female,29,anonymized,Serial_Dependence_U,2023.2.3,Win32,60.24096386,,,,,,,,,,,,1364.7975,4.0,1364.8013,,,,1367.3433,1367.8408,1366.8258,1367.3428,1365.8099,45.0,1366.8254,1367.8408,1368.34,1368.3401,1374.3492,9999.0,1374.3499,0.0,1375.3478,4.0,1.0,121.0,1.0,1.0,1.0,0.3,Time
,,S30,1,Female,29,anonymized,Serial_Dependence_U,2023.2.3,Win32,60.24096386,,,,,,,,,,,,1375.3495,4.0,1375.3505,,,,1378.0956,1378.5927,1377.5801,1378.0955,1376.3637,118.0,1377.5797,1378.5929,1379.0917,1379.0918,1385.1038,9999.0,1385.1044,0.0,1386.0993,4.0,2.0,122.0,2.0,1.0,1.2,0.3,Time
,,S30,1,Female,29,anonymized,Serial_Dependence_U,2023.2.3,Win32,60.24096386,,,,,,,,,,,,1386.0999,4.0,1386.1008,,,,1388.6303,1389.1287,1388.1141,1388.6302,1387.0999,227.0,1388.114,1389.1288,1389.628,1389.6281,1395.6386,9999.0,1395.639,0.0,1396.6359,4.0,3.0,123.0,11.0,1.0,1.0,0.3,Time
,,S30,1,Female,29,anonymized,Serial_Dependence_U,2023.2.3,Win32,60.24096386,,,,,,,,,,,,1396.637,4.0,1396.6376,,,,1399.5843,1400.081,1399.0678,1399.5839,1397.652,154.0,1399.0676,1400.0811,1400.581,1400.5811,1406.5911,9999.0,1406.5914,0.0,1407.5887,4.0,4.0,124.0,3.0,1.0,1.4,0.3,Time
,,S30,1,Female,29,anonymized,Serial_Dependence_U,2023.2.3,Win32,60.24096386,,,,,,,,,,,,1407.59,4.0,1407.5914,,,,1410.1361,1410.6343,1409.62,1410.1356,1408.6051,321.0,1409.6199,1410.6345,1411.1335,1411.1336,1417.143,9999.0,1417.1433,0.0,1418.1411,4.0,5.0,125.0,26.0,1.0,1.0,0.7,Time
,,S30,1,Female,29,anonymized,Serial_Dependence_U,2023.2.3,Win32,60.24096386,,,,,,,,,,,,1418.1418,4.0,1418.1424,,,,1421.0879,1421.5864,1420.573,1421.0877,1419.1582,100.0,1420.5724,1421.5865,1422.0858,1422.086,1428.0961,9999.0,1428.0968,0.0,1429.0939,4.0,6.0,126.0,28.0,1.0,1.4,0.7,Time
,,S30,1,Female,29,anonymized,Serial_Dependence_U,2023.2.3,Win32,60.24096386,,,,,,,,,,,,1429.0955,4.0,1429.0969,,,,1432.0401,1432.5386,1431.524,1432.04,1430.1093,276.0,1431.5239,1432.5386,1433.038,1433.0381,1439.0492,9999.0,1439.0498,0.0,1440.0459,4.0,7.0,127.0,23.0,1.0,1.4,0.3,Time
,,S30,1,Female,29,anonymized,Serial_Dependence_U,2023.2.3,Win32,60.24096386,,,,,,,,,,,,1440.0471,4.0,1440.0483,,,,1442.5944,1443.0919,1442.079,1442.5942,1441.0617,234.0,1442.0786,1443.092,1443.5913,1443.5914,1449.6006,9999.0,1449.601,0.0,1450.5994,4.0,8.0,128.0,6.0,1.0,1.0,0.7,Time
,,S30,1,Female,29,anonymized,Serial_Dependence_U,2023.2.3,Win32,60.24096386,,,,,,,,,,,,1450.601,4.0,1450.6018,,,,1453.3457,1453.8445,1452.8315,1453.3457,1451.6146,102.0,1452.831,1453.8445,1454.3439,1454.3441,1460.3546,9999.0,1460.3549,0.0,1461.3517,4.0,9.0,129.0,27.0,1.0,1.2,0.7,Time
,,S30,1,Female,29,anonymized,Serial_Dependence_U,2023.2.3,Win32,60.24096386,,,,,,,,,,,,1461.3534,4.0,1461.3542,,,,1463.6989,1464.1976,1463.1848,1463.6988,1462.3674,359.0,1463.1842,1464.1977,1464.6971,1464.6972,1470.7062,9999.0,1470.7065,0.0,1471.7053,4.0,10.0,130.0,10.0,1.0,0.8,0.3,Time
,,S30,1,Female,29,anonymized,Serial_Dependence_U,2023.2.3,Win32,60.24096386,,,,,,,,,,,,1471.7066,4.0,1471.7084,,,,1474.2524,1474.7506,1473.737,1474.2521,1472.721,22.0,1473.7368,1474.7507,1475.2506,1475.2507,1481.2596,9999.0,1481.2599,0.0,1482.2573,4.0,11.0,131.0,16.0,1.0,1.0,0.7,Time
,,S30,1,Female,29,anonymized,Serial_Dependence_U,2023.2.3,Win32,60.24096386,,,,,,,,,,,,1482.2584,4.0,1482.259,,,,1484.6069,1485.1035,1484.0902,1484.6068,1483.274,222.0,1484.0901,1485.1035,1485.6028,1485.6029,1491.6134,9999.0,1491.6139,0.0,1492.6104,4.0,12.0,132.0,5.0,1.0,0.8,0.7,Time
,,S30,1,Female,29,anonymized,Serial_Dependence_U,2023.2.3,Win32,60.24096386,,,,,,,,,,,,1492.611,4.0,1492.6121,,,,1494.9592,1495.4569,1494.4426,1494.9589,1493.6276,164.0,1494.4421,1495.457,1495.9563,1495.9566,1501.9674,9999.0,1501.9677,0.0,1502.964,4.0,13.0,133.0,20.0,1.0,0.8,0.3,Time
,,S30,1,Female,29,anonymized,Serial_Dependence_U,2023.2.3,Win32,60.24096386,,,,,,,,,,,,1502.9654,4.0,1502.9666,,,,1505.3114,1505.8103,1504.796,1505.3111,1503.9822,266.0,1504.7954,1505.8104,1506.3092,1506.3092,1512.3205,9999.0,1512.3212,0.0,1513.3175,4.0,14.0,134.0,0.0,1.0,0.8,0.3,Time
,,S30,1,Female,29,anonymized,Serial_Dependence_U,2023.2.3,Win32,60.24096386,,,,,,,,,,,,1513.3191,4.0,1513.3202,,,,1516.4644,1516.9619,1515.9493,1516.4639,1514.3347,99.0,1515.949,1516.9619,1517.462,1517.4621,1523.4714,9999.0,1523.472,0.0,1524.4694,4.0,15.0,135.0,29.0,1.0,1.6,0.7,Time
,,S30,1,Female,29,anonymized,Serial_Dependence_U,2023.2.3,Win32,60.24096386,,,,,,,,,,,,1524.4704,4.0,1524.4716,,,,1526.8173,1527.3151,1526.3018,1526.8167,1525.4859,152.0,1526.3014,1527.3151,1527.8144,1527.8146,1533.8247,9999.0,1533.8253,0.0,1534.8224,4.0,16.0,136.0,15.0,1.0,0.8,0.7,Time
,,S30,1,Female,29,anonymized,Serial_Dependence_U,2023.2.3,Win32,60.24096386,,,,,,,,,,,,1534.8237,4.0,1534.8248,,,,1537.7699,1538.2675,1537.2539,1537.7694,1535.839,60.0,1537.2536,1538.2675,1538.7673,1538.7675,1544.7764,9999.0,1544.7774,0.0,1545.7745,4.0,17.0,137.0,13.0,1.0,1.4,0.3,Time
,,S30,1,Female,29,anonymized,Serial_Dependence_U,2023.2.3,Win32,60.24096386,,,,,,,,,,,,1545.7755,4.0,1545.7764,,,,1548.9221,1549.4205,1548.4069,1548.9214,1546.7916,327.0,1548.4066,1549.4206,1549.92,1549.9202,1555.9298,9999.0,1555.9303,0.0,1556.9267,4.0,18.0,138.0,4.0,1.0,1.6,0.3,Time
,,S30,1,Female,29,anonymized,Serial_Dependence_U,2023.2.3,Win32,60.24096386,,,,,,,,,,,,1556.9276,4.0,1556.9288,,,,1559.6746,1560.1728,1559.1586,1559.674,1557.9437,200.0,1559.1579,1560.1728,1560.672,1560.6721,1566.6826,9999.0,1566.6832,0.0,1567.6796,4.0,19.0,139.0,12.0,1.0,1.2,0.3,Time
,,S30,1,Female,29,anonymized,Serial_Dependence_U,2023.2.3,Win32,60.24096386,,,,,,,,,,,,1567.6808,4.0,1567.682,,,,1570.8259,1571.3244,1570.3098,1570.8258,1568.6961,96.0,1570.3096,1571.3244,1571.8237,1571.8238,1577.8336,9999.0,1577.8342,0.0,1578.832,4.0,20.0,140.0,9.0,1.0,1.6,0.7,Time
,,S30,1,Female,29,anonymized,Serial_Dependence_U,2023.2.3,Win32,60.24096386,,,,,,,,,,,,1578.8335,4.0,1578.8342,,,,1581.3793,1581.878,1580.8639,1581.379,1579.8487,176.0,1580.8635,1581.8781,1582.3773,1582.3774,1588.3869,9999.0,1588.3875,0.0,1589.3851,4.0,21.0,141.0,21.0,1.0,1.0,0.3,Time
,,S30,1,Female,29,anonymized,Serial_Dependence_U,2023.2.3,Win32,60.24096386,,,,,,,,,,,,1589.3864,4.0,1589.3871,,,,1592.5314,1593.0296,1592.0154,1592.531,1590.401,238.0,1592.0151,1593.0297,1593.5297,1593.5298,1599.5399,9999.0,1599.5408,0.0,1600.5372,4.0,22.0,142.0,24.0,1.0,1.6,0.3,Time
,,S30,1,Female,29,anonymized,Serial_Dependence_U,2023.2.3,Win32,60.24096386,,,,,,,,,,,,1600.5384,4.0,1600.5398,,,,1603.2854,1603.7828,1602.7696,1603.2849,1601.553,142.0,1602.769,1603.7828,1604.2821,1604.2822,1610.2917,9999.0,1610.2924,0.0,1611.2894,4.0,23.0,143.0,17.0,1.0,1.2,0.7,Time
,,S30,1,Female,29,anonymized,Serial_Dependence_U,2023.2.3,Win32,60.24096386,,,,,,,,,,,,1611.2903,4.0,1611.291,,,,1614.4375,1614.9349,1613.9218,1614.437,1612.3056,159.0,1613.9211,1614.935,1615.4344,1615.4346,1621.4438,9999.0,1621.4444,0.0,1622.4425,4.0,24.0,144.0,14.0,1.0,1.6,0.3,Time
,,S30,1,Female,29,anonymized,Serial_Dependence_U,2023.2.3,Win32,60.24096386,,,,,,,,,,,,1622.4441,4.0,1622.4449,,,,1625.1902,1625.6871,1624.6742,1625.1897,1623.4588,168.0,1624.6737,1625.6871,1626.1869,1626.187,1632.196,9999.0,1632.1968,0.0,1633.1946,4.0,25.0,145.0,22.0,1.0,1.2,0.3,Time
,,S30,1,Female,29,anonymized,Serial_Dependence_U,2023.2.3,Win32,60.24096386,,,,,,,,,,,,1633.1956,4.0,1633.1966,,,,1636.1414,1636.6399,1635.6263,1636.141,1634.2107,31.0,1635.6259,1636.6399,1637.1395,1637.1396,1643.1488,9999.0,1643.1494,0.0,1644.1467,4.0,26.0,146.0,8.0,1.0,1.4,0.7,Time
,,S30,1,Female,29,anonymized,Serial_Dependence_U,2023.2.3,Win32,60.24096386,,,,,,,,,,,,1644.148,4.0,1644.1487,,,,1646.4949,1646.9925,1645.9784,1646.4944,1645.1656,30.0,1645.978,1646.9925,1647.4919,1647.4921,1653.5016,9999.0,1653.5025,0.0,1654.4994,4.0,27.0,147.0,25.0,1.0,0.8,0.7,Time
,,S30,1,Female,29,anonymized,Serial_Dependence_U,2023.2.3,Win32,60.24096386,,,,,,,,,,,,1654.5,4.0,1654.5007,,,,1657.4465,1657.9451,1656.9315,1657.4464,1655.5166,316.0,1656.9313,1657.9452,1658.4444,1658.4445,1664.4536,9999.0,1664.454,0.0,1665.4521,4.0,28.0,148.0,18.0,1.0,1.4,0.7,Time
,,S30,1,Female,29,anonymized,Serial_Dependence_U,2023.2.3,Win32,60.24096386,,,,,,,,,,,,1665.4534,4.0,1665.4538,,,,1668.5985,1669.0976,1668.0823,1668.5983,1666.4679,80.0,1668.0821,1669.0976,1669.5961,1669.5962,1675.6066,9999.0,1675.6074,0.0,1676.604,4.0,29.0,149.0,19.0,1.0,1.6,0.7,Time
,,S30,1,Female,29,anonymized,Serial_Dependence_U,2023.2.3,Win32,60.24096386,,,,,,,,,,,,1676.605,5.0,1680.0665,s,3.4329,,1683.2127,1683.7116,1682.6966,1683.2126,1681.0833,283.0,1682.6965,1683.7117,1684.2109,1684.2111,1690.2207,9999.0,1690.2211,0.0,1691.2183,5.0,0.0,150.0,9.0,1.0,1.6,0.7,Time
,,S30,1,Female,29,anonymized,Serial_Dependence_U,2023.2.3,Win32,60.24096386,,,,,,,,,,,,1691.2189,5.0,1691.2232,,,,1693.9653,1694.464,1693.4504,1693.9652,1692.2349,271.0,1693.4502,1694.4642,1694.9636,1694.9637,1700.9746,9999.0,1700.9755,0.0,1701.9707,5.0,1.0,151.0,17.0,1.0,1.2,0.7,Time
,,S30,1,Female,29,anonymized,Serial_Dependence_U,2023.2.3,Win32,60.24096386,,,,,,,,,,,,1701.9714,5.0,1701.9718,,,,1704.3197,1704.8177,1703.8039,1704.3194,1702.9868,297.0,1703.8035,1704.8178,1705.3175,1705.3177,1711.3277,9999.0,1711.3282,0.0,1712.3243,5.0,2.0,152.0,20.0,1.0,0.8,0.3,Time
,,S30,1,Female,29,anonymized,Serial_Dependence_U,2023.2.3,Win32,60.24096386,,,,,,,,,,,,1712.3256,5.0,1712.3267,,,,1715.2543,1715.7527,1714.7394,1715.2542,1713.3259,221.0,1714.7392,1715.7528,1716.2527,1716.2529,1722.2631,9999.0,1722.2638,0.0,1723.2599,5.0,3.0,153.0,23.0,1.0,1.4,0.3,Time
,,S30,1,Female,29,anonymized,Serial_Dependence_U,2023.2.3,Win32,60.24096386,,,,,,,,,,,,1723.261,5.0,1723.2619,,,,1725.6075,1726.1064,1725.0919,1725.6073,1724.2769,250.0,1725.0914,1726.1065,1726.6057,1726.6058,1732.6152,9999.0,1732.6155,0.0,1733.6132,5.0,4.0,154.0,25.0,1.0,0.8,0.7,Time
,,S30,1,Female,29,anonymized,Serial_Dependence_U,2023.2.3,Win32,60.24096386,,,,,,,,,,,,1733.6144,5.0,1733.6148,,,,1736.7596,1737.2584,1736.2439,1736.7595,1734.6295,41.0,1736.2434,1737.2585,1737.7577,1737.7578,1743.7673,9999.0,1743.7675,0.0,1744.7651,5.0,5.0,155.0,24.0,1.0,1.6,0.3,Time
,,S30,1,Female,29,anonymized,Serial_Dependence_U,2023.2.3,Win32,60.24096386,,,,,,,,,,,,1744.766,5.0,1744.7664,,,,1747.1128,1747.6117,1746.5967,1747.1127,1745.781,279.0,1746.5965,1747.6118,1748.1106,1748.1107,1754.1209,9999.0,1754.1215,0.0,1755.1181,5.0,6.0,156.0,5.0,1.0,0.8,0.7,Time
,,S30,1,Female,29,anonymized,Serial_Dependence_U,2023.2.3,Win32,60.24096386,,,,,,,,,,,,1755.119,5.0,1755.1197,,,,1758.0651,1758.5641,1757.551,1758.0649,1756.1342,177.0,1757.5504,1758.5642,1759.0635,1759.0637,1765.0734,9999.0,1765.074,0.0,1766.0708,5.0,7.0,157.0,3.0,1.0,1.4,0.3,Time
,,S30,1,Female,29,anonymized,Serial_Dependence_U,2023.2.3,Win32,60.24096386,,,,,,,,,,,,1766.0719,5.0,1766.0724,,,,1769.2183,1769.7158,1768.7012,1769.2181,1767.0866,28.0,1768.7011,1769.7158,1770.2157,1770.2159,1776.2258,9999.0,1776.2261,0.0,1777.223,5.0,8.0,158.0,14.0,1.0,1.6,0.3,Time
,,S30,1,Female,29,anonymized,Serial_Dependence_U,2023.2.3,Win32,60.24096386,,,,,,,,,,,,1777.2241,5.0,1777.2247,,,,1780.1697,1780.6681,1779.6557,1780.1695,1778.2389,317.0,1779.655,1780.6681,1781.1675,1781.1676,1787.1769,9999.0,1787.1772,0.0,1788.1756,5.0,9.0,159.0,18.0,1.0,1.4,0.7,Time
,,S30,1,Female,29,anonymized,Serial_Dependence_U,2023.2.3,Win32,60.24096386,,,,,,,,,,,,1788.1767,5.0,1788.1774,,,,1791.1223,1791.6207,1790.6064,1791.1219,1789.1924,321.0,1790.6059,1791.6208,1792.1202,1792.1204,1798.1299,9999.0,1798.1311,0.0,1799.1277,5.0,10.0,160.0,8.0,1.0,1.4,0.7,Time
,,S30,1,Female,29,anonymized,Serial_Dependence_U,2023.2.3,Win32,60.24096386,,,,,,,,,,,,1799.129,5.0,1799.1295,,,,1801.8753,1802.3735,1801.3591,1801.8746,1800.1443,85.0,1801.359,1802.3735,1802.8729,1802.8731,1808.8824,9999.0,1808.8826,0.0,1809.8807,5.0,11.0,161.0,22.0,1.0,1.2,0.3,Time
,,S30,1,Female,29,anonymized,Serial_Dependence_U,2023.2.3,Win32,60.24096386,,,,,,,,,,,,1809.8823,5.0,1809.8832,,,,1812.4281,1812.926,1811.9115,1812.4279,1810.8962,341.0,1811.9113,1812.926,1813.4254,1813.4255,1819.4349,9999.0,1819.4352,0.0,1820.4333,5.0,12.0,162.0,11.0,1.0,1.0,0.3,Time
,,S30,1,Female,29,anonymized,Serial_Dependence_U,2023.2.3,Win32,60.24096386,,,,,,,,,,,,1820.4344,5.0,1820.435,,,,1823.5798,1824.0782,1823.0637,1823.5797,1821.4492,268.0,1823.0636,1824.0782,1824.5775,1824.5776,1830.5883,9999.0,1830.5887,0.0,1831.5854,5.0,13.0,163.0,29.0,1.0,1.6,0.7,Time
,,S30,1,Female,29,anonymized,Serial_Dependence_U,2023.2.3,Win32,60.24096386,,,,,,,,,,,,1831.5868,5.0,1831.5875,,,,1834.5324,1835.0308,1834.0159,1834.5321,1832.6025,31.0,1834.0157,1835.0309,1835.5304,1835.5306,1841.5394,9999.0,1841.5396,0.0,1842.5381,5.0,14.0,164.0,13.0,1.0,1.4,0.3,Time
,,S30,1,Female,29,anonymized,Serial_Dependence_U,2023.2.3,Win32,60.24096386,,,,,,,,,,,,1842.5393,5.0,1842.5399,,,,1845.085,1845.5837,1844.5709,1845.085,1843.5538,281.0,1844.5704,1845.5839,1846.0831,1846.0832,1852.0937,9999.0,1852.094,0.0,1853.0907,5.0,15.0,165.0,26.0,1.0,1.0,0.7,Time
,,S30,1,Female,29,anonymized,Serial_Dependence_U,2023.2.3,Win32,60.24096386,,,,,,,,,,,,1853.0917,5.0,1853.0924,,,,1856.2372,1856.7355,1855.7219,1856.2371,1854.1065,217.0,1855.7213,1856.7356,1857.2354,1857.2356,1863.2448,9999.0,1863.2456,0.0,1864.243,5.0,16.0,166.0,4.0,1.0,1.6,0.3,Time
,,S30,1,Female,29,anonymized,Serial_Dependence_U,2023.2.3,Win32,60.24096386,,,,,,,,,,,,1864.2441,5.0,1864.2454,,,,1866.7919,1867.2889,1866.2762,1866.7915,1865.259,276.0,1866.2759,1867.289,1867.7879,1867.7879,1873.7985,9999.0,1873.7988,0.0,1874.7954,5.0,17.0,167.0,1.0,1.0,1.0,0.3,Time
,,S30,1,Female,29,anonymized,Serial_Dependence_U,2023.2.3,Win32,60.24096386,,,,,,,,,,,,1874.796,5.0,1874.7965,,,,1877.1442,1877.6416,1876.6272,1877.1436,1875.8115,156.0,1876.6271,1877.6417,1878.1417,1878.1418,1884.1506,9999.0,1884.1509,0.0,1885.149,5.0,18.0,168.0,0.0,1.0,0.8,0.3,Time
,,S30,1,Female,29,anonymized,Serial_Dependence_U,2023.2.3,Win32,60.24096386,,,,,,,,,,,,1885.1501,5.0,1885.1506,,,,1887.8981,1888.3947,1887.3797,1887.8977,1886.1664,358.0,1887.3797,1888.3948,1888.8941,1888.8942,1894.9039,9999.0,1894.9043,0.0,1895.9016,5.0,19.0,169.0,2.0,1.0,1.2,0.3,Time
,,S30,1,Female,29,anonymized,Serial_Dependence_U,2023.2.3,Win32,60.24096386,,,,,,,,,,,,1895.9028,5.0,1895.9033,,,,1899.0484,1899.547,1898.5324,1899.0483,1896.9184,61.0,1898.5323,1899.547,1900.0462,1900.0466,1906.0565,9999.0,1906.0568,0.0,1907.0541,5.0,20.0,170.0,19.0,1.0,1.6,0.7,Time
,,S30,1,Female,29,anonymized,Serial_Dependence_U,2023.2.3,Win32,60.24096386,,,,,,,,,,,,1907.0556,5.0,1907.0564,,,,1909.6009,1910.0998,1909.087,1909.6008,1908.0695,231.0,1909.0866,1910.0999,1910.5993,1910.5994,1916.6093,9999.0,1916.6098,0.0,1917.6066,5.0,21.0,171.0,21.0,1.0,1.0,0.3,Time
,,S30,1,Female,29,anonymized,Serial_Dependence_U,2023.2.3,Win32,60.24096386,,,,,,,,,,,,1917.6074,5.0,1917.6079,,,,1919.9548,1920.4528,1919.4395,1919.9543,1918.6237,150.0,1919.4393,1920.4531,1920.9524,1920.9525,1926.9618,9999.0,1926.962,0.0,1927.9602,5.0,22.0,172.0,10.0,1.0,0.8,0.3,Time
,,S30,1,Female,29,anonymized,Serial_Dependence_U,2023.2.3,Win32,60.24096386,,,,,,,,,,,,1927.962,5.0,1927.9629,,,,1930.7068,1931.2051,1930.1908,1930.7066,1928.9755,141.0,1930.1905,1931.2052,1931.7051,1931.7052,1937.7144,9999.0,1937.7149,0.0,1938.7123,5.0,23.0,173.0,27.0,1.0,1.2,0.7,Time
,,S30,1,Female,29,anonymized,Serial_Dependence_U,2023.2.3,Win32,60.24096386,,,,,,,,,,,,1938.7131,5.0,1938.7135,,,,1941.6605,1942.1577,1941.1435,1941.66,1939.7284,145.0,1941.1433,1942.1577,1942.6573,1942.6574,1948.668,9999.0,1948.6683,0.0,1949.6651,5.0,24.0,174.0,28.0,1.0,1.4,0.7,Time
,,S30,1,Female,29,anonymized,Serial_Dependence_U,2023.2.3,Win32,60.24096386,,,,,,,,,,,,1949.6661,5.0,1949.6668,,,,1952.4126,1952.9109,1951.8957,1952.4121,1950.6815,144.0,1951.8956,1952.911,1953.4103,1953.4105,1959.4203,9999.0,1959.4207,0.0,1960.4179,5.0,25.0,175.0,7.0,1.0,1.2,0.7,Time
,,S30,1,Female,29,anonymized,Serial_Dependence_U,2023.2.3,Win32,60.24096386,,,,,,,,,,,,1960.4195,5.0,1960.4202,,,,1962.7649,1963.2639,1962.2488,1962.7648,1961.4333,316.0,1962.2487,1963.2639,1963.7631,1963.7633,1969.7733,9999.0,1969.7739,0.0,1970.7711,5.0,26.0,176.0,15.0,1.0,0.8,0.7,Time
,,S30,1,Female,29,anonymized,Serial_Dependence_U,2023.2.3,Win32,60.24096386,,,,,,,,,,,,1970.7728,5.0,1970.7743,,,,1973.3178,1973.8169,1972.8018,1973.3177,1971.7877,218.0,1972.8017,1973.817,1974.3162,1974.3163,1980.3257,9999.0,1980.3261,0.0,1981.3237,5.0,27.0,177.0,16.0,1.0,1.0,0.7,Time
,,S30,1,Female,29,anonymized,Serial_Dependence_U,2023.2.3,Win32,60.24096386,,,,,,,,,,,,1981.3246,5.0,1981.3251,,,,1984.0713,1984.5694,1983.5549,1984.0708,1982.3409,269.0,1983.5548,1984.5695,1985.0686,1985.0689,1991.0794,9999.0,1991.0799,0.0,1992.0763,5.0,28.0,178.0,12.0,1.0,1.2,0.3,Time
,,S30,1,Female,29,anonymized,Serial_Dependence_U,2023.2.3,Win32,60.24096386,,,,,,,,,,,,1992.0774,5.0,1992.0781,,,,1994.6246,1995.1221,1994.1078,1994.6245,1993.0935,253.0,1994.1073,1995.1223,1995.6216,1995.6217,2001.6322,9999.0,2001.6328,0.0,2002.6297,5.0,29.0,179.0,6.0,1.0,1.0,0.7,Time
,,S30,1,Female,29,anonymized,Serial_Dependence_U,2023.2.3,Win32,60.24096386,,,,,,,,,,,,2002.6313,6.0,2026.4649,s,23.7965,,2029.611,2030.1098,2029.0961,2029.6108,2027.4815,346.0,2029.0956,2030.11,2030.6089,2030.609,2036.6184,9999.0,2036.6187,0.0,2037.6173,6.0,0.0,180.0,14.0,1.0,1.6,0.3,Time
,,S30,1,Female,29,anonymized,Serial_Dependence_U,2023.2.3,Win32,60.24096386,,,,,,,,,,,,2037.6188,6.0,2037.6257,,,,2039.9644,2040.4633,2039.4487,2039.9643,2038.6336,172.0,2039.4482,2040.4634,2040.9626,2040.9627,2046.9727,9999.0,2046.9731,0.0,2047.9702,6.0,1.0,181.0,20.0,1.0,0.8,0.3,Time
,,S30,1,Female,29,anonymized,Serial_Dependence_U,2023.2.3,Win32,60.24096386,,,,,,,,,,,,2047.9709,6.0,2047.9713,,,,2050.5195,2051.016,2050.001,2050.519,2048.9878,283.0,2050.0009,2051.0162,2051.5155,2051.5157,2057.5248,9999.0,2057.525,0.0,2058.5227,6.0,2.0,182.0,16.0,1.0,1.0,0.7,Time
,,S30,1,Female,29,anonymized,Serial_Dependence_U,2023.2.3,Win32,60.24096386,,,,,,,,,,,,2058.524,6.0,2058.5244,,,,2061.0699,2061.5686,2060.5544,2061.0698,2059.5389,263.0,2060.5543,2061.5686,2062.0679,2062.068,2068.0784,9999.0,2068.0788,0.0,2069.0758,6.0,3.0,183.0,6.0,1.0,1.0,0.7,Time
,,S30,1,Female,29,anonymized,Serial_Dependence_U,2023.2.3,Win32,60.24096386,,,,,,,,,,,,2069.0767,6.0,2069.0779,,,,2072.2242,2072.721,2071.708,2072.2239,2070.0926,95.0,2071.7077,2072.721,2073.2206,2073.2207,2079.2311,9999.0,2079.2317,0.0,2080.2279,6.0,4.0,184.0,9.0,1.0,1.6,0.7,Time
,,S30,1,Female,29,anonymized,Serial_Dependence_U,2023.2.3,Win32,60.24096386,,,,,,,,,,,,2080.2294,6.0,2080.2306,,,,2083.1756,2083.6731,2082.6585,2083.1752,2081.2437,165.0,2082.6584,2083.6732,2084.1729,2084.173,2090.1829,9999.0,2090.1834,0.0,2091.1802,6.0,5.0,185.0,23.0,1.0,1.4,0.3,Time
,,S30,1,Female,29,anonymized,Serial_Dependence_U,2023.2.3,Win32,60.24096386,,,,,,,,,,,,2091.1812,6.0,2091.1823,,,,2093.7285,2094.2263,2093.2123,2093.7278,2092.1981,53.0,2093.2118,2094.2265,2094.7253,2094.7255,2100.7372,9999.0,2100.7375,0.0,2101.7345,6.0,6.0,186.0,11.0,1.0,1.0,0.3,Time
,,S30,1,Female,29,anonymized,Serial_Dependence_U,2023.2.3,Win32,60.24096386,,,,,,,,,,,,2101.7362,6.0,2101.7367,,,,2104.4823,2104.9789,2103.966,2104.4819,2102.7506,155.0,2103.9655,2104.979,2105.4782,2105.4783,2111.4874,9999.0,2111.4885,0.0,2112.4859,6.0,7.0,187.0,27.0,1.0,1.2,0.7,Time
,,S30,1,Female,29,anonymized,Serial_Dependence_U,2023.2.3,Win32,60.24096386,,,,,,,,,,,,2112.4872,6.0,2112.4883,,,,2115.4335,2115.9318,2114.9174,2115.433,2113.5037,49.0,2114.9168,2115.9318,2116.4314,2116.4316,2122.4405,9999.0,2122.4416,0.0,2123.438,6.0,8.0,188.0,8.0,1.0,1.4,0.7,Time
,,S30,1,Female,29,anonymized,Serial_Dependence_U,2023.2.3,Win32,60.24096386,,,,,,,,,,,,2123.4386,6.0,2123.4391,,,,2126.5853,2127.0857,2126.0688,2126.5849,2124.4555,207.0,2126.0685,2127.0857,2127.5835,2127.5836,2133.5935,9999.0,2133.5943,0.0,2134.5909,6.0,9.0,189.0,4.0,1.0,1.6,0.3,Time
,,S30,1,Female,29,anonymized,Serial_Dependence_U,2023.2.3,Win32,60.24096386,,,,,,,,,,,,2134.5921,6.0,2134.5926,,,,2136.9385,2137.4374,2136.4228,2136.9378,2135.6072,184.0,2136.4221,2137.4374,2137.9372,2137.9373,2143.9454,9999.0,2143.9463,0.0,2144.9432,6.0,10.0,190.0,5.0,1.0,0.8,0.7,Time
,,S30,1,Female,29,anonymized,Serial_Dependence_U,2023.2.3,Win32,60.24096386,,,,,,,,,,,,2144.9438,6.0,2144.9447,,,,2147.6914,2148.1895,2147.1764,2147.6908,2145.9606,334.0,2147.1763,2148.1896,2148.6883,2148.6883,2154.7,9999.0,2154.7005,0.0,2155.6964,6.0,11.0,191.0,2.0,1.0,1.2,0.3,Time
,,S30,1,Female,29,anonymized,Serial_Dependence_U,2023.2.3,Win32,60.24096386,,,,,,,,,,,,2155.6976,6.0,2155.6989,,,,2158.2444,2158.7423,2157.7282,2158.244,2156.7131,262.0,2157.7277,2158.7425,2159.242,2159.2421,2165.2507,9999.0,2165.2518,0.0,2166.2491,6.0,12.0,192.0,1.0,1.0,1.0,0.3,Time
,,S30,1,Female,29,anonymized,Serial_Dependence_U,2023.2.3,Win32,60.24096386,,,,,,,,,,,,2166.2503,6.0,2166.2509,,,,2168.9972,2169.4949,2168.4803,2168.9969,2167.266,197.0,2168.4798,2169.4953,2169.9942,2169.9945,2176.0038,9999.0,2176.0047,0.0,2177.0018,6.0,13.0,193.0,7.0,1.0,1.2,0.7,Time
,,S30,1,Female,29,anonymized,Serial_Dependence_U,2023.2.3,Win32,60.24096386,,,,,,,,,,,,2177.0031,6.0,2177.0043,,,,2179.949,2180.4469,2179.4333,2179.9484,2178.0188,314.0,2179.4327,2180.4469,2180.9463,2180.9464,2186.9569,9999.0,2186.9574,0.0,2187.9543,6.0,14.0,194.0,13.0,1.0,1.4,0.3,Time
,,S30,1,Female,29,anonymized,Serial_Dependence_U,2023.2.3,Win32,60.24096386,,,,,,,,,,,,2187.9555,6.0,2187.9569,,,,2190.3025,2190.8003,2189.7865,2190.3022,2188.9706,314.0,2189.7858,2190.8005,2191.2999,2191.3,2197.31,9999.0,2197.3106,0.0,2198.3074,6.0,15.0,195.0,0.0,1.0,0.8,0.3,Time
,,S30,1,Female,29,anonymized,Serial_Dependence_U,2023.2.3,Win32,60.24096386,,,,,,,,,,,,2198.3086,6.0,2198.3098,,,,2201.0552,2201.553,2200.5401,2201.0548,2199.3239,59.0,2200.5395,2201.5531,2202.0523,2202.0523,2208.0627,9999.0,2208.0631,0.0,2209.0599,6.0,16.0,196.0,17.0,1.0,1.2,0.7,Time
,,S30,1,Female,29,anonymized,Serial_Dependence_U,2023.2.3,Win32,60.24096386,,,,,,,,,,,,2209.061,6.0,2209.0615,,,,2211.8077,2212.306,2211.2912,2211.8073,2210.0775,198.0,2211.2908,2212.306,2212.8056,2212.8057,2218.8158,9999.0,2218.8169,0.0,2219.8135,6.0,17.0,197.0,12.0,1.0,1.2,0.3,Time
,,S30,1,Female,29,anonymized,Serial_Dependence_U,2023.2.3,Win32,60.24096386,,,,,,,,,,,,2219.8149,6.0,2219.8158,,,,2222.9611,2223.4584,2222.4437,2222.9607,2220.8291,334.0,2222.4434,2223.4585,2223.9577,2223.9578,2229.9668,9999.0,2229.9675,0.0,2230.9653,6.0,18.0,198.0,24.0,1.0,1.6,0.3,Time
,,S30,1,Female,29,anonymized,Serial_Dependence_U,2023.2.3,Win32,60.24096386,,,,,,,,,,,,2230.9665,6.0,2230.9674,,,,2233.5124,2234.0118,2232.9976,2233.5121,2231.9811,218.0,2232.997,2234.0119,2234.5106,2234.5107,2240.5201,9999.0,2240.5208,0.0,2241.5185,6.0,19.0,199.0,21.0,1.0,1.0,0.3,Time
,,S30,1,Female,29,anonymized,Serial_Dependence_U,2023.2.3,Win32,60.24096386,,,,,,,,,,,,2241.52,6.0,2241.5209,,,,2244.4649,2244.9638,2243.9491,2244.4645,2242.5339,37.0,2243.9487,2244.9638,2245.4641,2245.4642,2251.4731,9999.0,2251.4741,0.0,2252.4707,6.0,20.0,200.0,28.0,1.0,1.4,0.7,Time
,,S30,1,Female,29,anonymized,Serial_Dependence_U,2023.2.3,Win32,60.24096386,,,,,,,,,,,,2252.4723,6.0,2252.4733,,,,2254.8198,2255.3167,2254.3032,2254.8194,2253.4862,182.0,2254.3027,2255.3167,2255.8161,2255.8161,2261.8252,9999.0,2261.8258,0.0,2262.824,6.0,21.0,201.0,15.0,1.0,0.8,0.7,Time
,,S30,1,Female,29,anonymized,Serial_Dependence_U,2023.2.3,Win32,60.24096386,,,,,,,,,,,,2262.8256,6.0,2262.8269,,,,2265.7735,2266.2692,2265.2556,2265.773,2263.8409,274.0,2265.2554,2266.2693,2266.7686,2266.7687,2272.7787,9999.0,2272.7795,0.0,2273.7761,6.0,22.0,202.0,18.0,1.0,1.4,0.7,Time
,,S30,1,Female,29,anonymized,Serial_Dependence_U,2023.2.3,Win32,60.24096386,,,,,,,,,,,,2273.777,6.0,2273.7776,,,,2276.1248,2276.6217,2275.6087,2276.1245,2274.7919,86.0,2275.6083,2276.6217,2277.1218,2277.1219,2283.1319,9999.0,2283.1325,0.0,2284.1288,6.0,23.0,203.0,25.0,1.0,0.8,0.7,Time
,,S30,1,Female,29,anonymized,Serial_Dependence_U,2023.2.3,Win32,60.24096386,,,,,,,,,,,,2284.1299,6.0,2284.131,,,,2286.4782,2286.9751,2285.9602,2286.4779,2285.1465,255.0,2285.96,2286.9752,2287.4744,2287.4746,2293.4848,9999.0,2293.4852,0.0,2294.4822,6.0,24.0,204.0,10.0,1.0,0.8,0.3,Time
,,S30,1,Female,29,anonymized,Serial_Dependence_U,2023.2.3,Win32,60.24096386,,,,,,,,,,,,2294.4838,6.0,2294.4853,,,,2297.4293,2297.9274,2296.9133,2297.4287,2295.4995,198.0,2296.9131,2297.9276,2298.4268,2298.4269,2304.4365,9999.0,2304.4372,0.0,2305.4348,6.0,25.0,205.0,3.0,1.0,1.4,0.3,Time
,,S30,1,Female,29,anonymized,Serial_Dependence_U,2023.2.3,Win32,60.24096386,,,,,,,,,,,,2305.4363,6.0,2305.4379,,,,2307.9825,2308.4799,2307.4666,2307.9821,2306.4507,40.0,2307.4661,2308.48,2308.9801,2308.9802,2314.9888,9999.0,2314.9892,0.0,2315.987,6.0,26.0,206.0,26.0,1.0,1.0,0.7,Time
,,S30,1,Female,29,anonymized,Serial_Dependence_U,2023.2.3,Win32,60.24096386,,,,,,,,,,,,2315.9877,6.0,2315.9888,,,,2319.1343,2319.6328,2318.6193,2319.1342,2317.0029,105.0,2318.619,2319.6329,2320.1319,2320.1319,2326.1412,9999.0,2326.1414,0.0,2327.1395,6.0,27.0,207.0,29.0,1.0,1.6,0.7,Time
,,S30,1,Female,29,anonymized,Serial_Dependence_U,2023.2.3,Win32,60.24096386,,,,,,,,,,,,2327.1405,6.0,2327.1408,,,,2330.2867,2330.7843,2329.7718,2330.2864,2328.1561,352.0,2329.7715,2330.7843,2331.2836,2331.2837,2337.2931,9999.0,2337.2933,0.0,2338.2913,6.0,28.0,208.0,19.0,1.0,1.6,0.7,Time
,,S30,1,Female,29,anonymized,Serial_Dependence_U,2023.2.3,Win32,60.24096386,,,,,,,,,,,,2338.2918,6.0,2338.2921,,,,2341.0395,2341.5371,2340.5244,2341.039,2339.3074,154.0,2340.5238,2341.5372,2342.0367,2342.0369,2348.0473,9999.0,2348.048,0.0,2349.0438,6.0,29.0,209.0,22.0,1.0,1.2,0.3,Time
,,S30,1,Female,29,anonymized,Serial_Dependence_U,2023.2.3,Win32,60.24096386,,,,,,,,,,,,2349.0444,7.0,2433.1847,s,84.1206,,2435.7323,2436.2303,2435.2159,2435.7316,2434.2007,84.0,2435.2153,2436.2305,2436.7299,2436.73,2442.7397,9999.0,2442.7406,0.0,2443.7376,7.0,0.0,210.0,16.0,1.0,1.0,0.7,Time
,,S30,1,Female,29,anonymized,Serial_Dependence_U,2023.2.3,Win32,60.24096386,,,,,,,,,,,,2443.7392,7.0,2443.7444,,,,2446.6849,2447.1828,2446.1699,2446.6844,2444.7538,30.0,2446.1693,2447.1829,2447.6822,2447.6823,2453.693,9999.0,2453.6934,0.0,2454.6898,7.0,1.0,211.0,23.0,1.0,1.4,0.3,Time
,,S30,1,Female,29,anonymized,Serial_Dependence_U,2023.2.3,Win32,60.24096386,,,,,,,,,,,,2454.6909,7.0,2454.6923,,,,2457.838,2458.3348,2457.3212,2457.8379,2455.7064,338.0,2457.3207,2458.3349,2458.8342,2458.8343,2464.8433,9999.0,2464.8437,0.0,2465.8419,7.0,2.0,212.0,9.0,1.0,1.6,0.7,Time
,,S30,1,Female,29,anonymized,Serial_Dependence_U,2023.2.3,Win32,60.24096386,,,,,,,,,,,,2465.8431,7.0,2465.8437,,,,2468.5891,2469.0875,2468.0734,2468.5886,2466.8577,41.0,2468.0729,2469.0876,2469.5868,2469.5869,2475.5961,9999.0,2475.5968,0.0,2476.5941,7.0,3.0,213.0,17.0,1.0,1.2,0.7,Time
,,S30,1,Female,29,anonymized,Serial_Dependence_U,2023.2.3,Win32,60.24096386,,,,,,,,,,,,2476.5947,7.0,2476.596,,,,2478.9426,2479.441,2478.4267,2478.9421,2477.6112,348.0,2478.4261,2479.4411,2479.94,2479.9401,2485.9515,9999.0,2485.9521,0.0,2486.9474,7.0,4.0,214.0,25.0,1.0,0.8,0.7,Time
,,S30,1,Female,29,anonymized,Serial_Dependence_U,2023.2.3,Win32,60.24096386,,,,,,,,,,,,2486.948,7.0,2486.9484,,,,2489.2961,2489.7936,2488.7807,2489.2956,2487.9646,311.0,2488.7805,2489.7936,2490.2931,2490.2932,2496.3029,9999.0,2496.3037,0.0,2497.301,7.0,5.0,215.0,5.0,1.0,0.8,0.7,Time
,,S30,1,Female,29,anonymized,Serial_Dependence_U,2023.2.3,Win32,60.24096386,,,,,,,,,,,,2497.3021,7.0,2497.3032,,,,2500.2487,2500.747,2499.7351,2500.2483,2498.3181,82.0,2499.7343,2500.7471,2501.2459,2501.2459,2507.2552,9999.0,2507.2562,0.0,2508.2532,7.0,6.0,216.0,13.0,1.0,1.4,0.3,Time
,,S30,1,Female,29,anonymized,Serial_Dependence_U,2023.2.3,Win32,60.24096386,,,,,,,,,,,,2508.2539,7.0,2508.2545,,,,2511.0024,2511.4994,2510.4847,2511.0019,2509.2695,157.0,2510.4842,2511.4994,2511.9989,2511.999,2518.0079,9999.0,2518.0085,0.0,2519.0069,7.0,7.0,217.0,7.0,1.0,1.2,0.7,Time
,,S30,1,Female,29,anonymized,Serial_Dependence_U,2023.2.3,Win32,60.24096386,,,,,,,,,,,,2519.0083,7.0,2519.0094,,,,2521.9536,2522.4513,2521.4375,2521.9527,2520.0227,245.0,2521.4369,2522.4513,2522.9503,2522.9504,2528.9606,9999.0,2528.9613,0.0,2529.9585,7.0,8.0,218.0,18.0,1.0,1.4,0.7,Time
,,S30,1,Female,29,anonymized,Serial_Dependence_U,2023.2.3,Win32,60.24096386,,,,,,,,,,,,2529.9596,7.0,2529.9608,,,,2532.3067,2532.8044,2531.7907,2532.3065,2530.9749,240.0,2531.7901,2532.8046,2533.3039,2533.304,2539.315,9999.0,2539.3153,0.0,2540.3114,7.0,9.0,219.0,10.0,1.0,0.8,0.3,Time
,,S30,1,Female,29,anonymized,Serial_Dependence_U,2023.2.3,Win32,60.24096386,,,,,,,,,,,,2540.3125,7.0,2540.3137,,,,2543.4588,2543.9566,2542.9428,2543.4584,2541.3291,174.0,2542.9422,2543.9567,2544.4563,2544.4564,2550.468,9999.0,2550.4688,0.0,2551.4636,7.0,10.0,220.0,14.0,1.0,1.6,0.3,Time
,,S30,1,Female,29,anonymized,Serial_Dependence_U,2023.2.3,Win32,60.24096386,,,,,,,,,,,,2551.4653,7.0,2551.4665,,,,2553.8112,2554.3096,2553.2957,2553.811,2552.4795,238.0,2553.2956,2554.3097,2554.8091,2554.8093,2560.8196,9999.0,2560.8205,0.0,2561.8164,7.0,11.0,221.0,0.0,1.0,0.8,0.3,Time
,,S30,1,Female,29,anonymized,Serial_Dependence_U,2023.2.3,Win32,60.24096386,,,,,,,,,,,,2561.8171,7.0,2561.8178,,,,2564.9641,2565.4619,2564.4476,2564.9636,2562.8335,95.0,2564.447,2565.4621,2565.9613,2565.9615,2571.9704,9999.0,2571.971,0.0,2572.9689,7.0,12.0,222.0,19.0,1.0,1.6,0.7,Time
,,S30,1,Female,29,anonymized,Serial_Dependence_U,2023.2.3,Win32,60.24096386,,,,,,,,,,,,2572.9699,7.0,2572.971,,,,2575.7167,2576.2145,2575.202,2575.7161,2573.9856,252.0,2575.2017,2576.2146,2576.7139,2576.7141,2582.7233,9999.0,2582.7237,0.0,2583.7211,7.0,13.0,223.0,12.0,1.0,1.2,0.3,Time
,,S30,1,Female,29,anonymized,Serial_Dependence_U,2023.2.3,Win32,60.24096386,,,,,,,,,,,,2583.7218,7.0,2583.722,,,,2586.269,2586.7673,2585.7538,2586.2688,2584.7374,100.0,2585.7537,2586.7673,2587.2665,2587.2666,2593.2763,9999.0,2593.2772,0.0,2594.2745,7.0,14.0,224.0,21.0,1.0,1.0,0.3,Time
,,S30,1,Female,29,anonymized,Serial_Dependence_U,2023.2.3,Win32,60.24096386,,,,,,,,,,,,2594.2756,7.0,2594.2769,,,,2597.4217,2597.9196,2596.9066,2597.4211,2595.2925,352.0,2596.9064,2597.9196,2598.4191,2598.4192,2604.428,9999.0,2604.4283,0.0,2605.4266,7.0,15.0,225.0,24.0,1.0,1.6,0.3,Time
,,S30,1,Female,29,anonymized,Serial_Dependence_U,2023.2.3,Win32,60.24096386,,,,,,,,,,,,2605.4277,7.0,2605.4289,,,,2608.3742,2608.872,2607.8582,2608.3737,2606.4433,218.0,2607.8576,2608.8722,2609.3714,2609.3715,2615.3822,9999.0,2615.3824,0.0,2616.3789,7.0,16.0,226.0,3.0,1.0,1.4,0.3,Time
,,S30,1,Female,29,anonymized,Serial_Dependence_U,2023.2.3,Win32,60.24096386,,,,,,,,,,,,2616.3799,7.0,2616.381,,,,2618.7268,2619.2251,2618.2112,2618.7263,2617.3957,251.0,2618.2106,2619.2253,2619.7246,2619.7246,2625.7344,9999.0,2625.7353,0.0,2626.7325,7.0,17.0,227.0,15.0,1.0,0.8,0.7,Time
,,S30,1,Female,29,anonymized,Serial_Dependence_U,2023.2.3,Win32,60.24096386,,,,,,,,,,,,2626.7339,7.0,2626.7346,,,,2629.2802,2629.778,2628.7641,2629.2798,2627.749,69.0,2628.7635,2629.7781,2630.2771,2630.2772,2636.2867,9999.0,2636.2872,0.0,2637.2851,7.0,18.0,228.0,6.0,1.0,1.0,0.7,Time
,,S30,1,Female,29,anonymized,Serial_Dependence_U,2023.2.3,Win32,60.24096386,,,,,,,,,,,,2637.2863,7.0,2637.2868,,,,2640.4324,2640.9301,2639.9161,2640.4321,2638.3014,215.0,2639.9155,2640.9303,2641.4297,2641.4299,2647.4405,9999.0,2647.4409,0.0,2648.4381,7.0,19.0,229.0,29.0,1.0,1.6,0.7,Time
,,S30,1,Female,29,anonymized,Serial_Dependence_U,2023.2.3,Win32,60.24096386,,,,,,,,,,,,2648.4403,7.0,2648.4413,,,,2650.7866,2651.283,2650.2695,2650.7864,2649.455,263.0,2650.269,2651.283,2651.7829,2651.783,2657.793,9999.0,2657.7934,0.0,2658.7906,7.0,20.0,230.0,20.0,1.0,0.8,0.3,Time
,,S30,1,Female,29,anonymized,Serial_Dependence_U,2023.2.3,Win32,60.24096386,,,,,,,,,,,,2658.7918,7.0,2658.7926,,,,2661.738,2662.2361,2661.2221,2661.7374,2659.8072,119.0,2661.2216,2662.2362,2662.7354,2662.7356,2668.7445,9999.0,2668.7453,0.0,2669.7428,7.0,21.0,231.0,8.0,1.0,1.4,0.7,Time
,,S30,1,Female,29,anonymized,Serial_Dependence_U,2023.2.3,Win32,60.24096386,,,,,,,,,,,,2669.744,7.0,2669.7453,,,,2672.2908,2672.7888,2671.7748,2672.2905,2670.7596,350.0,2671.7744,2672.7888,2673.2877,2673.2877,2679.2972,9999.0,2679.2978,0.0,2680.2952,7.0,22.0,232.0,1.0,1.0,1.0,0.3,Time
,,S30,1,Female,29,anonymized,Serial_Dependence_U,2023.2.3,Win32,60.24096386,,,,,,,,,,,,2680.2958,7.0,2680.2961,,,,2683.0435,2683.5412,2682.5268,2683.043,2681.3126,212.0,2682.5263,2683.5413,2684.0403,2684.0405,2690.051,9999.0,2690.0511,0.0,2691.0485,7.0,23.0,233.0,27.0,1.0,1.2,0.7,Time
,,S30,1,Female,29,anonymized,Serial_Dependence_U,2023.2.3,Win32,60.24096386,,,,,,,,,,,,2691.0498,7.0,2691.0511,,,,2693.7964,2694.2941,2693.2814,2693.7961,2692.0648,60.0,2693.2808,2694.2941,2694.7936,2694.7937,2700.8043,9999.0,2700.8047,0.0,2701.8005,7.0,24.0,234.0,2.0,1.0,1.2,0.3,Time
,,S30,1,Female,29,anonymized,Serial_Dependence_U,2023.2.3,Win32,60.24096386,,,,,,,,,,,,2701.8011,7.0,2701.8023,,,,2704.349,2704.8468,2703.8329,2704.3485,2702.8177,280.0,2703.8323,2704.8469,2705.3458,2705.3459,2711.3553,9999.0,2711.3558,0.0,2712.3538,7.0,25.0,235.0,26.0,1.0,1.0,0.7,Time
,,S30,1,Female,29,anonymized,Serial_Dependence_U,2023.2.3,Win32,60.24096386,,,,,,,,,,,,2712.355,7.0,2712.3563,,,,2714.9021,2715.3998,2714.386,2714.9019,2713.3717,62.0,2714.3854,2715.3999,2715.8993,2715.8994,2721.9095,9999.0,2721.9098,0.0,2722.9066,7.0,26.0,236.0,11.0,1.0,1.0,0.3,Time
,,S30,1,Female,29,anonymized,Serial_Dependence_U,2023.2.3,Win32,60.24096386,,,,,,,,,,,,2722.9075,7.0,2722.908,,,,2725.8556,2726.3521,2725.3372,2725.8551,2723.9225,44.0,2725.3371,2726.3521,2726.8513,2726.8514,2732.8611,9999.0,2732.8618,0.0,2733.8595,7.0,27.0,237.0,28.0,1.0,1.4,0.7,Time
,,S30,1,Female,29,anonymized,Serial_Dependence_U,2023.2.3,Win32,60.24096386,,,,,,,,,,,,2733.8611,7.0,2733.8622,,,,2736.6059,2737.1048,2736.0909,2736.6058,2734.8759,181.0,2736.0902,2737.105,2737.6043,2737.6045,2743.6147,9999.0,2743.6156,0.0,2744.6119,7.0,28.0,238.0,22.0,1.0,1.2,0.3,Time
,,S30,1,Female,29,anonymized,Serial_Dependence_U,2023.2.3,Win32,60.24096386,,,,,,,,,,,,2744.6132,7.0,2744.6146,,,,2747.7425,2748.2403,2747.2267,2747.7424,2745.613,19.0,2747.2264,2748.2405,2748.7401,2748.7402,2754.7506,9999.0,2754.7512,0.0,2755.7472,7.0,29.0,239.0,4.0,1.0,1.6,0.3,Time
,,S30,1,Female,29,anonymized,Serial_Dependence_U,2023.2.3,Win32,60.24096386,,,,,,,,,,,,2755.7484,8.0,2759.0433,s,3.2677,,2762.1903,2762.688,2761.6754,2762.1897,2760.0598,23.0,2761.6751,2762.6882,2763.1875,2763.1876,2769.1972,9999.0,2769.1979,0.0,2770.1954,8.0,0.0,240.0,24.0,1.0,1.6,0.3,Time
,,S30,1,Female,29,anonymized,Serial_Dependence_U,2023.2.3,Win32,60.24096386,,,,,,,,,,,,2770.1968,8.0,2770.203,,,,2772.5445,2773.0412,2772.0281,2772.5444,2771.2114,215.0,2772.0275,2773.0414,2773.5406,2773.5408,2779.5525,9999.0,2779.5529,0.0,2780.5487,8.0,1.0,241.0,25.0,1.0,0.8,0.7,Time
,,S30,1,Female,29,anonymized,Serial_Dependence_U,2023.2.3,Win32,60.24096386,,,,,,,,,,,,2780.5499,8.0,2780.5514,,,,2783.4956,2783.9937,2782.9808,2783.495,2781.565,145.0,2782.9804,2783.9938,2784.493,2784.4931,2790.5036,9999.0,2790.5045,0.0,2791.5009,8.0,2.0,242.0,23.0,1.0,1.4,0.3,Time
,,S30,1,Female,29,anonymized,Serial_Dependence_U,2023.2.3,Win32,60.24096386,,,,,,,,,,,,2791.5023,8.0,2791.5038,,,,2794.2486,2794.7463,2793.7323,2794.2481,2792.5173,119.0,2793.7313,2794.7464,2795.2458,2795.2459,2801.2564,9999.0,2801.2571,0.0,2802.2532,8.0,3.0,243.0,17.0,1.0,1.2,0.7,Time
,,S30,1,Female,29,anonymized,Serial_Dependence_U,2023.2.3,Win32,60.24096386,,,,,,,,,,,,2802.2544,8.0,2802.2556,,,,2805.201,2805.6992,2804.6847,2805.2006,2803.2704,245.0,2804.6842,2805.6994,2806.1984,2806.1985,2812.2084,9999.0,2812.2088,0.0,2813.2055,8.0,4.0,244.0,13.0,1.0,1.4,0.3,Time
,,S30,1,Female,29,anonymized,Serial_Dependence_U,2023.2.3,Win32,60.24096386,,,,,,,,,,,,2813.2065,8.0,2813.2076,,,,2815.555,2816.0523,2815.039,2815.5546,2814.2224,96.0,2815.0386,2816.0523,2816.5517,2816.5518,2822.5619,9999.0,2822.5627,0.0,2823.5597,8.0,5.0,245.0,5.0,1.0,0.8,0.7,Time
,,S30,1,Female,29,anonymized,Serial_Dependence_U,2023.2.3,Win32,60.24096386,,,,,,,,,,,,2823.561,8.0,2823.562,,,,2826.3057,2826.8044,2825.7896,2826.3055,2824.5764,128.0,2825.7896,2826.8045,2827.3039,2827.304,2833.3148,9999.0,2833.3152,0.0,2834.3115,8.0,6.0,246.0,22.0,1.0,1.2,0.3,Time
,,S30,1,Female,29,anonymized,Serial_Dependence_U,2023.2.3,Win32,60.24096386,,,,,,,,,,,,2834.3126,8.0,2834.3139,,,,2837.4587,2837.9567,2836.9426,2837.4584,2835.3273,331.0,2836.942,2837.9568,2838.4561,2838.4563,2844.4667,9999.0,2844.4675,0.0,2845.4635,8.0,7.0,247.0,14.0,1.0,1.6,0.3,Time
,,S30,1,Female,29,anonymized,Serial_Dependence_U,2023.2.3,Win32,60.24096386,,,,,,,,,,,,2845.4646,8.0,2845.4657,,,,2848.0106,2848.5096,2847.4967,2848.0105,2846.4803,118.0,2847.4964,2848.5097,2849.009,2849.0092,2855.0194,9999.0,2855.0195,0.0,2856.0165,8.0,8.0,248.0,26.0,1.0,1.0,0.7,Time
,,S30,1,Female,29,anonymized,Serial_Dependence_U,2023.2.3,Win32,60.24096386,,,,,,,,,,,,2856.0177,8.0,2856.0188,,,,2859.1647,2859.6616,2858.6486,2859.1645,2857.0343,320.0,2858.6481,2859.6617,2860.161,2860.1611,2866.1708,9999.0,2866.1715,0.0,2867.1688,8.0,9.0,249.0,4.0,1.0,1.6,0.3,Time
,,S30,1,Female,29,anonymized,Serial_Dependence_U,2023.2.3,Win32,60.24096386,,,,,,,,,,,,2867.1702,8.0,2867.1716,,,,2869.7178,2870.2145,2869.2006,2869.7175,2868.1854,33.0,2869.2,2870.2147,2870.7141,2870.7142,2876.7247,9999.0,2876.7252,0.0,2877.7216,8.0,10.0,250.0,1.0,1.0,1.0,0.3,Time
,,S30,1,Female,29,anonymized,Serial_Dependence_U,2023.2.3,Win32,60.24096386,,,,,,,,,,,,2877.7227,8.0,2877.724,,,,2880.4694,2880.9673,2879.9542,2880.4689,2878.7382,297.0,2879.954,2880.9673,2881.4667,2881.4668,2887.4768,9999.0,2887.4777,0.0,2888.4741,8.0,11.0,251.0,27.0,1.0,1.2,0.7,Time
,,S30,1,Female,29,anonymized,Serial_Dependence_U,2023.2.3,Win32,60.24096386,,,,,,,,,,,,2888.4753,8.0,2888.4765,,,,2891.6205,2892.1193,2891.1044,2891.6204,2889.4905,269.0,2891.1043,2892.1195,2892.6184,2892.6185,2898.6279,9999.0,2898.6283,0.0,2899.6264,8.0,12.0,252.0,29.0,1.0,1.6,0.7,Time
,,S30,1,Female,29,anonymized,Serial_Dependence_U,2023.2.3,Win32,60.24096386,,,,,,,,,,,,2899.6277,8.0,2899.6286,,,,2902.375,2902.8719,2901.8573,2902.3749,2900.642,126.0,2901.8569,2902.8721,2903.371,2903.3711,2909.3806,9999.0,2909.3818,0.0,2910.3789,8.0,13.0,253.0,7.0,1.0,1.2,0.7,Time
,,S30,1,Female,29,anonymized,Serial_Dependence_U,2023.2.3,Win32,60.24096386,,,,,,,,,,,,2910.3801,8.0,2910.3812,,,,2912.9281,2913.4249,2912.4104,2912.9279,2911.3961,32.0,2912.4098,2913.4249,2913.9246,2913.9248,2919.9335,9999.0,2919.9345,0.0,2920.9317,8.0,14.0,254.0,6.0,1.0,1.0,0.7,Time
,,S30,1,Female,29,anonymized,Serial_Dependence_U,2023.2.3,Win32,60.24096386,,,,,,,,,,,,2920.933,8.0,2920.9342,,,,2923.481,2923.9778,2922.9648,2923.4809,2921.9486,288.0,2922.9646,2923.978,2924.4774,2924.4777,2930.4875,9999.0,2930.488,0.0,2931.4844,8.0,15.0,255.0,16.0,1.0,1.0,0.7,Time
,,S30,1,Female,29,anonymized,Serial_Dependence_U,2023.2.3,Win32,60.24096386,,,,,,,,,,,,2931.4849,8.0,2931.486,,,,2933.834,2934.3309,2933.3167,2933.8338,2932.5014,46.0,2933.3161,2934.331,2934.8304,2934.8306,2940.8409,9999.0,2940.8414,0.0,2941.8383,8.0,16.0,256.0,15.0,1.0,0.8,0.7,Time
,,S30,1,Female,29,anonymized,Serial_Dependence_U,2023.2.3,Win32,60.24096386,,,,,,,,,,,,2941.8399,8.0,2941.8415,,,,2944.9852,2945.4827,2944.4706,2944.9846,2942.8547,349.0,2944.4699,2945.4828,2945.9827,2945.9828,2951.9934,9999.0,2951.9938,0.0,2952.9901,8.0,17.0,257.0,19.0,1.0,1.6,0.7,Time
,,S30,1,Female,29,anonymized,Serial_Dependence_U,2023.2.3,Win32,60.24096386,,,,,,,,,,,,2952.9913,8.0,2952.9927,,,,2956.1386,2956.6354,2955.6217,2956.1384,2954.007,42.0,2955.6212,2956.6355,2957.1348,2957.1349,2963.1447,9999.0,2963.145,0.0,2964.1422,8.0,18.0,258.0,9.0,1.0,1.6,0.7,Time
,,S30,1,Female,29,anonymized,Serial_Dependence_U,2023.2.3,Win32,60.24096386,,,,,,,,,,,,2964.1435,8.0,2964.1446,,,,2966.4903,2966.9889,2965.9757,2966.4897,2965.159,188.0,2965.9754,2966.9889,2967.4882,2967.4885,2973.4979,9999.0,2973.4984,0.0,2974.4957,8.0,19.0,259.0,10.0,1.0,0.8,0.3,Time
,,S30,1,Female,29,anonymized,Serial_Dependence_U,2023.2.3,Win32,60.24096386,,,,,,,,,,,,2974.4973,8.0,2974.4986,,,,2977.0444,2977.5409,2976.5274,2977.0442,2975.5117,319.0,2976.5269,2977.5409,2978.0404,2978.0405,2984.0506,9999.0,2984.0511,0.0,2985.0483,8.0,20.0,260.0,11.0,1.0,1.0,0.3,Time
,,S30,1,Female,29,anonymized,Serial_Dependence_U,2023.2.3,Win32,60.24096386,,,,,,,,,,,,2985.0494,8.0,2985.0508,,,,2987.9958,2988.4933,2987.48,2987.9954,2986.0643,262.0,2987.4791,2988.4934,2988.9931,2988.9933,2995.0036,9999.0,2995.0046,0.0,2996.0005,8.0,21.0,261.0,28.0,1.0,1.4,0.7,Time
,,S30,1,Female,29,anonymized,Serial_Dependence_U,2023.2.3,Win32,60.24096386,,,,,,,,,,,,2996.0017,8.0,2996.0029,,,,2998.7495,2999.2463,2998.2339,2998.7494,2997.0174,213.0,2998.2337,2999.2464,2999.7456,2999.7458,3005.755,9999.0,3005.7552,0.0,3006.7533,8.0,22.0,262.0,12.0,1.0,1.2,0.3,Time
,,S30,1,Female,29,anonymized,Serial_Dependence_U,2023.2.3,Win32,60.24096386,,,,,,,,,,,,3006.7544,8.0,3006.7557,,,,3009.3013,3009.7991,3008.7855,3009.3008,3007.7711,84.0,3008.785,3009.7993,3010.2989,3010.299,3016.31,9999.0,3016.3103,0.0,3017.3062,8.0,23.0,263.0,21.0,1.0,1.0,0.3,Time
,,S30,1,Female,29,anonymized,Serial_Dependence_U,2023.2.3,Win32,60.24096386,,,,,,,,,,,,3017.3075,8.0,3017.3088,,,,3019.6545,3020.1526,3019.1385,3019.6541,3018.3232,337.0,3019.138,3020.1528,3020.6518,3020.6519,3026.6614,9999.0,3026.6622,0.0,3027.66,8.0,24.0,264.0,0.0,1.0,0.8,0.3,Time
,,S30,1,Female,29,anonymized,Serial_Dependence_U,2023.2.3,Win32,60.24096386,,,,,,,,,,,,3027.6611,8.0,3027.6618,,,,3030.0088,3030.5062,3029.4929,3030.0084,3028.6757,205.0,3029.4923,3030.5062,3031.0051,3031.0052,3037.0156,9999.0,3037.0165,0.0,3038.0129,8.0,25.0,265.0,20.0,1.0,0.8,0.3,Time
,,S30,1,Female,29,anonymized,Serial_Dependence_U,2023.2.3,Win32,60.24096386,,,,,,,,,,,,3038.0142,8.0,3038.0151,,,,3040.762,3041.2583,3040.245,3040.7615,3039.0303,49.0,3040.2446,3041.2583,3041.7588,3041.759,3047.7676,9999.0,3047.7683,0.0,3048.7652,8.0,26.0,266.0,2.0,1.0,1.2,0.3,Time
,,S30,1,Female,29,anonymized,Serial_Dependence_U,2023.2.3,Win32,60.24096386,,,,,,,,,,,,3048.7664,8.0,3048.7675,,,,3051.7138,3052.2106,3051.198,3051.7135,3049.7821,55.0,3051.1977,3052.2107,3052.7099,3052.71,3058.7207,9999.0,3058.7214,0.0,3059.7176,8.0,27.0,267.0,3.0,1.0,1.4,0.3,Time
,,S30,1,Female,29,anonymized,Serial_Dependence_U,2023.2.3,Win32,60.24096386,,,,,,,,,,,,3059.7188,8.0,3059.7204,,,,3062.6642,3063.1628,3062.1482,3062.664,3060.7341,113.0,3062.1481,3063.1628,3063.662,3063.6621,3069.6731,9999.0,3069.6733,0.0,3070.6705,8.0,28.0,268.0,18.0,1.0,1.4,0.7,Time
,,S30,1,Female,29,anonymized,Serial_Dependence_U,2023.2.3,Win32,60.24096386,,,,,,,,,,,,3070.6721,8.0,3070.6735,,,,3073.6177,3074.1153,3073.1008,3073.6172,3071.6868,206.0,3073.1004,3074.1154,3074.6147,3074.6148,3080.6253,9999.0,3080.6264,0.0,3081.6234,8.0,29.0,269.0,8.0,1.0,1.4,0.7,Time
