Scale_setup.started,Scale_setup.stopped,participant,session,sex,age,date,expName,psychopyVersion,OS,frameRate,screen_scale_keys.started,screen_scale_keys.stopped,X Scale,Y Scale,rectangel_keys.started,rectangel_keys.stopped,Intro.started,Intro.stopped,key_resp_2.keys,key_resp_2.rt,key_resp_2.duration,block.started,Block_id,block.stopped,Block_resp_2.keys,Block_resp_2.rt,Block_resp_2.duration,ITI.started,ITI.stopped,Mask_2.started,Mask_2.stopped,M2.started,direction,M2.stopped,Cue.started,Cue.stopped,Response.started,Response.stopped,keyDuration,Feedback_Time.started,FeedbackID_T,Feedback_Time.stopped,trials.thisRepN,trials.thisTrialN,trials.thisN,trials.thisIndex,trials.ran,TimeDur,Coherence1,TrialType
0.0003,0.0005,S33,1,Female,25,anonymized,Serial_Dependence_U,2023.2.3,Win32,60.24096386,,,,,,,,,,,,,,,,,,,,,,,,,,,,,,,,,,,,,,,,
,,S33,1,Female,25,anonymized,Serial_Dependence_U,2023.2.3,Win32,60.24096386,0.0026,55.0969,0.0669,0.0674,55.0973,98.81,98.8107,101.1086,space,2.2421,,,,,,,,,,,,,,,,,,,,,,,,,,,,,,
,,S33,1,Female,25,anonymized,Serial_Dependence_U,2023.2.3,Win32,60.24096386,,,,,,,,,,,,101.1195,0.0,103.2912,s,2.1597,,106.4394,106.9381,105.9236,106.4392,104.3076,97.0,105.9235,106.9382,107.4387,107.439,107.7898,197.0,107.7903,1.0,108.7871,0.0,0.0,0.0,9.0,1.0,1.6,0.7,Time
,,S33,1,Female,25,anonymized,Serial_Dependence_U,2023.2.3,Win32,60.24096386,,,,,,,,,,,,108.7874,0.0,108.7896,,,,111.1197,111.6195,110.6053,111.1196,109.8038,308.0,110.605,111.6195,112.1188,112.1189,113.236,223.1,113.2363,1.0,114.2361,0.0,1.0,1.0,5.0,1.0,0.8,0.7,Time
,,S33,1,Female,25,anonymized,Serial_Dependence_U,2023.2.3,Win32,60.24096386,,,,,,,,,,,,114.2369,0.0,114.2375,,,,116.5848,117.0841,116.0684,116.5847,115.2523,329.0,116.0683,117.0841,117.5842,117.5843,117.9178,222.4,117.9181,1.0,118.9172,0.0,2.0,2.0,0.0,1.0,0.8,0.3,Time
,,S33,1,Female,25,anonymized,Serial_Dependence_U,2023.2.3,Win32,60.24096386,,,,,,,,,,,,118.9182,0.0,118.9187,,,,121.4661,121.9656,120.9486,121.4659,119.9334,240.0,120.9486,121.9657,122.4652,122.4652,123.215,301.6,123.2153,1.0,124.2145,0.0,3.0,3.0,21.0,1.0,1.0,0.3,Time
,,S33,1,Female,25,anonymized,Serial_Dependence_U,2023.2.3,Win32,60.24096386,,,,,,,,,,,,124.2153,0.0,124.2158,,,,126.7479,127.2508,126.2347,126.7478,125.2311,294.0,126.2346,127.2508,127.7507,127.7507,128.4464,226.9,128.4472,1.0,129.4462,0.0,4.0,4.0,26.0,1.0,1.0,0.7,Time
,,S33,1,Female,25,anonymized,Serial_Dependence_U,2023.2.3,Win32,60.24096386,,,,,,,,,,,,129.4471,0.0,129.4476,,,,132.1957,132.6947,131.6786,132.1955,130.463,299.0,131.6785,132.6949,133.1945,133.1946,134.5764,257.0,134.5769,1.0,135.5761,0.0,5.0,5.0,17.0,1.0,1.2,0.7,Time
,,S33,1,Female,25,anonymized,Serial_Dependence_U,2023.2.3,Win32,60.24096386,,,,,,,,,,,,135.5771,0.0,135.5775,,,,138.7262,139.225,138.209,138.7259,136.5936,219.0,138.2088,139.2251,139.7246,139.7247,140.2584,257.5,140.2588,1.0,141.2578,0.0,6.0,6.0,29.0,1.0,1.6,0.7,Time
,,S33,1,Female,25,anonymized,Serial_Dependence_U,2023.2.3,Win32,60.24096386,,,,,,,,,,,,141.2589,0.0,141.2595,,,,144.4061,144.905,143.8901,144.4061,142.2739,221.0,143.8899,144.9051,145.4052,145.4053,146.0378,266.0,146.0383,1.0,147.0376,0.0,7.0,7.0,19.0,1.0,1.6,0.7,Time
,,S33,1,Female,25,anonymized,Serial_Dependence_U,2023.2.3,Win32,60.24096386,,,,,,,,,,,,147.0387,0.0,147.0394,,,,149.7872,150.2858,149.2701,149.7869,148.0553,300.0,149.2701,150.2861,150.7859,150.786,151.4525,223.1,151.4532,1.0,152.4519,0.0,8.0,8.0,7.0,1.0,1.2,0.7,Time
,,S33,1,Female,25,anonymized,Serial_Dependence_U,2023.2.3,Win32,60.24096386,,,,,,,,,,,,152.453,0.0,152.4535,,,,155.4009,155.9001,154.8854,155.4007,153.469,146.0,154.8853,155.9002,156.3995,156.3995,156.7337,150.3000001,156.734,1.0,157.7329,0.0,9.0,9.0,18.0,1.0,1.4,0.7,Time
,,S33,1,Female,25,anonymized,Serial_Dependence_U,2023.2.3,Win32,60.24096386,,,,,,,,,,,,157.7337,0.0,157.734,,,,160.0827,160.5811,159.5659,160.0826,158.7504,133.0,159.5658,160.5813,161.0813,161.0815,161.9816,548.0,161.9819,1.0,162.9803,0.0,10.0,10.0,15.0,1.0,0.8,0.7,Time
,,S33,1,Female,25,anonymized,Serial_Dependence_U,2023.2.3,Win32,60.24096386,,,,,,,,,,,,162.9814,0.0,162.9816,,,,165.9296,166.4288,165.414,165.9294,163.9975,156.0,165.4139,166.4289,166.9286,166.9287,168.3284,817.0999999,168.3286,1.0,169.3276,0.0,11.0,11.0,23.0,1.0,1.4,0.3,Time
,,S33,1,Female,25,anonymized,Serial_Dependence_U,2023.2.3,Win32,60.24096386,,,,,,,,,,,,169.3284,0.0,169.3288,,,,172.2772,172.7765,171.76,172.2771,170.3449,198.0,171.7599,172.7765,173.2766,173.2767,173.7429,369.8,173.7433,1.0,174.7423,0.0,12.0,12.0,28.0,1.0,1.4,0.7,Time
,,S33,1,Female,25,anonymized,Serial_Dependence_U,2023.2.3,Win32,60.24096386,,,,,,,,,,,,174.744,0.0,174.745,,,,177.6747,178.1739,177.158,177.6747,175.7465,357.0,177.1578,178.1739,178.6736,178.6737,179.8736,562.3000001,179.8739,1.0,180.8728,0.0,13.0,13.0,3.0,1.0,1.4,0.3,Time
,,S33,1,Female,25,anonymized,Serial_Dependence_U,2023.2.3,Win32,60.24096386,,,,,,,,,,,,180.8742,0.0,180.875,,,,183.6217,184.1208,183.1055,183.6216,181.8894,122.0,183.1052,184.1209,184.6203,184.6203,184.7413,98.70000005,184.7416,1.0,185.7363,0.0,14.0,14.0,2.0,1.0,1.2,0.3,Time
,,S33,1,Female,25,anonymized,Serial_Dependence_U,2023.2.3,Win32,60.24096386,,,,,,,,,,,,185.7381,0.0,185.7384,,,,188.0864,188.5855,187.5704,188.0863,186.7536,244.0,187.5703,188.5856,189.0857,189.0857,191.135,1512.1,191.1355,5.0,192.1341,0.0,15.0,15.0,10.0,1.0,0.8,0.3,Time
,,S33,1,Female,25,anonymized,Serial_Dependence_U,2023.2.3,Win32,60.24096386,,,,,,,,,,,,192.1352,0.0,192.1359,,,,195.2822,195.7822,194.7655,195.2821,193.1501,30.0,194.7654,195.7823,196.2821,196.2822,199.897,1296.2,199.8974,2.0,200.8962,0.0,16.0,16.0,24.0,1.0,1.6,0.3,Time
,,S33,1,Female,25,anonymized,Serial_Dependence_U,2023.2.3,Win32,60.24096386,,,,,,,,,,,,200.897,0.0,200.8973,,,,203.6465,204.1455,203.1291,203.6463,201.9134,251.0,203.129,204.1455,204.645,204.6451,205.8485,914.4000001,205.8489,2.0,206.8442,0.0,17.0,17.0,22.0,1.0,1.2,0.3,Time
,,S33,1,Female,25,anonymized,Serial_Dependence_U,2023.2.3,Win32,60.24096386,,,,,,,,,,,,206.8453,0.0,206.8456,,,,209.593,210.092,209.077,209.5928,207.8604,352.0,209.0768,210.092,210.592,210.5921,211.9914,112.9,211.9917,1.0,212.9911,0.0,18.0,18.0,12.0,1.0,1.2,0.3,Time
,,S33,1,Female,25,anonymized,Serial_Dependence_U,2023.2.3,Win32,60.24096386,,,,,,,,,,,,212.9921,0.0,212.9926,,,,216.1251,216.6223,215.6236,216.125,214.0079,260.0,215.6235,216.6224,217.1221,217.1222,220.9712,1223.7,220.9717,2.0,221.9694,0.0,19.0,19.0,4.0,1.0,1.6,0.3,Time
,,S33,1,Female,25,anonymized,Serial_Dependence_U,2023.2.3,Win32,60.24096386,,,,,,,,,,,,221.9712,0.0,221.9714,,,,225.1217,225.6173,224.607,225.1217,222.9866,232.0,224.6069,225.6174,226.1177,226.1178,227.239,934.3,227.2392,1.0,228.2341,0.0,20.0,20.0,14.0,1.0,1.6,0.3,Time
,,S33,1,Female,25,anonymized,Serial_Dependence_U,2023.2.3,Win32,60.24096386,,,,,,,,,,,,228.2355,0.0,228.2358,,,,230.5863,231.0816,230.0674,230.5862,229.2507,336.0,230.067,231.0817,231.5821,231.5821,233.3483,1365.4,233.3488,5.0,234.3475,0.0,21.0,21.0,25.0,1.0,0.8,0.7,Time
,,S33,1,Female,25,anonymized,Serial_Dependence_U,2023.2.3,Win32,60.24096386,,,,,,,,,,,,234.3489,0.0,234.3493,,,,236.8811,237.3793,236.3649,236.8809,235.3512,304.0,236.3648,237.3793,237.8794,237.8795,239.1675,919.0,239.1676,2.0,240.1623,0.0,22.0,22.0,16.0,1.0,1.0,0.7,Time
,,S33,1,Female,25,anonymized,Serial_Dependence_U,2023.2.3,Win32,60.24096386,,,,,,,,,,,,240.1635,0.0,240.1638,,,,242.7112,243.2105,242.1949,242.7111,241.1784,351.0,242.1946,243.2106,243.7099,243.71,244.1279,367.5,244.1282,1.0,245.1268,0.0,23.0,23.0,6.0,1.0,1.0,0.7,Time
,,S33,1,Female,25,anonymized,Serial_Dependence_U,2023.2.3,Win32,60.24096386,,,,,,,,,,,,245.1278,0.0,245.1281,,,,247.6781,248.175,247.1602,247.678,246.1433,339.0,247.1601,248.1751,248.6748,248.6749,249.8745,891.1,249.8749,2.0,250.8739,0.0,24.0,24.0,1.0,1.0,1.0,0.3,Time
,,S33,1,Female,25,anonymized,Serial_Dependence_U,2023.2.3,Win32,60.24096386,,,,,,,,,,,,250.875,0.0,250.8754,,,,253.8066,254.3059,253.2964,253.8065,251.891,111.0,253.2962,254.3059,254.8054,254.8056,257.1218,1112.9,257.1222,2.0,258.1209,0.0,25.0,25.0,8.0,1.0,1.4,0.7,Time
,,S33,1,Female,25,anonymized,Serial_Dependence_U,2023.2.3,Win32,60.24096386,,,,,,,,,,,,258.1222,0.0,258.1229,,,,261.0687,261.5685,260.5529,261.0687,259.1365,68.0,260.5527,261.5685,262.0684,262.0684,262.3017,214.1,262.302,1.0,263.302,0.0,26.0,26.0,13.0,1.0,1.4,0.3,Time
,,S33,1,Female,25,anonymized,Serial_Dependence_U,2023.2.3,Win32,60.24096386,,,,,,,,,,,,263.3029,0.0,263.3036,,,,266.05,266.5501,265.5337,266.0499,264.3178,144.0,265.5337,266.5501,267.0501,267.0503,267.3001,226.6,267.3005,1.0,268.2993,0.0,27.0,27.0,27.0,1.0,1.2,0.7,Time
,,S33,1,Female,25,anonymized,Serial_Dependence_U,2023.2.3,Win32,60.24096386,,,,,,,,,,,,268.3003,0.0,268.301,,,,270.815,271.3145,270.3026,270.8149,269.3002,321.0,270.3025,271.3146,271.8143,271.8144,273.4977,1189.6,273.4982,4.0,274.4968,0.0,28.0,28.0,11.0,1.0,1.0,0.3,Time
,,S33,1,Female,25,anonymized,Serial_Dependence_U,2023.2.3,Win32,60.24096386,,,,,,,,,,,,274.4979,0.0,274.4983,,,,276.8461,277.345,276.3303,276.8459,275.5131,262.0,276.3302,277.3451,277.8484,277.8486,279.4995,1162.4,279.4998,5.0,280.4941,0.0,29.0,29.0,20.0,1.0,0.8,0.3,Time
,,S33,1,Female,25,anonymized,Serial_Dependence_U,2023.2.3,Win32,60.24096386,,,,,,,,,,,,280.4952,1.0,513.6594,s,233.1431,,516.5912,517.0879,516.0876,516.591,514.6713,234.0,516.0873,517.0881,517.5863,517.5863,517.9693,184.6,517.9695,1.0,518.969,1.0,0.0,30.0,3.0,1.0,1.4,0.3,Time
,,S33,1,Female,25,anonymized,Serial_Dependence_U,2023.2.3,Win32,60.24096386,,,,,,,,,,,,518.97,1.0,518.973,,,,522.1188,522.6175,521.6015,522.1185,519.9862,279.0,521.6013,522.6176,523.1174,523.1175,524.6866,1242.9,524.6869,2.0,525.6827,1.0,1.0,31.0,19.0,1.0,1.6,0.7,Time
,,S33,1,Female,25,anonymized,Serial_Dependence_U,2023.2.3,Win32,60.24096386,,,,,,,,,,,,525.6837,1.0,525.6842,,,,528.4329,528.9307,527.9145,528.4323,526.6989,154.0,527.9144,528.9307,529.4303,529.4304,532.179,1295.7,532.1792,4.0,533.1792,1.0,2.0,32.0,22.0,1.0,1.2,0.3,Time
,,S33,1,Female,25,anonymized,Serial_Dependence_U,2023.2.3,Win32,60.24096386,,,,,,,,,,,,533.1803,1.0,533.1808,,,,535.7278,536.2277,535.2116,535.7277,534.1952,56.0,535.2115,536.2278,536.7278,536.7279,539.1424,1110.0,539.1428,4.0,540.1424,1.0,3.0,33.0,1.0,1.0,1.0,0.3,Time
,,S33,1,Female,25,anonymized,Serial_Dependence_U,2023.2.3,Win32,60.24096386,,,,,,,,,,,,540.1436,1.0,540.1441,,,,542.4751,542.9742,541.9741,542.4749,541.159,194.0,541.974,542.9743,543.4737,543.4738,544.8398,1323.3,544.84,5.0,545.8393,1.0,4.0,34.0,20.0,1.0,0.8,0.3,Time
,,S33,1,Female,25,anonymized,Serial_Dependence_U,2023.2.3,Win32,60.24096386,,,,,,,,,,,,545.8404,1.0,545.8408,,,,548.9889,549.4882,548.4723,548.9887,546.856,171.0,548.4721,549.4882,549.9882,549.9884,552.1037,1264.5,552.104,2.0,553.1036,1.0,5.0,35.0,9.0,1.0,1.6,0.7,Time
,,S33,1,Female,25,anonymized,Serial_Dependence_U,2023.2.3,Win32,60.24096386,,,,,,,,,,,,553.105,1.0,553.1055,,,,556.2519,556.7516,555.7358,556.2517,554.1197,132.0,555.7356,556.7517,557.2513,557.2514,558.5508,899.8000001,558.5515,1.0,559.5503,1.0,6.0,36.0,4.0,1.0,1.6,0.3,Time
,,S33,1,Female,25,anonymized,Serial_Dependence_U,2023.2.3,Win32,60.24096386,,,,,,,,,,,,559.5517,1.0,559.5523,,,,562.0995,562.5989,561.583,562.0994,560.567,97.0,561.5829,562.5989,563.0978,563.0979,564.681,1078.9,564.6812,4.0,565.6804,1.0,7.0,37.0,6.0,1.0,1.0,0.7,Time
,,S33,1,Female,25,anonymized,Serial_Dependence_U,2023.2.3,Win32,60.24096386,,,,,,,,,,,,565.6811,1.0,565.6814,,,,568.4291,568.9294,567.9133,568.4289,566.6978,355.0,567.9132,568.9295,569.4294,569.4294,570.8943,1217.7,570.8946,3.0,571.8951,1.0,8.0,38.0,17.0,1.0,1.2,0.7,Time
,,S33,1,Female,25,anonymized,Serial_Dependence_U,2023.2.3,Win32,60.24096386,,,,,,,,,,,,571.8962,1.0,571.8968,,,,574.83,575.3272,574.3283,574.8299,572.9115,221.0,574.3281,575.3272,575.8268,575.8269,577.5636,1295.8,577.564,2.0,578.5585,1.0,9.0,39.0,28.0,1.0,1.4,0.7,Time
,,S33,1,Female,25,anonymized,Serial_Dependence_U,2023.2.3,Win32,60.24096386,,,,,,,,,,,,578.5598,1.0,578.5601,,,,580.9076,581.407,580.392,580.9074,579.5754,196.0,580.3919,581.407,581.9074,581.9074,583.3894,1071.4,583.3901,5.0,584.3896,1.0,10.0,40.0,25.0,1.0,0.8,0.7,Time
,,S33,1,Female,25,anonymized,Serial_Dependence_U,2023.2.3,Win32,60.24096386,,,,,,,,,,,,584.3906,1.0,584.3911,,,,587.1386,587.6376,586.6228,587.1384,585.4056,14.0,586.6226,587.6376,588.1378,588.138,588.4708,300.9,588.4711,1.0,589.4699,1.0,11.0,41.0,12.0,1.0,1.2,0.3,Time
,,S33,1,Female,25,anonymized,Serial_Dependence_U,2023.2.3,Win32,60.24096386,,,,,,,,,,,,589.4709,1.0,589.4713,,,,592.4196,592.919,591.9026,592.4194,590.4876,221.0,591.9024,592.9191,593.4189,593.4191,596.9706,1240.9,596.9708,2.0,597.9663,1.0,12.0,42.0,18.0,1.0,1.4,0.7,Time
,,S33,1,Female,25,anonymized,Serial_Dependence_U,2023.2.3,Win32,60.24096386,,,,,,,,,,,,597.9674,1.0,597.9679,,,,600.3151,600.814,599.7986,600.3151,598.9831,253.0,599.7986,600.814,601.3146,601.3147,602.9471,816.5,602.9475,3.0,603.9472,1.0,13.0,43.0,0.0,1.0,0.8,0.3,Time
,,S33,1,Female,25,anonymized,Serial_Dependence_U,2023.2.3,Win32,60.24096386,,,,,,,,,,,,603.9486,1.0,603.9495,,,,606.6958,607.1954,606.1797,606.6957,604.9626,272.0,606.1794,607.1954,607.6951,607.6952,609.4777,932.6,609.4781,2.0,610.4774,1.0,14.0,44.0,7.0,1.0,1.2,0.7,Time
,,S33,1,Female,25,anonymized,Serial_Dependence_U,2023.2.3,Win32,60.24096386,,,,,,,,,,,,610.4785,1.0,610.4795,,,,613.0262,613.5252,612.5091,613.026,611.4937,231.0,612.509,613.5252,614.0257,614.0258,615.7251,1226.9,615.7257,4.0,616.7241,1.0,15.0,45.0,16.0,1.0,1.0,0.7,Time
,,S33,1,Female,25,anonymized,Serial_Dependence_U,2023.2.3,Win32,60.24096386,,,,,,,,,,,,616.7249,1.0,616.7255,,,,619.4726,619.9733,618.9569,619.4724,617.74,46.0,618.9568,619.9733,620.4728,620.4728,622.9552,1412.5,622.9555,4.0,623.9543,1.0,16.0,46.0,2.0,1.0,1.2,0.3,Time
,,S33,1,Female,25,anonymized,Serial_Dependence_U,2023.2.3,Win32,60.24096386,,,,,,,,,,,,623.9552,1.0,623.9557,,,,626.7034,627.2032,626.1871,626.7034,624.9718,137.0,626.1868,627.2032,627.7029,627.7029,629.0518,1033.5,629.052,2.0,630.0518,1.0,17.0,47.0,27.0,1.0,1.2,0.7,Time
,,S33,1,Female,25,anonymized,Serial_Dependence_U,2023.2.3,Win32,60.24096386,,,,,,,,,,,,630.0528,1.0,630.0538,,,,632.6005,633.1001,632.0839,632.6003,631.068,210.0,632.0838,633.1001,633.6001,633.6002,635.0822,1109.1,635.0825,4.0,636.082,1.0,18.0,48.0,26.0,1.0,1.0,0.7,Time
,,S33,1,Female,25,anonymized,Serial_Dependence_U,2023.2.3,Win32,60.24096386,,,,,,,,,,,,636.0828,1.0,636.0833,,,,638.6308,639.1303,638.1148,638.6307,637.0983,31.0,638.1147,639.1303,639.6303,639.6304,640.8461,1148.9,640.8464,4.0,641.8464,1.0,19.0,49.0,21.0,1.0,1.0,0.3,Time
,,S33,1,Female,25,anonymized,Serial_Dependence_U,2023.2.3,Win32,60.24096386,,,,,,,,,,,,641.8474,1.0,641.8479,,,,644.9949,645.4948,644.4788,644.9948,642.8624,298.0,644.4786,645.4948,645.9945,645.9946,647.7598,1437.9,647.76,2.0,648.7588,1.0,20.0,50.0,29.0,1.0,1.6,0.7,Time
,,S33,1,Female,25,anonymized,Serial_Dependence_U,2023.2.3,Win32,60.24096386,,,,,,,,,,,,648.7593,1.0,648.7594,,,,651.9086,652.408,651.3924,651.9085,649.7762,6.0,651.3921,652.408,652.9079,652.908,654.2904,1044.7,654.2908,1.0,655.2895,1.0,21.0,51.0,14.0,1.0,1.6,0.3,Time
,,S33,1,Female,25,anonymized,Serial_Dependence_U,2023.2.3,Win32,60.24096386,,,,,,,,,,,,655.2903,1.0,655.2905,,,,658.2394,658.7385,657.7227,658.2393,656.3065,205.0,657.7226,658.7386,659.2385,659.2386,660.6373,1227.9,660.6376,2.0,661.6372,1.0,22.0,52.0,13.0,1.0,1.4,0.3,Time
,,S33,1,Female,25,anonymized,Serial_Dependence_U,2023.2.3,Win32,60.24096386,,,,,,,,,,,,661.6379,1.0,661.6384,,,,664.5864,665.0856,664.0698,664.5863,662.654,331.0,664.0697,665.0857,665.5846,665.5847,666.8511,941.0,666.8514,1.0,667.8507,1.0,23.0,53.0,8.0,1.0,1.4,0.7,Time
,,S33,1,Female,25,anonymized,Serial_Dependence_U,2023.2.3,Win32,60.24096386,,,,,,,,,,,,667.8522,1.0,667.8531,,,,670.1998,670.6999,669.6842,670.1997,668.8672,0.0,669.6841,670.7,671.2,671.2,672.4818,972.6999999,672.482,4.0,673.4819,1.0,24.0,54.0,15.0,1.0,0.8,0.7,Time
,,S33,1,Female,25,anonymized,Serial_Dependence_U,2023.2.3,Win32,60.24096386,,,,,,,,,,,,673.4827,1.0,673.4833,,,,676.0308,676.5306,675.5146,676.0306,674.4984,58.0,675.5145,676.5307,677.0304,677.0304,678.3628,1150.1,678.3632,4.0,679.3625,1.0,25.0,55.0,11.0,1.0,1.0,0.3,Time
,,S33,1,Female,25,anonymized,Serial_Dependence_U,2023.2.3,Win32,60.24096386,,,,,,,,,,,,679.3634,1.0,679.3641,,,,682.5115,683.0106,681.9947,682.5113,680.379,25.0,681.9946,683.0107,683.5105,683.5106,684.86,1051.2,684.8602,1.0,685.8589,1.0,26.0,56.0,24.0,1.0,1.6,0.3,Time
,,S33,1,Female,25,anonymized,Serial_Dependence_U,2023.2.3,Win32,60.24096386,,,,,,,,,,,,685.8597,1.0,685.86,,,,688.8077,689.3081,688.2921,688.8076,686.8754,14.0,688.292,689.3082,689.8073,689.8074,691.5734,1449.3,691.5737,3.0,692.5728,1.0,27.0,57.0,23.0,1.0,1.4,0.3,Time
,,S33,1,Female,25,anonymized,Serial_Dependence_U,2023.2.3,Win32,60.24096386,,,,,,,,,,,,692.5736,1.0,692.5747,,,,694.922,695.4222,694.4067,694.9219,693.5897,65.0,694.4062,695.4222,695.9216,695.9217,697.1043,749.8000001,697.1046,2.0,698.104,1.0,28.0,58.0,5.0,1.0,0.8,0.7,Time
,,S33,1,Female,25,anonymized,Serial_Dependence_U,2023.2.3,Win32,60.24096386,,,,,,,,,,,,698.1048,1.0,698.1056,,,,700.4535,700.952,699.9365,700.4534,699.1197,103.0,699.9364,700.952,701.4527,701.4528,702.9348,1007.7,702.9358,4.0,703.9348,1.0,29.0,59.0,10.0,1.0,0.8,0.3,Time
,,S33,1,Female,25,anonymized,Serial_Dependence_U,2023.2.3,Win32,60.24096386,,,,,,,,,,,,703.9361,2.0,706.3826,s,2.4148,,709.5324,710.0318,709.0165,709.5323,707.3998,60.0,709.0162,710.0319,710.5317,710.5318,711.6652,869.4,711.6659,1.0,712.6639,2.0,0.0,60.0,19.0,1.0,1.6,0.7,Time
,,S33,1,Female,25,anonymized,Serial_Dependence_U,2023.2.3,Win32,60.24096386,,,,,,,,,,,,712.6646,2.0,712.6682,,,,715.8129,716.3126,715.2967,715.8127,713.6802,33.0,715.2967,716.3126,716.8126,716.8126,717.9783,820.0,717.9787,1.0,718.9784,2.0,1.0,61.0,9.0,1.0,1.6,0.7,Time
,,S33,1,Female,25,anonymized,Serial_Dependence_U,2023.2.3,Win32,60.24096386,,,,,,,,,,,,718.98,2.0,718.9807,,,,722.1265,722.6267,721.61,722.1263,719.9947,355.0,721.6099,722.6268,723.1255,723.1256,725.0416,1481.4,725.042,2.0,726.0406,2.0,2.0,62.0,29.0,1.0,1.6,0.7,Time
,,S33,1,Female,25,anonymized,Serial_Dependence_U,2023.2.3,Win32,60.24096386,,,,,,,,,,,,726.041,2.0,726.0412,,,,728.5903,729.0894,728.0736,728.5901,727.0569,151.0,728.0736,729.0895,729.5898,729.59,731.6054,1450.2,731.6058,5.0,732.6055,2.0,3.0,63.0,16.0,1.0,1.0,0.7,Time
,,S33,1,Female,25,anonymized,Serial_Dependence_U,2023.2.3,Win32,60.24096386,,,,,,,,,,,,732.6068,2.0,732.6074,,,,735.737,736.236,735.2207,735.737,733.6054,302.0,735.2206,736.236,736.7366,736.7366,738.2857,1268.2,738.2859,2.0,739.2857,2.0,4.0,64.0,14.0,1.0,1.6,0.3,Time
,,S33,1,Female,25,anonymized,Serial_Dependence_U,2023.2.3,Win32,60.24096386,,,,,,,,,,,,739.2869,2.0,739.2877,,,,741.8346,742.3338,741.3181,741.8345,740.3022,339.0,741.318,742.3338,742.8337,742.8337,744.5992,1458.9,744.5996,5.0,745.5995,2.0,5.0,65.0,21.0,1.0,1.0,0.3,Time
,,S33,1,Female,25,anonymized,Serial_Dependence_U,2023.2.3,Win32,60.24096386,,,,,,,,,,,,745.6006,2.0,745.601,,,,748.3317,748.8304,747.8192,748.3314,746.6162,20.0,747.8192,748.8307,749.3303,749.3304,751.2339,1777.4,751.234,5.0,752.2292,2.0,6.0,66.0,22.0,1.0,1.2,0.3,Time
,,S33,1,Female,25,anonymized,Serial_Dependence_U,2023.2.3,Win32,60.24096386,,,,,,,,,,,,752.2305,2.0,752.2308,,,,754.579,755.0776,754.0629,754.5789,753.2463,74.0,754.0625,755.0777,755.5781,755.5782,757.8771,1251.3,757.8776,5.0,758.8757,2.0,7.0,67.0,10.0,1.0,0.8,0.3,Time
,,S33,1,Female,25,anonymized,Serial_Dependence_U,2023.2.3,Win32,60.24096386,,,,,,,,,,,,758.8767,2.0,758.8769,,,,761.8261,762.3255,761.3095,761.8258,759.8941,76.0,761.3094,762.3256,762.8251,762.8253,765.527,1146.6,765.5272,2.0,766.5234,2.0,8.0,68.0,28.0,1.0,1.4,0.7,Time
,,S33,1,Female,25,anonymized,Serial_Dependence_U,2023.2.3,Win32,60.24096386,,,,,,,,,,,,766.5246,2.0,766.5249,,,,769.4723,769.9712,768.9599,769.4722,767.5401,26.0,768.9598,769.9713,770.4712,770.4713,771.7414,1183.4,771.7417,2.0,772.737,2.0,9.0,69.0,13.0,1.0,1.4,0.3,Time
,,S33,1,Female,25,anonymized,Serial_Dependence_U,2023.2.3,Win32,60.24096386,,,,,,,,,,,,772.738,2.0,772.7387,,,,775.2696,775.7688,774.7533,775.2694,773.7406,220.0,774.753,775.7689,776.2687,776.2689,777.7849,1190.8,777.7856,4.0,778.7846,2.0,10.0,70.0,11.0,1.0,1.0,0.3,Time
,,S33,1,Female,25,anonymized,Serial_Dependence_U,2023.2.3,Win32,60.24096386,,,,,,,,,,,,778.7857,2.0,778.786,,,,781.3333,781.8326,780.8174,781.3332,779.8005,227.0,780.8171,781.8326,782.3324,782.3324,783.399,1039.3,783.3993,3.0,784.3982,2.0,11.0,71.0,26.0,1.0,1.0,0.7,Time
,,S33,1,Female,25,anonymized,Serial_Dependence_U,2023.2.3,Win32,60.24096386,,,,,,,,,,,,784.3991,2.0,784.3994,,,,787.548,788.047,787.0308,787.5479,785.4157,143.0,787.0307,788.0471,788.5469,788.547,792.7823,1342.3,792.7824,2.0,793.7768,2.0,12.0,72.0,4.0,1.0,1.6,0.3,Time
,,S33,1,Female,25,anonymized,Serial_Dependence_U,2023.2.3,Win32,60.24096386,,,,,,,,,,,,793.7781,2.0,793.7785,,,,796.1267,796.6263,795.6109,796.1265,794.7943,161.0,795.6108,796.6264,797.126,797.1261,798.2421,738.1,798.2428,2.0,799.2419,2.0,13.0,73.0,15.0,1.0,0.8,0.7,Time
,,S33,1,Female,25,anonymized,Serial_Dependence_U,2023.2.3,Win32,60.24096386,,,,,,,,,,,,799.243,2.0,799.2435,,,,801.9907,802.4899,801.4747,801.9907,800.2615,350.0,801.4742,802.49,802.9895,802.9897,804.123,1098.8,804.1233,2.0,805.1221,2.0,14.0,74.0,12.0,1.0,1.2,0.3,Time
,,S33,1,Female,25,anonymized,Serial_Dependence_U,2023.2.3,Win32,60.24096386,,,,,,,,,,,,805.1229,2.0,805.1233,,,,807.4548,807.9542,806.9425,807.4547,806.1395,125.0,806.9423,807.9544,808.4539,808.454,809.5901,641.6999999,809.5902,2.0,810.5859,2.0,15.0,75.0,5.0,1.0,0.8,0.7,Time
,,S33,1,Female,25,anonymized,Serial_Dependence_U,2023.2.3,Win32,60.24096386,,,,,,,,,,,,810.5868,2.0,810.587,,,,813.5367,814.035,813.0189,813.5365,811.6039,276.0,813.0186,814.0351,814.5349,814.535,816.2842,1149.7,816.2845,2.0,817.2831,2.0,16.0,76.0,18.0,1.0,1.4,0.7,Time
,,S33,1,Female,25,anonymized,Serial_Dependence_U,2023.2.3,Win32,60.24096386,,,,,,,,,,,,817.284,2.0,817.2847,,,,820.4332,820.932,819.9162,820.433,818.3009,147.0,819.916,820.932,821.4319,821.432,822.3813,914.3000001,822.3815,1.0,823.3803,2.0,17.0,77.0,24.0,1.0,1.6,0.3,Time
,,S33,1,Female,25,anonymized,Serial_Dependence_U,2023.2.3,Win32,60.24096386,,,,,,,,,,,,823.3811,2.0,823.3816,,,,825.7305,826.2294,825.2136,825.7303,824.3978,18.0,825.2136,826.2295,826.7293,826.7295,828.5452,1365.3,828.5454,5.0,829.5443,2.0,18.0,78.0,25.0,1.0,0.8,0.7,Time
,,S33,1,Female,25,anonymized,Serial_Dependence_U,2023.2.3,Win32,60.24096386,,,,,,,,,,,,829.5453,2.0,829.5458,,,,832.4942,832.9927,831.9776,832.4939,830.5616,29.0,831.9774,832.9928,833.4929,833.493,833.5337,16.4000001,833.5342,1.0,834.5258,2.0,19.0,79.0,23.0,1.0,1.4,0.3,Time
,,S33,1,Female,25,anonymized,Serial_Dependence_U,2023.2.3,Win32,60.24096386,,,,,,,,,,,,834.527,2.0,834.5276,,,,837.2748,837.7741,836.7591,837.2747,835.5425,350.0,836.759,837.7741,838.2738,838.2739,839.576,986.5999999,839.5763,2.0,840.5727,2.0,20.0,80.0,7.0,1.0,1.2,0.7,Time
,,S33,1,Female,25,anonymized,Serial_Dependence_U,2023.2.3,Win32,60.24096386,,,,,,,,,,,,840.5737,2.0,840.5742,,,,843.1227,843.6216,842.6049,843.1223,841.59,98.0,842.6047,843.6217,844.1211,844.1212,845.4069,986.6,845.4071,3.0,846.4035,2.0,21.0,81.0,6.0,1.0,1.0,0.7,Time
,,S33,1,Female,25,anonymized,Serial_Dependence_U,2023.2.3,Win32,60.24096386,,,,,,,,,,,,846.4045,2.0,846.4051,,,,848.9536,849.4524,848.4365,848.9534,847.421,233.0,848.4363,849.4524,849.952,849.952,851.3887,1071.9,851.3891,4.0,852.3845,2.0,22.0,82.0,1.0,1.0,1.0,0.3,Time
,,S33,1,Female,25,anonymized,Serial_Dependence_U,2023.2.3,Win32,60.24096386,,,,,,,,,,,,852.3858,2.0,852.3863,,,,855.1334,855.6328,854.6176,855.1333,853.4006,17.0,854.6175,855.6328,856.1321,856.1322,858.2987,1681.5,858.299,5.0,859.2975,2.0,23.0,83.0,27.0,1.0,1.2,0.7,Time
,,S33,1,Female,25,anonymized,Serial_Dependence_U,2023.2.3,Win32,60.24096386,,,,,,,,,,,,859.2984,2.0,859.2988,,,,862.2474,862.7463,861.73,862.2473,860.315,211.0,861.7296,862.7464,863.2463,863.2464,864.7613,1187.7,864.7618,2.0,865.761,2.0,24.0,84.0,3.0,1.0,1.4,0.3,Time
,,S33,1,Female,25,anonymized,Serial_Dependence_U,2023.2.3,Win32,60.24096386,,,,,,,,,,,,865.7621,2.0,865.7626,,,,868.5111,869.0105,867.994,868.5108,866.778,80.0,867.9937,869.0105,869.5099,869.5101,870.7959,979.1,870.796,2.0,871.7918,2.0,25.0,85.0,17.0,1.0,1.2,0.7,Time
,,S33,1,Female,25,anonymized,Serial_Dependence_U,2023.2.3,Win32,60.24096386,,,,,,,,,,,,871.7928,2.0,871.7934,,,,874.5404,875.0402,874.0244,874.5404,872.8088,72.0,874.0242,875.0403,875.5393,875.5394,876.906,1237.0,876.9063,3.0,877.9057,2.0,26.0,86.0,2.0,1.0,1.2,0.3,Time
,,S33,1,Female,25,anonymized,Serial_Dependence_U,2023.2.3,Win32,60.24096386,,,,,,,,,,,,877.9066,2.0,877.907,,,,880.8556,881.3544,880.3387,880.8555,878.9233,90.0,880.3385,881.3545,881.8542,881.8543,883.72,1474.1,883.7207,4.0,884.7199,2.0,27.0,87.0,8.0,1.0,1.4,0.7,Time
,,S33,1,Female,25,anonymized,Serial_Dependence_U,2023.2.3,Win32,60.24096386,,,,,,,,,,,,884.721,2.0,884.7217,,,,887.0675,887.5681,886.5522,887.0674,885.7359,319.0,886.552,887.5682,888.0679,888.068,890.8331,1779.5,890.8335,5.0,891.8317,2.0,28.0,88.0,0.0,1.0,0.8,0.3,Time
,,S33,1,Female,25,anonymized,Serial_Dependence_U,2023.2.3,Win32,60.24096386,,,,,,,,,,,,891.8321,2.0,891.8324,,,,894.1819,894.6818,893.6655,894.1818,892.8509,232.0,893.6653,894.6818,895.1808,895.1809,896.8968,1264.6,896.8971,5.0,897.8969,2.0,29.0,89.0,20.0,1.0,0.8,0.3,Time
,,S33,1,Female,25,anonymized,Serial_Dependence_U,2023.2.3,Win32,60.24096386,,,,,,,,,,,,897.8979,3.0,900.0961,s,2.1789,,902.6447,903.1437,902.1288,902.6446,901.112,113.0,902.1285,903.1438,903.6439,903.644,904.9598,1014.1,904.9602,3.0,905.9593,3.0,0.0,90.0,26.0,1.0,1.0,0.7,Time
,,S33,1,Female,25,anonymized,Serial_Dependence_U,2023.2.3,Win32,60.24096386,,,,,,,,,,,,905.9602,3.0,905.9635,,,,908.7092,909.2084,908.1923,908.709,906.976,187.0,908.1922,909.2084,909.7081,909.7082,910.8571,783.2,910.8573,1.0,911.8563,3.0,1.0,91.0,7.0,1.0,1.2,0.7,Time
,,S33,1,Female,25,anonymized,Serial_Dependence_U,2023.2.3,Win32,60.24096386,,,,,,,,,,,,911.8569,3.0,911.8571,,,,914.8067,915.3048,914.2888,914.8063,912.8733,259.0,914.2887,915.3048,915.8056,915.8057,916.7039,858.0999999,916.7041,1.0,917.7045,3.0,2.0,92.0,13.0,1.0,1.4,0.3,Time
,,S33,1,Female,25,anonymized,Serial_Dependence_U,2023.2.3,Win32,60.24096386,,,,,,,,,,,,917.7054,3.0,917.7063,,,,920.0532,920.5531,919.5371,920.0531,918.7205,328.0,919.537,920.5531,921.0531,921.0531,922.4021,1001.5,922.4025,4.0,923.402,3.0,3.0,93.0,20.0,1.0,0.8,0.3,Time
,,S33,1,Female,25,anonymized,Serial_Dependence_U,2023.2.3,Win32,60.24096386,,,,,,,,,,,,923.4031,3.0,923.4036,,,,925.9517,926.4504,925.4351,925.9514,924.4195,295.0,925.4349,926.4504,926.9507,926.9509,928.4205,1061.4,928.4207,4.0,929.4161,3.0,4.0,94.0,11.0,1.0,1.0,0.3,Time
,,S33,1,Female,25,anonymized,Serial_Dependence_U,2023.2.3,Win32,60.24096386,,,,,,,,,,,,929.4173,3.0,929.4177,,,,932.1653,932.6642,931.6492,932.1652,930.4323,286.0,931.6491,932.6642,933.1639,933.164,934.4638,896.3,934.464,2.0,935.463,3.0,5.0,95.0,22.0,1.0,1.2,0.3,Time
,,S33,1,Female,25,anonymized,Serial_Dependence_U,2023.2.3,Win32,60.24096386,,,,,,,,,,,,935.4641,3.0,935.4645,,,,938.3958,938.8945,937.8799,938.3956,936.4654,324.0,937.8797,938.8946,939.3946,939.3946,941.1313,1162.5,941.1315,2.0,942.1267,3.0,6.0,96.0,18.0,1.0,1.4,0.7,Time
,,S33,1,Female,25,anonymized,Serial_Dependence_U,2023.2.3,Win32,60.24096386,,,,,,,,,,,,942.1279,3.0,942.1286,,,,945.0785,945.5753,944.5594,945.0784,943.1442,273.0,944.5592,945.5754,946.0757,946.0759,947.1274,694.1,947.1277,1.0,948.1237,3.0,7.0,97.0,3.0,1.0,1.4,0.3,Time
,,S33,1,Female,25,anonymized,Serial_Dependence_U,2023.2.3,Win32,60.24096386,,,,,,,,,,,,948.1245,3.0,948.1248,,,,951.2733,951.7729,950.7567,951.273,949.1411,276.0,950.7565,951.773,952.2711,952.2712,953.4089,880.1,953.4092,1.0,954.4048,3.0,8.0,98.0,4.0,1.0,1.6,0.3,Time
,,S33,1,Female,25,anonymized,Serial_Dependence_U,2023.2.3,Win32,60.24096386,,,,,,,,,,,,954.4058,3.0,954.4062,,,,957.1542,957.6528,956.638,957.1541,955.4213,39.0,956.6379,957.6529,958.1525,958.1526,959.5526,1052.6,959.553,2.0,960.5517,3.0,9.0,99.0,12.0,1.0,1.2,0.3,Time
,,S33,1,Female,25,anonymized,Serial_Dependence_U,2023.2.3,Win32,60.24096386,,,,,,,,,,,,960.5527,3.0,960.5533,,,,962.8842,963.3837,962.3686,962.8842,961.5548,12.0,962.3685,963.3838,963.8827,963.8829,965.1999,971.0,965.2005,4.0,966.1993,3.0,10.0,100.0,10.0,1.0,0.8,0.3,Time
,,S33,1,Female,25,anonymized,Serial_Dependence_U,2023.2.3,Win32,60.24096386,,,,,,,,,,,,966.2004,3.0,966.2009,,,,968.7357,969.2312,968.2326,968.7355,967.2156,132.0,968.2323,969.2313,969.7307,969.7309,971.0307,1118.4,971.0311,4.0,972.0301,3.0,11.0,101.0,6.0,1.0,1.0,0.7,Time
,,S33,1,Female,25,anonymized,Serial_Dependence_U,2023.2.3,Win32,60.24096386,,,,,,,,,,,,972.0315,3.0,972.0322,,,,974.3792,974.8779,973.8631,974.3791,973.0466,298.0,973.8628,974.8779,975.3781,975.3782,977.211,1431.7,977.2113,5.0,978.2099,3.0,12.0,102.0,0.0,1.0,0.8,0.3,Time
,,S33,1,Female,25,anonymized,Serial_Dependence_U,2023.2.3,Win32,60.24096386,,,,,,,,,,,,978.2108,3.0,978.2112,,,,980.7601,981.259,980.2434,980.7599,979.2276,345.0,980.2433,981.2591,981.7587,981.7589,983.8763,1592.5,983.8764,5.0,984.8739,3.0,13.0,103.0,21.0,1.0,1.0,0.3,Time
,,S33,1,Female,25,anonymized,Serial_Dependence_U,2023.2.3,Win32,60.24096386,,,,,,,,,,,,984.8748,3.0,984.8753,,,,987.8238,988.3229,987.3064,987.8236,985.8911,75.0,987.3063,988.323,988.822,988.8221,990.2224,1184.1,990.2227,2.0,991.2212,3.0,14.0,104.0,28.0,1.0,1.4,0.7,Time
,,S33,1,Female,25,anonymized,Serial_Dependence_U,2023.2.3,Win32,60.24096386,,,,,,,,,,,,991.2222,3.0,991.2226,,,,993.5704,994.0696,993.0545,993.5703,992.2379,333.0,993.0543,994.0697,994.5694,994.5695,996.7048,1669.7,996.705,5.0,997.7005,3.0,15.0,105.0,5.0,1.0,0.8,0.7,Time
,,S33,1,Female,25,anonymized,Serial_Dependence_U,2023.2.3,Win32,60.24096386,,,,,,,,,,,,997.7018,3.0,997.7022,,,,1000.8509,1001.3497,1000.3342,1000.8508,998.719,214.0,1000.3341,1001.3498,1001.8498,1001.8499,1003.7494,1388.2,1003.7497,2.0,1004.748,3.0,16.0,106.0,29.0,1.0,1.6,0.7,Time
,,S33,1,Female,25,anonymized,Serial_Dependence_U,2023.2.3,Win32,60.24096386,,,,,,,,,,,,1004.7492,3.0,1004.7494,,,,1007.881,1008.3802,1007.3641,1007.8808,1005.7515,63.0,1007.3638,1008.3802,1008.8799,1008.88,1010.165,1027.5,1010.1653,1.0,1011.1618,3.0,17.0,107.0,24.0,1.0,1.6,0.3,Time
,,S33,1,Female,25,anonymized,Serial_Dependence_U,2023.2.3,Win32,60.24096386,,,,,,,,,,,,1011.1626,3.0,1011.163,,,,1013.6948,1014.1938,1013.1789,1013.6947,1012.165,248.0,1013.1788,1014.1939,1014.6936,1014.6937,1016.2632,1238.8,1016.2634,4.0,1017.2589,3.0,18.0,108.0,1.0,1.0,1.0,0.3,Time
,,S33,1,Female,25,anonymized,Serial_Dependence_U,2023.2.3,Win32,60.24096386,,,,,,,,,,,,1017.2599,3.0,1017.2602,,,,1020.0096,1020.5079,1019.4921,1020.0093,1018.2787,11.0,1019.4919,1020.508,1021.008,1021.0081,1022.4277,1188.0,1022.4279,3.0,1023.4232,3.0,19.0,109.0,2.0,1.0,1.2,0.3,Time
,,S33,1,Female,25,anonymized,Serial_Dependence_U,2023.2.3,Win32,60.24096386,,,,,,,,,,,,1023.4245,3.0,1023.4254,,,,1025.7564,1026.2549,1025.2406,1025.7562,1024.4265,100.0,1025.2403,1026.255,1026.7553,1026.7554,1028.2715,1207.5,1028.272,5.0,1029.2703,3.0,20.0,110.0,15.0,1.0,0.8,0.7,Time
,,S33,1,Female,25,anonymized,Serial_Dependence_U,2023.2.3,Win32,60.24096386,,,,,,,,,,,,1029.2714,3.0,1029.2717,,,,1032.4195,1032.9187,1031.9039,1032.4194,1030.287,235.0,1031.9038,1032.9189,1033.4184,1033.4186,1034.807,1237.1,1034.8073,2.0,1035.8009,3.0,21.0,111.0,9.0,1.0,1.6,0.7,Time
,,S33,1,Female,25,anonymized,Serial_Dependence_U,2023.2.3,Win32,60.24096386,,,,,,,,,,,,1035.8022,3.0,1035.8026,,,,1038.55,1039.0488,1038.0339,1038.5498,1036.8175,205.0,1038.0335,1039.0488,1039.5488,1039.5489,1041.1358,1128.1,1041.136,2.0,1042.1313,3.0,22.0,112.0,27.0,1.0,1.2,0.7,Time
,,S33,1,Female,25,anonymized,Serial_Dependence_U,2023.2.3,Win32,60.24096386,,,,,,,,,,,,1042.133,3.0,1042.1333,,,,1044.4802,1044.9796,1043.9673,1044.48,1043.1508,119.0,1043.9671,1044.9796,1045.4797,1045.4798,1046.7836,1159.4,1046.7839,5.0,1047.7785,3.0,23.0,113.0,25.0,1.0,0.8,0.7,Time
,,S33,1,Female,25,anonymized,Serial_Dependence_U,2023.2.3,Win32,60.24096386,,,,,,,,,,,,1047.7794,3.0,1047.7798,,,,1050.3287,1050.827,1049.8114,1050.3285,1048.7962,202.0,1049.8111,1050.827,1051.3267,1051.3268,1053.5599,1890.2,1053.5603,5.0,1054.5591,3.0,24.0,114.0,16.0,1.0,1.0,0.7,Time
,,S33,1,Female,25,anonymized,Serial_Dependence_U,2023.2.3,Win32,60.24096386,,,,,,,,,,,,1054.5601,3.0,1054.5603,,,,1057.7082,1058.2065,1057.1922,1057.7081,1055.5758,12.0,1057.1921,1058.2066,1058.707,1058.7071,1059.9067,1150.7,1059.907,2.0,1060.9057,3.0,25.0,115.0,14.0,1.0,1.6,0.3,Time
,,S33,1,Female,25,anonymized,Serial_Dependence_U,2023.2.3,Win32,60.24096386,,,,,,,,,,,,1060.9064,3.0,1060.9067,,,,1063.656,1064.1548,1063.139,1063.6558,1061.9235,19.0,1063.1389,1064.1549,1064.6546,1064.6547,1066.6586,1732.7,1066.6588,5.0,1067.6532,3.0,26.0,116.0,17.0,1.0,1.2,0.7,Time
,,S33,1,Female,25,anonymized,Serial_Dependence_U,2023.2.3,Win32,60.24096386,,,,,,,,,,,,1067.6544,3.0,1067.6547,,,,1070.6022,1071.1009,1070.09,1070.6021,1068.67,8.0,1070.0898,1071.1009,1071.6013,1071.6014,1073.304,1579.1,1073.3042,4.0,1074.2995,3.0,27.0,117.0,8.0,1.0,1.4,0.7,Time
,,S33,1,Female,25,anonymized,Serial_Dependence_U,2023.2.3,Win32,60.24096386,,,,,,,,,,,,1074.3004,3.0,1074.3008,,,,1077.4498,1077.9481,1076.9326,1077.4497,1075.3173,53.0,1076.9324,1077.9482,1078.4485,1078.4486,1080.1477,1674.2,1080.1484,3.0,1081.1471,3.0,28.0,118.0,19.0,1.0,1.6,0.7,Time
,,S33,1,Female,25,anonymized,Serial_Dependence_U,2023.2.3,Win32,60.24096386,,,,,,,,,,,,1081.1481,3.0,1081.1485,,,,1084.0962,1084.5951,1083.5804,1084.0961,1082.1636,188.0,1083.5802,1084.5952,1085.0949,1085.095,1086.3949,1145.8,1086.3952,2.0,1087.3938,3.0,29.0,119.0,23.0,1.0,1.4,0.3,Time
,,S33,1,Female,25,anonymized,Serial_Dependence_U,2023.2.3,Win32,60.24096386,,,,,,,,,,,,1087.3948,4.0,1090.2764,s,2.8488,,1092.6256,1093.1242,1092.1098,1092.6254,1091.2927,277.0,1092.1096,1093.1244,1093.6246,1093.6246,1094.8933,1246.7,1094.8935,5.0,1095.8901,4.0,0.0,120.0,15.0,1.0,0.8,0.7,Time
,,S33,1,Female,25,anonymized,Serial_Dependence_U,2023.2.3,Win32,60.24096386,,,,,,,,,,,,1095.8915,4.0,1095.8958,,,,1098.4401,1098.9395,1097.9231,1098.44,1096.9071,29.0,1097.9229,1098.9396,1099.4385,1099.4387,1100.609,1100.5,1100.6092,4.0,1101.6049,4.0,1.0,121.0,11.0,1.0,1.0,0.3,Time
,,S33,1,Female,25,anonymized,Serial_Dependence_U,2023.2.3,Win32,60.24096386,,,,,,,,,,,,1101.6062,4.0,1101.6068,,,,1104.1535,1104.6523,1103.6378,1104.1532,1102.6211,345.0,1103.6377,1104.6523,1105.1524,1105.1525,1106.036,839.2,1106.0365,2.0,1107.035,4.0,2.0,122.0,1.0,1.0,1.0,0.3,Time
,,S33,1,Female,25,anonymized,Serial_Dependence_U,2023.2.3,Win32,60.24096386,,,,,,,,,,,,1107.0361,4.0,1107.0363,,,,1109.9843,1110.4837,1109.4685,1109.9842,1108.0519,10.0,1109.4682,1110.4837,1110.9832,1110.9833,1112.6334,1305.0,1112.6338,2.0,1113.6325,4.0,3.0,123.0,8.0,1.0,1.4,0.7,Time
,,S33,1,Female,25,anonymized,Serial_Dependence_U,2023.2.3,Win32,60.24096386,,,,,,,,,,,,1113.6338,4.0,1113.6345,,,,1116.1814,1116.6808,1115.6657,1116.1812,1114.6485,59.0,1115.6657,1116.6808,1117.1806,1117.1808,1118.2644,1031.0,1118.2647,3.0,1119.2632,4.0,4.0,124.0,26.0,1.0,1.0,0.7,Time
,,S33,1,Female,25,anonymized,Serial_Dependence_U,2023.2.3,Win32,60.24096386,,,,,,,,,,,,1119.2644,4.0,1119.2649,,,,1122.4121,1122.9104,1121.8962,1122.412,1120.2799,252.0,1121.896,1122.9105,1123.4106,1123.4107,1124.866,1196.7,1124.8663,2.0,1125.8595,4.0,5.0,125.0,24.0,1.0,1.6,0.3,Time
,,S33,1,Female,25,anonymized,Serial_Dependence_U,2023.2.3,Win32,60.24096386,,,,,,,,,,,,1125.8605,4.0,1125.8608,,,,1128.5942,1129.0907,1128.076,1128.594,1126.8643,18.0,1128.0759,1129.0908,1129.5906,1129.5909,1131.5576,1583.7,1131.5584,5.0,1132.5566,4.0,6.0,126.0,22.0,1.0,1.2,0.3,Time
,,S33,1,Female,25,anonymized,Serial_Dependence_U,2023.2.3,Win32,60.24096386,,,,,,,,,,,,1132.5576,4.0,1132.5582,,,,1134.8774,1135.3726,1134.3757,1134.8772,1133.574,136.0,1134.3756,1135.3727,1135.8723,1135.8724,1137.3882,1073.5,1137.3886,5.0,1138.3878,4.0,7.0,127.0,10.0,1.0,0.8,0.3,Time
,,S33,1,Female,25,anonymized,Serial_Dependence_U,2023.2.3,Win32,60.24096386,,,,,,,,,,,,1138.3887,4.0,1138.3892,,,,1140.9375,1141.4365,1140.4204,1140.9374,1139.4088,224.0,1140.4203,1141.4366,1141.9362,1141.9363,1143.5214,1524.7,1143.5216,5.0,1144.5181,4.0,8.0,128.0,16.0,1.0,1.0,0.7,Time
,,S33,1,Female,25,anonymized,Serial_Dependence_U,2023.2.3,Win32,60.24096386,,,,,,,,,,,,1144.5191,4.0,1144.5196,,,,1147.6676,1148.1667,1147.1507,1147.6673,1145.5384,12.0,1147.1505,1148.1668,1148.6661,1148.6662,1149.5532,865.1999999,1149.5535,1.0,1150.5487,4.0,9.0,129.0,29.0,1.0,1.6,0.7,Time
,,S33,1,Female,25,anonymized,Serial_Dependence_U,2023.2.3,Win32,60.24096386,,,,,,,,,,,,1150.5495,4.0,1150.55,,,,1153.4985,1153.9972,1152.9816,1153.4983,1151.5686,70.0,1152.9814,1153.9973,1154.4974,1154.4976,1156.163,1297.3,1156.1638,2.0,1157.1626,4.0,10.0,130.0,3.0,1.0,1.4,0.3,Time
,,S33,1,Female,25,anonymized,Serial_Dependence_U,2023.2.3,Win32,60.24096386,,,,,,,,,,,,1157.1637,4.0,1157.1641,,,,1160.3114,1160.8103,1159.7952,1160.3113,1158.1792,84.0,1159.795,1160.8104,1161.3098,1161.3098,1162.4268,813.6,1162.4275,1.0,1163.4263,4.0,11.0,131.0,9.0,1.0,1.6,0.7,Time
,,S33,1,Female,25,anonymized,Serial_Dependence_U,2023.2.3,Win32,60.24096386,,,,,,,,,,,,1163.4276,4.0,1163.428,,,,1166.375,1166.8747,1165.8587,1166.375,1164.4428,123.0,1165.8585,1166.8748,1167.3737,1167.3737,1168.507,862.4,1168.5075,1.0,1169.507,4.0,12.0,132.0,18.0,1.0,1.4,0.7,Time
,,S33,1,Female,25,anonymized,Serial_Dependence_U,2023.2.3,Win32,60.24096386,,,,,,,,,,,,1169.5082,4.0,1169.5089,,,,1171.8569,1172.3553,1171.3394,1171.8565,1170.523,335.0,1171.3393,1172.3554,1172.8546,1172.8548,1173.8881,994.6,1173.889,4.0,1174.8869,4.0,13.0,133.0,5.0,1.0,0.8,0.7,Time
,,S33,1,Female,25,anonymized,Serial_Dependence_U,2023.2.3,Win32,60.24096386,,,,,,,,,,,,1174.8875,4.0,1174.8881,,,,1178.0364,1178.5358,1177.5198,1178.0363,1175.9038,282.0,1177.5196,1178.5358,1179.0354,1179.0354,1180.0018,937.9000001,1180.0023,1.0,1181.0014,4.0,14.0,134.0,19.0,1.0,1.6,0.7,Time
,,S33,1,Female,25,anonymized,Serial_Dependence_U,2023.2.3,Win32,60.24096386,,,,,,,,,,,,1181.0027,4.0,1181.0031,,,,1183.9501,1184.4498,1183.4337,1183.9499,1182.0184,159.0,1183.4336,1184.45,1184.9496,1184.9496,1186.1157,896.5,1186.116,1.0,1187.1147,4.0,15.0,135.0,13.0,1.0,1.4,0.3,Time
,,S33,1,Female,25,anonymized,Serial_Dependence_U,2023.2.3,Win32,60.24096386,,,,,,,,,,,,1187.1152,4.0,1187.1154,,,,1190.0639,1190.5638,1189.5487,1190.0638,1188.1317,276.0,1189.5483,1190.5638,1191.0634,1191.0635,1192.7458,1315.8,1192.7461,2.0,1193.7454,4.0,16.0,136.0,28.0,1.0,1.4,0.7,Time
,,S33,1,Female,25,anonymized,Serial_Dependence_U,2023.2.3,Win32,60.24096386,,,,,,,,,,,,1193.7465,4.0,1193.7473,,,,1196.2948,1196.7941,1195.7795,1196.2948,1194.7623,111.0,1195.7788,1196.7941,1197.2942,1197.2944,1198.8596,1162.3,1198.8599,4.0,1199.8595,4.0,17.0,137.0,6.0,1.0,1.0,0.7,Time
,,S33,1,Female,25,anonymized,Serial_Dependence_U,2023.2.3,Win32,60.24096386,,,,,,,,,,,,1199.8603,4.0,1199.8607,,,,1203.0083,1203.5077,1202.4915,1203.0079,1200.876,21.0,1202.4914,1203.5077,1204.0076,1204.0076,1205.6899,1296.4,1205.6901,2.0,1206.6893,4.0,18.0,138.0,14.0,1.0,1.6,0.3,Time
,,S33,1,Female,25,anonymized,Serial_Dependence_U,2023.2.3,Win32,60.24096386,,,,,,,,,,,,1206.6902,4.0,1206.6907,,,,1209.4384,1209.9384,1208.9222,1209.4383,1207.7062,110.0,1208.922,1209.9384,1210.4371,1210.4371,1212.1703,1553.3,1212.1705,4.0,1213.1697,4.0,19.0,139.0,27.0,1.0,1.2,0.7,Time
,,S33,1,Female,25,anonymized,Serial_Dependence_U,2023.2.3,Win32,60.24096386,,,,,,,,,,,,1213.1705,4.0,1213.1711,,,,1215.7187,1216.2181,1215.2028,1215.7186,1214.1864,169.0,1215.2028,1216.2181,1216.7184,1216.7186,1218.2677,1414.7,1218.2679,5.0,1219.2678,4.0,20.0,140.0,21.0,1.0,1.0,0.3,Time
,,S33,1,Female,25,anonymized,Serial_Dependence_U,2023.2.3,Win32,60.24096386,,,,,,,,,,,,1219.2689,4.0,1219.2699,,,,1221.6163,1222.1149,1221.0998,1221.6163,1220.284,54.0,1221.0997,1222.115,1222.6161,1222.6161,1224.3987,1367.6,1224.3989,5.0,1225.3975,4.0,21.0,141.0,0.0,1.0,0.8,0.3,Time
,,S33,1,Female,25,anonymized,Serial_Dependence_U,2023.2.3,Win32,60.24096386,,,,,,,,,,,,1225.3982,4.0,1225.3989,,,,1227.747,1228.2464,1227.2305,1227.7469,1226.4143,171.0,1227.2304,1228.2465,1228.7466,1228.7466,1230.6289,1619.6,1230.6293,5.0,1231.6283,4.0,22.0,142.0,20.0,1.0,0.8,0.3,Time
,,S33,1,Female,25,anonymized,Serial_Dependence_U,2023.2.3,Win32,60.24096386,,,,,,,,,,,,1231.6294,4.0,1231.6304,,,,1234.3781,1234.877,1233.8612,1234.3778,1232.6447,179.0,1233.8608,1234.877,1235.3769,1235.377,1237.3924,1513.6,1237.3926,4.0,1238.3919,4.0,23.0,143.0,17.0,1.0,1.2,0.7,Time
,,S33,1,Female,25,anonymized,Serial_Dependence_U,2023.2.3,Win32,60.24096386,,,,,,,,,,,,1238.3943,4.0,1238.3953,,,,1240.7407,1241.2407,1240.2247,1240.7405,1239.4084,115.0,1240.2245,1241.2407,1241.7397,1241.7398,1243.1226,1081.0,1243.1229,5.0,1244.1226,4.0,24.0,144.0,25.0,1.0,0.8,0.7,Time
,,S33,1,Female,25,anonymized,Serial_Dependence_U,2023.2.3,Win32,60.24096386,,,,,,,,,,,,1244.1233,4.0,1244.1238,,,,1247.0714,1247.5712,1246.5553,1247.0713,1245.1399,339.0,1246.5552,1247.5713,1248.0711,1248.0711,1250.0866,1829.1,1250.0869,5.0,1251.0854,4.0,25.0,145.0,23.0,1.0,1.4,0.3,Time
,,S33,1,Female,25,anonymized,Serial_Dependence_U,2023.2.3,Win32,60.24096386,,,,,,,,,,,,1251.0861,4.0,1251.0867,,,,1254.235,1254.7349,1253.7188,1254.2349,1252.1027,151.0,1253.7186,1254.7349,1255.2346,1255.2346,1256.8503,1482.2,1256.8505,2.0,1257.8495,4.0,26.0,146.0,4.0,1.0,1.6,0.3,Time
,,S33,1,Female,25,anonymized,Serial_Dependence_U,2023.2.3,Win32,60.24096386,,,,,,,,,,,,1257.8502,4.0,1257.8506,,,,1260.5992,1261.098,1260.0854,1260.5991,1258.8661,332.0,1260.0852,1261.098,1261.5985,1261.5985,1263.5467,1408.0,1263.547,4.0,1264.547,4.0,27.0,147.0,7.0,1.0,1.2,0.7,Time
,,S33,1,Female,25,anonymized,Serial_Dependence_U,2023.2.3,Win32,60.24096386,,,,,,,,,,,,1264.5481,4.0,1264.5487,,,,1267.2954,1267.7945,1266.7796,1267.2953,1265.5626,243.0,1266.7794,1267.7945,1268.2955,1268.2956,1269.3447,1028.0,1269.3451,2.0,1270.3436,4.0,28.0,148.0,2.0,1.0,1.2,0.3,Time
,,S33,1,Female,25,anonymized,Serial_Dependence_U,2023.2.3,Win32,60.24096386,,,,,,,,,,,,1270.3442,4.0,1270.3444,,,,1273.0933,1273.5928,1272.5765,1273.0932,1271.3602,233.0,1272.5764,1273.5928,1274.0921,1274.0922,1275.5251,1078.1,1275.5253,2.0,1276.5248,4.0,29.0,149.0,12.0,1.0,1.2,0.3,Time
,,S33,1,Female,25,anonymized,Serial_Dependence_U,2023.2.3,Win32,60.24096386,,,,,,,,,,,,1276.5267,5.0,1279.2906,s,2.7365,,1281.8385,1282.3382,1281.3224,1281.8384,1280.3059,349.0,1281.3222,1282.3383,1282.8379,1282.8379,1283.8544,971.3,1283.8546,3.0,1284.8544,5.0,0.0,150.0,1.0,1.0,1.0,0.3,Time
,,S33,1,Female,25,anonymized,Serial_Dependence_U,2023.2.3,Win32,60.24096386,,,,,,,,,,,,1284.8555,5.0,1284.86,,,,1287.5864,1288.0856,1287.0695,1287.5864,1285.8543,29.0,1287.0694,1288.0856,1288.5858,1288.5859,1289.8851,1046.0,1289.8853,2.0,1290.8844,5.0,1.0,151.0,22.0,1.0,1.2,0.3,Time
,,S33,1,Female,25,anonymized,Serial_Dependence_U,2023.2.3,Win32,60.24096386,,,,,,,,,,,,1290.8851,5.0,1290.8855,,,,1293.2341,1293.7337,1292.7177,1293.234,1291.9013,278.0,1292.7174,1293.7339,1294.2336,1294.2337,1295.5823,1216.1,1295.5825,5.0,1296.5826,5.0,2.0,152.0,0.0,1.0,0.8,0.3,Time
,,S33,1,Female,25,anonymized,Serial_Dependence_U,2023.2.3,Win32,60.24096386,,,,,,,,,,,,1296.5836,5.0,1296.584,,,,1298.9319,1299.4309,1298.4161,1298.9317,1297.5989,256.0,1298.4159,1299.4309,1299.9305,1299.9307,1300.8641,900.9,1300.8644,4.0,1301.8629,5.0,3.0,153.0,5.0,1.0,0.8,0.7,Time
,,S33,1,Female,25,anonymized,Serial_Dependence_U,2023.2.3,Win32,60.24096386,,,,,,,,,,,,1301.8638,5.0,1301.8643,,,,1304.8131,1305.3119,1304.2962,1304.813,1302.8806,280.0,1304.2961,1305.312,1305.8117,1305.8117,1306.8281,703.4000001,1306.8283,1.0,1307.827,5.0,4.0,154.0,8.0,1.0,1.4,0.7,Time
,,S33,1,Female,25,anonymized,Serial_Dependence_U,2023.2.3,Win32,60.24096386,,,,,,,,,,,,1307.8278,5.0,1307.8282,,,,1310.7769,1311.276,1310.2598,1310.7769,1308.8446,92.0,1310.2596,1311.276,1311.7759,1311.776,1313.4917,1259.9,1313.492,2.0,1314.4907,5.0,5.0,155.0,18.0,1.0,1.4,0.7,Time
,,S33,1,Female,25,anonymized,Serial_Dependence_U,2023.2.3,Win32,60.24096386,,,,,,,,,,,,1314.4917,5.0,1314.492,,,,1317.6406,1318.1395,1317.1235,1317.6405,1315.5083,33.0,1317.1234,1318.1397,1318.6391,1318.6393,1320.6096,1564.5,1320.6099,3.0,1321.6047,5.0,6.0,156.0,24.0,1.0,1.6,0.3,Time
,,S33,1,Female,25,anonymized,Serial_Dependence_U,2023.2.3,Win32,60.24096386,,,,,,,,,,,,1321.6059,5.0,1321.6063,,,,1324.3533,1324.8526,1323.8377,1324.3532,1322.6212,109.0,1323.8377,1324.8526,1325.3525,1325.3526,1326.8522,1352.1,1326.8525,4.0,1327.8515,5.0,7.0,157.0,12.0,1.0,1.2,0.3,Time
,,S33,1,Female,25,anonymized,Serial_Dependence_U,2023.2.3,Win32,60.24096386,,,,,,,,,,,,1327.8526,5.0,1327.853,,,,1330.8012,1331.3,1330.2844,1330.8011,1328.8688,34.0,1330.2843,1331.3,1331.7997,1331.7997,1334.5482,1553.7,1334.5487,4.0,1335.5474,5.0,8.0,158.0,13.0,1.0,1.4,0.3,Time
,,S33,1,Female,25,anonymized,Serial_Dependence_U,2023.2.3,Win32,60.24096386,,,,,,,,,,,,1335.5484,5.0,1335.5486,,,,1338.6976,1339.1968,1338.1807,1338.6975,1336.5666,132.0,1338.1805,1339.1969,1339.6966,1339.6967,1341.4186,1430.5,1341.419,2.0,1342.4115,5.0,9.0,159.0,14.0,1.0,1.6,0.3,Time
,,S33,1,Female,25,anonymized,Serial_Dependence_U,2023.2.3,Win32,60.24096386,,,,,,,,,,,,1342.4124,5.0,1342.4128,,,,1345.1613,1345.6602,1344.6443,1345.1612,1343.4288,44.0,1344.6441,1345.6602,1346.1595,1346.1596,1347.3935,1039.9,1347.3939,2.0,1348.3928,5.0,10.0,160.0,2.0,1.0,1.2,0.3,Time
,,S33,1,Female,25,anonymized,Serial_Dependence_U,2023.2.3,Win32,60.24096386,,,,,,,,,,,,1348.3939,5.0,1348.3945,,,,1351.3254,1351.8243,1350.8111,1351.3253,1349.4093,227.0,1350.8111,1351.8244,1352.3244,1352.3245,1354.7927,1495.7,1354.7929,4.0,1355.7892,5.0,11.0,161.0,23.0,1.0,1.4,0.3,Time
,,S33,1,Female,25,anonymized,Serial_Dependence_U,2023.2.3,Win32,60.24096386,,,,,,,,,,,,1355.7905,5.0,1355.791,,,,1358.938,1359.4372,1358.4221,1358.9379,1356.8053,184.0,1358.422,1359.4374,1359.9369,1359.937,1361.0199,791.8,1361.0206,1.0,1362.0196,5.0,12.0,162.0,19.0,1.0,1.6,0.7,Time
,,S33,1,Female,25,anonymized,Serial_Dependence_U,2023.2.3,Win32,60.24096386,,,,,,,,,,,,1362.0207,5.0,1362.0212,,,,1364.5693,1365.068,1364.0553,1364.569,1363.0399,210.0,1364.0552,1365.0681,1365.5681,1365.5683,1367.82,1694.1,1367.8203,5.0,1368.8155,5.0,13.0,163.0,21.0,1.0,1.0,0.3,Time
,,S33,1,Female,25,anonymized,Serial_Dependence_U,2023.2.3,Win32,60.24096386,,,,,,,,,,,,1368.8167,5.0,1368.8169,,,,1371.1494,1371.6479,1370.6365,1371.1492,1369.8337,57.0,1370.6364,1371.6479,1372.1477,1372.1477,1373.7309,1333.5,1373.7315,5.0,1374.7304,5.0,14.0,164.0,10.0,1.0,0.8,0.3,Time
,,S33,1,Female,25,anonymized,Serial_Dependence_U,2023.2.3,Win32,60.24096386,,,,,,,,,,,,1374.7315,5.0,1374.7319,,,,1377.8795,1378.3786,1377.3637,1377.8793,1375.7472,122.0,1377.3635,1378.3787,1378.8784,1378.8786,1380.4447,1336.6,1380.445,2.0,1381.4438,5.0,15.0,165.0,29.0,1.0,1.6,0.7,Time
,,S33,1,Female,25,anonymized,Serial_Dependence_U,2023.2.3,Win32,60.24096386,,,,,,,,,,,,1381.4448,5.0,1381.4452,,,,1383.7767,1384.2759,1383.2605,1383.7766,1382.4457,242.0,1383.2603,1384.276,1384.7756,1384.7757,1386.0755,1155.2,1386.0758,5.0,1387.0743,5.0,16.0,166.0,20.0,1.0,0.8,0.3,Time
,,S33,1,Female,25,anonymized,Serial_Dependence_U,2023.2.3,Win32,60.24096386,,,,,,,,,,,,1387.0752,5.0,1387.0755,,,,1389.4107,1389.9064,1388.9075,1389.4106,1388.0917,272.0,1388.9074,1389.9065,1390.4063,1390.4064,1391.9567,1186.3,1391.957,5.0,1392.9557,5.0,17.0,167.0,15.0,1.0,0.8,0.7,Time
,,S33,1,Female,25,anonymized,Serial_Dependence_U,2023.2.3,Win32,60.24096386,,,,,,,,,,,,1392.9569,5.0,1392.9573,,,,1395.7043,1396.2037,1395.1878,1395.7042,1393.9719,145.0,1395.1876,1396.2037,1396.7035,1396.7036,1398.1863,1435.2,1398.1867,4.0,1399.1859,5.0,18.0,168.0,17.0,1.0,1.2,0.7,Time
,,S33,1,Female,25,anonymized,Serial_Dependence_U,2023.2.3,Win32,60.24096386,,,,,,,,,,,,1399.1875,5.0,1399.1883,,,,1402.3344,1402.8334,1401.8194,1402.3343,1400.2025,99.0,1401.8188,1402.8334,1403.3342,1403.3342,1404.5497,889.5,1404.55,1.0,1405.5498,5.0,19.0,169.0,9.0,1.0,1.6,0.7,Time
,,S33,1,Female,25,anonymized,Serial_Dependence_U,2023.2.3,Win32,60.24096386,,,,,,,,,,,,1405.551,5.0,1405.5518,,,,1408.2981,1408.7978,1407.7819,1408.298,1406.5655,96.0,1407.7818,1408.7978,1409.2977,1409.2978,1410.8464,1036.2,1410.8466,2.0,1411.8465,5.0,20.0,170.0,27.0,1.0,1.2,0.7,Time
,,S33,1,Female,25,anonymized,Serial_Dependence_U,2023.2.3,Win32,60.24096386,,,,,,,,,,,,1411.8472,5.0,1411.8478,,,,1414.3957,1414.8956,1413.8792,1414.3956,1412.8629,31.0,1413.8787,1414.8956,1415.3952,1415.3953,1417.694,1162.5,1417.6942,4.0,1418.6928,5.0,21.0,171.0,11.0,1.0,1.0,0.3,Time
,,S33,1,Female,25,anonymized,Serial_Dependence_U,2023.2.3,Win32,60.24096386,,,,,,,,,,,,1418.6934,5.0,1418.6937,,,,1421.6423,1422.1422,1421.1265,1421.6421,1419.7101,70.0,1421.1261,1422.1423,1422.6408,1422.6409,1424.2743,1119.4,1424.2746,2.0,1425.2736,5.0,22.0,172.0,3.0,1.0,1.4,0.3,Time
,,S33,1,Female,25,anonymized,Serial_Dependence_U,2023.2.3,Win32,60.24096386,,,,,,,,,,,,1425.2743,5.0,1425.2749,,,,1428.2062,1428.7059,1427.6894,1428.2061,1426.2736,264.0,1427.6894,1428.706,1429.2049,1429.2051,1430.6714,1199.8,1430.6718,2.0,1431.6709,5.0,23.0,173.0,28.0,1.0,1.4,0.7,Time
,,S33,1,Female,25,anonymized,Serial_Dependence_U,2023.2.3,Win32,60.24096386,,,,,,,,,,,,1431.6718,5.0,1431.6724,,,,1434.021,1434.5195,1433.5036,1434.0208,1432.6875,292.0,1433.5035,1434.5195,1435.0191,1435.0192,1435.3692,184.3000001,1435.3695,1.0,1436.3687,5.0,24.0,174.0,25.0,1.0,0.8,0.7,Time
,,S33,1,Female,25,anonymized,Serial_Dependence_U,2023.2.3,Win32,60.24096386,,,,,,,,,,,,1436.3703,5.0,1436.3712,,,,1438.9176,1439.4163,1438.4016,1438.9175,1437.385,58.0,1438.4014,1439.4163,1439.9171,1439.9171,1441.3498,1263.2,1441.3501,4.0,1442.3492,5.0,25.0,175.0,16.0,1.0,1.0,0.7,Time
,,S33,1,Female,25,anonymized,Serial_Dependence_U,2023.2.3,Win32,60.24096386,,,,,,,,,,,,1442.3501,5.0,1442.3505,,,,1445.4985,1445.9974,1444.9821,1445.4983,1443.3663,324.0,1444.9819,1445.9974,1446.4964,1446.4965,1448.9129,2115.0,1448.9132,5.0,1449.9128,5.0,26.0,176.0,4.0,1.0,1.6,0.3,Time
,,S33,1,Female,25,anonymized,Serial_Dependence_U,2023.2.3,Win32,60.24096386,,,,,,,,,,,,1449.9137,5.0,1449.9142,,,,1452.4618,1452.9612,1451.9449,1452.4617,1450.9298,164.0,1451.9448,1452.9613,1453.4606,1453.4607,1455.3768,1567.0,1455.3772,5.0,1456.3753,5.0,27.0,177.0,26.0,1.0,1.0,0.7,Time
,,S33,1,Female,25,anonymized,Serial_Dependence_U,2023.2.3,Win32,60.24096386,,,,,,,,,,,,1456.3758,5.0,1456.3762,,,,1458.9256,1459.4253,1458.4091,1458.9255,1457.3941,267.0,1458.4089,1459.4254,1459.9253,1459.9253,1461.7739,1649.7,1461.7742,5.0,1462.774,5.0,28.0,178.0,6.0,1.0,1.0,0.7,Time
,,S33,1,Female,25,anonymized,Serial_Dependence_U,2023.2.3,Win32,60.24096386,,,,,,,,,,,,1462.7752,5.0,1462.7758,,,,1465.5223,1466.0219,1465.006,1465.5222,1463.7891,90.0,1465.0059,1466.022,1466.5217,1466.5218,1468.2039,1491.8,1468.2041,4.0,1469.2032,5.0,29.0,179.0,7.0,1.0,1.2,0.7,Time
,,S33,1,Female,25,anonymized,Serial_Dependence_U,2023.2.3,Win32,60.24096386,,,,,,,,,,,,1469.2037,6.0,1472.786,s,3.5661,,1475.5344,1476.0341,1475.0172,1475.5343,1473.8011,242.0,1475.0171,1476.0341,1476.5343,1476.5344,1477.3834,783.3000001,1477.3837,1.0,1478.3831,6.0,0.0,180.0,12.0,1.0,1.2,0.3,Time
,,S33,1,Female,25,anonymized,Serial_Dependence_U,2023.2.3,Win32,60.24096386,,,,,,,,,,,,1478.384,6.0,1478.3865,,,,1481.5329,1482.0316,1481.0159,1481.5328,1479.4005,209.0,1481.0157,1482.0317,1482.5315,1482.5317,1484.531,1783.4,1484.5314,4.0,1485.53,6.0,1.0,181.0,19.0,1.0,1.6,0.7,Time
,,S33,1,Female,25,anonymized,Serial_Dependence_U,2023.2.3,Win32,60.24096386,,,,,,,,,,,,1485.5313,6.0,1485.5318,,,,1487.8788,1488.3785,1487.3625,1487.8788,1486.5464,189.0,1487.3624,1488.3785,1488.8781,1488.8781,1491.0104,1815.7,1491.0106,5.0,1492.01,6.0,2.0,182.0,10.0,1.0,0.8,0.3,Time
,,S33,1,Female,25,anonymized,Serial_Dependence_U,2023.2.3,Win32,60.24096386,,,,,,,,,,,,1492.0109,6.0,1492.0114,,,,1495.159,1495.6584,1494.6432,1495.1587,1493.0271,187.0,1494.6429,1495.6585,1496.1583,1496.1584,1497.9418,1552.0,1497.9421,3.0,1498.9406,6.0,3.0,183.0,14.0,1.0,1.6,0.3,Time
,,S33,1,Female,25,anonymized,Serial_Dependence_U,2023.2.3,Win32,60.24096386,,,,,,,,,,,,1498.9418,6.0,1498.9424,,,,1501.29,1501.789,1500.7742,1501.2898,1499.9578,155.0,1500.7741,1501.7891,1502.289,1502.2892,1503.9218,1114.0,1503.9222,5.0,1504.9209,6.0,4.0,184.0,0.0,1.0,0.8,0.3,Time
,,S33,1,Female,25,anonymized,Serial_Dependence_U,2023.2.3,Win32,60.24096386,,,,,,,,,,,,1504.9219,6.0,1504.9224,,,,1507.8706,1508.3694,1507.354,1507.8706,1505.9384,122.0,1507.3538,1508.3695,1508.8693,1508.8694,1510.0526,1054.5,1510.0528,2.0,1511.0518,6.0,5.0,185.0,13.0,1.0,1.4,0.3,Time
,,S33,1,Female,25,anonymized,Serial_Dependence_U,2023.2.3,Win32,60.24096386,,,,,,,,,,,,1511.0527,6.0,1511.0532,,,,1513.6014,1514.1004,1513.0882,1513.6014,1512.0691,226.0,1513.0881,1514.1004,1514.6001,1514.6002,1517.4532,2456.0,1517.4534,5.0,1518.4483,6.0,6.0,186.0,6.0,1.0,1.0,0.7,Time
,,S33,1,Female,25,anonymized,Serial_Dependence_U,2023.2.3,Win32,60.24096386,,,,,,,,,,,,1518.4494,6.0,1518.4499,,,,1520.9808,1521.4799,1520.4692,1520.9806,1519.4656,220.0,1520.4691,1521.4799,1521.9799,1521.98,1523.6629,1449.1,1523.6637,5.0,1524.6614,6.0,7.0,187.0,1.0,1.0,1.0,0.3,Time
,,S33,1,Female,25,anonymized,Serial_Dependence_U,2023.2.3,Win32,60.24096386,,,,,,,,,,,,1524.6627,6.0,1524.663,,,,1527.3955,1527.8944,1526.881,1527.3953,1525.6785,357.0,1526.8808,1527.8945,1528.394,1528.3941,1530.0464,1260.9,1530.0467,4.0,1531.0426,6.0,8.0,188.0,7.0,1.0,1.2,0.7,Time
,,S33,1,Female,25,anonymized,Serial_Dependence_U,2023.2.3,Win32,60.24096386,,,,,,,,,,,,1531.0437,6.0,1531.0441,,,,1533.5615,1534.0576,1533.0599,1533.5613,1532.0471,1.0,1533.0598,1534.0578,1534.558,1534.5581,1536.1575,1225.2,1536.1581,4.0,1537.1569,6.0,9.0,189.0,21.0,1.0,1.0,0.3,Time
,,S33,1,Female,25,anonymized,Serial_Dependence_U,2023.2.3,Win32,60.24096386,,,,,,,,,,,,1537.158,6.0,1537.1586,,,,1540.1049,1540.6045,1539.5906,1540.1047,1538.173,226.0,1539.5902,1540.6045,1541.1035,1541.1035,1542.57,1291.2,1542.5703,2.0,1543.5702,6.0,10.0,190.0,28.0,1.0,1.4,0.7,Time
,,S33,1,Female,25,anonymized,Serial_Dependence_U,2023.2.3,Win32,60.24096386,,,,,,,,,,,,1543.5714,6.0,1543.5719,,,,1546.3195,1546.8185,1545.8028,1546.3194,1544.5866,359.0,1545.8027,1546.8185,1547.3179,1547.3179,1549.0677,1633.7,1549.0682,5.0,1550.0671,6.0,11.0,191.0,2.0,1.0,1.2,0.3,Time
,,S33,1,Female,25,anonymized,Serial_Dependence_U,2023.2.3,Win32,60.24096386,,,,,,,,,,,,1550.0679,6.0,1550.0684,,,,1553.0002,1553.4989,1552.4987,1552.9999,1551.0849,93.0,1552.4986,1553.499,1553.9993,1553.9994,1555.4813,1159.0,1555.4816,2.0,1556.4808,6.0,12.0,192.0,3.0,1.0,1.4,0.3,Time
,,S33,1,Female,25,anonymized,Serial_Dependence_U,2023.2.3,Win32,60.24096386,,,,,,,,,,,,1556.4816,6.0,1556.4827,,,,1559.0298,1559.5294,1558.5134,1559.0297,1557.4973,177.0,1558.5133,1559.5295,1560.0292,1560.0292,1561.845,1490.1,1561.8454,5.0,1562.8447,6.0,13.0,193.0,26.0,1.0,1.0,0.7,Time
,,S33,1,Female,25,anonymized,Serial_Dependence_U,2023.2.3,Win32,60.24096386,,,,,,,,,,,,1562.8457,6.0,1562.8465,,,,1565.9937,1566.4926,1565.4775,1565.9936,1563.8612,41.0,1565.4774,1566.4926,1566.9925,1566.9926,1569.3092,1934.6,1569.31,4.0,1570.3079,6.0,14.0,194.0,9.0,1.0,1.6,0.7,Time
,,S33,1,Female,25,anonymized,Serial_Dependence_U,2023.2.3,Win32,60.24096386,,,,,,,,,,,,1570.309,6.0,1570.3097,,,,1572.8573,1573.3569,1572.3402,1572.8572,1571.3235,113.0,1572.34,1573.3569,1573.8568,1573.8569,1576.6884,2468.1,1576.6888,5.0,1577.6885,6.0,15.0,195.0,16.0,1.0,1.0,0.7,Time
,,S33,1,Female,25,anonymized,Serial_Dependence_U,2023.2.3,Win32,60.24096386,,,,,,,,,,,,1577.6899,6.0,1577.6904,,,,1580.6369,1581.1365,1580.1201,1580.6369,1578.7044,75.0,1580.12,1581.1365,1581.6363,1581.6364,1583.2354,1348.9,1583.2357,3.0,1584.2353,6.0,16.0,196.0,8.0,1.0,1.4,0.7,Time
,,S33,1,Female,25,anonymized,Serial_Dependence_U,2023.2.3,Win32,60.24096386,,,,,,,,,,,,1584.237,6.0,1584.2378,,,,1586.5842,1587.0835,1586.0674,1586.5841,1585.251,74.0,1586.0672,1587.0835,1587.5838,1587.5839,1589.6322,1637.9,1589.6324,5.0,1590.6323,6.0,17.0,197.0,20.0,1.0,0.8,0.3,Time
,,S33,1,Female,25,anonymized,Serial_Dependence_U,2023.2.3,Win32,60.24096386,,,,,,,,,,,,1590.6334,6.0,1590.6342,,,,1593.7805,1594.2803,1593.2646,1593.7804,1591.6489,262.0,1593.2645,1594.2804,1594.7802,1594.7803,1596.3457,1334.2,1596.3459,2.0,1597.3457,6.0,18.0,198.0,4.0,1.0,1.6,0.3,Time
,,S33,1,Female,25,anonymized,Serial_Dependence_U,2023.2.3,Win32,60.24096386,,,,,,,,,,,,1597.3467,6.0,1597.3472,,,,1599.6959,1600.1948,1599.1787,1599.6951,1598.3621,291.0,1599.1785,1600.1948,1600.6945,1600.6946,1602.3599,1415.9,1602.3602,5.0,1603.3598,6.0,19.0,199.0,5.0,1.0,0.8,0.7,Time
,,S33,1,Female,25,anonymized,Serial_Dependence_U,2023.2.3,Win32,60.24096386,,,,,,,,,,,,1603.361,6.0,1603.3618,,,,1606.5087,1607.0083,1605.9922,1606.5086,1604.3761,213.0,1605.992,1607.0084,1607.5081,1607.5081,1609.3733,1740.6,1609.3736,4.0,1610.3728,6.0,20.0,200.0,29.0,1.0,1.6,0.7,Time
,,S33,1,Female,25,anonymized,Serial_Dependence_U,2023.2.3,Win32,60.24096386,,,,,,,,,,,,1610.3737,6.0,1610.3742,,,,1612.9214,1613.4206,1612.4055,1612.9213,1611.3894,280.0,1612.4054,1613.4206,1613.9213,1613.9214,1615.4542,1425.1,1615.4545,5.0,1616.4538,6.0,21.0,201.0,11.0,1.0,1.0,0.3,Time
,,S33,1,Female,25,anonymized,Serial_Dependence_U,2023.2.3,Win32,60.24096386,,,,,,,,,,,,1616.4548,6.0,1616.4554,,,,1619.2017,1619.7025,1618.6859,1619.2016,1617.4698,64.0,1618.6858,1619.7026,1620.2018,1620.2019,1622.2677,1691.9,1622.268,5.0,1623.2675,6.0,22.0,202.0,27.0,1.0,1.2,0.7,Time
,,S33,1,Female,25,anonymized,Serial_Dependence_U,2023.2.3,Win32,60.24096386,,,,,,,,,,,,1623.2685,6.0,1623.2691,,,,1626.4169,1626.9157,1625.8995,1626.4165,1624.2836,185.0,1625.8995,1626.9158,1627.4153,1627.4153,1629.2642,1719.2,1629.2645,4.0,1630.2643,6.0,23.0,203.0,24.0,1.0,1.6,0.3,Time
,,S33,1,Female,25,anonymized,Serial_Dependence_U,2023.2.3,Win32,60.24096386,,,,,,,,,,,,1630.2653,6.0,1630.266,,,,1633.2134,1633.7124,1632.6975,1633.2133,1631.2809,220.0,1632.6974,1633.7124,1634.2126,1634.2126,1636.6321,2082.8,1636.6323,5.0,1637.6279,6.0,24.0,204.0,18.0,1.0,1.4,0.7,Time
,,S33,1,Female,25,anonymized,Serial_Dependence_U,2023.2.3,Win32,60.24096386,,,,,,,,,,,,1637.629,6.0,1637.6294,,,,1640.5606,1641.0592,1640.0438,1640.5605,1638.6303,23.0,1640.0436,1641.0593,1641.5597,1641.5598,1643.4785,1744.7,1643.4788,4.0,1644.4744,6.0,25.0,205.0,23.0,1.0,1.4,0.3,Time
,,S33,1,Female,25,anonymized,Serial_Dependence_U,2023.2.3,Win32,60.24096386,,,,,,,,,,,,1644.4752,6.0,1644.4757,,,,1646.8238,1647.3233,1646.3076,1646.8236,1645.4917,185.0,1646.3074,1647.3234,1647.8234,1647.8235,1649.9722,1769.5,1649.9725,5.0,1650.9713,6.0,26.0,206.0,25.0,1.0,0.8,0.7,Time
,,S33,1,Female,25,anonymized,Serial_Dependence_U,2023.2.3,Win32,60.24096386,,,,,,,,,,,,1650.9722,6.0,1650.9726,,,,1653.7202,1654.22,1653.2036,1653.7201,1651.9874,214.0,1653.2035,1654.22,1654.7196,1654.7197,1656.6189,1716.7,1656.6193,5.0,1657.6186,6.0,27.0,207.0,22.0,1.0,1.2,0.3,Time
,,S33,1,Female,25,anonymized,Serial_Dependence_U,2023.2.3,Win32,60.24096386,,,,,,,,,,,,1657.62,6.0,1657.6207,,,,1660.3672,1660.867,1659.8507,1660.3672,1658.6349,141.0,1659.8506,1660.867,1661.3662,1661.3663,1663.1158,1407.8,1663.1161,4.0,1664.1148,6.0,28.0,208.0,17.0,1.0,1.2,0.7,Time
,,S33,1,Female,25,anonymized,Serial_Dependence_U,2023.2.3,Win32,60.24096386,,,,,,,,,,,,1664.1155,6.0,1664.1159,,,,1666.4644,1666.9642,1665.9478,1666.4642,1665.1316,19.0,1665.9476,1666.9642,1667.4642,1667.4643,1670.5625,2746.6,1670.5627,5.0,1671.5619,6.0,29.0,209.0,15.0,1.0,0.8,0.7,Time
,,S33,1,Female,25,anonymized,Serial_Dependence_U,2023.2.3,Win32,60.24096386,,,,,,,,,,,,1671.5627,7.0,1674.2277,s,2.6453,,1676.5767,1677.0761,1676.0609,1676.5766,1675.2449,269.0,1676.0605,1677.0761,1677.5763,1677.5764,1679.0588,1221.6,1679.0595,5.0,1680.0583,7.0,0.0,210.0,25.0,1.0,0.8,0.7,Time
,,S33,1,Female,25,anonymized,Serial_Dependence_U,2023.2.3,Win32,60.24096386,,,,,,,,,,,,1680.0592,7.0,1680.063,,,,1682.4087,1682.9073,1681.8914,1682.4082,1681.0744,68.0,1681.8911,1682.9074,1683.4069,1683.4071,1685.289,1708.7,1685.2893,5.0,1686.2889,7.0,1.0,211.0,10.0,1.0,0.8,0.3,Time
,,S33,1,Female,25,anonymized,Serial_Dependence_U,2023.2.3,Win32,60.24096386,,,,,,,,,,,,1686.2899,7.0,1686.2906,,,,1688.6379,1689.1374,1688.1205,1688.6378,1687.305,24.0,1688.1204,1689.1374,1689.6373,1689.6373,1691.9193,1926.3,1691.9196,5.0,1692.9191,7.0,2.0,212.0,0.0,1.0,0.8,0.3,Time
,,S33,1,Female,25,anonymized,Serial_Dependence_U,2023.2.3,Win32,60.24096386,,,,,,,,,,,,1692.92,7.0,1692.9208,,,,1695.2683,1695.767,1694.7516,1695.2683,1693.9353,37.0,1694.7515,1695.7671,1696.267,1696.2671,1698.5164,2114.1,1698.5166,5.0,1699.5157,7.0,3.0,213.0,20.0,1.0,0.8,0.3,Time
,,S33,1,Female,25,anonymized,Serial_Dependence_U,2023.2.3,Win32,60.24096386,,,,,,,,,,,,1699.5165,7.0,1699.517,,,,1702.4654,1702.9636,1701.9488,1702.4652,1700.5324,273.0,1701.9486,1702.9636,1703.4643,1703.4645,1704.6968,1216.9,1704.697,2.0,1705.6963,7.0,4.0,214.0,28.0,1.0,1.4,0.7,Time
,,S33,1,Female,25,anonymized,Serial_Dependence_U,2023.2.3,Win32,60.24096386,,,,,,,,,,,,1705.6971,7.0,1705.6975,,,,1708.6457,1709.1451,1708.1287,1708.6455,1706.7129,191.0,1708.1287,1709.1451,1709.6441,1709.6441,1711.5271,1714.3,1711.5275,4.0,1712.5267,7.0,5.0,215.0,3.0,1.0,1.4,0.3,Time
,,S33,1,Female,25,anonymized,Serial_Dependence_U,2023.2.3,Win32,60.24096386,,,,,,,,,,,,1712.5275,7.0,1712.528,,,,1715.4757,1715.9752,1714.9585,1715.4757,1713.5436,193.0,1714.9584,1715.9753,1716.4743,1716.4743,1718.6072,1822.6,1718.6075,5.0,1719.6075,7.0,6.0,216.0,8.0,1.0,1.4,0.7,Time
,,S33,1,Female,25,anonymized,Serial_Dependence_U,2023.2.3,Win32,60.24096386,,,,,,,,,,,,1719.6088,7.0,1719.6096,,,,1722.7561,1723.2553,1722.2393,1722.7558,1720.6238,328.0,1722.2391,1723.2555,1723.7549,1723.755,1725.5542,1610.2,1725.5545,3.0,1726.5539,7.0,7.0,217.0,24.0,1.0,1.6,0.3,Time
,,S33,1,Female,25,anonymized,Serial_Dependence_U,2023.2.3,Win32,60.24096386,,,,,,,,,,,,1726.5548,7.0,1726.5552,,,,1729.3025,1729.8024,1728.7861,1729.3024,1727.5705,212.0,1728.786,1729.8025,1730.3016,1730.3017,1732.534,1962.3,1732.5342,5.0,1733.5329,7.0,8.0,218.0,22.0,1.0,1.2,0.3,Time
,,S33,1,Female,25,anonymized,Serial_Dependence_U,2023.2.3,Win32,60.24096386,,,,,,,,,,,,1733.5333,7.0,1733.5335,,,,1736.2828,1736.7825,1735.7658,1736.2827,1734.5498,225.0,1735.7657,1736.7825,1737.2822,1737.2822,1738.5489,834.4,1738.5492,1.0,1739.5481,7.0,9.0,219.0,12.0,1.0,1.2,0.3,Time
,,S33,1,Female,25,anonymized,Serial_Dependence_U,2023.2.3,Win32,60.24096386,,,,,,,,,,,,1739.5491,7.0,1739.5498,,,,1742.4974,1742.9964,1741.9804,1742.497,1740.5649,75.0,1741.9802,1742.9965,1743.4962,1743.4962,1744.4947,926.8,1744.4948,1.0,1745.4949,7.0,10.0,220.0,18.0,1.0,1.4,0.7,Time
,,S33,1,Female,25,anonymized,Serial_Dependence_U,2023.2.3,Win32,60.24096386,,,,,,,,,,,,1745.4956,7.0,1745.4961,,,,1748.0437,1748.5439,1747.528,1748.0437,1746.5115,267.0,1747.5279,1748.544,1749.0436,1749.0437,1750.4092,1345.3,1750.4096,5.0,1751.4095,7.0,11.0,221.0,6.0,1.0,1.0,0.7,Time
,,S33,1,Female,25,anonymized,Serial_Dependence_U,2023.2.3,Win32,60.24096386,,,,,,,,,,,,1751.4106,7.0,1751.4113,,,,1753.9588,1754.4581,1753.4416,1753.9585,1752.4256,157.0,1753.4415,1754.4581,1754.9577,1754.9578,1756.5232,1342.3,1756.5239,5.0,1757.523,7.0,12.0,222.0,16.0,1.0,1.0,0.7,Time
,,S33,1,Female,25,anonymized,Serial_Dependence_U,2023.2.3,Win32,60.24096386,,,,,,,,,,,,1757.5241,7.0,1757.5247,,,,1760.2723,1760.7714,1759.7556,1760.272,1758.54,60.0,1759.7555,1760.7714,1761.2712,1761.2712,1762.4702,1168.9,1762.4705,3.0,1763.4698,7.0,13.0,223.0,27.0,1.0,1.2,0.7,Time
,,S33,1,Female,25,anonymized,Serial_Dependence_U,2023.2.3,Win32,60.24096386,,,,,,,,,,,,1763.471,7.0,1763.4718,,,,1766.6187,1767.1176,1766.1026,1766.6185,1764.4865,276.0,1766.1025,1767.1176,1767.618,1767.6181,1768.9345,1303.0,1768.9347,2.0,1769.934,7.0,14.0,224.0,9.0,1.0,1.6,0.7,Time
,,S33,1,Female,25,anonymized,Serial_Dependence_U,2023.2.3,Win32,60.24096386,,,,,,,,,,,,1769.935,7.0,1769.9355,,,,1772.4827,1772.9828,1771.9666,1772.4827,1770.9498,75.0,1771.9665,1772.9829,1773.4825,1773.4826,1774.8649,1345.1,1774.8652,5.0,1775.8647,7.0,15.0,225.0,1.0,1.0,1.0,0.3,Time
,,S33,1,Female,25,anonymized,Serial_Dependence_U,2023.2.3,Win32,60.24096386,,,,,,,,,,,,1775.8658,7.0,1775.8663,,,,1778.2138,1778.7135,1777.6973,1778.2137,1776.8809,100.0,1777.6972,1778.7135,1779.2132,1779.2132,1780.8798,1625.4,1780.8803,5.0,1781.879,7.0,16.0,226.0,15.0,1.0,0.8,0.7,Time
,,S33,1,Female,25,anonymized,Serial_Dependence_U,2023.2.3,Win32,60.24096386,,,,,,,,,,,,1781.8803,7.0,1781.8811,,,,1785.0278,1785.527,1784.5119,1785.0277,1782.8955,5.0,1784.5118,1785.5271,1786.0267,1786.0267,1787.4428,1374.5,1787.4436,2.0,1788.4428,7.0,17.0,227.0,29.0,1.0,1.6,0.7,Time
,,S33,1,Female,25,anonymized,Serial_Dependence_U,2023.2.3,Win32,60.24096386,,,,,,,,,,,,1788.4439,7.0,1788.4444,,,,1791.1915,1791.6907,1790.676,1791.1914,1789.4592,155.0,1790.6759,1791.6908,1792.1904,1792.1905,1793.7235,1170.0,1793.7238,3.0,1794.7223,7.0,18.0,228.0,7.0,1.0,1.2,0.7,Time
,,S33,1,Female,25,anonymized,Serial_Dependence_U,2023.2.3,Win32,60.24096386,,,,,,,,,,,,1794.7237,7.0,1794.724,,,,1797.6711,1798.1712,1797.1552,1797.6711,1795.7391,265.0,1797.1551,1798.1714,1798.6709,1798.6711,1800.4198,1416.7,1800.4201,3.0,1801.4194,7.0,19.0,229.0,23.0,1.0,1.4,0.3,Time
,,S33,1,Female,25,anonymized,Serial_Dependence_U,2023.2.3,Win32,60.24096386,,,,,,,,,,,,1801.4202,7.0,1801.4208,,,,1804.1686,1804.6683,1803.652,1804.1685,1802.4365,208.0,1803.6519,1804.6683,1805.1671,1805.1672,1806.6664,1223.0,1806.6666,3.0,1807.667,7.0,20.0,230.0,2.0,1.0,1.2,0.3,Time
,,S33,1,Female,25,anonymized,Serial_Dependence_U,2023.2.3,Win32,60.24096386,,,,,,,,,,,,1807.668,7.0,1807.6687,,,,1810.0159,1810.5151,1809.4994,1810.0157,1808.6824,245.0,1809.4992,1810.5151,1811.0155,1811.0157,1812.615,1187.7,1812.6156,5.0,1813.6147,7.0,21.0,231.0,5.0,1.0,0.8,0.7,Time
,,S33,1,Female,25,anonymized,Serial_Dependence_U,2023.2.3,Win32,60.24096386,,,,,,,,,,,,1813.616,7.0,1813.6165,,,,1816.5637,1817.0624,1816.0476,1816.5636,1814.631,321.0,1816.0474,1817.0625,1817.5625,1817.5625,1818.9835,1272.9,1818.9838,2.0,1819.9786,7.0,22.0,232.0,13.0,1.0,1.4,0.3,Time
,,S33,1,Female,25,anonymized,Serial_Dependence_U,2023.2.3,Win32,60.24096386,,,,,,,,,,,,1819.9797,7.0,1819.9802,,,,1822.5273,1823.0264,1822.0115,1822.527,1820.9947,346.0,1822.0114,1823.0265,1823.5262,1823.5262,1825.1803,1245.9,1825.1805,4.0,1826.1757,7.0,23.0,233.0,11.0,1.0,1.0,0.3,Time
,,S33,1,Female,25,anonymized,Serial_Dependence_U,2023.2.3,Win32,60.24096386,,,,,,,,,,,,1826.1768,7.0,1826.1773,,,,1829.3239,1829.8235,1828.8086,1829.3236,1827.1922,334.0,1828.8085,1829.8236,1830.3235,1830.3237,1831.906,1327.4,1831.9064,2.0,1832.9057,7.0,24.0,234.0,19.0,1.0,1.6,0.7,Time
,,S33,1,Female,25,anonymized,Serial_Dependence_U,2023.2.3,Win32,60.24096386,,,,,,,,,,,,1832.9067,7.0,1832.9075,,,,1835.4547,1835.9539,1834.938,1835.4547,1833.9218,210.0,1834.9379,1835.9539,1836.4535,1836.4535,1837.6032,748.7,1837.6035,2.0,1838.6029,7.0,25.0,235.0,26.0,1.0,1.0,0.7,Time
,,S33,1,Female,25,anonymized,Serial_Dependence_U,2023.2.3,Win32,60.24096386,,,,,,,,,,,,1838.6037,7.0,1838.6043,,,,1841.7517,1842.2512,1841.235,1841.7517,1839.6194,155.0,1841.235,1842.2512,1842.7507,1842.7508,1844.0833,888.0,1844.0835,1.0,1845.0834,7.0,26.0,236.0,14.0,1.0,1.6,0.3,Time
,,S33,1,Female,25,anonymized,Serial_Dependence_U,2023.2.3,Win32,60.24096386,,,,,,,,,,,,1845.0842,7.0,1845.0847,,,,1847.832,1848.332,1847.316,1847.8319,1846.0994,169.0,1847.3158,1848.332,1848.8317,1848.8317,1850.7799,1664.4,1850.7801,5.0,1851.7801,7.0,27.0,237.0,17.0,1.0,1.2,0.7,Time
,,S33,1,Female,25,anonymized,Serial_Dependence_U,2023.2.3,Win32,60.24096386,,,,,,,,,,,,1851.7811,7.0,1851.7817,,,,1854.9288,1855.4285,1854.4121,1854.9286,1852.7965,97.0,1854.4119,1855.4285,1855.9282,1855.9283,1856.8441,876.5,1856.8444,1.0,1857.8446,7.0,28.0,238.0,4.0,1.0,1.6,0.3,Time
,,S33,1,Female,25,anonymized,Serial_Dependence_U,2023.2.3,Win32,60.24096386,,,,,,,,,,,,1857.8457,7.0,1857.8461,,,,1860.3935,1860.8929,1859.8777,1860.3934,1858.8606,310.0,1859.8776,1860.8929,1861.3927,1861.3928,1862.7914,1270.7,1862.7919,4.0,1863.7913,7.0,29.0,239.0,21.0,1.0,1.0,0.3,Time
,,S33,1,Female,25,anonymized,Serial_Dependence_U,2023.2.3,Win32,60.24096386,,,,,,,,,,,,1863.7923,8.0,1866.0244,s,2.2059,,1868.5737,1869.0723,1868.0568,1868.5735,1867.0409,52.0,1868.0565,1869.0725,1869.5726,1869.5728,1870.4222,482.6,1870.4226,1.0,1871.4209,8.0,0.0,240.0,1.0,1.0,1.0,0.3,Time
,,S33,1,Female,25,anonymized,Serial_Dependence_U,2023.2.3,Win32,60.24096386,,,,,,,,,,,,1871.4219,8.0,1871.4233,,,,1874.1711,1874.6698,1873.6541,1874.1709,1872.4384,322.0,1873.6539,1874.6698,1875.1699,1875.17,1876.7356,1297.1,1876.7362,4.0,1877.7353,8.0,1.0,241.0,27.0,1.0,1.2,0.7,Time
,,S33,1,Female,25,anonymized,Serial_Dependence_U,2023.2.3,Win32,60.24096386,,,,,,,,,,,,1877.7364,8.0,1877.7368,,,,1880.8843,1881.3834,1880.3687,1880.8842,1878.7521,254.0,1880.3685,1881.3835,1881.883,1881.8831,1883.2331,1082.3,1883.2337,1.0,1884.2325,8.0,2.0,242.0,24.0,1.0,1.6,0.3,Time
,,S33,1,Female,25,anonymized,Serial_Dependence_U,2023.2.3,Win32,60.24096386,,,,,,,,,,,,1884.234,8.0,1884.2348,,,,1886.9816,1887.4801,1886.4658,1886.9815,1885.2484,239.0,1886.4656,1887.4801,1887.9802,1887.9803,1889.568,1482.5,1889.5683,4.0,1890.5633,8.0,3.0,243.0,7.0,1.0,1.2,0.7,Time
,,S33,1,Female,25,anonymized,Serial_Dependence_U,2023.2.3,Win32,60.24096386,,,,,,,,,,,,1890.5645,8.0,1890.5649,,,,1893.2961,1893.7948,1892.779,1893.2959,1891.5679,250.0,1892.7788,1893.7948,1894.2946,1894.2947,1896.1942,1719.4,1896.1947,5.0,1897.1935,8.0,4.0,244.0,22.0,1.0,1.2,0.3,Time
,,S33,1,Female,25,anonymized,Serial_Dependence_U,2023.2.3,Win32,60.24096386,,,,,,,,,,,,1897.1948,8.0,1897.1954,,,,1900.142,1900.6413,1899.6266,1900.1418,1898.2097,339.0,1899.6265,1900.6413,1901.141,1901.141,1902.7117,1231.1,1902.712,2.0,1903.7068,8.0,5.0,245.0,3.0,1.0,1.4,0.3,Time
,,S33,1,Female,25,anonymized,Serial_Dependence_U,2023.2.3,Win32,60.24096386,,,,,,,,,,,,1903.7076,8.0,1903.7082,,,,1906.0566,1906.5556,1905.5425,1906.0565,1904.7241,181.0,1905.5425,1906.5557,1907.0555,1907.0556,1908.4714,1043.6,1908.4717,5.0,1909.4705,8.0,6.0,246.0,10.0,1.0,0.8,0.3,Time
,,S33,1,Female,25,anonymized,Serial_Dependence_U,2023.2.3,Win32,60.24096386,,,,,,,,,,,,1909.4717,8.0,1909.4721,,,,1911.8205,1912.3194,1911.3039,1911.8202,1910.4881,63.0,1911.3038,1912.3195,1912.8196,1912.8197,1914.1729,1328.2,1914.1732,5.0,1915.1683,8.0,7.0,247.0,20.0,1.0,0.8,0.3,Time
,,S33,1,Female,25,anonymized,Serial_Dependence_U,2023.2.3,Win32,60.24096386,,,,,,,,,,,,1915.1695,8.0,1915.17,,,,1917.7178,1918.2168,1917.201,1917.7175,1916.1857,193.0,1917.201,1918.2169,1918.7165,1918.7166,1920.9654,2004.1,1920.9659,5.0,1921.9651,8.0,8.0,248.0,11.0,1.0,1.0,0.3,Time
,,S33,1,Female,25,anonymized,Serial_Dependence_U,2023.2.3,Win32,60.24096386,,,,,,,,,,,,1921.9662,8.0,1921.9667,,,,1924.5148,1925.014,1923.9979,1924.5147,1922.9824,206.0,1923.9976,1925.014,1925.5138,1925.514,1927.7131,1575.8,1927.7136,5.0,1928.7123,8.0,9.0,249.0,21.0,1.0,1.0,0.3,Time
,,S33,1,Female,25,anonymized,Serial_Dependence_U,2023.2.3,Win32,60.24096386,,,,,,,,,,,,1928.7135,8.0,1928.7139,,,,1931.0494,1931.5447,1930.5321,1931.0493,1929.7285,288.0,1930.5321,1931.5447,1932.0442,1932.0442,1933.926,1695.7,1933.9265,5.0,1934.9255,8.0,10.0,250.0,15.0,1.0,0.8,0.7,Time
,,S33,1,Female,25,anonymized,Serial_Dependence_U,2023.2.3,Win32,60.24096386,,,,,,,,,,,,1934.9265,8.0,1934.9269,,,,1938.0756,1938.5744,1937.5587,1938.0754,1935.943,21.0,1937.5586,1938.5745,1939.0742,1939.0743,1940.6404,1532.6,1940.6409,3.0,1941.6399,8.0,11.0,251.0,29.0,1.0,1.6,0.7,Time
,,S33,1,Female,25,anonymized,Serial_Dependence_U,2023.2.3,Win32,60.24096386,,,,,,,,,,,,1941.641,8.0,1941.6413,,,,1944.3727,1944.8711,1943.8558,1944.3725,1942.6439,30.0,1943.8555,1944.8711,1945.3712,1945.3713,1946.9207,1189.1,1946.9209,3.0,1947.9198,8.0,12.0,252.0,12.0,1.0,1.2,0.3,Time
,,S33,1,Female,25,anonymized,Serial_Dependence_U,2023.2.3,Win32,60.24096386,,,,,,,,,,,,1947.9209,8.0,1947.9213,,,,1950.8522,1951.3517,1950.3411,1950.8519,1948.9375,311.0,1950.3409,1951.3518,1951.8516,1951.8517,1953.7391,1645.4,1953.7395,4.0,1954.7337,8.0,13.0,253.0,28.0,1.0,1.4,0.7,Time
,,S33,1,Female,25,anonymized,Serial_Dependence_U,2023.2.3,Win32,60.24096386,,,,,,,,,,,,1954.7349,8.0,1954.7353,,,,1957.869,1958.3656,1957.3666,1957.869,1955.7502,211.0,1957.3662,1958.3657,1958.865,1958.8651,1960.4185,1487.3,1960.4187,2.0,1961.4137,8.0,14.0,254.0,4.0,1.0,1.6,0.3,Time
,,S33,1,Female,25,anonymized,Serial_Dependence_U,2023.2.3,Win32,60.24096386,,,,,,,,,,,,1961.4146,8.0,1961.415,,,,1963.9638,1964.4627,1963.4468,1963.9637,1962.4324,24.0,1963.4466,1964.4627,1964.9625,1964.9627,1967.0114,1748.9,1967.0119,5.0,1968.0107,8.0,15.0,255.0,16.0,1.0,1.0,0.7,Time
,,S33,1,Female,25,anonymized,Serial_Dependence_U,2023.2.3,Win32,60.24096386,,,,,,,,,,,,1968.0118,8.0,1968.0122,,,,1970.9604,1971.4596,1970.4436,1970.9601,1969.0282,205.0,1970.4434,1971.4596,1971.9593,1971.9594,1973.5964,1615.6,1973.5966,4.0,1974.5914,8.0,16.0,256.0,8.0,1.0,1.4,0.7,Time
,,S33,1,Female,25,anonymized,Serial_Dependence_U,2023.2.3,Win32,60.24096386,,,,,,,,,,,,1974.5927,8.0,1974.5931,,,,1977.5242,1978.0231,1977.0072,1977.5241,1975.5936,187.0,1977.007,1978.0232,1978.5224,1978.5226,1980.3092,1615.8,1980.3095,4.0,1981.3049,8.0,17.0,257.0,18.0,1.0,1.4,0.7,Time
,,S33,1,Female,25,anonymized,Serial_Dependence_U,2023.2.3,Win32,60.24096386,,,,,,,,,,,,1981.306,8.0,1981.3066,,,,1984.4544,1984.9535,1983.9376,1984.4542,1982.322,336.0,1983.9375,1984.9536,1985.4534,1985.4535,1987.7518,2158.4,1987.7526,5.0,1988.7518,8.0,18.0,258.0,14.0,1.0,1.6,0.3,Time
,,S33,1,Female,25,anonymized,Serial_Dependence_U,2023.2.3,Win32,60.24096386,,,,,,,,,,,,1988.7528,8.0,1988.7533,,,,1991.0846,1991.5837,1990.5711,1991.0843,1989.768,124.0,1990.5711,1991.5838,1992.0839,1992.084,1993.5994,1355.2,1993.5998,5.0,1994.5988,8.0,19.0,259.0,0.0,1.0,0.8,0.3,Time
,,S33,1,Female,25,anonymized,Serial_Dependence_U,2023.2.3,Win32,60.24096386,,,,,,,,,,,,1994.5997,8.0,1994.6002,,,,1997.3487,1997.8473,1996.8315,1997.3486,1995.6174,257.0,1996.8312,1997.8475,1998.3475,1998.3477,1999.8293,1289.7,1999.8299,4.0,2000.8291,8.0,20.0,260.0,2.0,1.0,1.2,0.3,Time
,,S33,1,Female,25,anonymized,Serial_Dependence_U,2023.2.3,Win32,60.24096386,,,,,,,,,,,,2000.83,8.0,2000.8305,,,,2003.3774,2003.8779,2002.8615,2003.3772,2001.8472,100.0,2002.8613,2003.8779,2004.3765,2004.3765,2005.5927,1045.9,2005.5929,3.0,2006.5933,8.0,21.0,261.0,6.0,1.0,1.0,0.7,Time
,,S33,1,Female,25,anonymized,Serial_Dependence_U,2023.2.3,Win32,60.24096386,,,,,,,,,,,,2006.5945,8.0,2006.5951,,,,2008.9427,2009.442,2008.4269,2008.9425,2007.61,64.0,2008.4268,2009.4421,2009.9418,2009.942,2010.9457,724.0,2010.9459,2.0,2011.9409,8.0,22.0,262.0,5.0,1.0,0.8,0.7,Time
,,S33,1,Female,25,anonymized,Serial_Dependence_U,2023.2.3,Win32,60.24096386,,,,,,,,,,,,2011.9421,8.0,2011.9428,,,,2014.4908,2014.9896,2013.9738,2014.4907,2012.9582,10.0,2013.9737,2014.9897,2015.4899,2015.49,2016.0901,565.6,2016.0903,1.0,2017.0885,8.0,23.0,263.0,26.0,1.0,1.0,0.7,Time
,,S33,1,Female,25,anonymized,Serial_Dependence_U,2023.2.3,Win32,60.24096386,,,,,,,,,,,,2017.0897,8.0,2017.09,,,,2020.0377,2020.5364,2019.5219,2020.0375,2018.1054,336.0,2019.5217,2020.5365,2021.037,2021.037,2021.7077,646.4000001,2021.708,1.0,2022.7026,8.0,24.0,264.0,13.0,1.0,1.4,0.3,Time
,,S33,1,Female,25,anonymized,Serial_Dependence_U,2023.2.3,Win32,60.24096386,,,,,,,,,,,,2022.7037,8.0,2022.7042,,,,2025.0555,2025.5515,2024.536,2025.0553,2023.7204,342.0,2024.5358,2025.5517,2026.0516,2026.0517,2027.4183,1014.6,2027.4187,4.0,2028.4173,8.0,25.0,265.0,25.0,1.0,0.8,0.7,Time
,,S33,1,Female,25,anonymized,Serial_Dependence_U,2023.2.3,Win32,60.24096386,,,,,,,,,,,,2028.4185,8.0,2028.4191,,,,2031.5498,2032.0487,2031.0329,2031.5498,2029.4214,268.0,2031.0328,2032.0487,2032.5488,2032.5489,2033.531,960.4,2033.5314,1.0,2034.5304,8.0,26.0,266.0,19.0,1.0,1.6,0.7,Time
,,S33,1,Female,25,anonymized,Serial_Dependence_U,2023.2.3,Win32,60.24096386,,,,,,,,,,,,2034.5315,8.0,2034.5318,,,,2037.4806,2037.9797,2036.9635,2037.4805,2035.5473,278.0,2036.9633,2037.9797,2038.4793,2038.4794,2040.2614,1332.3,2040.2618,3.0,2041.2607,8.0,27.0,267.0,23.0,1.0,1.4,0.3,Time
,,S33,1,Female,25,anonymized,Serial_Dependence_U,2023.2.3,Win32,60.24096386,,,,,,,,,,,,2041.2616,8.0,2041.2619,,,,2044.4103,2044.9078,2043.8936,2044.4102,2042.2818,69.0,2043.8935,2044.9078,2045.4084,2045.4088,2047.2414,1404.6,2047.2419,2.0,2048.2411,8.0,28.0,268.0,9.0,1.0,1.6,0.7,Time
,,S33,1,Female,25,anonymized,Serial_Dependence_U,2023.2.3,Win32,60.24096386,,,,,,,,,,,,2048.2424,8.0,2048.2428,,,,2050.9742,2051.4733,2050.461,2050.9741,2049.2578,77.0,2050.4608,2051.4734,2051.9729,2051.973,2053.6259,1311.3,2053.6262,4.0,2054.6212,8.0,29.0,269.0,17.0,1.0,1.2,0.7,Time
