Scale_setup.started,Scale_setup.stopped,participant,session,sex,age,date,expName,psychopyVersion,OS,frameRate,screen_scale_keys.started,screen_scale_keys.stopped,X Scale,Y Scale,rectangel_keys.started,rectangel_keys.stopped,Intro.started,Intro.stopped,key_resp_2.keys,key_resp_2.rt,key_resp_2.duration,block.started,Block_id,block.stopped,Block_resp_2.keys,Block_resp_2.rt,Block_resp_2.duration,ITI.started,ITI.stopped,Mask_2.started,Mask_2.stopped,M2.started,direction,M2.stopped,Cue.started,Cue.stopped,Response.started,Response.stopped,keyDuration,Feedback_Time.started,FeedbackID_T,Feedback_Time.stopped,trials.thisRepN,trials.thisTrialN,trials.thisN,trials.thisIndex,trials.ran,TimeDur,Coherence1,TrialType
0.0006,0.0011,S35,1,female,30,anonymized,Serial_Dependence_U,2023.2.3,Win32,60.24096386,,,,,,,,,,,,,,,,,,,,,,,,,,,,,,,,,,,,,,,,
,,S35,1,female,30,anonymized,Serial_Dependence_U,2023.2.3,Win32,60.24096386,0.0049,57.9471,0.0588,0.0565,57.9474,104.4276,104.4281,208.9573,space,104.4756,,,,,,,,,,,,,,,,,,,,,,,,,,,,,,
,,S35,1,female,30,anonymized,Serial_Dependence_U,2023.2.3,Win32,60.24096386,,,,,,,,,,,,208.9728,0.0,215.9258,s,6.9186,,218.8771,219.3764,218.3607,218.8769,216.9437,176.0,218.3605,219.3768,219.8769,219.8775,221.3783,288.9000001,221.3791,1.0,222.3776,0.0,0.0,0.0,3.0,1.0,1.4,0.3,Time
,,S35,1,female,30,anonymized,Serial_Dependence_U,2023.2.3,Win32,60.24096386,,,,,,,,,,,,222.3793,0.0,222.3821,,,,225.329,225.8283,224.8122,225.3289,223.395,223.0,224.812,225.8284,226.3287,226.3287,231.0852,1516.7,231.0853,4.0,232.0813,0.0,1.0,1.0,13.0,1.0,1.4,0.3,Time
,,S35,1,female,30,anonymized,Serial_Dependence_U,2023.2.3,Win32,60.24096386,,,,,,,,,,,,232.0821,0.0,232.0825,,,,235.0196,235.5155,234.5029,235.0195,233.0858,283.0,234.5028,235.5155,236.0157,236.0158,238.5541,2117.3,238.5543,5.0,239.55,0.0,2.0,2.0,18.0,1.0,1.4,0.7,Time
,,S35,1,female,30,anonymized,Serial_Dependence_U,2023.2.3,Win32,60.24096386,,,,,,,,,,,,239.5507,0.0,239.551,,,,242.2887,242.7842,241.7717,242.2885,240.5544,253.0,241.7716,242.7843,243.2847,243.2848,248.0405,1700.5,248.0407,5.0,249.0363,0.0,3.0,3.0,12.0,1.0,1.2,0.3,Time
,,S35,1,female,30,anonymized,Serial_Dependence_U,2023.2.3,Win32,60.24096386,,,,,,,,,,,,249.037,0.0,249.0374,,,,251.7585,252.2537,251.2412,251.7585,250.0398,107.0,251.2412,252.2537,252.7539,252.7539,258.76,9999.0,258.7602,0.0,259.7561,0.0,4.0,4.0,17.0,1.0,1.2,0.7,Time
,,S35,1,female,30,anonymized,Serial_Dependence_U,2023.2.3,Win32,60.24096386,,,,,,,,,,,,259.7568,0.0,259.7571,,,,262.0945,262.5901,261.5774,262.0944,260.7605,244.0,261.5773,262.5902,263.0903,263.0905,269.0966,9999.0,269.0969,0.0,270.0925,0.0,5.0,5.0,20.0,1.0,0.8,0.3,Time
,,S35,1,female,30,anonymized,Serial_Dependence_U,2023.2.3,Win32,60.24096386,,,,,,,,,,,,270.0931,0.0,270.0936,,,,273.2146,273.7101,272.6978,273.2144,271.0969,152.0,272.6976,273.7102,274.2104,274.2104,280.2125,9999.0,280.2131,0.0,281.2116,0.0,6.0,6.0,24.0,1.0,1.6,0.3,Time
,,S35,1,female,30,anonymized,Serial_Dependence_U,2023.2.3,Win32,60.24096386,,,,,,,,,,,,281.213,0.0,281.2135,,,,283.9636,284.4625,283.4472,283.9633,282.2301,119.0,283.447,284.4625,284.9627,284.9628,290.9648,9999.0,290.9655,0.0,291.9648,0.0,7.0,7.0,27.0,1.0,1.2,0.7,Time
,,S35,1,female,30,anonymized,Serial_Dependence_U,2023.2.3,Win32,60.24096386,,,,,,,,,,,,291.9657,0.0,291.9665,,,,295.1165,295.6159,294.6012,295.116,292.9834,97.0,294.601,295.6159,296.116,296.116,302.1187,9999.0,302.1193,0.0,303.118,0.0,8.0,8.0,9.0,1.0,1.6,0.7,Time
,,S35,1,female,30,anonymized,Serial_Dependence_U,2023.2.3,Win32,60.24096386,,,,,,,,,,,,303.1188,0.0,303.1193,,,,306.2696,306.7691,305.7537,306.2693,304.1363,248.0,305.7533,306.7691,307.2694,307.2694,313.272,9999.0,313.2726,0.0,314.2714,0.0,9.0,9.0,14.0,1.0,1.6,0.3,Time
,,S35,1,female,30,anonymized,Serial_Dependence_U,2023.2.3,Win32,60.24096386,,,,,,,,,,,,314.2726,0.0,314.273,,,,316.8234,317.3223,316.3068,316.8231,315.2898,249.0,316.3064,317.3223,317.8225,317.8226,323.8253,9999.0,323.8259,0.0,324.8246,0.0,10.0,10.0,16.0,1.0,1.0,0.7,Time
,,S35,1,female,30,anonymized,Serial_Dependence_U,2023.2.3,Win32,60.24096386,,,,,,,,,,,,324.8261,0.0,324.8263,,,,327.5768,328.0754,327.06,327.5764,325.8425,110.0,327.0594,328.0755,328.5755,328.5755,334.5778,9999.0,334.5785,0.0,335.5776,0.0,11.0,11.0,7.0,1.0,1.2,0.7,Time
,,S35,1,female,30,anonymized,Serial_Dependence_U,2023.2.3,Win32,60.24096386,,,,,,,,,,,,335.5785,0.0,335.579,,,,337.9298,338.4292,337.4127,337.9293,336.5955,152.0,337.4123,338.4294,338.9286,338.9287,341.3802,1631.4,341.3808,5.0,342.3797,0.0,12.0,12.0,0.0,1.0,0.8,0.3,Time
,,S35,1,female,30,anonymized,Serial_Dependence_U,2023.2.3,Win32,60.24096386,,,,,,,,,,,,342.3805,0.0,342.3812,,,,344.7317,345.2305,344.2142,344.7314,343.3982,25.0,344.214,345.2306,345.7308,345.7309,347.1322,649.2,347.1328,2.0,348.1312,0.0,13.0,13.0,5.0,1.0,0.8,0.7,Time
,,S35,1,female,30,anonymized,Serial_Dependence_U,2023.2.3,Win32,60.24096386,,,,,,,,,,,,348.1317,0.0,348.1319,,,,350.4826,350.9821,349.9659,350.4824,349.1487,97.0,349.9658,350.9821,351.4822,351.4823,352.7998,927.2,352.8,4.0,353.7995,0.0,14.0,14.0,10.0,1.0,0.8,0.3,Time
,,S35,1,female,30,anonymized,Serial_Dependence_U,2023.2.3,Win32,60.24096386,,,,,,,,,,,,353.8,0.0,353.8003,,,,356.951,357.4505,356.4343,356.951,354.8172,188.0,356.4341,357.4506,357.9506,357.9508,358.5515,81.70000005,358.5517,1.0,359.5512,0.0,15.0,15.0,19.0,1.0,1.6,0.7,Time
,,S35,1,female,30,anonymized,Serial_Dependence_U,2023.2.3,Win32,60.24096386,,,,,,,,,,,,359.5518,0.0,359.5521,,,,362.2861,362.7855,361.7691,362.286,360.5523,217.0,361.7691,362.7855,363.2858,363.2858,363.7863,51.29999995,363.7864,1.0,364.7862,0.0,16.0,16.0,22.0,1.0,1.2,0.3,Time
,,S35,1,female,30,anonymized,Serial_Dependence_U,2023.2.3,Win32,60.24096386,,,,,,,,,,,,364.7868,0.0,364.7871,,,,367.321,367.8204,366.8047,367.3208,365.7871,355.0,366.8046,367.8204,368.3208,368.3208,371.2051,1450.0,371.2053,5.0,372.2061,0.0,17.0,17.0,1.0,1.0,1.0,0.3,Time
,,S35,1,female,30,anonymized,Serial_Dependence_U,2023.2.3,Win32,60.24096386,,,,,,,,,,,,372.2066,0.0,372.2069,,,,374.5422,375.04,374.0284,374.5421,373.2107,31.0,374.0271,375.0401,375.5404,375.5406,376.9452,933.6,376.9454,4.0,377.9408,0.0,18.0,18.0,15.0,1.0,0.8,0.7,Time
,,S35,1,female,30,anonymized,Serial_Dependence_U,2023.2.3,Win32,60.24096386,,,,,,,,,,,,377.9413,0.0,377.9416,,,,380.4793,380.975,379.9627,380.4793,378.9458,163.0,379.9625,380.9751,381.4754,381.4754,383.1811,1084.5,383.1813,4.0,384.1761,0.0,19.0,19.0,6.0,1.0,1.0,0.7,Time
,,S35,1,female,30,anonymized,Serial_Dependence_U,2023.2.3,Win32,60.24096386,,,,,,,,,,,,384.1767,0.0,384.1769,,,,386.6978,387.1937,386.1828,386.6976,385.1809,271.0,386.1815,387.1938,387.6941,387.6942,389.1486,799.8000001,389.1488,2.0,390.1435,0.0,20.0,20.0,26.0,1.0,1.0,0.7,Time
,,S35,1,female,30,anonymized,Serial_Dependence_U,2023.2.3,Win32,60.24096386,,,,,,,,,,,,390.1441,0.0,390.1444,,,,392.695,393.1945,392.1782,392.6949,391.1612,141.0,392.1781,393.1946,393.6946,393.6947,395.9292,1300.8,395.9294,5.0,396.9289,0.0,21.0,21.0,21.0,1.0,1.0,0.3,Time
,,S35,1,female,30,anonymized,Serial_Dependence_U,2023.2.3,Win32,60.24096386,,,,,,,,,,,,396.9295,0.0,396.9297,,,,399.8805,400.3798,399.3636,399.8803,397.9467,14.0,399.3635,400.3799,400.8801,400.8802,405.532,2196.1,405.5322,5.0,406.5317,0.0,22.0,22.0,28.0,1.0,1.4,0.7,Time
,,S35,1,female,30,anonymized,Serial_Dependence_U,2023.2.3,Win32,60.24096386,,,,,,,,,,,,406.5322,0.0,406.5324,,,,409.6838,410.1827,409.1666,409.6836,407.5493,176.0,409.1665,410.1828,410.683,410.6831,412.5174,1446.0,412.5175,2.0,413.5171,0.0,23.0,23.0,4.0,1.0,1.6,0.3,Time
,,S35,1,female,30,anonymized,Serial_Dependence_U,2023.2.3,Win32,60.24096386,,,,,,,,,,,,413.5177,0.0,413.5179,,,,416.0518,416.5513,415.535,416.0517,414.518,294.0,415.5349,416.5513,417.0514,417.0515,421.7534,1967.6,421.7536,5.0,422.7551,0.0,24.0,24.0,11.0,1.0,1.0,0.3,Time
,,S35,1,female,30,anonymized,Serial_Dependence_U,2023.2.3,Win32,60.24096386,,,,,,,,,,,,422.7556,0.0,422.7559,,,,425.893,426.3886,425.3762,425.8929,423.7588,334.0,425.3761,426.3886,426.8887,426.8888,428.5774,1283.7,428.5775,2.0,429.5728,0.0,25.0,25.0,29.0,1.0,1.6,0.7,Time
,,S35,1,female,30,anonymized,Serial_Dependence_U,2023.2.3,Win32,60.24096386,,,,,,,,,,,,429.5734,0.0,429.5736,,,,432.5114,433.0072,431.9953,432.5112,430.5774,24.0,431.9951,433.0073,433.5073,433.5074,434.529,799.7,434.5292,1.0,435.5248,0.0,26.0,26.0,23.0,1.0,1.4,0.3,Time
,,S35,1,female,30,anonymized,Serial_Dependence_U,2023.2.3,Win32,60.24096386,,,,,,,,,,,,435.5254,0.0,435.5256,,,,438.4464,438.9423,437.9296,438.4463,436.5271,184.0,437.9295,438.9424,439.4423,439.4424,440.9305,1066.9,440.9307,2.0,441.9266,0.0,27.0,27.0,8.0,1.0,1.4,0.7,Time
,,S35,1,female,30,anonymized,Serial_Dependence_U,2023.2.3,Win32,60.24096386,,,,,,,,,,,,441.9271,0.0,441.9275,,,,444.265,444.7607,443.7486,444.2649,442.9312,58.0,443.7485,444.7607,445.2609,445.261,446.082,743.0999999,446.0822,2.0,447.078,0.0,28.0,28.0,25.0,1.0,0.8,0.7,Time
,,S35,1,female,30,anonymized,Serial_Dependence_U,2023.2.3,Win32,60.24096386,,,,,,,,,,,,447.0786,0.0,447.0788,,,,449.8165,450.3124,449.2999,449.8163,448.0827,214.0,449.2997,450.3125,450.8124,450.8125,452.1841,900.2,452.1843,2.0,453.1799,0.0,29.0,29.0,2.0,1.0,1.2,0.3,Time
,,S35,1,female,30,anonymized,Serial_Dependence_U,2023.2.3,Win32,60.24096386,,,,,,,,,,,,453.1805,1.0,508.3795,s,55.1679,,511.318,511.8136,510.8016,511.3178,509.384,1.0,510.8015,511.8138,512.3142,512.3142,512.7351,83.0999999,512.7353,1.0,513.731,1.0,0.0,30.0,13.0,1.0,1.4,0.3,Time
,,S35,1,female,30,anonymized,Serial_Dependence_U,2023.2.3,Win32,60.24096386,,,,,,,,,,,,513.7314,1.0,513.7334,,,,516.0694,516.5653,515.553,516.0693,514.7356,251.0,515.5528,516.5653,517.0654,517.0655,518.5036,1102.4,518.5039,5.0,519.4992,1.0,1.0,31.0,5.0,1.0,0.8,0.7,Time
,,S35,1,female,30,anonymized,Serial_Dependence_U,2023.2.3,Win32,60.24096386,,,,,,,,,,,,519.4999,1.0,519.5001,,,,522.438,522.9337,521.9212,522.4379,520.5043,240.0,521.9211,522.9338,523.4339,523.434,525.6557,1817.1,525.6559,4.0,526.6515,1.0,2.0,32.0,18.0,1.0,1.4,0.7,Time
,,S35,1,female,30,anonymized,Serial_Dependence_U,2023.2.3,Win32,60.24096386,,,,,,,,,,,,526.6522,1.0,526.6525,,,,529.1899,529.6855,528.6733,529.1898,527.6564,86.0,528.6732,529.6857,530.1859,530.186,532.1076,1400.4,532.1079,5.0,533.1035,1.0,3.0,33.0,16.0,1.0,1.0,0.7,Time
,,S35,1,female,30,anonymized,Serial_Dependence_U,2023.2.3,Win32,60.24096386,,,,,,,,,,,,533.104,1.0,533.1043,,,,536.2254,536.7211,535.7218,536.2253,534.1081,145.0,535.7217,536.7211,537.2213,537.2214,539.2099,1533.9,539.2101,3.0,540.2055,1.0,4.0,34.0,14.0,1.0,1.6,0.3,Time
,,S35,1,female,30,anonymized,Serial_Dependence_U,2023.2.3,Win32,60.24096386,,,,,,,,,,,,540.2061,1.0,540.2063,,,,542.9442,543.4399,542.4275,542.944,541.2102,180.0,542.4274,543.44,543.94,543.9402,546.9952,1700.3,546.9954,5.0,547.9902,1.0,5.0,35.0,17.0,1.0,1.2,0.7,Time
,,S35,1,female,30,anonymized,Serial_Dependence_U,2023.2.3,Win32,60.24096386,,,,,,,,,,,,547.991,1.0,547.9912,,,,550.7416,551.2411,550.2249,550.7415,549.0078,83.0,550.2248,551.2411,551.7414,551.7414,553.8425,1563.8,553.8427,5.0,554.8423,1.0,6.0,36.0,7.0,1.0,1.2,0.7,Time
,,S35,1,female,30,anonymized,Serial_Dependence_U,2023.2.3,Win32,60.24096386,,,,,,,,,,,,554.843,1.0,554.8432,,,,557.7772,558.2767,557.2605,557.7771,555.8433,143.0,557.2604,558.2767,558.7768,558.777,560.9279,1716.0,560.928,4.0,561.9277,1.0,7.0,37.0,23.0,1.0,1.4,0.3,Time
,,S35,1,female,30,anonymized,Serial_Dependence_U,2023.2.3,Win32,60.24096386,,,,,,,,,,,,561.9283,1.0,561.9285,,,,565.0627,565.562,564.5461,565.0625,562.9288,339.0,564.546,565.5621,566.0622,566.0623,568.18,1620.5,568.1802,3.0,569.1798,1.0,8.0,38.0,9.0,1.0,1.6,0.7,Time
,,S35,1,female,30,anonymized,Serial_Dependence_U,2023.2.3,Win32,60.24096386,,,,,,,,,,,,569.1804,1.0,569.1807,,,,572.1145,572.6141,571.5979,572.1144,570.1809,163.0,571.5978,572.6142,573.1144,573.1144,573.2981,99.5,573.2983,1.0,574.298,1.0,9.0,39.0,28.0,1.0,1.4,0.7,Time
,,S35,1,female,30,anonymized,Serial_Dependence_U,2023.2.3,Win32,60.24096386,,,,,,,,,,,,574.2986,1.0,574.2988,,,,577.4497,577.9491,576.9327,577.4495,575.3157,299.0,576.9326,577.9491,578.4491,578.4492,580.8171,1764.9,580.8172,4.0,581.8169,1.0,10.0,40.0,4.0,1.0,1.6,0.3,Time
,,S35,1,female,30,anonymized,Serial_Dependence_U,2023.2.3,Win32,60.24096386,,,,,,,,,,,,581.8175,1.0,581.8178,,,,584.9519,585.4513,584.435,584.9518,582.8178,302.0,584.4349,585.4513,585.9515,585.9516,587.2356,662.5,587.2358,1.0,588.2354,1.0,11.0,41.0,29.0,1.0,1.6,0.7,Time
,,S35,1,female,30,anonymized,Serial_Dependence_U,2023.2.3,Win32,60.24096386,,,,,,,,,,,,588.236,1.0,588.2364,,,,590.7703,591.2696,590.2535,590.7702,589.2363,153.0,590.2534,591.2697,591.7699,591.77,593.1874,1248.5,593.1876,4.0,594.1874,1.0,12.0,42.0,26.0,1.0,1.0,0.7,Time
,,S35,1,female,30,anonymized,Serial_Dependence_U,2023.2.3,Win32,60.24096386,,,,,,,,,,,,594.188,1.0,594.1882,,,,597.1223,597.6214,596.6054,597.1223,595.1882,299.0,596.6053,597.6215,598.1219,598.1219,602.4234,1783.5,602.4236,4.0,603.4232,1.0,13.0,43.0,8.0,1.0,1.4,0.7,Time
,,S35,1,female,30,anonymized,Serial_Dependence_U,2023.2.3,Win32,60.24096386,,,,,,,,,,,,603.4238,1.0,603.4241,,,,606.3583,606.8577,605.8413,606.3582,604.4242,204.0,605.8412,606.8577,607.358,607.3581,608.9255,1117.0,608.9257,2.0,609.9251,1.0,14.0,44.0,3.0,1.0,1.4,0.3,Time
,,S35,1,female,30,anonymized,Serial_Dependence_U,2023.2.3,Win32,60.24096386,,,,,,,,,,,,609.9256,1.0,609.9259,,,,612.6767,613.1761,612.1598,612.6766,610.9429,5.0,612.1597,613.1761,613.6763,613.6764,615.344,1234.1,615.3441,3.0,616.3438,1.0,15.0,45.0,2.0,1.0,1.2,0.3,Time
,,S35,1,female,30,anonymized,Serial_Dependence_U,2023.2.3,Win32,60.24096386,,,,,,,,,,,,616.3443,1.0,616.3446,,,,618.8952,619.3949,618.3783,618.895,617.3614,42.0,618.3782,619.3949,619.8949,619.895,620.4287,184.0,620.4289,1.0,621.4286,1.0,16.0,46.0,11.0,1.0,1.0,0.3,Time
,,S35,1,female,30,anonymized,Serial_Dependence_U,2023.2.3,Win32,60.24096386,,,,,,,,,,,,621.4293,1.0,621.4294,,,,623.98,624.4794,623.4634,623.9799,622.4462,261.0,623.4632,624.4795,624.9797,624.9797,625.9973,965.2,625.9975,3.0,626.9969,1.0,17.0,47.0,21.0,1.0,1.0,0.3,Time
,,S35,1,female,30,anonymized,Serial_Dependence_U,2023.2.3,Win32,60.24096386,,,,,,,,,,,,626.9976,1.0,626.9979,,,,629.7484,630.2478,629.2315,629.7483,628.0147,358.0,629.2314,630.2478,630.748,630.7482,632.0324,750.6,632.0326,1.0,633.0321,1.0,18.0,48.0,22.0,1.0,1.2,0.3,Time
,,S35,1,female,30,anonymized,Serial_Dependence_U,2023.2.3,Win32,60.24096386,,,,,,,,,,,,633.0327,1.0,633.033,,,,635.767,636.2664,635.2501,635.7669,634.0331,261.0,635.2499,636.2664,636.7665,636.7666,637.634,462.7,637.6341,1.0,638.6337,1.0,19.0,49.0,27.0,1.0,1.2,0.7,Time
,,S35,1,female,30,anonymized,Serial_Dependence_U,2023.2.3,Win32,60.24096386,,,,,,,,,,,,638.6344,1.0,638.6348,,,,640.985,641.4846,640.4684,640.9849,639.6514,176.0,640.4683,641.4846,641.9848,641.9849,642.0519,16.5,642.0521,1.0,643.0516,1.0,20.0,50.0,25.0,1.0,0.8,0.7,Time
,,S35,1,female,30,anonymized,Serial_Dependence_U,2023.2.3,Win32,60.24096386,,,,,,,,,,,,643.0523,1.0,643.0524,,,,645.4031,645.9024,644.8864,645.403,644.0694,186.0,644.8862,645.9025,646.4028,646.4028,648.1037,1099.3,648.1038,5.0,649.1033,1.0,21.0,51.0,15.0,1.0,0.8,0.7,Time
,,S35,1,female,30,anonymized,Serial_Dependence_U,2023.2.3,Win32,60.24096386,,,,,,,,,,,,649.1039,1.0,649.1042,,,,652.255,652.7544,651.7385,652.2548,650.1211,330.0,651.7384,652.7545,653.2547,653.2548,654.072,283.5,654.0723,1.0,655.0718,1.0,22.0,52.0,24.0,1.0,1.6,0.3,Time
,,S35,1,female,30,anonymized,Serial_Dependence_U,2023.2.3,Win32,60.24096386,,,,,,,,,,,,655.0724,1.0,655.0726,,,,657.8076,658.3062,657.29,657.8075,656.073,308.0,657.2898,658.3063,658.8064,658.8064,658.9236,79.5,658.9238,1.0,659.9233,1.0,23.0,53.0,12.0,1.0,1.2,0.3,Time
,,S35,1,female,30,anonymized,Serial_Dependence_U,2023.2.3,Win32,60.24096386,,,,,,,,,,,,659.9238,1.0,659.9241,,,,662.258,662.7575,661.7413,662.2578,660.9243,119.0,661.7412,662.7575,663.2577,663.2578,664.4585,517.0,664.4587,1.0,665.4583,1.0,24.0,54.0,0.0,1.0,0.8,0.3,Time
,,S35,1,female,30,anonymized,Serial_Dependence_U,2023.2.3,Win32,60.24096386,,,,,,,,,,,,665.4589,1.0,665.4592,,,,667.8096,668.3091,667.2928,667.8095,666.4759,283.0,667.2927,668.3093,668.8092,668.8093,670.2267,665.7,670.2269,2.0,671.2268,1.0,25.0,55.0,10.0,1.0,0.8,0.3,Time
,,S35,1,female,30,anonymized,Serial_Dependence_U,2023.2.3,Win32,60.24096386,,,,,,,,,,,,671.2273,1.0,671.2276,,,,673.778,674.2774,673.2612,673.7779,672.2442,112.0,673.2611,674.2775,674.7778,674.7778,677.2456,934.0,677.2458,2.0,678.2454,1.0,26.0,56.0,6.0,1.0,1.0,0.7,Time
,,S35,1,female,30,anonymized,Serial_Dependence_U,2023.2.3,Win32,60.24096386,,,,,,,,,,,,678.2461,1.0,678.2469,,,,681.3971,681.8964,680.8802,681.397,679.263,48.0,680.88,681.8964,682.3967,682.3967,683.6808,900.6,683.681,1.0,684.6806,1.0,27.0,57.0,19.0,1.0,1.6,0.7,Time
,,S35,1,female,30,anonymized,Serial_Dependence_U,2023.2.3,Win32,60.24096386,,,,,,,,,,,,684.6812,1.0,684.6814,,,,687.232,687.7315,686.7153,687.232,685.6981,253.0,686.7152,687.7316,688.2317,688.2318,688.8491,133.2,688.8492,1.0,689.8489,1.0,28.0,58.0,1.0,1.0,1.0,0.3,Time
,,S35,1,female,30,anonymized,Serial_Dependence_U,2023.2.3,Win32,60.24096386,,,,,,,,,,,,689.8494,1.0,689.8496,,,,692.2002,692.6996,691.6834,692.2,690.8665,40.0,691.6832,692.6996,693.1998,693.2,694.7841,704.6999999,694.7843,2.0,695.7839,1.0,29.0,59.0,20.0,1.0,0.8,0.3,Time
,,S35,1,female,30,anonymized,Serial_Dependence_U,2023.2.3,Win32,60.24096386,,,,,,,,,,,,695.7845,2.0,704.6869,s,8.8849,,707.638,708.1376,707.1212,707.6379,705.7042,262.0,707.121,708.1376,708.6377,708.6377,710.3727,1268.0,710.3729,2.0,711.3718,2.0,0.0,60.0,23.0,1.0,1.4,0.3,Time
,,S35,1,female,30,anonymized,Serial_Dependence_U,2023.2.3,Win32,60.24096386,,,,,,,,,,,,711.3724,2.0,711.3759,,,,713.9233,714.4227,713.4064,713.9232,712.3895,189.0,713.4064,714.4227,714.9229,714.9229,716.9073,838.2,716.9075,2.0,717.9073,2.0,1.0,61.0,16.0,1.0,1.0,0.7,Time
,,S35,1,female,30,anonymized,Serial_Dependence_U,2023.2.3,Win32,60.24096386,,,,,,,,,,,,717.9079,2.0,717.9084,,,,721.0419,721.5415,720.5252,721.0418,718.9081,97.0,720.5251,721.5415,722.0417,722.0417,723.4591,826.5,723.4593,1.0,724.459,2.0,2.0,62.0,29.0,1.0,1.6,0.7,Time
,,S35,1,female,30,anonymized,Serial_Dependence_U,2023.2.3,Win32,60.24096386,,,,,,,,,,,,724.4595,2.0,724.4598,,,,727.1938,727.6933,726.677,727.1937,725.46,95.0,726.6769,727.6933,728.1934,728.1935,730.1778,966.3000001,730.178,2.0,731.1786,2.0,3.0,63.0,2.0,1.0,1.2,0.3,Time
,,S35,1,female,30,anonymized,Serial_Dependence_U,2023.2.3,Win32,60.24096386,,,,,,,,,,,,731.1792,2.0,731.1795,,,,734.3171,734.8131,733.801,734.317,732.1831,297.0,733.8009,734.8131,735.3133,735.3133,737.1018,1116.9,737.102,1.0,738.0971,2.0,4.0,64.0,4.0,1.0,1.6,0.3,Time
,,S35,1,female,30,anonymized,Serial_Dependence_U,2023.2.3,Win32,60.24096386,,,,,,,,,,,,738.098,2.0,738.0982,,,,741.2191,741.7149,740.7026,741.219,739.1018,255.0,740.7025,741.715,742.2153,742.2153,745.2707,1250.3,745.271,2.0,746.2663,2.0,5.0,65.0,24.0,1.0,1.6,0.3,Time
,,S35,1,female,30,anonymized,Serial_Dependence_U,2023.2.3,Win32,60.24096386,,,,,,,,,,,,746.2668,2.0,746.2671,,,,748.6048,749.1006,748.088,748.6047,747.2709,165.0,748.088,749.1006,749.6008,749.6009,750.5723,916.9,750.5725,4.0,751.568,2.0,6.0,66.0,15.0,1.0,0.8,0.7,Time
,,S35,1,female,30,anonymized,Serial_Dependence_U,2023.2.3,Win32,60.24096386,,,,,,,,,,,,751.5687,2.0,751.569,,,,754.507,755.0024,753.9898,754.5069,752.5717,129.0,753.9897,755.0024,755.5024,755.5025,757.0911,967.3,757.0914,1.0,758.0866,2.0,7.0,67.0,3.0,1.0,1.4,0.3,Time
,,S35,1,female,30,anonymized,Serial_Dependence_U,2023.2.3,Win32,60.24096386,,,,,,,,,,,,758.0873,2.0,758.0875,,,,760.4251,760.921,759.9082,760.4249,759.0913,15.0,759.9081,760.921,761.4212,761.4213,762.0255,150.0,762.0256,1.0,763.0213,2.0,8.0,68.0,5.0,1.0,0.8,0.7,Time
,,S35,1,female,30,anonymized,Serial_Dependence_U,2023.2.3,Win32,60.24096386,,,,,,,,,,,,763.022,2.0,763.0222,,,,765.7597,766.2557,765.243,765.7596,764.0267,329.0,765.2429,766.2557,766.7559,766.7559,767.4604,101.8,767.4606,1.0,768.4553,2.0,9.0,69.0,12.0,1.0,1.2,0.3,Time
,,S35,1,female,30,anonymized,Serial_Dependence_U,2023.2.3,Win32,60.24096386,,,,,,,,,,,,768.4563,2.0,768.4572,,,,770.9947,771.4906,770.4775,770.9946,769.4614,105.0,770.4775,771.4907,771.9908,771.9908,773.7291,883.1,773.7292,2.0,774.7248,2.0,10.0,70.0,26.0,1.0,1.0,0.7,Time
,,S35,1,female,30,anonymized,Serial_Dependence_U,2023.2.3,Win32,60.24096386,,,,,,,,,,,,774.7254,2.0,774.7256,,,,777.4466,777.9426,776.9295,777.4465,775.7259,94.0,776.9294,777.9426,778.4425,778.4426,780.1484,1001.1,780.1486,2.0,781.1435,2.0,11.0,71.0,27.0,1.0,1.2,0.7,Time
,,S35,1,female,30,anonymized,Serial_Dependence_U,2023.2.3,Win32,60.24096386,,,,,,,,,,,,781.1441,2.0,781.1444,,,,783.8655,784.3643,783.3483,783.8653,782.1456,210.0,783.3482,784.3643,784.8613,784.8613,786.0325,333.2,786.0327,1.0,787.0285,2.0,12.0,72.0,7.0,1.0,1.2,0.7,Time
,,S35,1,female,30,anonymized,Serial_Dependence_U,2023.2.3,Win32,60.24096386,,,,,,,,,,,,787.0291,2.0,787.0294,,,,790.1668,790.6627,789.65,790.1667,788.0331,68.0,789.6499,790.6627,791.163,791.163,793.0346,1150.1,793.0348,2.0,794.0306,2.0,13.0,73.0,9.0,1.0,1.6,0.7,Time
,,S35,1,female,30,anonymized,Serial_Dependence_U,2023.2.3,Win32,60.24096386,,,,,,,,,,,,794.0311,2.0,794.0313,,,,796.352,796.8479,795.837,796.3519,795.0355,114.0,795.8363,796.848,797.3481,797.3481,800.1535,499.8000001,800.1537,1.0,801.1492,2.0,14.0,74.0,0.0,1.0,0.8,0.3,Time
,,S35,1,female,30,anonymized,Serial_Dependence_U,2023.2.3,Win32,60.24096386,,,,,,,,,,,,801.1498,2.0,801.15,,,,803.871,804.3668,803.3546,803.871,802.1539,338.0,803.3545,804.3668,804.8671,804.8671,806.3219,599.9,806.322,1.0,807.321,2.0,15.0,75.0,22.0,1.0,1.2,0.3,Time
,,S35,1,female,30,anonymized,Serial_Dependence_U,2023.2.3,Win32,60.24096386,,,,,,,,,,,,807.3216,2.0,807.3218,,,,810.24,810.7355,809.7393,810.2399,808.3223,57.0,809.7391,810.7355,811.2355,811.2356,812.9237,649.9,812.9239,1.0,813.9197,2.0,16.0,76.0,28.0,1.0,1.4,0.7,Time
,,S35,1,female,30,anonymized,Serial_Dependence_U,2023.2.3,Win32,60.24096386,,,,,,,,,,,,813.9203,2.0,813.9206,,,,817.0583,817.5542,816.5415,817.0583,814.9243,128.0,816.5413,817.5543,818.0544,818.0545,820.5596,633.3,820.5598,1.0,821.5553,2.0,17.0,77.0,14.0,1.0,1.6,0.3,Time
,,S35,1,female,30,anonymized,Serial_Dependence_U,2023.2.3,Win32,60.24096386,,,,,,,,,,,,821.5559,2.0,821.5561,,,,823.8937,824.3897,823.3766,823.8935,822.5598,359.0,823.3765,824.3897,824.8896,824.8897,826.9614,633.3000001,826.9617,2.0,827.9573,2.0,18.0,78.0,10.0,1.0,0.8,0.3,Time
,,S35,1,female,30,anonymized,Serial_Dependence_U,2023.2.3,Win32,60.24096386,,,,,,,,,,,,827.9579,2.0,827.9582,,,,831.0957,831.5916,830.5788,831.0957,828.962,149.0,830.5787,831.5916,832.0919,832.0919,832.8631,273.2,832.8634,1.0,833.8589,2.0,19.0,79.0,19.0,1.0,1.6,0.7,Time
,,S35,1,female,30,anonymized,Serial_Dependence_U,2023.2.3,Win32,60.24096386,,,,,,,,,,,,833.8595,2.0,833.8598,,,,836.3974,836.8932,835.8803,836.3973,834.8782,242.0,835.8802,836.8932,837.3934,837.3935,838.2471,332.5,838.2472,1.0,839.2438,2.0,20.0,80.0,11.0,1.0,1.0,0.3,Time
,,S35,1,female,30,anonymized,Serial_Dependence_U,2023.2.3,Win32,60.24096386,,,,,,,,,,,,839.2445,2.0,839.2448,,,,841.7655,842.2614,841.2632,841.7653,840.2485,331.0,841.2631,842.2615,842.7617,842.7618,843.6829,316.5,843.6831,1.0,844.6789,2.0,21.0,81.0,21.0,1.0,1.0,0.3,Time
,,S35,1,female,30,anonymized,Serial_Dependence_U,2023.2.3,Win32,60.24096386,,,,,,,,,,,,844.6794,2.0,844.6796,,,,847.017,847.513,846.5005,847.0169,845.6833,308.0,846.5004,847.513,848.0132,848.0132,850.7814,290.6,850.7815,1.0,851.7809,2.0,22.0,82.0,25.0,1.0,0.8,0.7,Time
,,S35,1,female,30,anonymized,Serial_Dependence_U,2023.2.3,Win32,60.24096386,,,,,,,,,,,,851.7815,2.0,851.7817,,,,854.1191,854.6151,853.6025,854.1189,852.7855,243.0,853.6024,854.6152,855.1153,855.1154,856.4346,97.60000002,856.4347,1.0,857.4326,2.0,23.0,83.0,20.0,1.0,0.8,0.3,Time
,,S35,1,female,30,anonymized,Serial_Dependence_U,2023.2.3,Win32,60.24096386,,,,,,,,,,,,857.4332,2.0,857.4334,,,,859.9545,860.4502,859.4519,859.9544,858.4372,329.0,859.4519,860.4503,860.9504,860.9504,861.2048,133.1999999,861.205,1.0,862.2007,2.0,24.0,84.0,1.0,1.0,1.0,0.3,Time
,,S35,1,female,30,anonymized,Serial_Dependence_U,2023.2.3,Win32,60.24096386,,,,,,,,,,,,862.2012,2.0,862.2014,,,,865.139,865.6349,864.6223,865.1389,863.2053,316.0,864.6222,865.635,866.1381,866.1382,867.4732,502.0,867.4733,1.0,868.4691,2.0,25.0,85.0,18.0,1.0,1.4,0.7,Time
,,S35,1,female,30,anonymized,Serial_Dependence_U,2023.2.3,Win32,60.24096386,,,,,,,,,,,,868.4697,2.0,868.4699,,,,871.2075,871.7035,870.6906,871.2074,869.4737,37.0,870.6905,871.7036,872.2035,872.2036,872.9247,149.5,872.9248,1.0,873.9208,2.0,26.0,86.0,17.0,1.0,1.2,0.7,Time
,,S35,1,female,30,anonymized,Serial_Dependence_U,2023.2.3,Win32,60.24096386,,,,,,,,,,,,873.9213,2.0,873.9216,,,,876.8425,877.3385,876.326,876.8425,874.922,310.0,876.3259,877.3386,877.8386,877.8388,878.4937,216.8,878.4939,1.0,879.4891,2.0,27.0,87.0,8.0,1.0,1.4,0.7,Time
,,S35,1,female,30,anonymized,Serial_Dependence_U,2023.2.3,Win32,60.24096386,,,,,,,,,,,,879.4896,2.0,879.4899,,,,882.0106,882.5067,881.5083,882.0106,880.4937,294.0,881.5082,882.5068,883.0069,883.007,884.5119,651.0,884.5121,1.0,885.5073,2.0,28.0,88.0,6.0,1.0,1.0,0.7,Time
,,S35,1,female,30,anonymized,Serial_Dependence_U,2023.2.3,Win32,60.24096386,,,,,,,,,,,,885.508,2.0,885.5083,,,,888.4302,888.9253,887.9293,888.43,886.5122,170.0,887.9292,888.9254,889.4254,889.4254,891.3473,599.8000001,891.3475,1.0,892.3429,2.0,29.0,89.0,13.0,1.0,1.4,0.3,Time
,,S35,1,female,30,anonymized,Serial_Dependence_U,2023.2.3,Win32,60.24096386,,,,,,,,,,,,892.3435,3.0,895.1941,s,2.8196,,897.532,898.0279,897.0153,897.5319,896.1991,316.0,897.0151,898.0279,898.5282,898.5282,899.366,249.9000001,899.3662,1.0,900.3626,3.0,0.0,90.0,25.0,1.0,0.8,0.7,Time
,,S35,1,female,30,anonymized,Serial_Dependence_U,2023.2.3,Win32,60.24096386,,,,,,,,,,,,900.3631,3.0,900.3652,,,,902.6836,903.1803,902.1667,902.6836,901.3657,312.0,902.1666,903.1803,903.6796,903.6796,904.8343,687.6,904.8345,2.0,905.83,3.0,1.0,91.0,10.0,1.0,0.8,0.3,Time
,,S35,1,female,30,anonymized,Serial_Dependence_U,2023.2.3,Win32,60.24096386,,,,,,,,,,,,905.8307,3.0,905.831,,,,908.3692,908.8645,907.8518,908.3691,906.8347,25.0,907.8516,908.8646,909.3647,909.3648,910.5193,783.3,910.5195,2.0,911.515,3.0,2.0,92.0,16.0,1.0,1.0,0.7,Time
,,S35,1,female,30,anonymized,Serial_Dependence_U,2023.2.3,Win32,60.24096386,,,,,,,,,,,,911.5156,3.0,911.5158,,,,914.6538,915.1497,914.1371,914.6537,912.5365,153.0,914.137,915.1498,915.6498,915.6499,915.7379,50.20000005,915.7383,1.0,916.7335,3.0,3.0,93.0,4.0,1.0,1.6,0.3,Time
,,S35,1,female,30,anonymized,Serial_Dependence_U,2023.2.3,Win32,60.24096386,,,,,,,,,,,,916.734,3.0,916.7343,,,,919.2718,919.7677,918.7549,919.2717,917.7387,242.0,918.7548,919.7677,920.2677,920.2678,921.3225,550.5,921.3227,1.0,922.3184,3.0,4.0,94.0,1.0,1.0,1.0,0.3,Time
,,S35,1,female,30,anonymized,Serial_Dependence_U,2023.2.3,Win32,60.24096386,,,,,,,,,,,,922.319,3.0,922.3192,,,,925.0544,925.5526,924.5401,925.0544,923.323,152.0,924.54,925.5527,926.053,926.053,927.4244,1100.3,927.4246,2.0,928.4201,3.0,5.0,95.0,17.0,1.0,1.2,0.7,Time
,,S35,1,female,30,anonymized,Serial_Dependence_U,2023.2.3,Win32,60.24096386,,,,,,,,,,,,928.4207,3.0,928.4209,,,,931.1587,931.6544,930.6419,931.1586,929.4248,84.0,930.6418,931.6545,932.1548,932.1548,934.3599,990.9,934.3601,2.0,935.3556,3.0,6.0,96.0,7.0,1.0,1.2,0.7,Time
,,S35,1,female,30,anonymized,Serial_Dependence_U,2023.2.3,Win32,60.24096386,,,,,,,,,,,,935.3561,3.0,935.3563,,,,938.0774,938.5733,937.5736,938.0772,936.3604,9.0,937.5736,938.5733,939.0736,939.0736,939.9949,866.7,939.9952,2.0,940.9908,3.0,7.0,97.0,22.0,1.0,1.2,0.3,Time
,,S35,1,female,30,anonymized,Serial_Dependence_U,2023.2.3,Win32,60.24096386,,,,,,,,,,,,940.9913,3.0,940.9916,,,,943.3291,943.8248,942.8123,943.3289,941.9953,247.0,942.8122,943.8249,944.3251,944.3252,945.8629,299.5,945.8631,1.0,946.8594,3.0,8.0,98.0,0.0,1.0,0.8,0.3,Time
,,S35,1,female,30,anonymized,Serial_Dependence_U,2023.2.3,Win32,60.24096386,,,,,,,,,,,,946.8599,3.0,946.8601,,,,949.9838,950.4766,949.4809,949.9836,947.8636,179.0,949.4808,950.4767,950.9798,950.9799,951.5315,483.3000001,951.5318,1.0,952.5274,3.0,9.0,99.0,24.0,1.0,1.6,0.3,Time
,,S35,1,female,30,anonymized,Serial_Dependence_U,2023.2.3,Win32,60.24096386,,,,,,,,,,,,952.5278,3.0,952.5282,,,,955.2657,955.7613,954.7489,955.2656,953.5324,199.0,954.7488,955.7614,956.2619,956.262,957.7001,316.8,957.7003,1.0,958.6958,3.0,10.0,100.0,12.0,1.0,1.2,0.3,Time
,,S35,1,female,30,anonymized,Serial_Dependence_U,2023.2.3,Win32,60.24096386,,,,,,,,,,,,958.6964,3.0,958.6967,,,,961.0174,961.5132,960.5151,961.0173,959.7004,111.0,960.5149,961.5133,962.0135,962.0135,968.0201,9999.0,968.0203,0.0,969.0155,3.0,11.0,101.0,5.0,1.0,0.8,0.7,Time
,,S35,1,female,30,anonymized,Serial_Dependence_U,2023.2.3,Win32,60.24096386,,,,,,,,,,,,969.0161,3.0,969.0164,,,,971.754,972.2499,971.2371,971.7539,970.0201,328.0,971.237,972.25,972.753,972.753,973.2882,99.89999998,973.2884,1.0,974.2838,3.0,12.0,102.0,27.0,1.0,1.2,0.7,Time
,,S35,1,female,30,anonymized,Serial_Dependence_U,2023.2.3,Win32,60.24096386,,,,,,,,,,,,974.2842,3.0,974.2845,,,,977.2055,977.7016,976.6891,977.2055,975.2882,279.0,976.6889,977.7016,978.2017,978.2017,979.9731,516.6999999,979.9733,1.0,980.9691,3.0,13.0,103.0,23.0,1.0,1.4,0.3,Time
,,S35,1,female,30,anonymized,Serial_Dependence_U,2023.2.3,Win32,60.24096386,,,,,,,,,,,,980.9696,3.0,980.9699,,,,983.5078,984.0035,982.9908,983.5077,981.9735,245.0,982.9907,984.0035,984.5065,984.5066,985.0875,104.0,985.0877,1.0,986.0874,3.0,14.0,104.0,6.0,1.0,1.0,0.7,Time
,,S35,1,female,30,anonymized,Serial_Dependence_U,2023.2.3,Win32,60.24096386,,,,,,,,,,,,986.088,3.0,986.0883,,,,989.0091,989.5051,988.5054,989.009,987.0919,41.0,988.5053,989.5052,990.0049,990.005,991.1266,666.8,991.1268,1.0,992.1224,3.0,15.0,105.0,28.0,1.0,1.4,0.7,Time
,,S35,1,female,30,anonymized,Serial_Dependence_U,2023.2.3,Win32,60.24096386,,,,,,,,,,,,992.123,3.0,992.1232,,,,994.6606,995.1566,994.1437,994.6605,993.1271,285.0,994.1436,995.1566,995.6567,995.6568,997.2119,1016.9,997.2121,3.0,998.2074,3.0,16.0,106.0,11.0,1.0,1.0,0.3,Time
,,S35,1,female,30,anonymized,Serial_Dependence_U,2023.2.3,Win32,60.24096386,,,,,,,,,,,,998.2082,3.0,998.2084,,,,1000.5289,1001.025,1000.0259,1000.5288,999.212,12.0,1000.0256,1001.025,1001.5251,1001.5253,1002.5634,666.6,1002.5636,2.0,1003.5592,3.0,17.0,107.0,15.0,1.0,0.8,0.7,Time
,,S35,1,female,30,anonymized,Serial_Dependence_U,2023.2.3,Win32,60.24096386,,,,,,,,,,,,1003.5598,3.0,1003.5601,,,,1006.4976,1006.9934,1005.9807,1006.4975,1004.5637,282.0,1005.9806,1006.9935,1007.4937,1007.4937,1008.5323,633.9,1008.5325,1.0,1009.5276,3.0,18.0,108.0,8.0,1.0,1.4,0.7,Time
,,S35,1,female,30,anonymized,Serial_Dependence_U,2023.2.3,Win32,60.24096386,,,,,,,,,,,,1009.5281,3.0,1009.5283,,,,1012.4662,1012.9621,1011.9494,1012.4662,1010.5322,176.0,1011.9494,1012.9621,1013.4621,1013.4621,1014.9668,1066.5,1014.9669,2.0,1015.9629,3.0,19.0,109.0,13.0,1.0,1.4,0.3,Time
,,S35,1,female,30,anonymized,Serial_Dependence_U,2023.2.3,Win32,60.24096386,,,,,,,,,,,,1015.9635,3.0,1015.9638,,,,1018.5011,1018.9971,1017.9844,1018.501,1016.9672,76.0,1017.9843,1018.9971,1019.4974,1019.4974,1019.7015,181.9000001,1019.7016,1.0,1020.6976,3.0,20.0,110.0,26.0,1.0,1.0,0.7,Time
,,S35,1,female,30,anonymized,Serial_Dependence_U,2023.2.3,Win32,60.24096386,,,,,,,,,,,,1020.6981,3.0,1020.6983,,,,1023.8362,1024.3319,1023.3194,1023.8361,1021.7021,102.0,1023.3193,1024.332,1024.8322,1024.8322,1026.3204,1183.8,1026.3207,2.0,1027.3162,3.0,21.0,111.0,29.0,1.0,1.6,0.7,Time
,,S35,1,female,30,anonymized,Serial_Dependence_U,2023.2.3,Win32,60.24096386,,,,,,,,,,,,1027.317,3.0,1027.3174,,,,1030.2583,1030.7506,1029.7375,1030.2582,1028.321,205.0,1029.7374,1030.7506,1031.2506,1031.2506,1031.3551,66.89999998,1031.3553,1.0,1032.351,3.0,22.0,112.0,3.0,1.0,1.4,0.3,Time
,,S35,1,female,30,anonymized,Serial_Dependence_U,2023.2.3,Win32,60.24096386,,,,,,,,,,,,1032.3515,3.0,1032.3517,,,,1035.4895,1035.9854,1034.9735,1035.4894,1033.3557,134.0,1034.9734,1035.9854,1036.4855,1036.4856,1039.2575,2667.4,1039.2578,5.0,1040.2534,3.0,23.0,113.0,9.0,1.0,1.6,0.7,Time
,,S35,1,female,30,anonymized,Serial_Dependence_U,2023.2.3,Win32,60.24096386,,,,,,,,,,,,1040.2539,3.0,1040.2542,,,,1043.1919,1043.6875,1042.6749,1043.1919,1041.258,61.0,1042.6748,1043.6875,1044.1878,1044.1879,1045.4595,800.5,1045.4596,1.0,1046.4552,3.0,24.0,114.0,18.0,1.0,1.4,0.7,Time
,,S35,1,female,30,anonymized,Serial_Dependence_U,2023.2.3,Win32,60.24096386,,,,,,,,,,,,1046.4557,3.0,1046.4559,,,,1048.9933,1049.4894,1048.4769,1048.9933,1047.4597,287.0,1048.4768,1049.4895,1049.9896,1049.9897,1051.5781,900.2,1051.5783,2.0,1052.5736,3.0,25.0,115.0,21.0,1.0,1.0,0.3,Time
,,S35,1,female,30,anonymized,Serial_Dependence_U,2023.2.3,Win32,60.24096386,,,,,,,,,,,,1052.5742,3.0,1052.5744,,,,1055.7288,1056.2247,1055.2116,1055.7287,1053.595,256.0,1055.2115,1056.2247,1056.7248,1056.725,1057.4001,648.3000001,1057.4003,1.0,1058.3926,3.0,26.0,116.0,14.0,1.0,1.6,0.3,Time
,,S35,1,female,30,anonymized,Serial_Dependence_U,2023.2.3,Win32,60.24096386,,,,,,,,,,,,1058.3936,3.0,1058.3941,,,,1061.1303,1061.6263,1060.6136,1061.1301,1059.3969,278.0,1060.6136,1061.6263,1062.1265,1062.1265,1062.2145,65.29999995,1062.2147,1.0,1063.2102,3.0,27.0,117.0,2.0,1.0,1.2,0.3,Time
,,S35,1,female,30,anonymized,Serial_Dependence_U,2023.2.3,Win32,60.24096386,,,,,,,,,,,,1063.2107,3.0,1063.2111,,,,1066.3319,1066.8279,1065.8156,1066.3316,1064.2124,103.0,1065.8155,1066.828,1067.328,1067.3282,1070.45,1250.0,1070.4502,2.0,1071.4458,3.0,28.0,118.0,19.0,1.0,1.6,0.7,Time
,,S35,1,female,30,anonymized,Serial_Dependence_U,2023.2.3,Win32,60.24096386,,,,,,,,,,,,1071.4463,3.0,1071.4466,,,,1073.7673,1074.2632,1073.2512,1073.7673,1072.4503,196.0,1073.251,1074.2633,1074.7635,1074.7636,1075.9846,699.8,1075.9849,2.0,1076.9809,3.0,29.0,119.0,20.0,1.0,0.8,0.3,Time
,,S35,1,female,30,anonymized,Serial_Dependence_U,2023.2.3,Win32,60.24096386,,,,,,,,,,,,1076.9814,4.0,1079.1984,s,2.1879,,1081.7198,1082.2157,1081.2175,1081.7198,1080.2025,1.0,1081.2173,1082.2158,1082.716,1082.716,1083.7372,286.8,1083.7373,1.0,1084.733,4.0,0.0,120.0,16.0,1.0,1.0,0.7,Time
,,S35,1,female,30,anonymized,Serial_Dependence_U,2023.2.3,Win32,60.24096386,,,,,,,,,,,,1084.7337,4.0,1084.7351,,,,1087.2713,1087.7674,1086.7544,1087.2712,1085.7375,52.0,1086.7542,1087.7674,1088.2675,1088.2675,1092.4063,499.9,1092.4065,1.0,1093.4053,4.0,1.0,121.0,1.0,1.0,1.0,0.3,Time
,,S35,1,female,30,anonymized,Serial_Dependence_U,2023.2.3,Win32,60.24096386,,,,,,,,,,,,1093.4059,4.0,1093.4061,,,,1096.3242,1096.8231,1095.8077,1096.324,1094.407,173.0,1095.8076,1096.8232,1097.3211,1097.3212,1097.642,299.1,1097.6422,1.0,1098.6371,4.0,2.0,122.0,13.0,1.0,1.4,0.3,Time
,,S35,1,female,30,anonymized,Serial_Dependence_U,2023.2.3,Win32,60.24096386,,,,,,,,,,,,1098.6377,4.0,1098.638,,,,1101.3595,1101.8547,1100.8568,1101.3594,1099.6416,178.0,1100.8567,1101.8547,1102.355,1102.3551,1104.0767,1333.6,1104.0769,4.0,1105.0724,4.0,3.0,123.0,7.0,1.0,1.2,0.7,Time
,,S35,1,female,30,anonymized,Serial_Dependence_U,2023.2.3,Win32,60.24096386,,,,,,,,,,,,1105.0732,4.0,1105.0736,,,,1107.6112,1108.1067,1107.0939,1107.6111,1106.0771,299.0,1107.0938,1108.1067,1108.6103,1108.6104,1109.7617,1117.2,1109.7619,4.0,1110.7574,4.0,4.0,124.0,26.0,1.0,1.0,0.7,Time
,,S35,1,female,30,anonymized,Serial_Dependence_U,2023.2.3,Win32,60.24096386,,,,,,,,,,,,1110.758,4.0,1110.7583,,,,1113.2959,1113.7917,1112.779,1113.2957,1111.7619,140.0,1112.7789,1113.7918,1114.2919,1114.2919,1115.98,1385.9,1115.9802,5.0,1116.9759,4.0,5.0,125.0,11.0,1.0,1.0,0.3,Time
,,S35,1,female,30,anonymized,Serial_Dependence_U,2023.2.3,Win32,60.24096386,,,,,,,,,,,,1116.9767,4.0,1116.9769,,,,1120.0824,1120.5771,1119.5815,1120.0823,1117.9805,157.0,1119.5813,1120.5772,1121.0769,1121.0771,1122.7321,1267.1,1122.7322,2.0,1123.7279,4.0,6.0,126.0,9.0,1.0,1.6,0.7,Time
,,S35,1,female,30,anonymized,Serial_Dependence_U,2023.2.3,Win32,60.24096386,,,,,,,,,,,,1123.7285,4.0,1123.7289,,,,1126.2664,1126.7621,1125.7498,1126.2662,1124.7325,296.0,1125.7497,1126.7621,1127.2625,1127.2626,1128.8675,1233.6,1128.8677,4.0,1129.8633,4.0,7.0,127.0,6.0,1.0,1.0,0.7,Time
,,S35,1,female,30,anonymized,Serial_Dependence_U,2023.2.3,Win32,60.24096386,,,,,,,,,,,,1129.864,4.0,1129.8643,,,,1132.8016,1133.2973,1132.2851,1132.8015,1130.8678,177.0,1132.285,1133.2975,1133.7975,1133.7976,1135.5698,1117.6,1135.57,2.0,1136.565,4.0,8.0,128.0,8.0,1.0,1.4,0.7,Time
,,S35,1,female,30,anonymized,Serial_Dependence_U,2023.2.3,Win32,60.24096386,,,,,,,,,,,,1136.5656,4.0,1136.5659,,,,1139.5,1139.9994,1138.9869,1139.5,1137.5697,27.0,1138.9868,1139.9994,1140.4996,1140.4998,1142.4712,1300.4,1142.4715,2.0,1143.4672,4.0,9.0,129.0,18.0,1.0,1.4,0.7,Time
,,S35,1,female,30,anonymized,Serial_Dependence_U,2023.2.3,Win32,60.24096386,,,,,,,,,,,,1143.4678,4.0,1143.4679,,,,1145.8032,1146.3012,1145.2891,1145.8031,1144.4717,80.0,1145.2889,1146.3012,1146.8014,1146.8014,1147.8729,466.7,1147.8731,1.0,1148.8687,4.0,10.0,130.0,10.0,1.0,0.8,0.3,Time
,,S35,1,female,30,anonymized,Serial_Dependence_U,2023.2.3,Win32,60.24096386,,,,,,,,,,,,1148.8692,4.0,1148.8694,,,,1151.207,1151.7029,1150.6899,1151.2069,1149.8734,300.0,1150.6898,1151.7029,1152.203,1152.2032,1153.6245,1016.9,1153.6247,4.0,1154.6205,4.0,11.0,131.0,15.0,1.0,0.8,0.7,Time
,,S35,1,female,30,anonymized,Serial_Dependence_U,2023.2.3,Win32,60.24096386,,,,,,,,,,,,1154.621,4.0,1154.6213,,,,1157.7595,1158.2549,1157.2428,1157.7594,1155.625,109.0,1157.2426,1158.255,1158.755,1158.7551,1160.3935,1283.5,1160.3937,2.0,1161.3891,4.0,12.0,132.0,24.0,1.0,1.6,0.3,Time
,,S35,1,female,30,anonymized,Serial_Dependence_U,2023.2.3,Win32,60.24096386,,,,,,,,,,,,1161.3897,4.0,1161.3898,,,,1163.9106,1164.4096,1163.3953,1163.9105,1162.394,265.0,1163.3951,1164.4097,1164.9068,1164.9069,1166.7451,1767.7,1166.7453,5.0,1167.7411,4.0,13.0,133.0,21.0,1.0,1.0,0.3,Time
,,S35,1,female,30,anonymized,Serial_Dependence_U,2023.2.3,Win32,60.24096386,,,,,,,,,,,,1167.7416,4.0,1167.742,,,,1170.8629,1171.3587,1170.3461,1170.8628,1168.7453,152.0,1170.346,1171.3587,1171.8591,1171.8591,1172.5135,632.0,1172.5136,1.0,1173.5093,4.0,14.0,134.0,29.0,1.0,1.6,0.7,Time
,,S35,1,female,30,anonymized,Serial_Dependence_U,2023.2.3,Win32,60.24096386,,,,,,,,,,,,1173.5099,4.0,1173.5101,,,,1176.6312,1177.1271,1176.1147,1176.6311,1174.5138,240.0,1176.1146,1177.1271,1177.6273,1177.6274,1179.1988,1116.9,1179.199,1.0,1180.1946,4.0,15.0,135.0,14.0,1.0,1.6,0.3,Time
,,S35,1,female,30,anonymized,Serial_Dependence_U,2023.2.3,Win32,60.24096386,,,,,,,,,,,,1180.1952,4.0,1180.1955,,,,1182.9165,1183.4151,1182.4,1182.9164,1181.1993,203.0,1182.3999,1183.4151,1183.9124,1183.9125,1185.7675,716.7,1185.7677,1.0,1186.7632,4.0,16.0,136.0,12.0,1.0,1.2,0.3,Time
,,S35,1,female,30,anonymized,Serial_Dependence_U,2023.2.3,Win32,60.24096386,,,,,,,,,,,,1186.7638,4.0,1186.7641,,,,1189.9019,1190.3977,1189.3854,1189.9018,1187.768,336.0,1189.3853,1190.3977,1190.8978,1190.8979,1192.4859,1133.4,1192.486,2.0,1193.4818,4.0,17.0,137.0,19.0,1.0,1.6,0.7,Time
,,S35,1,female,30,anonymized,Serial_Dependence_U,2023.2.3,Win32,60.24096386,,,,,,,,,,,,1193.4826,4.0,1193.4829,,,,1196.4001,1196.8995,1195.8873,1196.4,1194.4865,102.0,1195.8872,1196.8996,1197.3997,1197.3998,1198.9213,1260.1,1198.9215,2.0,1199.9173,4.0,18.0,138.0,28.0,1.0,1.4,0.7,Time
,,S35,1,female,30,anonymized,Serial_Dependence_U,2023.2.3,Win32,60.24096386,,,,,,,,,,,,1199.9179,4.0,1199.9181,,,,1202.6558,1203.1515,1202.1386,1202.6556,1200.9219,193.0,1202.1385,1203.1515,1203.6516,1203.6516,1203.8063,116.4,1203.8065,1.0,1204.802,4.0,19.0,139.0,17.0,1.0,1.2,0.7,Time
,,S35,1,female,30,anonymized,Serial_Dependence_U,2023.2.3,Win32,60.24096386,,,,,,,,,,,,1204.8026,4.0,1204.8028,,,,1207.1403,1207.636,1206.6241,1207.1402,1205.8067,285.0,1206.624,1207.636,1208.1362,1208.1363,1209.0408,399.9,1209.041,1.0,1210.0367,4.0,20.0,140.0,0.0,1.0,0.8,0.3,Time
,,S35,1,female,30,anonymized,Serial_Dependence_U,2023.2.3,Win32,60.24096386,,,,,,,,,,,,1210.0373,4.0,1210.0378,,,,1212.9757,1213.4711,1212.4588,1212.9756,1211.0419,49.0,1212.4586,1213.4712,1213.9712,1213.9713,1215.6593,1233.5,1215.6595,2.0,1216.6554,4.0,21.0,141.0,23.0,1.0,1.4,0.3,Time
,,S35,1,female,30,anonymized,Serial_Dependence_U,2023.2.3,Win32,60.24096386,,,,,,,,,,,,1216.6559,4.0,1216.6561,,,,1219.3939,1219.8897,1218.8772,1219.3938,1217.6601,276.0,1218.877,1219.8898,1220.3899,1220.39,1222.0616,1283.8,1222.0618,4.0,1223.0573,4.0,22.0,142.0,27.0,1.0,1.2,0.7,Time
,,S35,1,female,30,anonymized,Serial_Dependence_U,2023.2.3,Win32,60.24096386,,,,,,,,,,,,1223.0579,4.0,1223.0582,,,,1225.3789,1225.8748,1224.8628,1225.3788,1224.0618,80.0,1224.8627,1225.8749,1226.3748,1226.3748,1228.0798,1183.4,1228.08,5.0,1229.0757,4.0,23.0,143.0,25.0,1.0,0.8,0.7,Time
,,S35,1,female,30,anonymized,Serial_Dependence_U,2023.2.3,Win32,60.24096386,,,,,,,,,,,,1229.0764,4.0,1229.0766,,,,1231.4141,1231.91,1230.8977,1231.4141,1230.0802,192.0,1230.8976,1231.9101,1232.4131,1232.4131,1233.4316,663.4,1233.4318,2.0,1234.4274,4.0,24.0,144.0,20.0,1.0,0.8,0.3,Time
,,S35,1,female,30,anonymized,Serial_Dependence_U,2023.2.3,Win32,60.24096386,,,,,,,,,,,,1234.4279,4.0,1234.4282,,,,1236.7656,1237.2615,1236.2493,1236.7655,1235.4319,128.0,1236.2492,1237.2615,1237.7618,1237.7619,1239.0666,900.0999999,1239.0669,4.0,1240.0623,4.0,25.0,145.0,5.0,1.0,0.8,0.7,Time
,,S35,1,female,30,anonymized,Serial_Dependence_U,2023.2.3,Win32,60.24096386,,,,,,,,,,,,1240.063,4.0,1240.0632,,,,1242.8007,1243.2967,1242.284,1242.8005,1241.0667,54.0,1242.2838,1243.2968,1243.7968,1243.7968,1244.9183,700.0,1244.9184,1.0,1245.9142,4.0,26.0,146.0,22.0,1.0,1.2,0.3,Time
,,S35,1,female,30,anonymized,Serial_Dependence_U,2023.2.3,Win32,60.24096386,,,,,,,,,,,,1245.9147,4.0,1245.915,,,,1248.6526,1249.1483,1248.1358,1248.6525,1246.9187,147.0,1248.1357,1249.1484,1249.6486,1249.6486,1250.3535,167.0,1250.3536,1.0,1251.3518,4.0,27.0,147.0,2.0,1.0,1.2,0.3,Time
,,S35,1,female,30,anonymized,Serial_Dependence_U,2023.2.3,Win32,60.24096386,,,,,,,,,,,,1251.3525,4.0,1251.3527,,,,1254.2876,1254.7834,1253.7707,1254.2874,1252.3538,141.0,1253.7706,1254.7834,1255.2836,1255.2836,1256.5886,950.4000001,1256.5888,1.0,1257.5842,4.0,28.0,148.0,3.0,1.0,1.4,0.3,Time
,,S35,1,female,30,anonymized,Serial_Dependence_U,2023.2.3,Win32,60.24096386,,,,,,,,,,,,1257.5849,4.0,1257.5852,,,,1260.7227,1261.2184,1260.2057,1260.7227,1258.5886,199.0,1260.2056,1261.2185,1261.7188,1261.7189,1262.3735,632.2,1262.3736,1.0,1263.3692,4.0,29.0,149.0,4.0,1.0,1.6,0.3,Time
,,S35,1,female,30,anonymized,Serial_Dependence_U,2023.2.3,Win32,60.24096386,,,,,,,,,,,,1263.3699,5.0,1305.8319,s,42.432,,1308.17,1308.6659,1307.6533,1308.1699,1306.8364,106.0,1307.6532,1308.6659,1309.1661,1309.1661,1310.3887,817.2,1310.389,3.0,1311.3832,5.0,0.0,150.0,5.0,1.0,0.8,0.7,Time
,,S35,1,female,30,anonymized,Serial_Dependence_U,2023.2.3,Win32,60.24096386,,,,,,,,,,,,1311.3837,5.0,1311.3853,,,,1313.9221,1314.4175,1313.4067,1313.9219,1312.3884,121.0,1313.4066,1314.4176,1314.9177,1314.9178,1316.156,950.4000001,1316.1562,3.0,1317.1519,5.0,1.0,151.0,11.0,1.0,1.0,0.3,Time
,,S35,1,female,30,anonymized,Serial_Dependence_U,2023.2.3,Win32,60.24096386,,,,,,,,,,,,1317.1524,5.0,1317.1526,,,,1320.0901,1320.5859,1319.5732,1320.0899,1318.1563,152.0,1319.5731,1320.5861,1321.0865,1321.0865,1321.191,83.30000007,1321.1914,1.0,1322.1866,5.0,2.0,152.0,23.0,1.0,1.4,0.3,Time
,,S35,1,female,30,anonymized,Serial_Dependence_U,2023.2.3,Win32,60.24096386,,,,,,,,,,,,1322.1871,5.0,1322.1875,,,,1325.1252,1325.6207,1324.608,1325.1251,1323.1911,131.0,1324.6079,1325.6208,1326.1209,1326.121,1327.0256,816.3,1327.0258,1.0,1328.0216,5.0,3.0,153.0,13.0,1.0,1.4,0.3,Time
,,S35,1,female,30,anonymized,Serial_Dependence_U,2023.2.3,Win32,60.24096386,,,,,,,,,,,,1328.0222,5.0,1328.0224,,,,1331.1436,1331.6394,1330.641,1331.1435,1329.0264,187.0,1330.6408,1331.6394,1332.1402,1332.1403,1334.2451,1700.6,1334.2453,4.0,1335.2404,5.0,4.0,154.0,9.0,1.0,1.6,0.7,Time
,,S35,1,female,30,anonymized,Serial_Dependence_U,2023.2.3,Win32,60.24096386,,,,,,,,,,,,1335.2411,5.0,1335.2414,,,,1338.3792,1338.8748,1337.8624,1338.3791,1336.2452,213.0,1337.8622,1338.8749,1339.375,1339.375,1341.0631,1233.6,1341.0634,2.0,1342.0592,5.0,5.0,155.0,14.0,1.0,1.6,0.3,Time
,,S35,1,female,30,anonymized,Serial_Dependence_U,2023.2.3,Win32,60.24096386,,,,,,,,,,,,1342.0597,5.0,1342.0599,,,,1344.4018,1344.8932,1343.8809,1344.4016,1343.0637,270.0,1343.8807,1344.8932,1345.3936,1345.3936,1346.6293,764.1,1346.6295,3.0,1347.6275,5.0,6.0,156.0,0.0,1.0,0.8,0.3,Time
,,S35,1,female,30,anonymized,Serial_Dependence_U,2023.2.3,Win32,60.24096386,,,,,,,,,,,,1347.6279,5.0,1347.6282,,,,1350.5659,1351.0617,1350.0489,1350.5658,1348.6318,101.0,1350.0487,1351.0618,1351.5652,1351.5652,1351.6995,116.4000001,1351.6997,1.0,1352.6946,5.0,7.0,157.0,18.0,1.0,1.4,0.7,Time
,,S35,1,female,30,anonymized,Serial_Dependence_U,2023.2.3,Win32,60.24096386,,,,,,,,,,,,1352.6953,5.0,1352.6955,,,,1355.4461,1355.9456,1354.9292,1355.446,1353.7125,42.0,1354.9291,1355.9456,1356.4459,1356.4459,1357.6466,793.5999999,1357.6468,1.0,1358.6463,5.0,8.0,158.0,22.0,1.0,1.2,0.3,Time
,,S35,1,female,30,anonymized,Serial_Dependence_U,2023.2.3,Win32,60.24096386,,,,,,,,,,,,1358.6468,5.0,1358.6471,,,,1360.9977,1361.4972,1360.4809,1360.9976,1359.664,94.0,1360.4808,1361.4973,1361.9974,1361.9975,1363.0649,569.0,1363.0651,2.0,1364.0646,5.0,9.0,159.0,20.0,1.0,0.8,0.3,Time
,,S35,1,female,30,anonymized,Serial_Dependence_U,2023.2.3,Win32,60.24096386,,,,,,,,,,,,1364.0652,5.0,1364.0654,,,,1367.1996,1367.699,1366.6829,1367.1995,1365.0656,121.0,1366.6828,1367.6991,1368.1993,1368.1994,1369.6835,1165.9,1369.6837,2.0,1370.6833,5.0,10.0,160.0,29.0,1.0,1.6,0.7,Time
,,S35,1,female,30,anonymized,Serial_Dependence_U,2023.2.3,Win32,60.24096386,,,,,,,,,,,,1370.6838,5.0,1370.684,,,,1373.6182,1374.1176,1373.1014,1373.6181,1371.6843,22.0,1373.1013,1374.1176,1374.6177,1374.6179,1376.2354,1132.5,1376.2356,2.0,1377.2352,5.0,11.0,161.0,3.0,1.0,1.4,0.3,Time
,,S35,1,female,30,anonymized,Serial_Dependence_U,2023.2.3,Win32,60.24096386,,,,,,,,,,,,1377.2358,5.0,1377.236,,,,1380.3703,1380.8696,1379.8533,1380.3701,1378.2363,194.0,1379.8532,1380.8696,1381.3697,1381.3699,1382.1371,670.4,1382.1374,1.0,1383.137,5.0,12.0,162.0,4.0,1.0,1.6,0.3,Time
,,S35,1,female,30,anonymized,Serial_Dependence_U,2023.2.3,Win32,60.24096386,,,,,,,,,,,,1383.1374,5.0,1383.1377,,,,1386.0885,1386.588,1385.5716,1386.0884,1384.1546,234.0,1385.5715,1386.588,1387.088,1387.0881,1388.4559,893.3,1388.456,1.0,1389.4554,5.0,13.0,163.0,8.0,1.0,1.4,0.7,Time
,,S35,1,female,30,anonymized,Serial_Dependence_U,2023.2.3,Win32,60.24096386,,,,,,,,,,,,1389.456,5.0,1389.4562,,,,1392.1903,1392.6898,1391.6735,1392.1902,1390.4564,150.0,1391.6734,1392.6898,1393.1899,1393.1899,1395.8413,1368.8,1395.8415,4.0,1396.8409,5.0,14.0,164.0,12.0,1.0,1.2,0.3,Time
,,S35,1,female,30,anonymized,Serial_Dependence_U,2023.2.3,Win32,60.24096386,,,,,,,,,,,,1396.8415,5.0,1396.842,,,,1399.976,1400.4755,1399.4591,1399.9758,1397.842,335.0,1399.4589,1400.4755,1400.9756,1400.9757,1402.143,827.2,1402.1432,1.0,1403.143,5.0,15.0,165.0,19.0,1.0,1.6,0.7,Time
,,S35,1,female,30,anonymized,Serial_Dependence_U,2023.2.3,Win32,60.24096386,,,,,,,,,,,,1403.1437,5.0,1403.1439,,,,1406.2779,1406.7773,1405.7609,1406.2778,1404.1439,229.0,1405.7608,1406.7773,1407.2774,1407.2774,1409.0284,1200.5,1409.0286,2.0,1410.0282,5.0,16.0,166.0,24.0,1.0,1.6,0.3,Time
,,S35,1,female,30,anonymized,Serial_Dependence_U,2023.2.3,Win32,60.24096386,,,,,,,,,,,,1410.0288,5.0,1410.0291,,,,1412.7798,1413.2793,1412.2629,1412.7796,1411.0459,202.0,1412.2628,1413.2793,1413.7794,1413.7794,1415.3972,1132.4,1415.3983,2.0,1416.3968,5.0,17.0,167.0,17.0,1.0,1.2,0.7,Time
,,S35,1,female,30,anonymized,Serial_Dependence_U,2023.2.3,Win32,60.24096386,,,,,,,,,,,,1416.3975,5.0,1416.3982,,,,1418.7315,1419.2309,1418.2147,1418.7313,1417.3981,74.0,1418.2146,1419.231,1419.7311,1419.7312,1421.1988,1016.9,1421.199,4.0,1422.1986,5.0,18.0,168.0,10.0,1.0,0.8,0.3,Time
,,S35,1,female,30,anonymized,Serial_Dependence_U,2023.2.3,Win32,60.24096386,,,,,,,,,,,,1422.1991,5.0,1422.1994,,,,1424.9499,1425.4494,1424.4332,1424.9498,1423.2163,121.0,1424.4331,1425.4495,1425.9497,1425.9497,1429.351,1138.0,1429.3512,2.0,1430.351,5.0,19.0,169.0,27.0,1.0,1.2,0.7,Time
,,S35,1,female,30,anonymized,Serial_Dependence_U,2023.2.3,Win32,60.24096386,,,,,,,,,,,,1430.3515,5.0,1430.3518,,,,1432.8858,1433.3857,1432.3689,1432.8856,1431.3519,215.0,1432.3688,1433.3858,1433.8853,1433.8853,1435.153,853.7,1435.1532,2.0,1436.1526,5.0,20.0,170.0,1.0,1.0,1.0,0.3,Time
,,S35,1,female,30,anonymized,Serial_Dependence_U,2023.2.3,Win32,60.24096386,,,,,,,,,,,,1436.1531,5.0,1436.1533,,,,1438.8876,1439.387,1438.3707,1438.8874,1437.1537,164.0,1438.3706,1439.387,1439.887,1439.8871,1441.4714,1062.2,1441.4716,2.0,1442.4712,5.0,21.0,171.0,2.0,1.0,1.2,0.3,Time
,,S35,1,female,30,anonymized,Serial_Dependence_U,2023.2.3,Win32,60.24096386,,,,,,,,,,,,1442.4717,5.0,1442.4719,,,,1445.006,1445.5053,1444.4892,1445.0059,1443.4722,341.0,1444.4891,1445.5053,1446.0056,1446.0057,1447.6899,599.7,1447.6901,1.0,1448.6897,5.0,22.0,172.0,21.0,1.0,1.0,0.3,Time
,,S35,1,female,30,anonymized,Serial_Dependence_U,2023.2.3,Win32,60.24096386,,,,,,,,,,,,1448.6903,5.0,1448.6905,,,,1451.2245,1451.7239,1450.7076,1451.2244,1449.6907,0.0,1450.7074,1451.724,1452.2241,1452.2241,1453.7583,1117.8,1453.7585,4.0,1454.7582,5.0,23.0,173.0,6.0,1.0,1.0,0.7,Time
,,S35,1,female,30,anonymized,Serial_Dependence_U,2023.2.3,Win32,60.24096386,,,,,,,,,,,,1454.7588,5.0,1454.759,,,,1457.693,1458.1925,1457.1761,1457.693,1455.7593,149.0,1457.176,1458.1925,1458.6927,1458.6927,1460.2103,1100.0,1460.2106,2.0,1461.2101,5.0,24.0,174.0,28.0,1.0,1.4,0.7,Time
,,S35,1,female,30,anonymized,Serial_Dependence_U,2023.2.3,Win32,60.24096386,,,,,,,,,,,,1461.2108,5.0,1461.211,,,,1463.9448,1464.4443,1463.4281,1463.9447,1462.2111,62.0,1463.4279,1464.4443,1464.9444,1464.9445,1466.4621,1150.7,1466.4623,3.0,1467.4619,5.0,25.0,175.0,7.0,1.0,1.2,0.7,Time
,,S35,1,female,30,anonymized,Serial_Dependence_U,2023.2.3,Win32,60.24096386,,,,,,,,,,,,1467.4625,5.0,1467.4628,,,,1469.9966,1470.4962,1469.4798,1469.9965,1468.4629,105.0,1469.4797,1470.4962,1470.9963,1470.9963,1472.1137,820.0,1472.1139,2.0,1473.1136,5.0,26.0,176.0,26.0,1.0,1.0,0.7,Time
,,S35,1,female,30,anonymized,Serial_Dependence_U,2023.2.3,Win32,60.24096386,,,,,,,,,,,,1473.1141,5.0,1473.1144,,,,1475.4649,1475.9643,1474.9481,1475.4648,1474.1311,297.0,1474.948,1475.9643,1476.4646,1476.4646,1477.8989,772.4000001,1477.8991,3.0,1478.8986,5.0,27.0,177.0,15.0,1.0,0.8,0.7,Time
,,S35,1,female,30,anonymized,Serial_Dependence_U,2023.2.3,Win32,60.24096386,,,,,,,,,,,,1478.8992,5.0,1478.8995,,,,1481.2499,1481.7494,1480.7332,1481.2498,1479.9163,223.0,1480.7331,1481.7494,1482.2496,1482.2497,1483.3837,721.8,1483.3839,2.0,1484.3836,5.0,28.0,178.0,25.0,1.0,0.8,0.7,Time
,,S35,1,female,30,anonymized,Serial_Dependence_U,2023.2.3,Win32,60.24096386,,,,,,,,,,,,1484.3841,5.0,1484.3844,,,,1486.935,1487.4344,1486.4181,1486.9349,1485.4012,223.0,1486.4181,1487.4344,1487.9346,1487.9346,1489.5524,1119.0,1489.5526,4.0,1490.5521,5.0,29.0,179.0,16.0,1.0,1.0,0.7,Time
,,S35,1,female,30,anonymized,Serial_Dependence_U,2023.2.3,Win32,60.24096386,,,,,,,,,,,,1490.5525,6.0,1539.05,s,48.4748,,1541.6011,1542.1006,1541.0844,1541.6011,1540.0674,80.0,1541.0843,1542.1007,1542.6007,1542.6008,1544.4852,1166.0,1544.4853,4.0,1545.4849,6.0,0.0,180.0,21.0,1.0,1.0,0.3,Time
,,S35,1,female,30,anonymized,Serial_Dependence_U,2023.2.3,Win32,60.24096386,,,,,,,,,,,,1545.4855,6.0,1545.488,,,,1548.0365,1548.5358,1547.5195,1548.0362,1546.5027,344.0,1547.5193,1548.5359,1549.036,1549.0361,1550.2536,794.8,1550.2538,2.0,1551.2533,6.0,1.0,181.0,1.0,1.0,1.0,0.3,Time
,,S35,1,female,30,anonymized,Serial_Dependence_U,2023.2.3,Win32,60.24096386,,,,,,,,,,,,1551.2538,6.0,1551.254,,,,1553.7881,1554.2876,1553.2712,1553.7879,1552.2544,193.0,1553.2711,1554.2876,1554.7886,1554.7886,1556.1938,833.3000001,1556.194,2.0,1557.1894,6.0,2.0,182.0,6.0,1.0,1.0,0.7,Time
,,S35,1,female,30,anonymized,Serial_Dependence_U,2023.2.3,Win32,60.24096386,,,,,,,,,,,,1557.19,6.0,1557.1903,,,,1559.5277,1560.0235,1559.0109,1559.5275,1558.1938,150.0,1559.0107,1560.0236,1560.5237,1560.5237,1561.8286,750.1999999,1561.8289,2.0,1562.8247,6.0,3.0,183.0,15.0,1.0,0.8,0.7,Time
,,S35,1,female,30,anonymized,Serial_Dependence_U,2023.2.3,Win32,60.24096386,,,,,,,,,,,,1562.8253,6.0,1562.8256,,,,1565.7626,1566.2587,1565.246,1565.7625,1563.8289,181.0,1565.2459,1566.2588,1566.7588,1566.7589,1568.6475,1417.2,1568.6477,3.0,1569.643,6.0,4.0,184.0,3.0,1.0,1.4,0.3,Time
,,S35,1,female,30,anonymized,Serial_Dependence_U,2023.2.3,Win32,60.24096386,,,,,,,,,,,,1569.6436,6.0,1569.6439,,,,1572.1646,1572.6607,1571.6612,1572.1645,1570.6475,14.0,1571.6607,1572.6607,1573.1605,1573.1606,1574.716,1000.1,1574.7163,3.0,1575.7116,6.0,5.0,185.0,26.0,1.0,1.0,0.7,Time
,,S35,1,female,30,anonymized,Serial_Dependence_U,2023.2.3,Win32,60.24096386,,,,,,,,,,,,1575.7122,6.0,1575.7125,,,,1578.6333,1579.1292,1578.1309,1578.6331,1576.7159,98.0,1578.1308,1579.1292,1579.6293,1579.6294,1581.5137,1322.7,1581.5139,2.0,1582.5135,6.0,6.0,186.0,8.0,1.0,1.4,0.7,Time
,,S35,1,female,30,anonymized,Serial_Dependence_U,2023.2.3,Win32,60.24096386,,,,,,,,,,,,1582.5141,6.0,1582.5144,,,,1585.6356,1586.1311,1585.119,1585.6355,1583.5183,81.0,1585.1189,1586.1312,1586.6314,1586.6315,1588.2362,1116.4,1588.2365,1.0,1589.232,6.0,7.0,187.0,9.0,1.0,1.6,0.7,Time
,,S35,1,female,30,anonymized,Serial_Dependence_U,2023.2.3,Win32,60.24096386,,,,,,,,,,,,1589.2325,6.0,1589.2327,,,,1592.3708,1592.8663,1591.8538,1592.3707,1590.2366,254.0,1591.8537,1592.8664,1593.3667,1593.3668,1593.9048,100.1,1593.9049,1.0,1594.9004,6.0,8.0,188.0,4.0,1.0,1.6,0.3,Time
,,S35,1,female,30,anonymized,Serial_Dependence_U,2023.2.3,Win32,60.24096386,,,,,,,,,,,,1594.9011,6.0,1594.9014,,,,1598.039,1598.5349,1597.5222,1598.0389,1595.9049,345.0,1597.522,1598.535,1599.0349,1599.035,1600.3401,1167.2,1600.3404,2.0,1601.3356,6.0,9.0,189.0,24.0,1.0,1.6,0.3,Time
,,S35,1,female,30,anonymized,Serial_Dependence_U,2023.2.3,Win32,60.24096386,,,,,,,,,,,,1601.3362,6.0,1601.3364,,,,1604.487,1604.986,1603.97,1604.4866,1602.3536,173.0,1603.9697,1604.9861,1605.4862,1605.4862,1607.9541,1763.0,1607.9548,4.0,1608.9538,6.0,10.0,190.0,14.0,1.0,1.6,0.3,Time
,,S35,1,female,30,anonymized,Serial_Dependence_U,2023.2.3,Win32,60.24096386,,,,,,,,,,,,1608.9548,6.0,1608.9556,,,,1612.1061,1612.605,1611.5893,1612.1057,1609.9719,150.0,1611.5888,1612.605,1613.105,1613.1051,1614.1897,45.80000007,1614.1903,1.0,1615.1889,6.0,11.0,191.0,19.0,1.0,1.6,0.7,Time
,,S35,1,female,30,anonymized,Serial_Dependence_U,2023.2.3,Win32,60.24096386,,,,,,,,,,,,1615.1899,6.0,1615.1905,,,,1618.141,1618.64,1617.6246,1618.1406,1616.2075,248.0,1617.6242,1618.64,1619.1406,1619.1411,1620.8581,1289.8,1620.8589,2.0,1621.8576,6.0,12.0,192.0,13.0,1.0,1.4,0.3,Time
,,S35,1,female,30,anonymized,Serial_Dependence_U,2023.2.3,Win32,60.24096386,,,,,,,,,,,,1621.8588,6.0,1621.8595,,,,1624.2098,1624.7084,1623.6931,1624.2094,1622.8763,172.0,1623.6926,1624.7085,1625.2086,1625.2087,1627.1765,1350.2,1627.1774,5.0,1628.1762,6.0,13.0,193.0,10.0,1.0,0.8,0.3,Time
,,S35,1,female,30,anonymized,Serial_Dependence_U,2023.2.3,Win32,60.24096386,,,,,,,,,,,,1628.1771,6.0,1628.1778,,,,1630.5282,1631.027,1630.0106,1630.5279,1629.1946,351.0,1630.0106,1631.027,1631.5271,1631.5271,1633.295,1383.9,1633.2958,5.0,1634.2947,6.0,14.0,194.0,20.0,1.0,0.8,0.3,Time
,,S35,1,female,30,anonymized,Serial_Dependence_U,2023.2.3,Win32,60.24096386,,,,,,,,,,,,1634.2958,6.0,1634.2964,,,,1637.2467,1637.7457,1636.7297,1637.2464,1635.3132,280.0,1636.7292,1637.7457,1638.2458,1638.2458,1640.1469,1430.6,1640.1476,3.0,1641.1467,6.0,15.0,195.0,23.0,1.0,1.4,0.3,Time
,,S35,1,female,30,anonymized,Serial_Dependence_U,2023.2.3,Win32,60.24096386,,,,,,,,,,,,1641.1475,6.0,1641.148,,,,1644.0988,1644.5978,1643.5822,1644.0985,1642.1648,180.0,1643.5819,1644.5978,1645.0978,1645.0978,1646.8821,1199.8,1646.8827,2.0,1647.8819,6.0,16.0,196.0,18.0,1.0,1.4,0.7,Time
,,S35,1,female,30,anonymized,Serial_Dependence_U,2023.2.3,Win32,60.24096386,,,,,,,,,,,,1647.8827,6.0,1647.8832,,,,1650.6337,1651.133,1650.1173,1650.6333,1648.9001,229.0,1650.1168,1651.133,1651.6332,1651.6332,1653.2674,1318.0,1653.2681,4.0,1654.2673,6.0,17.0,197.0,17.0,1.0,1.2,0.7,Time
,,S35,1,female,30,anonymized,Serial_Dependence_U,2023.2.3,Win32,60.24096386,,,,,,,,,,,,1654.2681,6.0,1654.2688,,,,1657.4193,1657.9184,1656.9025,1657.4191,1655.2853,234.0,1656.9021,1657.9184,1658.4183,1658.4184,1660.0692,1333.2,1660.0699,2.0,1661.0691,6.0,18.0,198.0,29.0,1.0,1.6,0.7,Time
,,S35,1,female,30,anonymized,Serial_Dependence_U,2023.2.3,Win32,60.24096386,,,,,,,,,,,,1661.0699,6.0,1661.0708,,,,1663.4214,1663.9201,1662.9042,1663.421,1662.0875,285.0,1662.9037,1663.9201,1664.4202,1664.4202,1666.8887,1188.7,1666.8893,5.0,1667.8879,6.0,19.0,199.0,0.0,1.0,0.8,0.3,Time
,,S35,1,female,30,anonymized,Serial_Dependence_U,2023.2.3,Win32,60.24096386,,,,,,,,,,,,1667.8884,6.0,1667.8892,,,,1670.4399,1670.9387,1669.9234,1670.4396,1668.9063,97.0,1669.923,1670.9387,1671.4389,1671.4389,1673.4908,1036.1,1673.4913,3.0,1674.4899,6.0,20.0,200.0,11.0,1.0,1.0,0.3,Time
,,S35,1,female,30,anonymized,Serial_Dependence_U,2023.2.3,Win32,60.24096386,,,,,,,,,,,,1674.4903,6.0,1674.491,,,,1677.4416,1677.9409,1676.9255,1677.4413,1675.508,300.0,1676.9249,1677.9409,1678.441,1678.4411,1680.7756,1534.1,1680.7764,4.0,1681.7753,6.0,21.0,201.0,28.0,1.0,1.4,0.7,Time
,,S35,1,female,30,anonymized,Serial_Dependence_U,2023.2.3,Win32,60.24096386,,,,,,,,,,,,1681.7758,6.0,1681.7769,,,,1684.5273,1685.0263,1684.0104,1684.5269,1682.7937,2.0,1684.0102,1685.0263,1685.5265,1685.5266,1687.1272,1148.5,1687.1277,3.0,1688.1272,6.0,22.0,202.0,27.0,1.0,1.2,0.7,Time
,,S35,1,female,30,anonymized,Serial_Dependence_U,2023.2.3,Win32,60.24096386,,,,,,,,,,,,1688.1282,6.0,1688.1288,,,,1690.8789,1691.3781,1690.3625,1690.8785,1689.1455,340.0,1690.362,1691.3781,1691.8784,1691.8784,1691.9955,87.10000002,1691.9961,1.0,1692.9954,6.0,23.0,203.0,2.0,1.0,1.2,0.3,Time
,,S35,1,female,30,anonymized,Serial_Dependence_U,2023.2.3,Win32,60.24096386,,,,,,,,,,,,1692.9962,6.0,1692.9968,,,,1695.3478,1695.8462,1694.8304,1695.3474,1694.0137,145.0,1694.8302,1695.8463,1696.3462,1696.3463,1697.7643,721.1,1697.7648,2.0,1698.7636,6.0,24.0,204.0,25.0,1.0,0.8,0.7,Time
,,S35,1,female,30,anonymized,Serial_Dependence_U,2023.2.3,Win32,60.24096386,,,,,,,,,,,,1698.7642,6.0,1698.7651,,,,1701.316,1701.8146,1700.7989,1701.3156,1699.7816,186.0,1700.7986,1701.8147,1702.3147,1702.3148,1704.4826,1004.8,1704.4833,3.0,1705.4824,6.0,25.0,205.0,16.0,1.0,1.0,0.7,Time
,,S35,1,female,30,anonymized,Serial_Dependence_U,2023.2.3,Win32,60.24096386,,,,,,,,,,,,1705.4837,6.0,1705.4842,,,,1708.2347,1708.7333,1707.7174,1708.2343,1706.5009,281.0,1707.7167,1708.7333,1709.2334,1709.2335,1710.7013,902.8000001,1710.702,2.0,1711.7007,6.0,26.0,206.0,7.0,1.0,1.2,0.7,Time
,,S35,1,female,30,anonymized,Serial_Dependence_U,2023.2.3,Win32,60.24096386,,,,,,,,,,,,1711.7016,6.0,1711.7021,,,,1714.4529,1714.9518,1713.9356,1714.4526,1712.7192,346.0,1713.9354,1714.9518,1715.4519,1715.452,1716.903,1061.5,1716.9038,2.0,1717.9028,6.0,27.0,207.0,12.0,1.0,1.2,0.3,Time
,,S35,1,female,30,anonymized,Serial_Dependence_U,2023.2.3,Win32,60.24096386,,,,,,,,,,,,1717.9037,6.0,1717.9044,,,,1720.6548,1721.1537,1720.1378,1720.6545,1718.9212,129.0,1720.1376,1721.1537,1721.6538,1721.6538,1722.9884,930.8000001,1722.9889,2.0,1723.9878,6.0,28.0,208.0,22.0,1.0,1.2,0.3,Time
,,S35,1,female,30,anonymized,Serial_Dependence_U,2023.2.3,Win32,60.24096386,,,,,,,,,,,,1723.9886,6.0,1723.9892,,,,1726.34,1726.8387,1725.8228,1726.3397,1725.0058,2.0,1725.8223,1726.8387,1727.3389,1727.339,1730.4568,1227.6,1730.4572,5.0,1731.4567,6.0,29.0,209.0,5.0,1.0,0.8,0.7,Time
,,S35,1,female,30,anonymized,Serial_Dependence_U,2023.2.3,Win32,60.24096386,,,,,,,,,,,,1731.4574,7.0,1967.6936,s,236.2116,,1970.2451,1970.744,1969.7284,1970.2449,1968.7113,333.0,1969.7281,1970.7441,1971.2443,1971.2443,1972.6287,934.4,1972.6293,2.0,1973.6283,7.0,0.0,210.0,1.0,1.0,1.0,0.3,Time
,,S35,1,female,30,anonymized,Serial_Dependence_U,2023.2.3,Win32,60.24096386,,,,,,,,,,,,1973.6291,7.0,1973.6315,,,,1976.7805,1977.2793,1976.2633,1976.7801,1974.6468,147.0,1976.2629,1977.2793,1977.7794,1977.7796,1979.6975,1150.4,1979.6981,2.0,1980.6971,7.0,1.0,211.0,29.0,1.0,1.6,0.7,Time
,,S35,1,female,30,anonymized,Serial_Dependence_U,2023.2.3,Win32,60.24096386,,,,,,,,,,,,1980.6977,7.0,1980.6986,,,,1983.6494,1984.1479,1983.1322,1983.649,1981.7155,230.0,1983.1318,1984.1479,1984.6481,1984.6481,1986.3668,1236.9,1986.3671,2.0,1987.3655,7.0,2.0,212.0,3.0,1.0,1.4,0.3,Time
,,S35,1,female,30,anonymized,Serial_Dependence_U,2023.2.3,Win32,60.24096386,,,,,,,,,,,,1987.3664,7.0,1987.3671,,,,1989.901,1990.3998,1989.384,1989.9007,1988.3677,196.0,1989.3838,1990.3999,1990.9,1990.9001,1992.2509,1267.9,1992.2515,4.0,1993.2507,7.0,3.0,213.0,26.0,1.0,1.0,0.7,Time
,,S35,1,female,30,anonymized,Serial_Dependence_U,2023.2.3,Win32,60.24096386,,,,,,,,,,,,1993.2516,7.0,1993.2521,,,,1995.6026,1996.1015,1995.0859,1995.6023,1994.2691,7.0,1995.0854,1996.1016,1996.6018,1996.6018,1997.8691,856.1,1997.8697,4.0,1998.8691,7.0,4.0,214.0,10.0,1.0,0.8,0.3,Time
,,S35,1,female,30,anonymized,Serial_Dependence_U,2023.2.3,Win32,60.24096386,,,,,,,,,,,,1998.8699,7.0,1998.8704,,,,2001.2212,2001.7199,2000.7041,2001.2208,1999.8868,351.0,2000.7036,2001.7199,2002.22,2002.2201,2003.3715,732.1999999,2003.3722,2.0,2004.3706,7.0,5.0,215.0,15.0,1.0,0.8,0.7,Time
,,S35,1,female,30,anonymized,Serial_Dependence_U,2023.2.3,Win32,60.24096386,,,,,,,,,,,,2004.3712,7.0,2004.372,,,,2007.5226,2008.0216,2007.0059,2007.5223,2005.3891,87.0,2007.0056,2008.0217,2008.5219,2008.5219,2010.1898,1165.8,2010.1905,2.0,2011.1894,7.0,6.0,216.0,19.0,1.0,1.6,0.7,Time
,,S35,1,female,30,anonymized,Serial_Dependence_U,2023.2.3,Win32,60.24096386,,,,,,,,,,,,2011.1904,7.0,2011.191,,,,2013.7414,2014.2403,2013.2242,2013.741,2012.2077,319.0,2013.2238,2014.2403,2014.7404,2014.7405,2015.9744,816.1,2015.9749,2.0,2016.9745,7.0,7.0,217.0,11.0,1.0,1.0,0.3,Time
,,S35,1,female,30,anonymized,Serial_Dependence_U,2023.2.3,Win32,60.24096386,,,,,,,,,,,,2016.9754,7.0,2016.9761,,,,2020.127,2020.6255,2019.6097,2020.1266,2017.9926,135.0,2019.6094,2020.6256,2021.1257,2021.1258,2026.4942,682.8000001,2026.495,1.0,2027.4942,7.0,8.0,218.0,9.0,1.0,1.6,0.7,Time
,,S35,1,female,30,anonymized,Serial_Dependence_U,2023.2.3,Win32,60.24096386,,,,,,,,,,,,2027.4948,7.0,2027.4957,,,,2030.4462,2030.9451,2029.9296,2030.4459,2028.5125,260.0,2029.9293,2030.9452,2031.4452,2031.4454,2033.2132,1649.9,2033.2139,4.0,2034.2128,7.0,9.0,219.0,13.0,1.0,1.4,0.3,Time
,,S35,1,female,30,anonymized,Serial_Dependence_U,2023.2.3,Win32,60.24096386,,,,,,,,,,,,2034.2136,7.0,2034.2143,,,,2037.1647,2037.6638,2036.648,2037.1644,2035.2313,229.0,2036.6477,2037.6639,2038.1641,2038.1641,2039.4986,1091.3,2039.4992,2.0,2040.4981,7.0,10.0,220.0,18.0,1.0,1.4,0.7,Time
,,S35,1,female,30,anonymized,Serial_Dependence_U,2023.2.3,Win32,60.24096386,,,,,,,,,,,,2040.4985,7.0,2040.4992,,,,2042.8498,2043.3489,2042.3329,2042.8495,2041.5161,354.0,2042.3324,2043.3489,2043.8489,2043.8491,2044.1994,109.8,2044.2001,1.0,2045.1993,7.0,11.0,221.0,20.0,1.0,0.8,0.3,Time
,,S35,1,female,30,anonymized,Serial_Dependence_U,2023.2.3,Win32,60.24096386,,,,,,,,,,,,2045.2003,7.0,2045.2009,,,,2048.1511,2048.6505,2047.6348,2048.1509,2046.2169,261.0,2047.6342,2048.6505,2049.1507,2049.1508,2052.0186,1588.1,2052.0193,4.0,2053.0185,7.0,12.0,222.0,28.0,1.0,1.4,0.7,Time
,,S35,1,female,30,anonymized,Serial_Dependence_U,2023.2.3,Win32,60.24096386,,,,,,,,,,,,2053.0197,7.0,2053.0201,,,,2056.1703,2056.6694,2055.6538,2056.1699,2054.0365,145.0,2055.6535,2056.6695,2057.1696,2057.1696,2058.9372,83.0,2058.9378,1.0,2059.9371,7.0,13.0,223.0,14.0,1.0,1.6,0.3,Time
,,S35,1,female,30,anonymized,Serial_Dependence_U,2023.2.3,Win32,60.24096386,,,,,,,,,,,,2059.9377,7.0,2059.938,,,,2062.6885,2063.1881,2062.1716,2062.6884,2060.9546,10.0,2062.1715,2063.1881,2063.688,2063.688,2065.7558,1558.4,2065.756,4.0,2066.7557,7.0,14.0,224.0,27.0,1.0,1.2,0.7,Time
,,S35,1,female,30,anonymized,Serial_Dependence_U,2023.2.3,Win32,60.24096386,,,,,,,,,,,,2066.7563,7.0,2066.7566,,,,2069.2903,2069.7897,2068.7736,2069.2903,2067.7566,350.0,2068.7736,2069.7898,2070.29,2070.29,2073.2413,1756.5,2073.2414,5.0,2074.2412,7.0,15.0,225.0,6.0,1.0,1.0,0.7,Time
,,S35,1,female,30,anonymized,Serial_Dependence_U,2023.2.3,Win32,60.24096386,,,,,,,,,,,,2074.2416,7.0,2074.2419,,,,2076.5758,2077.0753,2076.0591,2076.5758,2075.2424,315.0,2076.059,2077.0753,2077.5755,2077.5756,2079.2932,1327.0,2079.2934,5.0,2080.293,7.0,16.0,226.0,25.0,1.0,0.8,0.7,Time
,,S35,1,female,30,anonymized,Serial_Dependence_U,2023.2.3,Win32,60.24096386,,,,,,,,,,,,2080.2937,7.0,2080.2939,,,,2082.6275,2083.127,2082.1108,2082.6274,2081.2939,150.0,2082.1107,2083.1271,2083.6272,2083.6272,2084.7114,516.0999999,2084.7116,1.0,2085.7113,7.0,17.0,227.0,5.0,1.0,0.8,0.7,Time
,,S35,1,female,30,anonymized,Serial_Dependence_U,2023.2.3,Win32,60.24096386,,,,,,,,,,,,2085.7119,7.0,2085.7121,,,,2088.4629,2088.9622,2087.9458,2088.4628,2086.7289,209.0,2087.9457,2088.9622,2089.4624,2089.4624,2091.2467,1300.7,2091.2469,4.0,2092.2466,7.0,18.0,228.0,17.0,1.0,1.2,0.7,Time
,,S35,1,female,30,anonymized,Serial_Dependence_U,2023.2.3,Win32,60.24096386,,,,,,,,,,,,2092.247,7.0,2092.2474,,,,2094.9814,2095.4808,2094.4644,2094.9812,2093.2475,215.0,2094.4643,2095.4808,2095.9809,2095.981,2097.1985,843.1,2097.1986,2.0,2098.1982,7.0,19.0,229.0,2.0,1.0,1.2,0.3,Time
,,S35,1,female,30,anonymized,Serial_Dependence_U,2023.2.3,Win32,60.24096386,,,,,,,,,,,,2098.1987,7.0,2098.1991,,,,2101.3332,2101.8327,2100.8164,2101.333,2099.1992,241.0,2100.8162,2101.8327,2102.3329,2102.3329,2103.8338,1020.6,2103.834,1.0,2104.8335,7.0,20.0,230.0,24.0,1.0,1.6,0.3,Time
,,S35,1,female,30,anonymized,Serial_Dependence_U,2023.2.3,Win32,60.24096386,,,,,,,,,,,,2104.8341,7.0,2104.8342,,,,2107.585,2108.0845,2107.0682,2107.585,2105.8513,57.0,2107.0681,2108.0845,2108.5847,2108.5847,2109.5854,935.3000001,2109.5857,2.0,2110.5852,7.0,21.0,231.0,22.0,1.0,1.2,0.3,Time
,,S35,1,female,30,anonymized,Serial_Dependence_U,2023.2.3,Win32,60.24096386,,,,,,,,,,,,2110.5857,7.0,2110.586,,,,2113.5201,2114.0195,2113.0032,2113.52,2111.5861,311.0,2113.0032,2114.0196,2114.5197,2114.5198,2116.054,1189.0,2116.0542,2.0,2117.0539,7.0,22.0,232.0,23.0,1.0,1.4,0.3,Time
,,S35,1,female,30,anonymized,Serial_Dependence_U,2023.2.3,Win32,60.24096386,,,,,,,,,,,,2117.0543,7.0,2117.0546,,,,2119.3887,2119.888,2118.8716,2119.3886,2118.0548,18.0,2118.8716,2119.8881,2120.3883,2120.3884,2122.606,1198.4,2122.6061,5.0,2123.6059,7.0,23.0,233.0,0.0,1.0,0.8,0.3,Time
,,S35,1,female,30,anonymized,Serial_Dependence_U,2023.2.3,Win32,60.24096386,,,,,,,,,,,,2123.6063,7.0,2123.6066,,,,2126.3573,2126.8566,2125.8403,2126.3572,2124.6236,199.0,2125.8403,2126.8567,2127.3569,2127.357,2128.8077,1034.6,2128.808,2.0,2129.8076,7.0,24.0,234.0,7.0,1.0,1.2,0.7,Time
,,S35,1,female,30,anonymized,Serial_Dependence_U,2023.2.3,Win32,60.24096386,,,,,,,,,,,,2129.8081,7.0,2129.8084,,,,2132.7591,2133.2585,2132.2423,2132.7591,2130.8253,187.0,2132.2422,2133.2587,2133.7587,2133.7588,2135.5098,1210.0,2135.5101,2.0,2136.5096,7.0,25.0,235.0,8.0,1.0,1.4,0.7,Time
,,S35,1,female,30,anonymized,Serial_Dependence_U,2023.2.3,Win32,60.24096386,,,,,,,,,,,,2136.5101,7.0,2136.5103,,,,2139.6446,2140.1439,2139.1276,2139.6445,2137.5105,296.0,2139.1275,2140.144,2140.6443,2140.6444,2142.5285,1250.4,2142.5287,2.0,2143.5283,7.0,26.0,236.0,4.0,1.0,1.6,0.3,Time
,,S35,1,female,30,anonymized,Serial_Dependence_U,2023.2.3,Win32,60.24096386,,,,,,,,,,,,2143.5288,7.0,2143.529,,,,2146.0632,2146.5631,2145.5461,2146.0631,2144.5294,353.0,2145.5461,2146.5631,2147.0627,2147.0628,2148.9971,1242.5,2148.9974,4.0,2149.9968,7.0,27.0,237.0,21.0,1.0,1.0,0.3,Time
,,S35,1,female,30,anonymized,Serial_Dependence_U,2023.2.3,Win32,60.24096386,,,,,,,,,,,,2149.9974,7.0,2149.9976,,,,2152.5316,2153.0311,2152.0147,2152.5315,2150.9978,114.0,2152.0147,2153.0312,2153.5312,2153.5312,2154.9489,914.1,2154.9491,2.0,2155.9487,7.0,28.0,238.0,16.0,1.0,1.0,0.7,Time
,,S35,1,female,30,anonymized,Serial_Dependence_U,2023.2.3,Win32,60.24096386,,,,,,,,,,,,2155.9492,7.0,2155.9495,,,,2158.6834,2159.1829,2158.1666,2158.6833,2156.9497,162.0,2158.1666,2159.1829,2159.6831,2159.6831,2160.9172,833.1999999,2160.9174,1.0,2161.917,7.0,29.0,239.0,12.0,1.0,1.2,0.3,Time
,,S35,1,female,30,anonymized,Serial_Dependence_U,2023.2.3,Win32,60.24096386,,,,,,,,,,,,2161.9175,8.0,2207.0311,s,45.1004,,2209.5651,2210.0645,2209.0483,2209.5651,2208.0313,331.0,2209.0481,2210.0646,2210.5648,2210.5649,2212.2991,1214.9,2212.2993,4.0,2213.2989,8.0,0.0,240.0,6.0,1.0,1.0,0.7,Time
,,S35,1,female,30,anonymized,Serial_Dependence_U,2023.2.3,Win32,60.24096386,,,,,,,,,,,,2213.2994,8.0,2213.3019,,,,2215.8337,2216.3331,2215.3168,2215.8336,2214.2999,126.0,2215.3167,2216.3332,2216.8333,2216.8334,2218.8344,933.8,2218.8346,2.0,2219.8342,8.0,1.0,241.0,26.0,1.0,1.0,0.7,Time
,,S35,1,female,30,anonymized,Serial_Dependence_U,2023.2.3,Win32,60.24096386,,,,,,,,,,,,2219.8347,8.0,2219.835,,,,2222.1689,2222.6682,2221.652,2222.1688,2220.8352,36.0,2221.6519,2222.6682,2223.1685,2223.1686,2224.1693,629.6999999,2224.1695,2.0,2225.1691,8.0,2.0,242.0,5.0,1.0,0.8,0.7,Time
,,S35,1,female,30,anonymized,Serial_Dependence_U,2023.2.3,Win32,60.24096386,,,,,,,,,,,,2225.1696,8.0,2225.1698,,,,2227.5205,2228.02,2227.0036,2227.5204,2226.1867,335.0,2227.0035,2228.02,2228.5201,2228.5202,2230.2377,788.8,2230.2379,3.0,2231.2377,8.0,3.0,243.0,15.0,1.0,0.8,0.7,Time
,,S35,1,female,30,anonymized,Serial_Dependence_U,2023.2.3,Win32,60.24096386,,,,,,,,,,,,2231.2382,8.0,2231.2385,,,,2233.7891,2234.2886,2233.2721,2233.789,2232.2552,15.0,2233.2721,2234.2886,2234.7886,2234.7887,2235.756,509.4,2235.7563,1.0,2236.7558,8.0,4.0,244.0,11.0,1.0,1.0,0.3,Time
,,S35,1,female,30,anonymized,Serial_Dependence_U,2023.2.3,Win32,60.24096386,,,,,,,,,,,,2236.7565,8.0,2236.7567,,,,2239.6907,2240.1901,2239.1738,2239.6906,2237.7568,102.0,2239.1737,2240.1901,2240.6904,2240.6904,2242.1579,254.8000001,2242.1581,1.0,2243.1578,8.0,5.0,245.0,3.0,1.0,1.4,0.3,Time
,,S35,1,female,30,anonymized,Serial_Dependence_U,2023.2.3,Win32,60.24096386,,,,,,,,,,,,2243.1583,8.0,2243.1586,,,,2246.0926,2246.5927,2245.5758,2246.0925,2244.1588,83.0,2245.5756,2246.5927,2247.0922,2247.0923,2248.0264,464.4,2248.0266,1.0,2249.0262,8.0,6.0,246.0,18.0,1.0,1.4,0.7,Time
,,S35,1,female,30,anonymized,Serial_Dependence_U,2023.2.3,Win32,60.24096386,,,,,,,,,,,,2249.0268,8.0,2249.0269,,,,2251.9611,2252.4605,2251.4442,2251.9609,2250.0272,226.0,2251.4442,2252.4605,2252.9607,2252.9609,2254.4953,992.4,2254.4956,2.0,2255.4946,8.0,7.0,247.0,13.0,1.0,1.4,0.3,Time
,,S35,1,female,30,anonymized,Serial_Dependence_U,2023.2.3,Win32,60.24096386,,,,,,,,,,,,2255.4951,8.0,2255.4953,,,,2258.0293,2258.5288,2257.5124,2258.0292,2256.4955,200.0,2257.5123,2258.5288,2259.0289,2259.0289,2259.4963,194.6,2259.4964,1.0,2260.4968,8.0,8.0,248.0,21.0,1.0,1.0,0.3,Time
,,S35,1,female,30,anonymized,Serial_Dependence_U,2023.2.3,Win32,60.24096386,,,,,,,,,,,,2260.4974,8.0,2260.4976,,,,2263.0354,2263.5311,2262.5184,2263.0353,2261.5016,23.0,2262.5183,2263.5311,2264.0313,2264.0313,2265.2864,799.9,2265.2866,2.0,2266.282,8.0,9.0,249.0,1.0,1.0,1.0,0.3,Time
,,S35,1,female,30,anonymized,Serial_Dependence_U,2023.2.3,Win32,60.24096386,,,,,,,,,,,,2266.2825,8.0,2266.2827,,,,2268.8335,2269.3322,2268.3165,2268.8332,2267.2999,318.0,2268.3161,2269.3323,2269.8324,2269.8325,2271.367,800.0,2271.3677,2.0,2272.3666,8.0,10.0,250.0,16.0,1.0,1.0,0.7,Time
,,S35,1,female,30,anonymized,Serial_Dependence_U,2023.2.3,Win32,60.24096386,,,,,,,,,,,,2272.3675,8.0,2272.3681,,,,2275.5187,2276.0176,2275.0017,2275.5183,2273.3849,43.0,2275.0014,2276.0176,2276.5177,2276.5178,2277.6021,1015.6,2277.6028,1.0,2278.6019,8.0,11.0,251.0,24.0,1.0,1.6,0.3,Time
,,S35,1,female,30,anonymized,Serial_Dependence_U,2023.2.3,Win32,60.24096386,,,,,,,,,,,,2278.6033,8.0,2278.6036,,,,2281.5535,2282.0528,2281.0369,2281.553,2279.6199,269.0,2281.0366,2282.0528,2282.5529,2282.553,2284.1709,1269.5,2284.1714,2.0,2285.1704,8.0,12.0,252.0,8.0,1.0,1.4,0.7,Time
,,S35,1,female,30,anonymized,Serial_Dependence_U,2023.2.3,Win32,60.24096386,,,,,,,,,,,,2285.1711,8.0,2285.1716,,,,2287.5226,2288.0212,2287.0058,2287.5222,2286.1888,224.0,2287.0054,2288.0212,2288.5213,2288.5213,2289.4723,545.7,2289.4731,1.0,2290.4718,8.0,13.0,253.0,0.0,1.0,0.8,0.3,Time
,,S35,1,female,30,anonymized,Serial_Dependence_U,2023.2.3,Win32,60.24096386,,,,,,,,,,,,2290.4724,8.0,2290.473,,,,2292.8236,2293.3227,2292.3072,2292.8233,2291.49,310.0,2292.3068,2293.3227,2293.8229,2293.8229,2295.3074,1111.8,2295.3081,5.0,2296.3069,8.0,14.0,254.0,20.0,1.0,0.8,0.3,Time
,,S35,1,female,30,anonymized,Serial_Dependence_U,2023.2.3,Win32,60.24096386,,,,,,,,,,,,2296.308,8.0,2296.3085,,,,2299.259,2299.7579,2298.7424,2299.2586,2297.3252,44.0,2298.742,2299.7579,2300.2581,2300.2581,2301.8257,1150.0,2301.826,2.0,2302.8257,8.0,15.0,255.0,28.0,1.0,1.4,0.7,Time
,,S35,1,female,30,anonymized,Serial_Dependence_U,2023.2.3,Win32,60.24096386,,,,,,,,,,,,2302.8268,8.0,2302.8272,,,,2305.9779,2306.4766,2305.4613,2305.9776,2303.8442,6.0,2305.4609,2306.4766,2306.9769,2306.9769,2308.7118,1127.4,2308.7122,2.0,2309.7109,8.0,16.0,256.0,14.0,1.0,1.6,0.3,Time
,,S35,1,female,30,anonymized,Serial_Dependence_U,2023.2.3,Win32,60.24096386,,,,,,,,,,,,2309.7113,8.0,2309.712,,,,2312.0628,2312.5617,2311.5463,2312.0625,2310.729,289.0,2311.5458,2312.5617,2313.062,2313.0621,2314.48,892.5,2314.4805,4.0,2315.4793,8.0,17.0,257.0,10.0,1.0,0.8,0.3,Time
,,S35,1,female,30,anonymized,Serial_Dependence_U,2023.2.3,Win32,60.24096386,,,,,,,,,,,,2315.4799,8.0,2315.4808,,,,2318.6317,2319.1303,2318.1148,2318.6312,2316.4977,127.0,2318.1144,2319.1304,2319.6308,2319.6308,2321.3146,1390.3,2321.3153,2.0,2322.3146,8.0,18.0,258.0,9.0,1.0,1.6,0.7,Time
,,S35,1,female,30,anonymized,Serial_Dependence_U,2023.2.3,Win32,60.24096386,,,,,,,,,,,,2322.3151,8.0,2322.3153,,,,2325.066,2325.5654,2324.549,2325.0658,2323.3321,153.0,2324.5489,2325.5654,2326.0657,2326.0657,2327.2664,806.3000001,2327.2666,1.0,2328.2662,8.0,19.0,259.0,27.0,1.0,1.2,0.7,Time
,,S35,1,female,30,anonymized,Serial_Dependence_U,2023.2.3,Win32,60.24096386,,,,,,,,,,,,2328.2669,8.0,2328.2671,,,,2331.0178,2331.5171,2330.5008,2331.0177,2329.2838,214.0,2330.5007,2331.5172,2332.0173,2332.0174,2333.1017,717.1,2333.1018,1.0,2334.1013,8.0,20.0,260.0,2.0,1.0,1.2,0.3,Time
,,S35,1,female,30,anonymized,Serial_Dependence_U,2023.2.3,Win32,60.24096386,,,,,,,,,,,,2334.102,8.0,2334.1022,,,,2337.0361,2337.5356,2336.5195,2337.0361,2335.1022,147.0,2336.5194,2337.5356,2338.0358,2338.0359,2339.7701,1329.9,2339.7703,2.0,2340.7699,8.0,21.0,261.0,23.0,1.0,1.4,0.3,Time
,,S35,1,female,30,anonymized,Serial_Dependence_U,2023.2.3,Win32,60.24096386,,,,,,,,,,,,2340.7704,8.0,2340.7707,,,,2343.9048,2344.4043,2343.3879,2343.9048,2341.7707,106.0,2343.3879,2344.4043,2344.9045,2344.9046,2346.5887,1287.1,2346.5889,2.0,2347.5886,8.0,22.0,262.0,19.0,1.0,1.6,0.7,Time
,,S35,1,female,30,anonymized,Serial_Dependence_U,2023.2.3,Win32,60.24096386,,,,,,,,,,,,2347.5891,8.0,2347.5893,,,,2350.3406,2350.8395,2349.8231,2350.3405,2348.6062,4.0,2349.8231,2350.8396,2351.3397,2351.3397,2352.7739,1037.1,2352.7741,2.0,2353.7737,8.0,23.0,263.0,22.0,1.0,1.2,0.3,Time
,,S35,1,female,30,anonymized,Serial_Dependence_U,2023.2.3,Win32,60.24096386,,,,,,,,,,,,2353.7741,8.0,2353.7743,,,,2356.9091,2357.4081,2356.3919,2356.909,2354.7747,179.0,2356.3918,2357.4082,2357.9082,2357.9083,2357.9587,12.89999998,2357.9589,1.0,2358.9587,8.0,24.0,264.0,4.0,1.0,1.6,0.3,Time
,,S35,1,female,30,anonymized,Serial_Dependence_U,2023.2.3,Win32,60.24096386,,,,,,,,,,,,2358.9591,8.0,2358.9594,,,,2361.6934,2362.1929,2361.1767,2361.6933,2359.9595,80.0,2361.1765,2362.1929,2362.693,2362.6931,2364.6941,1350.0,2364.6943,4.0,2365.6949,8.0,25.0,265.0,17.0,1.0,1.2,0.7,Time
,,S35,1,female,30,anonymized,Serial_Dependence_U,2023.2.3,Win32,60.24096386,,,,,,,,,,,,2365.6954,8.0,2365.6956,,,,2368.0459,2368.5448,2367.5292,2368.0457,2366.7125,40.0,2367.5287,2368.5449,2369.0451,2369.0452,2373.797,1291.1,2373.7978,5.0,2374.7968,8.0,26.0,266.0,25.0,1.0,0.8,0.7,Time
,,S35,1,female,30,anonymized,Serial_Dependence_U,2023.2.3,Win32,60.24096386,,,,,,,,,,,,2374.798,8.0,2374.7985,,,,2377.5489,2378.0478,2377.0321,2377.5485,2375.8152,137.0,2377.0318,2378.0479,2378.5479,2378.5479,2380.2821,1351.3,2380.283,4.0,2381.282,8.0,27.0,267.0,7.0,1.0,1.2,0.7,Time
,,S35,1,female,30,anonymized,Serial_Dependence_U,2023.2.3,Win32,60.24096386,,,,,,,,,,,,2381.2826,8.0,2381.2834,,,,2384.4344,2384.9331,2383.9174,2384.4341,2382.3002,29.0,2383.9169,2384.9331,2385.4332,2385.4333,2387.3176,1434.2,2387.3178,2.0,2388.3173,8.0,28.0,268.0,29.0,1.0,1.6,0.7,Time
,,S35,1,female,30,anonymized,Serial_Dependence_U,2023.2.3,Win32,60.24096386,,,,,,,,,,,,2388.3179,8.0,2388.3185,,,,2391.0699,2391.5684,2390.5526,2391.0695,2389.3354,37.0,2390.5523,2391.5684,2392.0686,2392.0687,2393.5028,1007.8,2393.5034,2.0,2394.5026,8.0,29.0,269.0,12.0,1.0,1.2,0.3,Time
