Scale_setup.started,Scale_setup.stopped,participant,session,sex,age,date,expName,psychopyVersion,OS,frameRate,screen_scale_keys.started,screen_scale_keys.stopped,X Scale,Y Scale,rectangel_keys.started,rectangel_keys.stopped,Intro.started,Intro.stopped,key_resp_2.keys,key_resp_2.rt,key_resp_2.duration,block.started,Block_id,block.stopped,Block_resp_2.keys,Block_resp_2.rt,Block_resp_2.duration,ITI.started,ITI.stopped,Mask_2.started,Mask_2.stopped,M2.started,direction,M2.stopped,Cue.started,Cue.stopped,Response.started,Response.stopped,keyDuration,Feedback_Time.started,FeedbackID_T,Feedback_Time.stopped,trials.thisRepN,trials.thisTrialN,trials.thisN,trials.thisIndex,trials.ran,TimeDur,Coherence1,TrialType
0.0007,0.0011,S36,1,Female,26,anonymized,Serial_Dependence_U,2023.2.3,Win32,60.24096386,,,,,,,,,,,,,,,,,,,,,,,,,,,,,,,,,,,,,,,,
,,S36,1,Female,26,anonymized,Serial_Dependence_U,2023.2.3,Win32,60.24096386,0.0031,43.5443,0.05,0.05,43.5449,59.5996,59.6002,150.6618,space,91.0014,,,,,,,,,,,,,,,,,,,,,,,,,,,,,,
,,S36,1,Female,26,anonymized,Serial_Dependence_U,2023.2.3,Win32,60.24096386,,,,,,,,,,,,150.6851,0.0,159.2214,s,8.4921,,162.155,162.6539,161.652,162.1548,160.2383,145.0,161.6518,162.6545,163.1548,163.1557,167.8412,234.1,167.8429,1.0,168.8405,0.0,0.0,0.0,3.0,1.0,1.4,0.3,Time
,,S36,1,Female,26,anonymized,Serial_Dependence_U,2023.2.3,Win32,60.24096386,,,,,,,,,,,,168.8422,0.0,168.8462,,,,171.3516,171.84,170.8475,171.3514,169.8457,296.0,170.8473,171.8403,172.3401,172.3406,178.3585,3632.9,178.3592,5.0,179.3584,0.0,1.0,1.0,16.0,1.0,1.0,0.7,Time
,,S36,1,Female,26,anonymized,Serial_Dependence_U,2023.2.3,Win32,60.24096386,,,,,,,,,,,,179.3599,0.0,179.3605,,,,182.3087,182.8086,181.795,182.3086,180.3766,296.0,181.7948,182.8086,183.3086,183.3088,189.3239,9999.0,189.3241,0.0,190.3275,0.0,2.0,2.0,28.0,1.0,1.4,0.7,Time
,,S36,1,Female,26,anonymized,Serial_Dependence_U,2023.2.3,Win32,60.24096386,,,,,,,,,,,,190.3286,0.0,190.3292,,,,193.0507,193.5448,192.5459,193.0505,191.3401,303.0,192.5455,193.5449,194.0448,194.045,198.5801,1867.0,198.5808,5.0,199.5797,0.0,3.0,3.0,12.0,1.0,1.2,0.3,Time
,,S36,1,Female,26,anonymized,Serial_Dependence_U,2023.2.3,Win32,60.24096386,,,,,,,,,,,,199.5811,0.0,199.5818,,,,201.9309,202.4301,201.4142,201.9305,200.5973,246.0,201.4137,202.4301,202.9304,202.9306,206.0144,1565.7,206.0153,5.0,207.0149,0.0,4.0,4.0,20.0,1.0,0.8,0.3,Time
,,S36,1,Female,26,anonymized,Serial_Dependence_U,2023.2.3,Win32,60.24096386,,,,,,,,,,,,207.0163,0.0,207.0176,,,,209.7608,210.2488,209.2437,209.7606,208.0217,38.0,209.2436,210.249,210.7501,210.7506,215.7632,2517.6,215.7634,5.0,216.7671,0.0,5.0,5.0,17.0,1.0,1.2,0.7,Time
,,S36,1,Female,26,anonymized,Serial_Dependence_U,2023.2.3,Win32,60.24096386,,,,,,,,,,,,216.7686,0.0,216.7692,,,,219.2987,219.8012,218.7946,219.2985,217.7755,64.0,218.7942,219.8015,220.3017,220.302,223.8481,1524.7,223.8485,5.0,224.8529,0.0,6.0,6.0,26.0,1.0,1.0,0.7,Time
,,S36,1,Female,26,anonymized,Serial_Dependence_U,2023.2.3,Win32,60.24096386,,,,,,,,,,,,224.8548,0.0,224.8558,,,,227.7818,228.2701,227.2706,227.7817,225.8578,291.0,227.2704,228.2702,228.7699,228.7703,234.4555,2670.3,234.4559,5.0,235.4541,0.0,7.0,7.0,8.0,1.0,1.4,0.7,Time
,,S36,1,Female,26,anonymized,Serial_Dependence_U,2023.2.3,Win32,60.24096386,,,,,,,,,,,,235.4551,0.0,235.4556,,,,237.7805,238.2724,237.2733,237.7803,236.4671,46.0,237.2731,238.2726,238.7726,238.773,244.7858,9999.0,244.7861,0.0,245.7908,0.0,8.0,8.0,5.0,1.0,0.8,0.7,Time
,,S36,1,Female,26,anonymized,Serial_Dependence_U,2023.2.3,Win32,60.24096386,,,,,,,,,,,,245.7924,0.0,245.7928,,,,248.3282,248.8255,247.8209,248.3279,246.808,262.0,247.8208,248.8258,249.3252,249.3255,255.3436,9999.0,255.3438,0.0,256.3424,0.0,9.0,9.0,6.0,1.0,1.0,0.7,Time
,,S36,1,Female,26,anonymized,Serial_Dependence_U,2023.2.3,Win32,60.24096386,,,,,,,,,,,,256.3435,0.0,256.3441,,,,259.4766,259.976,258.9666,259.4764,257.3599,208.0,258.9665,259.9761,260.4763,260.4764,266.4791,9999.0,266.4799,0.0,267.4785,0.0,10.0,10.0,29.0,1.0,1.6,0.7,Time
,,S36,1,Female,26,anonymized,Serial_Dependence_U,2023.2.3,Win32,60.24096386,,,,,,,,,,,,267.4797,0.0,267.4802,,,,270.0243,270.5133,269.5094,270.024,268.4906,289.0,269.5091,270.5135,271.0059,271.006,277.01,9999.0,277.0106,0.0,278.0139,0.0,11.0,11.0,1.0,1.0,1.0,0.3,Time
,,S36,1,Female,26,anonymized,Serial_Dependence_U,2023.2.3,Win32,60.24096386,,,,,,,,,,,,278.0155,0.0,278.0163,,,,280.9641,281.4655,280.4464,280.964,279.0327,289.0,280.446,281.4656,281.965,281.9651,287.9711,9999.0,287.9714,0.0,288.9666,0.0,12.0,12.0,18.0,1.0,1.4,0.7,Time
,,S36,1,Female,26,anonymized,Serial_Dependence_U,2023.2.3,Win32,60.24096386,,,,,,,,,,,,288.9678,0.0,288.9689,,,,291.2986,291.8007,290.7866,291.2985,289.982,2.0,290.7864,291.8009,292.3009,292.3011,296.5022,4149.6,296.5029,5.0,297.502,0.0,13.0,13.0,15.0,1.0,0.8,0.7,Time
,,S36,1,Female,26,anonymized,Serial_Dependence_U,2023.2.3,Win32,60.24096386,,,,,,,,,,,,297.5032,0.0,297.5037,,,,300.0384,300.5356,299.5212,300.0382,298.5189,6.0,299.5211,300.5357,301.0358,301.0359,306.3679,4635.3,306.3681,5.0,307.3712,0.0,14.0,14.0,11.0,1.0,1.0,0.3,Time
,,S36,1,Female,26,anonymized,Serial_Dependence_U,2023.2.3,Win32,60.24096386,,,,,,,,,,,,307.3729,0.0,307.3735,,,,309.7047,310.2046,309.2028,309.7045,308.3875,115.0,309.2025,310.2047,310.7047,310.7049,315.5463,4100.0,315.5466,5.0,316.5393,0.0,15.0,15.0,25.0,1.0,0.8,0.7,Time
,,S36,1,Female,26,anonymized,Serial_Dependence_U,2023.2.3,Win32,60.24096386,,,,,,,,,,,,316.5399,0.0,316.5404,,,,319.6736,320.173,319.1553,319.6734,317.5422,72.0,319.1551,320.173,320.6737,320.6738,326.6761,9999.0,326.6768,0.0,327.6747,0.0,16.0,16.0,24.0,1.0,1.6,0.3,Time
,,S36,1,Female,26,anonymized,Serial_Dependence_U,2023.2.3,Win32,60.24096386,,,,,,,,,,,,327.676,0.0,327.6766,,,,330.4101,330.9095,329.8928,330.4097,328.6772,179.0,329.8924,330.9096,331.4099,331.41,336.3669,3858.0,336.3673,5.0,337.361,0.0,17.0,17.0,7.0,1.0,1.2,0.7,Time
,,S36,1,Female,26,anonymized,Serial_Dependence_U,2023.2.3,Win32,60.24096386,,,,,,,,,,,,337.3623,0.0,337.3629,,,,340.5123,341.0121,339.9965,340.512,338.3786,171.0,339.9961,341.0122,341.5124,341.5126,347.5327,9999.0,347.533,0.0,348.5299,0.0,18.0,18.0,14.0,1.0,1.6,0.3,Time
,,S36,1,Female,26,anonymized,Serial_Dependence_U,2023.2.3,Win32,60.24096386,,,,,,,,,,,,348.5308,0.0,348.5313,,,,351.0576,351.548,350.5482,351.0569,349.5448,163.0,350.548,351.5482,352.0482,352.0485,358.0632,9999.0,358.0638,0.0,359.0665,0.0,19.0,19.0,21.0,1.0,1.0,0.3,Time
,,S36,1,Female,26,anonymized,Serial_Dependence_U,2023.2.3,Win32,60.24096386,,,,,,,,,,,,359.0681,0.0,359.0688,,,,361.8166,362.3165,361.298,361.8164,360.0831,217.0,361.2978,362.3166,362.8168,362.8169,368.3516,5135.6,368.3522,5.0,369.352,0.0,20.0,20.0,22.0,1.0,1.2,0.3,Time
,,S36,1,Female,26,anonymized,Serial_Dependence_U,2023.2.3,Win32,60.24096386,,,,,,,,,,,,369.3538,0.0,369.3544,,,,372.0721,372.5691,371.5652,372.0714,370.3637,163.0,371.565,372.5692,373.0699,373.0701,379.0874,9999.0,379.0876,0.0,380.0876,0.0,21.0,21.0,2.0,1.0,1.2,0.3,Time
,,S36,1,Female,26,anonymized,Serial_Dependence_U,2023.2.3,Win32,60.24096386,,,,,,,,,,,,380.0889,0.0,380.0896,,,,383.2297,383.7224,382.7247,383.2295,381.105,252.0,382.7236,383.7225,384.223,384.2234,389.3699,4458.0,389.3701,5.0,390.3732,0.0,22.0,22.0,4.0,1.0,1.6,0.3,Time
,,S36,1,Female,26,anonymized,Serial_Dependence_U,2023.2.3,Win32,60.24096386,,,,,,,,,,,,390.3749,0.0,390.3756,,,,393.5028,393.9917,392.9908,393.5026,391.3778,121.0,392.9906,393.9918,394.4916,394.4918,399.6919,4786.6,399.6925,5.0,400.6923,0.0,23.0,23.0,9.0,1.0,1.6,0.7,Time
,,S36,1,Female,26,anonymized,Serial_Dependence_U,2023.2.3,Win32,60.24096386,,,,,,,,,,,,400.6934,0.0,400.694,,,,403.6433,404.1429,403.127,403.6429,401.7103,325.0,403.1264,404.1429,404.6432,404.6434,410.6617,9999.0,410.6621,0.0,411.662,0.0,24.0,24.0,13.0,1.0,1.4,0.3,Time
,,S36,1,Female,26,anonymized,Serial_Dependence_U,2023.2.3,Win32,60.24096386,,,,,,,,,,,,411.6639,0.0,411.6644,,,,414.8022,415.296,414.2952,414.8021,412.6782,272.0,414.2951,415.2961,415.7959,415.7963,421.4302,5111.2,421.4303,5.0,422.4308,0.0,25.0,25.0,19.0,1.0,1.6,0.7,Time
,,S36,1,Female,26,anonymized,Serial_Dependence_U,2023.2.3,Win32,60.24096386,,,,,,,,,,,,422.4323,0.0,422.433,,,,425.166,425.6647,424.6596,425.1654,423.4498,151.0,424.6594,425.6648,426.1648,426.165,426.4057,197.7,426.408,1.0,427.3987,0.0,26.0,26.0,27.0,1.0,1.2,0.7,Time
,,S36,1,Female,26,anonymized,Serial_Dependence_U,2023.2.3,Win32,60.24096386,,,,,,,,,,,,427.4004,0.0,427.4011,,,,429.7477,430.2494,429.2321,429.7472,428.4157,254.0,429.232,430.2495,430.7494,430.7497,436.7672,9999.0,436.7679,0.0,437.7675,0.0,27.0,27.0,0.0,1.0,0.8,0.3,Time
,,S36,1,Female,26,anonymized,Serial_Dependence_U,2023.2.3,Win32,60.24096386,,,,,,,,,,,,437.7686,0.0,437.7693,,,,440.1187,440.6183,439.6021,440.1183,438.7847,153.0,439.6016,440.6183,441.1183,441.1185,447.1363,9999.0,447.1366,0.0,448.1362,0.0,28.0,28.0,10.0,1.0,0.8,0.3,Time
,,S36,1,Female,26,anonymized,Serial_Dependence_U,2023.2.3,Win32,60.24096386,,,,,,,,,,,,448.1373,0.0,448.138,,,,451.0693,451.5707,450.5668,451.0691,449.1486,157.0,450.5666,451.5709,452.0706,452.0708,458.0879,9999.0,458.0882,0.0,459.0887,0.0,29.0,29.0,23.0,1.0,1.4,0.3,Time
,,S36,1,Female,26,anonymized,Serial_Dependence_U,2023.2.3,Win32,60.24096386,,,,,,,,,,,,459.0899,1.0,468.3586,s,9.2318,,471.4933,471.9913,470.9811,471.4931,469.3752,54.0,470.981,471.9914,472.4916,472.4918,477.3777,3911.9,477.3787,5.0,478.3764,1.0,0.0,30.0,19.0,1.0,1.6,0.7,Time
,,S36,1,Female,26,anonymized,Serial_Dependence_U,2023.2.3,Win32,60.24096386,,,,,,,,,,,,478.3776,1.0,478.3836,,,,481.3106,481.8103,480.8068,481.3104,479.3852,225.0,480.8065,481.8105,482.3104,482.3105,487.8291,5121.6,487.8298,5.0,488.8287,1.0,1.0,31.0,28.0,1.0,1.4,0.7,Time
,,S36,1,Female,26,anonymized,Serial_Dependence_U,2023.2.3,Win32,60.24096386,,,,,,,,,,,,488.8297,1.0,488.8301,,,,491.5609,492.0636,491.048,491.5607,489.8359,320.0,491.0478,492.0637,492.564,492.5642,498.5781,9999.0,498.5784,0.0,499.5813,1.0,2.0,32.0,2.0,1.0,1.2,0.3,Time
,,S36,1,Female,26,anonymized,Serial_Dependence_U,2023.2.3,Win32,60.24096386,,,,,,,,,,,,499.5825,1.0,499.5833,,,,501.9132,502.4163,501.3958,501.913,500.5875,357.0,501.3957,502.4165,502.9158,502.9161,508.5676,5120.1,508.5684,5.0,509.567,1.0,3.0,33.0,0.0,1.0,0.8,0.3,Time
,,S36,1,Female,26,anonymized,Serial_Dependence_U,2023.2.3,Win32,60.24096386,,,,,,,,,,,,509.5683,1.0,509.5687,,,,512.7188,513.218,512.2018,512.7184,510.5849,42.0,512.2012,513.218,513.718,513.7181,519.7204,9999.0,519.7215,0.0,520.7198,1.0,4.0,34.0,29.0,1.0,1.6,0.7,Time
,,S36,1,Female,26,anonymized,Serial_Dependence_U,2023.2.3,Win32,60.24096386,,,,,,,,,,,,520.7211,1.0,520.7217,,,,523.6646,524.154,523.1509,523.6646,521.7365,200.0,523.1506,524.1543,524.6539,524.6542,530.6626,9999.0,530.6629,0.0,531.6551,1.0,5.0,35.0,8.0,1.0,1.4,0.7,Time
,,S36,1,Female,26,anonymized,Serial_Dependence_U,2023.2.3,Win32,60.24096386,,,,,,,,,,,,531.656,1.0,531.6565,,,,534.1783,534.6742,533.6748,534.1781,532.6724,179.0,533.6745,534.6744,535.1731,535.1733,540.7546,4291.2,540.7549,5.0,541.7582,1.0,6.0,36.0,26.0,1.0,1.0,0.7,Time
,,S36,1,Female,26,anonymized,Serial_Dependence_U,2023.2.3,Win32,60.24096386,,,,,,,,,,,,541.7601,1.0,541.7606,,,,544.6877,545.1757,544.1707,544.6876,542.7616,326.0,544.1706,545.1759,545.6758,545.6761,551.694,9999.0,551.6945,0.0,552.6939,1.0,7.0,37.0,3.0,1.0,1.4,0.3,Time
,,S36,1,Female,26,anonymized,Serial_Dependence_U,2023.2.3,Win32,60.24096386,,,,,,,,,,,,552.6951,1.0,552.6956,,,,555.0368,555.5281,554.5248,555.0365,553.7105,214.0,554.5246,555.5282,556.0278,556.0281,556.6121,187.9,556.6124,1.0,557.6121,1.0,8.0,38.0,5.0,1.0,0.8,0.7,Time
,,S36,1,Female,26,anonymized,Serial_Dependence_U,2023.2.3,Win32,60.24096386,,,,,,,,,,,,557.6141,1.0,557.6147,,,,560.1457,560.6453,559.6435,560.1455,558.6251,268.0,559.6434,560.6455,561.1457,561.1458,566.7638,5223.6,566.7644,5.0,567.7639,1.0,9.0,39.0,1.0,1.0,1.0,0.3,Time
,,S36,1,Female,26,anonymized,Serial_Dependence_U,2023.2.3,Win32,60.24096386,,,,,,,,,,,,567.7651,1.0,567.7655,,,,570.4989,570.9985,569.9825,570.4986,568.7784,270.0,569.9821,570.9986,571.4982,571.4984,577.5163,9999.0,577.517,0.0,578.5161,1.0,10.0,40.0,22.0,1.0,1.2,0.3,Time
,,S36,1,Female,26,anonymized,Serial_Dependence_U,2023.2.3,Win32,60.24096386,,,,,,,,,,,,578.5175,1.0,578.5181,,,,581.6674,582.1671,581.1514,581.667,579.534,336.0,581.1509,582.1672,582.6674,582.6676,588.6701,9999.0,588.6708,0.0,589.6685,1.0,11.0,41.0,9.0,1.0,1.6,0.7,Time
,,S36,1,Female,26,anonymized,Serial_Dependence_U,2023.2.3,Win32,60.24096386,,,,,,,,,,,,589.6698,1.0,589.6702,,,,592.4199,592.9196,591.9032,592.4195,590.6866,241.0,591.9028,592.9197,593.4198,593.42,599.0551,3919.4,599.0557,5.0,600.0549,1.0,12.0,42.0,17.0,1.0,1.2,0.7,Time
,,S36,1,Female,26,anonymized,Serial_Dependence_U,2023.2.3,Win32,60.24096386,,,,,,,,,,,,600.0566,1.0,600.0571,,,,602.4018,602.8896,601.8875,602.4017,601.0629,55.0,601.8848,602.8898,603.3893,603.3895,609.4069,9999.0,609.4076,0.0,610.4073,1.0,13.0,43.0,20.0,1.0,0.8,0.3,Time
,,S36,1,Female,26,anonymized,Serial_Dependence_U,2023.2.3,Win32,60.24096386,,,,,,,,,,,,610.4092,1.0,610.4097,,,,612.9374,613.4414,612.4235,612.9372,611.4204,6.0,612.4233,613.4416,613.9413,613.9416,619.0276,4649.5,619.0284,5.0,620.0251,1.0,14.0,44.0,11.0,1.0,1.0,0.3,Time
,,S36,1,Female,26,anonymized,Serial_Dependence_U,2023.2.3,Win32,60.24096386,,,,,,,,,,,,620.0258,1.0,620.0263,,,,622.9816,623.4765,622.4612,622.981,621.044,121.0,622.4608,623.4767,623.9765,623.9768,624.078,84.40000001,624.0789,1.0,625.0767,1.0,15.0,45.0,18.0,1.0,1.4,0.7,Time
,,S36,1,Female,26,anonymized,Serial_Dependence_U,2023.2.3,Win32,60.24096386,,,,,,,,,,,,625.0777,1.0,625.0785,,,,627.4289,627.9276,626.9121,627.4285,626.0948,135.0,626.9115,627.9277,628.428,628.4281,634.4374,9999.0,634.4382,0.0,635.429,1.0,16.0,46.0,15.0,1.0,0.8,0.7,Time
,,S36,1,Female,26,anonymized,Serial_Dependence_U,2023.2.3,Win32,60.24096386,,,,,,,,,,,,635.4302,1.0,635.431,,,,637.7479,638.2461,637.2463,637.7478,636.4348,241.0,637.2461,638.2462,638.7462,638.7463,644.7622,9999.0,644.7626,0.0,645.7658,1.0,17.0,47.0,25.0,1.0,0.8,0.7,Time
,,S36,1,Female,26,anonymized,Serial_Dependence_U,2023.2.3,Win32,60.24096386,,,,,,,,,,,,645.7676,1.0,645.7681,,,,648.6993,649.1993,648.1961,648.6991,646.7779,58.0,648.196,649.1993,649.6993,649.6994,655.7024,9999.0,655.7028,0.0,656.7006,1.0,18.0,48.0,13.0,1.0,1.4,0.3,Time
,,S36,1,Female,26,anonymized,Serial_Dependence_U,2023.2.3,Win32,60.24096386,,,,,,,,,,,,656.7015,1.0,656.7018,,,,659.435,659.9347,658.9217,659.4349,657.7179,329.0,658.9216,659.9347,660.4349,660.4351,666.4531,9999.0,666.4534,0.0,667.4526,1.0,19.0,49.0,27.0,1.0,1.2,0.7,Time
,,S36,1,Female,26,anonymized,Serial_Dependence_U,2023.2.3,Win32,60.24096386,,,,,,,,,,,,667.4532,1.0,667.4536,,,,670.1735,670.6711,669.6691,670.1733,668.4666,249.0,669.6687,670.6713,671.1709,671.1711,677.1888,9999.0,677.1892,0.0,678.1884,1.0,20.0,50.0,7.0,1.0,1.2,0.7,Time
,,S36,1,Female,26,anonymized,Serial_Dependence_U,2023.2.3,Win32,60.24096386,,,,,,,,,,,,678.1891,1.0,678.1896,,,,680.7237,681.2227,680.2199,680.7234,679.2073,274.0,680.2196,681.2228,681.7227,681.7229,687.7256,9999.0,687.7264,0.0,688.7252,1.0,21.0,51.0,6.0,1.0,1.0,0.7,Time
,,S36,1,Female,26,anonymized,Serial_Dependence_U,2023.2.3,Win32,60.24096386,,,,,,,,,,,,688.7265,1.0,688.7273,,,,691.2587,691.7583,690.7497,691.2586,689.7414,223.0,690.7493,691.7584,692.2585,692.2586,698.2657,9999.0,698.2658,0.0,699.2615,1.0,22.0,52.0,16.0,1.0,1.0,0.7,Time
,,S36,1,Female,26,anonymized,Serial_Dependence_U,2023.2.3,Win32,60.24096386,,,,,,,,,,,,699.263,1.0,699.2635,,,,702.1953,702.6945,701.6922,702.195,700.2774,69.0,701.6921,702.6945,703.1947,703.1949,709.2082,9999.0,709.2086,0.0,710.1969,1.0,23.0,53.0,23.0,1.0,1.4,0.3,Time
,,S36,1,Female,26,anonymized,Serial_Dependence_U,2023.2.3,Win32,60.24096386,,,,,,,,,,,,710.1988,1.0,710.1991,,,,713.3352,713.8305,712.8309,713.3351,711.2122,171.0,712.8306,713.8306,714.3307,714.3309,720.349,9999.0,720.3497,0.0,721.3488,1.0,24.0,54.0,4.0,1.0,1.6,0.3,Time
,,S36,1,Female,26,anonymized,Serial_Dependence_U,2023.2.3,Win32,60.24096386,,,,,,,,,,,,721.3503,1.0,721.351,,,,724.5004,724.9996,723.9839,724.5,722.3668,128.0,723.9835,724.9997,725.5,725.5002,731.5183,9999.0,731.5189,0.0,732.518,1.0,25.0,55.0,24.0,1.0,1.6,0.3,Time
,,S36,1,Female,26,anonymized,Serial_Dependence_U,2023.2.3,Win32,60.24096386,,,,,,,,,,,,732.5194,1.0,732.5198,,,,735.0424,735.5364,734.5315,735.0422,733.521,288.0,734.5314,735.5365,736.0364,736.0366,742.0505,9999.0,742.0507,0.0,743.0396,1.0,26.0,56.0,21.0,1.0,1.0,0.3,Time
,,S36,1,Female,26,anonymized,Serial_Dependence_U,2023.2.3,Win32,60.24096386,,,,,,,,,,,,743.0416,1.0,743.0423,,,,746.1843,746.6883,745.6679,746.1841,744.0508,291.0,745.6678,746.6885,747.1882,747.1883,753.2058,9999.0,753.2061,0.0,754.2064,1.0,27.0,57.0,14.0,1.0,1.6,0.3,Time
,,S36,1,Female,26,anonymized,Serial_Dependence_U,2023.2.3,Win32,60.24096386,,,,,,,,,,,,754.2075,1.0,754.2081,,,,756.5597,757.0573,756.0356,756.559,755.2253,168.0,756.0354,757.0574,757.5574,757.5576,763.5714,9999.0,763.5716,0.0,764.56,1.0,28.0,58.0,10.0,1.0,0.8,0.3,Time
,,S36,1,Female,26,anonymized,Serial_Dependence_U,2023.2.3,Win32,60.24096386,,,,,,,,,,,,764.5618,1.0,764.5623,,,,767.3083,767.8096,766.7917,767.308,765.5757,270.0,766.7914,767.8098,768.3097,768.31,774.323,9999.0,774.3232,0.0,775.3117,1.0,29.0,59.0,12.0,1.0,1.2,0.3,Time
,,S36,1,Female,26,anonymized,Serial_Dependence_U,2023.2.3,Win32,60.24096386,,,,,,,,,,,,775.3134,2.0,779.7301,s,4.39,,782.0628,782.5627,781.546,782.0627,780.7327,142.0,781.5459,782.5628,783.0628,783.0629,789.0648,9999.0,789.0653,0.0,790.0649,2.0,0.0,60.0,20.0,1.0,0.8,0.3,Time
,,S36,1,Female,26,anonymized,Serial_Dependence_U,2023.2.3,Win32,60.24096386,,,,,,,,,,,,790.0661,2.0,790.0703,,,,793.0111,793.4988,792.4958,793.0111,791.0839,115.0,792.4956,793.4989,793.9996,794.0,799.4309,5101.5,799.4313,5.0,800.4337,2.0,1.0,61.0,23.0,1.0,1.4,0.3,Time
,,S36,1,Female,26,anonymized,Serial_Dependence_U,2023.2.3,Win32,60.24096386,,,,,,,,,,,,800.4354,2.0,800.436,,,,802.7677,803.2672,802.2508,802.7675,801.4411,223.0,802.2507,803.2672,803.7675,803.7675,809.7693,9999.0,809.7695,0.0,810.7703,2.0,2.0,62.0,5.0,1.0,0.8,0.7,Time
,,S36,1,Female,26,anonymized,Serial_Dependence_U,2023.2.3,Win32,60.24096386,,,,,,,,,,,,810.7726,2.0,810.7734,,,,813.5041,814.0036,812.9995,813.5037,811.788,161.0,812.9993,814.0037,814.5041,814.5043,820.5188,9999.0,820.5191,0.0,821.5231,2.0,3.0,63.0,27.0,1.0,1.2,0.7,Time
,,S36,1,Female,26,anonymized,Serial_Dependence_U,2023.2.3,Win32,60.24096386,,,,,,,,,,,,821.5245,2.0,821.5248,,,,824.0658,824.557,823.5531,824.0655,822.5379,77.0,823.553,824.5572,825.057,825.0573,831.0697,9999.0,831.0699,0.0,832.0587,2.0,4.0,64.0,16.0,1.0,1.0,0.7,Time
,,S36,1,Female,26,anonymized,Serial_Dependence_U,2023.2.3,Win32,60.24096386,,,,,,,,,,,,832.0605,2.0,832.0612,,,,834.4098,834.9078,833.8922,834.4095,833.0742,41.0,833.8918,834.908,835.408,835.4081,841.4218,9999.0,841.422,0.0,842.4107,2.0,5.0,65.0,0.0,1.0,0.8,0.3,Time
,,S36,1,Female,26,anonymized,Serial_Dependence_U,2023.2.3,Win32,60.24096386,,,,,,,,,,,,842.4126,2.0,842.4132,,,,845.1562,845.6445,844.6492,845.156,843.4281,108.0,844.649,845.6447,846.1442,846.1444,852.1633,9999.0,852.1644,0.0,853.1626,2.0,6.0,66.0,12.0,1.0,1.2,0.3,Time
,,S36,1,Female,26,anonymized,Serial_Dependence_U,2023.2.3,Win32,60.24096386,,,,,,,,,,,,853.1638,2.0,853.1645,,,,855.6986,856.1961,855.1805,855.6984,854.1794,343.0,855.1804,856.1962,856.6963,856.6964,862.6984,9999.0,862.6987,0.0,863.6977,2.0,7.0,67.0,1.0,1.0,1.0,0.3,Time
,,S36,1,Female,26,anonymized,Serial_Dependence_U,2023.2.3,Win32,60.24096386,,,,,,,,,,,,863.6986,2.0,863.6994,,,,866.2328,866.7315,865.7156,866.2325,864.71,270.0,865.7151,866.7316,867.2322,867.2323,873.2511,9999.0,873.2525,0.0,874.2508,2.0,8.0,68.0,21.0,1.0,1.0,0.3,Time
,,S36,1,Female,26,anonymized,Serial_Dependence_U,2023.2.3,Win32,60.24096386,,,,,,,,,,,,874.252,2.0,874.2526,,,,876.7667,877.2684,876.2637,876.7663,875.2537,11.0,876.2636,877.2685,877.7688,877.769,883.7862,9999.0,883.7869,0.0,884.7866,2.0,9.0,69.0,6.0,1.0,1.0,0.7,Time
,,S36,1,Female,26,anonymized,Serial_Dependence_U,2023.2.3,Win32,60.24096386,,,,,,,,,,,,884.7881,2.0,884.7886,,,,887.7037,888.2036,887.1991,887.7035,885.7921,262.0,887.199,888.2037,888.7037,888.7039,894.7062,9999.0,894.7071,0.0,895.7057,2.0,10.0,70.0,13.0,1.0,1.4,0.3,Time
,,S36,1,Female,26,anonymized,Serial_Dependence_U,2023.2.3,Win32,60.24096386,,,,,,,,,,,,895.7068,2.0,895.7077,,,,898.258,898.7563,897.7407,898.2574,896.723,111.0,897.7404,898.7563,899.2566,899.2567,905.2747,9999.0,905.2755,0.0,906.2748,2.0,11.0,71.0,11.0,1.0,1.0,0.3,Time
,,S36,1,Female,26,anonymized,Serial_Dependence_U,2023.2.3,Win32,60.24096386,,,,,,,,,,,,906.276,2.0,906.2767,,,,909.2263,909.7256,908.7107,909.2257,907.2923,355.0,908.7103,909.7258,910.2251,910.2252,916.2268,9999.0,916.2277,0.0,917.2274,2.0,12.0,72.0,8.0,1.0,1.4,0.7,Time
,,S36,1,Female,26,anonymized,Serial_Dependence_U,2023.2.3,Win32,60.24096386,,,,,,,,,,,,917.2286,2.0,917.2292,,,,920.1788,920.6777,919.6619,920.1785,918.2448,107.0,919.6615,920.6778,921.1778,921.1779,927.18,9999.0,927.1806,0.0,928.1798,2.0,13.0,73.0,28.0,1.0,1.4,0.7,Time
,,S36,1,Female,26,anonymized,Serial_Dependence_U,2023.2.3,Win32,60.24096386,,,,,,,,,,,,928.1808,2.0,928.1813,,,,930.5306,931.0304,930.0143,930.5303,929.1977,228.0,930.014,931.0305,931.5301,931.5303,937.5323,9999.0,937.533,0.0,938.5323,2.0,14.0,74.0,25.0,1.0,0.8,0.7,Time
,,S36,1,Female,26,anonymized,Serial_Dependence_U,2023.2.3,Win32,60.24096386,,,,,,,,,,,,938.5332,2.0,938.5338,,,,940.8827,941.3826,940.3627,940.8825,939.5456,187.0,940.3625,941.3827,941.8828,941.883,947.8965,9999.0,947.8967,0.0,948.8848,2.0,15.0,75.0,15.0,1.0,0.8,0.7,Time
,,S36,1,Female,26,anonymized,Serial_Dependence_U,2023.2.3,Win32,60.24096386,,,,,,,,,,,,948.8866,2.0,948.8871,,,,951.2187,951.7181,950.7043,951.2185,949.9012,187.0,950.704,951.7182,952.2187,952.219,958.2377,9999.0,958.2381,0.0,959.2366,2.0,16.0,76.0,10.0,1.0,0.8,0.3,Time
,,S36,1,Female,26,anonymized,Serial_Dependence_U,2023.2.3,Win32,60.24096386,,,,,,,,,,,,959.2377,2.0,959.2384,,,,962.1883,962.6876,961.6719,962.1879,960.2542,223.0,961.6715,962.6877,963.1878,963.1879,969.194,9999.0,969.1949,0.0,970.1894,2.0,17.0,77.0,3.0,1.0,1.4,0.3,Time
,,S36,1,Female,26,anonymized,Serial_Dependence_U,2023.2.3,Win32,60.24096386,,,,,,,,,,,,970.1906,2.0,970.1914,,,,972.9407,973.4402,972.4249,972.9403,971.2072,280.0,972.4243,973.4403,973.9393,973.9394,979.9546,9999.0,979.9547,0.0,980.9583,2.0,18.0,78.0,22.0,1.0,1.2,0.3,Time
,,S36,1,Female,26,anonymized,Serial_Dependence_U,2023.2.3,Win32,60.24096386,,,,,,,,,,,,980.9599,2.0,980.9606,,,,984.11,984.6094,983.5932,984.1095,981.9756,167.0,983.5927,984.6094,985.1095,985.1096,988.2936,2799.2,988.2942,5.0,989.2935,2.0,19.0,79.0,9.0,1.0,1.6,0.7,Time
,,S36,1,Female,26,anonymized,Serial_Dependence_U,2023.2.3,Win32,60.24096386,,,,,,,,,,,,989.2948,2.0,989.2952,,,,992.0452,992.5448,991.5292,992.0446,990.3112,305.0,991.5287,992.5451,993.0448,993.0449,999.0537,9999.0,999.0539,0.0,1000.0471,2.0,20.0,80.0,17.0,1.0,1.2,0.7,Time
,,S36,1,Female,26,anonymized,Serial_Dependence_U,2023.2.3,Win32,60.24096386,,,,,,,,,,,,1000.0487,2.0,1000.0492,,,,1002.9967,1003.4961,1002.4799,1002.9966,1001.0638,242.0,1002.4798,1003.4961,1003.9965,1003.9967,1009.9988,9999.0,1009.999,0.0,1010.9983,2.0,21.0,81.0,18.0,1.0,1.4,0.7,Time
,,S36,1,Female,26,anonymized,Serial_Dependence_U,2023.2.3,Win32,60.24096386,,,,,,,,,,,,1010.9993,2.0,1010.9996,,,,1014.1334,1014.6329,1013.6172,1014.1328,1011.9998,309.0,1013.6166,1014.633,1015.1334,1015.1335,1021.1512,9999.0,1021.1527,0.0,1022.1513,2.0,22.0,82.0,29.0,1.0,1.6,0.7,Time
,,S36,1,Female,26,anonymized,Serial_Dependence_U,2023.2.3,Win32,60.24096386,,,,,,,,,,,,1022.1526,2.0,1022.1532,,,,1024.8855,1025.3849,1024.3806,1024.8854,1023.167,116.0,1024.3804,1025.385,1025.885,1025.8851,1031.9006,9999.0,1031.9009,0.0,1032.9045,2.0,23.0,83.0,7.0,1.0,1.2,0.7,Time
,,S36,1,Female,26,anonymized,Serial_Dependence_U,2023.2.3,Win32,60.24096386,,,,,,,,,,,,1032.9067,2.0,1032.9073,,,,1036.0326,1036.5212,1035.5208,1036.0325,1033.9162,198.0,1035.5207,1036.5213,1037.0214,1037.0216,1043.04,9999.0,1043.0404,0.0,1044.0397,2.0,24.0,84.0,19.0,1.0,1.6,0.7,Time
,,S36,1,Female,26,anonymized,Serial_Dependence_U,2023.2.3,Win32,60.24096386,,,,,,,,,,,,1044.0413,2.0,1044.0419,,,,1046.7541,1047.2506,1046.25,1046.7538,1045.0441,91.0,1046.2498,1047.2506,1047.7414,1047.7416,1053.755,9999.0,1053.7553,0.0,1054.7587,2.0,25.0,85.0,2.0,1.0,1.2,0.3,Time
,,S36,1,Female,26,anonymized,Serial_Dependence_U,2023.2.3,Win32,60.24096386,,,,,,,,,,,,1054.7603,2.0,1054.7609,,,,1057.2903,1057.7926,1056.7876,1057.2901,1055.7754,284.0,1056.7875,1057.7927,1058.2928,1058.2931,1064.2964,9999.0,1064.2972,0.0,1065.2945,2.0,26.0,86.0,26.0,1.0,1.0,0.7,Time
,,S36,1,Female,26,anonymized,Serial_Dependence_U,2023.2.3,Win32,60.24096386,,,,,,,,,,,,1065.2962,2.0,1065.2976,,,,1068.43,1068.9282,1067.9196,1068.4298,1066.3167,299.0,1067.9195,1068.9282,1069.4284,1069.4285,1075.3476,5286.6,1075.348,5.0,1076.3492,2.0,27.0,87.0,14.0,1.0,1.6,0.3,Time
,,S36,1,Female,26,anonymized,Serial_Dependence_U,2023.2.3,Win32,60.24096386,,,,,,,,,,,,1076.3507,2.0,1076.3512,,,,1079.494,1080.0039,1078.9782,1079.4937,1077.3599,60.0,1078.978,1080.0043,1080.498,1080.4983,1086.5118,9999.0,1086.512,0.0,1087.5173,2.0,28.0,88.0,24.0,1.0,1.6,0.3,Time
,,S36,1,Female,26,anonymized,Serial_Dependence_U,2023.2.3,Win32,60.24096386,,,,,,,,,,,,1087.5191,2.0,1087.5195,,,,1090.6355,1091.1336,1090.1303,1090.6353,1088.5268,59.0,1090.1301,1091.1336,1091.6338,1091.6339,1097.6361,9999.0,1097.6378,0.0,1098.6355,2.0,29.0,89.0,4.0,1.0,1.6,0.3,Time
,,S36,1,Female,26,anonymized,Serial_Dependence_U,2023.2.3,Win32,60.24096386,,,,,,,,,,,,1098.6367,3.0,1103.3155,s,4.649,,1106.4555,1106.9538,1105.9387,1106.455,1104.3336,298.0,1105.9383,1106.9538,1107.454,1107.454,1113.4725,9999.0,1113.473,0.0,1114.4724,3.0,0.0,90.0,19.0,1.0,1.6,0.7,Time
,,S36,1,Female,26,anonymized,Serial_Dependence_U,2023.2.3,Win32,60.24096386,,,,,,,,,,,,1114.4737,3.0,1114.4779,,,,1117.0078,1117.5063,1116.4926,1117.0075,1115.4842,264.0,1116.4925,1117.5064,1118.0065,1118.0068,1124.0219,9999.0,1124.0222,0.0,1125.0253,3.0,1.0,91.0,21.0,1.0,1.0,0.3,Time
,,S36,1,Female,26,anonymized,Serial_Dependence_U,2023.2.3,Win32,60.24096386,,,,,,,,,,,,1125.0271,3.0,1125.0273,,,,1128.1589,1128.658,1127.6551,1128.1588,1126.0415,54.0,1127.6549,1128.6581,1129.1582,1129.1582,1135.161,9999.0,1135.1617,0.0,1136.1602,3.0,2.0,92.0,24.0,1.0,1.6,0.3,Time
,,S36,1,Female,26,anonymized,Serial_Dependence_U,2023.2.3,Win32,60.24096386,,,,,,,,,,,,1136.1614,3.0,1136.1618,,,,1138.9121,1139.4106,1138.3952,1138.9117,1137.1785,319.0,1138.3946,1139.4107,1139.9116,1139.9117,1145.9297,9999.0,1145.9304,0.0,1146.9299,3.0,3.0,93.0,17.0,1.0,1.2,0.7,Time
,,S36,1,Female,26,anonymized,Serial_Dependence_U,2023.2.3,Win32,60.24096386,,,,,,,,,,,,1146.9309,3.0,1146.9315,,,,1149.261,1149.7645,1148.7448,1149.2609,1147.9364,15.0,1148.7446,1149.7646,1150.2643,1150.2645,1156.2774,9999.0,1156.2777,0.0,1157.2658,3.0,4.0,94.0,20.0,1.0,0.8,0.3,Time
,,S36,1,Female,26,anonymized,Serial_Dependence_U,2023.2.3,Win32,60.24096386,,,,,,,,,,,,1157.2676,3.0,1157.2682,,,,1159.9993,1160.4991,1159.493,1159.9992,1158.2803,70.0,1159.4928,1160.4992,1160.9992,1160.9993,1167.0014,9999.0,1167.002,0.0,1168.0011,3.0,5.0,95.0,27.0,1.0,1.2,0.7,Time
,,S36,1,Female,26,anonymized,Serial_Dependence_U,2023.2.3,Win32,60.24096386,,,,,,,,,,,,1168.0022,3.0,1168.0026,,,,1170.3358,1170.8348,1169.8221,1170.3356,1169.0104,230.0,1169.8219,1170.8348,1171.3349,1171.3349,1176.8661,4526.1,1176.8663,5.0,1177.8718,3.0,6.0,96.0,15.0,1.0,0.8,0.7,Time
,,S36,1,Female,26,anonymized,Serial_Dependence_U,2023.2.3,Win32,60.24096386,,,,,,,,,,,,1177.8731,3.0,1177.8737,,,,1180.605,1181.104,1180.0887,1180.6049,1178.8873,359.0,1180.0885,1181.104,1181.604,1181.604,1187.606,9999.0,1187.6066,0.0,1188.6054,3.0,7.0,97.0,12.0,1.0,1.2,0.3,Time
,,S36,1,Female,26,anonymized,Serial_Dependence_U,2023.2.3,Win32,60.24096386,,,,,,,,,,,,1188.6061,3.0,1188.6066,,,,1191.1392,1191.6404,1190.6353,1191.1391,1189.6228,216.0,1190.6352,1191.6406,1192.1406,1192.1408,1198.1543,9999.0,1198.1547,0.0,1199.1592,3.0,8.0,98.0,6.0,1.0,1.0,0.7,Time
,,S36,1,Female,26,anonymized,Serial_Dependence_U,2023.2.3,Win32,60.24096386,,,,,,,,,,,,1199.161,3.0,1199.1616,,,,1202.0941,1202.5922,1201.588,1202.0939,1200.176,92.0,1201.5879,1202.5923,1203.0923,1203.0925,1209.1071,9999.0,1209.1074,0.0,1210.1112,3.0,9.0,99.0,18.0,1.0,1.4,0.7,Time
,,S36,1,Female,26,anonymized,Serial_Dependence_U,2023.2.3,Win32,60.24096386,,,,,,,,,,,,1210.1131,3.0,1210.1137,,,,1213.0454,1213.5455,1212.5412,1213.0451,1211.1261,51.0,1212.541,1213.5457,1214.0452,1214.0454,1220.0639,9999.0,1220.0643,0.0,1221.063,3.0,10.0,100.0,3.0,1.0,1.4,0.3,Time
,,S36,1,Female,26,anonymized,Serial_Dependence_U,2023.2.3,Win32,60.24096386,,,,,,,,,,,,1221.064,3.0,1221.0644,,,,1223.4146,1223.914,1222.8973,1223.4142,1222.0807,274.0,1222.897,1223.914,1224.4146,1224.4148,1230.4337,9999.0,1230.4345,0.0,1231.432,3.0,11.0,101.0,25.0,1.0,0.8,0.7,Time
,,S36,1,Female,26,anonymized,Serial_Dependence_U,2023.2.3,Win32,60.24096386,,,,,,,,,,,,1231.4334,3.0,1231.4341,,,,1233.9835,1234.4832,1233.4672,1233.9832,1232.4504,100.0,1233.4667,1234.4836,1234.9835,1234.9837,1241.0013,9999.0,1241.0019,0.0,1242.0015,3.0,12.0,102.0,16.0,1.0,1.0,0.7,Time
,,S36,1,Female,26,anonymized,Serial_Dependence_U,2023.2.3,Win32,60.24096386,,,,,,,,,,,,1242.0028,3.0,1242.0033,,,,1244.353,1244.8519,1243.8363,1244.3527,1243.0202,246.0,1243.8359,1244.8519,1245.352,1245.3522,1251.3541,9999.0,1251.3547,0.0,1252.3545,3.0,13.0,103.0,10.0,1.0,0.8,0.3,Time
,,S36,1,Female,26,anonymized,Serial_Dependence_U,2023.2.3,Win32,60.24096386,,,,,,,,,,,,1252.3567,3.0,1252.3574,,,,1254.9068,1255.4047,1254.3892,1254.9064,1253.3717,106.0,1254.3888,1255.4048,1255.9049,1255.9049,1261.9227,9999.0,1261.9234,0.0,1262.9224,3.0,14.0,104.0,11.0,1.0,1.0,0.3,Time
,,S36,1,Female,26,anonymized,Serial_Dependence_U,2023.2.3,Win32,60.24096386,,,,,,,,,,,,1262.9235,3.0,1262.9241,,,,1265.4744,1265.9738,1264.958,1265.4739,1263.9407,55.0,1264.9576,1265.9738,1266.474,1266.4741,1272.4763,9999.0,1272.4767,0.0,1273.4766,3.0,15.0,105.0,1.0,1.0,1.0,0.3,Time
,,S36,1,Female,26,anonymized,Serial_Dependence_U,2023.2.3,Win32,60.24096386,,,,,,,,,,,,1273.4783,3.0,1273.4789,,,,1276.2107,1276.7093,1275.6943,1276.2103,1274.4816,163.0,1275.6939,1276.7094,1277.2098,1277.21,1283.2287,9999.0,1283.2294,0.0,1284.2274,3.0,16.0,106.0,2.0,1.0,1.2,0.3,Time
,,S36,1,Female,26,anonymized,Serial_Dependence_U,2023.2.3,Win32,60.24096386,,,,,,,,,,,,1284.2284,3.0,1284.229,,,,1287.3647,1287.8622,1286.8526,1287.3645,1285.2447,286.0,1286.8523,1287.8623,1288.3732,1288.3733,1294.3811,9999.0,1294.3816,0.0,1295.3806,3.0,17.0,107.0,14.0,1.0,1.6,0.3,Time
,,S36,1,Female,26,anonymized,Serial_Dependence_U,2023.2.3,Win32,60.24096386,,,,,,,,,,,,1295.3817,3.0,1295.3823,,,,1298.3211,1298.8148,1297.8132,1298.3209,1296.3985,115.0,1297.813,1298.8151,1299.3153,1299.3155,1305.3289,9999.0,1305.3292,0.0,1306.333,3.0,18.0,108.0,8.0,1.0,1.4,0.7,Time
,,S36,1,Female,26,anonymized,Serial_Dependence_U,2023.2.3,Win32,60.24096386,,,,,,,,,,,,1306.3346,3.0,1306.3353,,,,1308.651,1309.1503,1308.1473,1308.6506,1307.3452,10.0,1308.1471,1309.1504,1309.6506,1309.6508,1315.6685,9999.0,1315.6691,0.0,1316.6691,3.0,19.0,109.0,5.0,1.0,0.8,0.7,Time
,,S36,1,Female,26,anonymized,Serial_Dependence_U,2023.2.3,Win32,60.24096386,,,,,,,,,,,,1316.6708,3.0,1316.6717,,,,1319.6202,1320.1195,1319.1038,1319.6199,1317.6863,241.0,1319.1035,1320.1196,1320.6197,1320.6198,1326.6385,9999.0,1326.6389,0.0,1327.6379,3.0,20.0,110.0,23.0,1.0,1.4,0.3,Time
,,S36,1,Female,26,anonymized,Serial_Dependence_U,2023.2.3,Win32,60.24096386,,,,,,,,,,,,1327.6392,3.0,1327.6397,,,,1330.7849,1331.2886,1330.2736,1330.7848,1328.6553,40.0,1330.2732,1331.2887,1331.7887,1331.7889,1337.8041,9999.0,1337.8044,0.0,1338.8076,3.0,21.0,111.0,29.0,1.0,1.6,0.7,Time
,,S36,1,Female,26,anonymized,Serial_Dependence_U,2023.2.3,Win32,60.24096386,,,,,,,,,,,,1338.8094,3.0,1338.8099,,,,1341.7437,1342.2406,1341.2386,1341.7436,1339.821,342.0,1341.2384,1342.2406,1342.7409,1342.7409,1348.7438,9999.0,1348.7446,0.0,1349.7427,3.0,22.0,112.0,28.0,1.0,1.4,0.7,Time
,,S36,1,Female,26,anonymized,Serial_Dependence_U,2023.2.3,Win32,60.24096386,,,,,,,,,,,,1349.744,3.0,1349.7444,,,,1352.8949,1353.3946,1352.3784,1352.8946,1350.7606,251.0,1352.3779,1353.3947,1353.8931,1353.8931,1359.8965,9999.0,1359.8974,0.0,1360.8968,3.0,23.0,113.0,9.0,1.0,1.6,0.7,Time
,,S36,1,Female,26,anonymized,Serial_Dependence_U,2023.2.3,Win32,60.24096386,,,,,,,,,,,,1360.8989,3.0,1360.8995,,,,1363.8269,1364.3298,1363.3117,1363.8268,1361.903,16.0,1363.3116,1364.33,1364.8299,1364.8301,1370.8324,9999.0,1370.8331,0.0,1371.8315,3.0,24.0,114.0,13.0,1.0,1.4,0.3,Time
,,S36,1,Female,26,anonymized,Serial_Dependence_U,2023.2.3,Win32,60.24096386,,,,,,,,,,,,1371.8326,3.0,1371.8332,,,,1374.5467,1375.0486,1374.0393,1374.546,1372.8342,95.0,1374.0391,1375.0488,1375.5488,1375.549,1381.5633,9999.0,1381.5637,0.0,1382.5681,3.0,25.0,115.0,22.0,1.0,1.2,0.3,Time
,,S36,1,Female,26,anonymized,Serial_Dependence_U,2023.2.3,Win32,60.24096386,,,,,,,,,,,,1382.5701,3.0,1382.5706,,,,1385.3021,1385.8012,1384.7855,1385.3017,1383.5819,46.0,1384.7851,1385.8012,1386.3006,1386.3006,1392.3028,9999.0,1392.3033,0.0,1393.3026,3.0,26.0,116.0,7.0,1.0,1.2,0.7,Time
,,S36,1,Female,26,anonymized,Serial_Dependence_U,2023.2.3,Win32,60.24096386,,,,,,,,,,,,1393.3037,3.0,1393.3041,,,,1395.6539,1396.1536,1395.1371,1395.6534,1394.3206,217.0,1395.1366,1396.1537,1396.6538,1396.654,1400.8712,4066.3,1400.8718,5.0,1401.8713,3.0,27.0,117.0,0.0,1.0,0.8,0.3,Time
,,S36,1,Female,26,anonymized,Serial_Dependence_U,2023.2.3,Win32,60.24096386,,,,,,,,,,,,1401.8724,3.0,1401.873,,,,1404.4182,1404.9222,1403.8992,1404.418,1402.889,242.0,1403.8986,1404.9223,1405.4224,1405.4227,1407.6861,624.4,1407.6863,1.0,1408.69,3.0,28.0,118.0,26.0,1.0,1.0,0.7,Time
,,S36,1,Female,26,anonymized,Serial_Dependence_U,2023.2.3,Win32,60.24096386,,,,,,,,,,,,1408.6918,3.0,1408.6924,,,,1411.8447,1412.3407,1411.3373,1411.8446,1409.7068,129.0,1411.3371,1412.3409,1412.8407,1412.8408,1418.8549,9999.0,1418.8551,0.0,1419.8592,3.0,29.0,119.0,4.0,1.0,1.6,0.3,Time
,,S36,1,Female,26,anonymized,Serial_Dependence_U,2023.2.3,Win32,60.24096386,,,,,,,,,,,,1419.8608,4.0,1424.4773,s,4.5846,,1427.2118,1427.7103,1426.7073,1427.2117,1425.491,100.0,1426.7071,1427.7104,1428.2105,1428.2105,1434.2123,9999.0,1434.2125,0.0,1435.2118,4.0,0.0,120.0,2.0,1.0,1.2,0.3,Time
,,S36,1,Female,26,anonymized,Serial_Dependence_U,2023.2.3,Win32,60.24096386,,,,,,,,,,,,1435.2126,4.0,1435.2166,,,,1437.5434,1438.0464,1437.0314,1437.543,1436.214,94.0,1437.0311,1438.0466,1438.5467,1438.5468,1444.5442,5433.5,1444.5445,5.0,1445.5494,4.0,1.0,121.0,15.0,1.0,0.8,0.7,Time
,,S36,1,Female,26,anonymized,Serial_Dependence_U,2023.2.3,Win32,60.24096386,,,,,,,,,,,,1445.5511,4.0,1445.5515,,,,1448.4899,1448.9821,1447.9804,1448.4898,1446.5624,339.0,1447.9802,1448.9822,1449.4826,1449.4828,1455.4849,9999.0,1455.485,0.0,1456.4838,4.0,2.0,122.0,18.0,1.0,1.4,0.7,Time
,,S36,1,Female,26,anonymized,Serial_Dependence_U,2023.2.3,Win32,60.24096386,,,,,,,,,,,,1456.485,4.0,1456.4853,,,,1459.2178,1459.7177,1458.7028,1459.2178,1457.4857,227.0,1458.7025,1459.7177,1460.2172,1460.2173,1466.2197,9999.0,1466.2203,0.0,1467.2198,4.0,3.0,123.0,27.0,1.0,1.2,0.7,Time
,,S36,1,Female,26,anonymized,Serial_Dependence_U,2023.2.3,Win32,60.24096386,,,,,,,,,,,,1467.2209,4.0,1467.2217,,,,1469.9711,1470.4704,1469.4554,1469.9707,1468.2383,77.0,1469.4549,1470.4704,1470.9705,1470.9706,1476.9896,9999.0,1476.9901,0.0,1477.9886,4.0,4.0,124.0,12.0,1.0,1.2,0.3,Time
,,S36,1,Female,26,anonymized,Serial_Dependence_U,2023.2.3,Win32,60.24096386,,,,,,,,,,,,1477.9904,4.0,1477.9914,,,,1480.5402,1481.0393,1480.023,1480.5398,1479.0064,55.0,1480.0226,1481.0393,1481.5394,1481.5395,1487.5413,9999.0,1487.5419,0.0,1488.5413,4.0,5.0,125.0,21.0,1.0,1.0,0.3,Time
,,S36,1,Female,26,anonymized,Serial_Dependence_U,2023.2.3,Win32,60.24096386,,,,,,,,,,,,1488.5433,4.0,1488.5443,,,,1491.6926,1492.1919,1491.1767,1491.6922,1489.5589,95.0,1491.1764,1492.192,1492.6924,1492.6925,1498.7099,9999.0,1498.7102,0.0,1499.7105,4.0,6.0,126.0,4.0,1.0,1.6,0.3,Time
,,S36,1,Female,26,anonymized,Serial_Dependence_U,2023.2.3,Win32,60.24096386,,,,,,,,,,,,1499.7121,4.0,1499.7127,,,,1502.8457,1503.3443,1502.3444,1502.8455,1500.7306,238.0,1502.3443,1503.3443,1503.8445,1503.8445,1509.8463,9999.0,1509.8465,0.0,1510.8461,4.0,7.0,127.0,24.0,1.0,1.6,0.3,Time
,,S36,1,Female,26,anonymized,Serial_Dependence_U,2023.2.3,Win32,60.24096386,,,,,,,,,,,,1510.8472,4.0,1510.8476,,,,1513.5813,1514.0803,1513.0643,1513.5809,1511.8622,298.0,1513.0638,1514.0804,1514.5805,1514.5806,1520.5996,9999.0,1520.6002,0.0,1521.599,4.0,8.0,128.0,7.0,1.0,1.2,0.7,Time
,,S36,1,Female,26,anonymized,Serial_Dependence_U,2023.2.3,Win32,60.24096386,,,,,,,,,,,,1521.6002,4.0,1521.6008,,,,1523.9335,1524.4331,1523.4178,1523.933,1522.6158,25.0,1523.4176,1524.4331,1524.9331,1524.9333,1530.9355,9999.0,1530.9363,0.0,1531.9346,4.0,9.0,129.0,5.0,1.0,0.8,0.7,Time
,,S36,1,Female,26,anonymized,Serial_Dependence_U,2023.2.3,Win32,60.24096386,,,,,,,,,,,,1531.9359,4.0,1531.9366,,,,1534.6861,1535.1853,1534.17,1534.6856,1532.9535,294.0,1534.1695,1535.1854,1535.6854,1535.6856,1541.6884,9999.0,1541.6892,0.0,1542.6868,4.0,10.0,130.0,17.0,1.0,1.2,0.7,Time
,,S36,1,Female,26,anonymized,Serial_Dependence_U,2023.2.3,Win32,60.24096386,,,,,,,,,,,,1542.688,4.0,1542.6885,,,,1545.6387,1546.1379,1545.1218,1545.6383,1543.7056,165.0,1545.1213,1546.1379,1546.6374,1546.6375,1552.6394,9999.0,1552.6401,0.0,1553.639,4.0,11.0,131.0,13.0,1.0,1.4,0.3,Time
,,S36,1,Female,26,anonymized,Serial_Dependence_U,2023.2.3,Win32,60.24096386,,,,,,,,,,,,1553.6397,4.0,1553.6403,,,,1556.3826,1556.8743,1555.8732,1556.3825,1554.6546,222.0,1555.8731,1556.8745,1557.3749,1557.3752,1563.3929,9999.0,1563.3935,0.0,1564.3914,4.0,12.0,132.0,22.0,1.0,1.2,0.3,Time
,,S36,1,Female,26,anonymized,Serial_Dependence_U,2023.2.3,Win32,60.24096386,,,,,,,,,,,,1564.3924,4.0,1564.3928,,,,1567.309,1567.8092,1566.7971,1567.3088,1565.3937,157.0,1566.7965,1567.8093,1568.3094,1568.3095,1574.3118,9999.0,1574.3125,0.0,1575.3111,4.0,13.0,133.0,8.0,1.0,1.4,0.7,Time
,,S36,1,Female,26,anonymized,Serial_Dependence_U,2023.2.3,Win32,60.24096386,,,,,,,,,,,,1575.3123,4.0,1575.3128,,,,1577.8587,1578.3627,1577.342,1577.8585,1576.324,80.0,1577.3419,1578.3629,1578.8626,1578.8629,1584.2945,4896.7,1584.2948,5.0,1585.2975,4.0,14.0,134.0,11.0,1.0,1.0,0.3,Time
,,S36,1,Female,26,anonymized,Serial_Dependence_U,2023.2.3,Win32,60.24096386,,,,,,,,,,,,1585.2994,4.0,1585.2999,,,,1587.614,1588.1139,1587.111,1587.6138,1586.3054,289.0,1587.1108,1588.114,1588.6144,1588.6145,1594.6327,9999.0,1594.634,0.0,1595.6327,4.0,15.0,135.0,25.0,1.0,0.8,0.7,Time
,,S36,1,Female,26,anonymized,Serial_Dependence_U,2023.2.3,Win32,60.24096386,,,,,,,,,,,,1595.634,4.0,1595.6345,,,,1598.1684,1598.6664,1597.6501,1598.1678,1596.6407,122.0,1597.6496,1598.6664,1599.1674,1599.1676,1605.1685,5484.7,1605.1691,5.0,1606.1683,4.0,16.0,136.0,16.0,1.0,1.0,0.7,Time
,,S36,1,Female,26,anonymized,Serial_Dependence_U,2023.2.3,Win32,60.24096386,,,,,,,,,,,,1606.1695,4.0,1606.1699,,,,1608.5026,1609.0019,1607.9988,1608.5025,1607.1869,290.0,1607.9986,1609.0019,1609.502,1609.5022,1615.5039,9999.0,1615.5045,0.0,1616.5038,4.0,17.0,137.0,20.0,1.0,0.8,0.3,Time
,,S36,1,Female,26,anonymized,Serial_Dependence_U,2023.2.3,Win32,60.24096386,,,,,,,,,,,,1616.5048,4.0,1616.5054,,,,1618.85,1619.3485,1618.3393,1618.85,1617.5216,165.0,1618.3389,1619.3486,1619.8487,1619.8488,1625.868,9999.0,1625.8682,0.0,1626.8576,4.0,18.0,138.0,10.0,1.0,0.8,0.3,Time
,,S36,1,Female,26,anonymized,Serial_Dependence_U,2023.2.3,Win32,60.24096386,,,,,,,,,,,,1626.8595,4.0,1626.8599,,,,1629.9911,1630.4901,1629.4751,1629.9907,1627.8683,13.0,1629.4747,1630.4901,1630.9907,1630.9909,1636.9947,9999.0,1636.9953,0.0,1637.9921,4.0,19.0,139.0,14.0,1.0,1.6,0.3,Time
,,S36,1,Female,26,anonymized,Serial_Dependence_U,2023.2.3,Win32,60.24096386,,,,,,,,,,,,1637.9933,4.0,1637.9937,,,,1640.9262,1641.4258,1640.4233,1640.9261,1639.009,86.0,1640.4231,1641.4258,1641.9258,1641.9259,1647.9393,9999.0,1647.9396,0.0,1648.9285,4.0,20.0,140.0,3.0,1.0,1.4,0.3,Time
,,S36,1,Female,26,anonymized,Serial_Dependence_U,2023.2.3,Win32,60.24096386,,,,,,,,,,,,1648.9304,4.0,1648.9307,,,,1652.0818,1652.5794,1651.5643,1652.0816,1649.9469,309.0,1651.5638,1652.5794,1653.0798,1653.0801,1659.0979,9999.0,1659.0986,0.0,1660.0975,4.0,21.0,141.0,29.0,1.0,1.6,0.7,Time
,,S36,1,Female,26,anonymized,Serial_Dependence_U,2023.2.3,Win32,60.24096386,,,,,,,,,,,,1660.0985,4.0,1660.0991,,,,1663.2273,1663.7154,1662.7169,1663.227,1661.1062,354.0,1662.7167,1663.7156,1664.2155,1664.2158,1670.2298,9999.0,1670.2302,0.0,1671.2274,4.0,22.0,142.0,19.0,1.0,1.6,0.7,Time
,,S36,1,Female,26,anonymized,Serial_Dependence_U,2023.2.3,Win32,60.24096386,,,,,,,,,,,,1671.2285,4.0,1671.2289,,,,1674.1677,1674.6674,1673.6511,1674.1673,1672.2358,349.0,1673.6507,1674.6674,1675.1674,1675.1675,1681.1705,9999.0,1681.1717,0.0,1682.1691,4.0,23.0,143.0,23.0,1.0,1.4,0.3,Time
,,S36,1,Female,26,anonymized,Serial_Dependence_U,2023.2.3,Win32,60.24096386,,,,,,,,,,,,1682.1703,4.0,1682.1709,,,,1684.7217,1685.2197,1684.2049,1684.7211,1683.1867,144.0,1684.2043,1685.2198,1685.72,1685.7201,1691.7295,9999.0,1691.7299,0.0,1692.7217,4.0,24.0,144.0,1.0,1.0,1.0,0.3,Time
,,S36,1,Female,26,anonymized,Serial_Dependence_U,2023.2.3,Win32,60.24096386,,,,,,,,,,,,1692.7237,4.0,1692.7241,,,,1695.2725,1695.7717,1694.7549,1695.2724,1693.743,191.0,1694.7548,1695.7717,1696.2718,1696.2719,1702.2876,9999.0,1702.2879,0.0,1703.2905,4.0,25.0,145.0,6.0,1.0,1.0,0.7,Time
,,S36,1,Female,26,anonymized,Serial_Dependence_U,2023.2.3,Win32,60.24096386,,,,,,,,,,,,1703.292,4.0,1703.2928,,,,1705.836,1706.3351,1705.3204,1705.8358,1704.3029,282.0,1705.3202,1706.3351,1706.8355,1706.8356,1712.8382,9999.0,1712.8385,0.0,1713.8272,4.0,26.0,146.0,26.0,1.0,1.0,0.7,Time
,,S36,1,Female,26,anonymized,Serial_Dependence_U,2023.2.3,Win32,60.24096386,,,,,,,,,,,,1713.829,4.0,1713.8293,,,,1716.7572,1717.2609,1716.2437,1716.7569,1714.8429,289.0,1716.2436,1717.2611,1717.7607,1717.7608,1723.7785,9999.0,1723.7789,0.0,1724.7784,4.0,27.0,147.0,28.0,1.0,1.4,0.7,Time
,,S36,1,Female,26,anonymized,Serial_Dependence_U,2023.2.3,Win32,60.24096386,,,,,,,,,,,,1724.7793,4.0,1724.7798,,,,1727.9214,1728.4139,1727.4037,1727.9211,1725.7887,292.0,1727.4034,1728.4142,1728.9131,1728.9134,1734.9259,9999.0,1734.9262,0.0,1735.9148,4.0,28.0,148.0,9.0,1.0,1.6,0.7,Time
,,S36,1,Female,26,anonymized,Serial_Dependence_U,2023.2.3,Win32,60.24096386,,,,,,,,,,,,1735.9171,4.0,1735.9174,,,,1738.2493,1738.7483,1737.7383,1738.2491,1736.9295,243.0,1737.7381,1738.7484,1739.2485,1739.2486,1745.2525,9999.0,1745.2528,0.0,1746.2516,4.0,29.0,149.0,0.0,1.0,0.8,0.3,Time
,,S36,1,Female,26,anonymized,Serial_Dependence_U,2023.2.3,Win32,60.24096386,,,,,,,,,,,,1746.2536,5.0,1821.8682,s,75.5768,,1824.3982,1824.9024,1823.8848,1824.398,1822.8802,298.0,1823.8847,1824.9025,1825.4025,1825.4028,1831.4119,9999.0,1831.4121,0.0,1832.4038,5.0,0.0,150.0,6.0,1.0,1.0,0.7,Time
,,S36,1,Female,26,anonymized,Serial_Dependence_U,2023.2.3,Win32,60.24096386,,,,,,,,,,,,1832.4056,5.0,1832.4081,,,,1834.7372,1835.2366,1834.2329,1834.7372,1833.4162,45.0,1834.2327,1835.2366,1835.7373,1835.7373,1841.747,9999.0,1841.7474,0.0,1842.7399,5.0,1.0,151.0,20.0,1.0,0.8,0.3,Time
,,S36,1,Female,26,anonymized,Serial_Dependence_U,2023.2.3,Win32,60.24096386,,,,,,,,,,,,1842.7419,5.0,1842.7426,,,,1845.8854,1846.3732,1845.3701,1845.8852,1843.7532,206.0,1845.3697,1846.3733,1846.8738,1846.8741,1852.887,9999.0,1852.8873,0.0,1853.8754,5.0,2.0,152.0,9.0,1.0,1.6,0.7,Time
,,S36,1,Female,26,anonymized,Serial_Dependence_U,2023.2.3,Win32,60.24096386,,,,,,,,,,,,1853.877,5.0,1853.8775,,,,1856.6133,1857.1081,1856.1058,1856.6125,1854.8927,76.0,1856.1055,1857.1081,1857.6082,1857.6083,1863.6159,9999.0,1863.6161,0.0,1864.6106,5.0,3.0,153.0,17.0,1.0,1.2,0.7,Time
,,S36,1,Female,26,anonymized,Serial_Dependence_U,2023.2.3,Win32,60.24096386,,,,,,,,,,,,1864.6117,5.0,1864.6124,,,,1866.9257,1867.4285,1866.4238,1866.9254,1865.6181,41.0,1866.4236,1867.4288,1867.9285,1867.9289,1873.9423,9999.0,1873.9425,0.0,1874.9466,5.0,4.0,154.0,5.0,1.0,0.8,0.7,Time
,,S36,1,Female,26,anonymized,Serial_Dependence_U,2023.2.3,Win32,60.24096386,,,,,,,,,,,,1874.9481,5.0,1874.9488,,,,1877.8736,1878.3642,1877.3643,1877.8734,1875.9584,35.0,1877.3642,1878.3646,1878.8644,1878.8646,1884.8823,9999.0,1884.8829,0.0,1885.8823,5.0,5.0,155.0,28.0,1.0,1.4,0.7,Time
,,S36,1,Female,26,anonymized,Serial_Dependence_U,2023.2.3,Win32,60.24096386,,,,,,,,,,,,1885.8835,5.0,1885.8841,,,,1888.4171,1888.9164,1887.9031,1888.4166,1886.8998,191.0,1887.9025,1888.9166,1889.4166,1889.4167,1895.4343,9999.0,1895.4345,0.0,1896.4345,5.0,6.0,156.0,16.0,1.0,1.0,0.7,Time
,,S36,1,Female,26,anonymized,Serial_Dependence_U,2023.2.3,Win32,60.24096386,,,,,,,,,,,,1896.4353,5.0,1896.4359,,,,1899.5861,1900.0858,1899.0694,1899.5857,1897.4521,23.0,1899.0688,1900.0859,1900.5856,1900.5858,1906.6042,9999.0,1906.6047,0.0,1907.6039,5.0,7.0,157.0,19.0,1.0,1.6,0.7,Time
,,S36,1,Female,26,anonymized,Serial_Dependence_U,2023.2.3,Win32,60.24096386,,,,,,,,,,,,1907.6054,5.0,1907.6064,,,,1910.7344,1911.2265,1910.2184,1910.7343,1908.6159,260.0,1910.2182,1911.2269,1911.7217,1911.7218,1915.3525,3260.4,1915.3527,5.0,1916.3562,5.0,8.0,158.0,4.0,1.0,1.6,0.3,Time
,,S36,1,Female,26,anonymized,Serial_Dependence_U,2023.2.3,Win32,60.24096386,,,,,,,,,,,,1916.3581,5.0,1916.3587,,,,1918.9064,1919.4063,1918.3897,1918.9062,1917.3737,309.0,1918.3896,1919.4063,1919.9066,1919.9067,1925.9158,9999.0,1925.9161,0.0,1926.9089,5.0,9.0,159.0,21.0,1.0,1.0,0.3,Time
,,S36,1,Female,26,anonymized,Serial_Dependence_U,2023.2.3,Win32,60.24096386,,,,,,,,,,,,1926.911,5.0,1926.9116,,,,1929.6564,1930.1595,1929.1457,1929.6563,1927.9295,114.0,1929.1455,1930.1596,1930.6603,1930.6606,1936.6784,9999.0,1936.6793,0.0,1937.6774,5.0,10.0,160.0,7.0,1.0,1.2,0.7,Time
,,S36,1,Female,26,anonymized,Serial_Dependence_U,2023.2.3,Win32,60.24096386,,,,,,,,,,,,1937.6787,5.0,1937.6791,,,,1940.625,1941.1284,1940.1111,1940.6248,1938.696,184.0,1940.1111,1941.1285,1941.6285,1941.6286,1947.6385,9999.0,1947.6388,0.0,1948.6306,5.0,11.0,161.0,3.0,1.0,1.4,0.3,Time
,,S36,1,Female,26,anonymized,Serial_Dependence_U,2023.2.3,Win32,60.24096386,,,,,,,,,,,,1948.6325,5.0,1948.633,,,,1951.7608,1952.2648,1951.2595,1951.7606,1949.6439,82.0,1951.2594,1952.2651,1952.7645,1952.7649,1958.7215,5425.9,1958.7217,5.0,1959.7171,5.0,12.0,162.0,14.0,1.0,1.6,0.3,Time
,,S36,1,Female,26,anonymized,Serial_Dependence_U,2023.2.3,Win32,60.24096386,,,,,,,,,,,,1959.7191,5.0,1959.7195,,,,1962.4675,1962.9668,1961.9506,1962.4671,1960.7336,247.0,1961.9502,1962.9668,1963.467,1963.4673,1969.4811,9999.0,1969.4813,0.0,1970.4855,5.0,13.0,163.0,2.0,1.0,1.2,0.3,Time
,,S36,1,Female,26,anonymized,Serial_Dependence_U,2023.2.3,Win32,60.24096386,,,,,,,,,,,,1970.4876,5.0,1970.4879,,,,1973.0203,1973.5184,1972.5137,1973.0198,1971.4981,161.0,1972.5131,1973.5185,1974.0194,1974.0195,1980.0383,9999.0,1980.0386,0.0,1981.037,5.0,14.0,164.0,26.0,1.0,1.0,0.7,Time
,,S36,1,Female,26,anonymized,Serial_Dependence_U,2023.2.3,Win32,60.24096386,,,,,,,,,,,,1981.0379,5.0,1981.0383,,,,1983.9735,1984.4711,1983.4655,1983.9733,1982.0551,254.0,1983.4647,1984.4712,1984.9712,1984.9713,1990.9858,9999.0,1990.986,0.0,1991.9908,5.0,15.0,165.0,23.0,1.0,1.4,0.3,Time
,,S36,1,Female,26,anonymized,Serial_Dependence_U,2023.2.3,Win32,60.24096386,,,,,,,,,,,,1991.9927,5.0,1991.9933,,,,1994.9414,1995.4405,1994.4251,1994.941,1993.0084,250.0,1994.4247,1995.4406,1995.9409,1995.9411,2001.9597,9999.0,2001.9603,0.0,2002.9591,5.0,16.0,166.0,8.0,1.0,1.4,0.7,Time
,,S36,1,Female,26,anonymized,Serial_Dependence_U,2023.2.3,Win32,60.24096386,,,,,,,,,,,,2002.9604,5.0,2002.9609,,,,2005.7106,2006.2098,2005.1943,2005.7102,2003.9767,79.0,2005.1939,2006.2099,2006.7102,2006.7103,2012.7207,9999.0,2012.7211,0.0,2013.7126,5.0,17.0,167.0,12.0,1.0,1.2,0.3,Time
,,S36,1,Female,26,anonymized,Serial_Dependence_U,2023.2.3,Win32,60.24096386,,,,,,,,,,,,2013.7145,5.0,2013.7152,,,,2016.2621,2016.7613,2015.7439,2016.262,2014.7306,132.0,2015.7437,2016.7614,2017.2621,2017.2622,2023.2655,9999.0,2023.2662,0.0,2024.2642,5.0,18.0,168.0,11.0,1.0,1.0,0.3,Time
,,S36,1,Female,26,anonymized,Serial_Dependence_U,2023.2.3,Win32,60.24096386,,,,,,,,,,,,2024.2655,5.0,2024.266,,,,2026.7979,2027.2977,2026.2906,2026.7978,2025.2787,179.0,2026.29,2027.2977,2027.7981,2027.7983,2033.8165,9999.0,2033.8172,0.0,2034.8166,5.0,19.0,169.0,1.0,1.0,1.0,0.3,Time
,,S36,1,Female,26,anonymized,Serial_Dependence_U,2023.2.3,Win32,60.24096386,,,,,,,,,,,,2034.8181,5.0,2034.8186,,,,2037.7499,2038.2504,2037.2471,2037.7494,2035.8333,257.0,2037.247,2038.2505,2038.7505,2038.7507,2044.7525,9999.0,2044.7532,0.0,2045.7525,5.0,20.0,170.0,13.0,1.0,1.4,0.3,Time
,,S36,1,Female,26,anonymized,Serial_Dependence_U,2023.2.3,Win32,60.24096386,,,,,,,,,,,,2045.7537,5.0,2045.7541,,,,2048.1035,2048.603,2047.5886,2048.1031,2046.7697,228.0,2047.588,2048.6031,2049.1036,2049.1039,2055.1219,9999.0,2055.1228,0.0,2056.1215,5.0,21.0,171.0,15.0,1.0,0.8,0.7,Time
,,S36,1,Female,26,anonymized,Serial_Dependence_U,2023.2.3,Win32,60.24096386,,,,,,,,,,,,2056.1228,5.0,2056.1234,,,,2059.2724,2059.772,2058.7568,2059.2721,2057.1391,89.0,2058.7563,2059.772,2060.2716,2060.2717,2066.2748,9999.0,2066.2756,0.0,2067.2736,5.0,22.0,172.0,24.0,1.0,1.6,0.3,Time
,,S36,1,Female,26,anonymized,Serial_Dependence_U,2023.2.3,Win32,60.24096386,,,,,,,,,,,,2067.2754,5.0,2067.2763,,,,2070.0127,2070.509,2069.5024,2070.0126,2068.2932,336.0,2069.5021,2070.5092,2071.0186,2071.0188,2077.0356,9999.0,2077.0358,0.0,2078.0272,5.0,23.0,173.0,22.0,1.0,1.2,0.3,Time
,,S36,1,Female,26,anonymized,Serial_Dependence_U,2023.2.3,Win32,60.24096386,,,,,,,,,,,,2078.0287,5.0,2078.0292,,,,2080.7571,2081.2605,2080.2416,2080.757,2079.0399,15.0,2080.2412,2081.2606,2081.7605,2081.7606,2087.1304,4421.2,2087.1308,5.0,2088.1292,5.0,24.0,174.0,27.0,1.0,1.2,0.7,Time
,,S36,1,Female,26,anonymized,Serial_Dependence_U,2023.2.3,Win32,60.24096386,,,,,,,,,,,,2088.131,5.0,2088.1315,,,,2090.4761,2090.9798,2089.962,2090.4759,2089.1459,115.0,2089.9618,2090.98,2091.4798,2091.4802,2093.5762,472.9,2093.5764,1.0,2094.5804,5.0,25.0,175.0,0.0,1.0,0.8,0.3,Time
,,S36,1,Female,26,anonymized,Serial_Dependence_U,2023.2.3,Win32,60.24096386,,,,,,,,,,,,2094.5822,5.0,2094.5828,,,,2096.9091,2097.3976,2096.3941,2096.9089,2095.5846,86.0,2096.3939,2097.3977,2097.8978,2097.898,2103.9125,9999.0,2103.9127,0.0,2104.9162,5.0,26.0,176.0,10.0,1.0,0.8,0.3,Time
,,S36,1,Female,26,anonymized,Serial_Dependence_U,2023.2.3,Win32,60.24096386,,,,,,,,,,,,2104.918,5.0,2104.9186,,,,2108.048,2108.5504,2107.5457,2108.0478,2105.9327,115.0,2107.5455,2108.5506,2109.0509,2109.0512,2115.0698,9999.0,2115.0703,0.0,2116.0676,5.0,27.0,177.0,29.0,1.0,1.6,0.7,Time
,,S36,1,Female,26,anonymized,Serial_Dependence_U,2023.2.3,Win32,60.24096386,,,,,,,,,,,,2116.0682,5.0,2116.0686,,,,2118.3994,2118.9027,2117.8827,2118.3992,2117.0813,254.0,2117.8826,2118.9028,2119.4032,2119.4034,2125.4067,9999.0,2125.407,0.0,2126.4038,5.0,28.0,178.0,25.0,1.0,0.8,0.7,Time
,,S36,1,Female,26,anonymized,Serial_Dependence_U,2023.2.3,Win32,60.24096386,,,,,,,,,,,,2126.4049,5.0,2126.4056,,,,2129.335,2129.838,2128.8248,2129.3348,2127.4066,225.0,2128.8246,2129.8381,2130.3382,2130.3384,2136.3563,9999.0,2136.3565,0.0,2137.3562,5.0,29.0,179.0,18.0,1.0,1.4,0.7,Time
,,S36,1,Female,26,anonymized,Serial_Dependence_U,2023.2.3,Win32,60.24096386,,,,,,,,,,,,2137.3572,6.0,2140.8247,s,3.4368,,2143.7551,2144.2584,2143.2418,2143.755,2141.8383,118.0,2143.2417,2144.2585,2144.7586,2144.7588,2150.7675,9999.0,2150.7679,0.0,2151.7605,6.0,0.0,180.0,28.0,1.0,1.4,0.7,Time
,,S36,1,Female,26,anonymized,Serial_Dependence_U,2023.2.3,Win32,60.24096386,,,,,,,,,,,,2151.7623,6.0,2151.7653,,,,2154.1106,2154.6105,2153.5935,2154.1105,2152.7822,148.0,2153.5934,2154.6106,2155.1113,2155.1115,2161.129,9999.0,2161.1291,0.0,2162.1287,6.0,1.0,181.0,10.0,1.0,0.8,0.3,Time
,,S36,1,Female,26,anonymized,Serial_Dependence_U,2023.2.3,Win32,60.24096386,,,,,,,,,,,,2162.1298,6.0,2162.1304,,,,2165.0661,2165.5635,2164.5599,2165.0658,2163.1457,128.0,2164.5595,2165.5636,2166.0632,2166.0634,2172.0677,9999.0,2172.068,0.0,2173.0644,6.0,2.0,182.0,18.0,1.0,1.4,0.7,Time
,,S36,1,Female,26,anonymized,Serial_Dependence_U,2023.2.3,Win32,60.24096386,,,,,,,,,,,,2173.0652,6.0,2173.0656,,,,2175.8005,2176.2992,2175.293,2175.8002,2174.0819,342.0,2175.2923,2176.2996,2176.7985,2176.7986,2182.8032,9999.0,2182.8034,0.0,2183.8001,6.0,3.0,183.0,7.0,1.0,1.2,0.7,Time
,,S36,1,Female,26,anonymized,Serial_Dependence_U,2023.2.3,Win32,60.24096386,,,,,,,,,,,,2183.801,6.0,2183.8015,,,,2186.1196,2186.6181,2185.615,2186.1194,2184.8026,274.0,2185.6148,2186.6182,2187.1189,2187.1192,2193.1326,9999.0,2193.1328,0.0,2194.1369,6.0,4.0,184.0,15.0,1.0,0.8,0.7,Time
,,S36,1,Female,26,anonymized,Serial_Dependence_U,2023.2.3,Win32,60.24096386,,,,,,,,,,,,2194.1385,6.0,2194.1389,,,,2197.0723,2197.5706,2196.566,2197.072,2195.1425,274.0,2196.5658,2197.5707,2198.0716,2198.0719,2204.0841,9999.0,2204.0842,0.0,2205.0732,6.0,5.0,185.0,13.0,1.0,1.4,0.3,Time
,,S36,1,Female,26,anonymized,Serial_Dependence_U,2023.2.3,Win32,60.24096386,,,,,,,,,,,,2205.0746,6.0,2205.0749,,,,2207.8095,2208.3073,2207.2964,2207.8093,2206.0848,84.0,2207.2963,2208.3074,2208.8068,2208.8072,2213.7698,1105.0,2213.7699,2.0,2214.7577,6.0,6.0,186.0,22.0,1.0,1.2,0.3,Time
,,S36,1,Female,26,anonymized,Serial_Dependence_U,2023.2.3,Win32,60.24096386,,,,,,,,,,,,2214.7594,6.0,2214.7601,,,,2217.5048,2218.0096,2216.9899,2217.5047,2215.7745,176.0,2216.9897,2218.0099,2218.5088,2218.509,2224.5169,9999.0,2224.517,0.0,2225.5102,6.0,7.0,187.0,2.0,1.0,1.2,0.3,Time
,,S36,1,Female,26,anonymized,Serial_Dependence_U,2023.2.3,Win32,60.24096386,,,,,,,,,,,,2225.5117,6.0,2225.5123,,,,2228.241,2228.738,2227.7286,2228.2408,2226.5244,190.0,2227.7282,2228.7381,2229.2384,2229.2384,2235.2464,9999.0,2235.2467,0.0,2236.2457,6.0,8.0,188.0,27.0,1.0,1.2,0.7,Time
,,S36,1,Female,26,anonymized,Serial_Dependence_U,2023.2.3,Win32,60.24096386,,,,,,,,,,,,2236.247,6.0,2236.2476,,,,2238.9671,2239.4633,2238.4646,2238.967,2237.2582,297.0,2238.4642,2239.4634,2239.9736,2239.9737,2245.9778,9999.0,2245.9781,0.0,2246.9822,6.0,9.0,189.0,12.0,1.0,1.2,0.3,Time
,,S36,1,Female,26,anonymized,Serial_Dependence_U,2023.2.3,Win32,60.24096386,,,,,,,,,,,,2246.9841,6.0,2246.9844,,,,2249.3176,2249.8158,2248.8116,2249.3174,2247.9981,40.0,2248.8114,2249.8158,2250.316,2250.3161,2256.3304,9999.0,2256.3306,0.0,2257.3344,6.0,10.0,190.0,0.0,1.0,0.8,0.3,Time
,,S36,1,Female,26,anonymized,Serial_Dependence_U,2023.2.3,Win32,60.24096386,,,,,,,,,,,,2257.3366,6.0,2257.3374,,,,2260.0847,2260.584,2259.5696,2260.0846,2258.353,92.0,2259.5694,2260.584,2261.0845,2261.0846,2267.0873,9999.0,2267.0879,0.0,2268.0867,6.0,11.0,191.0,17.0,1.0,1.2,0.7,Time
,,S36,1,Female,26,anonymized,Serial_Dependence_U,2023.2.3,Win32,60.24096386,,,,,,,,,,,,2268.0881,6.0,2268.0885,,,,2270.6171,2271.1209,2270.1158,2270.6168,2269.1007,342.0,2270.1157,2271.121,2271.6213,2271.6215,2277.0182,5052.2,2277.0185,5.0,2278.0222,6.0,12.0,192.0,1.0,1.0,1.0,0.3,Time
,,S36,1,Female,26,anonymized,Serial_Dependence_U,2023.2.3,Win32,60.24096386,,,,,,,,,,,,2278.0236,6.0,2278.0243,,,,2280.9561,2281.4554,2280.4534,2280.9559,2279.0389,86.0,2280.4532,2281.4554,2281.956,2281.956,2287.958,9999.0,2287.9582,0.0,2288.9581,6.0,13.0,193.0,23.0,1.0,1.4,0.3,Time
,,S36,1,Female,26,anonymized,Serial_Dependence_U,2023.2.3,Win32,60.24096386,,,,,,,,,,,,2288.96,6.0,2288.9606,,,,2291.5065,2292.0081,2290.989,2291.5062,2289.9719,180.0,2290.9888,2292.0081,2292.5085,2292.5086,2298.5107,9999.0,2298.5116,0.0,2299.5105,6.0,14.0,194.0,16.0,1.0,1.0,0.7,Time
,,S36,1,Female,26,anonymized,Serial_Dependence_U,2023.2.3,Win32,60.24096386,,,,,,,,,,,,2299.5121,6.0,2299.5126,,,,2302.0613,2302.5613,2301.5451,2302.0609,2300.5281,165.0,2301.5448,2302.5613,2303.0614,2303.0616,2309.08,9999.0,2309.0804,0.0,2310.0791,6.0,15.0,195.0,11.0,1.0,1.0,0.3,Time
,,S36,1,Female,26,anonymized,Serial_Dependence_U,2023.2.3,Win32,60.24096386,,,,,,,,,,,,2310.0801,6.0,2310.0805,,,,2313.0141,2313.5135,2312.4981,2313.0136,2311.0942,297.0,2312.4978,2313.5136,2314.0136,2314.0136,2320.0323,9999.0,2320.0328,0.0,2321.0318,6.0,16.0,196.0,3.0,1.0,1.4,0.3,Time
,,S36,1,Female,26,anonymized,Serial_Dependence_U,2023.2.3,Win32,60.24096386,,,,,,,,,,,,2321.0335,6.0,2321.0343,,,,2324.1835,2324.6829,2323.6666,2324.1832,2322.0497,90.0,2323.6662,2324.683,2325.183,2325.1832,2331.1972,9999.0,2331.1974,0.0,2332.2013,6.0,17.0,197.0,14.0,1.0,1.6,0.3,Time
,,S36,1,Female,26,anonymized,Serial_Dependence_U,2023.2.3,Win32,60.24096386,,,,,,,,,,,,2332.2029,6.0,2332.2035,,,,2335.3368,2335.8349,2334.8347,2335.3366,2333.218,154.0,2334.8346,2335.835,2336.335,2336.3351,2342.339,9999.0,2342.3394,0.0,2343.3377,6.0,18.0,198.0,4.0,1.0,1.6,0.3,Time
,,S36,1,Female,26,anonymized,Serial_Dependence_U,2023.2.3,Win32,60.24096386,,,,,,,,,,,,2343.3395,6.0,2343.34,,,,2345.871,2346.3709,2345.3591,2345.8708,2344.3515,228.0,2345.3588,2346.371,2346.8708,2346.8709,2352.8727,9999.0,2352.8729,0.0,2353.8722,6.0,19.0,199.0,26.0,1.0,1.0,0.7,Time
,,S36,1,Female,26,anonymized,Serial_Dependence_U,2023.2.3,Win32,60.24096386,,,,,,,,,,,,2353.873,6.0,2353.8734,,,,2356.8068,2357.3067,2356.3046,2356.8066,2354.8897,224.0,2356.3041,2357.3067,2357.807,2357.807,2363.8212,9999.0,2363.8215,0.0,2364.8257,6.0,20.0,200.0,8.0,1.0,1.4,0.7,Time
,,S36,1,Female,26,anonymized,Serial_Dependence_U,2023.2.3,Win32,60.24096386,,,,,,,,,,,,2364.8277,6.0,2364.8283,,,,2367.9509,2368.4439,2367.4401,2367.9507,2365.8376,191.0,2367.4399,2368.444,2368.9438,2368.9439,2374.96,9999.0,2374.9604,0.0,2375.9619,6.0,21.0,201.0,19.0,1.0,1.6,0.7,Time
,,S36,1,Female,26,anonymized,Serial_Dependence_U,2023.2.3,Win32,60.24096386,,,,,,,,,,,,2375.9639,6.0,2375.9642,,,,2378.4966,2378.9952,2377.98,2378.4963,2376.9713,213.0,2377.9799,2378.9952,2379.4954,2379.4956,2384.1127,3984.8,2384.1133,5.0,2385.1136,6.0,22.0,202.0,21.0,1.0,1.0,0.3,Time
,,S36,1,Female,26,anonymized,Serial_Dependence_U,2023.2.3,Win32,60.24096386,,,,,,,,,,,,2385.1147,6.0,2385.1151,,,,2388.2661,2388.7642,2387.7483,2388.2656,2386.1307,212.0,2387.7478,2388.7643,2389.2644,2389.2646,2395.2663,9999.0,2395.2666,0.0,2396.2663,6.0,23.0,203.0,29.0,1.0,1.6,0.7,Time
,,S36,1,Female,26,anonymized,Serial_Dependence_U,2023.2.3,Win32,60.24096386,,,,,,,,,,,,2396.2682,6.0,2396.2686,,,,2399.3831,2399.883,2398.8793,2399.383,2397.2776,358.0,2398.8792,2399.883,2400.3831,2400.3832,2406.3853,9999.0,2406.3858,0.0,2407.3857,6.0,24.0,204.0,24.0,1.0,1.6,0.3,Time
,,S36,1,Female,26,anonymized,Serial_Dependence_U,2023.2.3,Win32,60.24096386,,,,,,,,,,,,2407.3873,6.0,2407.3879,,,,2409.7364,2410.2359,2409.2198,2409.7361,2408.4029,327.0,2409.2193,2410.2359,2410.736,2410.7361,2416.7502,9999.0,2416.7504,0.0,2417.7543,6.0,25.0,205.0,5.0,1.0,0.8,0.7,Time
,,S36,1,Female,26,anonymized,Serial_Dependence_U,2023.2.3,Win32,60.24096386,,,,,,,,,,,,2417.756,6.0,2417.7565,,,,2420.9065,2421.4048,2420.3889,2420.906,2418.7717,307.0,2420.3885,2421.4049,2421.905,2421.9051,2427.9077,9999.0,2427.9086,0.0,2428.907,6.0,26.0,206.0,9.0,1.0,1.6,0.7,Time
,,S36,1,Female,26,anonymized,Serial_Dependence_U,2023.2.3,Win32,60.24096386,,,,,,,,,,,,2428.9086,6.0,2428.909,,,,2431.2412,2431.7408,2430.7253,2431.2408,2429.9105,303.0,2430.7249,2431.7409,2432.2412,2432.2413,2438.2541,9999.0,2438.2545,0.0,2439.2431,6.0,27.0,207.0,20.0,1.0,0.8,0.3,Time
,,S36,1,Female,26,anonymized,Serial_Dependence_U,2023.2.3,Win32,60.24096386,,,,,,,,,,,,2439.2453,6.0,2439.2457,,,,2441.7763,2442.2758,2441.2588,2441.7762,2440.2455,207.0,2441.2586,2442.2758,2442.7763,2442.7764,2448.7781,9999.0,2448.7784,0.0,2449.778,6.0,28.0,208.0,6.0,1.0,1.0,0.7,Time
,,S36,1,Female,26,anonymized,Serial_Dependence_U,2023.2.3,Win32,60.24096386,,,,,,,,,,,,2449.7791,6.0,2449.7798,,,,2452.1025,2452.5956,2451.596,2452.1024,2450.7927,11.0,2451.5958,2452.5957,2453.096,2453.0963,2459.1101,9999.0,2459.1104,0.0,2460.1141,6.0,29.0,209.0,25.0,1.0,0.8,0.7,Time
,,S36,1,Female,26,anonymized,Serial_Dependence_U,2023.2.3,Win32,60.24096386,,,,,,,,,,,,2460.1161,7.0,2463.2653,s,3.1177,,2465.9988,2466.4984,2465.4932,2465.9986,2464.2772,176.0,2465.4932,2466.4985,2466.9986,2466.9987,2473.0138,9999.0,2473.0143,0.0,2474.0179,7.0,0.0,210.0,27.0,1.0,1.2,0.7,Time
,,S36,1,Female,26,anonymized,Serial_Dependence_U,2023.2.3,Win32,60.24096386,,,,,,,,,,,,2474.0197,7.0,2474.0228,,,,2476.7681,2477.2678,2476.2518,2476.7678,2475.0342,221.0,2476.2514,2477.2678,2477.768,2477.7681,2483.7863,9999.0,2483.7869,0.0,2484.7864,7.0,1.0,211.0,12.0,1.0,1.2,0.3,Time
,,S36,1,Female,26,anonymized,Serial_Dependence_U,2023.2.3,Win32,60.24096386,,,,,,,,,,,,2484.7876,7.0,2484.7882,,,,2487.9238,2488.4208,2487.4082,2487.9236,2485.8004,239.0,2487.4079,2488.4211,2488.9213,2488.9215,2494.9399,9999.0,2494.9406,0.0,2495.9385,7.0,2.0,212.0,14.0,1.0,1.6,0.3,Time
,,S36,1,Female,26,anonymized,Serial_Dependence_U,2023.2.3,Win32,60.24096386,,,,,,,,,,,,2495.9398,7.0,2495.9401,,,,2498.8744,2499.3723,2498.3698,2498.8741,2496.9533,30.0,2498.3695,2499.3723,2499.8725,2499.8726,2500.8721,654.5,2500.8724,1.0,2501.8735,7.0,3.0,213.0,18.0,1.0,1.4,0.7,Time
,,S36,1,Female,26,anonymized,Serial_Dependence_U,2023.2.3,Win32,60.24096386,,,,,,,,,,,,2501.8754,7.0,2501.8762,,,,2504.409,2504.9065,2503.9027,2504.4089,2502.8859,213.0,2503.9025,2504.9065,2505.4067,2505.4068,2511.4092,9999.0,2511.4097,0.0,2512.409,7.0,4.0,214.0,1.0,1.0,1.0,0.3,Time
,,S36,1,Female,26,anonymized,Serial_Dependence_U,2023.2.3,Win32,60.24096386,,,,,,,,,,,,2512.4104,7.0,2512.4113,,,,2515.5557,2516.0538,2515.0451,2515.5556,2513.4271,65.0,2515.0446,2516.0539,2516.5539,2516.554,2522.562,9999.0,2522.5627,0.0,2523.5618,7.0,5.0,215.0,19.0,1.0,1.6,0.7,Time
,,S36,1,Female,26,anonymized,Serial_Dependence_U,2023.2.3,Win32,60.24096386,,,,,,,,,,,,2523.5632,7.0,2523.5637,,,,2525.9002,2526.3963,2525.392,2525.8998,2524.5795,150.0,2525.3918,2526.3965,2526.8964,2526.8967,2532.9174,9999.0,2532.9182,0.0,2533.9141,7.0,6.0,216.0,20.0,1.0,0.8,0.3,Time
,,S36,1,Female,26,anonymized,Serial_Dependence_U,2023.2.3,Win32,60.24096386,,,,,,,,,,,,2533.9153,7.0,2533.9157,,,,2536.8477,2537.3477,2536.3448,2536.8476,2534.9293,250.0,2536.3446,2537.3478,2537.8484,2537.8485,2543.8517,9999.0,2543.8521,0.0,2544.8498,7.0,7.0,217.0,8.0,1.0,1.4,0.7,Time
,,S36,1,Female,26,anonymized,Serial_Dependence_U,2023.2.3,Win32,60.24096386,,,,,,,,,,,,2544.8509,7.0,2544.8517,,,,2547.7999,2548.3007,2547.2811,2547.7996,2545.8673,238.0,2547.2809,2548.3008,2548.8007,2548.8008,2554.803,9999.0,2554.8038,0.0,2555.8026,7.0,8.0,218.0,3.0,1.0,1.4,0.3,Time
,,S36,1,Female,26,anonymized,Serial_Dependence_U,2023.2.3,Win32,60.24096386,,,,,,,,,,,,2555.8037,7.0,2555.8042,,,,2558.3536,2558.8537,2557.8376,2558.3532,2556.8196,41.0,2557.8372,2558.8539,2559.3533,2559.3535,2564.2006,4480.4,2564.2009,5.0,2565.2049,7.0,9.0,219.0,11.0,1.0,1.0,0.3,Time
,,S36,1,Female,26,anonymized,Serial_Dependence_U,2023.2.3,Win32,60.24096386,,,,,,,,,,,,2565.2071,7.0,2565.2077,,,,2567.9458,2568.4394,2567.439,2567.9456,2566.2213,66.0,2567.4388,2568.4396,2568.939,2568.9393,2574.9595,9999.0,2574.9598,0.0,2575.9579,7.0,10.0,220.0,2.0,1.0,1.2,0.3,Time
,,S36,1,Female,26,anonymized,Serial_Dependence_U,2023.2.3,Win32,60.24096386,,,,,,,,,,,,2575.9599,7.0,2575.9604,,,,2578.2785,2578.7751,2577.7709,2578.2782,2576.9681,246.0,2577.7707,2578.7752,2579.2765,2579.2768,2585.2909,9999.0,2585.2915,0.0,2586.2926,7.0,11.0,221.0,15.0,1.0,0.8,0.7,Time
,,S36,1,Female,26,anonymized,Serial_Dependence_U,2023.2.3,Win32,60.24096386,,,,,,,,,,,,2586.2937,7.0,2586.2942,,,,2588.8274,2589.3264,2588.3103,2588.827,2587.3016,176.0,2588.3098,2589.3265,2589.827,2589.8272,2595.8287,9999.0,2595.829,0.0,2596.8284,7.0,12.0,222.0,16.0,1.0,1.0,0.7,Time
,,S36,1,Female,26,anonymized,Serial_Dependence_U,2023.2.3,Win32,60.24096386,,,,,,,,,,,,2596.8295,7.0,2596.8302,,,,2599.7768,2600.2792,2599.2625,2599.7765,2597.8461,131.0,2599.2624,2600.2793,2600.7794,2600.7796,2606.7977,9999.0,2606.7983,0.0,2607.7976,7.0,13.0,223.0,23.0,1.0,1.4,0.3,Time
,,S36,1,Female,26,anonymized,Serial_Dependence_U,2023.2.3,Win32,60.24096386,,,,,,,,,,,,2607.7988,7.0,2607.7992,,,,2610.9323,2611.4319,2610.4159,2610.9319,2608.8011,67.0,2610.4153,2611.432,2611.932,2611.9323,2617.9368,9999.0,2617.9371,0.0,2618.9333,7.0,14.0,224.0,24.0,1.0,1.6,0.3,Time
,,S36,1,Female,26,anonymized,Serial_Dependence_U,2023.2.3,Win32,60.24096386,,,,,,,,,,,,2618.9344,7.0,2618.9351,,,,2621.2683,2621.7666,2620.754,2621.2681,2619.9523,357.0,2620.7539,2621.7667,2622.2668,2622.2668,2628.2783,9999.0,2628.2786,0.0,2629.2694,7.0,15.0,225.0,25.0,1.0,0.8,0.7,Time
,,S36,1,Female,26,anonymized,Serial_Dependence_U,2023.2.3,Win32,60.24096386,,,,,,,,,,,,2629.2714,7.0,2629.2723,,,,2631.6053,2632.1023,2631.0948,2631.6051,2630.2856,51.0,2631.0944,2632.1023,2632.603,2632.603,2638.6185,9999.0,2638.6188,0.0,2639.6217,7.0,16.0,226.0,5.0,1.0,0.8,0.7,Time
,,S36,1,Female,26,anonymized,Serial_Dependence_U,2023.2.3,Win32,60.24096386,,,,,,,,,,,,2639.6239,7.0,2639.6243,,,,2642.1554,2642.6549,2641.6506,2642.1553,2640.6382,65.0,2641.6505,2642.6549,2643.1552,2643.1553,2649.1579,9999.0,2649.158,0.0,2650.16,7.0,17.0,227.0,6.0,1.0,1.0,0.7,Time
,,S36,1,Female,26,anonymized,Serial_Dependence_U,2023.2.3,Win32,60.24096386,,,,,,,,,,,,2650.1606,7.0,2650.1611,,,,2652.885,2653.3755,2652.3752,2652.8848,2651.1667,234.0,2652.375,2653.3758,2653.875,2653.8752,2659.8935,9999.0,2659.8942,0.0,2660.8933,7.0,18.0,228.0,7.0,1.0,1.2,0.7,Time
,,S36,1,Female,26,anonymized,Serial_Dependence_U,2023.2.3,Win32,60.24096386,,,,,,,,,,,,2660.8945,7.0,2660.895,,,,2663.6443,2664.1439,2663.1277,2663.6439,2661.9109,310.0,2663.1272,2664.144,2664.6443,2664.6447,2670.6573,9999.0,2670.6575,0.0,2671.6461,7.0,19.0,229.0,22.0,1.0,1.2,0.3,Time
,,S36,1,Female,26,anonymized,Serial_Dependence_U,2023.2.3,Win32,60.24096386,,,,,,,,,,,,2671.648,7.0,2671.6485,,,,2674.1805,2674.6791,2673.6744,2674.1803,2672.6596,324.0,2673.6742,2674.6793,2675.1794,2675.1794,2681.1933,9999.0,2681.1935,0.0,2682.1824,7.0,20.0,230.0,21.0,1.0,1.0,0.3,Time
,,S36,1,Female,26,anonymized,Serial_Dependence_U,2023.2.3,Win32,60.24096386,,,,,,,,,,,,2682.1841,7.0,2682.1848,,,,2684.5046,2684.9989,2683.9959,2684.5045,2683.1945,262.0,2683.9957,2684.999,2685.4994,2685.4997,2691.5161,9999.0,2691.5164,0.0,2692.5177,7.0,21.0,231.0,10.0,1.0,0.8,0.3,Time
,,S36,1,Female,26,anonymized,Serial_Dependence_U,2023.2.3,Win32,60.24096386,,,,,,,,,,,,2692.5195,7.0,2692.5199,,,,2695.6469,2696.1347,2695.1305,2695.6467,2693.5291,91.0,2695.1303,2696.1348,2696.6354,2696.6358,2702.6426,9999.0,2702.6429,0.0,2703.6361,7.0,22.0,232.0,9.0,1.0,1.6,0.7,Time
,,S36,1,Female,26,anonymized,Serial_Dependence_U,2023.2.3,Win32,60.24096386,,,,,,,,,,,,2703.6373,7.0,2703.6379,,,,2705.973,2706.4694,2705.4558,2705.9728,2704.6418,16.0,2705.4556,2706.4694,2706.9702,2706.9703,2712.9843,9999.0,2712.9846,0.0,2713.9889,7.0,23.0,233.0,0.0,1.0,0.8,0.3,Time
,,S36,1,Female,26,anonymized,Serial_Dependence_U,2023.2.3,Win32,60.24096386,,,,,,,,,,,,2713.9908,7.0,2713.9913,,,,2716.9281,2717.423,2716.414,2716.928,2714.9987,282.0,2716.4138,2717.4231,2717.9232,2717.9233,2723.929,9999.0,2723.9294,0.0,2724.9247,7.0,24.0,234.0,13.0,1.0,1.4,0.3,Time
,,S36,1,Female,26,anonymized,Serial_Dependence_U,2023.2.3,Win32,60.24096386,,,,,,,,,,,,2724.9264,7.0,2724.9271,,,,2727.8551,2728.3588,2727.3533,2727.8549,2725.9413,189.0,2727.3532,2728.3589,2728.8586,2728.8588,2734.8746,9999.0,2734.8748,0.0,2735.8773,7.0,25.0,235.0,28.0,1.0,1.4,0.7,Time
,,S36,1,Female,26,anonymized,Serial_Dependence_U,2023.2.3,Win32,60.24096386,,,,,,,,,,,,2735.8785,7.0,2735.879,,,,2739.0296,2739.5279,2738.5123,2739.0292,2736.8945,6.0,2738.512,2739.5279,2740.0275,2740.0275,2746.0297,9999.0,2746.0303,0.0,2747.0299,7.0,26.0,236.0,4.0,1.0,1.6,0.3,Time
,,S36,1,Female,26,anonymized,Serial_Dependence_U,2023.2.3,Win32,60.24096386,,,,,,,,,,,,2747.0314,7.0,2747.0319,,,,2749.5809,2750.0806,2749.0639,2749.5804,2748.0475,35.0,2749.0635,2750.0807,2750.5805,2750.5806,2756.5988,9999.0,2756.5993,0.0,2757.5986,7.0,27.0,237.0,26.0,1.0,1.0,0.7,Time
,,S36,1,Female,26,anonymized,Serial_Dependence_U,2023.2.3,Win32,60.24096386,,,,,,,,,,,,2757.5996,7.0,2757.6001,,,,2760.3499,2760.849,2759.8331,2760.3495,2758.6163,302.0,2759.8326,2760.8491,2761.3496,2761.3497,2767.3678,9999.0,2767.3684,0.0,2768.3682,7.0,28.0,238.0,17.0,1.0,1.2,0.7,Time
,,S36,1,Female,26,anonymized,Serial_Dependence_U,2023.2.3,Win32,60.24096386,,,,,,,,,,,,2768.3693,7.0,2768.3699,,,,2771.519,2772.0179,2771.0023,2771.5186,2769.3853,31.0,2771.0019,2772.0179,2772.5186,2772.5187,2773.6523,500.2,2773.6531,1.0,2774.6518,7.0,29.0,239.0,29.0,1.0,1.6,0.7,Time
,,S36,1,Female,26,anonymized,Serial_Dependence_U,2023.2.3,Win32,60.24096386,,,,,,,,,,,,2774.6524,8.0,2778.1539,s,3.4811,,2780.9038,2781.404,2780.3877,2780.9037,2779.1715,255.0,2780.3872,2781.4041,2781.9049,2781.9053,2787.9226,9999.0,2787.9232,0.0,2788.9228,8.0,0.0,240.0,17.0,1.0,1.2,0.7,Time
,,S36,1,Female,26,anonymized,Serial_Dependence_U,2023.2.3,Win32,60.24096386,,,,,,,,,,,,2788.9242,8.0,2788.9282,,,,2791.8737,2792.3732,2791.357,2791.8732,2789.9404,197.0,2791.3565,2792.3734,2792.8734,2792.8736,2798.8924,9999.0,2798.893,0.0,2799.8914,8.0,1.0,241.0,13.0,1.0,1.4,0.3,Time
,,S36,1,Female,26,anonymized,Serial_Dependence_U,2023.2.3,Win32,60.24096386,,,,,,,,,,,,2799.8929,8.0,2799.8933,,,,2802.8441,2803.3426,2802.3265,2802.8436,2800.9103,97.0,2802.3261,2803.3428,2803.8427,2803.8428,2809.8609,9999.0,2809.8615,0.0,2810.861,8.0,2.0,242.0,28.0,1.0,1.4,0.7,Time
,,S36,1,Female,26,anonymized,Serial_Dependence_U,2023.2.3,Win32,60.24096386,,,,,,,,,,,,2810.8622,8.0,2810.8627,,,,2814.0127,2814.5119,2813.5067,2814.0124,2811.8792,108.0,2813.5066,2814.512,2815.0118,2815.012,2821.0304,9999.0,2821.031,0.0,2822.0304,8.0,3.0,243.0,29.0,1.0,1.6,0.7,Time
,,S36,1,Female,26,anonymized,Serial_Dependence_U,2023.2.3,Win32,60.24096386,,,,,,,,,,,,2822.0316,8.0,2822.032,,,,2824.9816,2825.4809,2824.4646,2824.9812,2823.0492,227.0,2824.4642,2825.481,2825.9811,2825.9812,2831.9963,9999.0,2831.9966,0.0,2833.0001,8.0,4.0,244.0,3.0,1.0,1.4,0.3,Time
,,S36,1,Female,26,anonymized,Serial_Dependence_U,2023.2.3,Win32,60.24096386,,,,,,,,,,,,2833.0024,8.0,2833.0029,,,,2835.3371,2835.8339,2834.8211,2835.3369,2834.0129,194.0,2834.8209,2835.834,2836.3335,2836.3337,2842.3527,9999.0,2842.353,0.0,2843.3511,8.0,5.0,245.0,25.0,1.0,0.8,0.7,Time
,,S36,1,Female,26,anonymized,Serial_Dependence_U,2023.2.3,Win32,60.24096386,,,,,,,,,,,,2843.3521,8.0,2843.3525,,,,2846.4826,2846.9867,2845.9733,2846.4824,2844.3576,337.0,2845.9731,2846.987,2847.4867,2847.487,2853.5045,9999.0,2853.5052,0.0,2854.5041,8.0,6.0,246.0,24.0,1.0,1.6,0.3,Time
,,S36,1,Female,26,anonymized,Serial_Dependence_U,2023.2.3,Win32,60.24096386,,,,,,,,,,,,2854.5052,8.0,2854.5057,,,,2857.2555,2857.7549,2856.7389,2857.2551,2855.5219,254.0,2856.7384,2857.755,2858.2551,2858.2552,2864.2683,9999.0,2864.2684,0.0,2865.2574,8.0,7.0,247.0,7.0,1.0,1.2,0.7,Time
,,S36,1,Female,26,anonymized,Serial_Dependence_U,2023.2.3,Win32,60.24096386,,,,,,,,,,,,2865.2591,8.0,2865.2595,,,,2867.7915,2868.2904,2867.2744,2867.7911,2866.2598,170.0,2867.2738,2868.2905,2868.7909,2868.7911,2874.7934,9999.0,2874.7937,0.0,2875.793,8.0,8.0,248.0,21.0,1.0,1.0,0.3,Time
,,S36,1,Female,26,anonymized,Serial_Dependence_U,2023.2.3,Win32,60.24096386,,,,,,,,,,,,2875.7948,8.0,2875.7952,,,,2878.928,2879.4261,2878.4187,2878.9278,2876.8115,250.0,2878.4181,2879.4261,2879.9261,2879.9262,2885.9413,9999.0,2885.9414,0.0,2886.9451,8.0,9.0,249.0,9.0,1.0,1.6,0.7,Time
,,S36,1,Female,26,anonymized,Serial_Dependence_U,2023.2.3,Win32,60.24096386,,,,,,,,,,,,2886.9468,8.0,2886.9475,,,,2889.6788,2890.1788,2889.1738,2889.6787,2887.9589,350.0,2889.1736,2890.1789,2890.6787,2890.6789,2896.6833,9999.0,2896.6837,0.0,2897.6812,8.0,10.0,250.0,27.0,1.0,1.2,0.7,Time
,,S36,1,Female,26,anonymized,Serial_Dependence_U,2023.2.3,Win32,60.24096386,,,,,,,,,,,,2897.683,8.0,2897.6834,,,,2899.9949,2900.4974,2899.4937,2899.9947,2898.6886,87.0,2899.4934,2900.4976,2900.9977,2900.9979,2907.0163,9999.0,2907.017,0.0,2908.0162,8.0,11.0,251.0,15.0,1.0,0.8,0.7,Time
,,S36,1,Female,26,anonymized,Serial_Dependence_U,2023.2.3,Win32,60.24096386,,,,,,,,,,,,2908.0179,8.0,2908.0184,,,,2910.768,2911.2669,2910.2509,2910.7676,2909.0342,256.0,2910.2505,2911.2669,2911.7676,2911.7677,2917.7858,9999.0,2917.7862,0.0,2918.7851,8.0,12.0,252.0,2.0,1.0,1.2,0.3,Time
,,S36,1,Female,26,anonymized,Serial_Dependence_U,2023.2.3,Win32,60.24096386,,,,,,,,,,,,2918.7861,8.0,2918.7867,,,,2921.9373,2922.4365,2921.4187,2921.9367,2919.8019,217.0,2921.4186,2922.4366,2922.9366,2922.9369,2928.9548,9999.0,2928.9554,0.0,2929.955,8.0,13.0,253.0,14.0,1.0,1.6,0.3,Time
,,S36,1,Female,26,anonymized,Serial_Dependence_U,2023.2.3,Win32,60.24096386,,,,,,,,,,,,2929.956,8.0,2929.9565,,,,2932.9062,2933.4057,2932.389,2932.9057,2930.9721,45.0,2932.3885,2933.4058,2933.9058,2933.9059,2939.9084,9999.0,2939.9098,0.0,2940.9071,8.0,14.0,254.0,18.0,1.0,1.4,0.7,Time
,,S36,1,Female,26,anonymized,Serial_Dependence_U,2023.2.3,Win32,60.24096386,,,,,,,,,,,,2940.9086,8.0,2940.9092,,,,2943.8467,2944.3421,2943.3426,2943.8464,2941.9247,61.0,2943.3421,2944.3422,2944.8422,2944.8425,2950.8607,9999.0,2950.8614,0.0,2951.8595,8.0,15.0,255.0,23.0,1.0,1.4,0.3,Time
,,S36,1,Female,26,anonymized,Serial_Dependence_U,2023.2.3,Win32,60.24096386,,,,,,,,,,,,2951.8606,8.0,2951.8611,,,,2954.2072,2954.711,2953.6948,2954.2071,2952.8774,241.0,2953.6945,2954.7112,2955.2118,2955.212,2961.2311,9999.0,2961.2313,0.0,2962.2285,8.0,16.0,256.0,0.0,1.0,0.8,0.3,Time
,,S36,1,Female,26,anonymized,Serial_Dependence_U,2023.2.3,Win32,60.24096386,,,,,,,,,,,,2962.2295,8.0,2962.2298,,,,2964.5627,2965.0625,2964.049,2964.5625,2963.2468,94.0,2964.0488,2965.0625,2965.562,2965.5621,2971.5642,9999.0,2971.5644,0.0,2972.5637,8.0,17.0,257.0,20.0,1.0,0.8,0.3,Time
,,S36,1,Female,26,anonymized,Serial_Dependence_U,2023.2.3,Win32,60.24096386,,,,,,,,,,,,2972.5642,8.0,2972.5644,,,,2975.498,2975.9987,2974.9954,2975.4979,2973.5786,132.0,2974.9951,2975.9987,2976.4989,2976.499,2982.501,9999.0,2982.5016,0.0,2983.5007,8.0,18.0,258.0,8.0,1.0,1.4,0.7,Time
,,S36,1,Female,26,anonymized,Serial_Dependence_U,2023.2.3,Win32,60.24096386,,,,,,,,,,,,2983.502,8.0,2983.5024,,,,2986.2389,2986.7344,2985.7315,2986.2385,2984.5139,184.0,2985.7313,2986.7346,2987.2347,2987.235,2993.2537,9999.0,2993.2541,0.0,2994.2524,8.0,19.0,259.0,12.0,1.0,1.2,0.3,Time
,,S36,1,Female,26,anonymized,Serial_Dependence_U,2023.2.3,Win32,60.24096386,,,,,,,,,,,,2994.2534,8.0,2994.2538,,,,2996.7713,2997.2697,2996.2682,2996.7711,2995.2654,126.0,2996.268,2997.2698,2997.77,2997.7701,3003.7842,9999.0,3003.7844,0.0,3004.7726,8.0,20.0,260.0,11.0,1.0,1.0,0.3,Time
,,S36,1,Female,26,anonymized,Serial_Dependence_U,2023.2.3,Win32,60.24096386,,,,,,,,,,,,3004.7743,8.0,3004.7748,,,,3007.9058,3008.4061,3007.4024,3007.9055,3005.787,297.0,3007.4023,3008.4062,3008.9063,3008.9064,3014.9243,9999.0,3014.9246,0.0,3015.9243,8.0,21.0,261.0,19.0,1.0,1.6,0.7,Time
,,S36,1,Female,26,anonymized,Serial_Dependence_U,2023.2.3,Win32,60.24096386,,,,,,,,,,,,3015.9256,8.0,3015.9261,,,,3018.6417,3019.1419,3018.1386,3018.6414,3016.9296,59.0,3018.1384,3019.1419,3019.6418,3019.6419,3025.6601,9999.0,3025.6607,0.0,3026.6598,8.0,22.0,262.0,22.0,1.0,1.2,0.3,Time
,,S36,1,Female,26,anonymized,Serial_Dependence_U,2023.2.3,Win32,60.24096386,,,,,,,,,,,,3026.6609,8.0,3026.6613,,,,3029.2115,3029.7109,3028.6956,3029.211,3027.6792,75.0,3028.6953,3029.711,3030.2113,3030.2113,3036.2301,9999.0,3036.2307,0.0,3037.2293,8.0,23.0,263.0,26.0,1.0,1.0,0.7,Time
,,S36,1,Female,26,anonymized,Serial_Dependence_U,2023.2.3,Win32,60.24096386,,,,,,,,,,,,3037.2304,8.0,3037.231,,,,3039.7756,3040.2636,3039.2606,3039.7754,3038.2441,294.0,3039.2604,3040.2636,3040.7639,3040.7641,3046.7656,9999.0,3046.7658,0.0,3047.765,8.0,24.0,264.0,1.0,1.0,1.0,0.3,Time
,,S36,1,Female,26,anonymized,Serial_Dependence_U,2023.2.3,Win32,60.24096386,,,,,,,,,,,,3047.7661,8.0,3047.7667,,,,3050.3012,3050.7986,3049.7988,3050.3009,3048.7819,31.0,3049.7986,3050.7987,3051.2989,3051.2989,3057.3146,9999.0,3057.3148,0.0,3058.3181,8.0,25.0,265.0,6.0,1.0,1.0,0.7,Time
,,S36,1,Female,26,anonymized,Serial_Dependence_U,2023.2.3,Win32,60.24096386,,,,,,,,,,,,3058.3199,8.0,3058.3204,,,,3060.6561,3061.1517,3060.1457,3060.6559,3059.3375,268.0,3060.1455,3061.1518,3061.6517,3061.6518,3067.67,9999.0,3067.6705,0.0,3068.67,8.0,26.0,266.0,10.0,1.0,0.8,0.3,Time
,,S36,1,Female,26,anonymized,Serial_Dependence_U,2023.2.3,Win32,60.24096386,,,,,,,,,,,,3068.6713,8.0,3068.6717,,,,3071.1821,3071.6704,3070.6748,3071.1819,3069.6725,245.0,3070.6746,3071.6706,3072.1707,3072.171,3078.1891,9999.0,3078.1897,0.0,3079.1892,8.0,27.0,267.0,16.0,1.0,1.0,0.7,Time
,,S36,1,Female,26,anonymized,Serial_Dependence_U,2023.2.3,Win32,60.24096386,,,,,,,,,,,,3079.1903,8.0,3079.1908,,,,3082.3238,3082.8227,3081.8064,3082.3237,3080.1976,292.0,3081.8062,3082.8228,3083.3229,3083.323,3089.3254,9999.0,3089.3256,0.0,3090.3246,8.0,28.0,268.0,4.0,1.0,1.6,0.3,Time
,,S36,1,Female,26,anonymized,Serial_Dependence_U,2023.2.3,Win32,60.24096386,,,,,,,,,,,,3090.3261,8.0,3090.3267,,,,3092.6728,3093.1753,3092.1559,3092.6726,3091.3426,225.0,3092.1558,3093.1755,3093.6756,3093.6757,3099.69,9999.0,3099.6903,0.0,3100.6942,8.0,29.0,269.0,5.0,1.0,0.8,0.7,Time
