Scale_setup.started,Scale_setup.stopped,participant,session,sex,age,date,expName,psychopyVersion,OS,frameRate,screen_scale_keys.started,screen_scale_keys.stopped,X Scale,Y Scale,rectangel_keys.started,rectangel_keys.stopped,Intro.started,Intro.stopped,key_resp_2.keys,key_resp_2.rt,key_resp_2.duration,block.started,Block_id,block.stopped,Block_resp_2.keys,Block_resp_2.rt,Block_resp_2.duration,ITI.started,ITI.stopped,Mask_2.started,Mask_2.stopped,M2.started,direction,M2.stopped,Cue.started,Cue.stopped,Response.started,Response.stopped,keyDuration,Feedback_Time.started,FeedbackID_T,Feedback_Time.stopped,trials.thisRepN,trials.thisTrialN,trials.thisN,trials.thisIndex,trials.ran,TimeDur,Coherence1,TrialType
0.0005,0.0006,S37,1,Male,31,anonymized,Serial_Dependence_U,2023.2.3,Win32,59.52380952,,,,,,,,,,,,,,,,,,,,,,,,,,,,,,,,,,,,,,,,
,,S37,1,Male,31,anonymized,Serial_Dependence_U,2023.2.3,Win32,59.52380952,0.0022,44.4721,0.0486,0.0506,44.4724,50.9061,50.9064,79.5823,space,28.6348,,,,,,,,,,,,,,,,,,,,,,,,,,,,,,
,,S37,1,Male,31,anonymized,Serial_Dependence_U,2023.2.3,Win32,59.52380952,,,,,,,,,,,,79.5906,0.0,81.8493,s,2.2293,,84.4005,84.8999,83.884,84.4002,82.867,313.0,83.8838,84.9002,85.4007,85.4011,91.4196,9999.0,91.4205,0.0,92.4193,0.0,0.0,0.0,21.0,1.0,1.0,0.3,Time
,,S37,1,Male,31,anonymized,Serial_Dependence_U,2023.2.3,Win32,59.52380952,,,,,,,,,,,,92.4198,0.0,92.4226,,,,94.7704,95.2701,94.2535,94.7701,93.4365,26.0,94.2533,95.2701,95.77,95.7702,96.6881,221.5,96.6885,1.0,97.6874,0.0,1.0,1.0,10.0,1.0,0.8,0.3,Time
,,S37,1,Male,31,anonymized,Serial_Dependence_U,2023.2.3,Win32,59.52380952,,,,,,,,,,,,97.6879,0.0,97.6881,,,,100.2384,100.7383,99.722,100.2382,98.7049,269.0,99.7217,100.7384,101.2385,101.2386,107.2407,9999.0,107.2415,0.0,108.2406,0.0,2.0,2.0,11.0,1.0,1.0,0.3,Time
,,S37,1,Male,31,anonymized,Serial_Dependence_U,2023.2.3,Win32,59.52380952,,,,,,,,,,,,108.2412,0.0,108.2416,,,,111.3921,111.8917,110.8753,111.3919,109.2585,25.0,110.8751,111.8919,112.392,112.3921,117.677,5100.7,117.6773,5.0,118.6774,0.0,3.0,3.0,19.0,1.0,1.6,0.7,Time
,,S37,1,Male,31,anonymized,Serial_Dependence_U,2023.2.3,Win32,59.52380952,,,,,,,,,,,,118.6779,0.0,118.6781,,,,121.2287,121.7282,120.7117,121.2284,119.6949,317.0,120.7115,121.7283,122.2284,122.2285,128.2322,9999.0,128.2326,0.0,129.2307,0.0,4.0,4.0,26.0,1.0,1.0,0.7,Time
,,S37,1,Male,31,anonymized,Serial_Dependence_U,2023.2.3,Win32,59.52380952,,,,,,,,,,,,129.2312,0.0,129.2313,,,,131.5821,132.0815,131.069,131.5819,130.2482,245.0,131.0648,132.0816,132.5816,132.5818,138.584,9999.0,138.5843,0.0,139.5841,0.0,5.0,5.0,25.0,1.0,0.8,0.7,Time
,,S37,1,Male,31,anonymized,Serial_Dependence_U,2023.2.3,Win32,59.52380952,,,,,,,,,,,,139.5844,0.0,139.5845,,,,142.7353,143.2348,142.2185,142.7352,140.6014,4.0,142.2183,143.2355,143.7351,143.7352,147.0038,2323.6,147.0041,5.0,148.0032,0.0,6.0,6.0,14.0,1.0,1.6,0.3,Time
,,S37,1,Male,31,anonymized,Serial_Dependence_U,2023.2.3,Win32,59.52380952,,,,,,,,,,,,148.0037,0.0,148.0039,,,,151.1547,151.6543,150.6386,151.1545,149.0207,279.0,150.6384,151.6544,152.1545,152.1546,156.8561,4417.7,156.8564,5.0,157.8563,0.0,7.0,7.0,24.0,1.0,1.6,0.3,Time
,,S37,1,Male,31,anonymized,Serial_Dependence_U,2023.2.3,Win32,59.52380952,,,,,,,,,,,,157.8568,0.0,157.8569,,,,160.4076,160.9072,159.8908,160.4074,158.8739,218.0,159.8906,160.9073,161.4075,161.4075,167.4096,9999.0,167.4098,0.0,168.4095,0.0,8.0,8.0,16.0,1.0,1.0,0.7,Time
,,S37,1,Male,31,anonymized,Serial_Dependence_U,2023.2.3,Win32,59.52380952,,,,,,,,,,,,168.4101,0.0,168.4107,,,,171.546,172.0441,171.0442,171.5455,169.4273,311.0,171.044,172.0442,172.5442,172.5443,173.7281,132.2,173.7284,1.0,174.7282,0.0,9.0,9.0,4.0,1.0,1.6,0.3,Time
,,S37,1,Male,31,anonymized,Serial_Dependence_U,2023.2.3,Win32,59.52380952,,,,,,,,,,,,174.7286,0.0,174.7287,,,,177.0795,177.5791,176.5628,177.0794,175.7456,195.0,176.5625,177.5792,178.0793,178.0793,181.0304,1162.2,181.0309,5.0,182.0305,0.0,10.0,10.0,15.0,1.0,0.8,0.7,Time
,,S37,1,Male,31,anonymized,Serial_Dependence_U,2023.2.3,Win32,59.52380952,,,,,,,,,,,,182.0309,0.0,182.0311,,,,184.782,185.2819,184.2649,184.7818,183.0478,245.0,184.2647,185.2819,185.7818,185.7819,188.1994,100.2,188.1998,1.0,189.1995,0.0,11.0,11.0,22.0,1.0,1.2,0.3,Time
,,S37,1,Male,31,anonymized,Serial_Dependence_U,2023.2.3,Win32,59.52380952,,,,,,,,,,,,189.2003,0.0,189.2005,,,,197.1024,197.6021,196.5853,197.1022,195.3807,19.0,196.5851,197.6021,198.1022,198.1023,200.8699,128.7,200.8702,1.0,201.87,0.0,12.0,12.0,7.0,1.0,1.2,0.7,Time
,,S37,1,Male,31,anonymized,Serial_Dependence_U,2023.2.3,Win32,59.52380952,,,,,,,,,,,,201.8706,0.0,201.8707,,,,204.6216,205.1211,204.1045,204.6214,202.8877,181.0,204.1043,205.1212,205.6213,205.6214,211.6234,9999.0,211.6237,0.0,212.6234,0.0,13.0,13.0,2.0,1.0,1.2,0.3,Time
,,S37,1,Male,31,anonymized,Serial_Dependence_U,2023.2.3,Win32,59.52380952,,,,,,,,,,,,212.6238,0.0,212.6241,,,,215.5747,216.0743,215.0583,215.5746,213.6412,242.0,215.0581,216.0744,216.5748,216.5748,222.5771,9999.0,222.5774,0.0,223.577,0.0,14.0,14.0,8.0,1.0,1.4,0.7,Time
,,S37,1,Male,31,anonymized,Serial_Dependence_U,2023.2.3,Win32,59.52380952,,,,,,,,,,,,223.5775,0.0,223.5777,,,,226.3284,226.828,225.8115,226.3282,224.5943,137.0,225.8113,226.8281,227.3281,227.3282,227.5469,202.7,227.5474,1.0,228.545,0.0,15.0,15.0,12.0,1.0,1.2,0.3,Time
,,S37,1,Male,31,anonymized,Serial_Dependence_U,2023.2.3,Win32,59.52380952,,,,,,,,,,,,228.5457,0.0,228.5458,,,,231.097,231.596,230.5797,231.0964,229.5627,190.0,230.5795,231.596,232.0962,232.0963,238.0985,9999.0,238.0988,0.0,239.0984,0.0,16.0,16.0,1.0,1.0,1.0,0.3,Time
,,S37,1,Male,31,anonymized,Serial_Dependence_U,2023.2.3,Win32,59.52380952,,,,,,,,,,,,239.0989,0.0,239.099,,,,242.0331,242.5329,241.5164,242.033,240.1087,127.0,241.5163,242.5329,243.033,243.033,245.6174,2541.6,245.6178,5.0,246.6175,0.0,17.0,17.0,3.0,1.0,1.4,0.3,Time
,,S37,1,Male,31,anonymized,Serial_Dependence_U,2023.2.3,Win32,59.52380952,,,,,,,,,,,,246.6181,0.0,246.6182,,,,249.5691,250.0687,249.0521,249.5688,247.6351,165.0,249.0519,250.0687,250.5688,250.5688,254.4702,112.3,254.4706,1.0,255.4704,0.0,18.0,18.0,28.0,1.0,1.4,0.7,Time
,,S37,1,Male,31,anonymized,Serial_Dependence_U,2023.2.3,Win32,59.52380952,,,,,,,,,,,,255.4708,0.0,255.471,,,,257.8216,258.3213,257.3045,257.8214,256.4878,177.0,257.3043,258.3213,258.8215,258.8216,264.8236,9999.0,264.8239,0.0,265.8236,0.0,19.0,19.0,0.0,1.0,0.8,0.3,Time
,,S37,1,Male,31,anonymized,Serial_Dependence_U,2023.2.3,Win32,59.52380952,,,,,,,,,,,,265.8241,0.0,265.8242,,,,268.1592,268.6576,267.6581,268.159,266.8412,194.0,267.6578,268.6577,269.1579,269.158,275.1601,3867.1,275.1604,5.0,276.1601,0.0,20.0,20.0,20.0,1.0,0.8,0.3,Time
,,S37,1,Male,31,anonymized,Serial_Dependence_U,2023.2.3,Win32,59.52380952,,,,,,,,,,,,276.1607,0.0,276.1609,,,,279.1123,279.6112,278.5945,279.1121,277.1778,150.0,278.5944,279.6113,280.1114,280.1114,286.1136,9999.0,286.1139,0.0,287.1148,0.0,21.0,21.0,23.0,1.0,1.4,0.3,Time
,,S37,1,Male,31,anonymized,Serial_Dependence_U,2023.2.3,Win32,59.52380952,,,,,,,,,,,,287.1157,0.0,287.116,,,,290.2651,290.7646,289.7483,290.2649,288.1313,206.0,289.7482,290.7646,291.265,291.265,297.2674,9999.0,297.2677,0.0,298.2671,0.0,22.0,22.0,29.0,1.0,1.6,0.7,Time
,,S37,1,Male,31,anonymized,Serial_Dependence_U,2023.2.3,Win32,59.52380952,,,,,,,,,,,,298.2676,0.0,298.2677,,,,300.6184,301.118,300.1013,300.6182,299.2846,315.0,300.1011,301.118,301.6182,301.6182,307.6206,9999.0,307.6208,0.0,308.6204,0.0,23.0,23.0,5.0,1.0,0.8,0.7,Time
,,S37,1,Male,31,anonymized,Serial_Dependence_U,2023.2.3,Win32,59.52380952,,,,,,,,,,,,308.6209,0.0,308.6212,,,,311.7719,312.2717,311.2551,311.7716,309.638,233.0,311.2549,312.2718,312.7717,312.7719,312.972,178.3,312.9724,1.0,313.972,0.0,24.0,24.0,9.0,1.0,1.6,0.7,Time
,,S37,1,Male,31,anonymized,Serial_Dependence_U,2023.2.3,Win32,59.52380952,,,,,,,,,,,,313.9726,0.0,313.9728,,,,316.9236,317.4232,316.4103,316.9233,314.9897,109.0,316.4064,317.4232,317.9232,317.9233,323.9257,9999.0,323.926,0.0,324.9255,0.0,25.0,25.0,18.0,1.0,1.4,0.7,Time
,,S37,1,Male,31,anonymized,Serial_Dependence_U,2023.2.3,Win32,59.52380952,,,,,,,,,,,,324.926,0.0,324.9262,,,,327.4619,327.9597,326.9434,327.4614,325.9269,262.0,326.9431,327.9597,328.4599,328.4599,334.4622,9999.0,334.4625,0.0,335.4622,0.0,26.0,26.0,6.0,1.0,1.0,0.7,Time
,,S37,1,Male,31,anonymized,Serial_Dependence_U,2023.2.3,Win32,59.52380952,,,,,,,,,,,,335.4627,0.0,335.4628,,,,338.2135,338.7131,337.7001,338.2134,336.4796,352.0,337.6965,338.7132,339.2136,339.2136,339.4135,178.0,339.4138,1.0,340.4136,0.0,27.0,27.0,17.0,1.0,1.2,0.7,Time
,,S37,1,Male,31,anonymized,Serial_Dependence_U,2023.2.3,Win32,59.52380952,,,,,,,,,,,,340.414,0.0,340.4141,,,,343.165,343.6649,342.6483,343.1648,341.4312,346.0,342.6481,343.6649,344.1647,344.1648,350.1673,9999.0,350.1675,0.0,351.167,0.0,28.0,28.0,27.0,1.0,1.2,0.7,Time
,,S37,1,Male,31,anonymized,Serial_Dependence_U,2023.2.3,Win32,59.52380952,,,,,,,,,,,,351.1676,0.0,351.1678,,,,354.1016,354.6016,353.5849,354.1014,352.1683,241.0,353.5847,354.6016,355.1016,355.1017,355.2781,149.1,355.2785,1.0,356.2687,0.0,29.0,29.0,13.0,1.0,1.4,0.3,Time
,,S37,1,Male,31,anonymized,Serial_Dependence_U,2023.2.3,Win32,59.52380952,,,,,,,,,,,,356.2696,1.0,359.4031,s,3.1137,,361.9393,362.4373,361.4374,361.9391,360.4206,83.0,361.4372,362.4374,362.9374,362.9376,368.9397,9999.0,368.9399,0.0,369.9396,1.0,0.0,30.0,26.0,1.0,1.0,0.7,Time
,,S37,1,Male,31,anonymized,Serial_Dependence_U,2023.2.3,Win32,59.52380952,,,,,,,,,,,,369.9402,1.0,369.9423,,,,372.6911,373.1911,372.1741,372.6909,370.9572,240.0,372.174,373.1912,373.6912,373.6913,379.6931,9999.0,379.6934,0.0,380.693,1.0,1.0,31.0,17.0,1.0,1.2,0.7,Time
,,S37,1,Male,31,anonymized,Serial_Dependence_U,2023.2.3,Win32,59.52380952,,,,,,,,,,,,380.6934,1.0,380.6936,,,,383.428,383.9272,382.911,383.4278,381.694,216.0,382.9108,383.9272,384.4276,384.4277,389.5128,5044.4,389.5131,5.0,390.5128,1.0,2.0,32.0,22.0,1.0,1.2,0.3,Time
,,S37,1,Male,31,anonymized,Serial_Dependence_U,2023.2.3,Win32,59.52380952,,,,,,,,,,,,390.5134,1.0,390.5136,,,,393.0643,393.5636,392.5471,393.0639,391.5304,226.0,392.5469,393.5637,394.0638,394.0638,396.3148,2229.9,396.3151,5.0,397.315,1.0,3.0,33.0,11.0,1.0,1.0,0.3,Time
,,S37,1,Male,31,anonymized,Serial_Dependence_U,2023.2.3,Win32,59.52380952,,,,,,,,,,,,397.3156,1.0,397.3157,,,,400.0664,400.566,399.5496,400.0662,398.3328,32.0,399.5494,400.5661,401.0662,401.0664,407.0685,9999.0,407.0687,0.0,408.0683,1.0,4.0,34.0,27.0,1.0,1.2,0.7,Time
,,S37,1,Male,31,anonymized,Serial_Dependence_U,2023.2.3,Win32,59.52380952,,,,,,,,,,,,408.0687,1.0,408.0688,,,,410.6029,411.1027,410.0863,410.6026,409.0839,344.0,410.0861,411.1027,411.6028,411.6028,417.6048,9999.0,417.6051,0.0,418.6051,1.0,5.0,35.0,16.0,1.0,1.0,0.7,Time
,,S37,1,Male,31,anonymized,Serial_Dependence_U,2023.2.3,Win32,59.52380952,,,,,,,,,,,,418.6055,1.0,418.6057,,,,421.5567,422.056,421.0396,421.5562,419.6225,342.0,421.0393,422.0561,422.5563,422.5564,428.5585,9999.0,428.5588,0.0,429.5584,1.0,6.0,36.0,3.0,1.0,1.4,0.3,Time
,,S37,1,Male,31,anonymized,Serial_Dependence_U,2023.2.3,Win32,59.52380952,,,,,,,,,,,,429.559,1.0,429.5592,,,,432.7099,433.2096,432.1932,432.7097,430.5758,202.0,432.1929,433.2096,433.7096,433.7097,439.712,9999.0,439.7124,0.0,440.7119,1.0,7.0,37.0,14.0,1.0,1.6,0.3,Time
,,S37,1,Male,31,anonymized,Serial_Dependence_U,2023.2.3,Win32,59.52380952,,,,,,,,,,,,440.7125,1.0,440.7128,,,,443.4634,443.9631,442.9466,443.4632,441.7294,234.0,442.9464,443.9631,444.4631,444.4632,447.9143,3398.2,447.9146,5.0,448.9143,1.0,8.0,38.0,2.0,1.0,1.2,0.3,Time
,,S37,1,Male,31,anonymized,Serial_Dependence_U,2023.2.3,Win32,59.52380952,,,,,,,,,,,,448.9147,1.0,448.9149,,,,451.8661,452.3656,451.349,451.8659,449.9321,252.0,451.3488,452.3657,452.8658,452.866,458.8681,9999.0,458.8683,0.0,459.8681,1.0,9.0,39.0,28.0,1.0,1.4,0.7,Time
,,S37,1,Male,31,anonymized,Serial_Dependence_U,2023.2.3,Win32,59.52380952,,,,,,,,,,,,459.8687,1.0,459.8689,,,,462.2192,462.7188,461.7025,462.219,460.8873,144.0,461.7023,462.7188,463.2191,463.2192,469.2214,9999.0,469.2217,0.0,470.2213,1.0,10.0,40.0,5.0,1.0,0.8,0.7,Time
,,S37,1,Male,31,anonymized,Serial_Dependence_U,2023.2.3,Win32,59.52380952,,,,,,,,,,,,470.2219,1.0,470.2221,,,,472.7727,473.2723,472.2554,472.7725,471.2388,353.0,472.2553,473.2723,473.7724,473.7725,479.7744,9999.0,479.7748,0.0,480.7744,1.0,11.0,41.0,21.0,1.0,1.0,0.3,Time
,,S37,1,Male,31,anonymized,Serial_Dependence_U,2023.2.3,Win32,59.52380952,,,,,,,,,,,,480.7753,1.0,480.7755,,,,483.7102,484.2089,483.1925,483.7097,481.7755,173.0,483.1922,484.209,484.7091,484.7091,490.7113,9999.0,490.7116,0.0,491.7113,1.0,12.0,42.0,8.0,1.0,1.4,0.7,Time
,,S37,1,Male,31,anonymized,Serial_Dependence_U,2023.2.3,Win32,59.52380952,,,,,,,,,,,,491.712,1.0,491.7121,,,,494.0626,494.5626,493.546,494.0625,492.7296,208.0,493.5458,494.5627,495.0624,495.0624,501.0645,9999.0,501.0648,0.0,502.0646,1.0,13.0,43.0,25.0,1.0,0.8,0.7,Time
,,S37,1,Male,31,anonymized,Serial_Dependence_U,2023.2.3,Win32,59.52380952,,,,,,,,,,,,502.0651,1.0,502.0653,,,,504.816,505.3156,504.2992,504.8158,503.0823,101.0,504.2991,505.3158,505.8158,505.8159,511.818,9999.0,511.8183,0.0,512.8179,1.0,14.0,44.0,7.0,1.0,1.2,0.7,Time
,,S37,1,Male,31,anonymized,Serial_Dependence_U,2023.2.3,Win32,59.52380952,,,,,,,,,,,,512.8185,1.0,512.8187,,,,515.5693,516.0691,515.0524,515.5692,513.8355,6.0,515.0522,516.0691,516.5692,516.5693,522.5715,9999.0,522.5718,0.0,523.5714,1.0,15.0,45.0,12.0,1.0,1.2,0.3,Time
,,S37,1,Male,31,anonymized,Serial_Dependence_U,2023.2.3,Win32,59.52380952,,,,,,,,,,,,523.572,1.0,523.5722,,,,526.5227,527.0224,526.0061,526.5226,524.589,70.0,526.0059,527.0224,527.5226,527.5227,533.5251,9999.0,533.5252,0.0,534.5249,1.0,16.0,46.0,18.0,1.0,1.4,0.7,Time
,,S37,1,Male,31,anonymized,Serial_Dependence_U,2023.2.3,Win32,59.52380952,,,,,,,,,,,,534.5255,1.0,534.5256,,,,536.8761,537.3757,536.3593,536.8759,535.5424,179.0,536.3591,537.3758,537.8759,537.8759,541.4443,3548.7,541.4447,5.0,542.4437,1.0,17.0,47.0,10.0,1.0,0.8,0.3,Time
,,S37,1,Male,31,anonymized,Serial_Dependence_U,2023.2.3,Win32,59.52380952,,,,,,,,,,,,542.4443,1.0,542.4444,,,,545.3951,545.895,544.8785,545.395,543.4615,25.0,544.8784,545.895,546.3952,546.3953,552.3975,9999.0,552.3978,0.0,553.3974,1.0,18.0,48.0,13.0,1.0,1.4,0.3,Time
,,S37,1,Male,31,anonymized,Serial_Dependence_U,2023.2.3,Win32,59.52380952,,,,,,,,,,,,553.3982,1.0,553.3983,,,,555.9489,556.4485,555.4318,555.9486,554.4149,153.0,555.4317,556.4485,556.9486,556.9486,562.9508,9999.0,562.9511,0.0,563.9509,1.0,19.0,49.0,6.0,1.0,1.0,0.7,Time
,,S37,1,Male,31,anonymized,Serial_Dependence_U,2023.2.3,Win32,59.52380952,,,,,,,,,,,,563.9514,1.0,563.9515,,,,567.1023,567.6019,566.5853,567.102,564.9682,29.0,566.585,567.602,568.102,568.1021,574.1147,9999.0,574.1148,0.0,575.1041,1.0,20.0,50.0,9.0,1.0,1.6,0.7,Time
,,S37,1,Male,31,anonymized,Serial_Dependence_U,2023.2.3,Win32,59.52380952,,,,,,,,,,,,575.1045,1.0,575.1046,,,,578.2557,578.7555,577.739,578.2556,576.1218,111.0,577.7388,578.7556,579.256,579.256,585.2578,9999.0,585.2582,0.0,586.2577,1.0,21.0,51.0,4.0,1.0,1.6,0.3,Time
,,S37,1,Male,31,anonymized,Serial_Dependence_U,2023.2.3,Win32,59.52380952,,,,,,,,,,,,586.2583,1.0,586.2585,,,,589.2094,589.709,588.6922,589.2091,587.2753,89.0,588.6921,589.709,590.2089,590.209,596.212,9999.0,596.2123,0.0,597.2113,1.0,22.0,52.0,23.0,1.0,1.4,0.3,Time
,,S37,1,Male,31,anonymized,Serial_Dependence_U,2023.2.3,Win32,59.52380952,,,,,,,,,,,,597.2119,1.0,597.2121,,,,599.5457,600.0453,599.0358,599.5455,598.2289,334.0,599.0348,600.0454,600.5456,600.5456,601.6961,1131.3,601.6965,5.0,602.6963,1.0,23.0,53.0,15.0,1.0,0.8,0.7,Time
,,S37,1,Male,31,anonymized,Serial_Dependence_U,2023.2.3,Win32,59.52380952,,,,,,,,,,,,602.697,1.0,602.6972,,,,605.05,605.5472,604.5325,605.0491,603.7153,96.0,604.5318,605.5472,606.0473,606.0473,612.0496,9999.0,612.0499,0.0,613.0495,1.0,24.0,54.0,0.0,1.0,0.8,0.3,Time
,,S37,1,Male,31,anonymized,Serial_Dependence_U,2023.2.3,Win32,59.52380952,,,,,,,,,,,,613.0501,1.0,613.0503,,,,616.201,616.7009,615.684,616.2008,614.067,24.0,615.6839,616.701,617.2009,617.201,617.2842,48.2,617.2845,1.0,618.2844,1.0,25.0,55.0,24.0,1.0,1.6,0.3,Time
,,S37,1,Male,31,anonymized,Serial_Dependence_U,2023.2.3,Win32,59.52380952,,,,,,,,,,,,618.2851,1.0,618.2853,,,,621.4193,621.9197,620.9024,621.4191,619.2857,205.0,620.9022,621.9199,622.4191,622.4192,628.4215,9999.0,628.4218,0.0,629.4215,1.0,26.0,56.0,29.0,1.0,1.6,0.7,Time
,,S37,1,Male,31,anonymized,Serial_Dependence_U,2023.2.3,Win32,59.52380952,,,,,,,,,,,,629.4222,1.0,629.4224,,,,632.5586,633.0559,632.056,632.5582,630.4389,243.0,632.0558,633.0559,633.5559,633.556,639.5583,9999.0,639.5585,0.0,640.5583,1.0,27.0,57.0,19.0,1.0,1.6,0.7,Time
,,S37,1,Male,31,anonymized,Serial_Dependence_U,2023.2.3,Win32,59.52380952,,,,,,,,,,,,640.5588,1.0,640.559,,,,643.1096,643.6093,642.5927,643.1095,641.5757,45.0,642.5926,643.6094,644.1093,644.1094,650.1116,9999.0,650.1118,0.0,651.1114,1.0,28.0,58.0,1.0,1.0,1.0,0.3,Time
,,S37,1,Male,31,anonymized,Serial_Dependence_U,2023.2.3,Win32,59.52380952,,,,,,,,,,,,651.112,1.0,651.1122,,,,653.4628,653.9624,652.9457,653.4626,652.1292,248.0,652.9455,653.9624,654.4627,654.4627,659.2641,4760.3,659.2644,5.0,660.2643,1.0,29.0,59.0,20.0,1.0,0.8,0.3,Time
,,S37,1,Male,31,anonymized,Serial_Dependence_U,2023.2.3,Win32,59.52380952,,,,,,,,,,,,660.2648,2.0,730.0111,s,69.722,,732.5541,733.0537,732.0375,732.5539,731.0207,291.0,732.0373,733.0538,733.5544,733.5545,734.7718,1195.6,734.7722,4.0,735.7714,2.0,0.0,60.0,21.0,1.0,1.0,0.3,Time
,,S37,1,Male,31,anonymized,Serial_Dependence_U,2023.2.3,Win32,59.52380952,,,,,,,,,,,,735.772,2.0,735.7745,,,,738.1062,738.6057,737.5892,738.106,736.7725,17.0,737.589,738.6058,739.106,739.106,745.1079,9999.0,745.1083,0.0,746.108,2.0,1.0,61.0,20.0,1.0,0.8,0.3,Time
,,S37,1,Male,31,anonymized,Serial_Dependence_U,2023.2.3,Win32,59.52380952,,,,,,,,,,,,746.1086,2.0,746.1089,,,,749.2429,749.7426,748.7263,749.2427,747.1254,327.0,748.7261,749.7426,750.2427,750.2428,756.2449,9999.0,756.2452,0.0,757.2448,2.0,2.0,62.0,4.0,1.0,1.6,0.3,Time
,,S37,1,Male,31,anonymized,Serial_Dependence_U,2023.2.3,Win32,59.52380952,,,,,,,,,,,,757.2453,2.0,757.2455,,,,759.7962,760.2959,759.2795,759.796,758.2626,227.0,759.2793,760.2959,760.7961,760.7962,766.7982,9999.0,766.7984,0.0,767.7983,2.0,3.0,63.0,6.0,1.0,1.0,0.7,Time
,,S37,1,Male,31,anonymized,Serial_Dependence_U,2023.2.3,Win32,59.52380952,,,,,,,,,,,,767.799,2.0,767.7991,,,,770.3496,770.8491,769.8349,770.3494,768.8157,40.0,769.8323,770.8492,771.3493,771.3494,774.4672,3078.1,774.4675,5.0,775.4674,2.0,4.0,64.0,26.0,1.0,1.0,0.7,Time
,,S37,1,Male,31,anonymized,Serial_Dependence_U,2023.2.3,Win32,59.52380952,,,,,,,,,,,,775.4678,2.0,775.468,,,,778.2188,778.7183,777.7057,778.2186,776.4847,291.0,777.7017,778.7183,779.2185,779.2186,785.2207,9999.0,785.2209,0.0,786.2208,2.0,5.0,65.0,12.0,1.0,1.2,0.3,Time
,,S37,1,Male,31,anonymized,Serial_Dependence_U,2023.2.3,Win32,59.52380952,,,,,,,,,,,,786.2215,2.0,786.2216,,,,788.7722,789.2717,788.2553,788.772,787.2385,340.0,788.2551,789.2718,789.7718,789.7719,795.7739,9999.0,795.7742,0.0,796.7738,2.0,6.0,66.0,1.0,1.0,1.0,0.3,Time
,,S37,1,Male,31,anonymized,Serial_Dependence_U,2023.2.3,Win32,59.52380952,,,,,,,,,,,,796.7744,2.0,796.7746,,,,799.3257,799.825,798.8085,799.3251,797.7913,269.0,798.8083,799.825,800.3251,800.3251,806.3274,9999.0,806.3277,0.0,807.3273,2.0,7.0,67.0,16.0,1.0,1.0,0.7,Time
,,S37,1,Male,31,anonymized,Serial_Dependence_U,2023.2.3,Win32,59.52380952,,,,,,,,,,,,807.3277,2.0,807.3279,,,,810.079,810.5783,809.562,810.0789,808.3447,342.0,809.5618,810.5783,811.0785,811.0786,817.0808,9999.0,817.0811,0.0,818.0807,2.0,8.0,68.0,17.0,1.0,1.2,0.7,Time
,,S37,1,Male,31,anonymized,Serial_Dependence_U,2023.2.3,Win32,59.52380952,,,,,,,,,,,,818.0812,2.0,818.0815,,,,820.8154,821.3151,820.2986,820.8152,819.0827,91.0,820.2984,821.3151,821.8153,821.8153,827.8175,9999.0,827.8177,0.0,828.8174,2.0,9.0,69.0,7.0,1.0,1.2,0.7,Time
,,S37,1,Male,31,anonymized,Serial_Dependence_U,2023.2.3,Win32,59.52380952,,,,,,,,,,,,828.8178,2.0,828.8181,,,,831.1688,831.6683,830.6519,831.1686,829.8348,313.0,830.6517,831.6684,832.1684,832.1684,832.4021,213.7,832.4025,1.0,833.4021,2.0,10.0,70.0,5.0,1.0,0.8,0.7,Time
,,S37,1,Male,31,anonymized,Serial_Dependence_U,2023.2.3,Win32,59.52380952,,,,,,,,,,,,833.4027,2.0,833.4029,,,,836.1536,836.6531,835.6369,836.1534,834.4197,356.0,835.6368,836.6532,837.1534,837.1534,843.1557,9999.0,843.1559,0.0,844.1555,2.0,11.0,71.0,22.0,1.0,1.2,0.3,Time
,,S37,1,Male,31,anonymized,Serial_Dependence_U,2023.2.3,Win32,59.52380952,,,,,,,,,,,,844.1561,2.0,844.1563,,,,847.2904,847.7902,846.7737,847.2902,845.173,273.0,846.7736,847.7903,848.2904,848.2905,854.2914,9999.0,854.2919,0.0,855.2928,2.0,12.0,72.0,14.0,1.0,1.6,0.3,Time
,,S37,1,Male,31,anonymized,Serial_Dependence_U,2023.2.3,Win32,59.52380952,,,,,,,,,,,,855.2932,2.0,855.2933,,,,858.2271,858.7268,857.7104,858.2268,856.2936,304.0,857.7102,858.7268,859.2269,859.227,865.2296,9999.0,865.2298,0.0,866.2293,2.0,13.0,73.0,8.0,1.0,1.4,0.7,Time
,,S37,1,Male,31,anonymized,Serial_Dependence_U,2023.2.3,Win32,59.52380952,,,,,,,,,,,,866.2298,2.0,866.2299,,,,869.1807,869.6803,868.6638,869.1805,867.2465,139.0,868.6636,869.6803,870.1805,870.1805,871.0141,813.0,871.0144,1.0,872.0143,2.0,14.0,74.0,28.0,1.0,1.4,0.7,Time
,,S37,1,Male,31,anonymized,Serial_Dependence_U,2023.2.3,Win32,59.52380952,,,,,,,,,,,,872.0148,2.0,872.015,,,,875.166,875.6654,874.6491,875.1657,873.0318,111.0,874.6489,875.6655,876.1655,876.1656,882.1679,9999.0,882.1682,0.0,883.1678,2.0,15.0,75.0,9.0,1.0,1.6,0.7,Time
,,S37,1,Male,31,anonymized,Serial_Dependence_U,2023.2.3,Win32,59.52380952,,,,,,,,,,,,883.1685,2.0,883.1687,,,,885.5192,886.0188,885.0022,885.519,884.1855,235.0,885.0021,886.0188,886.519,886.519,892.5212,9999.0,892.5215,0.0,893.5212,2.0,16.0,76.0,0.0,1.0,0.8,0.3,Time
,,S37,1,Male,31,anonymized,Serial_Dependence_U,2023.2.3,Win32,59.52380952,,,,,,,,,,,,893.5217,2.0,893.5218,,,,896.6728,897.1721,896.1557,896.6726,894.5387,222.0,896.1556,897.1722,897.6723,897.6724,903.6744,9999.0,903.6746,0.0,904.6748,2.0,17.0,77.0,19.0,1.0,1.6,0.7,Time
,,S37,1,Male,31,anonymized,Serial_Dependence_U,2023.2.3,Win32,59.52380952,,,,,,,,,,,,904.6754,2.0,904.6755,,,,907.6258,908.1257,907.1093,907.6257,905.6921,191.0,907.1091,908.1258,908.626,908.626,914.6281,9999.0,914.6284,0.0,915.6281,2.0,18.0,78.0,3.0,1.0,1.4,0.3,Time
,,S37,1,Male,31,anonymized,Serial_Dependence_U,2023.2.3,Win32,59.52380952,,,,,,,,,,,,915.6288,2.0,915.6289,,,,917.9794,918.4789,917.4624,917.9792,916.6454,2.0,917.4623,918.479,918.9791,918.9792,924.9814,9999.0,924.9822,0.0,925.9814,2.0,19.0,79.0,15.0,1.0,0.8,0.7,Time
,,S37,1,Male,31,anonymized,Serial_Dependence_U,2023.2.3,Win32,59.52380952,,,,,,,,,,,,925.9821,2.0,925.9826,,,,928.9197,929.4157,928.4032,928.9191,926.9989,11.0,928.403,929.4157,929.9158,929.9159,935.9182,9999.0,935.9185,0.0,936.9182,2.0,20.0,80.0,23.0,1.0,1.4,0.3,Time
,,S37,1,Male,31,anonymized,Serial_Dependence_U,2023.2.3,Win32,59.52380952,,,,,,,,,,,,936.9188,2.0,936.919,,,,939.6696,940.1691,939.1527,939.6694,937.9357,24.0,939.1526,940.1692,940.6693,940.6693,945.3549,4669.8,945.355,5.0,946.3548,2.0,21.0,81.0,27.0,1.0,1.2,0.7,Time
,,S37,1,Male,31,anonymized,Serial_Dependence_U,2023.2.3,Win32,59.52380952,,,,,,,,,,,,946.3551,2.0,946.3553,,,,949.4892,949.9889,948.9726,949.4891,947.3719,120.0,948.9724,949.989,950.489,950.489,956.4913,9999.0,956.4915,0.0,957.4912,2.0,22.0,82.0,29.0,1.0,1.6,0.7,Time
,,S37,1,Male,31,anonymized,Serial_Dependence_U,2023.2.3,Win32,59.52380952,,,,,,,,,,,,957.4916,2.0,957.4919,,,,959.8258,960.3254,959.3089,959.8256,958.4924,67.0,959.3087,960.3254,960.8255,960.8256,966.8279,9999.0,966.8282,0.0,967.8278,2.0,23.0,83.0,25.0,1.0,0.8,0.7,Time
,,S37,1,Male,31,anonymized,Serial_Dependence_U,2023.2.3,Win32,59.52380952,,,,,,,,,,,,967.8284,2.0,967.8286,,,,970.1792,970.6787,969.6621,970.1791,968.8454,337.0,969.6619,970.6788,971.1789,971.179,972.8629,1669.0,972.8632,5.0,973.863,2.0,24.0,84.0,10.0,1.0,0.8,0.3,Time
,,S37,1,Male,31,anonymized,Serial_Dependence_U,2023.2.3,Win32,59.52380952,,,,,,,,,,,,973.8634,2.0,973.8636,,,,976.5983,977.0976,976.083,976.598,974.8805,165.0,976.0823,977.0978,977.5977,977.5977,980.2152,2582.9,980.2156,5.0,981.2155,2.0,25.0,85.0,2.0,1.0,1.2,0.3,Time
,,S37,1,Male,31,anonymized,Serial_Dependence_U,2023.2.3,Win32,59.52380952,,,,,,,,,,,,981.2161,2.0,981.2162,,,,984.1672,984.6665,983.65,984.167,982.233,251.0,983.6498,984.6666,985.1668,985.1669,991.1689,9999.0,991.1691,0.0,992.1688,2.0,26.0,86.0,18.0,1.0,1.4,0.7,Time
,,S37,1,Male,31,anonymized,Serial_Dependence_U,2023.2.3,Win32,59.52380952,,,,,,,,,,,,992.1693,2.0,992.1696,,,,995.3206,995.8201,994.8037,995.3204,993.1864,231.0,994.8034,995.8201,996.3203,996.3204,1002.3223,9999.0,1002.3225,0.0,1003.3223,2.0,27.0,87.0,24.0,1.0,1.6,0.3,Time
,,S37,1,Male,31,anonymized,Serial_Dependence_U,2023.2.3,Win32,59.52380952,,,,,,,,,,,,1003.3228,2.0,1003.323,,,,1005.8737,1006.3735,1005.3569,1005.8735,1004.3399,206.0,1005.3567,1006.3736,1006.8732,1006.8733,1007.1404,248.3,1007.1408,1.0,1008.1405,2.0,28.0,88.0,11.0,1.0,1.0,0.3,Time
,,S37,1,Male,31,anonymized,Serial_Dependence_U,2023.2.3,Win32,59.52380952,,,,,,,,,,,,1008.141,2.0,1008.1413,,,,1011.092,1011.5922,1010.5751,1011.0918,1009.158,285.0,1010.5749,1011.5922,1012.0918,1012.0919,1018.0939,9999.0,1018.0942,0.0,1019.0938,2.0,29.0,89.0,13.0,1.0,1.4,0.3,Time
,,S37,1,Male,31,anonymized,Serial_Dependence_U,2023.2.3,Win32,59.52380952,,,,,,,,,,,,1019.0945,3.0,1027.9969,s,8.8838,,1030.5481,1031.0477,1030.0316,1030.5479,1029.0143,41.0,1030.0315,1031.0478,1031.5478,1031.5478,1037.5502,9999.0,1037.5506,0.0,1038.5501,3.0,0.0,90.0,21.0,1.0,1.0,0.3,Time
,,S37,1,Male,31,anonymized,Serial_Dependence_U,2023.2.3,Win32,59.52380952,,,,,,,,,,,,1038.5506,3.0,1038.5522,,,,1040.9015,1041.401,1040.3843,1040.9012,1039.5676,108.0,1040.3842,1041.401,1041.9027,1041.9028,1047.9201,9999.0,1047.9204,0.0,1048.9201,3.0,1.0,91.0,25.0,1.0,0.8,0.7,Time
,,S37,1,Male,31,anonymized,Serial_Dependence_U,2023.2.3,Win32,59.52380952,,,,,,,,,,,,1048.921,3.0,1048.9214,,,,1052.0673,1052.5714,1051.5615,1052.0666,1049.9397,94.0,1051.5613,1052.5714,1053.0704,1053.0704,1053.7268,611.6,1053.7272,1.0,1054.7239,3.0,2.0,92.0,4.0,1.0,1.6,0.3,Time
,,S37,1,Male,31,anonymized,Serial_Dependence_U,2023.2.3,Win32,59.52380952,,,,,,,,,,,,1054.7254,3.0,1054.726,,,,1057.0586,1057.5562,1056.553,1057.0578,1055.7399,289.0,1056.5529,1057.5562,1058.0561,1058.0562,1062.5063,911.2,1062.5065,4.0,1063.5084,3.0,3.0,93.0,0.0,1.0,0.8,0.3,Time
,,S37,1,Male,31,anonymized,Serial_Dependence_U,2023.2.3,Win32,59.52380952,,,,,,,,,,,,1063.509,3.0,1063.5091,,,,1066.2567,1066.7589,1065.7346,1066.2566,1064.5258,142.0,1065.7344,1066.759,1067.2591,1067.2593,1073.2614,9999.0,1073.2621,0.0,1074.2615,3.0,4.0,94.0,12.0,1.0,1.2,0.3,Time
,,S37,1,Male,31,anonymized,Serial_Dependence_U,2023.2.3,Win32,59.52380952,,,,,,,,,,,,1074.2625,3.0,1074.2629,,,,1077.2129,1077.7124,1076.6961,1077.2128,1075.2794,125.0,1076.6957,1077.7124,1078.2126,1078.2127,1084.2146,9999.0,1084.2149,0.0,1085.2147,3.0,5.0,95.0,3.0,1.0,1.4,0.3,Time
,,S37,1,Male,31,anonymized,Serial_Dependence_U,2023.2.3,Win32,59.52380952,,,,,,,,,,,,1085.2151,3.0,1085.2154,,,,1087.9661,1088.4658,1087.4491,1087.9659,1086.2332,29.0,1087.449,1088.4658,1088.9675,1088.9677,1094.9846,9999.0,1094.9848,0.0,1095.9846,3.0,6.0,96.0,27.0,1.0,1.2,0.7,Time
,,S37,1,Male,31,anonymized,Serial_Dependence_U,2023.2.3,Win32,59.52380952,,,,,,,,,,,,1095.9851,3.0,1095.9852,,,,1098.5242,1099.0191,1098.0201,1098.5234,1097.0033,59.0,1098.0195,1099.0191,1099.5193,1099.5193,1105.5214,9999.0,1105.5216,0.0,1106.5214,3.0,7.0,97.0,6.0,1.0,1.0,0.7,Time
,,S37,1,Male,31,anonymized,Serial_Dependence_U,2023.2.3,Win32,59.52380952,,,,,,,,,,,,1106.5225,3.0,1106.5229,,,,1109.0735,1109.5724,1108.5561,1109.0729,1107.5391,187.0,1108.5559,1109.5725,1110.0729,1110.0729,1116.0746,9999.0,1116.0749,0.0,1117.0748,3.0,8.0,98.0,1.0,1.0,1.0,0.3,Time
,,S37,1,Male,31,anonymized,Serial_Dependence_U,2023.2.3,Win32,59.52380952,,,,,,,,,,,,1117.0752,3.0,1117.0754,,,,1119.426,1119.9257,1118.9096,1119.4258,1118.0922,193.0,1118.9093,1119.9257,1120.4259,1120.4259,1126.4282,9999.0,1126.429,0.0,1127.428,3.0,9.0,99.0,15.0,1.0,0.8,0.7,Time
,,S37,1,Male,31,anonymized,Serial_Dependence_U,2023.2.3,Win32,59.52380952,,,,,,,,,,,,1127.4284,3.0,1127.4285,,,,1130.5686,1131.0624,1130.0627,1130.5684,1128.4455,91.0,1130.0625,1131.0625,1131.5626,1131.5627,1137.5649,9999.0,1137.5652,0.0,1138.5648,3.0,10.0,100.0,14.0,1.0,1.6,0.3,Time
,,S37,1,Male,31,anonymized,Serial_Dependence_U,2023.2.3,Win32,59.52380952,,,,,,,,,,,,1138.5652,3.0,1138.5657,,,,1141.7169,1142.2159,1141.1998,1141.7163,1139.5822,256.0,1141.1995,1142.2159,1142.7162,1142.7162,1148.7185,9999.0,1148.7187,0.0,1149.7184,3.0,11.0,101.0,24.0,1.0,1.6,0.3,Time
,,S37,1,Male,31,anonymized,Serial_Dependence_U,2023.2.3,Win32,59.52380952,,,,,,,,,,,,1149.7192,3.0,1149.7196,,,,1152.0701,1152.5693,1151.5526,1152.0696,1150.7359,25.0,1151.5525,1152.5693,1153.0695,1153.0696,1159.0716,9999.0,1159.0717,0.0,1160.0717,3.0,12.0,102.0,10.0,1.0,0.8,0.3,Time
,,S37,1,Male,31,anonymized,Serial_Dependence_U,2023.2.3,Win32,59.52380952,,,,,,,,,,,,1160.0723,3.0,1160.0724,,,,1163.2236,1163.7228,1162.7064,1163.2231,1161.0892,265.0,1162.7063,1163.7229,1164.223,1164.2231,1170.2251,9999.0,1170.2256,0.0,1171.2252,3.0,13.0,103.0,19.0,1.0,1.6,0.7,Time
,,S37,1,Male,31,anonymized,Serial_Dependence_U,2023.2.3,Win32,59.52380952,,,,,,,,,,,,1171.2257,3.0,1171.2259,,,,1173.9764,1174.4761,1173.46,1173.9762,1172.2428,312.0,1173.4596,1174.4762,1174.9765,1174.9766,1180.9786,9999.0,1180.9789,0.0,1181.9786,3.0,14.0,104.0,17.0,1.0,1.2,0.7,Time
,,S37,1,Male,31,anonymized,Serial_Dependence_U,2023.2.3,Win32,59.52380952,,,,,,,,,,,,1181.9791,3.0,1181.9793,,,,1184.9301,1185.4297,1184.4133,1184.9299,1182.9962,335.0,1184.4131,1185.4298,1185.9299,1185.93,1191.9323,9999.0,1191.9325,0.0,1192.9318,3.0,15.0,105.0,13.0,1.0,1.4,0.3,Time
,,S37,1,Male,31,anonymized,Serial_Dependence_U,2023.2.3,Win32,59.52380952,,,,,,,,,,,,1192.9324,3.0,1192.9325,,,,1195.2796,1195.7829,1194.7665,1195.2792,1193.9495,258.0,1194.7663,1195.7829,1196.283,1196.2831,1202.2853,9999.0,1202.2856,0.0,1203.2853,3.0,16.0,106.0,20.0,1.0,0.8,0.3,Time
,,S37,1,Male,31,anonymized,Serial_Dependence_U,2023.2.3,Win32,59.52380952,,,,,,,,,,,,1203.2859,3.0,1203.2861,,,,1206.2203,1206.7198,1205.7042,1206.22,1204.303,153.0,1205.704,1206.7199,1207.2199,1207.2199,1213.2224,9999.0,1213.2225,0.0,1214.2221,3.0,17.0,107.0,8.0,1.0,1.4,0.7,Time
,,S37,1,Male,31,anonymized,Serial_Dependence_U,2023.2.3,Win32,59.52380952,,,,,,,,,,,,1214.2227,3.0,1214.2228,,,,1217.1734,1217.6733,1216.6568,1217.1732,1215.2397,3.0,1216.6566,1217.6734,1218.1734,1218.1735,1224.1756,9999.0,1224.176,0.0,1225.1754,3.0,18.0,108.0,28.0,1.0,1.4,0.7,Time
,,S37,1,Male,31,anonymized,Serial_Dependence_U,2023.2.3,Win32,59.52380952,,,,,,,,,,,,1225.1757,3.0,1225.1759,,,,1227.9101,1228.4099,1227.3933,1227.91,1226.1764,227.0,1227.3931,1228.4099,1228.9099,1228.91,1234.9121,9999.0,1234.9123,0.0,1235.9122,3.0,19.0,109.0,7.0,1.0,1.2,0.7,Time
,,S37,1,Male,31,anonymized,Serial_Dependence_U,2023.2.3,Win32,59.52380952,,,,,,,,,,,,1235.9129,3.0,1235.913,,,,1239.0639,1239.5633,1238.5469,1239.0636,1236.9296,205.0,1238.5466,1239.5633,1240.0635,1240.0635,1246.0658,9999.0,1246.066,0.0,1247.0658,3.0,20.0,110.0,9.0,1.0,1.6,0.7,Time
,,S37,1,Male,31,anonymized,Serial_Dependence_U,2023.2.3,Win32,59.52380952,,,,,,,,,,,,1247.0664,3.0,1247.0665,,,,1249.8172,1250.3168,1249.3005,1249.8169,1248.0832,95.0,1249.3002,1250.3168,1250.8168,1250.8169,1256.8192,9999.0,1256.8194,0.0,1257.819,3.0,21.0,111.0,2.0,1.0,1.2,0.3,Time
,,S37,1,Male,31,anonymized,Serial_Dependence_U,2023.2.3,Win32,59.52380952,,,,,,,,,,,,1257.8195,3.0,1257.8196,,,,1260.7706,1261.2703,1260.2539,1260.7704,1258.8369,1.0,1260.2537,1261.2703,1261.7706,1261.7707,1267.7727,9999.0,1267.773,0.0,1268.7724,3.0,22.0,112.0,23.0,1.0,1.4,0.3,Time
,,S37,1,Male,31,anonymized,Serial_Dependence_U,2023.2.3,Win32,59.52380952,,,,,,,,,,,,1268.773,3.0,1268.7732,,,,1271.7241,1272.2238,1271.2072,1271.7238,1269.7905,307.0,1271.207,1272.2238,1272.7238,1272.7239,1278.7262,9999.0,1278.7265,0.0,1279.726,3.0,23.0,113.0,18.0,1.0,1.4,0.7,Time
,,S37,1,Male,31,anonymized,Serial_Dependence_U,2023.2.3,Win32,59.52380952,,,,,,,,,,,,1279.7265,3.0,1279.7266,,,,1282.2607,1282.7605,1281.7438,1282.2606,1280.739,326.0,1281.7437,1282.7605,1283.2604,1283.2604,1289.2629,9999.0,1289.263,0.0,1290.2627,3.0,24.0,114.0,11.0,1.0,1.0,0.3,Time
,,S37,1,Male,31,anonymized,Serial_Dependence_U,2023.2.3,Win32,59.52380952,,,,,,,,,,,,1290.2631,3.0,1290.2633,,,,1292.8139,1293.3138,1292.2972,1292.8138,1291.2801,347.0,1292.2969,1293.3138,1293.8135,1293.8135,1299.8158,9999.0,1299.8161,0.0,1300.8159,3.0,25.0,115.0,26.0,1.0,1.0,0.7,Time
,,S37,1,Male,31,anonymized,Serial_Dependence_U,2023.2.3,Win32,59.52380952,,,,,,,,,,,,1300.8164,3.0,1300.8165,,,,1303.9683,1304.467,1303.4507,1303.9676,1301.8337,308.0,1303.4506,1304.4671,1304.9672,1304.9673,1310.9694,9999.0,1310.9697,0.0,1311.9696,3.0,26.0,116.0,29.0,1.0,1.6,0.7,Time
,,S37,1,Male,31,anonymized,Serial_Dependence_U,2023.2.3,Win32,59.52380952,,,,,,,,,,,,1311.97,3.0,1311.9703,,,,1314.3205,1314.8204,1313.8038,1314.3204,1312.987,288.0,1313.8036,1314.8204,1315.3206,1315.3207,1321.323,9999.0,1321.3233,0.0,1322.3234,3.0,27.0,117.0,5.0,1.0,0.8,0.7,Time
,,S37,1,Male,31,anonymized,Serial_Dependence_U,2023.2.3,Win32,59.52380952,,,,,,,,,,,,1322.3237,3.0,1322.3242,,,,1324.8746,1325.3737,1324.3573,1324.8745,1323.3402,227.0,1324.357,1325.3737,1325.8737,1325.8738,1331.8761,9999.0,1331.8764,0.0,1332.8761,3.0,28.0,118.0,16.0,1.0,1.0,0.7,Time
,,S37,1,Male,31,anonymized,Serial_Dependence_U,2023.2.3,Win32,59.52380952,,,,,,,,,,,,1332.8766,3.0,1332.8768,,,,1335.6275,1336.127,1335.1107,1335.6273,1333.8935,299.0,1335.1105,1336.127,1336.6272,1336.6272,1342.6299,9999.0,1342.6305,0.0,1343.6295,3.0,29.0,119.0,22.0,1.0,1.2,0.3,Time
,,S37,1,Male,31,anonymized,Serial_Dependence_U,2023.2.3,Win32,59.52380952,,,,,,,,,,,,1343.6302,4.0,1345.4301,s,1.7815,,1348.3817,1348.8813,1347.8646,1348.3815,1346.4476,226.0,1347.8644,1348.8813,1349.3814,1349.3815,1355.3835,9999.0,1355.3838,0.0,1356.3833,4.0,0.0,120.0,3.0,1.0,1.4,0.3,Time
,,S37,1,Male,31,anonymized,Serial_Dependence_U,2023.2.3,Win32,59.52380952,,,,,,,,,,,,1356.3839,4.0,1356.386,,,,1359.5348,1360.0345,1359.0181,1359.5346,1357.4009,339.0,1359.0179,1360.0346,1360.5348,1360.5348,1366.5456,9999.0,1366.5464,0.0,1367.537,4.0,1.0,121.0,4.0,1.0,1.6,0.3,Time
,,S37,1,Male,31,anonymized,Serial_Dependence_U,2023.2.3,Win32,59.52380952,,,,,,,,,,,,1367.5375,4.0,1367.5379,,,,1370.4884,1370.9881,1369.9718,1370.4882,1368.5546,186.0,1369.9714,1370.9882,1371.4882,1371.4883,1377.4906,9999.0,1377.4909,0.0,1378.4905,4.0,2.0,122.0,13.0,1.0,1.4,0.3,Time
,,S37,1,Male,31,anonymized,Serial_Dependence_U,2023.2.3,Win32,59.52380952,,,,,,,,,,,,1378.4911,4.0,1378.4913,,,,1381.2419,1381.7415,1380.7249,1381.2417,1379.508,269.0,1380.7248,1381.7416,1382.2416,1382.2417,1388.2438,9999.0,1388.2441,0.0,1389.2438,4.0,3.0,123.0,7.0,1.0,1.2,0.7,Time
,,S37,1,Male,31,anonymized,Serial_Dependence_U,2023.2.3,Win32,59.52380952,,,,,,,,,,,,1389.2442,4.0,1389.2444,,,,1391.9619,1392.4614,1391.4467,1391.9617,1390.2447,203.0,1391.4465,1392.4615,1392.9617,1392.9617,1398.9638,9999.0,1398.964,0.0,1399.9637,4.0,4.0,124.0,27.0,1.0,1.2,0.7,Time
,,S37,1,Male,31,anonymized,Serial_Dependence_U,2023.2.3,Win32,59.52380952,,,,,,,,,,,,1399.9641,4.0,1399.9643,,,,1402.315,1402.8145,1401.7983,1402.3147,1400.9813,350.0,1401.7981,1402.8146,1403.3149,1403.3149,1409.3172,9999.0,1409.3174,0.0,1410.3171,4.0,5.0,125.0,25.0,1.0,0.8,0.7,Time
,,S37,1,Male,31,anonymized,Serial_Dependence_U,2023.2.3,Win32,59.52380952,,,,,,,,,,,,1410.3176,4.0,1410.3179,,,,1413.0685,1413.5681,1412.5517,1413.0683,1411.3344,6.0,1412.5515,1413.5681,1414.0684,1414.0684,1420.0706,9999.0,1420.0709,0.0,1421.0705,4.0,6.0,126.0,17.0,1.0,1.2,0.7,Time
,,S37,1,Male,31,anonymized,Serial_Dependence_U,2023.2.3,Win32,59.52380952,,,,,,,,,,,,1421.071,4.0,1421.0713,,,,1423.6222,1424.1215,1423.1049,1423.6214,1422.0881,52.0,1423.1048,1424.1215,1424.6217,1424.6217,1430.6236,9999.0,1430.6244,0.0,1431.6236,4.0,7.0,127.0,16.0,1.0,1.0,0.7,Time
,,S37,1,Male,31,anonymized,Serial_Dependence_U,2023.2.3,Win32,59.52380952,,,,,,,,,,,,1431.6241,4.0,1431.6244,,,,1434.3754,1434.8749,1433.8584,1434.3752,1432.6417,26.0,1433.8583,1434.8749,1435.3751,1435.3751,1441.3773,9999.0,1441.3776,0.0,1442.3772,4.0,8.0,128.0,12.0,1.0,1.2,0.3,Time
,,S37,1,Male,31,anonymized,Serial_Dependence_U,2023.2.3,Win32,59.52380952,,,,,,,,,,,,1442.3777,4.0,1442.3779,,,,1445.5287,1446.0285,1445.0121,1445.5284,1443.3944,305.0,1445.0119,1446.0286,1446.5286,1446.5286,1452.5308,9999.0,1452.5311,0.0,1453.5308,4.0,9.0,129.0,29.0,1.0,1.6,0.7,Time
,,S37,1,Male,31,anonymized,Serial_Dependence_U,2023.2.3,Win32,59.52380952,,,,,,,,,,,,1453.5313,4.0,1453.5314,,,,1455.882,1456.3816,1455.365,1455.8819,1454.5483,331.0,1455.3648,1456.3816,1456.8817,1456.8817,1462.884,9999.0,1462.8842,0.0,1463.8837,4.0,10.0,130.0,0.0,1.0,0.8,0.3,Time
,,S37,1,Male,31,anonymized,Serial_Dependence_U,2023.2.3,Win32,59.52380952,,,,,,,,,,,,1463.8842,4.0,1463.8845,,,,1466.4354,1466.9349,1465.9185,1466.4352,1464.9016,228.0,1465.9184,1466.935,1467.4351,1467.4353,1473.4374,9999.0,1473.4376,0.0,1474.4373,4.0,11.0,131.0,26.0,1.0,1.0,0.7,Time
,,S37,1,Male,31,anonymized,Serial_Dependence_U,2023.2.3,Win32,59.52380952,,,,,,,,,,,,1474.4378,4.0,1474.438,,,,1476.972,1478.8438,1476.4551,1476.9718,1475.4398,73.0,1476.4549,1478.8438,1478.8438,1478.8438,1484.8576,9999.0,1484.8578,0.0,1485.8575,4.0,12.0,132.0,21.0,1.0,1.0,0.3,Time
,,S37,1,Male,31,anonymized,Serial_Dependence_U,2023.2.3,Win32,59.52380952,,,,,,,,,,,,1485.858,4.0,1485.8581,,,,1489.0091,1489.5088,1488.4923,1489.0088,1486.8766,332.0,1488.492,1489.5088,1490.0088,1490.0088,1496.0111,9999.0,1496.0118,0.0,1497.0109,4.0,13.0,133.0,9.0,1.0,1.6,0.7,Time
,,S37,1,Male,31,anonymized,Serial_Dependence_U,2023.2.3,Win32,59.52380952,,,,,,,,,,,,1497.0113,4.0,1497.0115,,,,1499.9624,1500.4621,1499.4456,1499.9622,1498.0285,173.0,1499.4454,1500.4621,1500.9622,1500.9623,1573.2772,9999.0,1573.2774,0.0,1574.0687,4.0,14.0,134.0,23.0,1.0,1.4,0.3,Time
,,S37,1,Male,31,anonymized,Serial_Dependence_U,2023.2.3,Win32,59.52380952,,,,,,,,,,,,1574.0691,4.0,1574.0692,,,,1576.4203,1576.9195,1575.9032,1576.4201,1575.0862,306.0,1575.9029,1576.9196,1577.4197,1577.4197,1606.7529,9999.0,1606.7531,0.0,1607.5458,4.0,15.0,135.0,20.0,1.0,0.8,0.3,Time
,,S37,1,Male,31,anonymized,Serial_Dependence_U,2023.2.3,Win32,59.52380952,,,,,,,,,,,,1607.5464,4.0,1607.5466,,,,1636.4719,1636.9718,1635.9573,1636.4717,1633.1246,198.0,1635.9571,1636.9718,1637.4719,1637.472,1643.4907,9999.0,1643.4911,0.0,1644.4911,4.0,16.0,136.0,2.0,1.0,1.2,0.3,Time
,,S37,1,Male,31,anonymized,Serial_Dependence_U,2023.2.3,Win32,59.52380952,,,,,,,,,,,,1644.4917,4.0,1644.492,,,,1647.0421,1647.5417,1646.5253,1647.0419,1645.5082,243.0,1646.525,1647.5418,1648.0419,1648.042,1654.0439,9999.0,1654.0442,0.0,1655.046,4.0,17.0,137.0,1.0,1.0,1.0,0.3,Time
,,S37,1,Male,31,anonymized,Serial_Dependence_U,2023.2.3,Win32,59.52380952,,,,,,,,,,,,1655.0469,4.0,1655.0471,,,,1658.1956,1658.6951,1657.6788,1658.1954,1656.0615,284.0,1657.6786,1658.6952,1659.1954,1659.1955,1665.1976,9999.0,1665.1979,0.0,1666.1976,4.0,18.0,138.0,14.0,1.0,1.6,0.3,Time
,,S37,1,Male,31,anonymized,Serial_Dependence_U,2023.2.3,Win32,59.52380952,,,,,,,,,,,,1666.198,4.0,1666.1984,,,,1668.9491,1669.4486,1668.4325,1668.9488,1667.2152,254.0,1668.4321,1669.4487,1669.9488,1669.9489,1675.958,9999.0,1675.9583,0.0,1676.951,4.0,19.0,139.0,22.0,1.0,1.2,0.3,Time
,,S37,1,Male,31,anonymized,Serial_Dependence_U,2023.2.3,Win32,59.52380952,,,,,,,,,,,,1676.9514,4.0,1676.9519,,,,1679.9024,1680.4021,1679.3855,1679.9022,1677.9685,153.0,1679.3853,1680.4021,1680.9022,1680.9022,1686.9042,9999.0,1686.9045,0.0,1687.9045,4.0,20.0,140.0,8.0,1.0,1.4,0.7,Time
,,S37,1,Male,31,anonymized,Serial_Dependence_U,2023.2.3,Win32,59.52380952,,,,,,,,,,,,1687.9049,4.0,1687.905,,,,1690.4555,1690.9554,1689.9389,1690.4554,1688.9221,185.0,1689.9387,1690.9555,1691.4555,1691.4556,1697.4579,9999.0,1697.4588,0.0,1698.4577,4.0,21.0,141.0,11.0,1.0,1.0,0.3,Time
,,S37,1,Male,31,anonymized,Serial_Dependence_U,2023.2.3,Win32,59.52380952,,,,,,,,,,,,1698.4583,4.0,1698.4586,,,,1700.8092,1701.3086,1700.2924,1700.8088,1699.4755,37.0,1700.2921,1701.3086,1701.8088,1701.8089,1707.8111,9999.0,1707.8118,0.0,1708.811,4.0,22.0,142.0,15.0,1.0,0.8,0.7,Time
,,S37,1,Male,31,anonymized,Serial_Dependence_U,2023.2.3,Win32,59.52380952,,,,,,,,,,,,1708.8121,4.0,1708.8125,,,,1711.7626,1712.2621,1711.2456,1711.7624,1709.8288,249.0,1711.2453,1712.2621,1712.7623,1712.7623,1718.7644,9999.0,1718.7649,0.0,1719.7643,4.0,23.0,143.0,18.0,1.0,1.4,0.7,Time
,,S37,1,Male,31,anonymized,Serial_Dependence_U,2023.2.3,Win32,59.52380952,,,,,,,,,,,,1719.7652,4.0,1719.7656,,,,1722.7,1723.1988,1722.1826,1722.6993,1720.7688,25.0,1722.1822,1723.1989,1723.6991,1723.6992,1729.7015,9999.0,1729.7018,0.0,1730.7013,4.0,24.0,144.0,28.0,1.0,1.4,0.7,Time
,,S37,1,Male,31,anonymized,Serial_Dependence_U,2023.2.3,Win32,59.52380952,,,,,,,,,,,,1730.7018,4.0,1730.702,,,,1733.8532,1734.3524,1733.3358,1733.8527,1731.7186,54.0,1733.3357,1734.3525,1734.8525,1734.8526,1740.8548,9999.0,1740.8553,0.0,1741.8546,4.0,25.0,145.0,19.0,1.0,1.6,0.7,Time
,,S37,1,Male,31,anonymized,Serial_Dependence_U,2023.2.3,Win32,59.52380952,,,,,,,,,,,,1741.8551,4.0,1741.8554,,,,1744.4061,1744.9058,1743.889,1744.4058,1742.8722,323.0,1743.8889,1744.9058,1745.4059,1745.4059,1751.4082,9999.0,1751.4084,0.0,1752.408,4.0,26.0,146.0,6.0,1.0,1.0,0.7,Time
,,S37,1,Male,31,anonymized,Serial_Dependence_U,2023.2.3,Win32,59.52380952,,,,,,,,,,,,1752.4086,4.0,1752.4089,,,,1755.5596,1756.0593,1755.0426,1755.5594,1753.4255,348.0,1755.0425,1756.0594,1756.5597,1756.5598,1762.5618,9999.0,1762.5625,0.0,1763.5616,4.0,27.0,147.0,24.0,1.0,1.6,0.3,Time
,,S37,1,Male,31,anonymized,Serial_Dependence_U,2023.2.3,Win32,59.52380952,,,,,,,,,,,,1763.5622,4.0,1763.5624,,,,1765.9129,1766.4125,1765.3963,1765.9127,1764.5791,65.0,1765.3959,1766.4125,1766.9127,1766.9128,1772.9148,9999.0,1772.9153,0.0,1773.9147,4.0,28.0,148.0,5.0,1.0,0.8,0.7,Time
,,S37,1,Male,31,anonymized,Serial_Dependence_U,2023.2.3,Win32,59.52380952,,,,,,,,,,,,1773.9151,4.0,1773.9152,,,,1776.266,1776.7656,1775.7496,1776.2659,1774.9329,36.0,1775.7492,1776.7657,1777.2659,1777.266,1783.2682,9999.0,1783.2684,0.0,1784.268,4.0,29.0,149.0,10.0,1.0,0.8,0.3,Time
,,S37,1,Male,31,anonymized,Serial_Dependence_U,2023.2.3,Win32,59.52380952,,,,,,,,,,,,1784.2684,5.0,1792.871,s,8.5823,,1844.035,1844.537,1843.53,1844.0347,1793.8733,31.0,1843.5299,1844.5371,1845.0372,1845.0373,1851.0443,9999.0,1851.0447,0.0,1852.0394,5.0,0.0,150.0,9.0,1.0,1.6,0.7,Time
,,S37,1,Male,31,anonymized,Serial_Dependence_U,2023.2.3,Win32,59.52380952,,,,,,,,,,,,1852.0399,5.0,1852.0423,,,,1887.6021,1888.104,1887.0926,1887.6016,1877.8161,219.0,1887.0925,1888.104,1888.6013,1888.6013,1894.6034,9999.0,1894.6042,0.0,1895.4034,5.0,1.0,151.0,23.0,1.0,1.4,0.3,Time
,,S37,1,Male,31,anonymized,Serial_Dependence_U,2023.2.3,Win32,59.52380952,,,,,,,,,,,,1895.4038,5.0,1895.404,,,,1897.7385,1898.2373,1897.2375,1897.7383,1896.4239,77.0,1897.2374,1898.2373,1898.7375,1898.7376,1904.7399,9999.0,1904.7407,0.0,1905.7396,5.0,2.0,152.0,25.0,1.0,0.8,0.7,Time
,,S37,1,Male,31,anonymized,Serial_Dependence_U,2023.2.3,Win32,59.52380952,,,,,,,,,,,,1905.7406,5.0,1905.741,,,,1908.8861,1909.3739,1908.3744,1908.8855,1906.7578,239.0,1908.374,1909.374,1909.8741,1909.8742,1915.8767,9999.0,1915.877,0.0,1916.8767,5.0,3.0,153.0,19.0,1.0,1.6,0.7,Time
,,S37,1,Male,31,anonymized,Serial_Dependence_U,2023.2.3,Win32,59.52380952,,,,,,,,,,,,1916.877,5.0,1916.8772,,,,1919.2111,1919.7107,1918.6941,1919.2109,1917.8785,358.0,1918.6938,1919.7108,1920.211,1920.211,1926.2131,9999.0,1926.2134,0.0,1927.2131,5.0,4.0,154.0,0.0,1.0,0.8,0.3,Time
,,S37,1,Male,31,anonymized,Serial_Dependence_U,2023.2.3,Win32,59.52380952,,,,,,,,,,,,1927.2136,5.0,1927.2138,,,,1929.9648,1930.4639,1929.4476,1929.9643,1928.2305,152.0,1929.4475,1930.4639,1930.9642,1930.9642,1936.9666,9999.0,1936.9668,0.0,1937.9666,5.0,5.0,155.0,17.0,1.0,1.2,0.7,Time
,,S37,1,Male,31,anonymized,Serial_Dependence_U,2023.2.3,Win32,59.52380952,,,,,,,,,,,,1937.9671,5.0,1937.9672,,,,1940.9179,1941.4175,1940.4012,1940.9177,1938.984,138.0,1940.4009,1941.4175,1941.9177,1941.9177,1947.9201,9999.0,1947.9205,0.0,1948.92,5.0,6.0,156.0,18.0,1.0,1.4,0.7,Time
,,S37,1,Male,31,anonymized,Serial_Dependence_U,2023.2.3,Win32,59.52380952,,,,,,,,,,,,1948.9207,5.0,1948.921,,,,1951.4545,1951.9542,1950.9378,1951.4543,1949.9333,229.0,1950.9376,1951.9543,1952.4543,1952.4543,1958.4567,9999.0,1958.4571,0.0,1959.4565,5.0,7.0,157.0,11.0,1.0,1.0,0.3,Time
,,S37,1,Male,31,anonymized,Serial_Dependence_U,2023.2.3,Win32,59.52380952,,,,,,,,,,,,1959.457,5.0,1959.4575,,,,1962.4093,1962.9076,1961.8911,1962.4091,1960.4739,223.0,1961.891,1962.9077,1963.408,1963.4081,1969.4101,9999.0,1969.4104,0.0,1970.4101,5.0,8.0,158.0,8.0,1.0,1.4,0.7,Time
,,S37,1,Male,31,anonymized,Serial_Dependence_U,2023.2.3,Win32,59.52380952,,,,,,,,,,,,1970.4107,5.0,1970.4108,,,,1972.7532,1973.244,1972.2452,1972.7532,1971.4278,302.0,1972.2444,1973.2441,1973.7443,1973.7444,1979.7466,9999.0,1979.7473,0.0,1980.7466,5.0,9.0,159.0,20.0,1.0,0.8,0.3,Time
,,S37,1,Male,31,anonymized,Serial_Dependence_U,2023.2.3,Win32,59.52380952,,,,,,,,,,,,1980.7473,5.0,1980.7476,,,,1983.0981,1983.5973,1982.581,1983.0979,1981.7642,95.0,1982.5809,1983.5973,1984.0977,1984.0977,1990.1,9999.0,1990.1004,0.0,1991.1,5.0,10.0,160.0,15.0,1.0,0.8,0.7,Time
,,S37,1,Male,31,anonymized,Serial_Dependence_U,2023.2.3,Win32,59.52380952,,,,,,,,,,,,1991.1011,5.0,1991.1014,,,,1994.239,1994.7344,1993.7254,1994.2389,1992.1179,227.0,1993.7253,1994.7344,1995.2345,1995.2346,2001.2367,9999.0,2001.2374,0.0,2002.2368,5.0,11.0,161.0,29.0,1.0,1.6,0.7,Time
,,S37,1,Male,31,anonymized,Serial_Dependence_U,2023.2.3,Win32,59.52380952,,,,,,,,,,,,2002.2375,5.0,2002.2379,,,,2004.5561,2005.0541,2004.0545,2004.5555,2003.2484,31.0,2004.0543,2005.0541,2005.5544,2005.5544,2011.5567,9999.0,2011.5574,0.0,2012.5569,5.0,12.0,162.0,10.0,1.0,0.8,0.3,Time
,,S37,1,Male,31,anonymized,Serial_Dependence_U,2023.2.3,Win32,59.52380952,,,,,,,,,,,,2012.5582,5.0,2012.5586,,,,2014.9078,2015.4076,2014.391,2014.9077,2013.5744,148.0,2014.3908,2015.4077,2015.9079,2015.9079,2022.9833,9999.0,2022.9836,0.0,2023.7769,5.0,13.0,163.0,5.0,1.0,0.8,0.7,Time
,,S37,1,Male,31,anonymized,Serial_Dependence_U,2023.2.3,Win32,59.52380952,,,,,,,,,,,,2023.7776,5.0,2023.7782,,,,2029.7958,2030.2955,2029.2794,2029.7956,2028.2627,187.0,2029.2789,2030.2956,2030.7957,2030.7958,2031.0959,278.1,2031.0963,1.0,2032.096,5.0,14.0,164.0,1.0,1.0,1.0,0.3,Time
,,S37,1,Male,31,anonymized,Serial_Dependence_U,2023.2.3,Win32,59.52380952,,,,,,,,,,,,2032.0968,5.0,2032.0972,,,,2035.2477,2035.7473,2034.7307,2035.2475,2033.1138,256.0,2034.7305,2035.7473,2036.2473,2036.2473,2042.2498,9999.0,2042.2503,0.0,2043.2497,5.0,15.0,165.0,14.0,1.0,1.6,0.3,Time
,,S37,1,Male,31,anonymized,Serial_Dependence_U,2023.2.3,Win32,59.52380952,,,,,,,,,,,,2043.2501,5.0,2043.2503,,,,2045.9851,2046.4839,2045.484,2045.9847,2044.2669,99.0,2045.4838,2046.484,2046.984,2046.9841,2052.9863,9999.0,2052.9867,0.0,2053.9863,5.0,16.0,166.0,12.0,1.0,1.2,0.3,Time
,,S37,1,Male,31,anonymized,Serial_Dependence_U,2023.2.3,Win32,59.52380952,,,,,,,,,,,,2053.9868,5.0,2053.9872,,,,2056.5377,2057.0373,2056.0207,2056.5375,2055.0051,155.0,2056.0205,2057.0373,2057.5375,2057.5376,2063.5399,9999.0,2063.5402,0.0,2064.5353,5.0,17.0,167.0,16.0,1.0,1.0,0.7,Time
,,S37,1,Male,31,anonymized,Serial_Dependence_U,2023.2.3,Win32,59.52380952,,,,,,,,,,,,2064.5359,5.0,2064.5362,,,,2067.2745,2067.7697,2066.7582,2067.274,2065.5403,91.0,2066.7574,2067.7698,2068.2576,2068.2577,2074.2597,9999.0,2074.2599,0.0,2075.2597,5.0,18.0,168.0,27.0,1.0,1.2,0.7,Time
,,S37,1,Male,31,anonymized,Serial_Dependence_U,2023.2.3,Win32,59.52380952,,,,,,,,,,,,2075.2601,5.0,2075.2603,,,,2078.0018,2078.4938,2077.4942,2078.0017,2076.2773,92.0,2077.494,2078.4939,2078.994,2078.994,2084.9965,9999.0,2084.9968,0.0,2085.9967,5.0,19.0,169.0,22.0,1.0,1.2,0.3,Time
,,S37,1,Male,31,anonymized,Serial_Dependence_U,2023.2.3,Win32,59.52380952,,,,,,,,,,,,2085.9972,5.0,2085.9976,,,,2088.9479,2089.4475,2088.431,2088.9477,2087.0141,159.0,2088.4309,2089.4475,2089.9476,2089.9477,2096.8805,9999.0,2096.8807,0.0,2097.6836,5.0,20.0,170.0,3.0,1.0,1.4,0.3,Time
,,S37,1,Male,31,anonymized,Serial_Dependence_U,2023.2.3,Win32,59.52380952,,,,,,,,,,,,2097.684,5.0,2097.6841,,,,2101.8886,2102.3847,2101.3689,2101.8882,2099.7588,70.0,2101.3683,2102.3848,2102.8852,2102.8852,2108.8898,9999.0,2108.8912,0.0,2109.8874,5.0,21.0,171.0,4.0,1.0,1.6,0.3,Time
,,S37,1,Male,31,anonymized,Serial_Dependence_U,2023.2.3,Win32,59.52380952,,,,,,,,,,,,2109.8883,5.0,2109.8887,,,,2113.0278,2113.529,2112.5219,2113.0275,2110.9046,66.0,2112.5217,2113.529,2114.0225,2114.0226,2120.024,9999.0,2120.0245,0.0,2121.0241,5.0,22.0,172.0,24.0,1.0,1.6,0.3,Time
,,S37,1,Male,31,anonymized,Serial_Dependence_U,2023.2.3,Win32,59.52380952,,,,,,,,,,,,2121.0246,5.0,2121.0249,,,,2123.7591,2124.2584,2123.242,2123.759,2122.0292,282.0,2123.2417,2124.2584,2124.7592,2124.7592,2130.7608,9999.0,2130.7611,0.0,2131.7607,5.0,23.0,173.0,2.0,1.0,1.2,0.3,Time
,,S37,1,Male,31,anonymized,Serial_Dependence_U,2023.2.3,Win32,59.52380952,,,,,,,,,,,,2131.7613,5.0,2131.7617,,,,2134.279,2134.7782,2133.7685,2134.2789,2132.7638,32.0,2133.7684,2134.7783,2135.726,2135.7261,2141.7311,9999.0,2141.732,0.0,2142.7311,5.0,24.0,174.0,26.0,1.0,1.0,0.7,Time
,,S37,1,Male,31,anonymized,Serial_Dependence_U,2023.2.3,Win32,59.52380952,,,,,,,,,,,,2142.7321,5.0,2142.7325,,,,2145.6594,2146.1487,2145.1488,2145.6593,2143.7319,306.0,2145.1486,2146.1487,2146.6488,2146.6488,2152.6512,9999.0,2152.6517,0.0,2153.6511,5.0,25.0,175.0,28.0,1.0,1.4,0.7,Time
,,S37,1,Male,31,anonymized,Serial_Dependence_U,2023.2.3,Win32,59.52380952,,,,,,,,,,,,2153.6522,5.0,2153.6526,,,,2156.6026,2157.1021,2156.0858,2156.6024,2154.6689,79.0,2156.0855,2157.1021,2157.6024,2157.6025,2163.6047,9999.0,2163.605,0.0,2164.6043,5.0,26.0,176.0,13.0,1.0,1.4,0.3,Time
,,S37,1,Male,31,anonymized,Serial_Dependence_U,2023.2.3,Win32,59.52380952,,,,,,,,,,,,2164.6048,5.0,2164.6049,,,,2167.1398,2167.6387,2166.6227,2167.1391,2165.6065,209.0,2166.6226,2167.6388,2168.1391,2168.1391,2174.1413,9999.0,2174.142,0.0,2175.1414,5.0,27.0,177.0,6.0,1.0,1.0,0.7,Time
,,S37,1,Male,31,anonymized,Serial_Dependence_U,2023.2.3,Win32,59.52380952,,,,,,,,,,,,2175.142,5.0,2175.1422,,,,2177.8926,2178.3921,2177.376,2177.8924,2176.1586,36.0,2177.3756,2178.3923,2178.8923,2178.8924,2184.8944,9999.0,2184.8947,0.0,2185.8944,5.0,28.0,178.0,7.0,1.0,1.2,0.7,Time
,,S37,1,Male,31,anonymized,Serial_Dependence_U,2023.2.3,Win32,59.52380952,,,,,,,,,,,,2185.8953,5.0,2185.8957,,,,2188.4459,2188.9457,2187.9295,2188.4457,2186.9127,177.0,2187.9293,2188.9457,2189.4455,2189.4456,2195.4477,9999.0,2195.4478,0.0,2196.4478,5.0,29.0,179.0,21.0,1.0,1.0,0.3,Time
,,S37,1,Male,31,anonymized,Serial_Dependence_U,2023.2.3,Win32,59.52380952,,,,,,,,,,,,2196.4483,6.0,2201.3495,s,4.8821,,2204.5009,2205.0005,2203.9842,2204.5007,2202.3667,51.0,2203.9839,2205.0006,2205.5007,2205.5007,2211.5094,9999.0,2211.5102,0.0,2212.5029,6.0,0.0,180.0,24.0,1.0,1.6,0.3,Time
,,S37,1,Male,31,anonymized,Serial_Dependence_U,2023.2.3,Win32,59.52380952,,,,,,,,,,,,2212.5035,6.0,2212.5061,,,,2223.6199,2224.1233,2223.1084,2223.6195,2213.5053,143.0,2223.1083,2224.1233,2224.6175,2224.6175,2258.3606,9999.0,2258.3608,0.0,2259.1516,6.0,1.0,181.0,8.0,1.0,1.4,0.7,Time
,,S37,1,Male,31,anonymized,Serial_Dependence_U,2023.2.3,Win32,59.52380952,,,,,,,,,,,,2259.1521,6.0,2259.1524,,,,2322.2909,2322.304,2261.5796,2322.2907,2260.1689,58.0,2261.5796,2322.304,2322.3041,2322.3041,2330.9276,9999.0,2330.9277,0.0,2331.7242,6.0,2.0,182.0,23.0,1.0,1.4,0.3,Time
,,S37,1,Male,31,anonymized,Serial_Dependence_U,2023.2.3,Win32,59.52380952,,,,,,,,,,,,2331.7246,6.0,2331.7247,,,,2334.0588,2334.558,2333.5496,2334.0583,2332.7417,164.0,2333.5492,2334.5581,2335.0583,2335.0584,2341.0605,9999.0,2341.0613,0.0,2342.0605,6.0,3.0,183.0,0.0,1.0,0.8,0.3,Time
,,S37,1,Male,31,anonymized,Serial_Dependence_U,2023.2.3,Win32,59.52380952,,,,,,,,,,,,2342.0614,6.0,2342.0618,,,,2344.7953,2345.2946,2344.2781,2344.7948,2343.0725,58.0,2344.2779,2345.2946,2345.7947,2345.7947,2351.7971,9999.0,2351.7977,0.0,2352.797,6.0,4.0,184.0,22.0,1.0,1.2,0.3,Time
,,S37,1,Male,31,anonymized,Serial_Dependence_U,2023.2.3,Win32,59.52380952,,,,,,,,,,,,2352.7977,6.0,2352.7981,,,,2355.5483,2356.0596,2355.0317,2355.5481,2353.8145,341.0,2355.0315,2356.0597,2356.6946,2356.6947,2362.7007,9999.0,2362.7015,0.0,2363.7005,6.0,5.0,185.0,27.0,1.0,1.2,0.7,Time
,,S37,1,Male,31,anonymized,Serial_Dependence_U,2023.2.3,Win32,59.52380952,,,,,,,,,,,,2363.7009,6.0,2363.701,,,,2366.6356,2367.1348,2366.1185,2366.6351,2364.7014,191.0,2366.1182,2367.1348,2367.6349,2367.6351,2373.6376,9999.0,2373.6382,0.0,2374.6373,6.0,6.0,186.0,13.0,1.0,1.4,0.3,Time
,,S37,1,Male,31,anonymized,Serial_Dependence_U,2023.2.3,Win32,59.52380952,,,,,,,,,,,,2374.6384,6.0,2374.6387,,,,2377.3894,2377.8883,2376.8721,2377.3886,2375.6545,351.0,2376.8719,2377.8884,2378.3884,2378.3885,2384.392,9999.0,2384.3925,0.0,2385.3908,6.0,7.0,187.0,17.0,1.0,1.2,0.7,Time
,,S37,1,Male,31,anonymized,Serial_Dependence_U,2023.2.3,Win32,59.52380952,,,,,,,,,,,,2385.3914,6.0,2385.3915,,,,2387.9424,2388.4416,2387.4257,2387.9419,2386.4089,261.0,2387.4252,2388.4417,2388.9417,2388.9417,2394.944,9999.0,2394.9444,0.0,2400.1505,6.0,8.0,188.0,1.0,1.0,1.0,0.3,Time
,,S37,1,Male,31,anonymized,Serial_Dependence_U,2023.2.3,Win32,59.52380952,,,,,,,,,,,,2400.1511,6.0,2400.1512,,,,2402.0062,2410.5639,2401.4965,2402.0061,2400.6892,114.0,2401.4964,2410.564,2410.5641,2410.5641,2429.9363,9999.0,2429.9366,0.0,2430.7329,6.0,9.0,189.0,20.0,1.0,0.8,0.3,Time
,,S37,1,Male,31,anonymized,Serial_Dependence_U,2023.2.3,Win32,59.52380952,,,,,,,,,,,,2430.7337,6.0,2430.7341,,,,2445.1444,2445.6429,2444.6297,2445.1441,2431.7347,151.0,2444.6296,2445.6429,2446.1431,2446.1431,2452.1453,9999.0,2452.146,0.0,2453.1453,6.0,10.0,190.0,2.0,1.0,1.2,0.3,Time
,,S37,1,Male,31,anonymized,Serial_Dependence_U,2023.2.3,Win32,59.52380952,,,,,,,,,,,,2453.1462,6.0,2453.1466,,,,2455.4797,2455.9795,2454.9631,2455.4795,2454.1471,239.0,2454.963,2455.9796,2456.4797,2456.4797,2462.482,9999.0,2462.4822,0.0,2463.482,6.0,11.0,191.0,25.0,1.0,0.8,0.7,Time
,,S37,1,Male,31,anonymized,Serial_Dependence_U,2023.2.3,Win32,59.52380952,,,,,,,,,,,,2463.4825,6.0,2463.483,,,,2466.6168,2467.1164,2466.1008,2466.6165,2464.4995,19.0,2466.1006,2467.1164,2467.6165,2467.6166,2473.6189,9999.0,2473.6197,0.0,2474.6187,6.0,12.0,192.0,4.0,1.0,1.6,0.3,Time
,,S37,1,Male,31,anonymized,Serial_Dependence_U,2023.2.3,Win32,59.52380952,,,,,,,,,,,,2474.6194,6.0,2474.6195,,,,2477.7536,2478.2532,2477.2368,2477.7533,2475.6228,53.0,2477.2366,2478.2532,2478.7535,2478.7536,2484.7557,9999.0,2484.7559,0.0,2485.7555,6.0,13.0,193.0,19.0,1.0,1.6,0.7,Time
,,S37,1,Male,31,anonymized,Serial_Dependence_U,2023.2.3,Win32,59.52380952,,,,,,,,,,,,2485.7563,6.0,2485.7567,,,,2488.1078,2488.6065,2487.5899,2488.1069,2486.7733,268.0,2487.5897,2488.6065,2489.1067,2489.1067,2495.109,9999.0,2495.1098,0.0,2496.1089,6.0,14.0,194.0,15.0,1.0,0.8,0.7,Time
,,S37,1,Male,31,anonymized,Serial_Dependence_U,2023.2.3,Win32,59.52380952,,,,,,,,,,,,2496.1093,6.0,2496.1095,,,,2498.8613,2499.36,2498.3434,2498.861,2497.1261,206.0,2498.3432,2499.36,2499.8602,2499.8603,2506.9262,9999.0,2506.9264,0.0,2507.7302,6.0,15.0,195.0,7.0,1.0,1.2,0.7,Time
,,S37,1,Male,31,anonymized,Serial_Dependence_U,2023.2.3,Win32,59.52380952,,,,,,,,,,,,2507.7309,6.0,2507.7311,,,,2510.0773,2510.5804,2509.5654,2510.0771,2508.7497,258.0,2509.5649,2510.5805,2511.0823,2511.0823,2517.0991,9999.0,2517.0993,0.0,2518.0989,6.0,16.0,196.0,5.0,1.0,0.8,0.7,Time
,,S37,1,Male,31,anonymized,Serial_Dependence_U,2023.2.3,Win32,59.52380952,,,,,,,,,,,,2518.0995,6.0,2518.0997,,,,2522.182,2522.6838,2521.6506,2522.1811,2519.1165,271.0,2521.6504,2522.6838,2523.1844,2523.1844,2529.1865,9999.0,2529.1868,0.0,2530.1861,6.0,17.0,197.0,11.0,1.0,1.0,0.3,Time
,,S37,1,Male,31,anonymized,Serial_Dependence_U,2023.2.3,Win32,59.52380952,,,,,,,,,,,,2530.1868,6.0,2530.187,,,,2532.7039,2533.2038,2532.1977,2532.7037,2531.1924,302.0,2532.1973,2533.2038,2533.704,2533.704,2539.7062,9999.0,2539.7071,0.0,2540.7061,6.0,18.0,198.0,6.0,1.0,1.0,0.7,Time
,,S37,1,Male,31,anonymized,Serial_Dependence_U,2023.2.3,Win32,59.52380952,,,,,,,,,,,,2540.7066,6.0,2540.7067,,,,2543.8578,2544.3573,2543.3415,2543.8576,2541.7239,265.0,2543.3409,2544.3574,2544.8576,2544.8576,2552.6219,9999.0,2552.6222,0.0,2553.4107,6.0,19.0,199.0,9.0,1.0,1.6,0.7,Time
,,S37,1,Male,31,anonymized,Serial_Dependence_U,2023.2.3,Win32,59.52380952,,,,,,,,,,,,2553.4115,6.0,2553.4118,,,,2558.244,2558.7453,2557.7425,2558.2439,2556.9266,19.0,2557.7422,2558.7453,2559.2453,2559.2454,2565.2518,9999.0,2565.2524,0.0,2566.2481,6.0,20.0,200.0,10.0,1.0,0.8,0.3,Time
,,S37,1,Male,31,anonymized,Serial_Dependence_U,2023.2.3,Win32,59.52380952,,,,,,,,,,,,2566.2485,6.0,2566.2488,,,,2569.1999,2569.6986,2568.6828,2569.1991,2567.2649,46.0,2568.6823,2569.6986,2570.1988,2570.1989,2576.2025,9999.0,2576.2028,0.0,2577.2011,6.0,21.0,201.0,28.0,1.0,1.4,0.7,Time
,,S37,1,Male,31,anonymized,Serial_Dependence_U,2023.2.3,Win32,59.52380952,,,,,,,,,,,,2577.2019,6.0,2577.2023,,,,2579.7525,2580.252,2579.2356,2579.7522,2578.2187,356.0,2579.2353,2580.2521,2580.752,2580.7521,2586.7544,9999.0,2586.7548,0.0,2587.7541,6.0,22.0,202.0,16.0,1.0,1.0,0.7,Time
,,S37,1,Male,31,anonymized,Serial_Dependence_U,2023.2.3,Win32,59.52380952,,,,,,,,,,,,2587.7545,6.0,2587.7547,,,,2590.2891,2590.7911,2589.7722,2590.2889,2588.759,96.0,2589.772,2590.7912,2591.289,2591.2892,2597.3008,9999.0,2597.3017,0.0,2598.2914,6.0,23.0,203.0,26.0,1.0,1.0,0.7,Time
,,S37,1,Male,31,anonymized,Serial_Dependence_U,2023.2.3,Win32,59.52380952,,,,,,,,,,,,2598.2918,6.0,2598.292,,,,2601.2239,2601.7254,2600.709,2601.2237,2599.3042,235.0,2600.7088,2601.7254,2602.2256,2602.2256,2609.3225,9999.0,2609.3227,0.0,2610.113,6.0,24.0,204.0,18.0,1.0,1.4,0.7,Time
,,S37,1,Male,31,anonymized,Serial_Dependence_U,2023.2.3,Win32,59.52380952,,,,,,,,,,,,2610.1135,6.0,2610.1136,,,,2612.6462,2613.1368,2612.1291,2612.646,2611.122,137.0,2612.1289,2613.1368,2613.6311,2613.6312,2619.648,9999.0,2619.6482,0.0,2620.648,6.0,25.0,205.0,21.0,1.0,1.0,0.3,Time
,,S37,1,Male,31,anonymized,Serial_Dependence_U,2023.2.3,Win32,59.52380952,,,,,,,,,,,,2620.6484,6.0,2620.6487,,,,2623.7926,2624.2825,2623.279,2623.792,2621.6655,129.0,2623.2785,2624.2825,2624.7861,2624.7861,2630.8016,9999.0,2630.8019,0.0,2631.8016,6.0,26.0,206.0,14.0,1.0,1.6,0.3,Time
,,S37,1,Male,31,anonymized,Serial_Dependence_U,2023.2.3,Win32,59.52380952,,,,,,,,,,,,2631.8022,6.0,2631.8024,,,,2634.7532,2635.2526,2634.2363,2634.7531,2632.8191,104.0,2634.236,2635.2527,2635.7528,2635.7529,2641.7681,9999.0,2641.7687,0.0,2642.7717,6.0,27.0,207.0,3.0,1.0,1.4,0.3,Time
,,S37,1,Male,31,anonymized,Serial_Dependence_U,2023.2.3,Win32,59.52380952,,,,,,,,,,,,2642.7725,6.0,2642.7729,,,,2645.523,2646.0227,2645.0062,2645.5228,2643.7934,306.0,2645.006,2646.0228,2646.5229,2646.5229,2652.5249,9999.0,2652.525,0.0,2653.5182,6.0,28.0,208.0,12.0,1.0,1.2,0.3,Time
,,S37,1,Male,31,anonymized,Serial_Dependence_U,2023.2.3,Win32,59.52380952,,,,,,,,,,,,2653.5188,6.0,2653.5191,,,,2656.6311,2657.1263,2656.1183,2656.631,2654.5125,119.0,2656.1182,2657.1264,2657.6265,2657.6266,2663.6459,9999.0,2663.6465,0.0,2664.6454,6.0,29.0,209.0,29.0,1.0,1.6,0.7,Time
,,S37,1,Male,31,anonymized,Serial_Dependence_U,2023.2.3,Win32,59.52380952,,,,,,,,,,,,2664.6459,7.0,2689.553,s,24.8887,,2692.088,2692.5992,2691.5714,2692.0877,2690.5553,0.0,2691.5708,2692.5993,2693.0906,2693.0906,2761.34,9999.0,2761.3403,0.0,2762.1426,7.0,0.0,210.0,21.0,1.0,1.0,0.3,Time
,,S37,1,Male,31,anonymized,Serial_Dependence_U,2023.2.3,Win32,59.52380952,,,,,,,,,,,,2762.1431,7.0,2762.1457,,,,2764.495,2764.9932,2763.977,2764.4941,2763.1601,242.0,2763.9769,2764.9933,2765.4946,2765.4948,2916.414,9999.0,2916.4143,0.0,2917.2081,7.0,1.0,211.0,10.0,1.0,0.8,0.3,Time
,,S37,1,Male,31,anonymized,Serial_Dependence_U,2023.2.3,Win32,59.52380952,,,,,,,,,,,,2917.2094,7.0,2917.21,,,,2919.9596,2920.459,2919.45,2919.9592,2918.2482,92.0,2919.4498,2920.4591,2920.9593,2920.9594,2926.963,9999.0,2926.9632,0.0,2927.963,7.0,2.0,212.0,7.0,1.0,1.2,0.7,Time
,,S37,1,Male,31,anonymized,Serial_Dependence_U,2023.2.3,Win32,59.52380952,,,,,,,,,,,,2927.9637,7.0,2927.9638,,,,2930.3069,2930.7956,2929.7916,2930.3062,2928.9757,106.0,2929.7909,2930.7957,2931.2958,2931.2959,2941.1199,9999.0,2941.1201,0.0,2941.9158,7.0,3.0,213.0,0.0,1.0,0.8,0.3,Time
,,S37,1,Male,31,anonymized,Serial_Dependence_U,2023.2.3,Win32,59.52380952,,,,,,,,,,,,2941.9165,7.0,2941.9167,,,,3001.3519,3001.8512,3000.835,3001.3516,2999.6205,172.0,3000.8348,3001.8513,3002.3516,3002.3516,3014.4392,9999.0,3014.4398,0.0,3015.239,7.0,4.0,214.0,17.0,1.0,1.2,0.7,Time
,,S37,1,Male,31,anonymized,Serial_Dependence_U,2023.2.3,Win32,59.52380952,,,,,,,,,,,,3015.2395,7.0,3015.2396,,,,3052.8343,3053.334,3052.3183,3052.8342,3051.3146,225.0,3052.3181,3053.334,3053.8345,3053.8346,3072.4812,9999.0,3072.4815,0.0,3073.2738,7.0,5.0,215.0,16.0,1.0,1.0,0.7,Time
,,S37,1,Male,31,anonymized,Serial_Dependence_U,2023.2.3,Win32,59.52380952,,,,,,,,,,,,3073.2743,7.0,3073.2745,,,,3076.7082,3076.7204,3075.0942,3076.708,3074.2859,253.0,3075.0937,3076.7204,3076.7205,3076.7205,3085.0561,9999.0,3085.0566,0.0,3085.8443,7.0,6.0,216.0,15.0,1.0,0.8,0.7,Time
,,S37,1,Male,31,anonymized,Serial_Dependence_U,2023.2.3,Win32,59.52380952,,,,,,,,,,,,3085.8448,7.0,3085.8449,,,,3088.7793,3089.2789,3088.2626,3088.7791,3086.8467,335.0,3088.2623,3089.2791,3089.7791,3089.7791,3095.7814,9999.0,3095.7816,0.0,3096.7813,7.0,7.0,217.0,13.0,1.0,1.4,0.3,Time
,,S37,1,Male,31,anonymized,Serial_Dependence_U,2023.2.3,Win32,59.52380952,,,,,,,,,,,,3096.7818,7.0,3096.782,,,,3099.3332,3099.8321,3098.8157,3099.3328,3097.7987,30.0,3098.8155,3099.8323,3100.3323,3100.3324,3111.2494,9999.0,3111.2496,0.0,3112.0393,7.0,8.0,218.0,1.0,1.0,1.0,0.3,Time
,,S37,1,Male,31,anonymized,Serial_Dependence_U,2023.2.3,Win32,59.52380952,,,,,,,,,,,,3112.0396,7.0,3112.0397,,,,3114.9539,3115.4537,3114.4452,3114.9538,3113.037,355.0,3114.4447,3115.4537,3115.9538,3115.9538,3116.5877,615.3,3116.5881,1.0,3117.5879,7.0,9.0,219.0,3.0,1.0,1.4,0.3,Time
,,S37,1,Male,31,anonymized,Serial_Dependence_U,2023.2.3,Win32,59.52380952,,,,,,,,,,,,3117.5884,7.0,3117.5884,,,,3120.7393,3121.239,3120.2225,3120.7391,3118.6053,257.0,3120.2223,3121.239,3121.7391,3121.7391,3124.7749,2931.5,3124.7753,5.0,3125.7735,7.0,10.0,220.0,19.0,1.0,1.6,0.7,Time
,,S37,1,Male,31,anonymized,Serial_Dependence_U,2023.2.3,Win32,59.52380952,,,,,,,,,,,,3125.7739,7.0,3125.774,,,,3128.1247,3128.6246,3127.6082,3128.1246,3126.7913,342.0,3127.6081,3128.6246,3129.1247,3129.1248,3133.8096,3737.5,3133.8098,5.0,3134.81,7.0,11.0,221.0,25.0,1.0,0.8,0.7,Time
,,S37,1,Male,31,anonymized,Serial_Dependence_U,2023.2.3,Win32,59.52380952,,,,,,,,,,,,3134.8105,7.0,3134.8107,,,,3137.5616,3138.0609,3137.0441,3137.5614,3135.8274,200.0,3137.044,3138.0609,3138.5612,3138.5613,3141.6623,3081.1,3141.6626,5.0,3142.6624,7.0,12.0,222.0,12.0,1.0,1.2,0.3,Time
,,S37,1,Male,31,anonymized,Serial_Dependence_U,2023.2.3,Win32,59.52380952,,,,,,,,,,,,3142.6629,7.0,3142.6632,,,,3145.2136,3145.7132,3144.6968,3145.2135,3143.6802,74.0,3144.6967,3145.7133,3146.2135,3146.2135,3150.4984,3953.3,3150.4988,5.0,3151.4984,7.0,13.0,223.0,6.0,1.0,1.0,0.7,Time
,,S37,1,Male,31,anonymized,Serial_Dependence_U,2023.2.3,Win32,59.52380952,,,,,,,,,,,,3151.499,7.0,3151.4992,,,,3154.0332,3154.5327,3153.5171,3154.0331,3152.4992,14.0,3153.5168,3154.5328,3155.0329,3155.033,3155.9501,878.9,3155.9503,2.0,3156.9502,7.0,14.0,224.0,26.0,1.0,1.0,0.7,Time
,,S37,1,Male,31,anonymized,Serial_Dependence_U,2023.2.3,Win32,59.52380952,,,,,,,,,,,,3156.9508,7.0,3156.951,,,,3159.9018,3160.4013,3159.3866,3159.9015,3157.9717,81.0,3159.386,3160.4013,3160.9014,3160.9015,3163.6858,2716.4,3163.6865,5.0,3164.6859,7.0,15.0,225.0,23.0,1.0,1.4,0.3,Time
,,S37,1,Male,31,anonymized,Serial_Dependence_U,2023.2.3,Win32,59.52380952,,,,,,,,,,,,3164.6866,7.0,3164.6868,,,,3167.2373,3167.7369,3166.7306,3167.2371,3165.7033,152.0,3166.7304,3167.7371,3168.2369,3168.2369,3170.4214,2139.8,3170.4218,5.0,3171.4212,7.0,16.0,226.0,11.0,1.0,1.0,0.3,Time
,,S37,1,Male,31,anonymized,Serial_Dependence_U,2023.2.3,Win32,59.52380952,,,,,,,,,,,,3171.422,7.0,3171.4221,,,,3174.558,3175.056,3174.0559,3174.5574,3172.4394,109.0,3174.0557,3175.056,3175.5561,3175.5561,3181.1579,5356.4,3181.1582,5.0,3182.1585,7.0,17.0,227.0,9.0,1.0,1.6,0.7,Time
,,S37,1,Male,31,anonymized,Serial_Dependence_U,2023.2.3,Win32,59.52380952,,,,,,,,,,,,3182.159,7.0,3182.1591,,,,3185.1113,3185.6093,3184.5928,3185.1111,3183.1757,78.0,3184.5927,3185.6094,3186.1103,3186.1103,3189.294,3138.6,3189.2943,5.0,3190.2939,7.0,18.0,228.0,28.0,1.0,1.4,0.7,Time
,,S37,1,Male,31,anonymized,Serial_Dependence_U,2023.2.3,Win32,59.52380952,,,,,,,,,,,,3190.2945,7.0,3190.2947,,,,3193.4453,3193.9452,3192.9288,3193.4451,3191.3117,113.0,3192.9286,3193.9452,3194.4453,3194.4453,3197.9466,3302.0,3197.947,5.0,3198.9468,7.0,19.0,229.0,14.0,1.0,1.6,0.3,Time
,,S37,1,Male,31,anonymized,Serial_Dependence_U,2023.2.3,Win32,59.52380952,,,,,,,,,,,,3198.9472,7.0,3198.9475,,,,3202.0984,3202.5978,3201.5817,3202.0982,3199.9641,271.0,3201.5815,3202.5979,3203.0979,3203.098,3206.1825,3039.0,3206.1827,5.0,3207.1826,7.0,20.0,230.0,29.0,1.0,1.6,0.7,Time
,,S37,1,Male,31,anonymized,Serial_Dependence_U,2023.2.3,Win32,59.52380952,,,,,,,,,,,,3207.1833,7.0,3207.1835,,,,3209.5339,3210.0336,3209.0172,3209.5337,3208.2002,120.0,3209.017,3210.0336,3210.5335,3210.5337,3213.1178,2565.8,3213.1181,5.0,3214.1189,7.0,21.0,231.0,5.0,1.0,0.8,0.7,Time
,,S37,1,Male,31,anonymized,Serial_Dependence_U,2023.2.3,Win32,59.52380952,,,,,,,,,,,,3214.1201,7.0,3214.1204,,,,3216.8697,3217.3692,3216.3529,3216.8695,3215.1354,295.0,3216.3528,3217.3692,3217.8693,3217.8693,3223.8716,9999.0,3223.8719,0.0,3224.8716,7.0,22.0,232.0,27.0,1.0,1.2,0.7,Time
,,S37,1,Male,31,anonymized,Serial_Dependence_U,2023.2.3,Win32,59.52380952,,,,,,,,,,,,3224.8723,7.0,3224.8724,,,,3227.6092,3228.1059,3227.1063,3227.6088,3225.8893,318.0,3227.1061,3228.1059,3228.6061,3228.6061,3234.6083,9999.0,3234.6086,0.0,3235.6082,7.0,23.0,233.0,2.0,1.0,1.2,0.3,Time
,,S37,1,Male,31,anonymized,Serial_Dependence_U,2023.2.3,Win32,59.52380952,,,,,,,,,,,,3235.6088,7.0,3235.609,,,,3238.7597,3239.2594,3238.2432,3238.7595,3236.6259,355.0,3238.2429,3239.2594,3239.7596,3239.7596,3245.7618,9999.0,3245.7621,0.0,3246.7617,7.0,24.0,234.0,24.0,1.0,1.6,0.3,Time
,,S37,1,Male,31,anonymized,Serial_Dependence_U,2023.2.3,Win32,59.52380952,,,,,,,,,,,,3246.7623,7.0,3246.7624,,,,3249.1132,3249.6128,3248.5963,3249.113,3247.7793,156.0,3248.5961,3249.6128,3250.1129,3250.113,3253.0139,2882.5,3253.0142,5.0,3254.014,7.0,25.0,235.0,20.0,1.0,0.8,0.3,Time
,,S37,1,Male,31,anonymized,Serial_Dependence_U,2023.2.3,Win32,59.52380952,,,,,,,,,,,,3254.0145,7.0,3254.0147,,,,3256.9654,3257.465,3256.4485,3256.9652,3255.0317,113.0,3256.4483,3257.4651,3257.9654,3257.9656,3262.917,4932.0,3262.9173,5.0,3263.9172,7.0,26.0,236.0,8.0,1.0,1.4,0.7,Time
,,S37,1,Male,31,anonymized,Serial_Dependence_U,2023.2.3,Win32,59.52380952,,,,,,,,,,,,3263.9177,7.0,3263.9178,,,,3266.8521,3267.3515,3266.3349,3266.8518,3264.9233,251.0,3266.3347,3267.3516,3267.852,3267.8521,3273.8537,9999.0,3273.854,0.0,3274.8538,7.0,27.0,237.0,18.0,1.0,1.4,0.7,Time
,,S37,1,Male,31,anonymized,Serial_Dependence_U,2023.2.3,Win32,59.52380952,,,,,,,,,,,,3274.8544,7.0,3274.8546,,,,3277.6053,3278.1048,3277.0888,3277.605,3275.8716,228.0,3277.0885,3278.1049,3278.605,3278.605,3284.6072,9999.0,3284.6074,0.0,3285.6073,7.0,28.0,238.0,22.0,1.0,1.2,0.3,Time
,,S37,1,Male,31,anonymized,Serial_Dependence_U,2023.2.3,Win32,59.52380952,,,,,,,,,,,,3285.6079,7.0,3285.6081,,,,3288.759,3289.2584,3288.2421,3288.7587,3286.6247,285.0,3288.2419,3289.2585,3289.7586,3289.7586,3295.7608,9999.0,3295.761,0.0,3296.7609,7.0,29.0,239.0,4.0,1.0,1.6,0.3,Time
,,S37,1,Male,31,anonymized,Serial_Dependence_U,2023.2.3,Win32,59.52380952,,,,,,,,,,,,3296.7616,8.0,3298.8285,s,2.0463,,3301.9631,3302.4625,3301.4463,3301.963,3299.8338,158.0,3301.4461,3302.4625,3302.9628,3302.9628,3308.9647,9999.0,3308.9649,0.0,3309.965,8.0,0.0,240.0,4.0,1.0,1.6,0.3,Time
,,S37,1,Male,31,anonymized,Serial_Dependence_U,2023.2.3,Win32,59.52380952,,,,,,,,,,,,3309.9654,8.0,3309.9673,,,,3312.4996,3312.9993,3311.9829,3312.4994,3310.9664,22.0,3311.9827,3312.9993,3313.4993,3313.4994,3330.6811,9999.0,3330.6812,0.0,3331.472,8.0,1.0,241.0,26.0,1.0,1.0,0.7,Time
,,S37,1,Male,31,anonymized,Serial_Dependence_U,2023.2.3,Win32,59.52380952,,,,,,,,,,,,3331.4724,8.0,3331.4726,,,,3334.4076,3334.9061,3333.8912,3334.4075,3332.4893,137.0,3333.8906,3334.9061,3335.4062,3335.4063,3404.2815,9999.0,3404.2818,0.0,3405.0783,8.0,2.0,242.0,23.0,1.0,1.4,0.3,Time
,,S37,1,Male,31,anonymized,Serial_Dependence_U,2023.2.3,Win32,59.52380952,,,,,,,,,,,,3405.0789,8.0,3405.0791,,,,3482.7174,3483.2196,3482.2037,3482.7172,3406.0966,146.0,3482.2035,3483.2197,3483.7196,3483.7197,3533.7202,9999.0,3533.7204,0.0,3534.5284,8.0,3.0,243.0,14.0,1.0,1.6,0.3,Time
,,S37,1,Male,31,anonymized,Serial_Dependence_U,2023.2.3,Win32,59.52380952,,,,,,,,,,,,3534.5287,8.0,3534.5287,,,,3537.6545,3538.1532,3537.1383,3537.6542,3535.5258,315.0,3537.1375,3538.1533,3538.6608,3538.661,3544.676,9999.0,3544.6766,0.0,3545.6726,8.0,4.0,244.0,24.0,1.0,1.6,0.3,Time
,,S37,1,Male,31,anonymized,Serial_Dependence_U,2023.2.3,Win32,59.52380952,,,,,,,,,,,,3545.6731,8.0,3545.6733,,,,3548.2238,3548.7275,3547.707,3548.2237,3546.6902,114.0,3547.7068,3548.7275,3549.2237,3549.2238,3551.3411,2101.2,3551.3413,5.0,3552.3414,8.0,5.0,245.0,16.0,1.0,1.0,0.7,Time
,,S37,1,Male,31,anonymized,Serial_Dependence_U,2023.2.3,Win32,59.52380952,,,,,,,,,,,,3552.342,8.0,3552.3421,,,,3555.2928,3555.7922,3554.7757,3555.2925,3553.3589,215.0,3554.7755,3555.7922,3556.2925,3556.2926,3559.3269,2589.0,3559.3271,5.0,3560.3271,8.0,6.0,246.0,28.0,1.0,1.4,0.7,Time
,,S37,1,Male,31,anonymized,Serial_Dependence_U,2023.2.3,Win32,59.52380952,,,,,,,,,,,,3560.3278,8.0,3560.3279,,,,3563.0633,3563.5614,3562.5571,3563.0627,3561.3445,248.0,3562.5565,3563.5615,3564.0617,3564.0618,3586.1697,9999.0,3586.17,0.0,3586.9693,8.0,7.0,247.0,17.0,1.0,1.2,0.7,Time
,,S37,1,Male,31,anonymized,Serial_Dependence_U,2023.2.3,Win32,59.52380952,,,,,,,,,,,,3586.9696,8.0,3586.9697,,,,3589.9036,3590.4033,3589.3867,3589.9034,3587.9786,314.0,3589.3865,3590.4034,3590.9033,3590.9034,3596.9063,9999.0,3596.9068,0.0,3597.9056,8.0,8.0,248.0,13.0,1.0,1.4,0.3,Time
,,S37,1,Male,31,anonymized,Serial_Dependence_U,2023.2.3,Win32,59.52380952,,,,,,,,,,,,3597.9061,8.0,3597.9063,,,,3601.0572,3601.5567,3600.54,3601.057,3598.9231,252.0,3600.5399,3601.5568,3602.057,3602.057,3608.059,9999.0,3608.0592,0.0,3609.0591,8.0,9.0,249.0,29.0,1.0,1.6,0.7,Time
,,S37,1,Male,31,anonymized,Serial_Dependence_U,2023.2.3,Win32,59.52380952,,,,,,,,,,,,3609.0596,8.0,3609.0598,,,,3611.7943,3612.2935,3611.277,3611.7941,3610.0601,33.0,3611.2769,3612.2935,3612.7936,3612.7937,3618.8017,9999.0,3618.8019,0.0,3619.7964,8.0,10.0,250.0,7.0,1.0,1.2,0.7,Time
,,S37,1,Male,31,anonymized,Serial_Dependence_U,2023.2.3,Win32,59.52380952,,,,,,,,,,,,3619.7969,8.0,3619.797,,,,3623.0953,3623.1086,3621.8223,3623.0952,3620.8134,57.0,3621.8222,3623.1086,3623.1088,3623.1088,3629.1419,9999.0,3629.1421,0.0,3630.1326,8.0,11.0,251.0,6.0,1.0,1.0,0.7,Time
,,S37,1,Male,31,anonymized,Serial_Dependence_U,2023.2.3,Win32,59.52380952,,,,,,,,,,,,3630.133,8.0,3630.1332,,,,3632.8839,3633.3835,3632.3671,3632.8838,3631.15,121.0,3632.3669,3633.3836,3633.8837,3633.8838,3637.5516,3652.1,3637.5519,5.0,3638.5519,8.0,12.0,252.0,2.0,1.0,1.2,0.3,Time
,,S37,1,Male,31,anonymized,Serial_Dependence_U,2023.2.3,Win32,59.52380952,,,,,,,,,,,,3638.5525,8.0,3638.5526,,,,3641.2866,3641.786,3640.7698,3641.2864,3639.5527,283.0,3640.7697,3641.786,3642.2861,3642.2862,3646.0211,1986.5,3646.0213,5.0,3647.021,8.0,13.0,253.0,12.0,1.0,1.2,0.3,Time
,,S37,1,Male,31,anonymized,Serial_Dependence_U,2023.2.3,Win32,59.52380952,,,,,,,,,,,,3647.0217,8.0,3647.0219,,,,3649.3724,3649.8721,3648.8553,3649.3723,3648.0386,202.0,3648.8552,3649.8722,3650.372,3650.3721,3653.5403,3109.7,3653.5406,5.0,3654.5403,8.0,14.0,254.0,10.0,1.0,0.8,0.3,Time
,,S37,1,Male,31,anonymized,Serial_Dependence_U,2023.2.3,Win32,59.52380952,,,,,,,,,,,,3654.5411,8.0,3654.5412,,,,3657.4917,3657.9912,3656.9745,3657.4915,3655.5577,9.0,3656.9743,3657.9913,3658.4915,3658.4915,3658.5749,68.3,3658.5751,1.0,3659.575,8.0,15.0,255.0,8.0,1.0,1.4,0.7,Time
,,S37,1,Male,31,anonymized,Serial_Dependence_U,2023.2.3,Win32,59.52380952,,,,,,,,,,,,3659.5754,8.0,3659.5756,,,,3661.9263,3662.4259,3661.4092,3661.9261,3660.5925,333.0,3661.4091,3662.4259,3662.926,3662.926,3664.0099,1048.4,3664.0101,5.0,3665.0101,8.0,16.0,256.0,15.0,1.0,0.8,0.7,Time
,,S37,1,Male,31,anonymized,Serial_Dependence_U,2023.2.3,Win32,59.52380952,,,,,,,,,,,,3665.0107,8.0,3665.0111,,,,3667.9616,3668.4616,3667.4444,3667.9613,3666.0275,36.0,3667.4442,3668.4616,3668.9613,3668.9614,3670.2287,566.1,3670.229,1.0,3672.46,8.0,17.0,257.0,18.0,1.0,1.4,0.7,Time
,,S37,1,Male,31,anonymized,Serial_Dependence_U,2023.2.3,Win32,59.52380952,,,,,,,,,,,,3672.4603,8.0,3672.4604,,,,3675.1136,3675.6133,3674.597,3675.1134,3672.986,314.0,3674.5968,3675.6134,3676.1134,3676.1134,3682.1301,9999.0,3682.1309,0.0,3683.1324,8.0,18.0,258.0,9.0,1.0,1.6,0.7,Time
,,S37,1,Male,31,anonymized,Serial_Dependence_U,2023.2.3,Win32,59.52380952,,,,,,,,,,,,3683.1331,8.0,3683.1335,,,,3685.4838,3685.9832,3684.9666,3685.4835,3684.1496,100.0,3684.9665,3685.9833,3686.4833,3686.4833,3689.3067,2796.9,3689.3075,5.0,3690.3014,8.0,19.0,259.0,0.0,1.0,0.8,0.3,Time
,,S37,1,Male,31,anonymized,Serial_Dependence_U,2023.2.3,Win32,59.52380952,,,,,,,,,,,,3690.3021,8.0,3690.3022,,,,3693.053,3693.5523,3692.5359,3693.0528,3691.319,287.0,3692.5358,3693.5523,3694.0524,3694.0526,3694.4696,375.6,3694.47,1.0,3695.4696,8.0,20.0,260.0,22.0,1.0,1.2,0.3,Time
,,S37,1,Male,31,anonymized,Serial_Dependence_U,2023.2.3,Win32,59.52380952,,,,,,,,,,,,3695.4701,8.0,3695.4702,,,,3698.021,3698.5206,3697.504,3698.0208,3696.4871,174.0,3697.5038,3698.5206,3699.0208,3699.0209,3700.4045,1367.8,3700.4048,5.0,3701.4047,8.0,21.0,261.0,21.0,1.0,1.0,0.3,Time
,,S37,1,Male,31,anonymized,Serial_Dependence_U,2023.2.3,Win32,59.52380952,,,,,,,,,,,,3701.4053,8.0,3701.4055,,,,3703.756,3704.2557,3703.2393,3703.7558,3702.4223,74.0,3703.2391,3704.2558,3704.7559,3704.7561,3706.5567,1780.4,3706.5571,5.0,3707.5567,8.0,22.0,262.0,20.0,1.0,0.8,0.3,Time
,,S37,1,Male,31,anonymized,Serial_Dependence_U,2023.2.3,Win32,59.52380952,,,,,,,,,,,,3707.5573,8.0,3707.5575,,,,3710.1082,3710.6079,3709.5913,3710.108,3708.5742,283.0,3709.5911,3710.6079,3711.1079,3711.1079,3712.5252,1247.9,3712.5255,4.0,3713.5254,8.0,23.0,263.0,11.0,1.0,1.0,0.3,Time
,,S37,1,Male,31,anonymized,Serial_Dependence_U,2023.2.3,Win32,59.52380952,,,,,,,,,,,,3713.5261,8.0,3713.5262,,,,3716.4769,3716.9764,3715.96,3716.4767,3714.543,148.0,3715.9598,3716.9764,3717.4766,3717.4767,3720.5943,2448.9,3720.5945,5.0,3721.5944,8.0,24.0,264.0,3.0,1.0,1.4,0.3,Time
,,S37,1,Male,31,anonymized,Serial_Dependence_U,2023.2.3,Win32,59.52380952,,,,,,,,,,,,3721.5949,8.0,3721.595,,,,3724.3459,3724.8455,3723.8292,3724.3457,3722.6126,213.0,3723.8289,3724.8455,3725.3457,3725.3457,3726.7636,1126.0,3726.7639,2.0,3727.7631,8.0,25.0,265.0,27.0,1.0,1.2,0.7,Time
,,S37,1,Male,31,anonymized,Serial_Dependence_U,2023.2.3,Win32,59.52380952,,,,,,,,,,,,3727.7637,8.0,3727.7639,,,,3730.9183,3731.4141,3730.3979,3730.9172,3728.7807,112.0,3730.3977,3731.4141,3731.9142,3731.9143,3733.6657,1136.2,3733.6669,2.0,3734.6653,8.0,26.0,266.0,19.0,1.0,1.6,0.7,Time
,,S37,1,Male,31,anonymized,Serial_Dependence_U,2023.2.3,Win32,59.52380952,,,,,,,,,,,,3734.6658,8.0,3734.666,,,,3737.0165,3737.5162,3736.4996,3737.0164,3735.6829,269.0,3736.4995,3737.5162,3738.0164,3738.0164,3741.2842,998.2,3741.2843,4.0,3742.2844,8.0,27.0,267.0,5.0,1.0,0.8,0.7,Time
,,S37,1,Male,31,anonymized,Serial_Dependence_U,2023.2.3,Win32,59.52380952,,,,,,,,,,,,3742.2848,8.0,3742.285,,,,3744.8165,3745.3184,3744.3022,3744.8161,3743.2851,54.0,3744.302,3745.3185,3745.8188,3745.8189,3747.9864,1033.0,3747.9866,3.0,3748.9864,8.0,28.0,268.0,1.0,1.0,1.0,0.3,Time
,,S37,1,Male,31,anonymized,Serial_Dependence_U,2023.2.3,Win32,59.52380952,,,,,,,,,,,,3748.987,8.0,3748.9873,,,,3751.3374,3751.8374,3750.8214,3751.3373,3750.0039,257.0,3750.8212,3751.8374,3754.4026,3754.4026,3756.6723,1589.2,3756.6727,5.0,3757.6727,8.0,29.0,269.0,25.0,1.0,0.8,0.7,Time
