Scale_setup.started,Scale_setup.stopped,participant,session,sex,age,date,expName,psychopyVersion,OS,frameRate,screen_scale_keys.started,screen_scale_keys.stopped,X Scale,Y Scale,rectangel_keys.started,rectangel_keys.stopped,Intro.started,Intro.stopped,key_resp_2.keys,key_resp_2.rt,key_resp_2.duration,block.started,Block_id,block.stopped,Block_resp_2.keys,Block_resp_2.rt,Block_resp_2.duration,ITI.started,ITI.stopped,Mask_2.started,Mask_2.stopped,M2.started,direction,M2.stopped,Cue.started,Cue.stopped,Response.started,Response.stopped,keyDuration,Feedback_Time.started,FeedbackID_T,Feedback_Time.stopped,trials.thisRepN,trials.thisTrialN,trials.thisN,trials.thisIndex,trials.ran,TimeDur,Coherence1,TrialType
0.0009,0.0013,S38,1,Male,29,anonymized,Serial_Dependence_U,2023.2.3,Win32,163.9344262,,,,,,,,,,,,,,,,,,,,,,,,,,,,,,,,,,,,,,,,
,,S38,1,Male,29,anonymized,Serial_Dependence_U,2023.2.3,Win32,163.9344262,0.0026,95.8903,0.0469,0.0464,95.8906,116.9371,116.9375,161.8001,space,44.8389,,,,,,,,,,,,,,,,,,,,,,,,,,,,,,
,,S38,1,Male,29,anonymized,Serial_Dependence_U,2023.2.3,Win32,163.9344262,,,,,,,,,,,,161.8066,0.0,165.5809,s,3.7587,,168.0901,168.5865,167.5877,168.0899,166.5826,99.0,167.5872,168.5867,169.0835,169.0839,171.6536,393.8,171.6542,1.0,172.6531,0.0,0.0,0.0,16.0,1.0,1.0,0.7,Time
,,S38,1,Male,29,anonymized,Serial_Dependence_U,2023.2.3,Win32,163.9344262,,,,,,,,,,,,172.6536,0.0,172.6551,,,,174.9684,175.4648,174.4654,174.9682,173.6591,359.0,174.4652,175.4648,175.9616,175.9618,177.1255,685.1,177.1257,2.0,178.1251,0.0,1.0,1.0,0.0,1.0,0.8,0.3,Time
,,S38,1,Male,29,anonymized,Serial_Dependence_U,2023.2.3,Win32,163.9344262,,,,,,,,,,,,178.1257,0.0,178.1259,,,,180.8347,181.3309,180.3316,180.8345,179.1288,49.0,180.3314,181.331,181.8279,181.828,183.0641,835.8,183.0645,1.0,184.0639,0.0,2.0,2.0,17.0,1.0,1.2,0.7,Time
,,S38,1,Male,29,anonymized,Serial_Dependence_U,2023.2.3,Win32,163.9344262,,,,,,,,,,,,184.0644,0.0,184.0648,,,,186.9733,187.4697,186.4704,186.973,185.068,140.0,186.4701,187.4697,187.9667,187.9667,189.7121,1461.0,189.7123,3.0,190.7118,0.0,3.0,3.0,3.0,1.0,1.4,0.3,Time
,,S38,1,Male,29,anonymized,Serial_Dependence_U,2023.2.3,Win32,163.9344262,,,,,,,,,,,,190.7122,0.0,190.7125,,,,193.225,193.7237,192.7191,193.2248,191.7124,176.0,192.7189,193.7238,194.2207,194.2208,195.4088,826.5,195.409,2.0,196.4084,0.0,4.0,4.0,26.0,1.0,1.0,0.7,Time
,,S38,1,Male,29,anonymized,Serial_Dependence_U,2023.2.3,Win32,163.9344262,,,,,,,,,,,,196.4089,0.0,196.4093,,,,198.7178,199.2142,198.2149,198.7176,197.4089,69.0,198.2147,199.2143,199.7111,199.7113,201.0203,1005.8,201.0207,4.0,202.0199,0.0,5.0,5.0,20.0,1.0,0.8,0.3,Time
,,S38,1,Male,29,anonymized,Serial_Dependence_U,2023.2.3,Win32,163.9344262,,,,,,,,,,,,202.0204,0.0,202.0207,,,,204.3294,204.8257,203.8264,204.3291,203.0205,268.0,203.8261,204.8258,205.3227,205.3228,206.3288,995.4,206.3292,4.0,207.3286,0.0,6.0,6.0,5.0,1.0,0.8,0.7,Time
,,S38,1,Male,29,anonymized,Serial_Dependence_U,2023.2.3,Win32,163.9344262,,,,,,,,,,,,207.3293,0.0,207.3296,,,,210.2379,210.7343,209.7363,210.2377,208.329,114.0,209.7361,210.7343,211.2313,211.2314,213.8344,992.8,213.8347,2.0,214.8309,0.0,7.0,7.0,13.0,1.0,1.4,0.3,Time
,,S38,1,Male,29,anonymized,Serial_Dependence_U,2023.2.3,Win32,163.9344262,,,,,,,,,,,,214.8315,0.0,214.8318,,,,217.7404,218.2368,217.2373,217.7402,215.8313,89.0,217.2371,218.2368,218.7337,218.7337,220.2856,1425.4,220.2858,3.0,221.2849,0.0,8.0,8.0,23.0,1.0,1.4,0.3,Time
,,S38,1,Male,29,anonymized,Serial_Dependence_U,2023.2.3,Win32,163.9344262,,,,,,,,,,,,221.2855,0.0,221.2858,,,,223.5944,224.0907,223.0912,223.5942,222.2854,17.0,223.0911,224.0908,224.5877,224.5877,225.7635,685.5,225.7638,2.0,226.7632,0.0,9.0,9.0,15.0,1.0,0.8,0.7,Time
,,S38,1,Male,29,anonymized,Serial_Dependence_U,2023.2.3,Win32,163.9344262,,,,,,,,,,,,226.7638,0.0,226.7641,,,,229.2768,229.7751,228.7698,229.2766,227.7635,257.0,228.7695,229.7752,230.2721,230.2722,231.4902,939.9,231.4907,2.0,232.49,0.0,10.0,10.0,6.0,1.0,1.0,0.7,Time
,,S38,1,Male,29,anonymized,Serial_Dependence_U,2023.2.3,Win32,163.9344262,,,,,,,,,,,,232.4905,0.0,232.4907,,,,235.5997,236.0958,235.0966,235.5995,233.4905,352.0,235.0964,236.0958,236.5927,236.5928,238.0291,1049.2,238.0295,1.0,239.0288,0.0,11.0,11.0,9.0,1.0,1.6,0.7,Time
,,S38,1,Male,29,anonymized,Serial_Dependence_U,2023.2.3,Win32,163.9344262,,,,,,,,,,,,239.0293,0.0,239.0294,,,,241.7382,242.2346,241.2352,241.7381,240.0293,185.0,241.2349,242.2346,242.7316,242.7316,244.5108,1689.7,244.5111,5.0,245.507,0.0,12.0,12.0,12.0,1.0,1.2,0.3,Time
,,S38,1,Male,29,anonymized,Serial_Dependence_U,2023.2.3,Win32,163.9344262,,,,,,,,,,,,245.5076,0.0,245.5078,,,,248.6162,249.1129,248.1102,248.6161,246.5076,131.0,248.1101,249.1129,249.6097,249.6097,251.4076,1369.0,251.4078,2.0,252.4034,0.0,13.0,13.0,4.0,1.0,1.6,0.3,Time
,,S38,1,Male,29,anonymized,Serial_Dependence_U,2023.2.3,Win32,163.9344262,,,,,,,,,,,,252.4039,0.0,252.4041,,,,255.1127,255.6092,254.6098,255.1126,253.4065,290.0,254.6096,255.6092,256.1062,256.1062,256.5405,107.9,256.5407,1.0,257.5363,0.0,14.0,14.0,27.0,1.0,1.2,0.7,Time
,,S38,1,Male,29,anonymized,Serial_Dependence_U,2023.2.3,Win32,163.9344262,,,,,,,,,,,,257.5368,0.0,257.5369,,,,260.6456,261.1421,260.1428,260.6455,258.5396,154.0,260.1426,261.1421,261.639,261.6391,263.6329,1503.3,263.6333,2.0,264.6327,0.0,15.0,15.0,14.0,1.0,1.6,0.3,Time
,,S38,1,Male,29,anonymized,Serial_Dependence_U,2023.2.3,Win32,163.9344262,,,,,,,,,,,,264.6332,0.0,264.6336,,,,267.3421,267.8384,266.8389,267.3419,265.6331,344.0,266.8387,267.8384,268.3353,268.3354,269.9509,1271.4,269.9511,4.0,270.9473,0.0,16.0,16.0,2.0,1.0,1.2,0.3,Time
,,S38,1,Male,29,anonymized,Serial_Dependence_U,2023.2.3,Win32,163.9344262,,,,,,,,,,,,270.9477,0.0,270.9479,,,,273.8567,274.353,273.3536,273.8565,271.9479,175.0,273.3534,274.353,274.85,274.85,276.4355,1181.2,276.4357,2.0,277.4316,0.0,17.0,17.0,28.0,1.0,1.4,0.7,Time
,,S38,1,Male,29,anonymized,Serial_Dependence_U,2023.2.3,Win32,163.9344262,,,,,,,,,,,,277.4321,0.0,277.4324,,,,280.141,280.6374,279.6379,280.1408,278.432,90.0,279.6376,280.6374,281.1344,281.1345,282.4353,921.4,282.4355,2.0,283.431,0.0,18.0,18.0,7.0,1.0,1.2,0.7,Time
,,S38,1,Male,29,anonymized,Serial_Dependence_U,2023.2.3,Win32,163.9344262,,,,,,,,,,,,283.4315,0.0,283.4318,,,,286.1406,286.6369,285.6377,286.1403,284.4314,307.0,285.6373,286.6369,287.1338,287.1338,288.4733,1036.8,288.4737,2.0,289.473,0.0,19.0,19.0,22.0,1.0,1.2,0.3,Time
,,S38,1,Male,29,anonymized,Serial_Dependence_U,2023.2.3,Win32,163.9344262,,,,,,,,,,,,289.4735,0.0,289.4737,,,,292.5821,293.0787,292.0792,292.5819,290.4733,0.0,292.079,293.0788,293.5757,293.5758,295.9816,1864.5,295.9819,4.0,296.9813,0.0,20.0,20.0,19.0,1.0,1.6,0.7,Time
,,S38,1,Male,29,anonymized,Serial_Dependence_U,2023.2.3,Win32,163.9344262,,,,,,,,,,,,296.9817,0.0,296.982,,,,299.4938,299.9932,298.9878,299.4936,297.9818,142.0,298.9876,299.9932,300.4901,300.4903,302.3265,1079.6,302.3268,4.0,303.3263,0.0,21.0,21.0,21.0,1.0,1.0,0.3,Time
,,S38,1,Male,29,anonymized,Serial_Dependence_U,2023.2.3,Win32,163.9344262,,,,,,,,,,,,303.3267,0.0,303.327,,,,306.4355,306.932,305.9328,306.4354,304.3266,165.0,305.9324,306.932,307.4289,307.429,309.1382,1352.1,309.1385,2.0,310.1378,0.0,22.0,22.0,24.0,1.0,1.6,0.3,Time
,,S38,1,Male,29,anonymized,Serial_Dependence_U,2023.2.3,Win32,163.9344262,,,,,,,,,,,,310.1383,0.0,310.1387,,,,312.4472,312.9436,311.9442,312.447,311.1383,8.0,311.9441,312.9436,313.4406,313.4406,315.1558,673.1,315.1561,2.0,316.1554,0.0,23.0,23.0,25.0,1.0,0.8,0.7,Time
,,S38,1,Male,29,anonymized,Serial_Dependence_U,2023.2.3,Win32,163.9344262,,,,,,,,,,,,316.1559,0.0,316.1561,,,,319.2648,319.7613,318.7617,319.2646,317.1558,349.0,318.7615,319.7613,320.2582,320.2582,321.6824,1022.3,321.6827,1.0,322.6822,0.0,24.0,24.0,29.0,1.0,1.6,0.7,Time
,,S38,1,Male,29,anonymized,Serial_Dependence_U,2023.2.3,Win32,163.9344262,,,,,,,,,,,,322.6828,0.0,322.6829,,,,325.1916,325.688,324.6885,325.1914,323.6828,129.0,324.6883,325.688,326.185,326.185,327.4394,752.2,327.4398,2.0,328.4393,0.0,25.0,25.0,11.0,1.0,1.0,0.3,Time
,,S38,1,Male,29,anonymized,Serial_Dependence_U,2023.2.3,Win32,163.9344262,,,,,,,,,,,,328.4396,0.0,328.4399,,,,330.7491,331.2451,330.2456,330.7489,329.4398,301.0,330.2454,331.2451,331.742,331.7421,333.2632,751.1,333.2635,2.0,334.263,0.0,26.0,26.0,10.0,1.0,0.8,0.3,Time
,,S38,1,Male,29,anonymized,Serial_Dependence_U,2023.2.3,Win32,163.9344262,,,,,,,,,,,,334.2633,0.0,334.2633,,,,337.1723,337.6688,336.6692,337.1721,335.2633,331.0,336.669,337.6688,338.1656,338.1657,339.7353,1252.8,339.7355,2.0,340.7352,0.0,27.0,27.0,18.0,1.0,1.4,0.7,Time
,,S38,1,Male,29,anonymized,Serial_Dependence_U,2023.2.3,Win32,163.9344262,,,,,,,,,,,,340.7355,0.0,340.7356,,,,343.2443,343.741,342.7414,343.2441,341.7356,72.0,342.7412,343.741,344.2378,344.2378,345.6924,1255.4,345.6926,4.0,346.6922,0.0,28.0,28.0,1.0,1.0,1.0,0.3,Time
,,S38,1,Male,29,anonymized,Serial_Dependence_U,2023.2.3,Win32,163.9344262,,,,,,,,,,,,346.6928,0.0,346.693,,,,349.6016,350.0981,349.0985,349.6014,347.6926,263.0,349.0983,350.0981,350.5949,350.5949,352.0555,993.8,352.056,2.0,353.0552,0.0,29.0,29.0,8.0,1.0,1.4,0.7,Time
,,S38,1,Male,29,anonymized,Serial_Dependence_U,2023.2.3,Win32,163.9344262,,,,,,,,,,,,353.0557,1.0,358.1459,s,5.0779,,360.8551,361.3516,360.3522,360.8549,359.1461,83.0,360.352,361.3517,361.8484,361.8484,363.4347,1205.0,363.4349,3.0,364.436,1.0,0.0,30.0,7.0,1.0,1.2,0.7,Time
,,S38,1,Male,29,anonymized,Serial_Dependence_U,2023.2.3,Win32,163.9344262,,,,,,,,,,,,364.4365,1.0,364.4378,,,,367.1514,367.6479,366.6485,367.1513,365.4427,262.0,366.6482,367.6479,368.1449,368.145,370.4478,1363.7,370.4482,4.0,371.4477,1.0,1.0,31.0,27.0,1.0,1.2,0.7,Time
,,S38,1,Male,29,anonymized,Serial_Dependence_U,2023.2.3,Win32,163.9344262,,,,,,,,,,,,371.4482,1.0,371.4482,,,,374.1571,374.6535,373.6541,374.1569,372.4478,78.0,373.6539,374.6535,375.1503,375.1505,376.5505,952.0,376.5508,2.0,377.5503,1.0,2.0,32.0,2.0,1.0,1.2,0.3,Time
,,S38,1,Male,29,anonymized,Serial_Dependence_U,2023.2.3,Win32,163.9344262,,,,,,,,,,,,377.5507,1.0,377.5509,,,,380.0596,380.5559,379.5566,380.0594,378.5506,67.0,379.5564,380.5559,381.053,381.053,382.6832,1217.9,382.6835,4.0,383.683,1.0,3.0,33.0,16.0,1.0,1.0,0.7,Time
,,S38,1,Male,29,anonymized,Serial_Dependence_U,2023.2.3,Win32,163.9344262,,,,,,,,,,,,383.6834,1.0,383.6835,,,,386.1922,386.6888,385.6894,386.192,384.6834,317.0,385.6892,386.6888,387.1857,387.1857,388.6282,1053.9,388.6285,4.0,389.6279,1.0,4.0,34.0,11.0,1.0,1.0,0.3,Time
,,S38,1,Male,29,anonymized,Serial_Dependence_U,2023.2.3,Win32,163.9344262,,,,,,,,,,,,389.6285,1.0,389.6286,,,,392.3373,392.8337,391.8344,392.3371,390.6285,111.0,391.8342,392.8338,393.3306,393.3306,394.7369,1061.0,394.7372,2.0,395.7366,1.0,5.0,35.0,22.0,1.0,1.2,0.3,Time
,,S38,1,Male,29,anonymized,Serial_Dependence_U,2023.2.3,Win32,163.9344262,,,,,,,,,,,,395.737,1.0,395.7371,,,,398.046,398.5422,397.54,398.0458,396.7369,160.0,397.5399,398.5422,399.0392,399.0393,400.7402,1307.9,400.7404,5.0,401.742,1.0,6.0,36.0,20.0,1.0,0.8,0.3,Time
,,S38,1,Male,29,anonymized,Serial_Dependence_U,2023.2.3,Win32,163.9344262,,,,,,,,,,,,401.7424,1.0,401.7426,,,,404.6512,405.1478,404.1482,404.6511,402.7423,301.0,404.1481,405.1479,405.6446,405.6447,407.566,1139.3,407.5663,2.0,408.5657,1.0,7.0,37.0,8.0,1.0,1.4,0.7,Time
,,S38,1,Male,29,anonymized,Serial_Dependence_U,2023.2.3,Win32,163.9344262,,,,,,,,,,,,408.5663,1.0,408.5664,,,,411.075,411.5715,410.572,411.0749,409.566,7.0,410.5718,411.5716,412.0684,412.0684,412.5594,48.8,412.5598,1.0,413.5591,1.0,8.0,38.0,1.0,1.0,1.0,0.3,Time
,,S38,1,Male,29,anonymized,Serial_Dependence_U,2023.2.3,Win32,163.9344262,,,,,,,,,,,,413.5595,1.0,413.5596,,,,416.6684,417.1649,416.1653,416.6683,414.5595,12.0,416.1652,417.165,417.6618,417.6618,419.1013,744.0,419.1015,1.0,420.098,1.0,9.0,39.0,4.0,1.0,1.6,0.3,Time
,,S38,1,Male,29,anonymized,Serial_Dependence_U,2023.2.3,Win32,163.9344262,,,,,,,,,,,,420.0984,1.0,420.0985,,,,422.8073,423.3038,422.3044,422.807,421.0983,105.0,422.3041,423.3038,423.8007,423.8007,424.2956,72.9,424.2958,1.0,425.2914,1.0,10.0,40.0,12.0,1.0,1.2,0.3,Time
,,S38,1,Male,29,anonymized,Serial_Dependence_U,2023.2.3,Win32,163.9344262,,,,,,,,,,,,425.2919,1.0,425.2921,,,,427.8011,428.2972,427.2979,427.8009,426.2918,67.0,427.2976,428.2973,428.7942,428.7942,430.3376,1206.0,430.3378,4.0,431.3395,1.0,11.0,41.0,6.0,1.0,1.0,0.7,Time
,,S38,1,Male,29,anonymized,Serial_Dependence_U,2023.2.3,Win32,163.9344262,,,,,,,,,,,,431.34,1.0,431.3403,,,,434.2489,434.7452,433.7457,434.2487,432.3398,291.0,433.7455,434.7452,435.2421,435.2421,437.221,1313.5,437.2212,2.0,438.2176,1.0,12.0,42.0,18.0,1.0,1.4,0.7,Time
,,S38,1,Male,29,anonymized,Serial_Dependence_U,2023.2.3,Win32,163.9344262,,,,,,,,,,,,438.218,1.0,438.2182,,,,440.5269,441.0235,440.0239,440.5267,439.2181,236.0,440.0237,441.0235,441.5203,441.5203,442.3265,417.4,442.3268,1.0,443.3263,1.0,13.0,43.0,10.0,1.0,0.8,0.3,Time
,,S38,1,Male,29,anonymized,Serial_Dependence_U,2023.2.3,Win32,163.9344262,,,,,,,,,,,,443.3267,1.0,443.3268,,,,446.2355,446.7319,445.7327,446.2353,444.3269,25.0,445.7325,446.732,447.229,447.229,449.0775,1449.5,449.0777,3.0,450.0771,1.0,14.0,44.0,23.0,1.0,1.4,0.3,Time
,,S38,1,Male,29,anonymized,Serial_Dependence_U,2023.2.3,Win32,163.9344262,,,,,,,,,,,,450.0777,1.0,450.0779,,,,452.3865,452.883,451.8837,452.3863,451.0777,46.0,451.8834,452.883,453.3799,453.3799,454.4863,574.9,454.4864,2.0,455.4828,1.0,15.0,45.0,5.0,1.0,0.8,0.7,Time
,,S38,1,Male,29,anonymized,Serial_Dependence_U,2023.2.3,Win32,163.9344262,,,,,,,,,,,,455.4833,1.0,455.4835,,,,458.1922,458.6886,457.6867,458.192,456.4833,190.0,457.6866,458.6886,459.1855,459.1855,461.0278,1515.9,461.0282,4.0,462.0276,1.0,16.0,46.0,17.0,1.0,1.2,0.7,Time
,,S38,1,Male,29,anonymized,Serial_Dependence_U,2023.2.3,Win32,163.9344262,,,,,,,,,,,,462.028,1.0,462.0282,,,,464.3369,464.8334,463.8339,464.3368,463.0281,41.0,463.8337,464.8334,465.3304,465.3305,466.5943,773.7,466.5945,3.0,467.5907,1.0,17.0,47.0,15.0,1.0,0.8,0.7,Time
,,S38,1,Male,29,anonymized,Serial_Dependence_U,2023.2.3,Win32,163.9344262,,,,,,,,,,,,467.5912,1.0,467.5914,,,,470.1004,470.5966,469.5971,470.1002,468.591,180.0,469.5969,470.5966,471.0935,471.0936,472.4846,1072.2,472.4848,4.0,473.4813,1.0,18.0,48.0,26.0,1.0,1.0,0.7,Time
,,S38,1,Male,29,anonymized,Serial_Dependence_U,2023.2.3,Win32,163.9344262,,,,,,,,,,,,473.4819,1.0,473.4821,,,,476.3905,476.8869,475.8877,476.3902,474.4819,288.0,475.8873,476.887,477.3839,477.384,479.0687,1260.6,479.069,2.0,480.0686,1.0,19.0,49.0,13.0,1.0,1.4,0.3,Time
,,S38,1,Male,29,anonymized,Serial_Dependence_U,2023.2.3,Win32,163.9344262,,,,,,,,,,,,480.0691,1.0,480.0692,,,,483.1778,483.6742,482.6749,483.1775,481.069,75.0,482.6746,483.6742,484.1712,484.1712,485.9501,1411.0,485.9503,2.0,486.9467,1.0,20.0,50.0,9.0,1.0,1.6,0.7,Time
,,S38,1,Male,29,anonymized,Serial_Dependence_U,2023.2.3,Win32,163.9344262,,,,,,,,,,,,486.9472,1.0,486.9474,,,,489.4562,489.9525,488.9531,489.4561,487.9471,310.0,488.9528,489.9525,490.4495,490.4495,492.2191,1399.7,492.2194,5.0,493.2188,1.0,21.0,51.0,21.0,1.0,1.0,0.3,Time
,,S38,1,Male,29,anonymized,Serial_Dependence_U,2023.2.3,Win32,163.9344262,,,,,,,,,,,,493.2193,1.0,493.2195,,,,496.3281,496.8246,495.8251,496.3279,494.2193,188.0,495.825,496.8246,497.3216,497.3216,499.776,1374.8,499.7764,2.0,500.7758,1.0,22.0,52.0,14.0,1.0,1.6,0.3,Time
,,S38,1,Male,29,anonymized,Serial_Dependence_U,2023.2.3,Win32,163.9344262,,,,,,,,,,,,500.7764,1.0,500.7767,,,,503.8851,504.3815,503.3824,503.8849,501.7763,163.0,503.3821,504.3815,504.8785,504.8785,506.797,1573.3,506.7972,3.0,507.7934,1.0,23.0,53.0,29.0,1.0,1.6,0.7,Time
,,S38,1,Male,29,anonymized,Serial_Dependence_U,2023.2.3,Win32,163.9344262,,,,,,,,,,,,507.7938,1.0,507.794,,,,510.9086,511.4053,510.4026,510.9085,508.794,176.0,510.4025,511.4053,511.9022,511.9022,513.9991,1624.3,513.9994,3.0,514.9989,1.0,24.0,54.0,19.0,1.0,1.6,0.7,Time
,,S38,1,Male,29,anonymized,Serial_Dependence_U,2023.2.3,Win32,163.9344262,,,,,,,,,,,,514.9993,1.0,514.9994,,,,517.9081,518.4046,517.4051,517.9079,515.9992,100.0,517.405,518.4046,518.9015,518.9015,520.6349,1284.6,520.6351,2.0,521.6346,1.0,25.0,55.0,3.0,1.0,1.4,0.3,Time
,,S38,1,Male,29,anonymized,Serial_Dependence_U,2023.2.3,Win32,163.9344262,,,,,,,,,,,,521.6352,1.0,521.6354,,,,524.5439,525.0404,524.0409,524.5438,522.635,261.0,524.0408,525.0405,525.5375,525.5376,527.2646,1358.7,527.2649,3.0,528.2644,1.0,26.0,56.0,28.0,1.0,1.4,0.7,Time
,,S38,1,Male,29,anonymized,Serial_Dependence_U,2023.2.3,Win32,163.9344262,,,,,,,,,,,,528.2649,1.0,528.265,,,,531.3738,531.8702,530.8708,531.3736,529.2649,137.0,530.8706,531.8702,532.3671,532.3671,534.3489,1649.5,534.3493,3.0,535.3486,1.0,27.0,57.0,24.0,1.0,1.6,0.3,Time
,,S38,1,Male,29,anonymized,Serial_Dependence_U,2023.2.3,Win32,163.9344262,,,,,,,,,,,,535.3491,1.0,535.3493,,,,537.6579,538.1544,537.155,537.6577,536.3487,289.0,537.1548,538.1545,538.6513,538.6514,539.6531,510.6,539.6533,1.0,540.6515,1.0,28.0,58.0,25.0,1.0,0.8,0.7,Time
,,S38,1,Male,29,anonymized,Serial_Dependence_U,2023.2.3,Win32,163.9344262,,,,,,,,,,,,540.652,1.0,540.6521,,,,542.9604,543.4569,542.4575,542.9602,541.6515,341.0,542.4574,543.4569,543.9539,543.9539,544.9154,664.9,544.9156,2.0,545.9115,1.0,29.0,59.0,0.0,1.0,0.8,0.3,Time
,,S38,1,Male,29,anonymized,Serial_Dependence_U,2023.2.3,Win32,163.9344262,,,,,,,,,,,,545.9119,2.0,548.3509,s,2.4289,,550.6629,551.1592,550.1599,550.6627,549.354,144.0,550.1597,551.1593,551.6562,551.6562,553.2077,1089.0,553.2079,5.0,554.2075,2.0,0.0,60.0,15.0,1.0,0.8,0.7,Time
,,S38,1,Male,29,anonymized,Serial_Dependence_U,2023.2.3,Win32,163.9344262,,,,,,,,,,,,554.2082,2.0,554.2097,,,,556.523,557.0194,556.02,556.5228,555.2142,146.0,556.0198,557.0194,557.5163,557.5164,558.6229,721.1,558.6231,2.0,559.6191,2.0,1.0,61.0,0.0,1.0,0.8,0.3,Time
,,S38,1,Male,29,anonymized,Serial_Dependence_U,2023.2.3,Win32,163.9344262,,,,,,,,,,,,559.6195,2.0,559.6196,,,,562.3284,562.8249,561.8255,562.3282,560.6194,323.0,561.8253,562.825,563.3218,563.3219,564.9036,1091.1,564.9038,2.0,565.9034,2.0,2.0,62.0,27.0,1.0,1.2,0.7,Time
,,S38,1,Male,29,anonymized,Serial_Dependence_U,2023.2.3,Win32,163.9344262,,,,,,,,,,,,565.9039,2.0,565.9041,,,,568.6129,569.1092,568.1097,568.6127,566.9038,151.0,568.1095,569.1092,569.6062,569.6062,571.4635,1531.7,571.4637,4.0,572.4605,2.0,3.0,63.0,2.0,1.0,1.2,0.3,Time
,,S38,1,Male,29,anonymized,Serial_Dependence_U,2023.2.3,Win32,163.9344262,,,,,,,,,,,,572.4608,2.0,572.461,,,,574.7751,575.2723,574.2669,574.7749,573.4609,135.0,574.2667,575.2723,575.7693,575.7693,577.7605,1611.5,577.7607,5.0,578.7569,2.0,4.0,64.0,10.0,1.0,0.8,0.3,Time
,,S38,1,Male,29,anonymized,Serial_Dependence_U,2023.2.3,Win32,163.9344262,,,,,,,,,,,,578.7572,2.0,578.7575,,,,581.0661,581.5626,580.5631,581.066,579.7607,251.0,580.563,581.5627,582.0596,582.0596,583.1384,692.2,583.1387,2.0,584.1383,2.0,5.0,65.0,25.0,1.0,0.8,0.7,Time
,,S38,1,Male,29,anonymized,Serial_Dependence_U,2023.2.3,Win32,163.9344262,,,,,,,,,,,,584.1387,2.0,584.1389,,,,586.4476,586.9441,585.9448,586.4474,585.1386,198.0,585.9444,586.9441,587.4411,587.4411,588.2875,421.9,588.2876,1.0,589.2832,2.0,6.0,66.0,5.0,1.0,0.8,0.7,Time
,,S38,1,Male,29,anonymized,Serial_Dependence_U,2023.2.3,Win32,163.9344262,,,,,,,,,,,,589.2836,2.0,589.2838,,,,591.9925,592.489,591.4896,591.9923,590.2836,293.0,591.4894,592.4891,592.9859,592.9859,594.402,1028.3,594.4022,2.0,595.3978,2.0,7.0,67.0,17.0,1.0,1.2,0.7,Time
,,S38,1,Male,29,anonymized,Serial_Dependence_U,2023.2.3,Win32,163.9344262,,,,,,,,,,,,595.3984,2.0,595.3985,,,,597.9049,598.4036,597.4043,597.9048,596.3982,183.0,597.404,598.4037,598.9005,598.9006,600.3066,1145.7,600.3069,4.0,601.3064,2.0,8.0,68.0,16.0,1.0,1.0,0.7,Time
,,S38,1,Male,29,anonymized,Serial_Dependence_U,2023.2.3,Win32,163.9344262,,,,,,,,,,,,601.3068,2.0,601.307,,,,604.0159,604.5122,603.5129,604.0156,602.3102,181.0,603.5126,604.5122,605.0091,605.0092,606.288,1019.4,606.2883,2.0,607.2878,2.0,9.0,69.0,7.0,1.0,1.2,0.7,Time
,,S38,1,Male,29,anonymized,Serial_Dependence_U,2023.2.3,Win32,163.9344262,,,,,,,,,,,,607.2883,2.0,607.2885,,,,610.397,610.8936,609.8939,610.3968,608.2882,193.0,609.8938,610.8936,611.3904,611.3905,612.6572,975.8,612.6575,1.0,613.6569,2.0,10.0,70.0,29.0,1.0,1.6,0.7,Time
,,S38,1,Male,29,anonymized,Serial_Dependence_U,2023.2.3,Win32,163.9344262,,,,,,,,,,,,613.6575,2.0,613.6578,,,,616.1663,616.6628,615.6633,616.1661,614.6574,49.0,615.6631,616.6628,617.1596,617.1597,618.7657,1213.4,618.766,4.0,619.7654,2.0,11.0,71.0,11.0,1.0,1.0,0.3,Time
,,S38,1,Male,29,anonymized,Serial_Dependence_U,2023.2.3,Win32,163.9344262,,,,,,,,,,,,619.7659,2.0,619.7661,,,,622.0748,622.5713,621.5719,622.0746,620.766,147.0,621.5717,622.5713,623.0682,623.0682,624.8319,1417.8,624.8323,5.0,625.8317,2.0,12.0,72.0,20.0,1.0,0.8,0.3,Time
,,S38,1,Male,29,anonymized,Serial_Dependence_U,2023.2.3,Win32,163.9344262,,,,,,,,,,,,625.8321,2.0,625.8323,,,,628.3411,628.8375,627.838,628.3408,626.832,59.0,627.8378,628.8375,629.3344,629.3345,630.8435,1175.3,630.8437,4.0,631.8432,2.0,13.0,73.0,26.0,1.0,1.0,0.7,Time
,,S38,1,Male,29,anonymized,Serial_Dependence_U,2023.2.3,Win32,163.9344262,,,,,,,,,,,,631.8435,2.0,631.8437,,,,634.756,635.2549,634.2496,634.7557,632.8438,349.0,634.2493,635.2549,635.7519,635.7519,637.5642,1181.5,637.5645,2.0,638.5638,2.0,14.0,74.0,8.0,1.0,1.4,0.7,Time
,,S38,1,Male,29,anonymized,Serial_Dependence_U,2023.2.3,Win32,163.9344262,,,,,,,,,,,,638.5642,2.0,638.5645,,,,641.6732,642.1695,641.17,641.6729,639.5644,35.0,641.1698,642.1695,642.6665,642.6665,644.1617,1040.9,644.1619,1.0,645.1632,2.0,15.0,75.0,19.0,1.0,1.6,0.7,Time
,,S38,1,Male,29,anonymized,Serial_Dependence_U,2023.2.3,Win32,163.9344262,,,,,,,,,,,,645.1637,2.0,645.1639,,,,648.0725,648.5689,647.5695,648.0723,646.1635,196.0,647.5694,648.5689,649.066,649.0661,650.6659,1091.4,650.6662,2.0,651.666,2.0,16.0,76.0,3.0,1.0,1.4,0.3,Time
,,S38,1,Male,29,anonymized,Serial_Dependence_U,2023.2.3,Win32,163.9344262,,,,,,,,,,,,651.6665,2.0,651.6667,,,,654.5753,655.0715,654.0721,654.5752,652.6662,157.0,654.0719,655.0715,655.5683,655.5684,657.4568,1191.4,657.4571,2.0,658.453,2.0,17.0,77.0,13.0,1.0,1.4,0.3,Time
,,S38,1,Male,29,anonymized,Serial_Dependence_U,2023.2.3,Win32,163.9344262,,,,,,,,,,,,658.4534,2.0,658.4536,,,,661.5624,662.0588,661.0593,661.5621,659.4564,322.0,661.0592,662.0588,662.5557,662.5557,664.3315,1127.5,664.3319,2.0,665.3312,2.0,18.0,78.0,4.0,1.0,1.6,0.3,Time
,,S38,1,Male,29,anonymized,Serial_Dependence_U,2023.2.3,Win32,163.9344262,,,,,,,,,,,,665.3319,2.0,665.332,,,,667.8407,668.337,667.3375,667.8404,666.3315,108.0,667.3373,668.337,668.8339,668.8339,671.2742,1812.2,671.2744,5.0,672.2699,2.0,19.0,79.0,1.0,1.0,1.0,0.3,Time
,,S38,1,Male,29,anonymized,Serial_Dependence_U,2023.2.3,Win32,163.9344262,,,,,,,,,,,,672.2704,2.0,672.2705,,,,675.3793,675.8756,674.8763,675.3792,673.2702,25.0,674.876,675.8757,676.3726,676.3726,677.752,1058.2,677.7523,1.0,678.7483,2.0,20.0,80.0,14.0,1.0,1.6,0.3,Time
,,S38,1,Male,29,anonymized,Serial_Dependence_U,2023.2.3,Win32,163.9344262,,,,,,,,,,,,678.7489,2.0,678.7491,,,,681.6575,682.154,681.1545,681.6573,679.7486,52.0,681.1543,682.154,682.6509,682.6509,684.3519,1327.3,684.3521,2.0,685.3536,2.0,21.0,81.0,28.0,1.0,1.4,0.7,Time
,,S38,1,Male,29,anonymized,Serial_Dependence_U,2023.2.3,Win32,163.9344262,,,,,,,,,,,,685.3541,2.0,685.3543,,,,688.0657,688.5655,687.56,688.0655,686.3542,205.0,687.5598,688.5655,689.0625,689.0625,690.3171,885.4,690.3173,2.0,691.3169,2.0,22.0,82.0,22.0,1.0,1.2,0.3,Time
,,S38,1,Male,29,anonymized,Serial_Dependence_U,2023.2.3,Win32,163.9344262,,,,,,,,,,,,691.3173,2.0,691.3174,,,,693.8261,694.3226,693.3232,693.826,692.3173,46.0,693.323,694.3227,694.8194,694.8196,696.2289,1108.0,696.2292,4.0,697.2255,2.0,23.0,83.0,6.0,1.0,1.0,0.7,Time
,,S38,1,Male,29,anonymized,Serial_Dependence_U,2023.2.3,Win32,163.9344262,,,,,,,,,,,,697.226,2.0,697.2261,,,,700.1346,700.6312,699.6318,700.1344,698.2257,182.0,699.6316,700.6312,701.1282,701.1282,702.5099,1041.5,702.5103,2.0,703.5099,2.0,24.0,84.0,23.0,1.0,1.4,0.3,Time
,,S38,1,Male,29,anonymized,Serial_Dependence_U,2023.2.3,Win32,163.9344262,,,,,,,,,,,,703.5103,2.0,703.5104,,,,706.6189,707.1155,706.1161,706.6187,704.5101,263.0,706.1159,707.1156,707.6124,707.6124,709.2791,1437.2,709.2794,2.0,710.2789,2.0,25.0,85.0,24.0,1.0,1.6,0.3,Time
,,S38,1,Male,29,anonymized,Serial_Dependence_U,2023.2.3,Win32,163.9344262,,,,,,,,,,,,710.2794,2.0,710.2796,,,,712.9881,713.4846,712.4852,712.988,711.2793,295.0,712.485,713.4846,713.9816,713.9816,715.3213,849.7,715.3215,2.0,716.3207,2.0,26.0,86.0,12.0,1.0,1.2,0.3,Time
,,S38,1,Male,29,anonymized,Serial_Dependence_U,2023.2.3,Win32,163.9344262,,,,,,,,,,,,716.3212,2.0,716.3214,,,,718.8299,719.3266,718.3271,718.8298,717.3212,107.0,718.3269,719.3266,719.8236,719.8237,721.2418,1127.0,721.242,4.0,722.2414,2.0,27.0,87.0,21.0,1.0,1.0,0.3,Time
,,S38,1,Male,29,anonymized,Serial_Dependence_U,2023.2.3,Win32,163.9344262,,,,,,,,,,,,722.242,2.0,722.2421,,,,725.3507,725.8471,724.8478,725.3507,723.2418,154.0,724.8476,725.8471,726.3442,726.3442,727.9746,1225.3,727.9749,2.0,728.9742,2.0,28.0,88.0,9.0,1.0,1.6,0.7,Time
,,S38,1,Male,29,anonymized,Serial_Dependence_U,2023.2.3,Win32,163.9344262,,,,,,,,,,,,728.9747,2.0,728.9749,,,,731.8835,732.38,731.3804,731.8834,729.9747,318.0,731.3802,732.38,732.8769,732.877,734.5133,1321.1,734.5135,2.0,735.5131,2.0,29.0,89.0,18.0,1.0,1.4,0.7,Time
,,S38,1,Male,29,anonymized,Serial_Dependence_U,2023.2.3,Win32,163.9344262,,,,,,,,,,,,735.5136,3.0,738.6401,s,3.1143,,741.5493,742.0457,741.0464,741.5491,739.6402,211.0,741.0461,742.0457,742.5428,742.5428,745.7183,1108.8,745.7185,2.0,746.7181,3.0,0.0,90.0,23.0,1.0,1.4,0.3,Time
,,S38,1,Male,29,anonymized,Serial_Dependence_U,2023.2.3,Win32,163.9344262,,,,,,,,,,,,746.7186,3.0,746.7195,,,,749.2335,749.73,748.7304,749.2334,747.7246,269.0,748.7303,749.7301,750.2269,750.2269,751.4456,818.4,751.4459,2.0,752.4449,3.0,1.0,91.0,21.0,1.0,1.0,0.3,Time
,,S38,1,Male,29,anonymized,Serial_Dependence_U,2023.2.3,Win32,163.9344262,,,,,,,,,,,,752.4453,3.0,752.4454,,,,755.3542,755.8506,754.8512,755.3541,753.4453,245.0,754.8512,755.8507,756.3476,756.3476,758.4929,1163.7,758.4932,2.0,759.4927,3.0,2.0,92.0,13.0,1.0,1.4,0.3,Time
,,S38,1,Male,29,anonymized,Serial_Dependence_U,2023.2.3,Win32,163.9344262,,,,,,,,,,,,759.4932,3.0,759.4934,,,,761.8021,762.2985,761.2991,761.802,760.4933,336.0,761.2989,762.2985,762.7955,762.7956,763.8044,623.4,763.8046,2.0,764.8013,3.0,3.0,93.0,0.0,1.0,0.8,0.3,Time
,,S38,1,Male,29,anonymized,Serial_Dependence_U,2023.2.3,Win32,163.9344262,,,,,,,,,,,,764.802,3.0,764.8022,,,,767.5107,768.0071,767.0075,767.5104,765.8017,82.0,767.0074,768.0072,768.5041,768.5041,770.0708,1271.7,770.0711,4.0,771.0674,3.0,4.0,94.0,7.0,1.0,1.2,0.7,Time
,,S38,1,Male,29,anonymized,Serial_Dependence_U,2023.2.3,Win32,163.9344262,,,,,,,,,,,,771.0678,3.0,771.068,,,,774.1769,774.6731,773.6737,774.1766,772.0679,128.0,773.6735,774.6732,775.1701,775.1701,776.7216,1222.5,776.7219,2.0,777.7214,3.0,5.0,95.0,24.0,1.0,1.6,0.3,Time
,,S38,1,Male,29,anonymized,Serial_Dependence_U,2023.2.3,Win32,163.9344262,,,,,,,,,,,,777.7219,3.0,777.7221,,,,780.2308,780.7272,779.7279,780.2306,778.722,23.0,779.7277,780.7272,781.224,781.2241,782.7028,1025.6,782.7031,3.0,783.7027,3.0,6.0,96.0,26.0,1.0,1.0,0.7,Time
,,S38,1,Male,29,anonymized,Serial_Dependence_U,2023.2.3,Win32,163.9344262,,,,,,,,,,,,783.7031,3.0,783.7032,,,,786.412,786.9084,785.909,786.4119,784.706,101.0,785.9087,786.9084,787.4054,787.4054,788.9205,1177.4,788.9209,3.0,789.9203,3.0,7.0,97.0,12.0,1.0,1.2,0.3,Time
,,S38,1,Male,29,anonymized,Serial_Dependence_U,2023.2.3,Win32,163.9344262,,,,,,,,,,,,789.9208,3.0,789.921,,,,792.4236,792.9201,791.9218,792.4234,790.9207,185.0,791.9216,792.9201,793.417,793.417,794.7902,962.8,794.7904,3.0,795.7865,3.0,8.0,98.0,11.0,1.0,1.0,0.3,Time
,,S38,1,Male,29,anonymized,Serial_Dependence_U,2023.2.3,Win32,163.9344262,,,,,,,,,,,,795.7869,3.0,795.7871,,,,798.8964,799.3923,798.3929,798.8962,796.787,263.0,798.3926,799.3923,799.8891,799.8892,801.3075,1127.2,801.3077,2.0,802.3071,3.0,9.0,99.0,29.0,1.0,1.6,0.7,Time
,,S38,1,Male,29,anonymized,Serial_Dependence_U,2023.2.3,Win32,163.9344262,,,,,,,,,,,,802.3076,3.0,802.3078,,,,804.8207,805.319,804.3136,804.8205,803.3078,286.0,804.3134,805.319,805.8159,805.816,807.0705,926.5,807.0709,2.0,808.0703,3.0,10.0,100.0,16.0,1.0,1.0,0.7,Time
,,S38,1,Male,29,anonymized,Serial_Dependence_U,2023.2.3,Win32,163.9344262,,,,,,,,,,,,808.0709,3.0,808.0711,,,,810.5797,811.0761,810.0766,810.5795,809.0705,122.0,810.0765,811.0761,811.573,811.5731,813.4154,891.6,813.4157,2.0,814.4152,3.0,11.0,101.0,6.0,1.0,1.0,0.7,Time
,,S38,1,Male,29,anonymized,Serial_Dependence_U,2023.2.3,Win32,163.9344262,,,,,,,,,,,,814.4158,3.0,814.4159,,,,817.3244,817.8209,816.8215,817.3243,815.4156,100.0,816.8213,817.821,818.3178,818.3179,819.6573,1048.8,819.6576,2.0,820.6571,3.0,12.0,102.0,18.0,1.0,1.4,0.7,Time
,,S38,1,Male,29,anonymized,Serial_Dependence_U,2023.2.3,Win32,163.9344262,,,,,,,,,,,,820.6574,3.0,820.6577,,,,823.7636,824.2627,823.2606,823.7635,821.6575,83.0,823.2604,824.2628,824.7597,824.7598,826.1881,1150.1,826.1883,2.0,827.1898,3.0,13.0,103.0,14.0,1.0,1.6,0.3,Time
,,S38,1,Male,29,anonymized,Serial_Dependence_U,2023.2.3,Win32,163.9344262,,,,,,,,,,,,827.1903,3.0,827.1904,,,,829.4993,829.9956,828.9963,829.4991,828.1902,26.0,828.9961,829.9956,830.4926,830.4926,832.2835,1071.2,832.2838,5.0,833.2802,3.0,14.0,104.0,5.0,1.0,0.8,0.7,Time
,,S38,1,Male,29,anonymized,Serial_Dependence_U,2023.2.3,Win32,163.9344262,,,,,,,,,,,,833.2806,3.0,833.2808,,,,835.9896,836.4859,835.4866,835.9894,834.2805,330.0,835.4864,836.486,836.9829,836.9829,838.4435,1072.6,838.4438,2.0,839.4433,3.0,15.0,105.0,22.0,1.0,1.2,0.3,Time
,,S38,1,Male,29,anonymized,Serial_Dependence_U,2023.2.3,Win32,163.9344262,,,,,,,,,,,,839.4439,3.0,839.444,,,,842.3526,842.849,841.8474,842.3524,840.4437,99.0,841.8473,842.8491,843.346,843.346,844.8537,1254.5,844.8539,2.0,845.8549,3.0,16.0,106.0,28.0,1.0,1.4,0.7,Time
,,S38,1,Male,29,anonymized,Serial_Dependence_U,2023.2.3,Win32,163.9344262,,,,,,,,,,,,845.8554,3.0,845.8556,,,,848.9669,849.4668,848.461,848.9668,846.8553,85.0,848.4609,849.4668,849.9636,849.9636,852.4582,1210.0,852.4584,2.0,853.4542,3.0,17.0,107.0,9.0,1.0,1.6,0.7,Time
,,S38,1,Male,29,anonymized,Serial_Dependence_U,2023.2.3,Win32,163.9344262,,,,,,,,,,,,853.4548,3.0,853.4551,,,,855.7697,856.2661,855.2638,855.7695,854.4546,279.0,855.2637,856.2661,856.763,856.763,857.9904,793.1,857.9906,3.0,858.987,3.0,18.0,108.0,20.0,1.0,0.8,0.3,Time
,,S38,1,Male,29,anonymized,Serial_Dependence_U,2023.2.3,Win32,163.9344262,,,,,,,,,,,,858.9874,3.0,858.9876,,,,861.4963,861.9929,860.9936,861.4962,859.9875,65.0,860.9934,861.9929,862.4898,862.4898,863.645,853.8,863.6453,2.0,864.6412,3.0,19.0,109.0,1.0,1.0,1.0,0.3,Time
,,S38,1,Male,29,anonymized,Serial_Dependence_U,2023.2.3,Win32,163.9344262,,,,,,,,,,,,864.6417,3.0,864.6419,,,,867.3505,867.8469,866.8476,867.3503,865.6414,304.0,866.8473,867.8469,868.3438,868.3438,869.5924,957.8,869.5928,2.0,870.5922,3.0,20.0,110.0,17.0,1.0,1.2,0.7,Time
,,S38,1,Male,29,anonymized,Serial_Dependence_U,2023.2.3,Win32,163.9344262,,,,,,,,,,,,870.5928,3.0,870.5929,,,,873.5014,873.9979,872.9985,873.5012,871.5926,342.0,872.9983,873.9979,874.4948,874.4948,875.9653,1139.3,875.9655,2.0,876.9612,3.0,21.0,111.0,8.0,1.0,1.4,0.7,Time
,,S38,1,Male,29,anonymized,Serial_Dependence_U,2023.2.3,Win32,163.9344262,,,,,,,,,,,,876.9617,3.0,876.962,,,,879.8705,880.3671,879.3675,879.8704,877.9616,159.0,879.3673,880.3671,880.864,880.864,881.2552,35.6,881.2553,1.0,882.2517,3.0,22.0,112.0,3.0,1.0,1.4,0.3,Time
,,S38,1,Male,29,anonymized,Serial_Dependence_U,2023.2.3,Win32,163.9344262,,,,,,,,,,,,882.2523,3.0,882.2525,,,,885.3612,885.8575,884.8583,885.3609,883.2521,240.0,884.858,885.8575,886.3544,886.3544,888.1242,1352.2,888.1244,2.0,889.1238,3.0,23.0,113.0,19.0,1.0,1.6,0.7,Time
,,S38,1,Male,29,anonymized,Serial_Dependence_U,2023.2.3,Win32,163.9344262,,,,,,,,,,,,889.1243,3.0,889.1245,,,,891.4333,891.9296,890.9302,891.433,890.1274,309.0,890.93,891.9297,892.4265,892.4266,892.903,161.7,892.9032,1.0,893.8992,3.0,24.0,114.0,25.0,1.0,0.8,0.7,Time
,,S38,1,Male,29,anonymized,Serial_Dependence_U,2023.2.3,Win32,163.9344262,,,,,,,,,,,,893.8997,3.0,893.8998,,,,896.6086,897.105,896.1056,896.6083,894.8997,207.0,896.1055,897.105,897.602,897.602,899.3844,1450.3,899.3847,4.0,900.3836,3.0,25.0,115.0,27.0,1.0,1.2,0.7,Time
,,S38,1,Male,29,anonymized,Serial_Dependence_U,2023.2.3,Win32,163.9344262,,,,,,,,,,,,900.3842,3.0,900.3843,,,,903.0929,903.5893,902.5899,903.0928,901.3839,205.0,902.5896,903.5893,904.0863,904.0863,905.6562,1068.2,905.6564,2.0,906.6557,3.0,26.0,116.0,2.0,1.0,1.2,0.3,Time
,,S38,1,Male,29,anonymized,Serial_Dependence_U,2023.2.3,Win32,163.9344262,,,,,,,,,,,,906.6562,3.0,906.6564,,,,908.9651,909.4616,908.4621,908.965,907.6561,336.0,908.462,909.4616,909.9584,909.9584,911.0435,783.3,911.0438,3.0,912.0431,3.0,27.0,117.0,10.0,1.0,0.8,0.3,Time
,,S38,1,Male,29,anonymized,Serial_Dependence_U,2023.2.3,Win32,163.9344262,,,,,,,,,,,,912.0436,3.0,912.0438,,,,915.1524,915.6489,914.6494,915.1522,913.0435,55.0,914.6493,915.649,916.1458,916.1459,917.8852,1343.0,917.8856,2.0,918.8851,3.0,28.0,118.0,4.0,1.0,1.6,0.3,Time
,,S38,1,Male,29,anonymized,Serial_Dependence_U,2023.2.3,Win32,163.9344262,,,,,,,,,,,,918.8856,3.0,918.8858,,,,921.1942,921.6908,920.6914,921.1941,919.8854,151.0,920.6912,921.6908,922.1877,922.1877,924.1695,1471.8,924.1697,5.0,925.1693,3.0,29.0,119.0,15.0,1.0,0.8,0.7,Time
,,S38,1,Male,29,anonymized,Serial_Dependence_U,2023.2.3,Win32,163.9344262,,,,,,,,,,,,925.1698,4.0,929.2904,s,4.1092,,931.9992,932.4958,931.4963,931.999,930.2905,113.0,931.4963,932.4958,932.9927,932.9927,934.4049,1114.2,934.4051,2.0,935.4046,4.0,0.0,120.0,7.0,1.0,1.2,0.7,Time
,,S38,1,Male,29,anonymized,Serial_Dependence_U,2023.2.3,Win32,163.9344262,,,,,,,,,,,,935.4053,4.0,935.407,,,,938.1202,938.6165,937.6169,938.1199,936.4127,249.0,937.6168,938.6166,939.1134,939.1134,940.271,1145.0,940.2714,3.0,941.271,4.0,1.0,121.0,2.0,1.0,1.2,0.3,Time
,,S38,1,Male,29,anonymized,Serial_Dependence_U,2023.2.3,Win32,163.9344262,,,,,,,,,,,,941.2714,4.0,941.2716,,,,943.78,944.2767,943.2772,943.7799,942.2712,270.0,943.277,944.2767,944.7735,944.7736,946.0077,866.2,946.0078,2.0,947.0036,4.0,2.0,122.0,26.0,1.0,1.0,0.7,Time
,,S38,1,Male,29,anonymized,Serial_Dependence_U,2023.2.3,Win32,163.9344262,,,,,,,,,,,,947.004,4.0,947.0043,,,,949.5131,950.0094,949.0103,949.5129,948.0041,272.0,949.0103,950.0095,950.5064,950.5064,951.9225,774.9,951.9227,2.0,952.9183,4.0,3.0,123.0,6.0,1.0,1.0,0.7,Time
,,S38,1,Male,29,anonymized,Serial_Dependence_U,2023.2.3,Win32,163.9344262,,,,,,,,,,,,952.9188,4.0,952.919,,,,955.6276,956.124,955.1249,955.6275,953.9188,278.0,955.1246,956.1241,956.621,956.621,957.8755,897.5,957.8758,2.0,958.8753,4.0,4.0,124.0,12.0,1.0,1.2,0.3,Time
,,S38,1,Male,29,anonymized,Serial_Dependence_U,2023.2.3,Win32,163.9344262,,,,,,,,,,,,958.8758,4.0,958.876,,,,961.9847,962.4811,961.4816,961.9845,959.8764,354.0,961.4814,962.4811,962.978,962.9781,964.3721,1051.8,964.3724,1.0,965.372,4.0,5.0,125.0,19.0,1.0,1.6,0.7,Time
,,S38,1,Male,29,anonymized,Serial_Dependence_U,2023.2.3,Win32,163.9344262,,,,,,,,,,,,965.3723,4.0,965.3725,,,,967.8812,968.3776,967.378,967.881,966.3721,36.0,967.3779,968.3776,968.8744,968.8744,970.7533,1066.7,970.7536,4.0,971.753,4.0,6.0,126.0,16.0,1.0,1.0,0.7,Time
,,S38,1,Male,29,anonymized,Serial_Dependence_U,2023.2.3,Win32,163.9344262,,,,,,,,,,,,971.7536,4.0,971.7538,,,,974.6624,975.1587,974.1592,974.6622,972.7535,148.0,974.1591,975.1588,975.6558,975.6558,977.4523,1531.9,977.4524,4.0,978.4494,4.0,7.0,127.0,18.0,1.0,1.4,0.7,Time
,,S38,1,Male,29,anonymized,Serial_Dependence_U,2023.2.3,Win32,163.9344262,,,,,,,,,,,,978.4499,4.0,978.4502,,,,980.7527,981.2492,980.2498,980.7524,979.4473,275.0,980.2496,981.2492,981.7461,981.7461,983.4775,1465.4,983.4778,5.0,984.4791,4.0,8.0,128.0,20.0,1.0,0.8,0.3,Time
,,S38,1,Male,29,anonymized,Serial_Dependence_U,2023.2.3,Win32,163.9344262,,,,,,,,,,,,984.4795,4.0,984.4799,,,,987.3885,987.8849,986.8856,987.3884,985.4796,94.0,986.8854,987.8849,988.3818,988.3818,991.0363,1339.6,991.0367,3.0,992.036,4.0,9.0,129.0,23.0,1.0,1.4,0.3,Time
,,S38,1,Male,29,anonymized,Serial_Dependence_U,2023.2.3,Win32,163.9344262,,,,,,,,,,,,992.0364,4.0,992.0366,,,,995.1453,995.6418,994.6424,995.1452,993.0364,27.0,994.6422,995.6418,996.1387,996.1387,998.1429,1350.4,998.1431,2.0,999.1445,4.0,10.0,130.0,29.0,1.0,1.6,0.7,Time
,,S38,1,Male,29,anonymized,Serial_Dependence_U,2023.2.3,Win32,163.9344262,,,,,,,,,,,,999.1449,4.0,999.1451,,,,1001.6539,1002.1503,1001.1509,1001.6537,1000.145,335.0,1001.1506,1002.1503,1002.6474,1002.6474,1004.2655,1260.7,1004.2658,4.0,1005.2653,4.0,11.0,131.0,21.0,1.0,1.0,0.3,Time
,,S38,1,Male,29,anonymized,Serial_Dependence_U,2023.2.3,Win32,163.9344262,,,,,,,,,,,,1005.2658,4.0,1005.2659,,,,1008.1747,1008.6709,1007.6713,1008.1744,1006.2657,262.0,1007.6712,1008.671,1009.1679,1009.1679,1009.259,11.7,1009.2593,1.0,1010.2588,4.0,12.0,132.0,28.0,1.0,1.4,0.7,Time
,,S38,1,Male,29,anonymized,Serial_Dependence_U,2023.2.3,Win32,163.9344262,,,,,,,,,,,,1010.2592,4.0,1010.2594,,,,1013.368,1013.8644,1012.8649,1013.3679,1011.2591,275.0,1012.8648,1013.8644,1014.3614,1014.3614,1015.9493,1300.5,1015.9496,2.0,1016.9492,4.0,13.0,133.0,9.0,1.0,1.6,0.7,Time
,,S38,1,Male,29,anonymized,Serial_Dependence_U,2023.2.3,Win32,163.9344262,,,,,,,,,,,,1016.9497,4.0,1016.9498,,,,1019.8582,1020.3548,1019.3531,1019.8581,1017.9495,38.0,1019.353,1020.3549,1020.8517,1020.8517,1022.3124,1196.1,1022.3127,2.0,1023.3121,4.0,14.0,134.0,13.0,1.0,1.4,0.3,Time
,,S38,1,Male,29,anonymized,Serial_Dependence_U,2023.2.3,Win32,163.9344262,,,,,,,,,,,,1023.3128,4.0,1023.313,,,,1026.2249,1026.7239,1025.7186,1026.2246,1024.3126,35.0,1025.7185,1026.7239,1027.2209,1027.2209,1028.7402,1266.4,1028.7404,2.0,1029.7419,4.0,15.0,135.0,8.0,1.0,1.4,0.7,Time
,,S38,1,Male,29,anonymized,Serial_Dependence_U,2023.2.3,Win32,163.9344262,,,,,,,,,,,,1029.7424,4.0,1029.7425,,,,1032.2552,1032.7538,1031.7483,1032.255,1030.7422,75.0,1031.748,1032.7539,1033.2507,1033.2507,1034.5576,1023.2,1034.5579,3.0,1035.5534,4.0,16.0,136.0,1.0,1.0,1.0,0.3,Time
,,S38,1,Male,29,anonymized,Serial_Dependence_U,2023.2.3,Win32,163.9344262,,,,,,,,,,,,1035.5539,4.0,1035.5542,,,,1037.8628,1038.3594,1037.3598,1037.8627,1036.5539,325.0,1037.3596,1038.3594,1038.8563,1038.8564,1039.8685,724.7,1039.8688,2.0,1040.8682,4.0,17.0,137.0,15.0,1.0,0.8,0.7,Time
,,S38,1,Male,29,anonymized,Serial_Dependence_U,2023.2.3,Win32,163.9344262,,,,,,,,,,,,1040.8685,4.0,1040.8687,,,,1043.5781,1044.0741,1043.0747,1043.5779,1041.8686,10.0,1043.0745,1044.0741,1044.5709,1044.5711,1046.3165,1502.7,1046.3168,4.0,1047.3161,4.0,18.0,138.0,17.0,1.0,1.2,0.7,Time
,,S38,1,Male,29,anonymized,Serial_Dependence_U,2023.2.3,Win32,163.9344262,,,,,,,,,,,,1047.3166,4.0,1047.3168,,,,1049.8268,1050.328,1049.3225,1049.8266,1048.3166,264.0,1049.3223,1050.3281,1050.8249,1050.8249,1051.9462,834.6,1051.9465,2.0,1052.9461,4.0,19.0,139.0,11.0,1.0,1.0,0.3,Time
,,S38,1,Male,29,anonymized,Serial_Dependence_U,2023.2.3,Win32,163.9344262,,,,,,,,,,,,1052.9466,4.0,1052.9467,,,,1055.8552,1056.3517,1055.3523,1055.855,1053.9465,143.0,1055.3521,1056.3517,1056.8486,1056.8486,1058.4062,1092.4,1058.4065,2.0,1059.406,4.0,20.0,140.0,3.0,1.0,1.4,0.3,Time
,,S38,1,Male,29,anonymized,Serial_Dependence_U,2023.2.3,Win32,163.9344262,,,,,,,,,,,,1059.4066,4.0,1059.4067,,,,1061.7185,1062.2178,1061.2123,1061.7183,1060.4065,72.0,1061.2121,1062.2179,1062.7147,1062.7148,1064.3547,1076.6,1064.355,5.0,1065.3509,4.0,21.0,141.0,10.0,1.0,0.8,0.3,Time
,,S38,1,Male,29,anonymized,Serial_Dependence_U,2023.2.3,Win32,163.9344262,,,,,,,,,,,,1065.3514,4.0,1065.3515,,,,1067.6603,1068.1567,1067.1572,1067.6602,1066.3512,106.0,1067.1571,1068.1568,1068.6536,1068.6537,1069.8396,823.9,1069.8398,3.0,1070.8415,4.0,22.0,142.0,0.0,1.0,0.8,0.3,Time
,,S38,1,Male,29,anonymized,Serial_Dependence_U,2023.2.3,Win32,163.9344262,,,,,,,,,,,,1070.8421,4.0,1070.8422,,,,1073.5508,1074.0471,1073.0478,1073.5506,1071.8417,282.0,1073.0475,1074.0471,1074.5441,1074.5442,1076.1264,929.4,1076.1266,2.0,1077.1257,4.0,23.0,143.0,22.0,1.0,1.2,0.3,Time
,,S38,1,Male,29,anonymized,Serial_Dependence_U,2023.2.3,Win32,163.9344262,,,,,,,,,,,,1077.1262,4.0,1077.1263,,,,1079.435,1079.9314,1078.9297,1079.4349,1078.1262,176.0,1078.9296,1079.9315,1080.4284,1080.4284,1082.1351,999.5,1082.1354,4.0,1083.1313,4.0,24.0,144.0,25.0,1.0,0.8,0.7,Time
,,S38,1,Male,29,anonymized,Serial_Dependence_U,2023.2.3,Win32,163.9344262,,,,,,,,,,,,1083.132,4.0,1083.1321,,,,1086.2344,1086.7308,1085.7329,1086.2342,1084.1317,47.0,1085.7327,1086.7309,1087.2278,1087.2278,1088.6642,1103.4,1088.6644,1.0,1089.6641,4.0,25.0,145.0,4.0,1.0,1.6,0.3,Time
,,S38,1,Male,29,anonymized,Serial_Dependence_U,2023.2.3,Win32,163.9344262,,,,,,,,,,,,1089.6645,4.0,1089.6647,,,,1091.9711,1092.467,1091.4681,1091.9709,1090.6644,209.0,1091.468,1092.4671,1092.9639,1092.9639,1094.5343,1235.4,1094.5346,5.0,1095.5301,4.0,26.0,146.0,5.0,1.0,0.8,0.7,Time
,,S38,1,Male,29,anonymized,Serial_Dependence_U,2023.2.3,Win32,163.9344262,,,,,,,,,,,,1095.5306,4.0,1095.5309,,,,1098.2393,1098.7358,1097.7365,1098.2392,1096.5338,205.0,1097.7363,1098.7359,1099.233,1099.233,1100.7903,896.3,1100.7906,2.0,1101.7902,4.0,27.0,147.0,27.0,1.0,1.2,0.7,Time
,,S38,1,Male,29,anonymized,Serial_Dependence_U,2023.2.3,Win32,163.9344262,,,,,,,,,,,,1101.7907,4.0,1101.791,,,,1104.8999,1105.396,1104.3966,1104.8996,1102.7906,104.0,1104.3964,1105.396,1105.893,1105.893,1107.2808,817.7,1107.2812,1.0,1108.2806,4.0,28.0,148.0,14.0,1.0,1.6,0.3,Time
,,S38,1,Male,29,anonymized,Serial_Dependence_U,2023.2.3,Win32,163.9344262,,,,,,,,,,,,1108.2811,4.0,1108.2812,,,,1111.3899,1111.8864,1110.887,1111.3897,1109.2811,345.0,1110.8868,1111.8864,1112.3832,1112.3832,1113.9958,1274.3,1113.996,2.0,1114.9952,4.0,29.0,149.0,24.0,1.0,1.6,0.3,Time
,,S38,1,Male,29,anonymized,Serial_Dependence_U,2023.2.3,Win32,163.9344262,,,,,,,,,,,,1114.9956,5.0,1117.1103,s,2.103,,1120.2193,1120.7158,1119.7163,1120.2191,1118.1104,316.0,1119.7162,1120.7158,1121.2127,1121.2127,1122.8282,1264.4,1122.8284,2.0,1123.8248,5.0,0.0,150.0,14.0,1.0,1.6,0.3,Time
,,S38,1,Male,29,anonymized,Serial_Dependence_U,2023.2.3,Win32,163.9344262,,,,,,,,,,,,1123.8252,5.0,1123.8262,,,,1126.5401,1127.0365,1126.0369,1126.5399,1124.8343,309.0,1126.0368,1127.0365,1127.5333,1127.5334,1133.3815,1118.8,1133.3819,2.0,1134.3814,5.0,1.0,151.0,12.0,1.0,1.2,0.3,Time
,,S38,1,Male,29,anonymized,Serial_Dependence_U,2023.2.3,Win32,163.9344262,,,,,,,,,,,,1134.3819,5.0,1134.382,,,,1137.2904,1137.787,1136.7877,1137.2903,1135.3817,78.0,1136.7874,1137.787,1138.284,1138.284,1140.16,1373.5,1140.1602,3.0,1141.1564,5.0,2.0,152.0,8.0,1.0,1.4,0.7,Time
,,S38,1,Male,29,anonymized,Serial_Dependence_U,2023.2.3,Win32,163.9344262,,,,,,,,,,,,1141.1569,5.0,1141.1571,,,,1143.6718,1144.1683,1143.1664,1143.6716,1142.1569,74.0,1143.1663,1144.1683,1144.6652,1144.6653,1146.944,1231.3,1146.9444,4.0,1147.9438,5.0,3.0,153.0,6.0,1.0,1.0,0.7,Time
,,S38,1,Male,29,anonymized,Serial_Dependence_U,2023.2.3,Win32,163.9344262,,,,,,,,,,,,1147.9442,5.0,1147.9444,,,,1151.0532,1151.5495,1150.5502,1151.053,1148.9442,332.0,1150.55,1151.5496,1152.0465,1152.0465,1154.0687,1641.9,1154.0689,3.0,1155.0705,5.0,4.0,154.0,19.0,1.0,1.6,0.7,Time
,,S38,1,Male,29,anonymized,Serial_Dependence_U,2023.2.3,Win32,163.9344262,,,,,,,,,,,,1155.0708,5.0,1155.0709,,,,1157.7798,1158.2762,1157.2768,1157.7796,1156.0708,321.0,1157.2766,1158.2762,1158.7732,1158.7732,1160.658,1483.3,1160.6583,4.0,1161.6578,5.0,5.0,155.0,22.0,1.0,1.2,0.3,Time
,,S38,1,Male,29,anonymized,Serial_Dependence_U,2023.2.3,Win32,163.9344262,,,,,,,,,,,,1161.6583,5.0,1161.6586,,,,1164.1673,1164.6636,1163.6641,1164.1672,1162.6582,94.0,1163.6639,1164.6636,1165.1605,1165.1606,1166.7364,1217.6,1166.7366,4.0,1167.736,5.0,6.0,156.0,1.0,1.0,1.0,0.3,Time
,,S38,1,Male,29,anonymized,Serial_Dependence_U,2023.2.3,Win32,163.9344262,,,,,,,,,,,,1167.7366,5.0,1167.7367,,,,1170.8453,1171.3418,1170.3424,1170.8451,1168.7365,95.0,1170.3422,1171.3418,1171.8388,1171.8388,1173.6145,1393.7,1173.6149,2.0,1174.6142,5.0,7.0,157.0,4.0,1.0,1.6,0.3,Time
,,S38,1,Male,29,anonymized,Serial_Dependence_U,2023.2.3,Win32,163.9344262,,,,,,,,,,,,1174.6147,5.0,1174.6148,,,,1177.1235,1177.62,1176.6203,1177.1233,1175.6146,43.0,1176.6202,1177.62,1178.1169,1178.1169,1179.8721,1320.9,1179.8724,5.0,1180.8683,5.0,8.0,158.0,26.0,1.0,1.0,0.7,Time
,,S38,1,Male,29,anonymized,Serial_Dependence_U,2023.2.3,Win32,163.9344262,,,,,,,,,,,,1180.8687,5.0,1180.8689,,,,1183.5775,1184.0739,1183.0744,1183.5773,1181.8685,275.0,1183.0742,1184.0739,1184.5709,1184.5709,1186.1224,1148.8,1186.1227,3.0,1187.1221,5.0,9.0,159.0,2.0,1.0,1.2,0.3,Time
,,S38,1,Male,29,anonymized,Serial_Dependence_U,2023.2.3,Win32,163.9344262,,,,,,,,,,,,1187.1226,5.0,1187.1229,,,,1190.0317,1190.5279,1189.5284,1190.0314,1188.1225,200.0,1189.5283,1190.5279,1191.0249,1191.0249,1193.3701,1249.0,1193.3704,2.0,1194.3701,5.0,10.0,160.0,13.0,1.0,1.4,0.3,Time
,,S38,1,Male,29,anonymized,Serial_Dependence_U,2023.2.3,Win32,163.9344262,,,,,,,,,,,,1194.3703,5.0,1194.3705,,,,1196.6795,1197.1757,1196.1764,1196.6793,1195.3703,344.0,1196.1763,1197.1758,1197.6727,1197.6727,1199.3333,913.5,1199.3336,4.0,1200.3303,5.0,11.0,161.0,25.0,1.0,0.8,0.7,Time
,,S38,1,Male,29,anonymized,Serial_Dependence_U,2023.2.3,Win32,163.9344262,,,,,,,,,,,,1200.3307,5.0,1200.3309,,,,1203.0424,1203.5389,1202.5395,1203.0423,1201.3335,296.0,1202.5393,1203.5389,1204.0359,1204.0361,1205.4579,1102.2,1205.4581,2.0,1206.4539,5.0,12.0,162.0,7.0,1.0,1.2,0.7,Time
,,S38,1,Male,29,anonymized,Serial_Dependence_U,2023.2.3,Win32,163.9344262,,,,,,,,,,,,1206.4543,5.0,1206.4545,,,,1208.7633,1209.2597,1208.2602,1208.7631,1207.4543,138.0,1208.26,1209.2597,1209.7566,1209.7567,1211.0537,922.6,1211.0539,4.0,1212.0533,5.0,13.0,163.0,5.0,1.0,0.8,0.7,Time
,,S38,1,Male,29,anonymized,Serial_Dependence_U,2023.2.3,Win32,163.9344262,,,,,,,,,,,,1212.0537,5.0,1212.0539,,,,1215.1628,1215.6591,1214.6566,1215.1626,1213.0542,230.0,1214.6564,1215.6591,1216.156,1216.156,1217.8927,1181.0,1217.893,2.0,1218.8893,5.0,14.0,164.0,9.0,1.0,1.6,0.7,Time
,,S38,1,Male,29,anonymized,Serial_Dependence_U,2023.2.3,Win32,163.9344262,,,,,,,,,,,,1218.8899,5.0,1218.8901,,,,1221.7985,1222.2948,1221.2954,1221.7983,1219.8895,43.0,1221.2952,1222.2948,1222.7918,1222.7918,1224.3891,1271.9,1224.3893,2.0,1225.3855,5.0,15.0,165.0,3.0,1.0,1.4,0.3,Time
,,S38,1,Male,29,anonymized,Serial_Dependence_U,2023.2.3,Win32,163.9344262,,,,,,,,,,,,1225.386,5.0,1225.3861,,,,1227.6949,1228.1913,1227.189,1227.6948,1226.3861,231.0,1227.1888,1228.1913,1228.6882,1228.6883,1230.0066,864.0,1230.0068,4.0,1231.0034,5.0,16.0,166.0,20.0,1.0,0.8,0.3,Time
,,S38,1,Male,29,anonymized,Serial_Dependence_U,2023.2.3,Win32,163.9344262,,,,,,,,,,,,1231.0039,5.0,1231.004,,,,1233.3128,1233.809,1232.8095,1233.3125,1232.0036,115.0,1232.8093,1233.809,1234.306,1234.306,1235.8296,1184.9,1235.8298,5.0,1236.8271,5.0,17.0,167.0,15.0,1.0,0.8,0.7,Time
,,S38,1,Male,29,anonymized,Serial_Dependence_U,2023.2.3,Win32,163.9344262,,,,,,,,,,,,1236.8276,5.0,1236.8278,,,,1239.7361,1240.2327,1239.2332,1239.7359,1237.8307,125.0,1239.233,1240.2327,1240.7296,1240.7297,1242.7114,1506.2,1242.7116,4.0,1243.7113,5.0,18.0,168.0,23.0,1.0,1.4,0.3,Time
,,S38,1,Male,29,anonymized,Serial_Dependence_U,2023.2.3,Win32,163.9344262,,,,,,,,,,,,1243.7117,5.0,1243.7119,,,,1246.6205,1247.1171,1246.1177,1246.6204,1244.7118,84.0,1246.1175,1247.1171,1247.6139,1247.614,1249.5534,1605.5,1249.5537,4.0,1250.5531,5.0,19.0,169.0,28.0,1.0,1.4,0.7,Time
,,S38,1,Male,29,anonymized,Serial_Dependence_U,2023.2.3,Win32,163.9344262,,,,,,,,,,,,1250.5537,5.0,1250.5539,,,,1253.2626,1253.7589,1252.7595,1253.2624,1251.5534,346.0,1252.7592,1253.7589,1254.2558,1254.2559,1255.9771,1399.5,1255.9773,4.0,1256.9767,5.0,20.0,170.0,17.0,1.0,1.2,0.7,Time
,,S38,1,Male,29,anonymized,Serial_Dependence_U,2023.2.3,Win32,163.9344262,,,,,,,,,,,,1256.9773,5.0,1256.9774,,,,1259.4861,1259.9825,1258.9831,1259.4859,1257.9771,238.0,1258.9829,1259.9826,1260.4796,1260.4796,1260.5179,10.2,1260.5182,1.0,1261.5157,5.0,21.0,171.0,16.0,1.0,1.0,0.7,Time
,,S38,1,Male,29,anonymized,Serial_Dependence_U,2023.2.3,Win32,163.9344262,,,,,,,,,,,,1261.5161,5.0,1261.5163,,,,1263.8251,1264.3215,1263.3222,1263.8248,1262.5161,316.0,1263.322,1264.3215,1264.8184,1264.8185,1270.8247,9999.0,1270.8251,0.0,1271.8239,5.0,22.0,172.0,0.0,1.0,0.8,0.3,Time
,,S38,1,Male,29,anonymized,Serial_Dependence_U,2023.2.3,Win32,163.9344262,,,,,,,,,,,,1271.8246,5.0,1271.8248,,,,1274.5366,1275.0357,1274.0302,1274.5364,1272.8243,324.0,1274.0301,1275.0357,1275.5352,1275.5352,1276.9084,1074.7,1276.9087,2.0,1277.9082,5.0,23.0,173.0,27.0,1.0,1.2,0.7,Time
,,S38,1,Male,29,anonymized,Serial_Dependence_U,2023.2.3,Win32,163.9344262,,,,,,,,,,,,1277.9088,5.0,1277.9089,,,,1280.2238,1280.7201,1279.7178,1280.2236,1278.9085,68.0,1279.7176,1280.7201,1281.217,1281.2171,1282.6274,1000.0,1282.6275,4.0,1283.6289,5.0,24.0,174.0,10.0,1.0,0.8,0.3,Time
,,S38,1,Male,29,anonymized,Serial_Dependence_U,2023.2.3,Win32,163.9344262,,,,,,,,,,,,1283.6294,5.0,1283.6296,,,,1286.7382,1287.2346,1286.2352,1286.738,1284.6323,23.0,1286.235,1287.2346,1287.7317,1287.7317,1289.5045,1410.0,1289.5047,2.0,1290.5011,5.0,25.0,175.0,24.0,1.0,1.6,0.3,Time
,,S38,1,Male,29,anonymized,Serial_Dependence_U,2023.2.3,Win32,163.9344262,,,,,,,,,,,,1290.5017,5.0,1290.5018,,,,1293.0104,1293.5068,1292.5074,1293.0103,1291.5043,207.0,1292.5072,1293.5068,1294.0038,1294.0038,1295.8704,1490.9,1295.8706,5.0,1296.8703,5.0,26.0,176.0,21.0,1.0,1.0,0.3,Time
,,S38,1,Male,29,anonymized,Serial_Dependence_U,2023.2.3,Win32,163.9344262,,,,,,,,,,,,1296.8707,5.0,1296.8708,,,,1299.9797,1300.476,1299.4769,1299.9796,1297.8707,143.0,1299.4763,1300.476,1300.973,1300.973,1302.852,1547.2,1302.8522,3.0,1303.8515,5.0,27.0,177.0,29.0,1.0,1.6,0.7,Time
,,S38,1,Male,29,anonymized,Serial_Dependence_U,2023.2.3,Win32,163.9344262,,,,,,,,,,,,1303.852,5.0,1303.8523,,,,1306.3609,1306.8572,1305.8578,1306.3607,1304.8519,168.0,1305.8577,1306.8573,1307.3542,1307.3543,1307.5543,96.9,1307.5547,1.0,1308.554,5.0,28.0,178.0,11.0,1.0,1.0,0.3,Time
,,S38,1,Male,29,anonymized,Serial_Dependence_U,2023.2.3,Win32,163.9344262,,,,,,,,,,,,1308.5544,5.0,1308.5547,,,,1311.4633,1311.9598,1310.9604,1311.4631,1309.5544,263.0,1310.9601,1311.9599,1312.4567,1312.4568,1313.9393,1192.0,1313.9395,2.0,1314.9353,5.0,29.0,179.0,18.0,1.0,1.4,0.7,Time
,,S38,1,Male,29,anonymized,Serial_Dependence_U,2023.2.3,Win32,163.9344262,,,,,,,,,,,,1314.9358,6.0,1317.0687,s,2.1215,,1319.5813,1320.0772,1319.0748,1319.5812,1318.0687,169.0,1319.0746,1320.0772,1320.5741,1320.5741,1322.5689,1139.1,1322.5691,4.0,1323.5649,6.0,0.0,180.0,16.0,1.0,1.0,0.7,Time
,,S38,1,Male,29,anonymized,Serial_Dependence_U,2023.2.3,Win32,163.9344262,,,,,,,,,,,,1323.5654,6.0,1323.5665,,,,1325.8802,1326.3766,1325.3773,1325.8801,1324.5715,298.0,1325.3771,1326.3767,1326.8737,1326.8738,1328.162,1058.6,1328.1623,5.0,1329.1582,6.0,1.0,181.0,0.0,1.0,0.8,0.3,Time
,,S38,1,Male,29,anonymized,Serial_Dependence_U,2023.2.3,Win32,163.9344262,,,,,,,,,,,,1329.1587,6.0,1329.1589,,,,1332.2675,1332.7666,1331.7647,1332.2673,1330.1584,52.0,1331.7645,1332.7666,1333.267,1333.2671,1335.1277,1425.4,1335.128,2.0,1336.1274,6.0,2.0,182.0,29.0,1.0,1.6,0.7,Time
,,S38,1,Male,29,anonymized,Serial_Dependence_U,2023.2.3,Win32,163.9344262,,,,,,,,,,,,1336.1277,6.0,1336.1281,,,,1339.2305,1339.727,1338.7277,1339.2305,1337.1255,262.0,1338.7275,1339.727,1340.2241,1340.2241,1341.6907,1353.2,1341.691,2.0,1342.6904,6.0,3.0,183.0,4.0,1.0,1.6,0.3,Time
,,S38,1,Male,29,anonymized,Serial_Dependence_U,2023.2.3,Win32,163.9344262,,,,,,,,,,,,1342.6909,6.0,1342.6914,,,,1345.3998,1345.8962,1344.8969,1345.3996,1343.6907,163.0,1344.8967,1345.8962,1346.3931,1346.3931,1347.9116,1306.2,1347.9119,4.0,1348.9081,6.0,4.0,184.0,2.0,1.0,1.2,0.3,Time
,,S38,1,Male,29,anonymized,Serial_Dependence_U,2023.2.3,Win32,163.9344262,,,,,,,,,,,,1348.9087,6.0,1348.909,,,,1351.6235,1352.1199,1351.1176,1351.6232,1349.9087,241.0,1351.1175,1352.12,1352.6168,1352.6168,1354.6684,1702.2,1354.6687,5.0,1355.6651,6.0,5.0,185.0,17.0,1.0,1.2,0.7,Time
,,S38,1,Male,29,anonymized,Serial_Dependence_U,2023.2.3,Win32,163.9344262,,,,,,,,,,,,1355.6655,6.0,1355.6656,,,,1358.7743,1359.2708,1358.2714,1358.7741,1356.6655,222.0,1358.2711,1359.2709,1359.7677,1359.7677,1361.5495,1438.5,1361.5499,2.0,1362.5493,6.0,6.0,186.0,14.0,1.0,1.6,0.3,Time
,,S38,1,Male,29,anonymized,Serial_Dependence_U,2023.2.3,Win32,163.9344262,,,,,,,,,,,,1362.5498,6.0,1362.5501,,,,1365.4585,1365.9552,1364.9556,1365.4584,1363.5498,238.0,1364.9555,1365.9552,1366.452,1366.452,1368.8009,1968.4,1368.8013,5.0,1369.7972,6.0,7.0,187.0,18.0,1.0,1.4,0.7,Time
,,S38,1,Male,29,anonymized,Serial_Dependence_U,2023.2.3,Win32,163.9344262,,,,,,,,,,,,1369.7976,6.0,1369.7978,,,,1372.3064,1372.8029,1371.8035,1372.3063,1370.7975,300.0,1371.8034,1372.8029,1373.2999,1373.3,1375.3423,1691.6,1375.3427,5.0,1376.3421,6.0,8.0,188.0,6.0,1.0,1.0,0.7,Time
,,S38,1,Male,29,anonymized,Serial_Dependence_U,2023.2.3,Win32,163.9344262,,,,,,,,,,,,1376.3426,6.0,1376.3429,,,,1379.4514,1379.9478,1378.9484,1379.4511,1377.3425,356.0,1378.9482,1379.9479,1380.4448,1380.4448,1382.3902,1437.1,1382.3905,2.0,1383.39,6.0,9.0,189.0,24.0,1.0,1.6,0.3,Time
,,S38,1,Male,29,anonymized,Serial_Dependence_U,2023.2.3,Win32,163.9344262,,,,,,,,,,,,1383.3904,6.0,1383.3906,,,,1385.9003,1386.4018,1385.3963,1385.9002,1384.3903,217.0,1385.3962,1386.4018,1386.8987,1386.8987,1389.5532,1290.5,1389.5536,4.0,1390.5529,6.0,10.0,190.0,11.0,1.0,1.0,0.3,Time
,,S38,1,Male,29,anonymized,Serial_Dependence_U,2023.2.3,Win32,163.9344262,,,,,,,,,,,,1390.5536,6.0,1390.5538,,,,1393.2622,1393.7587,1392.7594,1393.262,1391.5533,224.0,1392.7591,1393.7587,1394.2557,1394.2557,1396.0829,1562.3,1396.0831,5.0,1397.0797,6.0,11.0,191.0,22.0,1.0,1.2,0.3,Time
,,S38,1,Male,29,anonymized,Serial_Dependence_U,2023.2.3,Win32,163.9344262,,,,,,,,,,,,1397.0802,6.0,1397.0804,,,,1399.9891,1400.4854,1399.486,1399.989,1398.0802,112.0,1399.4859,1400.4855,1400.9824,1400.9824,1402.9885,1667.0,1402.9887,4.0,1403.9882,6.0,12.0,192.0,13.0,1.0,1.4,0.3,Time
,,S38,1,Male,29,anonymized,Serial_Dependence_U,2023.2.3,Win32,163.9344262,,,,,,,,,,,,1403.9887,6.0,1403.9889,,,,1406.8976,1407.3941,1406.3946,1406.8974,1404.9886,249.0,1406.3944,1407.3941,1407.891,1407.8911,1409.8606,1380.8,1409.8609,3.0,1410.8603,6.0,13.0,193.0,3.0,1.0,1.4,0.3,Time
,,S38,1,Male,29,anonymized,Serial_Dependence_U,2023.2.3,Win32,163.9344262,,,,,,,,,,,,1410.8609,6.0,1410.8611,,,,1413.3697,1413.8661,1412.8667,1413.3695,1411.8609,56.0,1412.8665,1413.8661,1414.3631,1414.3632,1416.0963,1308.6,1416.0966,5.0,1417.0961,6.0,14.0,194.0,1.0,1.0,1.0,0.3,Time
,,S38,1,Male,29,anonymized,Serial_Dependence_U,2023.2.3,Win32,163.9344262,,,,,,,,,,,,1417.0965,6.0,1417.0967,,,,1420.0055,1420.5019,1419.5024,1420.0053,1418.0964,317.0,1419.5022,1420.5019,1420.9988,1420.9988,1422.3346,942.8,1422.3348,1.0,1423.3319,6.0,15.0,195.0,28.0,1.0,1.4,0.7,Time
,,S38,1,Male,29,anonymized,Serial_Dependence_U,2023.2.3,Win32,163.9344262,,,,,,,,,,,,1423.3324,6.0,1423.3326,,,,1425.6353,1426.1316,1425.1335,1425.6351,1424.3323,59.0,1425.1333,1426.1316,1426.6286,1426.6286,1428.2022,1120.1,1428.2023,5.0,1429.1983,6.0,16.0,196.0,15.0,1.0,0.8,0.7,Time
,,S38,1,Male,29,anonymized,Serial_Dependence_U,2023.2.3,Win32,163.9344262,,,,,,,,,,,,1429.1989,6.0,1429.1992,,,,1431.7075,1432.204,1431.2045,1431.7072,1430.1986,295.0,1431.2042,1432.204,1432.7008,1432.7008,1433.1384,87.8,1433.1387,1.0,1434.137,6.0,17.0,197.0,21.0,1.0,1.0,0.3,Time
,,S38,1,Male,29,anonymized,Serial_Dependence_U,2023.2.3,Win32,163.9344262,,,,,,,,,,,,1434.1375,6.0,1434.1377,,,,1436.6464,1437.1428,1436.1434,1436.6463,1435.1376,320.0,1436.1432,1437.1429,1437.6398,1437.6398,1440.2192,1242.1,1440.2195,4.0,1441.2154,6.0,18.0,198.0,26.0,1.0,1.0,0.7,Time
,,S38,1,Male,29,anonymized,Serial_Dependence_U,2023.2.3,Win32,163.9344262,,,,,,,,,,,,1441.2158,6.0,1441.2162,,,,1443.5247,1444.021,1443.0182,1443.5247,1442.2157,40.0,1443.0181,1444.021,1444.518,1444.5181,1445.5726,771.6,1445.5729,3.0,1446.5724,6.0,19.0,199.0,20.0,1.0,0.8,0.3,Time
,,S38,1,Male,29,anonymized,Serial_Dependence_U,2023.2.3,Win32,163.9344262,,,,,,,,,,,,1446.5729,6.0,1446.573,,,,1448.8819,1449.3782,1448.3787,1448.8816,1447.5726,157.0,1448.3786,1449.3782,1449.8751,1449.8751,1451.1756,974.9,1451.1758,4.0,1452.1719,6.0,20.0,200.0,25.0,1.0,0.8,0.7,Time
,,S38,1,Male,29,anonymized,Serial_Dependence_U,2023.2.3,Win32,163.9344262,,,,,,,,,,,,1452.1722,6.0,1452.1724,,,,1455.0813,1455.5776,1454.5781,1455.081,1453.1755,62.0,1454.5779,1455.5776,1456.0745,1456.0745,1457.914,1635.6,1457.9141,4.0,1458.9106,6.0,21.0,201.0,23.0,1.0,1.4,0.3,Time
,,S38,1,Male,29,anonymized,Serial_Dependence_U,2023.2.3,Win32,163.9344262,,,,,,,,,,,,1458.9111,6.0,1458.9112,,,,1461.62,1462.1164,1461.117,1461.6199,1459.911,179.0,1461.1168,1462.1164,1462.6134,1462.6134,1465.5259,2750.3,1465.5261,5.0,1466.5221,6.0,22.0,202.0,7.0,1.0,1.2,0.7,Time
,,S38,1,Male,29,anonymized,Serial_Dependence_U,2023.2.3,Win32,163.9344262,,,,,,,,,,,,1466.5226,6.0,1466.5228,,,,1469.6313,1470.1279,1469.1252,1469.6312,1467.5225,46.0,1469.1249,1470.1279,1470.6248,1470.6249,1472.8429,1891.4,1472.8432,4.0,1473.8427,6.0,23.0,203.0,9.0,1.0,1.6,0.7,Time
,,S38,1,Male,29,anonymized,Serial_Dependence_U,2023.2.3,Win32,163.9344262,,,,,,,,,,,,1473.8432,6.0,1473.8433,,,,1476.5581,1477.0545,1476.0551,1476.5579,1474.8491,170.0,1476.0548,1477.0545,1477.5514,1477.5514,1483.554,9999.0,1483.5544,0.0,1484.5509,6.0,24.0,204.0,27.0,1.0,1.2,0.7,Time
,,S38,1,Male,29,anonymized,Serial_Dependence_U,2023.2.3,Win32,163.9344262,,,,,,,,,,,,1484.5516,6.0,1484.5519,,,,1486.86,1487.3567,1486.3572,1486.8599,1485.5513,147.0,1486.357,1487.3567,1487.8535,1487.8536,1489.7691,1430.6,1489.7696,5.0,1490.7684,6.0,25.0,205.0,10.0,1.0,0.8,0.3,Time
,,S38,1,Male,29,anonymized,Serial_Dependence_U,2023.2.3,Win32,163.9344262,,,,,,,,,,,,1490.7689,6.0,1490.769,,,,1493.0837,1493.5804,1492.5782,1493.0836,1491.7688,266.0,1492.578,1493.5806,1494.0773,1494.0773,1496.0814,1478.8,1496.0816,5.0,1497.0771,6.0,26.0,206.0,5.0,1.0,0.8,0.7,Time
,,S38,1,Male,29,anonymized,Serial_Dependence_U,2023.2.3,Win32,163.9344262,,,,,,,,,,,,1497.0778,6.0,1497.0781,,,,1499.7895,1500.2888,1499.2835,1499.7893,1498.0774,337.0,1499.2833,1500.2888,1500.7858,1500.7858,1502.7522,1201.2,1502.7525,3.0,1503.7491,6.0,27.0,207.0,12.0,1.0,1.2,0.3,Time
,,S38,1,Male,29,anonymized,Serial_Dependence_U,2023.2.3,Win32,163.9344262,,,,,,,,,,,,1503.7498,6.0,1503.7499,,,,1506.8584,1507.3549,1506.3556,1506.8583,1504.7499,80.0,1506.3553,1507.3549,1507.8519,1507.8519,1509.6034,1478.7,1509.6038,2.0,1510.6031,6.0,28.0,208.0,19.0,1.0,1.6,0.7,Time
,,S38,1,Male,29,anonymized,Serial_Dependence_U,2023.2.3,Win32,163.9344262,,,,,,,,,,,,1510.6034,6.0,1510.6037,,,,1513.5154,1514.0149,1513.0096,1513.5152,1511.6037,65.0,1513.0094,1514.015,1514.5118,1514.5119,1516.0731,1217.2,1516.0733,2.0,1517.0692,6.0,29.0,209.0,8.0,1.0,1.4,0.7,Time
,,S38,1,Male,29,anonymized,Serial_Dependence_U,2023.2.3,Win32,163.9344262,,,,,,,,,,,,1517.0697,7.0,1533.7588,s,16.6796,,1536.2679,1536.7645,1535.7649,1536.2677,1534.759,156.0,1535.7648,1536.7645,1537.2614,1537.2614,1538.853,1247.8,1538.8532,4.0,1539.8516,7.0,0.0,210.0,1.0,1.0,1.0,0.3,Time
,,S38,1,Male,29,anonymized,Serial_Dependence_U,2023.2.3,Win32,163.9344262,,,,,,,,,,,,1539.8521,7.0,1539.8533,,,,1542.9645,1543.4609,1542.459,1542.9643,1540.8529,163.0,1542.4589,1543.4609,1543.9577,1543.9578,1546.4668,1267.2,1546.4671,2.0,1547.4666,7.0,1.0,211.0,14.0,1.0,1.6,0.3,Time
,,S38,1,Male,29,anonymized,Serial_Dependence_U,2023.2.3,Win32,163.9344262,,,,,,,,,,,,1547.4672,7.0,1547.4674,,,,1550.1759,1550.6723,1549.6714,1550.1757,1548.4671,24.0,1549.6713,1550.6724,1551.1692,1551.1693,1552.9915,1435.9,1552.9916,4.0,1553.9872,7.0,2.0,212.0,2.0,1.0,1.2,0.3,Time
,,S38,1,Male,29,anonymized,Serial_Dependence_U,2023.2.3,Win32,163.9344262,,,,,,,,,,,,1553.9877,7.0,1553.9878,,,,1556.4965,1556.993,1555.9937,1556.4964,1554.9878,90.0,1555.9934,1556.993,1557.49,1557.49,1561.6232,1008.4,1561.6235,3.0,1562.6228,7.0,3.0,213.0,11.0,1.0,1.0,0.3,Time
,,S38,1,Male,29,anonymized,Serial_Dependence_U,2023.2.3,Win32,163.9344262,,,,,,,,,,,,1562.6233,7.0,1562.6235,,,,1565.1321,1565.6286,1564.6292,1565.1319,1563.6234,50.0,1564.629,1565.6287,1566.1255,1566.1256,1567.3475,937.8,1567.3477,2.0,1568.3435,7.0,4.0,214.0,21.0,1.0,1.0,0.3,Time
,,S38,1,Male,29,anonymized,Serial_Dependence_U,2023.2.3,Win32,163.9344262,,,,,,,,,,,,1568.344,7.0,1568.3442,,,,1571.459,1571.9554,1570.9535,1571.4588,1569.344,292.0,1570.9533,1571.9555,1572.4523,1572.4523,1574.3977,1636.7,1574.3981,3.0,1575.3975,7.0,5.0,215.0,29.0,1.0,1.6,0.7,Time
,,S38,1,Male,29,anonymized,Serial_Dependence_U,2023.2.3,Win32,163.9344262,,,,,,,,,,,,1575.3981,7.0,1575.3983,,,,1577.9069,1578.4033,1577.4037,1577.9068,1576.3979,199.0,1577.4036,1578.4033,1578.9002,1578.9002,1580.7341,1532.1,1580.7343,5.0,1581.7303,7.0,6.0,216.0,6.0,1.0,1.0,0.7,Time
,,S38,1,Male,29,anonymized,Serial_Dependence_U,2023.2.3,Win32,163.9344262,,,,,,,,,,,,1581.731,7.0,1581.7311,,,,1584.8425,1585.3421,1584.3365,1584.8423,1582.731,47.0,1584.3363,1585.3422,1585.8392,1585.8392,1587.3965,1428.5,1587.3968,2.0,1588.3964,7.0,7.0,217.0,9.0,1.0,1.6,0.7,Time
,,S38,1,Male,29,anonymized,Serial_Dependence_U,2023.2.3,Win32,163.9344262,,,,,,,,,,,,1588.3968,7.0,1588.3971,,,,1590.6997,1591.196,1590.1966,1590.6994,1589.3944,8.0,1590.1963,1591.1962,1591.693,1591.693,1593.0144,986.0,1593.0147,4.0,1594.0141,7.0,8.0,218.0,25.0,1.0,0.8,0.7,Time
,,S38,1,Male,29,anonymized,Serial_Dependence_U,2023.2.3,Win32,163.9344262,,,,,,,,,,,,1594.0146,7.0,1594.0149,,,,1596.7234,1597.2199,1596.2204,1596.7232,1595.0144,177.0,1596.2202,1597.2199,1597.7167,1597.7168,1598.1654,108.4,1598.1657,1.0,1599.1651,7.0,9.0,219.0,7.0,1.0,1.2,0.7,Time
,,S38,1,Male,29,anonymized,Serial_Dependence_U,2023.2.3,Win32,163.9344262,,,,,,,,,,,,1599.1656,7.0,1599.1659,,,,1602.0744,1602.5709,1601.569,1602.0742,1600.1656,136.0,1601.5685,1602.5709,1603.0679,1603.0679,1606.2979,1030.1,1606.2982,2.0,1607.2978,7.0,10.0,220.0,18.0,1.0,1.4,0.7,Time
,,S38,1,Male,29,anonymized,Serial_Dependence_U,2023.2.3,Win32,163.9344262,,,,,,,,,,,,1607.298,7.0,1607.2983,,,,1610.407,1610.9036,1609.904,1610.4069,1608.2981,294.0,1609.9039,1610.9036,1611.4004,1611.4005,1613.4792,1775.5,1613.4795,4.0,1614.4789,7.0,11.0,221.0,4.0,1.0,1.6,0.3,Time
,,S38,1,Male,29,anonymized,Serial_Dependence_U,2023.2.3,Win32,163.9344262,,,,,,,,,,,,1614.4794,7.0,1614.4796,,,,1616.7882,1617.2848,1616.2853,1616.788,1615.4794,315.0,1616.285,1617.2848,1617.7818,1617.7818,1619.1212,1272.7,1619.1216,5.0,1620.1209,7.0,12.0,222.0,10.0,1.0,0.8,0.3,Time
,,S38,1,Male,29,anonymized,Serial_Dependence_U,2023.2.3,Win32,163.9344262,,,,,,,,,,,,1620.1212,7.0,1620.1215,,,,1623.0301,1623.5266,1622.527,1623.0299,1621.1247,75.0,1622.5268,1623.5266,1624.0236,1624.0236,1625.6782,1248.5,1625.6783,2.0,1626.6779,7.0,13.0,223.0,23.0,1.0,1.4,0.3,Time
,,S38,1,Male,29,anonymized,Serial_Dependence_U,2023.2.3,Win32,163.9344262,,,,,,,,,,,,1626.6785,7.0,1626.6787,,,,1629.3871,1629.8836,1628.8841,1629.387,1627.6788,345.0,1628.884,1629.8836,1630.3806,1630.3807,1632.3866,1632.7,1632.3868,5.0,1633.3864,7.0,14.0,224.0,17.0,1.0,1.2,0.7,Time
,,S38,1,Male,29,anonymized,Serial_Dependence_U,2023.2.3,Win32,163.9344262,,,,,,,,,,,,1633.3869,7.0,1633.387,,,,1636.293,1636.7888,1635.7926,1636.2929,1634.3867,105.0,1635.7925,1636.7888,1637.2858,1637.2858,1639.092,1448.1,1639.0923,3.0,1640.0888,7.0,15.0,225.0,3.0,1.0,1.4,0.3,Time
,,S38,1,Male,29,anonymized,Serial_Dependence_U,2023.2.3,Win32,163.9344262,,,,,,,,,,,,1640.0893,7.0,1640.0896,,,,1642.9985,1643.4947,1642.4952,1642.9983,1641.0906,139.0,1642.4951,1643.4947,1643.9915,1643.9916,1646.3007,1907.3,1646.3011,5.0,1647.3004,7.0,16.0,226.0,13.0,1.0,1.4,0.3,Time
,,S38,1,Male,29,anonymized,Serial_Dependence_U,2023.2.3,Win32,163.9344262,,,,,,,,,,,,1647.3009,7.0,1647.3012,,,,1650.0097,1650.5061,1649.5066,1650.0095,1648.3008,69.0,1649.5064,1650.5063,1651.003,1651.003,1653.2031,1732.9,1653.2034,5.0,1654.2027,7.0,17.0,227.0,12.0,1.0,1.2,0.3,Time
,,S38,1,Male,29,anonymized,Serial_Dependence_U,2023.2.3,Win32,163.9344262,,,,,,,,,,,,1654.2034,7.0,1654.2037,,,,1656.5063,1657.0025,1656.0032,1656.5061,1655.2008,248.0,1656.0031,1657.0026,1657.4994,1657.4995,1658.6366,714.5,1658.6368,2.0,1659.6325,7.0,18.0,228.0,20.0,1.0,0.8,0.3,Time
,,S38,1,Male,29,anonymized,Serial_Dependence_U,2023.2.3,Win32,163.9344262,,,,,,,,,,,,1659.633,7.0,1659.6332,,,,1661.9419,1662.4384,1661.4362,1661.9417,1660.633,7.0,1661.436,1662.4384,1662.9354,1662.9354,1664.1514,842.4,1664.1516,4.0,1665.1472,7.0,19.0,229.0,15.0,1.0,0.8,0.7,Time
,,S38,1,Male,29,anonymized,Serial_Dependence_U,2023.2.3,Win32,163.9344262,,,,,,,,,,,,1665.1476,7.0,1665.1479,,,,1668.2566,1668.753,1667.7535,1668.2564,1666.1477,132.0,1667.7535,1668.753,1669.2499,1669.25,1670.7689,1379.7,1670.7692,2.0,1671.7649,7.0,20.0,230.0,24.0,1.0,1.6,0.3,Time
,,S38,1,Male,29,anonymized,Serial_Dependence_U,2023.2.3,Win32,163.9344262,,,,,,,,,,,,1671.7652,7.0,1671.7654,,,,1674.8743,1675.3706,1674.3712,1674.874,1672.7653,67.0,1674.3709,1675.3706,1675.8676,1675.8676,1678.0173,1927.6,1678.0175,4.0,1679.0188,7.0,21.0,231.0,19.0,1.0,1.6,0.7,Time
,,S38,1,Male,29,anonymized,Serial_Dependence_U,2023.2.3,Win32,163.9344262,,,,,,,,,,,,1679.0193,7.0,1679.0195,,,,1681.3282,1681.8246,1680.8251,1681.3279,1680.0191,177.0,1680.8248,1681.8246,1682.3216,1682.3216,1685.637,1378.4,1685.6371,5.0,1686.6364,7.0,22.0,232.0,5.0,1.0,0.8,0.7,Time
,,S38,1,Male,29,anonymized,Serial_Dependence_U,2023.2.3,Win32,163.9344262,,,,,,,,,,,,1686.6369,7.0,1686.6369,,,,1689.3457,1689.8422,1688.8427,1689.3455,1687.6368,79.0,1688.8425,1689.8422,1690.3391,1690.3392,1692.1634,1205.3,1692.1636,3.0,1693.163,7.0,23.0,233.0,22.0,1.0,1.2,0.3,Time
,,S38,1,Male,29,anonymized,Serial_Dependence_U,2023.2.3,Win32,163.9344262,,,,,,,,,,,,1693.1635,7.0,1693.1637,,,,1695.4818,1695.978,1694.9761,1695.4818,1694.1637,115.0,1694.9759,1695.978,1696.4748,1696.4748,1697.6813,884.3,1697.6816,4.0,1698.6777,7.0,24.0,234.0,0.0,1.0,0.8,0.3,Time
,,S38,1,Male,29,anonymized,Serial_Dependence_U,2023.2.3,Win32,163.9344262,,,,,,,,,,,,1698.6782,7.0,1698.6784,,,,1701.1868,1701.6835,1700.6839,1701.1868,1699.6779,22.0,1700.6838,1701.6836,1702.1804,1702.1805,1703.5503,932.9,1703.5505,2.0,1704.5499,7.0,25.0,235.0,16.0,1.0,1.0,0.7,Time
,,S38,1,Male,29,anonymized,Serial_Dependence_U,2023.2.3,Win32,163.9344262,,,,,,,,,,,,1704.5505,7.0,1704.5506,,,,1707.2591,1707.7558,1706.7564,1707.259,1705.5503,268.0,1706.7563,1707.7558,1708.2527,1708.2529,1710.1559,1314.0,1710.1561,4.0,1711.1554,7.0,26.0,236.0,27.0,1.0,1.2,0.7,Time
,,S38,1,Male,29,anonymized,Serial_Dependence_U,2023.2.3,Win32,163.9344262,,,,,,,,,,,,1711.1559,7.0,1711.156,,,,1714.0644,1714.5612,1713.5617,1714.0644,1712.1558,130.0,1713.5616,1714.5612,1715.0581,1715.0582,1716.6945,1350.8,1716.6948,3.0,1717.6943,7.0,27.0,237.0,28.0,1.0,1.4,0.7,Time
,,S38,1,Male,29,anonymized,Serial_Dependence_U,2023.2.3,Win32,163.9344262,,,,,,,,,,,,1717.6947,7.0,1717.6949,,,,1720.6036,1721.1,1720.1005,1720.6035,1718.6947,93.0,1720.1002,1721.1,1721.5969,1721.5969,1724.3306,1545.0,1724.3311,4.0,1725.33,7.0,28.0,238.0,8.0,1.0,1.4,0.7,Time
,,S38,1,Male,29,anonymized,Serial_Dependence_U,2023.2.3,Win32,163.9344262,,,,,,,,,,,,1725.3306,7.0,1725.3308,,,,1727.8391,1728.3358,1727.3364,1727.839,1726.3304,292.0,1727.3362,1728.3358,1728.8327,1728.8327,1731.7205,1938.3,1731.7208,5.0,1732.7172,7.0,29.0,239.0,26.0,1.0,1.0,0.7,Time
,,S38,1,Male,29,anonymized,Serial_Dependence_U,2023.2.3,Win32,163.9344262,,,,,,,,,,,,1732.7178,8.0,1734.911,s,2.1828,,1737.824,1738.3258,1737.3226,1737.8239,1735.9112,181.0,1737.3224,1738.3258,1738.8219,1738.8219,1740.653,1484.1,1740.6531,4.0,1741.6497,8.0,0.0,240.0,28.0,1.0,1.4,0.7,Time
,,S38,1,Male,29,anonymized,Serial_Dependence_U,2023.2.3,Win32,163.9344262,,,,,,,,,,,,1741.65,8.0,1741.6512,,,,1743.965,1744.4616,1743.4619,1743.9648,1742.656,54.0,1743.4618,1744.4616,1744.9585,1744.9585,1746.6857,1461.4,1746.6859,5.0,1747.6855,8.0,1.0,241.0,5.0,1.0,0.8,0.7,Time
,,S38,1,Male,29,anonymized,Serial_Dependence_U,2023.2.3,Win32,163.9344262,,,,,,,,,,,,1747.686,8.0,1747.6862,,,,1750.395,1750.8913,1749.8919,1750.3947,1748.6861,162.0,1749.8917,1750.8913,1751.3882,1751.3883,1753.3943,1625.7,1753.3945,5.0,1754.3941,8.0,2.0,242.0,17.0,1.0,1.2,0.7,Time
,,S38,1,Male,29,anonymized,Serial_Dependence_U,2023.2.3,Win32,163.9344262,,,,,,,,,,,,1754.3946,8.0,1754.3948,,,,1756.9034,1757.3998,1756.4005,1756.9032,1755.3945,81.0,1756.4002,1757.3998,1757.8967,1757.8967,1760.2483,1648.2,1760.2486,5.0,1761.2481,8.0,3.0,243.0,1.0,1.0,1.0,0.3,Time
,,S38,1,Male,29,anonymized,Serial_Dependence_U,2023.2.3,Win32,163.9344262,,,,,,,,,,,,1761.2488,8.0,1761.2492,,,,1764.1574,1764.6537,1763.6545,1764.1572,1762.2486,41.0,1763.6543,1764.6538,1765.1506,1765.1507,1767.2426,1203.4,1767.2429,2.0,1768.2413,8.0,4.0,244.0,23.0,1.0,1.4,0.3,Time
,,S38,1,Male,29,anonymized,Serial_Dependence_U,2023.2.3,Win32,163.9344262,,,,,,,,,,,,1768.242,8.0,1768.2422,,,,1770.7505,1771.2471,1770.2476,1770.7504,1769.2416,329.0,1770.2474,1771.2471,1771.7441,1771.7441,1773.2775,1411.6,1773.2778,5.0,1774.2773,8.0,5.0,245.0,11.0,1.0,1.0,0.3,Time
,,S38,1,Male,29,anonymized,Serial_Dependence_U,2023.2.3,Win32,163.9344262,,,,,,,,,,,,1774.2778,8.0,1774.278,,,,1776.5896,1777.089,1776.0833,1776.5895,1775.2776,81.0,1776.0833,1777.089,1777.5859,1777.5859,1779.3104,1428.9,1779.3106,5.0,1780.3069,8.0,6.0,246.0,20.0,1.0,0.8,0.3,Time
,,S38,1,Male,29,anonymized,Serial_Dependence_U,2023.2.3,Win32,163.9344262,,,,,,,,,,,,1780.3073,8.0,1780.3075,,,,1782.6163,1783.1127,1782.1133,1782.6162,1781.3074,227.0,1782.1132,1783.1128,1783.6097,1783.6097,1785.5248,1546.0,1785.5251,5.0,1786.5246,8.0,7.0,247.0,10.0,1.0,0.8,0.3,Time
,,S38,1,Male,29,anonymized,Serial_Dependence_U,2023.2.3,Win32,163.9344262,,,,,,,,,,,,1786.5251,8.0,1786.5254,,,,1789.034,1789.5305,1788.5311,1789.0338,1787.525,55.0,1788.5307,1789.5305,1790.0273,1790.0273,1791.522,1483.9,1791.5223,5.0,1792.5179,8.0,8.0,248.0,26.0,1.0,1.0,0.7,Time
,,S38,1,Male,29,anonymized,Serial_Dependence_U,2023.2.3,Win32,163.9344262,,,,,,,,,,,,1792.5186,8.0,1792.5188,,,,1794.8275,1795.3239,1794.3244,1794.8273,1793.5184,352.0,1794.3242,1795.3239,1795.8211,1795.8212,1797.2934,1199.7,1797.2936,5.0,1798.2932,8.0,9.0,249.0,25.0,1.0,0.8,0.7,Time
,,S38,1,Male,29,anonymized,Serial_Dependence_U,2023.2.3,Win32,163.9344262,,,,,,,,,,,,1798.2939,8.0,1798.2941,,,,1801.2025,1801.699,1800.6996,1801.2023,1799.2936,335.0,1800.6994,1801.699,1802.1959,1802.196,1804.0786,1610.6,1804.0788,4.0,1805.0745,8.0,10.0,250.0,3.0,1.0,1.4,0.3,Time
,,S38,1,Male,29,anonymized,Serial_Dependence_U,2023.2.3,Win32,163.9344262,,,,,,,,,,,,1805.0751,8.0,1805.0752,,,,1807.9837,1808.4802,1807.4809,1807.9836,1806.0751,72.0,1807.4806,1808.4803,1808.9771,1808.9772,1810.8437,1587.0,1810.844,4.0,1811.8436,8.0,11.0,251.0,8.0,1.0,1.4,0.7,Time
,,S38,1,Male,29,anonymized,Serial_Dependence_U,2023.2.3,Win32,163.9344262,,,,,,,,,,,,1811.844,8.0,1811.8442,,,,1814.1529,1814.6494,1813.6499,1814.1528,1812.8441,93.0,1813.6498,1814.6494,1815.1464,1815.1464,1816.5767,1339.5,1816.5771,5.0,1817.5764,8.0,12.0,252.0,0.0,1.0,0.8,0.3,Time
,,S38,1,Male,29,anonymized,Serial_Dependence_U,2023.2.3,Win32,163.9344262,,,,,,,,,,,,1817.5768,8.0,1817.5771,,,,1820.2892,1820.7883,1819.7799,1820.2891,1818.5767,173.0,1819.7797,1820.7883,1821.2852,1821.2852,1822.9614,1277.8,1822.9616,4.0,1823.9577,8.0,13.0,253.0,7.0,1.0,1.2,0.7,Time
,,S38,1,Male,29,anonymized,Serial_Dependence_U,2023.2.3,Win32,163.9344262,,,,,,,,,,,,1823.9584,8.0,1823.9585,,,,1827.0674,1827.5634,1826.5607,1827.0672,1824.9582,77.0,1826.5605,1827.5634,1828.0605,1828.0605,1829.9191,1847.9,1829.9193,4.0,1830.9207,8.0,14.0,254.0,4.0,1.0,1.6,0.3,Time
,,S38,1,Male,29,anonymized,Serial_Dependence_U,2023.2.3,Win32,163.9344262,,,,,,,,,,,,1830.9212,8.0,1830.9214,,,,1834.0302,1834.5264,1833.5269,1834.0299,1831.9214,104.0,1833.5268,1834.5265,1835.0235,1835.0235,1837.0631,1865.8,1837.0634,4.0,1838.0595,8.0,15.0,255.0,19.0,1.0,1.6,0.7,Time
,,S38,1,Male,29,anonymized,Serial_Dependence_U,2023.2.3,Win32,163.9344262,,,,,,,,,,,,1838.06,8.0,1838.0603,,,,1841.1689,1841.6653,1840.6626,1841.1687,1839.0598,95.0,1840.6623,1841.6653,1842.1621,1842.1621,1844.465,1853.9,1844.4654,4.0,1845.4649,8.0,16.0,256.0,24.0,1.0,1.6,0.3,Time
,,S38,1,Male,29,anonymized,Serial_Dependence_U,2023.2.3,Win32,163.9344262,,,,,,,,,,,,1845.4653,8.0,1845.4655,,,,1848.1743,1848.6707,1847.6712,1848.1741,1846.4652,324.0,1847.6711,1848.6707,1849.1676,1849.1677,1851.1639,1650.9,1851.1641,5.0,1852.1613,8.0,17.0,257.0,27.0,1.0,1.2,0.7,Time
,,S38,1,Male,29,anonymized,Serial_Dependence_U,2023.2.3,Win32,163.9344262,,,,,,,,,,,,1852.1619,8.0,1852.1622,,,,1854.4708,1854.9672,1853.9686,1854.4705,1853.1616,122.0,1853.9674,1854.9672,1855.464,1855.464,1856.7157,914.1,1856.7159,4.0,1857.7123,8.0,18.0,258.0,15.0,1.0,0.8,0.7,Time
,,S38,1,Male,29,anonymized,Serial_Dependence_U,2023.2.3,Win32,163.9344262,,,,,,,,,,,,1857.713,8.0,1857.7131,,,,1860.2217,1860.7182,1859.7191,1860.2214,1858.7128,84.0,1859.7188,1860.7182,1861.215,1861.215,1863.1725,1461.3,1863.1728,5.0,1864.1724,8.0,19.0,259.0,16.0,1.0,1.0,0.7,Time
,,S38,1,Male,29,anonymized,Serial_Dependence_U,2023.2.3,Win32,163.9344262,,,,,,,,,,,,1864.173,8.0,1864.1732,,,,1866.6816,1867.1782,1866.1787,1866.6814,1865.1727,216.0,1866.1785,1867.1782,1867.6751,1867.6751,1869.8752,950.9,1869.8755,3.0,1870.8747,8.0,20.0,260.0,21.0,1.0,1.0,0.3,Time
,,S38,1,Male,29,anonymized,Serial_Dependence_U,2023.2.3,Win32,163.9344262,,,,,,,,,,,,1870.8753,8.0,1870.8755,,,,1873.384,1873.8807,1872.881,1873.3839,1871.8764,3.0,1872.8809,1873.8807,1874.3776,1874.3776,1875.9655,1115.2,1875.9658,4.0,1876.9652,8.0,21.0,261.0,6.0,1.0,1.0,0.7,Time
,,S38,1,Male,29,anonymized,Serial_Dependence_U,2023.2.3,Win32,163.9344262,,,,,,,,,,,,1876.9658,8.0,1876.9661,,,,1879.6745,1880.171,1879.1717,1879.6743,1877.9656,54.0,1879.1715,1880.1711,1880.6679,1880.6679,1881.8255,1146.3,1881.8258,3.0,1882.8253,8.0,22.0,262.0,22.0,1.0,1.2,0.3,Time
,,S38,1,Male,29,anonymized,Serial_Dependence_U,2023.2.3,Win32,163.9344262,,,,,,,,,,,,1882.8258,8.0,1882.826,,,,1885.5346,1886.0311,1885.0316,1885.5344,1883.826,328.0,1885.0314,1886.0311,1886.528,1886.528,1887.9221,1122.1,1887.9223,2.0,1888.9217,8.0,23.0,263.0,2.0,1.0,1.2,0.3,Time
,,S38,1,Male,29,anonymized,Serial_Dependence_U,2023.2.3,Win32,163.9344262,,,,,,,,,,,,1888.9222,8.0,1888.9224,,,,1892.031,1892.5274,1891.5282,1892.0309,1889.9226,214.0,1891.528,1892.5275,1893.0245,1893.0245,1894.6167,1090.1,1894.6169,1.0,1895.618,8.0,24.0,264.0,9.0,1.0,1.6,0.7,Time
,,S38,1,Male,29,anonymized,Serial_Dependence_U,2023.2.3,Win32,163.9344262,,,,,,,,,,,,1895.6187,8.0,1895.6189,,,,1898.5276,1899.024,1898.0244,1898.5273,1896.6184,230.0,1898.0242,1899.024,1899.5208,1899.5209,1902.557,1819.6,1902.5573,4.0,1903.5568,8.0,25.0,265.0,13.0,1.0,1.4,0.3,Time
,,S38,1,Male,29,anonymized,Serial_Dependence_U,2023.2.3,Win32,163.9344262,,,,,,,,,,,,1903.5573,8.0,1903.5574,,,,1906.6661,1907.1626,1906.1602,1906.6659,1904.5574,88.0,1906.16,1907.1626,1907.6595,1907.6596,1909.5909,1569.6,1909.5911,3.0,1910.5926,8.0,26.0,266.0,29.0,1.0,1.6,0.7,Time
,,S38,1,Male,29,anonymized,Serial_Dependence_U,2023.2.3,Win32,163.9344262,,,,,,,,,,,,1910.5934,8.0,1910.5935,,,,1913.5019,1913.9983,1912.9989,1913.5017,1911.593,283.0,1912.9987,1913.9983,1914.4952,1914.4952,1916.4043,1666.4,1916.4047,4.0,1917.4042,8.0,27.0,267.0,18.0,1.0,1.4,0.7,Time
,,S38,1,Male,29,anonymized,Serial_Dependence_U,2023.2.3,Win32,163.9344262,,,,,,,,,,,,1917.4047,8.0,1917.4051,,,,1920.1225,1920.622,1919.6136,1920.1224,1918.4044,5.0,1919.6133,1920.622,1921.119,1921.119,1923.6585,1668.2,1923.6588,5.0,1924.6581,8.0,28.0,268.0,12.0,1.0,1.2,0.3,Time
,,S38,1,Male,29,anonymized,Serial_Dependence_U,2023.2.3,Win32,163.9344262,,,,,,,,,,,,1924.6586,8.0,1924.6587,,,,1927.7674,1928.2637,1927.2644,1927.7672,1925.6583,69.0,1927.2642,1928.2638,1928.7608,1928.7608,1930.6917,1622.4,1930.6919,3.0,1931.6877,8.0,29.0,269.0,14.0,1.0,1.6,0.3,Time
