Scale_setup.started,Scale_setup.stopped,participant,session,sex,age,date,expName,psychopyVersion,OS,frameRate,screen_scale_keys.started,screen_scale_keys.stopped,X Scale,Y Scale,rectangel_keys.started,rectangel_keys.stopped,Intro.started,Intro.stopped,key_resp_2.keys,key_resp_2.rt,key_resp_2.duration,block.started,Block_id,block.stopped,Block_resp_2.keys,Block_resp_2.rt,Block_resp_2.duration,ITI.started,ITI.stopped,Mask_2.started,Mask_2.stopped,M2.started,direction,M2.stopped,Cue.started,Cue.stopped,Response.started,Response.stopped,keyDuration,Feedback_Time.started,FeedbackID_T,Feedback_Time.stopped,trials.thisRepN,trials.thisTrialN,trials.thisN,trials.thisIndex,trials.ran,TimeDur,Coherence1,TrialType
0.0001,0.0003,S39,1,female,25,anonymized,Serial_Dependence_U,2023.2.3,Win32,59.52380952,,,,,,,,,,,,,,,,,,,,,,,,,,,,,,,,,,,,,,,,
,,S39,1,female,25,anonymized,Serial_Dependence_U,2023.2.3,Win32,59.52380952,0.0135,45.2774,0.0525,0.0501,45.2776,61.576,61.5764,237.2795,space,175.6722,,,,,,,,,,,,,,,,,,,,,,,,,,,,,,
,,S39,1,female,25,anonymized,Serial_Dependence_U,2023.2.3,Win32,59.52380952,,,,,,,,,,,,237.2852,0.0,240.7955,s,3.483,,243.7281,244.2276,243.2118,243.728,241.7991,213.0,243.2117,244.2278,244.7279,244.7284,245.1334,250.2,245.1343,1.0,246.1291,0.0,0.0,0.0,28.0,1.0,1.4,0.7,Time
,,S39,1,female,25,anonymized,Serial_Dependence_U,2023.2.3,Win32,59.52380952,,,,,,,,,,,,246.1304,0.0,246.1316,,,,249.2642,249.761,248.7489,249.2641,247.132,120.0,248.7488,249.7614,250.2614,250.2616,252.9279,1125.9,252.9281,2.0,253.9281,0.0,1.0,1.0,4.0,1.0,1.6,0.3,Time
,,S39,1,female,25,anonymized,Serial_Dependence_U,2023.2.3,Win32,59.52380952,,,,,,,,,,,,253.9299,0.0,253.9303,,,,256.2631,256.7614,255.7489,256.2622,254.932,178.0,255.7488,256.7614,257.2614,257.2617,259.2162,1413.6,259.2162,5.0,260.2116,0.0,2.0,2.0,15.0,1.0,0.8,0.7,Time
,,S39,1,female,25,anonymized,Serial_Dependence_U,2023.2.3,Win32,59.52380952,,,,,,,,,,,,260.2134,0.0,260.2138,,,,262.7492,263.2449,262.2467,262.7491,261.23,276.0,262.2459,263.2452,263.7453,263.7456,266.7164,2033.6,266.7166,5.0,267.7115,0.0,3.0,3.0,21.0,1.0,1.0,0.3,Time
,,S39,1,female,25,anonymized,Serial_Dependence_U,2023.2.3,Win32,59.52380952,,,,,,,,,,,,267.7136,0.0,267.7139,,,,270.8661,271.3615,270.3499,270.8661,268.7328,102.0,270.3494,271.3617,271.8615,271.8617,272.7831,833.3,272.7832,1.0,273.7821,0.0,4.0,4.0,29.0,1.0,1.6,0.7,Time
,,S39,1,female,25,anonymized,Serial_Dependence_U,2023.2.3,Win32,59.52380952,,,,,,,,,,,,273.7825,0.0,273.7827,,,,276.5324,277.0286,276.0157,276.5323,274.7995,254.0,276.0156,277.0288,277.528,277.5285,279.4993,849.7,279.4995,2.0,280.4953,0.0,5.0,5.0,17.0,1.0,1.2,0.7,Time
,,S39,1,female,25,anonymized,Serial_Dependence_U,2023.2.3,Win32,59.52380952,,,,,,,,,,,,280.4971,0.0,280.4975,,,,283.2327,283.7317,282.7147,283.2325,281.4991,233.0,282.7145,283.7318,284.2286,284.2289,290.233,9999.0,290.2331,0.0,291.2284,0.0,6.0,6.0,12.0,1.0,1.2,0.3,Time
,,S39,1,female,25,anonymized,Serial_Dependence_U,2023.2.3,Win32,59.52380952,,,,,,,,,,,,291.2304,0.0,291.2308,,,,293.7664,294.2615,293.2648,293.7663,292.2496,69.0,293.2647,294.2616,294.7617,294.7618,296.3495,999.6,296.3497,3.0,297.3449,0.0,7.0,7.0,26.0,1.0,1.0,0.7,Time
,,S39,1,female,25,anonymized,Serial_Dependence_U,2023.2.3,Win32,59.52380952,,,,,,,,,,,,297.3468,0.0,297.3471,,,,300.4803,300.9783,299.9659,300.4796,298.364,85.0,299.9658,300.9786,301.4787,301.4789,303.2998,868.2,303.2999,1.0,304.2956,0.0,8.0,8.0,19.0,1.0,1.6,0.7,Time
,,S39,1,female,25,anonymized,Serial_Dependence_U,2023.2.3,Win32,59.52380952,,,,,,,,,,,,304.2971,0.0,304.2976,,,,307.0454,307.5449,306.5287,307.0453,305.3121,310.0,306.5286,307.545,308.045,308.0451,311.5453,1109.3,311.5455,2.0,312.545,0.0,9.0,9.0,22.0,1.0,1.2,0.3,Time
,,S39,1,female,25,anonymized,Serial_Dependence_U,2023.2.3,Win32,59.52380952,,,,,,,,,,,,312.5454,0.0,312.5459,,,,315.4955,315.995,314.9788,315.4954,313.5622,247.0,314.9787,315.9951,316.4951,316.4951,319.8119,1586.9,319.8121,4.0,320.8118,0.0,10.0,10.0,3.0,1.0,1.4,0.3,Time
,,S39,1,female,25,anonymized,Serial_Dependence_U,2023.2.3,Win32,59.52380952,,,,,,,,,,,,320.8122,0.0,320.8127,,,,323.1624,323.6618,322.6456,323.1622,321.8289,188.0,322.6455,323.6618,324.1617,324.1618,326.1788,1142.3,326.179,5.0,327.1784,0.0,11.0,11.0,20.0,1.0,0.8,0.3,Time
,,S39,1,female,25,anonymized,Serial_Dependence_U,2023.2.3,Win32,59.52380952,,,,,,,,,,,,327.1788,0.0,327.1791,,,,329.9289,330.4285,329.4123,329.9289,328.1957,29.0,329.4122,330.4286,330.9285,330.9286,333.9287,1056.8,333.929,2.0,334.9286,0.0,12.0,12.0,7.0,1.0,1.2,0.7,Time
,,S39,1,female,25,anonymized,Serial_Dependence_U,2023.2.3,Win32,59.52380952,,,,,,,,,,,,334.929,0.0,334.9294,,,,337.879,338.3785,337.3625,337.879,335.9458,290.0,337.3624,338.3785,338.8787,338.8787,340.5288,1032.7,340.5291,2.0,341.5286,0.0,13.0,13.0,23.0,1.0,1.4,0.3,Time
,,S39,1,female,25,anonymized,Serial_Dependence_U,2023.2.3,Win32,59.52380952,,,,,,,,,,,,341.5291,0.0,341.5295,,,,344.0792,344.5786,343.5625,344.0791,342.5458,72.0,343.5624,344.5787,345.0787,345.0787,347.6454,1179.9,347.6458,4.0,348.6454,0.0,14.0,14.0,11.0,1.0,1.0,0.3,Time
,,S39,1,female,25,anonymized,Serial_Dependence_U,2023.2.3,Win32,59.52380952,,,,,,,,,,,,348.6459,0.0,348.6463,,,,351.7963,352.2955,351.2801,351.7963,349.6626,41.0,351.2793,352.2955,352.7953,352.7954,354.429,727.5,354.4292,1.0,355.4288,0.0,15.0,15.0,24.0,1.0,1.6,0.3,Time
,,S39,1,female,25,anonymized,Serial_Dependence_U,2023.2.3,Win32,59.52380952,,,,,,,,,,,,355.4293,0.0,355.4297,,,,357.9793,358.4788,357.4627,357.9793,356.4461,206.0,357.4626,358.4789,358.9789,358.979,361.0124,1436.6,361.0126,5.0,362.0122,0.0,16.0,16.0,1.0,1.0,1.0,0.3,Time
,,S39,1,female,25,anonymized,Serial_Dependence_U,2023.2.3,Win32,59.52380952,,,,,,,,,,,,362.0126,0.0,362.0131,,,,364.9627,365.4622,364.4469,364.9627,363.0293,171.0,364.4459,365.4622,365.9627,365.9627,368.9458,883.5,368.946,1.0,369.9457,0.0,17.0,17.0,18.0,1.0,1.4,0.7,Time
,,S39,1,female,25,anonymized,Serial_Dependence_U,2023.2.3,Win32,59.52380952,,,,,,,,,,,,369.9461,0.0,369.9466,,,,373.0962,373.5957,372.5795,373.0961,370.9628,148.0,372.5794,373.5958,374.0958,374.0958,376.7625,1067.7,376.7629,1.0,377.7624,0.0,18.0,18.0,14.0,1.0,1.6,0.3,Time
,,S39,1,female,25,anonymized,Serial_Dependence_U,2023.2.3,Win32,59.52380952,,,,,,,,,,,,377.7628,0.0,377.7632,,,,380.1129,380.6124,379.5962,380.1128,378.7796,107.0,379.5961,380.6125,381.1125,381.1125,382.8459,1162.3,382.8462,5.0,383.8458,0.0,19.0,19.0,0.0,1.0,0.8,0.3,Time
,,S39,1,female,25,anonymized,Serial_Dependence_U,2023.2.3,Win32,59.52380952,,,,,,,,,,,,383.8462,0.0,383.8467,,,,386.9963,387.4959,386.4806,386.9963,384.8629,76.0,386.4795,387.4959,387.9958,387.9958,390.846,1034.8,390.8463,1.0,391.8459,0.0,20.0,20.0,9.0,1.0,1.6,0.7,Time
,,S39,1,female,25,anonymized,Serial_Dependence_U,2023.2.3,Win32,59.52380952,,,,,,,,,,,,391.8463,0.0,391.8467,,,,394.5964,395.0959,394.0797,394.5963,392.863,119.0,394.0796,395.096,395.5959,395.596,397.7961,1145.9,397.7964,3.0,398.7959,0.0,21.0,21.0,2.0,1.0,1.2,0.3,Time
,,S39,1,female,25,anonymized,Serial_Dependence_U,2023.2.3,Win32,59.52380952,,,,,,,,,,,,398.7964,0.0,398.7966,,,,401.1465,401.6459,400.6297,401.1464,399.8131,254.0,400.6297,401.6459,402.146,402.146,403.6795,956.4,403.6797,4.0,404.6793,0.0,22.0,22.0,10.0,1.0,0.8,0.3,Time
,,S39,1,female,25,anonymized,Serial_Dependence_U,2023.2.3,Win32,59.52380952,,,,,,,,,,,,404.6798,0.0,404.6803,,,,407.4299,407.9294,406.9131,407.4298,405.6964,277.0,406.9131,407.9294,408.4398,408.44,410.6011,1177.6,410.6013,3.0,411.5963,0.0,23.0,23.0,27.0,1.0,1.2,0.7,Time
,,S39,1,female,25,anonymized,Serial_Dependence_U,2023.2.3,Win32,59.52380952,,,,,,,,,,,,411.5982,0.0,411.5986,,,,414.5173,415.0128,414.0161,414.5171,412.6005,212.0,414.016,415.0131,415.5133,415.5138,418.8176,1300.1,418.8177,2.0,419.8132,0.0,24.0,24.0,8.0,1.0,1.4,0.7,Time
,,S39,1,female,25,anonymized,Serial_Dependence_U,2023.2.3,Win32,59.52380952,,,,,,,,,,,,419.8153,0.0,419.8156,,,,422.151,422.6466,421.6348,422.1509,420.8177,281.0,421.6346,422.6467,423.147,423.1472,427.7804,860.9,427.7819,4.0,428.7798,0.0,25.0,25.0,5.0,1.0,0.8,0.7,Time
,,S39,1,female,25,anonymized,Serial_Dependence_U,2023.2.3,Win32,59.52380952,,,,,,,,,,,,428.7816,0.0,428.7821,,,,431.3007,431.7964,430.7841,431.3007,429.7829,317.0,430.784,431.7965,432.2843,432.2843,435.2848,1266.6,435.2849,4.0,436.2837,0.0,26.0,26.0,6.0,1.0,1.0,0.7,Time
,,S39,1,female,25,anonymized,Serial_Dependence_U,2023.2.3,Win32,59.52380952,,,,,,,,,,,,436.2841,0.0,436.2842,,,,438.8184,439.3174,438.3017,438.8183,437.2851,264.0,438.3017,439.3174,439.8173,439.8173,442.502,1149.8,442.5021,4.0,443.5007,0.0,27.0,27.0,16.0,1.0,1.0,0.7,Time
,,S39,1,female,25,anonymized,Serial_Dependence_U,2023.2.3,Win32,59.52380952,,,,,,,,,,,,443.501,0.0,443.5012,,,,446.4351,446.934,445.9187,446.4351,444.5019,204.0,445.9186,446.934,447.434,447.4341,449.5189,1166.8,449.5191,2.0,450.5175,0.0,28.0,28.0,13.0,1.0,1.4,0.3,Time
,,S39,1,female,25,anonymized,Serial_Dependence_U,2023.2.3,Win32,59.52380952,,,,,,,,,,,,450.5178,0.0,450.5179,,,,452.8492,453.3465,452.3356,452.8487,451.5186,2.0,452.3349,453.3465,453.8467,453.847,455.7353,916.9,455.7354,4.0,456.73,0.0,29.0,29.0,25.0,1.0,0.8,0.7,Time
,,S39,1,female,25,anonymized,Serial_Dependence_U,2023.2.3,Win32,59.52380952,,,,,,,,,,,,456.7317,1.0,467.5642,s,10.8057,,469.8845,470.3801,469.3823,469.8845,468.5678,124.0,469.3821,470.3802,470.8839,470.884,472.9679,776.3,472.9681,3.0,473.9638,1.0,0.0,30.0,15.0,1.0,0.8,0.7,Time
,,S39,1,female,25,anonymized,Serial_Dependence_U,2023.2.3,Win32,59.52380952,,,,,,,,,,,,473.9656,1.0,473.9669,,,,476.5002,476.9968,475.9846,476.5001,474.9679,320.0,475.9845,476.9972,477.4972,477.4975,479.118,972.3,479.1182,3.0,480.1135,1.0,1.0,31.0,11.0,1.0,1.0,0.3,Time
,,S39,1,female,25,anonymized,Serial_Dependence_U,2023.2.3,Win32,59.52380952,,,,,,,,,,,,480.1156,1.0,480.1161,,,,483.0494,483.547,482.5346,483.0493,481.1168,51.0,482.5345,483.5472,484.0473,484.0476,486.6021,995.5,486.6023,2.0,487.597,1.0,2.0,32.0,28.0,1.0,1.4,0.7,Time
,,S39,1,female,25,anonymized,Serial_Dependence_U,2023.2.3,Win32,59.52380952,,,,,,,,,,,,487.5989,1.0,487.5994,,,,490.1501,490.647,489.6335,490.15,488.618,345.0,489.6334,490.6472,491.1474,491.1477,493.9187,1083.5,493.9187,4.0,494.9138,1.0,3.0,33.0,26.0,1.0,1.0,0.7,Time
,,S39,1,female,25,anonymized,Serial_Dependence_U,2023.2.3,Win32,59.52380952,,,,,,,,,,,,494.9157,1.0,494.9161,,,,498.0651,498.5637,497.5496,498.0647,495.9347,10.0,497.5493,498.564,499.0641,499.0643,501.3312,1254.8,501.3328,2.0,502.3315,1.0,4.0,34.0,4.0,1.0,1.6,0.3,Time
,,S39,1,female,25,anonymized,Serial_Dependence_U,2023.2.3,Win32,59.52380952,,,,,,,,,,,,502.3326,1.0,502.333,,,,505.4665,505.9638,504.9491,505.4662,503.3348,326.0,504.9488,505.964,506.464,506.4643,508.685,1466.7,508.6852,2.0,509.6811,1.0,5.0,35.0,14.0,1.0,1.6,0.3,Time
,,S39,1,female,25,anonymized,Serial_Dependence_U,2023.2.3,Win32,59.52380952,,,,,,,,,,,,509.6826,1.0,509.683,,,,512.2017,512.6981,511.685,512.2016,510.6837,294.0,511.6849,512.6983,513.1976,513.1978,514.9184,1174.8,514.9186,4.0,515.9142,1.0,6.0,36.0,1.0,1.0,1.0,0.3,Time
,,S39,1,female,25,anonymized,Serial_Dependence_U,2023.2.3,Win32,59.52380952,,,,,,,,,,,,515.916,1.0,515.9165,,,,519.0518,519.5474,518.5503,519.0517,516.9351,99.0,518.5502,519.5476,520.0497,520.0497,521.3524,758.8,521.3525,1.0,522.3479,1.0,7.0,37.0,9.0,1.0,1.6,0.7,Time
,,S39,1,female,25,anonymized,Serial_Dependence_U,2023.2.3,Win32,59.52380952,,,,,,,,,,,,522.3498,1.0,522.35,,,,525.0839,525.5807,524.5819,525.0838,523.3689,64.0,524.5816,525.5809,526.0811,526.0813,527.6185,967.9,527.6186,2.0,528.6142,1.0,8.0,38.0,27.0,1.0,1.2,0.7,Time
,,S39,1,female,25,anonymized,Serial_Dependence_U,2023.2.3,Win32,59.52380952,,,,,,,,,,,,528.6161,1.0,528.6167,,,,531.3504,531.8474,530.835,531.3504,529.6184,207.0,530.8349,531.8475,532.3479,532.3481,534.1025,900.1,534.1027,2.0,535.0976,1.0,9.0,39.0,7.0,1.0,1.2,0.7,Time
,,S39,1,female,25,anonymized,Serial_Dependence_U,2023.2.3,Win32,59.52380952,,,,,,,,,,,,535.0994,1.0,535.0998,,,,537.8186,538.3142,537.3168,537.8185,536.1019,58.0,537.3166,538.3145,538.8177,538.8178,541.5687,790.2,541.5688,1.0,542.5647,1.0,10.0,40.0,12.0,1.0,1.2,0.3,Time
,,S39,1,female,25,anonymized,Serial_Dependence_U,2023.2.3,Win32,59.52380952,,,,,,,,,,,,542.5664,1.0,542.5668,,,,545.0842,545.5809,544.5833,545.0842,543.5687,93.0,544.5833,545.5812,546.0809,546.0813,548.3023,1283.4,548.3024,4.0,549.2978,1.0,11.0,41.0,21.0,1.0,1.0,0.3,Time
,,S39,1,female,25,anonymized,Serial_Dependence_U,2023.2.3,Win32,59.52380952,,,,,,,,,,,,549.3,1.0,549.3002,,,,552.0332,552.5316,551.5188,552.0331,550.3021,141.0,551.5186,552.5319,553.0314,553.0319,555.119,1417.7,555.1191,4.0,556.1145,1.0,12.0,42.0,2.0,1.0,1.2,0.3,Time
,,S39,1,female,25,anonymized,Serial_Dependence_U,2023.2.3,Win32,59.52380952,,,,,,,,,,,,556.1162,1.0,556.1165,,,,558.4676,558.9645,557.9526,558.4675,557.1359,182.0,557.9525,558.9647,559.4644,559.4649,560.8344,481.5,560.8346,1.0,561.8312,1.0,13.0,43.0,0.0,1.0,0.8,0.3,Time
,,S39,1,female,25,anonymized,Serial_Dependence_U,2023.2.3,Win32,59.52380952,,,,,,,,,,,,561.8335,1.0,561.8337,,,,564.2023,564.6978,563.6855,564.2022,562.8343,113.0,563.6854,564.6979,565.1979,565.1981,567.5979,926.5,567.5982,4.0,568.5978,1.0,14.0,44.0,5.0,1.0,0.8,0.7,Time
,,S39,1,female,25,anonymized,Serial_Dependence_U,2023.2.3,Win32,59.52380952,,,,,,,,,,,,568.5982,1.0,568.5986,,,,571.5483,572.0478,571.0317,571.5482,569.615,306.0,571.0316,572.0478,572.5479,572.548,574.1481,823.5,574.1483,1.0,575.1478,1.0,15.0,45.0,18.0,1.0,1.4,0.7,Time
,,S39,1,female,25,anonymized,Serial_Dependence_U,2023.2.3,Win32,59.52380952,,,,,,,,,,,,575.1482,1.0,575.1484,,,,577.8984,578.3979,577.3817,577.8984,576.165,54.0,577.3816,578.3979,578.8979,578.898,580.3815,833.7,580.3817,1.0,581.3813,1.0,16.0,46.0,22.0,1.0,1.2,0.3,Time
,,S39,1,female,25,anonymized,Serial_Dependence_U,2023.2.3,Win32,59.52380952,,,,,,,,,,,,581.3817,1.0,581.3822,,,,583.7318,584.2313,583.215,583.7317,582.3985,30.0,583.215,584.2313,584.7313,584.7313,586.9315,1384.6,586.9318,5.0,587.9314,1.0,17.0,47.0,25.0,1.0,0.8,0.7,Time
,,S39,1,female,25,anonymized,Serial_Dependence_U,2023.2.3,Win32,59.52380952,,,,,,,,,,,,587.9318,1.0,587.9322,,,,591.0818,591.5813,590.5652,591.0818,588.9485,180.0,590.5651,591.5813,592.0813,592.0814,593.465,860.7,593.4652,1.0,594.4647,1.0,18.0,48.0,29.0,1.0,1.6,0.7,Time
,,S39,1,female,25,anonymized,Serial_Dependence_U,2023.2.3,Win32,59.52380952,,,,,,,,,,,,594.4652,1.0,594.4656,,,,597.4154,597.9147,596.8986,597.4154,595.482,223.0,596.8985,597.9148,598.4148,598.4148,602.5484,1034.1,602.5487,2.0,603.5482,1.0,19.0,49.0,23.0,1.0,1.4,0.3,Time
,,S39,1,female,25,anonymized,Serial_Dependence_U,2023.2.3,Win32,59.52380952,,,,,,,,,,,,603.5486,1.0,603.5488,,,,605.8987,606.3982,605.382,605.8986,604.5655,157.0,605.382,606.3982,606.8982,606.8983,610.2818,1213.2,610.282,5.0,611.2815,1.0,20.0,50.0,10.0,1.0,0.8,0.3,Time
,,S39,1,female,25,anonymized,Serial_Dependence_U,2023.2.3,Win32,59.52380952,,,,,,,,,,,,611.2821,1.0,611.2823,,,,614.2322,614.7316,613.7153,614.2321,612.2987,178.0,613.7153,614.7317,615.2316,615.2317,618.5984,1049.4,618.5988,2.0,619.5983,1.0,21.0,51.0,13.0,1.0,1.4,0.3,Time
,,S39,1,female,25,anonymized,Serial_Dependence_U,2023.2.3,Win32,59.52380952,,,,,,,,,,,,619.5988,1.0,619.599,,,,622.1489,622.6486,621.6321,622.1488,620.6155,187.0,621.632,622.6487,623.1484,623.1485,626.0821,893.9,626.0823,2.0,627.0818,1.0,22.0,52.0,6.0,1.0,1.0,0.7,Time
,,S39,1,female,25,anonymized,Serial_Dependence_U,2023.2.3,Win32,59.52380952,,,,,,,,,,,,627.0823,1.0,627.0827,,,,630.0323,630.5318,629.5156,630.0322,628.0989,201.0,629.5156,630.5318,631.0318,631.0318,634.3488,901.9,634.349,1.0,635.3485,1.0,23.0,53.0,3.0,1.0,1.4,0.3,Time
,,S39,1,female,25,anonymized,Serial_Dependence_U,2023.2.3,Win32,59.52380952,,,,,,,,,,,,635.3489,1.0,635.3493,,,,638.4991,638.9985,637.9824,638.499,636.3657,79.0,637.9823,638.9985,639.4986,639.4986,641.7321,740.2,641.7324,1.0,642.7319,1.0,24.0,54.0,19.0,1.0,1.6,0.7,Time
,,S39,1,female,25,anonymized,Serial_Dependence_U,2023.2.3,Win32,59.52380952,,,,,,,,,,,,642.7326,1.0,642.7329,,,,645.8824,646.3819,645.3658,645.8824,643.7491,170.0,645.3657,646.382,646.882,646.8821,648.5155,1039.8,648.5158,1.0,649.5154,1.0,25.0,55.0,24.0,1.0,1.6,0.3,Time
,,S39,1,female,25,anonymized,Serial_Dependence_U,2023.2.3,Win32,59.52380952,,,,,,,,,,,,649.5158,1.0,649.5163,,,,652.4659,652.9653,651.95,652.4658,650.5326,136.0,651.9491,652.9654,653.4654,653.4655,655.0656,850.9,655.0659,1.0,656.0654,1.0,26.0,56.0,8.0,1.0,1.4,0.7,Time
,,S39,1,female,25,anonymized,Serial_Dependence_U,2023.2.3,Win32,59.52380952,,,,,,,,,,,,656.0659,1.0,656.0662,,,,658.8019,659.2988,658.287,658.8018,657.0846,96.0,658.2869,659.2989,659.7989,659.7989,663.0707,1150.1,663.0709,3.0,664.0659,1.0,27.0,57.0,17.0,1.0,1.2,0.7,Time
,,S39,1,female,25,anonymized,Serial_Dependence_U,2023.2.3,Win32,59.52380952,,,,,,,,,,,,664.0679,1.0,664.0681,,,,666.4014,666.8989,665.8871,666.401,665.0688,83.0,665.8871,666.899,667.3989,667.3991,670.0874,1066.5,670.0875,5.0,671.0828,1.0,28.0,58.0,20.0,1.0,0.8,0.3,Time
,,S39,1,female,25,anonymized,Serial_Dependence_U,2023.2.3,Win32,59.52380952,,,,,,,,,,,,671.0843,1.0,671.0849,,,,673.601,674.099,673.0872,673.6006,672.0854,269.0,673.0871,674.0991,674.599,674.5993,676.4374,1137.9,676.4375,4.0,677.4327,1.0,29.0,59.0,16.0,1.0,1.0,0.7,Time
,,S39,1,female,25,anonymized,Serial_Dependence_U,2023.2.3,Win32,59.52380952,,,,,,,,,,,,677.4349,2.0,692.0174,s,14.5611,,695.1527,695.6497,694.637,695.1527,693.019,122.0,694.6369,695.6498,696.1493,696.1496,698.6205,916.7,698.6207,1.0,699.6161,2.0,0.0,60.0,14.0,1.0,1.6,0.3,Time
,,S39,1,female,25,anonymized,Serial_Dependence_U,2023.2.3,Win32,59.52380952,,,,,,,,,,,,699.6181,2.0,699.6193,,,,702.1371,702.6334,701.6349,702.137,700.6208,355.0,701.6347,702.6336,703.1328,703.1332,706.2046,1033.5,706.2047,3.0,707.1994,2.0,1.0,61.0,26.0,1.0,1.0,0.7,Time
,,S39,1,female,25,anonymized,Serial_Dependence_U,2023.2.3,Win32,59.52380952,,,,,,,,,,,,707.2014,2.0,707.2017,,,,710.1193,710.6161,709.6172,710.1192,708.2042,323.0,709.6171,710.6162,711.1203,711.1203,713.5047,1000.0,713.5048,2.0,714.4997,2.0,2.0,62.0,8.0,1.0,1.4,0.7,Time
,,S39,1,female,25,anonymized,Serial_Dependence_U,2023.2.3,Win32,59.52380952,,,,,,,,,,,,714.5016,2.0,714.5019,,,,716.8379,717.3331,716.335,716.8377,715.521,111.0,716.3347,717.3333,717.8331,717.8334,722.704,766.5,722.7041,3.0,723.6996,2.0,3.0,63.0,10.0,1.0,0.8,0.3,Time
,,S39,1,female,25,anonymized,Serial_Dependence_U,2023.2.3,Win32,59.52380952,,,,,,,,,,,,723.7016,2.0,723.702,,,,726.4355,726.9329,725.9205,726.4351,724.7038,321.0,725.9204,726.9332,727.4333,727.4336,730.0876,1075.8,730.0877,2.0,731.0833,2.0,4.0,64.0,2.0,1.0,1.2,0.3,Time
,,S39,1,female,25,anonymized,Serial_Dependence_U,2023.2.3,Win32,59.52380952,,,,,,,,,,,,731.0851,2.0,731.0856,,,,734.2207,734.7163,733.7013,734.2207,732.0872,93.0,733.7008,734.7165,735.22,735.22,737.6375,878.7,737.6376,1.0,738.6335,2.0,5.0,65.0,29.0,1.0,1.6,0.7,Time
,,S39,1,female,25,anonymized,Serial_Dependence_U,2023.2.3,Win32,59.52380952,,,,,,,,,,,,738.635,2.0,738.6355,,,,741.169,741.6664,740.6541,741.169,739.6363,19.0,740.654,741.6667,742.17,742.1701,744.5543,1299.8,744.5544,4.0,745.5534,2.0,6.0,66.0,6.0,1.0,1.0,0.7,Time
,,S39,1,female,25,anonymized,Serial_Dependence_U,2023.2.3,Win32,59.52380952,,,,,,,,,,,,745.5538,2.0,745.5539,,,,748.0865,748.5831,747.569,748.0864,746.5531,26.0,747.5689,748.5832,749.0834,749.0837,753.6376,1499.9,753.6378,5.0,754.6335,2.0,7.0,67.0,11.0,1.0,1.0,0.3,Time
,,S39,1,female,25,anonymized,Serial_Dependence_U,2023.2.3,Win32,59.52380952,,,,,,,,,,,,754.6357,2.0,754.6358,,,,757.771,758.2668,757.2548,757.7709,755.6365,313.0,757.2547,758.267,758.767,758.7672,762.0554,1517.1,762.0556,2.0,763.0503,2.0,8.0,68.0,4.0,1.0,1.6,0.3,Time
,,S39,1,female,25,anonymized,Serial_Dependence_U,2023.2.3,Win32,59.52380952,,,,,,,,,,,,763.052,2.0,763.0525,,,,765.3846,765.884,764.8716,765.3844,764.0549,241.0,764.8715,765.8841,766.3836,766.3838,769.5716,1283.0,769.5718,5.0,770.5669,2.0,9.0,69.0,25.0,1.0,0.8,0.7,Time
,,S39,1,female,25,anonymized,Serial_Dependence_U,2023.2.3,Win32,59.52380952,,,,,,,,,,,,770.5688,2.0,770.5692,,,,773.1034,773.6002,772.5883,773.1033,771.5717,116.0,772.5883,773.6005,774.1001,774.1004,777.172,1462.0,777.1722,5.0,778.1668,2.0,10.0,70.0,1.0,1.0,1.0,0.3,Time
,,S39,1,female,25,anonymized,Serial_Dependence_U,2023.2.3,Win32,59.52380952,,,,,,,,,,,,778.1691,2.0,778.1694,,,,781.1051,781.6003,780.5857,781.105,779.1718,41.0,780.5852,781.6005,782.1006,782.1009,784.3379,1734.4,784.338,4.0,785.334,2.0,11.0,71.0,18.0,1.0,1.4,0.7,Time
,,S39,1,female,25,anonymized,Serial_Dependence_U,2023.2.3,Win32,59.52380952,,,,,,,,,,,,785.3356,2.0,785.336,,,,787.6702,788.1669,787.1549,787.6701,786.3379,304.0,787.1548,788.1671,788.6669,788.6672,793.5888,1333.3,793.5889,5.0,794.5837,2.0,12.0,72.0,0.0,1.0,0.8,0.3,Time
,,S39,1,female,25,anonymized,Serial_Dependence_U,2023.2.3,Win32,59.52380952,,,,,,,,,,,,794.5857,2.0,794.5861,,,,796.9219,797.417,796.4194,796.9218,795.6053,345.0,796.4191,797.4172,797.9171,797.9174,800.5223,1400.0,800.5225,5.0,801.5174,2.0,13.0,73.0,20.0,1.0,0.8,0.3,Time
,,S39,1,female,25,anonymized,Serial_Dependence_U,2023.2.3,Win32,59.52380952,,,,,,,,,,,,801.5193,2.0,801.5196,,,,803.8386,804.3339,803.337,803.8385,802.522,86.0,803.3369,804.334,804.8338,804.8341,806.9882,1266.0,806.9883,5.0,807.9839,2.0,14.0,74.0,15.0,1.0,0.8,0.7,Time
,,S39,1,female,25,anonymized,Serial_Dependence_U,2023.2.3,Win32,59.52380952,,,,,,,,,,,,807.9859,2.0,807.9863,,,,810.7217,811.2172,810.2048,810.7216,808.987,327.0,810.2048,811.2175,811.7171,811.7173,815.922,1183.4,815.922,3.0,816.9178,2.0,15.0,75.0,27.0,1.0,1.2,0.7,Time
,,S39,1,female,25,anonymized,Serial_Dependence_U,2023.2.3,Win32,59.52380952,,,,,,,,,,,,816.9194,2.0,816.9198,,,,819.8552,820.3508,819.3366,819.8551,817.9216,42.0,819.3362,820.3509,820.8506,820.8506,823.2554,1589.2,823.2556,4.0,824.2508,2.0,16.0,76.0,13.0,1.0,1.4,0.3,Time
,,S39,1,female,25,anonymized,Serial_Dependence_U,2023.2.3,Win32,59.52380952,,,,,,,,,,,,824.2527,2.0,824.2531,,,,827.004,827.5007,826.4889,827.004,825.2717,293.0,826.4888,827.5007,828.0008,828.0011,831.9723,1351.6,831.9725,4.0,832.9675,2.0,17.0,77.0,12.0,1.0,1.2,0.3,Time
,,S39,1,female,25,anonymized,Serial_Dependence_U,2023.2.3,Win32,59.52380952,,,,,,,,,,,,832.9697,2.0,832.97,,,,835.7029,836.2044,835.1896,835.7025,833.9723,225.0,835.1888,836.2045,836.7013,836.7015,837.8681,516.9,837.869,1.0,838.8677,2.0,18.0,78.0,17.0,1.0,1.2,0.7,Time
,,S39,1,female,25,anonymized,Serial_Dependence_U,2023.2.3,Win32,59.52380952,,,,,,,,,,,,838.8694,2.0,838.8699,,,,842.006,842.501,841.4868,842.0059,839.8724,326.0,841.486,842.5012,843.0009,843.0011,845.4562,1198.1,845.4564,2.0,846.4509,2.0,19.0,79.0,19.0,1.0,1.6,0.7,Time
,,S39,1,female,25,anonymized,Serial_Dependence_U,2023.2.3,Win32,59.52380952,,,,,,,,,,,,846.4527,2.0,846.4533,,,,849.6059,850.101,849.0864,849.6059,847.4725,303.0,849.0859,850.101,850.6009,850.601,853.3228,1233.3,853.3229,2.0,854.3177,2.0,20.0,80.0,24.0,1.0,1.6,0.3,Time
,,S39,1,female,25,anonymized,Serial_Dependence_U,2023.2.3,Win32,59.52380952,,,,,,,,,,,,854.3198,2.0,854.3202,,,,856.8555,857.3512,856.3387,856.8555,855.3219,248.0,856.3386,857.3514,857.8513,857.8516,859.7891,1116.6,859.7892,4.0,860.7846,2.0,21.0,81.0,16.0,1.0,1.0,0.7,Time
,,S39,1,female,25,anonymized,Serial_Dependence_U,2023.2.3,Win32,59.52380952,,,,,,,,,,,,860.7866,2.0,860.7869,,,,863.5249,864.0178,863.02,863.5249,861.806,37.0,863.0199,864.0181,864.5177,864.5179,867.8558,1182.8,867.8559,3.0,868.8515,2.0,22.0,82.0,22.0,1.0,1.2,0.3,Time
,,S39,1,female,25,anonymized,Serial_Dependence_U,2023.2.3,Win32,59.52380952,,,,,,,,,,,,868.8535,2.0,868.8537,,,,871.6055,872.1012,871.0878,871.6054,869.8722,25.0,871.0877,872.1013,872.6012,872.6017,875.3223,1167.7,875.3224,3.0,876.3181,2.0,23.0,83.0,7.0,1.0,1.2,0.7,Time
,,S39,1,female,25,anonymized,Serial_Dependence_U,2023.2.3,Win32,59.52380952,,,,,,,,,,,,876.3201,2.0,876.3205,,,,879.4725,879.968,878.9556,879.4724,877.3389,217.0,878.9556,879.9682,880.4679,880.4681,884.3065,1461.5,884.3067,2.0,885.3018,2.0,24.0,84.0,9.0,1.0,1.6,0.7,Time
,,S39,1,female,25,anonymized,Serial_Dependence_U,2023.2.3,Win32,59.52380952,,,,,,,,,,,,885.3037,2.0,885.3039,,,,887.8395,888.3373,887.3235,887.8395,886.3064,333.0,887.3228,888.3373,888.8347,888.8351,891.1227,1332.9,891.1229,5.0,892.1181,2.0,25.0,85.0,21.0,1.0,1.0,0.3,Time
,,S39,1,female,25,anonymized,Serial_Dependence_U,2023.2.3,Win32,59.52380952,,,,,,,,,,,,892.1201,2.0,892.1206,,,,894.4558,894.955,893.9391,894.4557,893.1224,343.0,893.939,894.955,895.4515,895.4518,899.5731,1684.8,899.5732,5.0,900.5683,2.0,26.0,86.0,5.0,1.0,0.8,0.7,Time
,,S39,1,female,25,anonymized,Serial_Dependence_U,2023.2.3,Win32,59.52380952,,,,,,,,,,,,900.5701,2.0,900.5705,,,,903.4898,903.9848,902.988,903.4896,901.5731,232.0,902.988,903.9849,904.4849,904.4851,906.4897,1626.6,906.4899,4.0,907.4849,2.0,27.0,87.0,23.0,1.0,1.4,0.3,Time
,,S39,1,female,25,anonymized,Serial_Dependence_U,2023.2.3,Win32,59.52380952,,,,,,,,,,,,907.487,2.0,907.4875,,,,910.4215,910.9217,909.9058,910.4213,908.4892,256.0,909.9057,910.9217,911.4186,911.4188,914.503,187.1,914.5038,1.0,915.5017,2.0,28.0,88.0,3.0,1.0,1.4,0.3,Time
,,S39,1,female,25,anonymized,Serial_Dependence_U,2023.2.3,Win32,59.52380952,,,,,,,,,,,,915.5037,2.0,915.5042,,,,918.421,918.9183,917.9061,918.4207,916.505,227.0,917.906,918.9186,919.4185,919.4188,921.123,1050.2,921.1232,2.0,922.1184,2.0,29.0,89.0,28.0,1.0,1.4,0.7,Time
,,S39,1,female,25,anonymized,Serial_Dependence_U,2023.2.3,Win32,59.52380952,,,,,,,,,,,,922.1205,3.0,1042.6208,s,120.4755,,1045.5575,1046.0532,1045.0553,1045.5573,1043.6407,260.0,1045.0552,1046.0535,1046.5531,1046.5535,1048.1915,1083.4,1048.1916,2.0,1049.189,3.0,0.0,90.0,13.0,1.0,1.4,0.3,Time
,,S39,1,female,25,anonymized,Serial_Dependence_U,2023.2.3,Win32,59.52380952,,,,,,,,,,,,1049.1894,3.0,1049.1903,,,,1051.9386,1052.4366,1051.4245,1051.9384,1050.2057,55.0,1051.4244,1052.4368,1052.9373,1052.9375,1054.9091,1395.4,1054.9092,4.0,1055.9033,3.0,1.0,91.0,22.0,1.0,1.2,0.3,Time
,,S39,1,female,25,anonymized,Serial_Dependence_U,2023.2.3,Win32,59.52380952,,,,,,,,,,,,1055.9052,3.0,1055.9056,,,,1059.0396,1059.5366,1058.5248,1059.0396,1056.9064,142.0,1058.5248,1059.5366,1060.0366,1060.0368,1062.375,1034.8,1062.3751,1.0,1063.37,3.0,2.0,92.0,4.0,1.0,1.6,0.3,Time
,,S39,1,female,25,anonymized,Serial_Dependence_U,2023.2.3,Win32,59.52380952,,,,,,,,,,,,1063.372,3.0,1063.3725,,,,1066.1249,1066.6202,1065.6055,1066.1248,1064.3915,37.0,1065.6053,1066.6203,1067.1201,1067.1203,1068.9251,1016.5,1068.9252,2.0,1069.9202,3.0,3.0,93.0,12.0,1.0,1.2,0.3,Time
,,S39,1,female,25,anonymized,Serial_Dependence_U,2023.2.3,Win32,59.52380952,,,,,,,,,,,,1069.922,3.0,1069.9225,,,,1072.8582,1073.3534,1072.3401,1072.8582,1070.9392,259.0,1072.34,1073.3535,1073.8534,1073.8536,1075.5749,1233.4,1075.575,2.0,1076.5704,3.0,4.0,94.0,28.0,1.0,1.4,0.7,Time
,,S39,1,female,25,anonymized,Serial_Dependence_U,2023.2.3,Win32,59.52380952,,,,,,,,,,,,1076.5725,3.0,1076.5727,,,,1078.9078,1079.4036,1078.3898,1078.9078,1077.5745,220.0,1078.3896,1079.4038,1079.9035,1079.9038,1080.6418,390.9,1080.6419,1.0,1081.6369,3.0,5.0,95.0,10.0,1.0,0.8,0.3,Time
,,S39,1,female,25,anonymized,Serial_Dependence_U,2023.2.3,Win32,59.52380952,,,,,,,,,,,,1081.6391,3.0,1081.6393,,,,1084.3745,1084.8702,1083.8559,1084.3744,1082.6413,99.0,1083.8558,1084.8705,1085.3703,1085.3706,1086.9581,1116.8,1086.9583,2.0,1087.9535,3.0,6.0,96.0,7.0,1.0,1.2,0.7,Time
,,S39,1,female,25,anonymized,Serial_Dependence_U,2023.2.3,Win32,59.52380952,,,,,,,,,,,,1087.9553,3.0,1087.9558,,,,1090.4891,1090.987,1089.9746,1090.489,1088.9579,265.0,1089.9745,1090.9872,1091.4868,1091.4871,1093.2746,1183.1,1093.275,4.0,1094.2707,3.0,7.0,97.0,11.0,1.0,1.0,0.3,Time
,,S39,1,female,25,anonymized,Serial_Dependence_U,2023.2.3,Win32,59.52380952,,,,,,,,,,,,1094.2723,3.0,1094.2727,,,,1096.6082,1097.1037,1096.0915,1096.6082,1095.2735,136.0,1096.0914,1097.1039,1097.6044,1097.6048,1100.0585,1116.9,1100.0586,5.0,1101.0544,3.0,8.0,98.0,5.0,1.0,0.8,0.7,Time
,,S39,1,female,25,anonymized,Serial_Dependence_U,2023.2.3,Win32,59.52380952,,,,,,,,,,,,1101.0558,3.0,1101.0561,,,,1103.373,1103.8709,1102.8582,1103.3727,1102.0569,242.0,1102.858,1103.871,1104.3704,1104.3706,1106.1091,1000.0,1106.1092,4.0,1107.104,3.0,9.0,99.0,20.0,1.0,0.8,0.3,Time
,,S39,1,female,25,anonymized,Serial_Dependence_U,2023.2.3,Win32,59.52380952,,,,,,,,,,,,1107.1057,3.0,1107.1061,,,,1109.6571,1110.1544,1109.1394,1109.657,1108.1249,246.0,1109.1393,1110.1546,1110.654,1110.6542,1113.292,1051.9,1113.2922,4.0,1114.2913,3.0,10.0,100.0,6.0,1.0,1.0,0.7,Time
,,S39,1,female,25,anonymized,Serial_Dependence_U,2023.2.3,Win32,59.52380952,,,,,,,,,,,,1114.2917,3.0,1114.2918,,,,1117.024,1117.521,1116.5086,1117.024,1115.2916,324.0,1116.5085,1117.5211,1118.021,1118.0213,1121.0587,1249.7,1121.0588,3.0,1122.0556,3.0,11.0,101.0,17.0,1.0,1.2,0.7,Time
,,S39,1,female,25,anonymized,Serial_Dependence_U,2023.2.3,Win32,59.52380952,,,,,,,,,,,,1122.0568,3.0,1122.057,,,,1124.5922,1125.0873,1124.0734,1124.5921,1123.0585,289.0,1124.0733,1125.0875,1125.5873,1125.5875,1127.9585,956.4,1127.9586,3.0,1128.9541,3.0,12.0,102.0,26.0,1.0,1.0,0.7,Time
,,S39,1,female,25,anonymized,Serial_Dependence_U,2023.2.3,Win32,59.52380952,,,,,,,,,,,,1128.9562,3.0,1128.9567,,,,1131.3082,1131.8041,1130.7917,1131.3082,1129.9751,35.0,1130.7916,1131.8043,1132.3041,1132.3044,1135.1755,1177.3,1135.1756,5.0,1136.1708,3.0,13.0,103.0,0.0,1.0,0.8,0.3,Time
,,S39,1,female,25,anonymized,Serial_Dependence_U,2023.2.3,Win32,59.52380952,,,,,,,,,,,,1136.1728,3.0,1136.1732,,,,1138.7078,1139.2043,1138.1917,1138.7078,1137.174,171.0,1138.1916,1139.2045,1139.7042,1139.7045,1141.1093,880.1,1141.1094,2.0,1142.1043,3.0,14.0,104.0,21.0,1.0,1.0,0.3,Time
,,S39,1,female,25,anonymized,Serial_Dependence_U,2023.2.3,Win32,59.52380952,,,,,,,,,,,,1142.1062,3.0,1142.1066,,,,1144.8407,1145.3378,1144.3242,1144.8406,1143.1087,62.0,1144.3241,1145.3379,1145.8375,1145.8377,1147.1587,779.9,1147.1588,1.0,1148.1543,3.0,15.0,105.0,2.0,1.0,1.2,0.3,Time
,,S39,1,female,25,anonymized,Serial_Dependence_U,2023.2.3,Win32,59.52380952,,,,,,,,,,,,1148.1564,3.0,1148.1568,,,,1151.2753,1151.7709,1150.7724,1151.2753,1149.1587,287.0,1150.7719,1151.7712,1152.271,1152.2713,1154.3422,1233.3,1154.3423,2.0,1155.3377,3.0,16.0,106.0,19.0,1.0,1.6,0.7,Time
,,S39,1,female,25,anonymized,Serial_Dependence_U,2023.2.3,Win32,59.52380952,,,,,,,,,,,,1155.3397,3.0,1155.3402,,,,1158.0587,1158.5543,1157.5569,1158.0586,1156.3419,133.0,1157.5567,1158.5544,1159.0546,1159.0548,1160.4759,734.7,1160.476,1.0,1161.4715,3.0,17.0,107.0,27.0,1.0,1.2,0.7,Time
,,S39,1,female,25,anonymized,Serial_Dependence_U,2023.2.3,Win32,59.52380952,,,,,,,,,,,,1161.4731,3.0,1161.4733,,,,1163.8086,1164.3044,1163.2899,1163.8086,1162.4759,325.0,1163.2898,1164.3046,1164.8044,1164.8046,1167.4091,928.0,1167.4092,4.0,1168.4045,3.0,18.0,108.0,25.0,1.0,0.8,0.7,Time
,,S39,1,female,25,anonymized,Serial_Dependence_U,2023.2.3,Win32,59.52380952,,,,,,,,,,,,1168.4065,3.0,1168.4069,,,,1171.3421,1171.8379,1170.825,1171.3419,1169.4092,54.0,1170.825,1171.8382,1172.3381,1172.3384,1174.0426,933.3,1174.0427,1.0,1175.038,3.0,19.0,109.0,23.0,1.0,1.4,0.3,Time
,,S39,1,female,25,anonymized,Serial_Dependence_U,2023.2.3,Win32,59.52380952,,,,,,,,,,,,1175.0398,3.0,1175.0402,,,,1178.1754,1178.6713,1177.6588,1178.1754,1176.0422,340.0,1177.6588,1178.6714,1179.1715,1179.1719,1180.9555,1056.7,1180.9567,1.0,1181.955,3.0,20.0,110.0,9.0,1.0,1.6,0.7,Time
,,S39,1,female,25,anonymized,Serial_Dependence_U,2023.2.3,Win32,59.52380952,,,,,,,,,,,,1181.9568,3.0,1181.9571,,,,1185.0756,1185.5715,1184.5589,1185.0756,1182.9579,163.0,1184.5589,1185.5718,1186.075,1186.075,1188.2426,995.9,1188.2427,1.0,1189.2385,3.0,21.0,111.0,29.0,1.0,1.6,0.7,Time
,,S39,1,female,25,anonymized,Serial_Dependence_U,2023.2.3,Win32,59.52380952,,,,,,,,,,,,1189.2407,3.0,1189.241,,,,1191.7758,1192.2715,1191.274,1191.7758,1190.2591,289.0,1191.2737,1192.2717,1192.7717,1192.772,1195.0092,966.0,1195.0093,3.0,1196.005,3.0,22.0,112.0,16.0,1.0,1.0,0.7,Time
,,S39,1,female,25,anonymized,Serial_Dependence_U,2023.2.3,Win32,59.52380952,,,,,,,,,,,,1196.0066,3.0,1196.0072,,,,1198.5593,1199.0548,1198.0405,1198.5592,1197.0259,66.0,1198.0404,1199.055,1199.5548,1199.5551,1201.3431,912.4,1201.3432,2.0,1202.3382,3.0,23.0,113.0,1.0,1.0,1.0,0.3,Time
,,S39,1,female,25,anonymized,Serial_Dependence_U,2023.2.3,Win32,59.52380952,,,,,,,,,,,,1202.3403,3.0,1202.3406,,,,1205.2729,1205.7715,1204.7592,1205.2725,1203.3414,184.0,1204.7592,1205.7716,1206.2716,1206.2718,1206.5095,209.8,1206.5096,1.0,1207.5048,3.0,24.0,114.0,18.0,1.0,1.4,0.7,Time
,,S39,1,female,25,anonymized,Serial_Dependence_U,2023.2.3,Win32,59.52380952,,,,,,,,,,,,1207.5067,3.0,1207.507,,,,1210.6594,1211.1552,1210.1427,1210.6593,1208.5262,92.0,1210.1426,1211.1553,1211.6552,1211.6554,1213.6928,812.3,1213.6929,1.0,1214.6885,3.0,25.0,115.0,24.0,1.0,1.6,0.3,Time
,,S39,1,female,25,anonymized,Serial_Dependence_U,2023.2.3,Win32,59.52380952,,,,,,,,,,,,1214.6903,3.0,1214.6907,,,,1217.0428,1217.5383,1216.525,1217.0428,1215.7094,334.0,1216.5248,1217.5383,1218.0385,1218.0388,1219.6599,1128.1,1219.6601,5.0,1220.6585,3.0,26.0,116.0,15.0,1.0,0.8,0.7,Time
,,S39,1,female,25,anonymized,Serial_Dependence_U,2023.2.3,Win32,59.52380952,,,,,,,,,,,,1220.6589,3.0,1220.6591,,,,1223.576,1224.0718,1223.074,1223.5759,1221.6594,113.0,1223.0736,1224.072,1224.5748,1224.5748,1229.61,1033.7,1229.6102,2.0,1230.6054,3.0,27.0,117.0,3.0,1.0,1.4,0.3,Time
,,S39,1,female,25,anonymized,Serial_Dependence_U,2023.2.3,Win32,59.52380952,,,,,,,,,,,,1230.6071,3.0,1230.6076,,,,1233.5433,1234.0385,1233.024,1233.5432,1231.6095,65.0,1233.0238,1234.0386,1234.5386,1234.5389,1237.3264,1167.9,1237.3265,2.0,1238.3221,3.0,28.0,118.0,8.0,1.0,1.4,0.7,Time
,,S39,1,female,25,anonymized,Serial_Dependence_U,2023.2.3,Win32,59.52380952,,,,,,,,,,,,1238.324,3.0,1238.3245,,,,1241.46,1241.9552,1240.9435,1241.4599,1239.3261,67.0,1240.9433,1241.9554,1242.4557,1242.4561,1245.3263,1287.7,1245.3265,2.0,1246.3222,3.0,29.0,119.0,14.0,1.0,1.6,0.3,Time
,,S39,1,female,25,anonymized,Serial_Dependence_U,2023.2.3,Win32,59.52380952,,,,,,,,,,,,1246.3239,4.0,1302.0906,s,55.7402,,1304.8103,1305.3061,1304.3084,1304.8101,1303.094,208.0,1304.3083,1305.3063,1305.8063,1305.8064,1307.3272,784.5,1307.3274,1.0,1308.3227,4.0,0.0,120.0,17.0,1.0,1.2,0.7,Time
,,S39,1,female,25,anonymized,Serial_Dependence_U,2023.2.3,Win32,59.52380952,,,,,,,,,,,,1308.3247,4.0,1308.3262,,,,1311.0592,1311.5559,1310.5437,1311.0592,1309.3259,121.0,1310.5437,1311.5561,1312.0561,1312.0564,1313.6937,892.1,1313.6938,2.0,1314.6896,4.0,1.0,121.0,27.0,1.0,1.2,0.7,Time
,,S39,1,female,25,anonymized,Serial_Dependence_U,2023.2.3,Win32,59.52380952,,,,,,,,,,,,1314.6914,4.0,1314.6918,,,,1317.6421,1318.14,1317.1249,1317.6418,1315.7104,44.0,1317.1248,1318.1401,1318.6429,1318.643,1320.5774,1283.5,1320.5776,2.0,1321.5728,4.0,2.0,122.0,28.0,1.0,1.4,0.7,Time
,,S39,1,female,25,anonymized,Serial_Dependence_U,2023.2.3,Win32,59.52380952,,,,,,,,,,,,1321.5751,4.0,1321.5753,,,,1324.7105,1325.2061,1324.1939,1324.7104,1322.5765,38.0,1324.1938,1325.2062,1325.7065,1325.7067,1327.3108,1008.8,1327.3108,1.0,1328.3065,4.0,3.0,123.0,24.0,1.0,1.6,0.3,Time
,,S39,1,female,25,anonymized,Serial_Dependence_U,2023.2.3,Win32,59.52380952,,,,,,,,,,,,1328.3082,4.0,1328.3086,,,,1331.0422,1331.54,1330.5256,1331.0419,1329.3106,300.0,1330.5252,1331.5402,1332.0399,1332.0401,1333.6447,1133.7,1333.6448,2.0,1334.6396,4.0,4.0,124.0,22.0,1.0,1.2,0.3,Time
,,S39,1,female,25,anonymized,Serial_Dependence_U,2023.2.3,Win32,59.52380952,,,,,,,,,,,,1334.6415,4.0,1334.6419,,,,1337.7929,1338.2896,1337.2755,1337.7928,1335.6607,205.0,1337.2755,1338.2899,1338.79,1338.7903,1340.3942,972.4,1340.3943,1.0,1341.3896,4.0,5.0,125.0,14.0,1.0,1.6,0.3,Time
,,S39,1,female,25,anonymized,Serial_Dependence_U,2023.2.3,Win32,59.52380952,,,,,,,,,,,,1341.3917,4.0,1341.3921,,,,1344.3442,1344.8433,1343.8256,1344.344,1342.4108,240.0,1343.8254,1344.8433,1345.3399,1345.3401,1347.1947,833.3,1347.1949,1.0,1348.1901,4.0,6.0,126.0,3.0,1.0,1.4,0.3,Time
,,S39,1,female,25,anonymized,Serial_Dependence_U,2023.2.3,Win32,59.52380952,,,,,,,,,,,,1348.1918,4.0,1348.1921,,,,1351.1262,1351.6232,1350.6113,1351.1261,1349.1947,226.0,1350.6112,1351.6235,1352.1234,1352.1236,1353.5111,801.2,1353.5113,1.0,1354.5065,4.0,7.0,127.0,8.0,1.0,1.4,0.7,Time
,,S39,1,female,25,anonymized,Serial_Dependence_U,2023.2.3,Win32,59.52380952,,,,,,,,,,,,1354.5088,4.0,1354.5091,,,,1357.0444,1357.5402,1356.5284,1357.0443,1355.5108,162.0,1356.5282,1357.5405,1358.0403,1358.0404,1359.861,1116.3,1359.861,4.0,1360.8567,4.0,8.0,128.0,26.0,1.0,1.0,0.7,Time
,,S39,1,female,25,anonymized,Serial_Dependence_U,2023.2.3,Win32,59.52380952,,,,,,,,,,,,1360.8585,4.0,1360.8589,,,,1363.5948,1364.09,1363.0781,1363.5947,1361.8638,287.0,1363.078,1364.0901,1364.5901,1364.5905,1366.2284,1200.1,1366.2285,3.0,1367.2235,4.0,9.0,129.0,2.0,1.0,1.2,0.3,Time
,,S39,1,female,25,anonymized,Serial_Dependence_U,2023.2.3,Win32,59.52380952,,,,,,,,,,,,1367.2254,4.0,1367.2258,,,,1370.1449,1370.6401,1369.6432,1370.1448,1368.2281,265.0,1369.6431,1370.6401,1371.14,1371.1402,1374.5452,883.5,1374.5453,1.0,1375.5401,4.0,10.0,130.0,18.0,1.0,1.4,0.7,Time
,,S39,1,female,25,anonymized,Serial_Dependence_U,2023.2.3,Win32,59.52380952,,,,,,,,,,,,1375.5419,4.0,1375.5424,,,,1377.8614,1378.3567,1377.3449,1377.8614,1376.5433,96.0,1377.3448,1378.3567,1378.857,1378.8572,1381.5447,1299.9,1381.5448,5.0,1382.5403,4.0,11.0,131.0,15.0,1.0,0.8,0.7,Time
,,S39,1,female,25,anonymized,Serial_Dependence_U,2023.2.3,Win32,59.52380952,,,,,,,,,,,,1382.5424,4.0,1382.5426,,,,1384.8778,1385.3735,1384.36,1384.8778,1383.5591,181.0,1384.36,1385.3735,1385.8736,1385.8739,1391.1612,866.4,1391.1613,4.0,1392.1571,4.0,12.0,132.0,25.0,1.0,0.8,0.7,Time
,,S39,1,female,25,anonymized,Serial_Dependence_U,2023.2.3,Win32,59.52380952,,,,,,,,,,,,1392.1589,4.0,1392.1594,,,,1395.0929,1395.5906,1394.578,1395.0926,1393.1613,325.0,1394.5779,1395.5907,1396.0916,1396.0917,1398.9621,833.2,1398.9622,1.0,1399.9571,4.0,13.0,133.0,13.0,1.0,1.4,0.3,Time
,,S39,1,female,25,anonymized,Serial_Dependence_U,2023.2.3,Win32,59.52380952,,,,,,,,,,,,1399.9589,4.0,1399.9594,,,,1403.1119,1403.607,1402.5928,1403.1118,1400.9785,98.0,1402.5921,1403.6073,1404.1072,1404.1073,1406.1955,816.9,1406.1957,1.0,1407.1904,4.0,14.0,134.0,29.0,1.0,1.6,0.7,Time
,,S39,1,female,25,anonymized,Serial_Dependence_U,2023.2.3,Win32,59.52380952,,,,,,,,,,,,1407.1923,4.0,1407.1928,,,,1410.3453,1410.8404,1409.8287,1410.3453,1408.2119,245.0,1409.8286,1410.8404,1411.3408,1411.3411,1413.9118,980.3,1413.9119,1.0,1414.9075,4.0,15.0,135.0,9.0,1.0,1.6,0.7,Time
,,S39,1,female,25,anonymized,Serial_Dependence_U,2023.2.3,Win32,59.52380952,,,,,,,,,,,,1414.9092,4.0,1414.9095,,,,1418.0449,1418.5405,1417.5292,1418.0448,1415.9114,249.0,1417.5291,1418.5406,1419.0406,1419.0407,1422.1785,900.1,1422.1786,1.0,1423.174,4.0,16.0,136.0,19.0,1.0,1.6,0.7,Time
,,S39,1,female,25,anonymized,Serial_Dependence_U,2023.2.3,Win32,59.52380952,,,,,,,,,,,,1423.176,4.0,1423.1764,,,,1425.9287,1426.4239,1425.4117,1425.9286,1424.195,317.0,1425.4117,1426.4241,1426.9239,1426.924,1430.445,1000.9,1430.4451,2.0,1431.4409,4.0,17.0,137.0,12.0,1.0,1.2,0.3,Time
,,S39,1,female,25,anonymized,Serial_Dependence_U,2023.2.3,Win32,59.52380952,,,,,,,,,,,,1431.4427,4.0,1431.4431,,,,1434.3621,1434.8577,1433.8455,1434.362,1432.444,262.0,1433.8454,1434.8579,1435.3573,1435.3575,1435.6123,118.2,1435.6125,1.0,1436.6109,4.0,18.0,138.0,23.0,1.0,1.4,0.3,Time
,,S39,1,female,25,anonymized,Serial_Dependence_U,2023.2.3,Win32,59.52380952,,,,,,,,,,,,1436.6113,4.0,1436.6115,,,,1438.944,1439.4409,1438.4286,1438.9439,1437.6117,339.0,1438.4284,1439.4412,1439.9407,1439.9414,1444.3122,833.4,1444.3123,3.0,1445.3079,4.0,19.0,139.0,5.0,1.0,0.8,0.7,Time
,,S39,1,female,25,anonymized,Serial_Dependence_U,2023.2.3,Win32,59.52380952,,,,,,,,,,,,1445.3096,4.0,1445.3101,,,,1447.8457,1448.3413,1447.3291,1447.8456,1446.3124,260.0,1447.329,1448.3414,1448.8409,1448.8413,1452.4121,966.5,1452.4122,3.0,1453.408,4.0,20.0,140.0,16.0,1.0,1.0,0.7,Time
,,S39,1,female,25,anonymized,Serial_Dependence_U,2023.2.3,Win32,59.52380952,,,,,,,,,,,,1453.4096,4.0,1453.4098,,,,1455.9291,1456.4243,1455.4264,1455.9291,1454.4124,246.0,1455.426,1456.4244,1456.9243,1456.9244,1460.5787,716.9,1460.5788,2.0,1461.5749,4.0,21.0,141.0,1.0,1.0,1.0,0.3,Time
,,S39,1,female,25,anonymized,Serial_Dependence_U,2023.2.3,Win32,59.52380952,,,,,,,,,,,,1461.5763,4.0,1461.5768,,,,1463.8942,1464.391,1463.3792,1463.8941,1462.5773,240.0,1463.3792,1464.3912,1464.8914,1464.8916,1467.229,1133.3,1467.2292,5.0,1468.2246,4.0,22.0,142.0,0.0,1.0,0.8,0.3,Time
,,S39,1,female,25,anonymized,Serial_Dependence_U,2023.2.3,Win32,59.52380952,,,,,,,,,,,,1468.2265,4.0,1468.2268,,,,1470.5626,1471.0578,1470.0442,1470.5625,1469.2289,22.0,1470.0442,1471.0578,1471.5577,1471.5579,1474.0124,1017.0,1474.0126,4.0,1475.0078,4.0,23.0,143.0,10.0,1.0,0.8,0.3,Time
,,S39,1,female,25,anonymized,Serial_Dependence_U,2023.2.3,Win32,59.52380952,,,,,,,,,,,,1475.0098,4.0,1475.0102,,,,1477.329,1477.8244,1476.8122,1477.329,1476.011,162.0,1476.8121,1477.8245,1478.3246,1478.3248,1481.3291,966.7,1481.3291,4.0,1482.325,4.0,24.0,144.0,20.0,1.0,0.8,0.3,Time
,,S39,1,female,25,anonymized,Serial_Dependence_U,2023.2.3,Win32,59.52380952,,,,,,,,,,,,1482.3266,4.0,1482.3271,,,,1484.8624,1485.3579,1484.3458,1484.8624,1483.3292,316.0,1484.3457,1485.3579,1485.8579,1485.8582,1487.1963,900.0,1487.1964,2.0,1488.1914,4.0,25.0,145.0,6.0,1.0,1.0,0.7,Time
,,S39,1,female,25,anonymized,Serial_Dependence_U,2023.2.3,Win32,59.52380952,,,,,,,,,,,,1488.1937,4.0,1488.1939,,,,1490.7279,1491.2247,1490.2122,1490.7278,1489.1956,3.0,1490.2122,1491.2247,1491.725,1491.7252,1493.2461,933.4,1493.2462,2.0,1494.2414,4.0,26.0,146.0,21.0,1.0,1.0,0.3,Time
,,S39,1,female,25,anonymized,Serial_Dependence_U,2023.2.3,Win32,59.52380952,,,,,,,,,,,,1494.2432,4.0,1494.2438,,,,1497.3624,1497.8581,1496.8458,1497.3623,1495.2445,165.0,1496.8458,1497.8584,1498.3585,1498.3587,1501.0961,1313.5,1501.0962,2.0,1502.0915,4.0,27.0,147.0,4.0,1.0,1.6,0.3,Time
,,S39,1,female,25,anonymized,Serial_Dependence_U,2023.2.3,Win32,59.52380952,,,,,,,,,,,,1502.0934,4.0,1502.0939,,,,1504.8441,1505.3418,1504.3298,1504.8434,1503.113,162.0,1504.3298,1505.3419,1505.8416,1505.8418,1507.5472,1050.2,1507.5474,2.0,1508.5416,4.0,28.0,148.0,7.0,1.0,1.2,0.7,Time
,,S39,1,female,25,anonymized,Serial_Dependence_U,2023.2.3,Win32,59.52380952,,,,,,,,,,,,1508.5433,4.0,1508.5436,,,,1511.0797,1511.575,1510.5604,1511.0797,1509.5465,226.0,1510.5601,1511.5752,1512.0749,1512.0751,1513.8632,1218.1,1513.8632,4.0,1514.8583,4.0,29.0,149.0,11.0,1.0,1.0,0.3,Time
,,S39,1,female,25,anonymized,Serial_Dependence_U,2023.2.3,Win32,59.52380952,,,,,,,,,,,,1514.8601,5.0,1520.6258,s,5.7361,,1523.5626,1524.0584,1523.044,1523.5626,1521.6281,238.0,1523.0439,1524.0587,1524.5589,1524.5591,1525.9299,850.3,1525.93,1.0,1526.9251,5.0,0.0,150.0,18.0,1.0,1.4,0.7,Time
,,S39,1,female,25,anonymized,Serial_Dependence_U,2023.2.3,Win32,59.52380952,,,,,,,,,,,,1526.9271,5.0,1526.9284,,,,1529.6627,1530.159,1529.1461,1529.6627,1527.9284,184.0,1529.146,1530.1592,1530.6586,1530.6588,1532.88,717.2,1532.8802,1.0,1533.8754,5.0,1.0,151.0,2.0,1.0,1.2,0.3,Time
,,S39,1,female,25,anonymized,Serial_Dependence_U,2023.2.3,Win32,59.52380952,,,,,,,,,,,,1533.8772,5.0,1533.8776,,,,1536.8296,1537.3252,1536.3127,1536.8295,1534.8962,188.0,1536.3126,1537.3255,1537.8254,1537.8256,1540.7797,1199.5,1540.7798,2.0,1541.7757,5.0,2.0,152.0,8.0,1.0,1.4,0.7,Time
,,S39,1,female,25,anonymized,Serial_Dependence_U,2023.2.3,Win32,59.52380952,,,,,,,,,,,,1541.7775,5.0,1541.7779,,,,1544.5128,1545.0086,1543.9945,1544.5127,1542.7785,161.0,1543.9942,1545.0089,1545.5085,1545.5087,1548.5133,1101.2,1548.5134,2.0,1549.5088,5.0,3.0,153.0,7.0,1.0,1.2,0.7,Time
,,S39,1,female,25,anonymized,Serial_Dependence_U,2023.2.3,Win32,59.52380952,,,,,,,,,,,,1549.5106,5.0,1549.5111,,,,1552.2443,1552.742,1551.7303,1552.2442,1550.5133,301.0,1551.7303,1552.7423,1553.2421,1553.2423,1556.3304,1049.9,1556.3305,2.0,1557.3257,5.0,4.0,154.0,17.0,1.0,1.2,0.7,Time
,,S39,1,female,25,anonymized,Serial_Dependence_U,2023.2.3,Win32,59.52380952,,,,,,,,,,,,1557.3274,5.0,1557.3279,,,,1560.4618,1560.9587,1559.9464,1560.4617,1558.3298,328.0,1559.9463,1560.9589,1561.4587,1561.459,1563.3968,866.6,1563.397,1.0,1564.3923,5.0,5.0,155.0,19.0,1.0,1.6,0.7,Time
,,S39,1,female,25,anonymized,Serial_Dependence_U,2023.2.3,Win32,59.52380952,,,,,,,,,,,,1564.3942,5.0,1564.3946,,,,1566.93,1567.4291,1566.4271,1566.9299,1565.4132,8.0,1566.4265,1567.4291,1567.9257,1567.9261,1571.8301,933.4,1571.8301,2.0,1572.8256,5.0,6.0,156.0,6.0,1.0,1.0,0.7,Time
,,S39,1,female,25,anonymized,Serial_Dependence_U,2023.2.3,Win32,59.52380952,,,,,,,,,,,,1572.8278,5.0,1572.8281,,,,1575.3467,1575.8422,1574.8448,1575.3467,1573.83,38.0,1574.8446,1575.8422,1576.3426,1576.3428,1579.097,1013.2,1579.097,3.0,1580.0926,5.0,7.0,157.0,1.0,1.0,1.0,0.3,Time
,,S39,1,female,25,anonymized,Serial_Dependence_U,2023.2.3,Win32,59.52380952,,,,,,,,,,,,1580.0944,5.0,1580.0948,,,,1583.2134,1583.7093,1582.7116,1583.2133,1581.0997,96.0,1582.7113,1583.7095,1584.2091,1584.2095,1584.393,94.5,1584.3945,1.0,1585.3923,5.0,8.0,158.0,29.0,1.0,1.6,0.7,Time
,,S39,1,female,25,anonymized,Serial_Dependence_U,2023.2.3,Win32,59.52380952,,,,,,,,,,,,1585.3943,5.0,1585.3949,,,,1588.3301,1588.8257,1587.8134,1588.3299,1586.3969,96.0,1587.8133,1588.8257,1589.3261,1589.3264,1594.0141,766.9,1594.0143,1.0,1595.0093,5.0,9.0,159.0,28.0,1.0,1.4,0.7,Time
,,S39,1,female,25,anonymized,Serial_Dependence_U,2023.2.3,Win32,59.52380952,,,,,,,,,,,,1595.0112,5.0,1595.0117,,,,1597.9446,1598.4429,1597.4303,1597.9443,1596.0137,94.0,1597.4302,1598.4431,1598.9425,1598.9429,1602.5974,816.9,1602.5975,1.0,1603.5926,5.0,10.0,160.0,13.0,1.0,1.4,0.3,Time
,,S39,1,female,25,anonymized,Serial_Dependence_U,2023.2.3,Win32,59.52380952,,,,,,,,,,,,1603.5943,5.0,1603.5949,,,,1606.3471,1606.8464,1605.8303,1606.3471,1604.6143,230.0,1605.8302,1606.8465,1607.3428,1607.3431,1611.8976,566.6,1611.8977,1.0,1612.8927,5.0,11.0,161.0,12.0,1.0,1.2,0.3,Time
,,S39,1,female,25,anonymized,Serial_Dependence_U,2023.2.3,Win32,59.52380952,,,,,,,,,,,,1612.8945,5.0,1612.895,,,,1616.0142,1616.5093,1615.512,1616.0141,1613.8975,257.0,1615.5117,1616.5093,1617.0096,1617.0097,1620.0978,1051.8,1620.098,1.0,1621.0951,5.0,12.0,162.0,24.0,1.0,1.6,0.3,Time
,,S39,1,female,25,anonymized,Serial_Dependence_U,2023.2.3,Win32,59.52380952,,,,,,,,,,,,1621.0954,5.0,1621.0957,,,,1624.0309,1624.5262,1623.5117,1624.0309,1622.0977,61.0,1623.5115,1624.5263,1625.0262,1625.0263,1627.7316,828.9,1627.7316,1.0,1628.7263,5.0,13.0,163.0,23.0,1.0,1.4,0.3,Time
,,S39,1,female,25,anonymized,Serial_Dependence_U,2023.2.3,Win32,59.52380952,,,,,,,,,,,,1628.7282,5.0,1628.7286,,,,1631.2772,1631.7762,1630.7643,1631.2771,1629.7478,249.0,1630.7642,1631.7763,1632.2804,1632.2804,1634.6139,1046.9,1634.6141,3.0,1635.6102,5.0,14.0,164.0,21.0,1.0,1.0,0.3,Time
,,S39,1,female,25,anonymized,Serial_Dependence_U,2023.2.3,Win32,59.52380952,,,,,,,,,,,,1635.6116,5.0,1635.612,,,,1637.9456,1638.4429,1637.4306,1637.9453,1636.6128,31.0,1637.4304,1638.4429,1638.9432,1638.9434,1642.7307,1417.4,1642.7308,5.0,1643.7274,5.0,15.0,165.0,15.0,1.0,0.8,0.7,Time
,,S39,1,female,25,anonymized,Serial_Dependence_U,2023.2.3,Win32,59.52380952,,,,,,,,,,,,1643.7285,5.0,1643.7288,,,,1646.0641,1646.56,1645.5622,1646.0639,1644.7465,130.0,1645.5618,1646.5602,1647.0598,1647.0601,1649.3141,944.6,1649.3143,4.0,1650.3097,5.0,16.0,166.0,0.0,1.0,0.8,0.3,Time
,,S39,1,female,25,anonymized,Serial_Dependence_U,2023.2.3,Win32,59.52380952,,,,,,,,,,,,1650.3116,5.0,1650.3122,,,,1652.6473,1653.1435,1652.1307,1652.6472,1651.3129,25.0,1652.1306,1653.1436,1653.6432,1653.6435,1656.1648,1000.3,1656.165,4.0,1657.16,5.0,17.0,167.0,25.0,1.0,0.8,0.7,Time
,,S39,1,female,25,anonymized,Serial_Dependence_U,2023.2.3,Win32,59.52380952,,,,,,,,,,,,1657.1618,5.0,1657.1623,,,,1659.8964,1660.3932,1659.3807,1659.8963,1658.1631,25.0,1659.3806,1660.3932,1660.8934,1660.8936,1663.7309,1500.8,1663.731,4.0,1664.7269,5.0,18.0,168.0,22.0,1.0,1.2,0.3,Time
,,S39,1,female,25,anonymized,Serial_Dependence_U,2023.2.3,Win32,59.52380952,,,,,,,,,,,,1664.7286,5.0,1664.7291,,,,1667.8475,1668.3435,1667.3461,1667.8475,1665.7309,266.0,1667.3456,1668.3437,1668.8437,1668.8439,1671.2146,1175.9,1671.2146,2.0,1672.2103,5.0,19.0,169.0,14.0,1.0,1.6,0.3,Time
,,S39,1,female,25,anonymized,Serial_Dependence_U,2023.2.3,Win32,59.52380952,,,,,,,,,,,,1672.2121,5.0,1672.2125,,,,1674.9476,1675.4437,1674.4309,1674.9475,1673.2142,145.0,1674.4309,1675.4439,1675.9434,1675.9437,1677.9316,1429.3,1677.9318,4.0,1678.9268,5.0,20.0,170.0,27.0,1.0,1.2,0.7,Time
,,S39,1,female,25,anonymized,Serial_Dependence_U,2023.2.3,Win32,59.52380952,,,,,,,,,,,,1678.9285,5.0,1678.9291,,,,1682.0812,1682.577,1681.5627,1682.0811,1679.9457,156.0,1681.5624,1682.5771,1683.0769,1683.0772,1684.5317,1033.2,1684.5318,1.0,1685.5268,5.0,21.0,171.0,9.0,1.0,1.6,0.7,Time
,,S39,1,female,25,anonymized,Serial_Dependence_U,2023.2.3,Win32,59.52380952,,,,,,,,,,,,1685.5288,5.0,1685.5292,,,,1688.0625,1688.5637,1687.5478,1688.0624,1686.5312,74.0,1687.5477,1688.5638,1689.0605,1689.0606,1691.3322,1418.8,1691.3323,5.0,1692.3273,5.0,22.0,172.0,16.0,1.0,1.0,0.7,Time
,,S39,1,female,25,anonymized,Serial_Dependence_U,2023.2.3,Win32,59.52380952,,,,,,,,,,,,1692.329,5.0,1692.3292,,,,1694.848,1695.3436,1694.3462,1694.8479,1693.331,30.0,1694.3461,1695.3439,1695.8435,1695.8439,1698.6814,1249.8,1698.6816,4.0,1699.677,5.0,23.0,173.0,11.0,1.0,1.0,0.3,Time
,,S39,1,female,25,anonymized,Serial_Dependence_U,2023.2.3,Win32,59.52380952,,,,,,,,,,,,1699.679,5.0,1699.6794,,,,1702.0294,1702.5273,1701.5146,1702.0292,1700.698,262.0,1701.5145,1702.5274,1703.0305,1703.0306,1705.5153,993.4,1705.5154,4.0,1706.5108,5.0,24.0,174.0,20.0,1.0,0.8,0.3,Time
,,S39,1,female,25,anonymized,Serial_Dependence_U,2023.2.3,Win32,59.52380952,,,,,,,,,,,,1706.5124,5.0,1706.5128,,,,1709.0474,1709.5438,1708.5312,1709.0474,1707.5137,355.0,1708.5311,1709.544,1710.0438,1710.0442,1712.9151,934.7,1712.9153,2.0,1713.9106,5.0,25.0,175.0,26.0,1.0,1.0,0.7,Time
,,S39,1,female,25,anonymized,Serial_Dependence_U,2023.2.3,Win32,59.52380952,,,,,,,,,,,,1713.9125,5.0,1713.9129,,,,1716.2296,1716.7271,1715.7153,1716.2291,1714.9135,256.0,1715.7153,1716.7273,1717.2271,1717.2275,1721.2817,1062.3,1721.2818,5.0,1722.2772,5.0,26.0,176.0,10.0,1.0,0.8,0.3,Time
,,S39,1,female,25,anonymized,Serial_Dependence_U,2023.2.3,Win32,59.52380952,,,,,,,,,,,,1722.2795,5.0,1722.2797,,,,1725.432,1725.9279,1724.9127,1725.4319,1723.2986,102.0,1724.9125,1725.928,1726.4307,1726.4307,1728.8282,826.3,1728.8294,1.0,1729.8275,5.0,27.0,177.0,4.0,1.0,1.6,0.3,Time
,,S39,1,female,25,anonymized,Serial_Dependence_U,2023.2.3,Win32,59.52380952,,,,,,,,,,,,1729.8293,5.0,1729.8297,,,,1732.7638,1733.2606,1732.2488,1732.7638,1730.8304,240.0,1732.2487,1733.2608,1733.7609,1733.7611,1735.816,750.4,1735.8162,1.0,1736.8108,5.0,28.0,178.0,3.0,1.0,1.4,0.3,Time
,,S39,1,female,25,anonymized,Serial_Dependence_U,2023.2.3,Win32,59.52380952,,,,,,,,,,,,1736.8127,5.0,1736.8131,,,,1739.1639,1739.6608,1738.6491,1739.1638,1737.8322,55.0,1738.649,1739.6608,1740.1657,1740.1657,1742.2985,979.5,1742.2986,4.0,1743.2944,5.0,29.0,179.0,5.0,1.0,0.8,0.7,Time
,,S39,1,female,25,anonymized,Serial_Dependence_U,2023.2.3,Win32,59.52380952,,,,,,,,,,,,1743.2962,6.0,1800.7791,s,57.4515,,1803.5146,1804.0114,1802.9991,1803.5145,1801.7825,243.0,1802.999,1804.0115,1804.5114,1804.5116,1805.4481,499.9,1805.4482,1.0,1806.4449,6.0,0.0,180.0,27.0,1.0,1.2,0.7,Time
,,S39,1,female,25,anonymized,Serial_Dependence_U,2023.2.3,Win32,59.52380952,,,,,,,,,,,,1806.4468,6.0,1806.448,,,,1808.9813,1809.4782,1808.4659,1808.9813,1807.4492,198.0,1808.4658,1809.4784,1809.9782,1809.9785,1812.1827,966.5,1812.1828,3.0,1813.1782,6.0,1.0,181.0,26.0,1.0,1.0,0.7,Time
,,S39,1,female,25,anonymized,Serial_Dependence_U,2023.2.3,Win32,59.52380952,,,,,,,,,,,,1813.1803,6.0,1813.1807,,,,1816.2993,1816.7979,1815.798,1816.2992,1814.1815,170.0,1815.7979,1816.798,1817.2949,1817.2952,1818.9328,908.2,1818.933,1.0,1819.9317,6.0,2.0,182.0,4.0,1.0,1.6,0.3,Time
,,S39,1,female,25,anonymized,Serial_Dependence_U,2023.2.3,Win32,59.52380952,,,,,,,,,,,,1819.9323,6.0,1819.9324,,,,1822.266,1822.7625,1821.7493,1822.2658,1820.9326,312.0,1821.7492,1822.7626,1823.262,1823.2622,1825.0172,967.2,1825.0173,4.0,1826.0117,6.0,3.0,183.0,20.0,1.0,0.8,0.3,Time
,,S39,1,female,25,anonymized,Serial_Dependence_U,2023.2.3,Win32,59.52380952,,,,,,,,,,,,1826.0137,6.0,1826.0142,,,,1828.3475,1828.845,1827.8326,1828.3473,1827.0162,227.0,1827.8325,1828.8453,1829.3455,1829.3457,1831.3832,850.7,1831.3832,4.0,1832.3785,6.0,4.0,184.0,10.0,1.0,0.8,0.3,Time
,,S39,1,female,25,anonymized,Serial_Dependence_U,2023.2.3,Win32,59.52380952,,,,,,,,,,,,1832.3804,6.0,1832.381,,,,1835.0995,1835.5952,1834.5977,1835.0994,1833.3829,202.0,1834.5974,1835.5955,1836.0952,1836.0955,1837.7832,993.8,1837.7833,2.0,1838.7789,6.0,5.0,185.0,17.0,1.0,1.2,0.7,Time
,,S39,1,female,25,anonymized,Serial_Dependence_U,2023.2.3,Win32,59.52380952,,,,,,,,,,,,1838.7806,6.0,1838.781,,,,1841.1162,1841.612,1840.5996,1841.1161,1839.7828,274.0,1840.5995,1841.6122,1842.112,1842.1123,1843.6829,210.6,1843.6831,1.0,1844.6787,6.0,6.0,186.0,5.0,1.0,0.8,0.7,Time
,,S39,1,female,25,anonymized,Serial_Dependence_U,2023.2.3,Win32,59.52380952,,,,,,,,,,,,1844.6806,6.0,1844.6811,,,,1847.4161,1847.9119,1846.8985,1847.416,1845.6829,224.0,1846.8985,1847.912,1848.412,1848.4123,1851.2832,899.9,1851.2833,2.0,1852.2789,6.0,7.0,187.0,2.0,1.0,1.2,0.3,Time
,,S39,1,female,25,anonymized,Serial_Dependence_U,2023.2.3,Win32,59.52380952,,,,,,,,,,,,1852.2807,6.0,1852.2811,,,,1855.2335,1855.7286,1854.717,1855.2334,1853.2999,53.0,1854.7168,1855.7286,1856.2288,1856.2291,1858.3331,910.3,1858.3332,1.0,1859.3287,6.0,8.0,188.0,23.0,1.0,1.4,0.3,Time
,,S39,1,female,25,anonymized,Serial_Dependence_U,2023.2.3,Win32,59.52380952,,,,,,,,,,,,1859.3307,6.0,1859.3311,,,,1862.4663,1862.9624,1861.9497,1862.4662,1860.333,345.0,1861.9497,1862.9626,1863.4623,1863.4627,1865.35,1251.2,1865.3501,2.0,1866.3458,6.0,9.0,189.0,19.0,1.0,1.6,0.7,Time
,,S39,1,female,25,anonymized,Serial_Dependence_U,2023.2.3,Win32,59.52380952,,,,,,,,,,,,1866.3474,6.0,1866.3479,,,,1869.4835,1869.9787,1868.9648,1869.4833,1867.3497,64.0,1868.9647,1869.979,1870.4788,1870.479,1873.1503,1216.5,1873.1504,2.0,1874.1458,6.0,10.0,190.0,9.0,1.0,1.6,0.7,Time
,,S39,1,female,25,anonymized,Serial_Dependence_U,2023.2.3,Win32,59.52380952,,,,,,,,,,,,1874.1476,6.0,1874.1481,,,,1876.6653,1877.1622,1876.1648,1876.6652,1875.1499,114.0,1876.1645,1877.1622,1877.6622,1877.6624,1880.9505,783.3,1880.9506,2.0,1881.9459,6.0,11.0,191.0,21.0,1.0,1.0,0.3,Time
,,S39,1,female,25,anonymized,Serial_Dependence_U,2023.2.3,Win32,59.52380952,,,,,,,,,,,,1881.9476,6.0,1881.9481,,,,1885.0816,1885.579,1884.5666,1885.0813,1882.95,41.0,1884.5665,1885.5793,1886.0792,1886.0794,1888.6669,1216.5,1888.667,2.0,1889.6624,6.0,12.0,192.0,24.0,1.0,1.6,0.3,Time
,,S39,1,female,25,anonymized,Serial_Dependence_U,2023.2.3,Win32,59.52380952,,,,,,,,,,,,1889.6645,6.0,1889.665,,,,1891.9981,1892.4959,1891.4835,1891.998,1890.6668,103.0,1891.4834,1892.4961,1892.996,1892.9962,1894.8839,666.3,1894.8842,2.0,1895.8797,6.0,13.0,193.0,0.0,1.0,0.8,0.3,Time
,,S39,1,female,25,anonymized,Serial_Dependence_U,2023.2.3,Win32,59.52380952,,,,,,,,,,,,1895.8816,6.0,1895.8818,,,,1898.817,1899.3127,1898.3001,1898.8169,1896.8835,55.0,1898.3001,1899.3129,1899.8125,1899.8129,1901.3506,1040.9,1901.3508,2.0,1902.3461,6.0,14.0,194.0,3.0,1.0,1.4,0.3,Time
,,S39,1,female,25,anonymized,Serial_Dependence_U,2023.2.3,Win32,59.52380952,,,,,,,,,,,,1902.3477,6.0,1902.3483,,,,1905.4986,1905.9996,1904.9823,1905.4985,1903.3668,82.0,1904.9823,1905.9996,1906.4961,1906.4963,1908.6171,1000.2,1908.6172,1.0,1909.613,6.0,15.0,195.0,14.0,1.0,1.6,0.3,Time
,,S39,1,female,25,anonymized,Serial_Dependence_U,2023.2.3,Win32,59.52380952,,,,,,,,,,,,1909.6146,6.0,1909.6151,,,,1912.5335,1913.0296,1912.0316,1912.5334,1910.6169,16.0,1912.0315,1913.0298,1913.53,1913.5304,1914.8677,901.7,1914.8679,1.0,1915.8627,6.0,16.0,196.0,13.0,1.0,1.4,0.3,Time
,,S39,1,female,25,anonymized,Serial_Dependence_U,2023.2.3,Win32,59.52380952,,,,,,,,,,,,1915.8647,6.0,1915.8652,,,,1918.2172,1918.7162,1917.7003,1918.2171,1916.8836,165.0,1917.7003,1918.7163,1919.2134,1919.2136,1920.834,912.3,1920.8341,4.0,1921.8301,6.0,17.0,197.0,25.0,1.0,0.8,0.7,Time
,,S39,1,female,25,anonymized,Serial_Dependence_U,2023.2.3,Win32,59.52380952,,,,,,,,,,,,1921.8315,6.0,1921.832,,,,1924.7505,1925.2461,1924.2486,1924.7504,1922.8327,253.0,1924.2484,1925.2462,1925.746,1925.7463,1927.5675,950.3,1927.5676,1.0,1928.5631,6.0,18.0,198.0,28.0,1.0,1.4,0.7,Time
,,S39,1,female,25,anonymized,Serial_Dependence_U,2023.2.3,Win32,59.52380952,,,,,,,,,,,,1928.5649,6.0,1928.5653,,,,1931.4844,1931.9801,1930.9677,1931.4842,1929.5657,114.0,1930.9676,1931.9803,1932.4795,1932.4795,1934.7848,878.3,1934.7849,1.0,1935.7796,6.0,19.0,199.0,18.0,1.0,1.4,0.7,Time
,,S39,1,female,25,anonymized,Serial_Dependence_U,2023.2.3,Win32,59.52380952,,,,,,,,,,,,1935.7816,6.0,1935.7819,,,,1938.3339,1938.8296,1937.8162,1938.3338,1936.801,12.0,1937.8161,1938.8299,1939.3297,1939.33,1939.7329,191.2,1939.733,1.0,1940.7297,6.0,20.0,200.0,16.0,1.0,1.0,0.7,Time
,,S39,1,female,25,anonymized,Serial_Dependence_U,2023.2.3,Win32,59.52380952,,,,,,,,,,,,1940.7316,6.0,1940.732,,,,1943.284,1943.7799,1942.7656,1943.2838,1941.7504,93.0,1942.7653,1943.7801,1944.2799,1944.2801,1945.9841,716.7,1945.9843,2.0,1946.9798,6.0,21.0,201.0,1.0,1.0,1.0,0.3,Time
,,S39,1,female,25,anonymized,Serial_Dependence_U,2023.2.3,Win32,59.52380952,,,,,,,,,,,,1946.9817,6.0,1946.9821,,,,1949.5007,1949.9963,1948.9977,1949.5006,1947.9839,232.0,1948.9972,1949.9964,1950.4963,1950.4965,1952.0843,1251.0,1952.0844,4.0,1953.0798,6.0,22.0,202.0,6.0,1.0,1.0,0.7,Time
,,S39,1,female,25,anonymized,Serial_Dependence_U,2023.2.3,Win32,59.52380952,,,,,,,,,,,,1953.0817,6.0,1953.0822,,,,1955.8635,1956.3629,1955.3468,1955.8634,1954.1396,313.0,1955.3467,1956.363,1956.863,1956.8631,1958.5633,1221.4,1958.5635,3.0,1959.5631,6.0,23.0,203.0,7.0,1.0,1.2,0.7,Time
,,S39,1,female,25,anonymized,Serial_Dependence_U,2023.2.3,Win32,59.52380952,,,,,,,,,,,,1959.5635,6.0,1959.5637,,,,1962.3139,1962.8131,1961.797,1962.3136,1960.5802,80.0,1961.7969,1962.8132,1963.3132,1963.3132,1964.4354,745.4,1964.4355,1.0,1965.4299,6.0,24.0,204.0,12.0,1.0,1.2,0.3,Time
,,S39,1,female,25,anonymized,Serial_Dependence_U,2023.2.3,Win32,59.52380952,,,,,,,,,,,,1965.4304,6.0,1965.4308,,,,1967.9803,1968.4797,1967.4639,1967.9803,1966.4471,317.0,1967.4637,1968.4798,1968.9798,1968.9799,1971.3134,849.0,1971.3136,2.0,1972.3132,6.0,25.0,205.0,11.0,1.0,1.0,0.3,Time
,,S39,1,female,25,anonymized,Serial_Dependence_U,2023.2.3,Win32,59.52380952,,,,,,,,,,,,1972.3137,6.0,1972.3141,,,,1975.2637,1975.7632,1974.7471,1975.2636,1973.3302,137.0,1974.747,1975.7633,1976.2633,1976.2633,1977.6302,693.3,1977.6304,1.0,1978.6299,6.0,26.0,206.0,8.0,1.0,1.4,0.7,Time
,,S39,1,female,25,anonymized,Serial_Dependence_U,2023.2.3,Win32,59.52380952,,,,,,,,,,,,1978.6306,6.0,1978.6311,,,,1981.7804,1982.28,1981.2639,1981.7804,1979.6471,257.0,1981.2638,1982.28,1982.78,1982.7801,1984.797,707.8,1984.7972,1.0,1985.7968,6.0,27.0,207.0,29.0,1.0,1.6,0.7,Time
,,S39,1,female,25,anonymized,Serial_Dependence_U,2023.2.3,Win32,59.52380952,,,,,,,,,,,,1985.7971,6.0,1985.7975,,,,1988.547,1989.0467,1988.0306,1988.5469,1986.8138,357.0,1988.0304,1989.0467,1989.5468,1989.5469,1991.1803,923.7,1991.1805,2.0,1992.18,6.0,28.0,208.0,22.0,1.0,1.2,0.3,Time
,,S39,1,female,25,anonymized,Serial_Dependence_U,2023.2.3,Win32,59.52380952,,,,,,,,,,,,1992.1805,6.0,1992.1809,,,,1994.5306,1995.0301,1994.014,1994.5305,1993.1972,188.0,1994.0139,1995.0302,1995.5301,1995.5302,1996.9137,966.2,1996.9139,4.0,1997.9135,6.0,29.0,209.0,15.0,1.0,0.8,0.7,Time
,,S39,1,female,25,anonymized,Serial_Dependence_U,2023.2.3,Win32,59.52380952,,,,,,,,,,,,1997.9139,7.0,2003.9803,s,6.0556,,2006.9307,2007.4305,2006.4141,2006.9307,2004.9973,202.0,2006.4141,2007.4305,2007.9303,2007.9303,2009.6472,1075.8,2009.6474,2.0,2010.6469,7.0,0.0,210.0,18.0,1.0,1.4,0.7,Time
,,S39,1,female,25,anonymized,Serial_Dependence_U,2023.2.3,Win32,59.52380952,,,,,,,,,,,,2010.6474,7.0,2010.6499,,,,2013.3974,2013.8969,2012.8808,2013.3973,2011.6641,291.0,2012.8807,2013.897,2014.397,2014.397,2015.9638,1086.8,2015.9642,2.0,2016.9637,7.0,1.0,211.0,7.0,1.0,1.2,0.7,Time
,,S39,1,female,25,anonymized,Serial_Dependence_U,2023.2.3,Win32,59.52380952,,,,,,,,,,,,2016.9641,7.0,2016.9643,,,,2019.7142,2020.2136,2019.1975,2019.7141,2017.9809,300.0,2019.1974,2020.2137,2020.7138,2020.7138,2022.2807,1066.5,2022.281,2.0,2023.2804,7.0,2.0,212.0,12.0,1.0,1.2,0.3,Time
,,S39,1,female,25,anonymized,Serial_Dependence_U,2023.2.3,Win32,59.52380952,,,,,,,,,,,,2023.2808,7.0,2023.2812,,,,2026.2309,2026.7305,2025.7143,2026.2309,2024.2976,129.0,2025.7142,2026.7305,2027.2305,2027.2305,2028.9307,1278.9,2028.931,2.0,2029.9305,7.0,3.0,213.0,23.0,1.0,1.4,0.3,Time
,,S39,1,female,25,anonymized,Serial_Dependence_U,2023.2.3,Win32,59.52380952,,,,,,,,,,,,2029.931,7.0,2029.9312,,,,2032.8811,2033.3805,2032.3643,2032.8811,2030.9476,263.0,2032.3642,2033.3806,2033.8806,2033.8807,2036.3475,1490.2,2036.3476,4.0,2037.3473,7.0,4.0,214.0,28.0,1.0,1.4,0.7,Time
,,S39,1,female,25,anonymized,Serial_Dependence_U,2023.2.3,Win32,59.52380952,,,,,,,,,,,,2037.3476,7.0,2037.3481,,,,2040.4977,2040.9973,2039.9811,2040.4977,2038.3644,269.0,2039.981,2040.9974,2041.4972,2041.4972,2044.0142,1169.2,2044.0144,2.0,2045.014,7.0,5.0,215.0,19.0,1.0,1.6,0.7,Time
,,S39,1,female,25,anonymized,Serial_Dependence_U,2023.2.3,Win32,59.52380952,,,,,,,,,,,,2045.0145,7.0,2045.015,,,,2047.5644,2048.064,2047.0478,2047.5644,2046.0312,8.0,2047.0478,2048.0641,2048.5641,2048.5641,2049.431,499.9,2049.4312,1.0,2050.4307,7.0,6.0,216.0,11.0,1.0,1.0,0.3,Time
,,S39,1,female,25,anonymized,Serial_Dependence_U,2023.2.3,Win32,59.52380952,,,,,,,,,,,,2050.4312,7.0,2050.4316,,,,2052.7812,2053.2809,2052.2646,2052.7812,2051.4479,349.0,2052.2645,2053.2809,2053.7809,2053.7809,2055.7311,1565.4,2055.7313,5.0,2056.7308,7.0,7.0,217.0,10.0,1.0,0.8,0.3,Time
,,S39,1,female,25,anonymized,Serial_Dependence_U,2023.2.3,Win32,59.52380952,,,,,,,,,,,,2056.7312,7.0,2056.7317,,,,2059.8814,2060.3808,2059.3647,2059.8812,2057.748,196.0,2059.3646,2060.3808,2060.8808,2060.8808,2062.4978,1070.9,2062.4981,1.0,2063.4976,7.0,8.0,218.0,4.0,1.0,1.6,0.3,Time
,,S39,1,female,25,anonymized,Serial_Dependence_U,2023.2.3,Win32,59.52380952,,,,,,,,,,,,2063.498,7.0,2063.4982,,,,2065.8481,2066.3475,2065.3313,2065.848,2064.5147,119.0,2065.3313,2066.3476,2066.8475,2066.8476,2067.5478,279.3,2067.548,1.0,2068.5476,7.0,9.0,219.0,15.0,1.0,0.8,0.7,Time
,,S39,1,female,25,anonymized,Serial_Dependence_U,2023.2.3,Win32,59.52380952,,,,,,,,,,,,2068.5481,7.0,2068.5485,,,,2070.8981,2071.3975,2070.3815,2070.898,2069.5648,274.0,2070.3813,2071.3976,2071.8978,2071.8978,2073.9979,1225.2,2073.998,5.0,2074.9976,7.0,10.0,220.0,5.0,1.0,0.8,0.7,Time
,,S39,1,female,25,anonymized,Serial_Dependence_U,2023.2.3,Win32,59.52380952,,,,,,,,,,,,2074.9981,7.0,2074.9985,,,,2077.7481,2078.2477,2077.2315,2077.7481,2076.0148,337.0,2077.2315,2078.2477,2078.7478,2078.7478,2080.9314,1463.6,2080.9315,4.0,2081.9311,7.0,11.0,221.0,27.0,1.0,1.2,0.7,Time
,,S39,1,female,25,anonymized,Serial_Dependence_U,2023.2.3,Win32,59.52380952,,,,,,,,,,,,2081.9315,7.0,2081.932,,,,2085.0816,2085.5812,2084.5649,2085.0816,2082.9482,156.0,2084.5649,2085.5812,2086.0811,2086.0812,2087.6147,1090.5,2087.615,1.0,2088.6145,7.0,12.0,222.0,14.0,1.0,1.6,0.3,Time
,,S39,1,female,25,anonymized,Serial_Dependence_U,2023.2.3,Win32,59.52380952,,,,,,,,,,,,2088.6149,7.0,2088.6151,,,,2091.3667,2091.8648,2090.8528,2091.3664,2089.6344,141.0,2090.8527,2091.865,2092.3649,2092.3652,2093.8863,916.5,2093.8864,2.0,2094.882,7.0,13.0,223.0,17.0,1.0,1.2,0.7,Time
,,S39,1,female,25,anonymized,Serial_Dependence_U,2023.2.3,Win32,59.52380952,,,,,,,,,,,,2094.8836,7.0,2094.8838,,,,2097.4012,2097.898,2096.9005,2097.4011,2095.8862,39.0,2096.8999,2097.8981,2098.398,2098.3983,2099.9531,1116.8,2099.9532,4.0,2100.9482,7.0,14.0,224.0,21.0,1.0,1.0,0.3,Time
,,S39,1,female,25,anonymized,Serial_Dependence_U,2023.2.3,Win32,59.52380952,,,,,,,,,,,,2100.9501,7.0,2100.9505,,,,2103.4696,2103.9647,2102.9678,2103.4695,2101.9528,180.0,2102.9677,2103.9649,2104.4647,2104.4649,2105.8531,933.1,2105.8532,2.0,2106.8486,7.0,15.0,225.0,1.0,1.0,1.0,0.3,Time
,,S39,1,female,25,anonymized,Serial_Dependence_U,2023.2.3,Win32,59.52380952,,,,,,,,,,,,2106.8502,7.0,2106.8506,,,,2109.5863,2110.0815,2109.0839,2109.5862,2107.8696,6.0,2109.0833,2110.0817,2110.5816,2110.5818,2113.07,1001.7,2113.07,2.0,2114.0649,7.0,16.0,226.0,2.0,1.0,1.2,0.3,Time
,,S39,1,female,25,anonymized,Serial_Dependence_U,2023.2.3,Win32,59.52380952,,,,,,,,,,,,2114.067,7.0,2114.0673,,,,2116.5865,2117.0815,2116.0697,2116.5865,2115.0679,313.0,2116.0695,2117.0816,2117.5822,2117.5824,2119.8533,862.0,2119.8535,2.0,2120.8482,7.0,17.0,227.0,26.0,1.0,1.0,0.7,Time
,,S39,1,female,25,anonymized,Serial_Dependence_U,2023.2.3,Win32,59.52380952,,,,,,,,,,,,2120.8502,7.0,2120.8507,,,,2124.0034,2124.4983,2123.4839,2124.0033,2121.8699,248.0,2123.4835,2124.4985,2124.9984,2124.9986,2127.3198,1055.6,2127.3199,1.0,2128.3151,7.0,18.0,228.0,9.0,1.0,1.6,0.7,Time
,,S39,1,female,25,anonymized,Serial_Dependence_U,2023.2.3,Win32,59.52380952,,,,,,,,,,,,2128.3171,7.0,2128.3175,,,,2131.235,2131.7316,2130.7338,2131.235,2129.3198,103.0,2130.7334,2131.7317,2132.2317,2132.2318,2134.6202,1068.6,2134.6204,2.0,2135.6154,7.0,19.0,229.0,3.0,1.0,1.4,0.3,Time
,,S39,1,female,25,anonymized,Serial_Dependence_U,2023.2.3,Win32,59.52380952,,,,,,,,,,,,2135.6172,7.0,2135.6175,,,,2137.97,2138.465,2137.4534,2137.9699,2136.6368,192.0,2137.4532,2138.465,2138.9663,2138.9666,2141.853,1083.0,2141.853,5.0,2142.8484,7.0,20.0,230.0,25.0,1.0,0.8,0.7,Time
,,S39,1,female,25,anonymized,Serial_Dependence_U,2023.2.3,Win32,59.52380952,,,,,,,,,,,,2142.8505,7.0,2142.8509,,,,2145.9867,2146.4821,2145.47,2145.9866,2143.8531,220.0,2145.4699,2146.4823,2146.9818,2146.982,2148.4029,1066.5,2148.4031,1.0,2149.3989,7.0,21.0,231.0,29.0,1.0,1.6,0.7,Time
,,S39,1,female,25,anonymized,Serial_Dependence_U,2023.2.3,Win32,59.52380952,,,,,,,,,,,,2149.4007,7.0,2149.401,,,,2151.7511,2152.2486,2151.2342,2151.751,2150.4197,82.0,2151.234,2152.2489,2152.7486,2152.7488,2154.1703,745.6,2154.1704,2.0,2155.1653,7.0,22.0,232.0,0.0,1.0,0.8,0.3,Time
,,S39,1,female,25,anonymized,Serial_Dependence_U,2023.2.3,Win32,59.52380952,,,,,,,,,,,,2155.1674,7.0,2155.1678,,,,2158.2862,2158.782,2157.7845,2158.2861,2156.1697,100.0,2157.7843,2158.7823,2159.2821,2159.2824,2160.7699,855.0,2160.77,1.0,2161.7657,7.0,23.0,233.0,24.0,1.0,1.6,0.3,Time
,,S39,1,female,25,anonymized,Serial_Dependence_U,2023.2.3,Win32,59.52380952,,,,,,,,,,,,2161.7674,7.0,2161.7679,,,,2164.4843,2164.9823,2163.9698,2164.4841,2162.7686,175.0,2163.9698,2164.9824,2165.4826,2165.4829,2168.4701,884.9,2168.4702,2.0,2169.4654,7.0,24.0,234.0,22.0,1.0,1.2,0.3,Time
,,S39,1,female,25,anonymized,Serial_Dependence_U,2023.2.3,Win32,59.52380952,,,,,,,,,,,,2169.4674,7.0,2169.4679,,,,2171.8198,2172.3154,2171.3014,2171.8197,2170.4864,322.0,2171.301,2172.3157,2172.8187,2172.8187,2174.337,1047.2,2174.3372,5.0,2175.3322,7.0,25.0,235.0,20.0,1.0,0.8,0.3,Time
,,S39,1,female,25,anonymized,Serial_Dependence_U,2023.2.3,Win32,59.52380952,,,,,,,,,,,,2175.3342,7.0,2175.3347,,,,2178.2531,2178.7492,2177.7511,2178.2531,2176.3354,169.0,2177.7509,2178.7493,2179.2489,2179.2492,2182.9536,1366.7,2182.9537,3.0,2183.9492,7.0,26.0,236.0,8.0,1.0,1.4,0.7,Time
,,S39,1,female,25,anonymized,Serial_Dependence_U,2023.2.3,Win32,59.52380952,,,,,,,,,,,,2183.9509,7.0,2183.9513,,,,2186.9016,2187.399,2186.3865,2186.9013,2184.9704,43.0,2186.3864,2187.399,2187.8992,2187.8994,2189.4372,933.4,2189.4373,1.0,2190.4325,7.0,27.0,237.0,13.0,1.0,1.4,0.3,Time
,,S39,1,female,25,anonymized,Serial_Dependence_U,2023.2.3,Win32,59.52380952,,,,,,,,,,,,2190.4344,7.0,2190.4348,,,,2192.9706,2193.4657,2192.4538,2192.9706,2191.4369,59.0,2192.4537,2193.4659,2193.9657,2193.9662,2195.2535,984.2,2195.2536,3.0,2196.2493,7.0,28.0,238.0,16.0,1.0,1.0,0.7,Time
,,S39,1,female,25,anonymized,Serial_Dependence_U,2023.2.3,Win32,59.52380952,,,,,,,,,,,,2196.2511,7.0,2196.2516,,,,2198.7845,2199.2824,2198.27,2198.7845,2197.2534,293.0,2198.2699,2199.2826,2199.7828,2199.783,2202.1202,932.7,2202.1204,2.0,2203.1162,7.0,29.0,239.0,6.0,1.0,1.0,0.7,Time
,,S39,1,female,25,anonymized,Serial_Dependence_U,2023.2.3,Win32,59.52380952,,,,,,,,,,,,2203.1177,8.0,2240.534,s,37.3862,,2243.2873,2243.783,2242.7705,2243.2872,2241.554,81.0,2242.7705,2243.7834,2244.2829,2244.283,2247.5709,184.5,2247.571,1.0,2248.5663,8.0,0.0,240.0,27.0,1.0,1.2,0.7,Time
,,S39,1,female,25,anonymized,Serial_Dependence_U,2023.2.3,Win32,59.52380952,,,,,,,,,,,,2248.5683,8.0,2248.5696,,,,2250.8872,2251.383,2250.3853,2250.8871,2249.5707,344.0,2250.3852,2251.3832,2251.883,2251.8832,2254.1215,935.2,2254.1217,4.0,2255.1168,8.0,1.0,241.0,15.0,1.0,0.8,0.7,Time
,,S39,1,female,25,anonymized,Serial_Dependence_U,2023.2.3,Win32,59.52380952,,,,,,,,,,,,2255.1185,8.0,2255.1187,,,,2258.2545,2258.7497,2257.7356,2258.2545,2256.121,319.0,2257.7351,2258.7497,2259.2536,2259.2536,2261.5545,830.3,2261.5545,1.0,2262.5498,8.0,2.0,242.0,19.0,1.0,1.6,0.7,Time
,,S39,1,female,25,anonymized,Serial_Dependence_U,2023.2.3,Win32,59.52380952,,,,,,,,,,,,2262.5518,8.0,2262.5522,,,,2265.4875,2265.9831,2264.971,2265.4875,2263.553,356.0,2264.9709,2265.9832,2266.4833,2266.4835,2269.4045,779.3,2269.4045,1.0,2270.4001,8.0,3.0,243.0,13.0,1.0,1.4,0.3,Time
,,S39,1,female,25,anonymized,Serial_Dependence_U,2023.2.3,Win32,59.52380952,,,,,,,,,,,,2270.4019,8.0,2270.4023,,,,2272.9366,2273.4332,2272.4359,2272.9366,2271.4209,202.0,2272.4355,2273.4334,2273.9369,2273.9371,2275.2876,783.2,2275.2877,2.0,2276.2833,8.0,4.0,244.0,11.0,1.0,1.0,0.3,Time
,,S39,1,female,25,anonymized,Serial_Dependence_U,2023.2.3,Win32,59.52380952,,,,,,,,,,,,2276.2853,8.0,2276.2857,,,,2279.421,2279.9166,2278.9192,2279.4209,2277.3042,19.0,2278.9189,2279.9167,2280.417,2280.4172,2281.6548,727.2,2281.6549,1.0,2282.6503,8.0,5.0,245.0,24.0,1.0,1.6,0.3,Time
,,S39,1,female,25,anonymized,Serial_Dependence_U,2023.2.3,Win32,59.52380952,,,,,,,,,,,,2282.6521,8.0,2282.6525,,,,2285.1859,2285.6833,2284.6714,2285.1854,2283.6546,323.0,2284.6713,2285.6834,2286.1833,2286.1835,2289.9046,850.0,2289.9047,2.0,2290.9002,8.0,6.0,246.0,1.0,1.0,1.0,0.3,Time
,,S39,1,female,25,anonymized,Serial_Dependence_U,2023.2.3,Win32,59.52380952,,,,,,,,,,,,2290.9024,8.0,2290.9026,,,,2293.2527,2293.7505,2292.7381,2293.2522,2291.9211,199.0,2292.7379,2293.7507,2294.2502,2294.2504,2295.8213,1299.4,2295.8215,5.0,2296.8172,8.0,7.0,247.0,20.0,1.0,0.8,0.3,Time
,,S39,1,female,25,anonymized,Serial_Dependence_U,2023.2.3,Win32,59.52380952,,,,,,,,,,,,2296.8189,8.0,2296.8194,,,,2299.7379,2300.2336,2299.2367,2299.7379,2297.8211,184.0,2299.2366,2300.2336,2300.7342,2300.7344,2303.2715,1216.8,2303.2717,2.0,2304.267,8.0,8.0,248.0,3.0,1.0,1.4,0.3,Time
,,S39,1,female,25,anonymized,Serial_Dependence_U,2023.2.3,Win32,59.52380952,,,,,,,,,,,,2304.269,8.0,2304.2694,,,,2307.2052,2307.7003,2306.6884,2307.205,2305.2718,268.0,2306.6884,2307.7004,2308.2004,2308.2006,2310.5382,1016.8,2310.5383,2.0,2311.5339,8.0,9.0,249.0,28.0,1.0,1.4,0.7,Time
,,S39,1,female,25,anonymized,Serial_Dependence_U,2023.2.3,Win32,59.52380952,,,,,,,,,,,,2311.5357,8.0,2311.5362,,,,2314.2702,2314.7669,2313.7547,2314.2701,2312.5381,284.0,2313.7545,2314.7672,2315.2674,2315.2676,2316.9217,1134.8,2316.9219,2.0,2317.9172,8.0,10.0,250.0,2.0,1.0,1.2,0.3,Time
,,S39,1,female,25,anonymized,Serial_Dependence_U,2023.2.3,Win32,59.52380952,,,,,,,,,,,,2317.9191,8.0,2317.9195,,,,2320.6548,2321.1504,2320.1382,2320.6547,2318.9201,41.0,2320.1382,2321.1505,2321.6505,2321.6508,2323.2053,950.2,2323.2055,2.0,2324.2005,8.0,11.0,251.0,17.0,1.0,1.2,0.7,Time
,,S39,1,female,25,anonymized,Serial_Dependence_U,2023.2.3,Win32,59.52380952,,,,,,,,,,,,2324.2026,8.0,2324.203,,,,2326.9193,2327.4171,2326.4053,2326.9191,2325.2037,209.0,2326.4053,2327.4174,2327.9209,2327.9209,2329.6889,1208.6,2329.689,3.0,2330.6841,8.0,12.0,252.0,12.0,1.0,1.2,0.3,Time
,,S39,1,female,25,anonymized,Serial_Dependence_U,2023.2.3,Win32,59.52380952,,,,,,,,,,,,2330.6859,8.0,2330.6862,,,,2333.4388,2333.9343,2332.9218,2333.4387,2331.7048,134.0,2332.9218,2333.9346,2334.4364,2334.4364,2336.1887,1288.6,2336.1888,4.0,2337.1841,8.0,13.0,253.0,22.0,1.0,1.2,0.3,Time
,,S39,1,female,25,anonymized,Serial_Dependence_U,2023.2.3,Win32,59.52380952,,,,,,,,,,,,2337.186,8.0,2337.1864,,,,2340.1039,2340.6006,2339.5884,2340.1037,2338.1871,173.0,2339.5883,2340.6006,2341.1006,2341.101,2342.7391,1100.5,2342.7393,2.0,2343.7341,8.0,14.0,254.0,23.0,1.0,1.4,0.3,Time
,,S39,1,female,25,anonymized,Serial_Dependence_U,2023.2.3,Win32,59.52380952,,,,,,,,,,,,2343.7361,8.0,2343.7366,,,,2346.2718,2346.7674,2345.77,2346.2717,2344.755,122.0,2345.7699,2346.7677,2347.2676,2347.2679,2349.8558,835.0,2349.8559,2.0,2350.8507,8.0,15.0,255.0,16.0,1.0,1.0,0.7,Time
,,S39,1,female,25,anonymized,Serial_Dependence_U,2023.2.3,Win32,59.52380952,,,,,,,,,,,,2350.8527,8.0,2350.8532,,,,2353.1889,2353.6841,2352.6706,2353.1889,2351.8557,102.0,2352.6705,2353.6841,2354.1842,2354.1844,2355.7886,967.8,2355.7887,4.0,2356.7843,8.0,16.0,256.0,0.0,1.0,0.8,0.3,Time
,,S39,1,female,25,anonymized,Serial_Dependence_U,2023.2.3,Win32,59.52380952,,,,,,,,,,,,2356.7865,8.0,2356.7867,,,,2359.9053,2360.4008,2359.4023,2359.9051,2357.7885,30.0,2359.402,2360.4012,2360.901,2360.9029,2362.2893,1166.8,2362.2894,2.0,2363.2843,8.0,17.0,257.0,4.0,1.0,1.6,0.3,Time
,,S39,1,female,25,anonymized,Serial_Dependence_U,2023.2.3,Win32,59.52380952,,,,,,,,,,,,2363.2863,8.0,2363.2867,,,,2366.2224,2366.7176,2365.7034,2366.2224,2364.2891,275.0,2365.7028,2366.7176,2367.2177,2367.2179,2372.8221,1549.8,2372.8222,4.0,2373.8181,8.0,18.0,258.0,18.0,1.0,1.4,0.7,Time
,,S39,1,female,25,anonymized,Serial_Dependence_U,2023.2.3,Win32,59.52380952,,,,,,,,,,,,2373.8198,8.0,2373.8202,,,,2376.9543,2377.451,2376.4371,2376.9542,2374.8222,40.0,2376.4368,2377.4512,2377.9512,2377.9514,2380.4724,1467.2,2380.4725,2.0,2381.4679,8.0,19.0,259.0,29.0,1.0,1.6,0.7,Time
,,S39,1,female,25,anonymized,Serial_Dependence_U,2023.2.3,Win32,59.52380952,,,,,,,,,,,,2381.47,8.0,2381.4702,,,,2383.8035,2384.3011,2383.2893,2383.8034,2382.4727,94.0,2383.2892,2384.3013,2384.8012,2384.8015,2386.2391,1078.9,2386.2392,5.0,2387.2349,8.0,20.0,260.0,10.0,1.0,0.8,0.3,Time
,,S39,1,female,25,anonymized,Serial_Dependence_U,2023.2.3,Win32,59.52380952,,,,,,,,,,,,2387.2366,8.0,2387.2371,,,,2389.7703,2390.2678,2389.2558,2389.7699,2388.239,314.0,2389.2557,2390.2679,2390.7679,2390.7682,2392.0724,1217.8,2392.0725,4.0,2393.0679,8.0,21.0,261.0,6.0,1.0,1.0,0.7,Time
,,S39,1,female,25,anonymized,Serial_Dependence_U,2023.2.3,Win32,59.52380952,,,,,,,,,,,,2393.0698,8.0,2393.0704,,,,2395.6203,2396.118,2395.1056,2395.6202,2394.0878,78.0,2395.1056,2396.1183,2396.6179,2396.6184,2397.989,1066.5,2397.9892,4.0,2398.9848,8.0,22.0,262.0,21.0,1.0,1.0,0.3,Time
,,S39,1,female,25,anonymized,Serial_Dependence_U,2023.2.3,Win32,59.52380952,,,,,,,,,,,,2398.9867,8.0,2398.987,,,,2402.1396,2402.6346,2401.62,2402.1395,2400.0057,121.0,2401.6197,2402.6348,2403.1347,2403.1349,2405.7226,930.4,2405.7227,1.0,2406.718,8.0,23.0,263.0,9.0,1.0,1.6,0.7,Time
,,S39,1,female,25,anonymized,Serial_Dependence_U,2023.2.3,Win32,59.52380952,,,,,,,,,,,,2406.7201,8.0,2406.7205,,,,2409.6375,2410.1351,2409.1225,2409.6374,2407.7213,330.0,2409.1224,2410.1355,2410.6351,2410.6353,2412.5227,1396.0,2412.5228,3.0,2413.5181,8.0,24.0,264.0,8.0,1.0,1.4,0.7,Time
,,S39,1,female,25,anonymized,Serial_Dependence_U,2023.2.3,Win32,59.52380952,,,,,,,,,,,,2413.5201,8.0,2413.5206,,,,2415.8703,2416.3681,2415.3558,2415.8702,2414.5391,323.0,2415.3557,2416.3682,2416.8683,2416.8686,2418.5895,1149.8,2418.5896,5.0,2419.5849,8.0,25.0,265.0,25.0,1.0,0.8,0.7,Time
,,S39,1,female,25,anonymized,Serial_Dependence_U,2023.2.3,Win32,59.52380952,,,,,,,,,,,,2419.5869,8.0,2419.5873,,,,2421.9206,2422.4181,2421.4058,2421.9204,2420.5893,121.0,2421.4057,2422.4183,2422.9182,2422.9185,2424.4895,1166.8,2424.4897,5.0,2425.4853,8.0,26.0,266.0,5.0,1.0,0.8,0.7,Time
,,S39,1,female,25,anonymized,Serial_Dependence_U,2023.2.3,Win32,59.52380952,,,,,,,,,,,,2425.4869,8.0,2425.4875,,,,2428.6214,2429.1182,2428.1058,2428.6213,2426.4893,71.0,2428.1058,2429.1183,2429.6217,2429.6217,2432.573,1009.6,2432.5732,1.0,2433.5683,8.0,27.0,267.0,14.0,1.0,1.6,0.3,Time
,,S39,1,female,25,anonymized,Serial_Dependence_U,2023.2.3,Win32,59.52380952,,,,,,,,,,,,2433.5704,8.0,2433.5708,,,,2436.304,2436.8022,2435.7876,2436.3038,2434.5723,22.0,2435.7876,2436.8023,2437.3019,2437.3021,2440.1902,1116.8,2440.1903,2.0,2441.1851,8.0,28.0,268.0,7.0,1.0,1.2,0.7,Time
,,S39,1,female,25,anonymized,Serial_Dependence_U,2023.2.3,Win32,59.52380952,,,,,,,,,,,,2441.1871,8.0,2441.1876,,,,2443.7066,2444.2017,2443.1899,2443.7066,2442.1882,105.0,2443.1899,2444.2017,2444.7018,2444.702,2446.2068,916.6,2446.2069,2.0,2447.2019,8.0,29.0,269.0,26.0,1.0,1.0,0.7,Time
