Scale_setup.started,Scale_setup.stopped,participant,session,sex,age,date,expName,psychopyVersion,OS,frameRate,screen_scale_keys.started,screen_scale_keys.stopped,X Scale,Y Scale,rectangel_keys.started,rectangel_keys.stopped,Intro.started,Intro.stopped,key_resp_2.keys,key_resp_2.rt,key_resp_2.duration,block.started,Block_id,block.stopped,Block_resp_2.keys,Block_resp_2.rt,Block_resp_2.duration,ITI.started,ITI.stopped,Mask_2.started,Mask_2.stopped,M2.started,direction,M2.stopped,Cue.started,Cue.stopped,Response.started,Response.stopped,keyDuration,Feedback_Time.started,FeedbackID_T,Feedback_Time.stopped,trials.thisRepN,trials.thisTrialN,trials.thisN,trials.thisIndex,trials.ran,TimeDur,Coherence1,TrialType
0.0231,0.0239,S40,1,FEMALE,35,anonymized,Serial_Dependence_U,2023.2.3,Win32,59.88023952,,,,,,,,,,,,,,,,,,,,,,,,,,,,,,,,,,,,,,,,
,,S40,1,FEMALE,35,anonymized,Serial_Dependence_U,2023.2.3,Win32,59.88023952,0.0287,28.6773,0.0553,0.0556,28.6775,32.8943,32.8947,100.6275,space,67.6955,,,,,,,,,,,,,,,,,,,,,,,,,,,,,,
,,S40,1,FEMALE,35,anonymized,Serial_Dependence_U,2023.2.3,Win32,59.88023952,,,,,,,,,,,,100.6453,0.0,102.3608,s,1.6901,,104.8991,105.394,104.3826,104.8985,103.366,171.0,104.382,105.3943,105.8942,105.8946,110.4495,1381.4,110.4521,5.0,111.4439,0.0,0.0,0.0,11.0,1.0,1.0,0.3,Time
,,S40,1,FEMALE,35,anonymized,Serial_Dependence_U,2023.2.3,Win32,59.88023952,,,,,,,,,,,,111.445,0.0,111.4467,,,,114.1947,114.6937,113.6781,114.1942,112.4616,221.0,113.6775,114.6938,115.1938,115.1939,115.3441,67.80000001,115.3449,1.0,116.344,0.0,1.0,1.0,2.0,1.0,1.2,0.3,Time
,,S40,1,FEMALE,35,anonymized,Serial_Dependence_U,2023.2.3,Win32,59.88023952,,,,,,,,,,,,116.3445,0.0,116.3447,,,,119.0671,119.5606,118.5657,119.0664,117.3518,84.0,118.5651,119.5606,120.0606,120.0607,122.1485,1732.0,122.1491,5.0,123.1444,0.0,2.0,2.0,22.0,1.0,1.2,0.3,Time
,,S40,1,FEMALE,35,anonymized,Serial_Dependence_U,2023.2.3,Win32,59.88023952,,,,,,,,,,,,123.1451,0.0,123.1453,,,,125.4677,125.9611,124.9649,125.4672,124.1616,194.0,124.9643,125.9611,126.4607,126.4607,128.8485,2065.4,128.8491,5.0,129.8439,0.0,3.0,3.0,20.0,1.0,0.8,0.3,Time
,,S40,1,FEMALE,35,anonymized,Serial_Dependence_U,2023.2.3,Win32,59.88023952,,,,,,,,,,,,129.8446,0.0,129.845,,,,132.9946,133.494,132.4851,132.994,130.8662,92.0,132.4846,133.494,133.9941,133.9943,136.4148,1966.0,136.4154,4.0,137.4107,0.0,4.0,4.0,19.0,1.0,1.6,0.7,Time
,,S40,1,FEMALE,35,anonymized,Serial_Dependence_U,2023.2.3,Win32,59.88023952,,,,,,,,,,,,137.4113,0.0,137.4115,,,,140.3451,140.8438,139.8317,140.3445,138.4282,268.0,139.8311,140.8438,141.3441,141.3442,142.4985,832.9,142.4991,1.0,143.4938,0.0,5.0,5.0,18.0,1.0,1.4,0.7,Time
,,S40,1,FEMALE,35,anonymized,Serial_Dependence_U,2023.2.3,Win32,59.88023952,,,,,,,,,,,,143.4943,0.0,143.4945,,,,146.6278,147.1273,146.1153,146.6272,144.5119,300.0,146.1148,147.1274,147.6271,147.6272,149.4485,1524.1,149.4491,3.0,150.4459,0.0,6.0,6.0,4.0,1.0,1.6,0.3,Time
,,S40,1,FEMALE,35,anonymized,Serial_Dependence_U,2023.2.3,Win32,59.88023952,,,,,,,,,,,,150.4462,0.0,150.4463,,,,152.9809,153.4775,152.4783,152.9804,151.4613,101.0,152.4774,153.4775,153.9771,153.9771,156.5486,832.7,156.5492,2.0,157.5442,0.0,7.0,7.0,26.0,1.0,1.0,0.7,Time
,,S40,1,FEMALE,35,anonymized,Serial_Dependence_U,2023.2.3,Win32,59.88023952,,,,,,,,,,,,157.5448,0.0,157.5449,,,,160.2654,160.765,159.7618,160.2649,158.55,126.0,159.7612,160.7651,161.2606,161.2606,164.0322,1465.0,164.0328,4.0,165.0273,0.0,8.0,8.0,7.0,1.0,1.2,0.7,Time
,,S40,1,FEMALE,35,anonymized,Serial_Dependence_U,2023.2.3,Win32,59.88023952,,,,,,,,,,,,165.0277,0.0,165.0279,,,,167.5654,168.0606,167.0618,167.5649,166.0458,321.0,167.0611,168.0606,168.5606,168.5607,170.4817,1282.1,170.4824,4.0,171.4772,0.0,9.0,9.0,16.0,1.0,1.0,0.7,Time
,,S40,1,FEMALE,35,anonymized,Serial_Dependence_U,2023.2.3,Win32,59.88023952,,,,,,,,,,,,171.4777,0.0,171.478,,,,173.8151,174.3108,173.3117,173.8145,172.4944,291.0,173.3111,174.3109,174.8108,174.8109,176.9153,1909.9,176.9159,5.0,177.9104,0.0,10.0,10.0,5.0,1.0,0.8,0.7,Time
,,S40,1,FEMALE,35,anonymized,Serial_Dependence_U,2023.2.3,Win32,59.88023952,,,,,,,,,,,,177.9109,0.0,177.911,,,,181.0635,181.5606,180.5451,181.061,178.928,85.0,180.5444,181.5606,182.0605,182.0605,183.3773,1191.6,183.3781,2.0,184.3775,0.0,11.0,11.0,24.0,1.0,1.6,0.3,Time
,,S40,1,FEMALE,35,anonymized,Serial_Dependence_U,2023.2.3,Win32,59.88023952,,,,,,,,,,,,184.378,0.0,184.3784,,,,186.7162,187.2103,186.1947,186.7156,185.3803,79.0,186.1943,187.2103,187.7105,187.7105,189.1153,1348.0,189.116,5.0,190.1107,0.0,12.0,12.0,10.0,1.0,0.8,0.3,Time
,,S40,1,FEMALE,35,anonymized,Serial_Dependence_U,2023.2.3,Win32,59.88023952,,,,,,,,,,,,190.1112,0.0,190.1113,,,,193.0484,193.5441,192.5323,193.0478,191.1277,170.0,192.5317,193.5441,194.044,194.0441,194.5274,206.5,194.5284,1.0,195.5271,0.0,13.0,13.0,3.0,1.0,1.4,0.3,Time
,,S40,1,FEMALE,35,anonymized,Serial_Dependence_U,2023.2.3,Win32,59.88023952,,,,,,,,,,,,195.5276,0.0,195.5279,,,,197.8649,198.3607,197.3452,197.8644,196.5334,250.0,197.3443,198.3607,198.8606,198.8607,201.6817,1250.2,201.6822,5.0,202.6773,0.0,14.0,14.0,25.0,1.0,0.8,0.7,Time
,,S40,1,FEMALE,35,anonymized,Serial_Dependence_U,2023.2.3,Win32,59.88023952,,,,,,,,,,,,202.6783,0.0,202.6785,,,,205.4114,205.9105,204.8989,205.4108,203.6952,257.0,204.8984,205.9106,206.4106,206.4106,207.9652,1080.4,207.966,2.0,208.961,0.0,15.0,15.0,27.0,1.0,1.2,0.7,Time
,,S40,1,FEMALE,35,anonymized,Serial_Dependence_U,2023.2.3,Win32,59.88023952,,,,,,,,,,,,208.9615,0.0,208.9618,,,,211.9114,212.4105,211.3953,211.9107,209.9785,243.0,211.3947,212.4106,212.9109,212.9109,214.6152,1395.1,214.6159,3.0,215.6106,0.0,16.0,16.0,23.0,1.0,1.4,0.3,Time
,,S40,1,FEMALE,35,anonymized,Serial_Dependence_U,2023.2.3,Win32,59.88023952,,,,,,,,,,,,215.6112,0.0,215.6114,,,,218.1457,218.6441,217.6317,218.1448,216.6281,59.0,217.631,218.6441,219.144,219.144,222.5159,799.7,222.5165,2.0,223.5106,0.0,17.0,17.0,1.0,1.0,1.0,0.3,Time
,,S40,1,FEMALE,35,anonymized,Serial_Dependence_U,2023.2.3,Win32,59.88023952,,,,,,,,,,,,223.5113,0.0,223.5115,,,,226.448,226.944,225.9445,226.4475,224.532,155.0,225.944,226.944,227.4442,227.4442,227.9271,427.2,227.928,1.0,228.9272,0.0,18.0,18.0,8.0,1.0,1.4,0.7,Time
,,S40,1,FEMALE,35,anonymized,Serial_Dependence_U,2023.2.3,Win32,59.88023952,,,,,,,,,,,,228.9277,0.0,228.9279,,,,232.0615,232.5608,231.5454,232.0608,229.9326,132.0,231.5446,232.5608,233.0607,233.0608,237.549,1349.2,237.5496,2.0,238.544,0.0,19.0,19.0,29.0,1.0,1.6,0.7,Time
,,S40,1,FEMALE,35,anonymized,Serial_Dependence_U,2023.2.3,Win32,59.88023952,,,,,,,,,,,,238.5447,0.0,238.5453,,,,241.4959,241.9937,240.978,241.4949,239.5614,23.0,240.9774,241.9938,242.4941,242.4941,246.0322,882.7,246.0329,1.0,247.0271,0.0,20.0,20.0,28.0,1.0,1.4,0.7,Time
,,S40,1,FEMALE,35,anonymized,Serial_Dependence_U,2023.2.3,Win32,59.88023952,,,,,,,,,,,,247.0276,0.0,247.0277,,,,249.7614,250.2606,249.2488,249.7608,248.0448,9.0,249.2482,250.2606,250.7606,250.7607,252.0824,899.4,252.0833,2.0,253.0773,0.0,21.0,21.0,17.0,1.0,1.2,0.7,Time
,,S40,1,FEMALE,35,anonymized,Serial_Dependence_U,2023.2.3,Win32,59.88023952,,,,,,,,,,,,253.0779,0.0,253.0781,,,,256.0314,256.527,255.512,256.0309,254.0952,43.0,255.5113,256.527,257.0278,257.0278,258.7986,943.6,258.7992,1.0,259.7937,0.0,22.0,22.0,13.0,1.0,1.4,0.3,Time
,,S40,1,FEMALE,35,anonymized,Serial_Dependence_U,2023.2.3,Win32,59.88023952,,,,,,,,,,,,259.7944,0.0,259.7945,,,,262.3332,262.8272,261.8283,262.3323,260.8117,187.0,261.8274,262.8273,263.3324,263.3324,268.2823,1026.5,268.283,3.0,269.2772,0.0,23.0,23.0,6.0,1.0,1.0,0.7,Time
,,S40,1,FEMALE,35,anonymized,Serial_Dependence_U,2023.2.3,Win32,59.88023952,,,,,,,,,,,,269.2777,0.0,269.2779,,,,271.8282,272.3272,271.3115,271.8276,270.2949,143.0,271.3108,272.3272,272.8274,272.8275,277.0108,1331.9,277.0114,5.0,278.0105,0.0,24.0,24.0,21.0,1.0,1.0,0.3,Time
,,S40,1,FEMALE,35,anonymized,Serial_Dependence_U,2023.2.3,Win32,59.88023952,,,,,,,,,,,,278.0112,0.0,278.0114,,,,280.3318,280.8271,279.8279,280.3314,279.0153,79.0,279.8273,280.8272,281.3271,281.3272,284.549,915.7,284.55,4.0,285.544,0.0,25.0,25.0,15.0,1.0,0.8,0.7,Time
,,S40,1,FEMALE,35,anonymized,Serial_Dependence_U,2023.2.3,Win32,59.88023952,,,,,,,,,,,,285.5446,0.0,285.5448,,,,288.6949,289.1943,288.1782,288.6943,286.5615,321.0,288.1776,289.1943,289.6937,289.6938,290.6772,933.2,290.6779,1.0,291.677,0.0,26.0,26.0,9.0,1.0,1.6,0.7,Time
,,S40,1,FEMALE,35,anonymized,Serial_Dependence_U,2023.2.3,Win32,59.88023952,,,,,,,,,,,,291.6775,0.0,291.6777,,,,294.428,294.9273,293.9113,294.4275,292.6952,69.0,293.9109,294.9273,295.4271,295.4272,301.3604,351.6,301.3611,1.0,302.3607,0.0,27.0,27.0,12.0,1.0,1.2,0.3,Time
,,S40,1,FEMALE,35,anonymized,Serial_Dependence_U,2023.2.3,Win32,59.88023952,,,,,,,,,,,,302.3613,0.0,302.3614,,,,305.5152,306.015,304.9962,305.5147,303.3783,143.0,304.994,306.015,306.5148,306.5148,307.0657,199.3,307.0663,1.0,308.0639,0.0,28.0,28.0,14.0,1.0,1.6,0.3,Time
,,S40,1,FEMALE,35,anonymized,Serial_Dependence_U,2023.2.3,Win32,59.88023952,,,,,,,,,,,,308.0644,0.0,308.0644,,,,310.4008,310.898,309.8822,310.3988,309.0662,36.0,309.8817,310.898,311.398,311.398,311.7818,250.0,311.7823,1.0,312.7809,0.0,29.0,29.0,0.0,1.0,0.8,0.3,Time
,,S40,1,FEMALE,35,anonymized,Serial_Dependence_U,2023.2.3,Win32,59.88023952,,,,,,,,,,,,312.7812,1.0,320.2947,s,7.4394,,323.232,323.7271,322.7281,323.2314,321.3114,4.0,322.7276,323.7271,324.2272,324.2273,325.7318,1084.2,325.7325,2.0,326.7272,1.0,0.0,30.0,23.0,1.0,1.4,0.3,Time
,,S40,1,FEMALE,35,anonymized,Serial_Dependence_U,2023.2.3,Win32,59.88023952,,,,,,,,,,,,326.7276,1.0,326.7298,,,,329.678,330.1771,329.1649,329.6773,327.7444,137.0,329.1644,330.1772,330.6771,330.6771,332.2318,1416.1,332.2324,3.0,333.2271,1.0,1.0,31.0,13.0,1.0,1.4,0.3,Time
,,S40,1,FEMALE,35,anonymized,Serial_Dependence_U,2023.2.3,Win32,59.88023952,,,,,,,,,,,,333.2276,1.0,333.2277,,,,335.5777,336.0772,335.0614,335.5773,334.2451,83.0,335.0609,336.0773,336.5771,336.5771,338.2775,1249.4,338.2785,5.0,339.2771,1.0,2.0,32.0,0.0,1.0,0.8,0.3,Time
,,S40,1,FEMALE,35,anonymized,Serial_Dependence_U,2023.2.3,Win32,59.88023952,,,,,,,,,,,,339.2775,1.0,339.2776,,,,342.0278,342.5271,341.5115,342.0273,340.2949,263.0,341.5109,342.5271,343.0272,343.0273,343.5107,48.0,343.5113,1.0,344.5106,1.0,3.0,33.0,12.0,1.0,1.2,0.3,Time
,,S40,1,FEMALE,35,anonymized,Serial_Dependence_U,2023.2.3,Win32,59.88023952,,,,,,,,,,,,344.5112,1.0,344.5114,,,,347.4616,347.9604,346.9446,347.4611,345.5281,234.0,346.9441,347.9604,348.4604,348.4605,350.5272,1403.8,350.5279,3.0,351.5271,1.0,4.0,34.0,8.0,1.0,1.4,0.7,Time
,,S40,1,FEMALE,35,anonymized,Serial_Dependence_U,2023.2.3,Win32,59.88023952,,,,,,,,,,,,351.5274,1.0,351.5276,,,,354.0786,354.5773,353.5613,354.078,352.545,335.0,353.5607,354.5775,355.0772,355.0772,357.2271,1309.6,357.2278,5.0,358.2271,1.0,5.0,35.0,1.0,1.0,1.0,0.3,Time
,,S40,1,FEMALE,35,anonymized,Serial_Dependence_U,2023.2.3,Win32,59.88023952,,,,,,,,,,,,358.2276,1.0,358.2277,,,,360.578,361.0771,360.0617,360.5774,359.2446,88.0,360.0611,361.0771,361.5771,361.5771,363.5441,1104.7,363.5447,5.0,364.5439,1.0,6.0,36.0,25.0,1.0,0.8,0.7,Time
,,S40,1,FEMALE,35,anonymized,Serial_Dependence_U,2023.2.3,Win32,59.88023952,,,,,,,,,,,,364.5445,1.0,364.5447,,,,366.8778,367.3772,366.3614,366.8773,365.5452,30.0,366.3608,367.3772,367.8771,367.8772,368.344,67.89999998,368.345,1.0,369.344,1.0,7.0,37.0,15.0,1.0,0.8,0.7,Time
,,S40,1,FEMALE,35,anonymized,Serial_Dependence_U,2023.2.3,Win32,59.88023952,,,,,,,,,,,,369.3446,1.0,369.3448,,,,372.2653,372.7607,371.7614,372.2649,370.348,160.0,371.7607,372.7607,373.2607,373.2607,375.2486,1496.5,375.2492,4.0,376.244,1.0,8.0,38.0,28.0,1.0,1.4,0.7,Time
,,S40,1,FEMALE,35,anonymized,Serial_Dependence_U,2023.2.3,Win32,59.88023952,,,,,,,,,,,,376.2444,1.0,376.2446,,,,379.3952,379.894,378.8779,379.3944,377.2615,103.0,378.8773,379.8941,380.3938,380.3939,381.9773,1233.2,381.9782,2.0,382.9771,1.0,9.0,39.0,19.0,1.0,1.6,0.7,Time
,,S40,1,FEMALE,35,anonymized,Serial_Dependence_U,2023.2.3,Win32,59.88023952,,,,,,,,,,,,382.9775,1.0,382.9776,,,,385.7278,386.2271,385.2115,385.7273,383.9946,31.0,385.2109,386.2272,386.7271,386.7271,388.2443,1398.9,388.245,4.0,389.244,1.0,10.0,40.0,17.0,1.0,1.2,0.7,Time
,,S40,1,FEMALE,35,anonymized,Serial_Dependence_U,2023.2.3,Win32,59.88023952,,,,,,,,,,,,389.2444,1.0,389.2446,,,,391.5782,392.077,391.0656,391.5776,390.2615,93.0,391.065,392.077,392.5772,392.5772,393.9643,882.2,393.9647,4.0,394.9605,1.0,11.0,41.0,5.0,1.0,0.8,0.7,Time
,,S40,1,FEMALE,35,anonymized,Serial_Dependence_U,2023.2.3,Win32,59.88023952,,,,,,,,,,,,394.961,1.0,394.9611,,,,397.6954,398.1939,397.1813,397.6947,395.9666,250.0,397.1808,398.1939,398.6937,398.6938,400.9486,1892.2,400.9493,5.0,401.9441,1.0,12.0,42.0,22.0,1.0,1.2,0.3,Time
,,S40,1,FEMALE,35,anonymized,Serial_Dependence_U,2023.2.3,Win32,59.88023952,,,,,,,,,,,,401.9447,1.0,401.9449,,,,404.482,404.977,403.9617,404.4815,402.9495,130.0,403.9608,404.9771,405.4772,405.4772,407.0319,1282.0,407.0324,4.0,408.0272,1.0,13.0,43.0,26.0,1.0,1.0,0.7,Time
,,S40,1,FEMALE,35,anonymized,Serial_Dependence_U,2023.2.3,Win32,59.88023952,,,,,,,,,,,,408.0277,1.0,408.0279,,,,410.5782,411.077,410.0651,410.5775,409.0459,308.0,410.0642,411.0771,411.5773,411.5774,412.0318,215.0,412.0324,1.0,413.027,1.0,14.0,44.0,6.0,1.0,1.0,0.7,Time
,,S40,1,FEMALE,35,anonymized,Serial_Dependence_U,2023.2.3,Win32,59.88023952,,,,,,,,,,,,413.0276,1.0,413.0278,,,,416.178,416.677,415.6616,416.1773,414.0448,264.0,415.6609,416.677,417.1773,417.1773,419.2315,1675.6,419.2321,3.0,420.2272,1.0,15.0,45.0,29.0,1.0,1.6,0.7,Time
,,S40,1,FEMALE,35,anonymized,Serial_Dependence_U,2023.2.3,Win32,59.88023952,,,,,,,,,,,,420.2283,1.0,420.2284,,,,423.3783,423.8773,422.8652,423.3776,421.2445,129.0,422.8645,423.8773,424.3775,424.3776,426.5275,1611.7,426.5285,3.0,427.527,1.0,16.0,46.0,9.0,1.0,1.6,0.7,Time
,,S40,1,FEMALE,35,anonymized,Serial_Dependence_U,2023.2.3,Win32,59.88023952,,,,,,,,,,,,427.5275,1.0,427.5276,,,,430.0613,430.5605,429.547,430.0607,428.5313,285.0,429.5446,430.5605,431.0603,431.0604,433.2152,1645.6,433.2158,5.0,434.2105,1.0,17.0,47.0,21.0,1.0,1.0,0.3,Time
,,S40,1,FEMALE,35,anonymized,Serial_Dependence_U,2023.2.3,Win32,59.88023952,,,,,,,,,,,,434.211,1.0,434.2111,,,,437.3612,437.8606,436.845,437.3607,435.228,33.0,436.8442,437.8606,438.3605,438.3605,440.7106,1743.8,440.7113,4.0,441.7104,1.0,18.0,48.0,24.0,1.0,1.6,0.3,Time
,,S40,1,FEMALE,35,anonymized,Serial_Dependence_U,2023.2.3,Win32,59.88023952,,,,,,,,,,,,441.7108,1.0,441.711,,,,444.0612,444.5607,443.5447,444.0607,442.728,46.0,443.5439,444.5608,445.0606,445.0606,448.9606,2230.6,448.9613,5.0,449.9607,1.0,19.0,49.0,10.0,1.0,0.8,0.3,Time
,,S40,1,FEMALE,35,anonymized,Serial_Dependence_U,2023.2.3,Win32,59.88023952,,,,,,,,,,,,449.9613,1.0,449.9614,,,,453.118,453.6105,452.595,453.1173,450.978,246.0,452.5943,453.6105,454.1104,454.1104,455.994,1501.7,455.9947,2.0,456.994,1.0,20.0,50.0,14.0,1.0,1.6,0.3,Time
,,S40,1,FEMALE,35,anonymized,Serial_Dependence_U,2023.2.3,Win32,59.88023952,,,,,,,,,,,,456.9947,1.0,456.9949,,,,459.3453,459.8437,458.8293,459.3445,458.0112,215.0,458.8274,459.8437,460.3439,460.3439,465.6605,1416.4,465.6611,5.0,466.6605,1.0,21.0,51.0,20.0,1.0,0.8,0.3,Time
,,S40,1,FEMALE,35,anonymized,Serial_Dependence_U,2023.2.3,Win32,59.88023952,,,,,,,,,,,,466.661,1.0,466.6611,,,,469.811,470.3107,469.2946,469.8105,467.6781,322.0,469.294,470.3108,470.8104,470.8104,472.594,1482.1,472.5947,2.0,473.5937,1.0,22.0,52.0,4.0,1.0,1.6,0.3,Time
,,S40,1,FEMALE,35,anonymized,Serial_Dependence_U,2023.2.3,Win32,59.88023952,,,,,,,,,,,,473.5942,1.0,473.5943,,,,476.346,476.8439,475.828,476.344,474.6114,247.0,475.8274,476.8439,477.3438,477.3438,479.2441,1549.0,479.2448,4.0,480.2441,1.0,23.0,53.0,27.0,1.0,1.2,0.7,Time
,,S40,1,FEMALE,35,anonymized,Serial_Dependence_U,2023.2.3,Win32,59.88023952,,,,,,,,,,,,480.2448,1.0,480.2449,,,,482.7951,483.2937,482.278,482.7941,481.2613,11.0,482.2774,483.2937,483.7939,483.7939,485.8106,918.2,485.8112,2.0,486.8104,1.0,24.0,54.0,16.0,1.0,1.0,0.7,Time
,,S40,1,FEMALE,35,anonymized,Serial_Dependence_U,2023.2.3,Win32,59.88023952,,,,,,,,,,,,486.8109,1.0,486.8172,,,,489.7612,490.2604,489.2457,489.7607,487.8276,277.0,489.2443,490.2604,490.7606,490.7607,492.8607,1814.4,492.8615,4.0,493.8606,1.0,25.0,55.0,3.0,1.0,1.4,0.3,Time
,,S40,1,FEMALE,35,anonymized,Serial_Dependence_U,2023.2.3,Win32,59.88023952,,,,,,,,,,,,493.8611,1.0,493.8613,,,,496.8113,497.3107,496.2949,496.8109,494.8782,165.0,496.2945,497.3107,497.8104,497.8105,499.8611,1521.3,499.8617,4.0,500.8605,1.0,26.0,56.0,18.0,1.0,1.4,0.7,Time
,,S40,1,FEMALE,35,anonymized,Serial_Dependence_U,2023.2.3,Win32,59.88023952,,,,,,,,,,,,500.861,1.0,500.8612,,,,503.6115,504.1103,503.0951,503.6109,501.8779,185.0,503.0942,504.1104,504.6102,504.6104,506.1152,1087.5,506.1157,2.0,507.1105,1.0,27.0,57.0,2.0,1.0,1.2,0.3,Time
,,S40,1,FEMALE,35,anonymized,Serial_Dependence_U,2023.2.3,Win32,59.88023952,,,,,,,,,,,,507.1111,1.0,507.1114,,,,509.848,510.3438,509.3279,509.8474,508.115,294.0,509.3274,510.3439,510.8437,510.8438,512.1654,816.9,512.1659,1.0,513.1604,1.0,28.0,58.0,7.0,1.0,1.2,0.7,Time
,,S40,1,FEMALE,35,anonymized,Serial_Dependence_U,2023.2.3,Win32,59.88023952,,,,,,,,,,,,513.161,1.0,513.1612,,,,515.7113,516.2104,515.1947,515.7108,514.1811,143.0,515.1941,516.2104,516.7107,516.7107,519.0607,1304.2,519.0614,5.0,520.0608,1.0,29.0,59.0,11.0,1.0,1.0,0.3,Time
,,S40,1,FEMALE,35,anonymized,Serial_Dependence_U,2023.2.3,Win32,59.88023952,,,,,,,,,,,,520.0614,2.0,596.2316,s,76.115,,598.9777,599.477,598.4611,598.9773,597.2445,292.0,598.4606,599.4771,599.977,599.9771,601.6277,1330.8,601.6283,4.0,602.6271,2.0,0.0,60.0,22.0,1.0,1.2,0.3,Time
,,S40,1,FEMALE,35,anonymized,Serial_Dependence_U,2023.2.3,Win32,59.88023952,,,,,,,,,,,,602.6276,2.0,602.6365,,,,605.5779,606.0773,605.0615,605.5774,603.6447,71.0,605.061,606.0773,606.577,606.577,610.1772,943.7,610.1779,1.0,611.177,2.0,1.0,61.0,18.0,1.0,1.4,0.7,Time
,,S40,1,FEMALE,35,anonymized,Serial_Dependence_U,2023.2.3,Win32,59.88023952,,,,,,,,,,,,611.1777,2.0,611.1779,,,,613.5319,614.0271,613.0116,613.5314,612.1988,44.0,613.011,614.0271,614.5271,614.5271,616.4321,1450.0,616.4329,5.0,617.4277,2.0,2.0,62.0,25.0,1.0,0.8,0.7,Time
,,S40,1,FEMALE,35,anonymized,Serial_Dependence_U,2023.2.3,Win32,59.88023952,,,,,,,,,,,,617.4284,2.0,617.4288,,,,620.5784,621.0771,620.0652,620.5774,618.4506,319.0,620.0647,621.0771,621.5772,621.5772,623.8321,1505.0,623.8326,2.0,624.827,2.0,3.0,63.0,24.0,1.0,1.6,0.3,Time
,,S40,1,FEMALE,35,anonymized,Serial_Dependence_U,2023.2.3,Win32,59.88023952,,,,,,,,,,,,624.8275,2.0,624.8277,,,,627.7779,628.277,627.2657,627.7773,625.846,321.0,627.2652,628.277,628.777,628.777,630.4278,1598.3,630.4285,4.0,631.4272,2.0,4.0,64.0,13.0,1.0,1.4,0.3,Time
,,S40,1,FEMALE,35,anonymized,Serial_Dependence_U,2023.2.3,Win32,59.88023952,,,,,,,,,,,,631.4279,2.0,631.4281,,,,633.9654,634.4603,633.4452,633.9649,632.4312,194.0,633.4443,634.4603,634.9604,634.9605,636.2319,1215.2,636.2325,4.0,637.2271,2.0,5.0,65.0,11.0,1.0,1.0,0.3,Time
,,S40,1,FEMALE,35,anonymized,Serial_Dependence_U,2023.2.3,Win32,59.88023952,,,,,,,,,,,,637.2276,2.0,637.2278,,,,640.3614,640.8606,639.8473,640.3608,638.2316,266.0,639.8442,640.8606,641.3607,641.3607,643.5648,2178.5,643.5655,5.0,644.5606,2.0,6.0,66.0,14.0,1.0,1.6,0.3,Time
,,S40,1,FEMALE,35,anonymized,Serial_Dependence_U,2023.2.3,Win32,59.88023952,,,,,,,,,,,,644.5614,2.0,644.5616,,,,647.6949,648.194,647.1819,647.6944,645.5632,39.0,647.1814,648.1941,648.6944,648.6945,649.1773,50.10000002,649.1785,1.0,650.1772,2.0,7.0,67.0,19.0,1.0,1.6,0.7,Time
,,S40,1,FEMALE,35,anonymized,Serial_Dependence_U,2023.2.3,Win32,59.88023952,,,,,,,,,,,,650.1777,2.0,650.1778,,,,652.7281,653.2272,652.2115,652.7274,651.1988,80.0,652.2109,653.2273,653.727,653.7271,654.2321,17.0,654.2327,1.0,655.227,2.0,8.0,68.0,21.0,1.0,1.0,0.3,Time
,,S40,1,FEMALE,35,anonymized,Serial_Dependence_U,2023.2.3,Win32,59.88023952,,,,,,,,,,,,655.2276,2.0,655.2279,,,,657.9658,658.4603,657.4612,657.9651,656.2489,40.0,657.4606,658.4603,658.9606,658.9606,660.4156,1025.0,660.4163,2.0,661.4105,2.0,9.0,69.0,7.0,1.0,1.2,0.7,Time
,,S40,1,FEMALE,35,anonymized,Serial_Dependence_U,2023.2.3,Win32,59.88023952,,,,,,,,,,,,661.411,2.0,661.4112,,,,663.7613,664.2603,663.2447,663.7607,662.4277,224.0,663.2442,664.2603,664.7604,664.7605,668.1939,1555.4,668.1946,5.0,669.1942,2.0,10.0,70.0,0.0,1.0,0.8,0.3,Time
,,S40,1,FEMALE,35,anonymized,Serial_Dependence_U,2023.2.3,Win32,59.88023952,,,,,,,,,,,,669.1952,2.0,669.1955,,,,671.9284,672.427,671.4149,671.9275,670.2111,3.0,671.4144,672.427,672.927,672.9271,674.0272,631.8,674.028,1.0,675.0271,2.0,11.0,71.0,27.0,1.0,1.2,0.7,Time
,,S40,1,FEMALE,35,anonymized,Serial_Dependence_U,2023.2.3,Win32,59.88023952,,,,,,,,,,,,675.0275,2.0,675.0277,,,,677.3653,677.8606,676.8452,677.3649,676.032,3.0,676.8443,677.8606,678.3608,678.3609,683.366,1616.1,683.3666,5.0,684.3604,2.0,12.0,72.0,5.0,1.0,0.8,0.7,Time
,,S40,1,FEMALE,35,anonymized,Serial_Dependence_U,2023.2.3,Win32,59.88023952,,,,,,,,,,,,684.3612,2.0,684.3617,,,,687.3144,687.8106,686.7989,687.3138,685.3815,157.0,686.7983,687.8106,688.3103,688.3104,694.0649,1112.4,694.0655,2.0,695.0604,2.0,13.0,73.0,23.0,1.0,1.4,0.3,Time
,,S40,1,FEMALE,35,anonymized,Serial_Dependence_U,2023.2.3,Win32,59.88023952,,,,,,,,,,,,695.0608,2.0,695.0611,,,,697.9989,698.4939,697.4957,697.9985,696.0823,20.0,697.4947,698.494,698.9938,698.9938,703.1154,1432.5,703.1161,3.0,704.1105,2.0,14.0,74.0,3.0,1.0,1.4,0.3,Time
,,S40,1,FEMALE,35,anonymized,Serial_Dependence_U,2023.2.3,Win32,59.88023952,,,,,,,,,,,,704.1111,2.0,704.1113,,,,706.4492,706.9476,705.9319,706.4487,705.1155,325.0,705.9314,706.9477,707.4487,707.4487,713.4722,9999.0,713.4728,0.0,714.477,2.0,15.0,75.0,10.0,1.0,0.8,0.3,Time
,,S40,1,FEMALE,35,anonymized,Serial_Dependence_U,2023.2.3,Win32,59.88023952,,,,,,,,,,,,714.4774,2.0,714.4776,,,,717.1991,717.6937,716.6951,717.1986,715.4821,99.0,716.6946,717.6937,718.1937,718.1938,720.0821,1154.7,720.0826,3.0,721.0772,2.0,16.0,76.0,2.0,1.0,1.2,0.3,Time
,,S40,1,FEMALE,35,anonymized,Serial_Dependence_U,2023.2.3,Win32,59.88023952,,,,,,,,,,,,721.0777,2.0,721.0779,,,,724.0111,724.5106,723.4948,724.0106,722.0823,223.0,723.4943,724.5107,725.0103,725.0103,725.9939,965.6,725.9948,1.0,726.9937,2.0,17.0,77.0,28.0,1.0,1.4,0.7,Time
,,S40,1,FEMALE,35,anonymized,Serial_Dependence_U,2023.2.3,Win32,59.88023952,,,,,,,,,,,,726.9942,2.0,726.9946,,,,729.5285,730.0269,729.0164,729.5278,728.011,288.0,729.0158,730.027,730.5272,730.5273,731.9982,936.1,731.9988,2.0,732.9936,2.0,18.0,78.0,6.0,1.0,1.0,0.7,Time
,,S40,1,FEMALE,35,anonymized,Serial_Dependence_U,2023.2.3,Win32,59.88023952,,,,,,,,,,,,732.994,2.0,732.9941,,,,735.7281,736.2271,735.2149,735.7274,734.0115,90.0,735.2144,736.2271,736.7271,736.7271,738.1992,1160.2,738.1999,3.0,739.194,2.0,19.0,79.0,12.0,1.0,1.2,0.3,Time
,,S40,1,FEMALE,35,anonymized,Serial_Dependence_U,2023.2.3,Win32,59.88023952,,,,,,,,,,,,739.1945,2.0,739.1947,,,,742.145,742.6437,741.6277,742.1442,740.2114,313.0,741.6273,742.6438,743.1436,743.1437,744.4438,1055.1,744.4447,2.0,745.4438,2.0,20.0,80.0,8.0,1.0,1.4,0.7,Time
,,S40,1,FEMALE,35,anonymized,Serial_Dependence_U,2023.2.3,Win32,59.88023952,,,,,,,,,,,,745.4448,2.0,745.4452,,,,747.7655,748.2604,747.2612,747.765,746.4494,112.0,747.2606,748.2604,748.7605,748.7606,750.3153,932.2,750.3159,4.0,751.3102,2.0,21.0,81.0,15.0,1.0,0.8,0.7,Time
,,S40,1,FEMALE,35,anonymized,Serial_Dependence_U,2023.2.3,Win32,59.88023952,,,,,,,,,,,,751.3107,2.0,751.3108,,,,753.8617,754.3605,753.3482,753.8611,752.3311,85.0,753.3476,754.3606,754.8605,754.8606,755.444,111.1,755.4451,1.0,756.4437,2.0,22.0,82.0,1.0,1.0,1.0,0.3,Time
,,S40,1,FEMALE,35,anonymized,Serial_Dependence_U,2023.2.3,Win32,59.88023952,,,,,,,,,,,,756.4441,2.0,756.4444,,,,758.7945,759.2937,758.2781,758.7939,757.4653,131.0,758.2774,759.2937,759.7939,759.794,761.5147,1302.6,761.5153,5.0,762.5103,2.0,23.0,83.0,20.0,1.0,0.8,0.3,Time
,,S40,1,FEMALE,35,anonymized,Serial_Dependence_U,2023.2.3,Win32,59.88023952,,,,,,,,,,,,762.5108,2.0,762.511,,,,765.2646,765.7605,764.7446,765.2641,763.5281,140.0,764.7439,765.7606,766.2604,766.2606,768.1819,1399.4,768.1826,4.0,769.1771,2.0,24.0,84.0,17.0,1.0,1.2,0.7,Time
,,S40,1,FEMALE,35,anonymized,Serial_Dependence_U,2023.2.3,Win32,59.88023952,,,,,,,,,,,,769.1775,2.0,769.1776,,,,772.3163,772.8105,771.8113,772.3158,770.1993,143.0,771.8107,772.8105,773.3105,773.3106,775.1986,1679.1,775.1992,3.0,776.1937,2.0,25.0,85.0,29.0,1.0,1.6,0.7,Time
,,S40,1,FEMALE,35,anonymized,Serial_Dependence_U,2023.2.3,Win32,59.88023952,,,,,,,,,,,,776.1941,2.0,776.1943,,,,778.7452,779.2437,778.2325,778.7441,777.2122,309.0,778.232,779.2437,779.7439,779.744,781.8983,1725.1,781.8988,5.0,782.894,2.0,26.0,86.0,26.0,1.0,1.0,0.7,Time
,,S40,1,FEMALE,35,anonymized,Serial_Dependence_U,2023.2.3,Win32,59.88023952,,,,,,,,,,,,782.8947,2.0,782.8951,,,,785.432,785.9271,784.9279,785.4315,783.9144,66.0,784.9273,785.9272,786.4269,786.4269,788.0149,863.0,788.0154,2.0,789.0103,2.0,27.0,87.0,16.0,1.0,1.0,0.7,Time
,,S40,1,FEMALE,35,anonymized,Serial_Dependence_U,2023.2.3,Win32,59.88023952,,,,,,,,,,,,789.0108,2.0,789.011,,,,792.1612,792.6607,791.6457,792.1607,790.0278,81.0,791.6449,792.6608,793.1604,793.1604,795.482,1147.2,795.4827,2.0,796.4772,2.0,28.0,88.0,4.0,1.0,1.6,0.3,Time
,,S40,1,FEMALE,35,anonymized,Serial_Dependence_U,2023.2.3,Win32,59.88023952,,,,,,,,,,,,796.4777,2.0,796.4778,,,,799.6112,800.1105,799.0984,799.6106,797.4825,103.0,799.0979,800.1105,800.6104,800.6105,803.6826,1099.7,803.683,1.0,804.6771,2.0,29.0,89.0,9.0,1.0,1.6,0.7,Time
,,S40,1,FEMALE,35,anonymized,Serial_Dependence_U,2023.2.3,Win32,59.88023952,,,,,,,,,,,,804.6776,3.0,990.4841,s,185.7468,,993.0119,993.5146,992.4981,993.0114,991.496,224.0,992.4977,993.5147,994.0104,994.0104,995.6273,1117.3,995.6283,4.0,996.627,3.0,0.0,90.0,21.0,1.0,1.0,0.3,Time
,,S40,1,FEMALE,35,anonymized,Serial_Dependence_U,2023.2.3,Win32,59.88023952,,,,,,,,,,,,996.6285,3.0,996.6324,,,,999.1495,999.6441,998.6445,999.1491,997.6322,74.0,998.6438,999.6441,1000.1437,1000.1438,1001.7152,1246.7,1001.7158,4.0,1002.7107,3.0,1.0,91.0,26.0,1.0,1.0,0.7,Time
,,S40,1,FEMALE,35,anonymized,Serial_Dependence_U,2023.2.3,Win32,59.88023952,,,,,,,,,,,,1002.7115,3.0,1002.7116,,,,1005.4454,1005.9437,1004.932,1005.4444,1003.7141,313.0,1004.9316,1005.9437,1006.4436,1006.4436,1008.0159,1032.7,1008.0167,2.0,1009.0102,3.0,2.0,92.0,17.0,1.0,1.2,0.7,Time
,,S40,1,FEMALE,35,anonymized,Serial_Dependence_U,2023.2.3,Win32,59.88023952,,,,,,,,,,,,1009.0106,3.0,1009.0113,,,,1011.7487,1012.2437,1011.2282,1011.7481,1010.0158,115.0,1011.2275,1012.2438,1012.7437,1012.7437,1013.1821,99.5,1013.1828,1.0,1014.1771,3.0,3.0,93.0,2.0,1.0,1.2,0.3,Time
,,S40,1,FEMALE,35,anonymized,Serial_Dependence_U,2023.2.3,Win32,59.88023952,,,,,,,,,,,,1014.1776,3.0,1014.1777,,,,1017.3312,1017.8269,1016.8155,1017.3307,1015.1984,42.0,1016.815,1017.8269,1018.327,1018.3271,1021.0106,1184.0,1021.0135,2.0,1022.0104,3.0,4.0,94.0,24.0,1.0,1.6,0.3,Time
,,S40,1,FEMALE,35,anonymized,Serial_Dependence_U,2023.2.3,Win32,59.88023952,,,,,,,,,,,,1022.0113,3.0,1022.0116,,,,1024.545,1025.0438,1024.0324,1024.5444,1023.0283,234.0,1024.0316,1025.0438,1025.5438,1025.5438,1026.7318,848.7,1026.7324,2.0,1027.7269,3.0,5.0,95.0,11.0,1.0,1.0,0.3,Time
,,S40,1,FEMALE,35,anonymized,Serial_Dependence_U,2023.2.3,Win32,59.88023952,,,,,,,,,,,,1027.7274,3.0,1027.7275,,,,1030.0654,1030.5603,1029.5615,1030.0649,1028.7453,252.0,1029.5609,1030.5604,1031.0606,1031.0606,1033.032,1837.4,1033.0326,5.0,1034.027,3.0,6.0,96.0,15.0,1.0,0.8,0.7,Time
,,S40,1,FEMALE,35,anonymized,Serial_Dependence_U,2023.2.3,Win32,59.88023952,,,,,,,,,,,,1034.0275,3.0,1034.0277,,,,1036.5616,1037.0603,1036.0468,1036.5609,1035.0318,333.0,1036.0443,1037.0603,1037.5604,1037.5605,1038.698,1091.4,1038.6986,4.0,1039.6938,3.0,7.0,97.0,16.0,1.0,1.0,0.7,Time
,,S40,1,FEMALE,35,anonymized,Serial_Dependence_U,2023.2.3,Win32,59.88023952,,,,,,,,,,,,1039.6946,3.0,1039.6949,,,,1042.4331,1042.927,1041.9284,1042.4322,1040.7114,148.0,1041.9279,1042.9271,1043.427,1043.4271,1045.8318,1680.3,1045.8325,5.0,1046.8271,3.0,8.0,98.0,12.0,1.0,1.2,0.3,Time
,,S40,1,FEMALE,35,anonymized,Serial_Dependence_U,2023.2.3,Win32,59.88023952,,,,,,,,,,,,1046.8277,3.0,1046.8279,,,,1049.9778,1050.477,1049.4674,1049.9773,1047.845,29.0,1049.467,1050.477,1050.977,1050.977,1052.5942,1346.8,1052.5948,2.0,1053.594,3.0,9.0,99.0,19.0,1.0,1.6,0.7,Time
,,S40,1,FEMALE,35,anonymized,Serial_Dependence_U,2023.2.3,Win32,59.88023952,,,,,,,,,,,,1053.5946,3.0,1053.5948,,,,1056.7453,1057.2438,1056.2288,1056.7445,1054.6114,201.0,1056.2281,1057.2439,1057.7436,1057.7437,1058.5273,473.9,1058.5281,1.0,1059.5269,3.0,10.0,100.0,29.0,1.0,1.6,0.7,Time
,,S40,1,FEMALE,35,anonymized,Serial_Dependence_U,2023.2.3,Win32,59.88023952,,,,,,,,,,,,1059.5275,3.0,1059.5276,,,,1062.6779,1063.177,1062.1612,1062.6773,1060.5448,189.0,1062.1606,1063.1771,1063.6769,1063.6769,1066.5779,1973.4,1066.5788,4.0,1067.577,3.0,11.0,101.0,14.0,1.0,1.6,0.3,Time
,,S40,1,FEMALE,35,anonymized,Serial_Dependence_U,2023.2.3,Win32,59.88023952,,,,,,,,,,,,1067.5782,3.0,1067.5783,,,,1070.5158,1071.0104,1070.0114,1070.5154,1068.5983,296.0,1070.0108,1071.0104,1071.5103,1071.5104,1073.6605,840.6,1073.6613,1.0,1074.6603,3.0,12.0,102.0,3.0,1.0,1.4,0.3,Time
,,S40,1,FEMALE,35,anonymized,Serial_Dependence_U,2023.2.3,Win32,59.88023952,,,,,,,,,,,,1074.6607,3.0,1074.6609,,,,1077.2114,1077.7105,1076.6947,1077.2107,1075.6778,176.0,1076.6942,1077.7106,1078.2108,1078.2108,1079.5439,941.1,1079.5444,2.0,1080.5437,3.0,13.0,103.0,1.0,1.0,1.0,0.3,Time
,,S40,1,FEMALE,35,anonymized,Serial_Dependence_U,2023.2.3,Win32,59.88023952,,,,,,,,,,,,1080.5443,3.0,1080.5461,,,,1083.6779,1084.177,1083.1684,1083.6773,1081.5495,18.0,1083.1679,1084.177,1084.6772,1084.6772,1086.0653,1315.7,1086.0659,2.0,1087.0608,3.0,14.0,104.0,9.0,1.0,1.6,0.7,Time
,,S40,1,FEMALE,35,anonymized,Serial_Dependence_U,2023.2.3,Win32,59.88023952,,,,,,,,,,,,1087.0614,3.0,1087.0616,,,,1089.9946,1090.4939,1089.4826,1089.994,1088.0778,67.0,1089.482,1090.4939,1090.9939,1090.9939,1091.0319,0.599999964,1091.0327,1.0,1092.027,3.0,15.0,105.0,13.0,1.0,1.4,0.3,Time
,,S40,1,FEMALE,35,anonymized,Serial_Dependence_U,2023.2.3,Win32,59.88023952,,,,,,,,,,,,1092.0274,3.0,1092.0275,,,,1094.3784,1094.8778,1093.8654,1094.3775,1093.045,87.0,1093.8649,1094.8778,1095.377,1095.3771,1098.2324,1541.2,1098.2331,5.0,1099.2273,3.0,16.0,106.0,25.0,1.0,0.8,0.7,Time
,,S40,1,FEMALE,35,anonymized,Serial_Dependence_U,2023.2.3,Win32,59.88023952,,,,,,,,,,,,1099.2277,3.0,1099.2281,,,,1102.1615,1102.6605,1101.6446,1102.1608,1100.2318,249.0,1101.6439,1102.6605,1103.1603,1103.1603,1105.1986,1614.7,1105.1991,4.0,1106.194,3.0,17.0,107.0,8.0,1.0,1.4,0.7,Time
,,S40,1,FEMALE,35,anonymized,Serial_Dependence_U,2023.2.3,Win32,59.88023952,,,,,,,,,,,,1106.1946,3.0,1106.1948,,,,1109.1444,1109.6438,1108.6281,1109.1439,1107.2143,68.0,1108.6275,1109.6439,1110.144,1110.1441,1111.8814,1681.5,1111.8819,4.0,1112.8771,3.0,18.0,108.0,18.0,1.0,1.4,0.7,Time
,,S40,1,FEMALE,35,anonymized,Serial_Dependence_U,2023.2.3,Win32,59.88023952,,,,,,,,,,,,1112.8777,3.0,1112.878,,,,1115.228,1115.7269,1114.7115,1115.2274,1113.8952,356.0,1114.7108,1115.7269,1116.227,1116.227,1117.7484,1232.3,1117.7491,5.0,1118.7439,3.0,19.0,109.0,20.0,1.0,0.8,0.3,Time
,,S40,1,FEMALE,35,anonymized,Serial_Dependence_U,2023.2.3,Win32,59.88023952,,,,,,,,,,,,1118.7446,3.0,1118.7453,,,,1121.8655,1122.3608,1121.3644,1121.8651,1119.7618,192.0,1121.3638,1122.3608,1122.8605,1122.8605,1124.5817,1316.3,1124.5822,2.0,1125.5775,3.0,20.0,110.0,4.0,1.0,1.6,0.3,Time
,,S40,1,FEMALE,35,anonymized,Serial_Dependence_U,2023.2.3,Win32,59.88023952,,,,,,,,,,,,1125.5781,3.0,1125.5783,,,,1128.3155,1128.8108,1127.8117,1128.3149,1126.5954,152.0,1127.8111,1128.8109,1129.3104,1129.3105,1131.3978,1026.5,1131.3983,2.0,1132.3938,3.0,21.0,111.0,7.0,1.0,1.2,0.7,Time
,,S40,1,FEMALE,35,anonymized,Serial_Dependence_U,2023.2.3,Win32,59.88023952,,,,,,,,,,,,1132.3943,3.0,1132.3944,,,,1134.7311,1135.2272,1134.2153,1134.7305,1133.4114,211.0,1134.2149,1135.2272,1135.7272,1135.7272,1137.0653,1142.2,1137.0658,5.0,1138.0605,3.0,22.0,112.0,0.0,1.0,0.8,0.3,Time
,,S40,1,FEMALE,35,anonymized,Serial_Dependence_U,2023.2.3,Win32,59.88023952,,,,,,,,,,,,1138.061,3.0,1138.0612,,,,1140.4116,1140.9106,1139.8955,1140.411,1139.0782,213.0,1139.8943,1140.9106,1141.4105,1141.4105,1143.0655,1099.7,1143.066,5.0,1144.0604,3.0,23.0,113.0,5.0,1.0,0.8,0.7,Time
,,S40,1,FEMALE,35,anonymized,Serial_Dependence_U,2023.2.3,Win32,59.88023952,,,,,,,,,,,,1144.0609,3.0,1144.068,,,,1146.8152,1147.3105,1146.2955,1146.8146,1145.078,332.0,1146.2946,1147.3105,1147.8103,1147.8104,1149.2986,1308.4,1149.2992,4.0,1150.2965,3.0,24.0,114.0,27.0,1.0,1.2,0.7,Time
,,S40,1,FEMALE,35,anonymized,Serial_Dependence_U,2023.2.3,Win32,59.88023952,,,,,,,,,,,,1150.2971,3.0,1150.2973,,,,1152.6323,1153.127,1152.1116,1152.6318,1151.2991,91.0,1152.111,1153.1271,1153.627,1153.627,1154.2491,583.9,1154.2496,2.0,1155.2438,3.0,25.0,115.0,10.0,1.0,0.8,0.3,Time
,,S40,1,FEMALE,35,anonymized,Serial_Dependence_U,2023.2.3,Win32,59.88023952,,,,,,,,,,,,1155.2445,3.0,1155.2446,,,,1158.1822,1158.6771,1157.6646,1158.1818,1156.2613,98.0,1157.664,1158.6772,1159.177,1159.1771,1160.6314,1010.6,1160.632,2.0,1161.6271,3.0,26.0,116.0,23.0,1.0,1.4,0.3,Time
,,S40,1,FEMALE,35,anonymized,Serial_Dependence_U,2023.2.3,Win32,59.88023952,,,,,,,,,,,,1161.6274,3.0,1161.6276,,,,1164.378,1164.8771,1163.8632,1164.3772,1162.6448,252.0,1163.861,1164.8771,1165.3771,1165.3771,1169.2988,1088.9,1169.2996,2.0,1170.294,3.0,27.0,117.0,22.0,1.0,1.2,0.3,Time
,,S40,1,FEMALE,35,anonymized,Serial_Dependence_U,2023.2.3,Win32,59.88023952,,,,,,,,,,,,1170.2947,3.0,1170.2949,,,,1173.2447,1173.7438,1172.7321,1173.244,1171.3148,210.0,1172.7315,1173.7438,1174.2438,1174.2438,1175.732,1295.4,1175.7325,2.0,1176.727,3.0,28.0,118.0,28.0,1.0,1.4,0.7,Time
,,S40,1,FEMALE,35,anonymized,Serial_Dependence_U,2023.2.3,Win32,59.88023952,,,,,,,,,,,,1176.7274,3.0,1176.7275,,,,1179.2617,1179.7604,1178.7449,1179.261,1177.7285,103.0,1178.7443,1179.7604,1180.2603,1180.2603,1182.3821,1623.2,1182.3826,5.0,1183.3772,3.0,29.0,119.0,6.0,1.0,1.0,0.7,Time
,,S40,1,FEMALE,35,anonymized,Serial_Dependence_U,2023.2.3,Win32,59.88023952,,,,,,,,,,,,1183.3777,4.0,1186.4608,s,3.0162,,1189.2153,1189.7105,1188.6987,1189.2148,1187.4871,47.0,1188.698,1189.7106,1190.2105,1190.2105,1192.5648,2228.8,1192.5654,5.0,1193.5605,4.0,0.0,120.0,22.0,1.0,1.2,0.3,Time
,,S40,1,FEMALE,35,anonymized,Serial_Dependence_U,2023.2.3,Win32,59.88023952,,,,,,,,,,,,1193.5609,4.0,1193.5626,,,,1196.3149,1196.8104,1195.7951,1196.3145,1194.5778,359.0,1195.7946,1196.8104,1197.3103,1197.3103,1199.9655,2625.0,1199.966,5.0,1200.9604,4.0,1.0,121.0,17.0,1.0,1.2,0.7,Time
,,S40,1,FEMALE,35,anonymized,Serial_Dependence_U,2023.2.3,Win32,59.88023952,,,,,,,,,,,,1200.9608,4.0,1200.9612,,,,1203.3147,1203.8105,1202.7947,1203.3142,1201.9823,103.0,1202.794,1203.8106,1204.3102,1204.3103,1207.598,3160.7,1207.5987,5.0,1208.594,4.0,2.0,122.0,15.0,1.0,0.8,0.7,Time
,,S40,1,FEMALE,35,anonymized,Serial_Dependence_U,2023.2.3,Win32,59.88023952,,,,,,,,,,,,1208.5945,4.0,1208.5947,,,,1211.545,1212.0437,1211.0318,1211.544,1209.6154,132.0,1211.0313,1212.0437,1212.5437,1212.5438,1214.8485,1959.9,1214.8491,5.0,1215.8439,4.0,3.0,123.0,18.0,1.0,1.4,0.7,Time
,,S40,1,FEMALE,35,anonymized,Serial_Dependence_U,2023.2.3,Win32,59.88023952,,,,,,,,,,,,1215.8446,4.0,1215.8448,,,,1218.9781,1219.4771,1218.4644,1218.9776,1216.8613,283.0,1218.4639,1219.4771,1219.977,1219.9771,1221.5818,1248.8,1221.5824,2.0,1222.577,4.0,4.0,124.0,24.0,1.0,1.6,0.3,Time
,,S40,1,FEMALE,35,anonymized,Serial_Dependence_U,2023.2.3,Win32,59.88023952,,,,,,,,,,,,1222.5775,4.0,1222.5777,,,,1224.9281,1225.4269,1224.4117,1224.9274,1223.5947,184.0,1224.4108,1225.4269,1225.9269,1225.9269,1227.6649,1182.3,1227.6654,5.0,1228.6606,4.0,5.0,125.0,5.0,1.0,0.8,0.7,Time
,,S40,1,FEMALE,35,anonymized,Serial_Dependence_U,2023.2.3,Win32,59.88023952,,,,,,,,,,,,1228.6612,4.0,1228.6613,,,,1230.9979,1231.4941,1230.4788,1230.9974,1229.6703,207.0,1230.4776,1231.4942,1231.9938,1231.9938,1235.8985,879.1,1235.899,4.0,1236.894,4.0,6.0,126.0,0.0,1.0,0.8,0.3,Time
,,S40,1,FEMALE,35,anonymized,Serial_Dependence_U,2023.2.3,Win32,59.88023952,,,,,,,,,,,,1236.8949,4.0,1236.8951,,,,1239.214,1239.7103,1238.7117,1239.2135,1237.8989,337.0,1238.711,1239.7104,1240.2103,1240.2104,1241.2659,560.7,1241.2665,2.0,1242.2608,4.0,7.0,127.0,20.0,1.0,0.8,0.3,Time
,,S40,1,FEMALE,35,anonymized,Serial_Dependence_U,2023.2.3,Win32,59.88023952,,,,,,,,,,,,1242.2613,4.0,1242.2615,,,,1245.2149,1245.7104,1244.6943,1245.2145,1243.2787,260.0,1244.6937,1245.7104,1246.2104,1246.2105,1247.3607,776.4,1247.3613,1.0,1248.3605,4.0,8.0,128.0,13.0,1.0,1.4,0.3,Time
,,S40,1,FEMALE,35,anonymized,Serial_Dependence_U,2023.2.3,Win32,59.88023952,,,,,,,,,,,,1248.361,4.0,1248.3611,,,,1251.3115,1251.8103,1250.7945,1251.3109,1249.3777,275.0,1250.7938,1251.8103,1252.3102,1252.3103,1253.482,917.4,1253.4826,1.0,1254.4771,4.0,9.0,129.0,8.0,1.0,1.4,0.7,Time
,,S40,1,FEMALE,35,anonymized,Serial_Dependence_U,2023.2.3,Win32,59.88023952,,,,,,,,,,,,1254.478,4.0,1254.4782,,,,1257.6281,1258.127,1257.1154,1257.6274,1255.4947,258.0,1257.115,1258.127,1258.6269,1258.627,1260.4604,1118.5,1260.4611,1.0,1261.4604,4.0,10.0,130.0,9.0,1.0,1.6,0.7,Time
,,S40,1,FEMALE,35,anonymized,Serial_Dependence_U,2023.2.3,Win32,59.88023952,,,,,,,,,,,,1261.4609,4.0,1261.4611,,,,1264.4012,1264.8939,1263.8783,1264.399,1262.4654,25.0,1263.8775,1264.894,1265.3942,1265.3942,1265.4151,0.300000012,1265.4159,1.0,1266.4103,4.0,11.0,131.0,3.0,1.0,1.4,0.3,Time
,,S40,1,FEMALE,35,anonymized,Serial_Dependence_U,2023.2.3,Win32,59.88023952,,,,,,,,,,,,1266.4108,4.0,1266.4111,,,,1268.9491,1269.4437,1268.4445,1268.9485,1267.4319,303.0,1268.4438,1269.4437,1269.9438,1269.9439,1271.7149,1407.4,1271.7155,5.0,1272.7103,4.0,12.0,132.0,11.0,1.0,1.0,0.3,Time
,,S40,1,FEMALE,35,anonymized,Serial_Dependence_U,2023.2.3,Win32,59.88023952,,,,,,,,,,,,1272.7106,4.0,1272.7108,,,,1275.0792,1275.5769,1274.5454,1275.064,1273.7279,269.0,1274.5444,1275.577,1276.077,1276.077,1279.7156,964.5,1279.7163,4.0,1280.7106,4.0,13.0,133.0,25.0,1.0,0.8,0.7,Time
,,S40,1,FEMALE,35,anonymized,Serial_Dependence_U,2023.2.3,Win32,59.88023952,,,,,,,,,,,,1280.7111,4.0,1280.7113,,,,1283.4446,1283.9438,1282.9312,1283.444,1281.7277,296.0,1282.9308,1283.9439,1284.4438,1284.4439,1286.0154,1043.2,1286.0159,2.0,1287.0104,4.0,14.0,134.0,12.0,1.0,1.2,0.3,Time
,,S40,1,FEMALE,35,anonymized,Serial_Dependence_U,2023.2.3,Win32,59.88023952,,,,,,,,,,,,1287.0108,4.0,1287.0109,,,,1289.7613,1290.2607,1289.2447,1289.7607,1288.0277,125.0,1289.244,1290.2607,1290.7603,1290.7604,1292.394,1231.8,1292.4012,3.0,1293.3936,4.0,15.0,135.0,2.0,1.0,1.2,0.3,Time
,,S40,1,FEMALE,35,anonymized,Serial_Dependence_U,2023.2.3,Win32,59.88023952,,,,,,,,,,,,1293.3941,4.0,1293.3943,,,,1296.3447,1296.8436,1295.8282,1296.3441,1294.411,164.0,1295.8273,1296.8436,1297.3437,1297.3437,1299.4107,1829.8,1299.4115,5.0,1300.4105,4.0,16.0,136.0,28.0,1.0,1.4,0.7,Time
,,S40,1,FEMALE,35,anonymized,Serial_Dependence_U,2023.2.3,Win32,59.88023952,,,,,,,,,,,,1300.4109,4.0,1300.411,,,,1302.9618,1303.4605,1302.445,1302.9613,1301.428,10.0,1302.4443,1303.4605,1303.9602,1303.9603,1305.8936,1322.5,1305.8942,5.0,1306.8936,4.0,17.0,137.0,26.0,1.0,1.0,0.7,Time
,,S40,1,FEMALE,35,anonymized,Serial_Dependence_U,2023.2.3,Win32,59.88023952,,,,,,,,,,,,1306.8941,4.0,1306.8942,,,,1310.0446,1310.5437,1309.5279,1310.0441,1307.9113,245.0,1309.5273,1310.5437,1311.0436,1311.0436,1313.6608,2574.2,1313.6615,5.0,1314.6602,4.0,18.0,138.0,14.0,1.0,1.6,0.3,Time
,,S40,1,FEMALE,35,anonymized,Serial_Dependence_U,2023.2.3,Win32,59.88023952,,,,,,,,,,,,1314.6607,4.0,1314.6609,,,,1317.811,1318.3102,1317.2949,1317.8105,1315.6778,260.0,1317.2941,1318.3102,1318.8103,1318.8103,1323.782,4373.7,1323.7827,5.0,1324.7769,4.0,19.0,139.0,29.0,1.0,1.6,0.7,Time
,,S40,1,FEMALE,35,anonymized,Serial_Dependence_U,2023.2.3,Win32,59.88023952,,,,,,,,,,,,1324.7774,4.0,1324.7777,,,,1327.1279,1327.627,1326.6116,1327.1272,1325.795,270.0,1326.611,1327.6271,1328.1271,1328.1272,1330.2489,1944.5,1330.2498,5.0,1331.2437,4.0,20.0,140.0,10.0,1.0,0.8,0.3,Time
,,S40,1,FEMALE,35,anonymized,Serial_Dependence_U,2023.2.3,Win32,59.88023952,,,,,,,,,,,,1331.2442,4.0,1331.2444,,,,1334.3817,1334.877,1333.8616,1334.3811,1332.2485,245.0,1333.8607,1334.877,1335.3771,1335.3771,1337.8817,2422.0,1337.8823,5.0,1338.8769,4.0,21.0,141.0,4.0,1.0,1.6,0.3,Time
,,S40,1,FEMALE,35,anonymized,Serial_Dependence_U,2023.2.3,Win32,59.88023952,,,,,,,,,,,,1338.8774,4.0,1338.8775,,,,1341.4145,1341.9102,1340.9114,1341.4139,1339.8956,142.0,1340.9108,1341.9102,1342.4105,1342.4105,1347.932,5100.2,1347.9325,5.0,1348.9271,4.0,22.0,142.0,16.0,1.0,1.0,0.7,Time
,,S40,1,FEMALE,35,anonymized,Serial_Dependence_U,2023.2.3,Win32,59.88023952,,,,,,,,,,,,1348.9276,4.0,1348.9278,,,,1351.4782,1351.9774,1350.9614,1351.4775,1349.9454,17.0,1350.9607,1351.9774,1352.4772,1352.4772,1358.4819,9999.0,1358.4825,0.0,1359.4769,4.0,23.0,143.0,6.0,1.0,1.0,0.7,Time
,,S40,1,FEMALE,35,anonymized,Serial_Dependence_U,2023.2.3,Win32,59.88023952,,,,,,,,,,,,1359.4773,4.0,1359.4774,,,,1362.028,1362.5269,1361.5154,1362.0273,1360.4984,96.0,1361.515,1362.5269,1363.0271,1363.0271,1369.0443,9999.0,1369.0455,0.0,1370.0437,4.0,24.0,144.0,21.0,1.0,1.0,0.3,Time
,,S40,1,FEMALE,35,anonymized,Serial_Dependence_U,2023.2.3,Win32,59.88023952,,,,,,,,,,,,1370.0443,4.0,1370.0446,,,,1372.7821,1373.2771,1372.2614,1372.7817,1371.0493,310.0,1372.2608,1373.2772,1373.777,1373.777,1377.7481,2866.2,1377.7487,5.0,1378.7435,4.0,25.0,145.0,27.0,1.0,1.2,0.7,Time
,,S40,1,FEMALE,35,anonymized,Serial_Dependence_U,2023.2.3,Win32,59.88023952,,,,,,,,,,,,1378.744,4.0,1378.7441,,,,1381.2813,1381.781,1380.7783,1381.2808,1379.7614,31.0,1380.7775,1381.781,1382.2773,1382.2773,1384.9816,2337.2,1384.9821,5.0,1385.9771,4.0,26.0,146.0,1.0,1.0,1.0,0.3,Time
,,S40,1,FEMALE,35,anonymized,Serial_Dependence_U,2023.2.3,Win32,59.88023952,,,,,,,,,,,,1385.9777,4.0,1385.9778,,,,1388.7115,1389.2117,1388.1988,1388.7108,1386.9951,19.0,1388.1984,1389.2117,1389.7102,1389.7103,1391.7447,1459.9,1391.7457,4.0,1392.7442,4.0,27.0,147.0,7.0,1.0,1.2,0.7,Time
,,S40,1,FEMALE,35,anonymized,Serial_Dependence_U,2023.2.3,Win32,59.88023952,,,,,,,,,,,,1392.7447,4.0,1392.7448,,,,1395.8815,1396.3771,1395.366,1395.8811,1393.7611,99.0,1395.3654,1396.3772,1396.8769,1396.877,1398.3825,1149.7,1398.3832,2.0,1399.3769,4.0,28.0,148.0,19.0,1.0,1.6,0.7,Time
,,S40,1,FEMALE,35,anonymized,Serial_Dependence_U,2023.2.3,Win32,59.88023952,,,,,,,,,,,,1399.3773,4.0,1399.3776,,,,1402.3112,1402.8105,1401.7948,1402.3106,1400.3829,78.0,1401.794,1402.8105,1403.3106,1403.3107,1405.4987,1859.6,1405.4994,5.0,1406.4937,4.0,29.0,149.0,23.0,1.0,1.4,0.3,Time
,,S40,1,FEMALE,35,anonymized,Serial_Dependence_U,2023.2.3,Win32,59.88023952,,,,,,,,,,,,1406.4943,5.0,1408.6463,s,2.0915,,1411.1776,1411.677,1410.6613,1411.1772,1409.6446,53.0,1410.6609,1411.677,1412.1769,1412.177,1412.6104,31.80000001,1412.611,1.0,1413.6139,5.0,0.0,150.0,11.0,1.0,1.0,0.3,Time
,,S40,1,FEMALE,35,anonymized,Serial_Dependence_U,2023.2.3,Win32,59.88023952,,,,,,,,,,,,1413.6144,5.0,1413.6164,,,,1416.3614,1416.8604,1415.846,1416.3607,1414.6282,210.0,1415.8451,1416.8606,1417.3606,1417.3606,1420.265,1345.5,1420.2656,4.0,1421.2605,5.0,1.0,151.0,12.0,1.0,1.2,0.3,Time
,,S40,1,FEMALE,35,anonymized,Serial_Dependence_U,2023.2.3,Win32,59.88023952,,,,,,,,,,,,1421.2611,5.0,1421.2613,,,,1424.1985,1424.6935,1423.6783,1424.1979,1422.2654,170.0,1423.6776,1424.6935,1425.1936,1425.1936,1427.2483,1110.5,1427.2488,2.0,1428.2438,5.0,2.0,152.0,13.0,1.0,1.4,0.3,Time
,,S40,1,FEMALE,35,anonymized,Serial_Dependence_U,2023.2.3,Win32,59.88023952,,,,,,,,,,,,1428.2444,5.0,1428.2445,,,,1430.5944,1431.0937,1430.0776,1430.5939,1429.2613,184.0,1430.0771,1431.0938,1431.5942,1431.5944,1433.2319,1461.3,1433.2326,5.0,1434.227,5.0,3.0,153.0,15.0,1.0,0.8,0.7,Time
,,S40,1,FEMALE,35,anonymized,Serial_Dependence_U,2023.2.3,Win32,59.88023952,,,,,,,,,,,,1434.2275,5.0,1434.2277,,,,1437.3663,1437.8604,1436.8614,1437.3656,1435.2452,354.0,1436.8608,1437.8604,1438.3603,1438.3603,1439.5324,833.2,1439.5339,1.0,1440.5276,5.0,4.0,154.0,19.0,1.0,1.6,0.7,Time
,,S40,1,FEMALE,35,anonymized,Serial_Dependence_U,2023.2.3,Win32,59.88023952,,,,,,,,,,,,1440.5284,5.0,1440.5287,,,,1443.0651,1443.5602,1442.5614,1443.0647,1441.5449,253.0,1442.5608,1443.5603,1444.0605,1444.0607,1445.7819,916.9,1445.7825,2.0,1446.7771,5.0,5.0,155.0,6.0,1.0,1.0,0.7,Time
,,S40,1,FEMALE,35,anonymized,Serial_Dependence_U,2023.2.3,Win32,59.88023952,,,,,,,,,,,,1446.7777,5.0,1446.778,,,,1449.5283,1450.0272,1449.0113,1449.5277,1447.7949,182.0,1449.0107,1450.0272,1450.5274,1450.5274,1450.8605,195.4,1450.8613,1.0,1451.8603,5.0,6.0,156.0,2.0,1.0,1.2,0.3,Time
,,S40,1,FEMALE,35,anonymized,Serial_Dependence_U,2023.2.3,Win32,59.88023952,,,,,,,,,,,,1451.8608,5.0,1451.861,,,,1454.1948,1454.6938,1453.6812,1454.1941,1452.879,218.0,1453.6807,1454.6938,1455.1938,1455.194,1456.394,740.5,1456.3948,2.0,1457.3936,5.0,7.0,157.0,5.0,1.0,0.8,0.7,Time
,,S40,1,FEMALE,35,anonymized,Serial_Dependence_U,2023.2.3,Win32,59.88023952,,,,,,,,,,,,1457.3941,5.0,1457.3953,,,,1460.5444,1461.0438,1460.0282,1460.5439,1458.4117,63.0,1460.0275,1461.0438,1461.5442,1461.5443,1463.0771,1087.7,1463.0779,1.0,1464.077,5.0,8.0,158.0,29.0,1.0,1.6,0.7,Time
,,S40,1,FEMALE,35,anonymized,Serial_Dependence_U,2023.2.3,Win32,59.88023952,,,,,,,,,,,,1464.0776,5.0,1464.0778,,,,1466.8147,1467.3103,1466.2949,1466.8141,1465.0821,305.0,1466.2943,1467.3104,1467.8105,1467.8106,1469.465,991.6,1469.4656,2.0,1470.4602,5.0,9.0,159.0,7.0,1.0,1.2,0.7,Time
,,S40,1,FEMALE,35,anonymized,Serial_Dependence_U,2023.2.3,Win32,59.88023952,,,,,,,,,,,,1470.4607,5.0,1470.4608,,,,1473.4276,1473.927,1472.8947,1473.4108,1471.4777,313.0,1472.8941,1473.927,1474.427,1474.4271,1476.4776,1196.3,1476.4783,2.0,1477.477,5.0,10.0,160.0,8.0,1.0,1.4,0.7,Time
,,S40,1,FEMALE,35,anonymized,Serial_Dependence_U,2023.2.3,Win32,59.88023952,,,,,,,,,,,,1477.4775,5.0,1477.4777,,,,1480.628,1481.1271,1480.1113,1480.6274,1478.4948,200.0,1480.1108,1481.1271,1481.627,1481.6272,1483.6606,1630.4,1483.6612,3.0,1484.6603,5.0,11.0,161.0,4.0,1.0,1.6,0.3,Time
,,S40,1,FEMALE,35,anonymized,Serial_Dependence_U,2023.2.3,Win32,59.88023952,,,,,,,,,,,,1484.6606,5.0,1484.6606,,,,1487.4153,1487.9103,1486.8948,1487.4148,1485.6779,41.0,1486.8942,1487.9103,1488.4103,1488.4103,1489.9983,1508.9,1489.9987,4.0,1490.9936,5.0,12.0,162.0,17.0,1.0,1.2,0.7,Time
,,S40,1,FEMALE,35,anonymized,Serial_Dependence_U,2023.2.3,Win32,59.88023952,,,,,,,,,,,,1490.9941,5.0,1490.9944,,,,1494.1279,1494.6273,1493.6113,1494.1273,1491.9952,307.0,1493.6106,1494.6273,1495.1269,1495.1269,1496.6488,1415.4,1496.6494,2.0,1497.6439,5.0,13.0,163.0,24.0,1.0,1.6,0.3,Time
,,S40,1,FEMALE,35,anonymized,Serial_Dependence_U,2023.2.3,Win32,59.88023952,,,,,,,,,,,,1497.6446,5.0,1497.645,,,,1500.7816,1501.2771,1500.279,1500.7811,1498.6613,199.0,1500.2782,1501.2771,1501.7769,1501.777,1503.1816,1037.7,1503.1822,1.0,1504.1769,5.0,14.0,164.0,9.0,1.0,1.6,0.7,Time
,,S40,1,FEMALE,35,anonymized,Serial_Dependence_U,2023.2.3,Win32,59.88023952,,,,,,,,,,,,1504.1774,5.0,1504.1777,,,,1507.128,1507.627,1506.6159,1507.1274,1505.1948,179.0,1506.6152,1507.627,1508.1268,1508.1269,1510.115,1726.3,1510.1156,4.0,1511.1101,5.0,15.0,165.0,3.0,1.0,1.4,0.3,Time
,,S40,1,FEMALE,35,anonymized,Serial_Dependence_U,2023.2.3,Win32,59.88023952,,,,,,,,,,,,1511.1106,5.0,1511.1108,,,,1514.0609,1514.5602,1513.5447,1514.0604,1512.1279,103.0,1513.5441,1514.5603,1515.0602,1515.0602,1517.2278,748.5,1517.2284,1.0,1518.2269,5.0,16.0,166.0,18.0,1.0,1.4,0.7,Time
,,S40,1,FEMALE,35,anonymized,Serial_Dependence_U,2023.2.3,Win32,59.88023952,,,,,,,,,,,,1518.2274,5.0,1518.2276,,,,1520.9617,1521.4606,1520.4451,1520.9611,1519.2315,100.0,1520.4443,1521.4607,1521.9607,1521.9608,1524.882,2599.6,1524.8826,5.0,1525.877,5.0,17.0,167.0,22.0,1.0,1.2,0.3,Time
,,S40,1,FEMALE,35,anonymized,Serial_Dependence_U,2023.2.3,Win32,59.88023952,,,,,,,,,,,,1525.8775,5.0,1525.8777,,,,1528.6313,1529.1269,1528.1116,1528.6308,1526.8949,170.0,1528.111,1529.1269,1529.627,1529.627,1530.6329,545.0,1530.6335,1.0,1531.627,5.0,18.0,168.0,27.0,1.0,1.2,0.7,Time
,,S40,1,FEMALE,35,anonymized,Serial_Dependence_U,2023.2.3,Win32,59.88023952,,,,,,,,,,,,1531.6275,5.0,1531.6277,,,,1534.1813,1534.6772,1533.6654,1534.1808,1532.6442,314.0,1533.6648,1534.6772,1535.1768,1535.1769,1537.2493,1716.2,1537.2502,5.0,1538.2436,5.0,19.0,169.0,16.0,1.0,1.0,0.7,Time
,,S40,1,FEMALE,35,anonymized,Serial_Dependence_U,2023.2.3,Win32,59.88023952,,,,,,,,,,,,1538.2442,5.0,1538.2444,,,,1540.5948,1541.0937,1540.0811,1540.5939,1539.2651,56.0,1540.0807,1541.0938,1541.5939,1541.5939,1542.432,447.8,1542.4325,1.0,1543.4272,5.0,20.0,170.0,25.0,1.0,0.8,0.7,Time
,,S40,1,FEMALE,35,anonymized,Serial_Dependence_U,2023.2.3,Win32,59.88023952,,,,,,,,,,,,1543.428,5.0,1543.4281,,,,1545.7821,1546.277,1545.2613,1545.7814,1544.4445,52.0,1545.2607,1546.277,1546.777,1546.777,1548.8651,1826.5,1548.8657,5.0,1549.8604,5.0,21.0,171.0,10.0,1.0,0.8,0.3,Time
,,S40,1,FEMALE,35,anonymized,Serial_Dependence_U,2023.2.3,Win32,59.88023952,,,,,,,,,,,,1549.8609,5.0,1549.861,,,,1552.9838,1553.4769,1552.4813,1552.9821,1550.865,303.0,1552.4807,1553.477,1553.9808,1553.9808,1555.2164,1183.8,1555.2171,2.0,1556.2105,5.0,22.0,172.0,14.0,1.0,1.6,0.3,Time
,,S40,1,FEMALE,35,anonymized,Serial_Dependence_U,2023.2.3,Win32,59.88023952,,,,,,,,,,,,1556.211,5.0,1556.2112,,,,1558.5652,1559.0603,1558.0443,1558.5647,1557.232,179.0,1558.0437,1559.0603,1559.5605,1559.5607,1561.115,1325.2,1561.1157,5.0,1562.1104,5.0,23.0,173.0,20.0,1.0,0.8,0.3,Time
,,S40,1,FEMALE,35,anonymized,Serial_Dependence_U,2023.2.3,Win32,59.88023952,,,,,,,,,,,,1562.1111,5.0,1562.1114,,,,1565.0653,1565.5603,1564.5452,1565.0648,1563.1321,153.0,1564.5442,1565.5603,1566.0602,1566.0603,1567.6604,1210.0,1567.661,2.0,1568.6604,5.0,24.0,174.0,23.0,1.0,1.4,0.3,Time
,,S40,1,FEMALE,35,anonymized,Serial_Dependence_U,2023.2.3,Win32,59.88023952,,,,,,,,,,,,1568.6608,5.0,1568.6609,,,,1571.0114,1571.5106,1570.4981,1571.0108,1569.6786,46.0,1570.4976,1571.5107,1572.0102,1572.0102,1574.1316,1915.4,1574.1323,5.0,1575.1269,5.0,25.0,175.0,0.0,1.0,0.8,0.3,Time
,,S40,1,FEMALE,35,anonymized,Serial_Dependence_U,2023.2.3,Win32,59.88023952,,,,,,,,,,,,1575.1273,5.0,1575.1276,,,,1578.0616,1578.5608,1577.5491,1578.0609,1576.1447,331.0,1577.5484,1578.5608,1579.0608,1579.0609,1580.3318,1116.3,1580.3326,2.0,1581.3269,5.0,26.0,176.0,28.0,1.0,1.4,0.7,Time
,,S40,1,FEMALE,35,anonymized,Serial_Dependence_U,2023.2.3,Win32,59.88023952,,,,,,,,,,,,1581.3273,5.0,1581.3274,,,,1583.8616,1584.3603,1583.345,1583.8609,1582.3282,107.0,1583.3443,1584.3603,1584.8603,1584.8603,1586.0473,1165.8,1586.0479,4.0,1587.0435,5.0,27.0,177.0,1.0,1.0,1.0,0.3,Time
,,S40,1,FEMALE,35,anonymized,Serial_Dependence_U,2023.2.3,Win32,59.88023952,,,,,,,,,,,,1587.0442,5.0,1587.0444,,,,1589.5785,1590.0771,1589.0649,1589.5776,1588.0612,346.0,1589.0645,1590.0771,1590.5774,1590.5774,1592.5982,1665.4,1592.6006,5.0,1593.5938,5.0,28.0,178.0,26.0,1.0,1.0,0.7,Time
,,S40,1,FEMALE,35,anonymized,Serial_Dependence_U,2023.2.3,Win32,59.88023952,,,,,,,,,,,,1593.5944,5.0,1593.5946,,,,1596.1479,1596.6437,1595.6321,1596.1473,1594.6118,264.0,1595.6314,1596.6437,1597.1437,1597.1437,1599.1316,1314.1,1599.1322,5.0,1600.1269,5.0,29.0,179.0,21.0,1.0,1.0,0.3,Time
,,S40,1,FEMALE,35,anonymized,Serial_Dependence_U,2023.2.3,Win32,59.88023952,,,,,,,,,,,,1600.1274,6.0,1602.3442,s,2.1498,,1604.8775,1605.3768,1604.3612,1604.8771,1603.3445,266.0,1604.3606,1605.3768,1605.877,1605.877,1607.7982,1441.7,1607.7988,5.0,1608.7936,6.0,0.0,180.0,16.0,1.0,1.0,0.7,Time
,,S40,1,FEMALE,35,anonymized,Serial_Dependence_U,2023.2.3,Win32,59.88023952,,,,,,,,,,,,1608.7955,6.0,1608.7974,,,,1611.9152,1612.4104,1611.4113,1611.9147,1609.7949,25.0,1611.4105,1612.4104,1612.9104,1612.9105,1614.7651,1238.2,1614.7657,2.0,1615.7603,6.0,1.0,181.0,14.0,1.0,1.6,0.3,Time
,,S40,1,FEMALE,35,anonymized,Serial_Dependence_U,2023.2.3,Win32,59.88023952,,,,,,,,,,,,1615.7608,6.0,1615.761,,,,1618.111,1618.6102,1617.595,1618.1105,1616.7778,141.0,1617.5942,1618.6102,1619.1102,1619.1102,1619.5771,97.5,1619.5778,1.0,1620.5771,6.0,2.0,182.0,15.0,1.0,0.8,0.7,Time
,,S40,1,FEMALE,35,anonymized,Serial_Dependence_U,2023.2.3,Win32,59.88023952,,,,,,,,,,,,1620.5776,6.0,1620.5782,,,,1623.5277,1624.0269,1623.0151,1623.527,1621.5946,290.0,1623.0144,1624.0269,1624.527,1624.5271,1627.9811,808.2,1627.9818,1.0,1628.9769,6.0,3.0,183.0,3.0,1.0,1.4,0.3,Time
,,S40,1,FEMALE,35,anonymized,Serial_Dependence_U,2023.2.3,Win32,59.88023952,,,,,,,,,,,,1628.9775,6.0,1628.9777,,,,1631.5321,1632.0269,1631.0109,1631.5316,1629.9947,274.0,1631.0104,1632.0269,1632.5269,1632.5269,1634.0649,909.7,1634.0655,2.0,1635.0606,6.0,4.0,184.0,21.0,1.0,1.0,0.3,Time
,,S40,1,FEMALE,35,anonymized,Serial_Dependence_U,2023.2.3,Win32,59.88023952,,,,,,,,,,,,1635.0613,6.0,1635.0617,,,,1637.6153,1638.1102,1637.095,1637.6148,1636.0782,46.0,1637.0941,1638.1102,1638.6104,1638.6105,1641.6318,1531.8,1641.6325,5.0,1642.6268,6.0,5.0,185.0,6.0,1.0,1.0,0.7,Time
,,S40,1,FEMALE,35,anonymized,Serial_Dependence_U,2023.2.3,Win32,59.88023952,,,,,,,,,,,,1642.6273,6.0,1642.6276,,,,1644.9779,1645.4768,1644.461,1644.9774,1643.6442,181.0,1644.4605,1645.4768,1645.9768,1645.9769,1647.8777,947.5,1647.8783,4.0,1648.877,6.0,6.0,186.0,5.0,1.0,0.8,0.7,Time
,,S40,1,FEMALE,35,anonymized,Serial_Dependence_U,2023.2.3,Win32,59.88023952,,,,,,,,,,,,1648.8777,6.0,1648.8779,,,,1651.2161,1651.7102,1650.7119,1651.2151,1649.8944,233.0,1650.7114,1651.7102,1652.2104,1652.2105,1653.9155,1549.2,1653.9161,5.0,1654.9102,6.0,7.0,187.0,0.0,1.0,0.8,0.3,Time
,,S40,1,FEMALE,35,anonymized,Serial_Dependence_U,2023.2.3,Win32,59.88023952,,,,,,,,,,,,1654.9109,6.0,1654.9111,,,,1658.0484,1658.5436,1657.5278,1658.048,1655.9148,298.0,1657.5272,1658.5437,1659.0437,1659.0437,1660.7984,1515.4,1660.799,2.0,1661.7937,6.0,8.0,188.0,29.0,1.0,1.6,0.7,Time
,,S40,1,FEMALE,35,anonymized,Serial_Dependence_U,2023.2.3,Win32,59.88023952,,,,,,,,,,,,1661.7945,6.0,1661.7948,,,,1664.945,1665.4434,1664.4323,1664.9441,1662.8146,227.0,1664.4319,1665.4435,1665.9436,1665.9436,1667.9653,1598.9,1667.9659,3.0,1668.9602,6.0,9.0,189.0,4.0,1.0,1.6,0.3,Time
,,S40,1,FEMALE,35,anonymized,Serial_Dependence_U,2023.2.3,Win32,59.88023952,,,,,,,,,,,,1668.9607,6.0,1668.961,,,,1671.6946,1672.1936,1671.1821,1671.6939,1669.9615,239.0,1671.1814,1672.1937,1672.6937,1672.6937,1674.7487,1349.1,1674.7493,4.0,1675.7436,6.0,10.0,190.0,12.0,1.0,1.2,0.3,Time
,,S40,1,FEMALE,35,anonymized,Serial_Dependence_U,2023.2.3,Win32,59.88023952,,,,,,,,,,,,1675.744,6.0,1675.7441,,,,1678.895,1679.3937,1678.3777,1678.8943,1676.7609,154.0,1678.3773,1679.3937,1679.8935,1679.8936,1680.694,762.2,1680.6947,1.0,1681.6936,6.0,11.0,191.0,19.0,1.0,1.6,0.7,Time
,,S40,1,FEMALE,35,anonymized,Serial_Dependence_U,2023.2.3,Win32,59.88023952,,,,,,,,,,,,1681.694,6.0,1681.6942,,,,1684.228,1684.7269,1683.7147,1684.2275,1682.6976,292.0,1683.7141,1684.7269,1685.2271,1685.2272,1686.8822,1449.7,1686.8827,5.0,1687.8771,6.0,12.0,192.0,11.0,1.0,1.0,0.3,Time
,,S40,1,FEMALE,35,anonymized,Serial_Dependence_U,2023.2.3,Win32,59.88023952,,,,,,,,,,,,1687.8778,6.0,1687.878,,,,1690.2279,1690.7269,1689.7162,1690.2272,1688.8951,320.0,1689.7157,1690.7269,1691.2268,1691.2268,1692.877,1254.9,1692.8775,5.0,1693.8768,6.0,13.0,193.0,10.0,1.0,0.8,0.3,Time
,,S40,1,FEMALE,35,anonymized,Serial_Dependence_U,2023.2.3,Win32,59.88023952,,,,,,,,,,,,1693.8774,6.0,1693.8775,,,,1696.615,1697.1103,1696.1115,1696.6145,1694.8946,224.0,1696.1108,1697.1103,1697.6103,1697.6103,1698.1815,165.5,1698.182,1.0,1699.1769,6.0,14.0,194.0,7.0,1.0,1.2,0.7,Time
,,S40,1,FEMALE,35,anonymized,Serial_Dependence_U,2023.2.3,Win32,59.88023952,,,,,,,,,,,,1699.1774,6.0,1699.1775,,,,1701.8984,1702.3936,1701.3946,1701.8978,1700.1822,285.0,1701.3939,1702.3937,1702.8938,1702.8939,1704.4819,1224.0,1704.4986,3.0,1705.4936,6.0,15.0,195.0,22.0,1.0,1.2,0.3,Time
,,S40,1,FEMALE,35,anonymized,Serial_Dependence_U,2023.2.3,Win32,59.88023952,,,,,,,,,,,,1705.4942,6.0,1705.4943,,,,1708.2449,1708.7438,1707.7278,1708.2442,1706.5112,69.0,1707.7272,1708.7438,1709.2435,1709.2436,1710.5321,1189.0,1710.5328,3.0,1711.5269,6.0,16.0,196.0,17.0,1.0,1.2,0.7,Time
,,S40,1,FEMALE,35,anonymized,Serial_Dependence_U,2023.2.3,Win32,59.88023952,,,,,,,,,,,,1711.5274,6.0,1711.5276,,,,1714.4645,1714.9603,1713.9449,1714.464,1712.5324,278.0,1713.9439,1714.9603,1715.4604,1715.4605,1716.5486,625.5,1716.5491,1.0,1717.5437,6.0,17.0,197.0,28.0,1.0,1.4,0.7,Time
,,S40,1,FEMALE,35,anonymized,Serial_Dependence_U,2023.2.3,Win32,59.88023952,,,,,,,,,,,,1717.5443,6.0,1717.5447,,,,1720.0812,1720.5769,1719.5654,1720.0807,1718.5487,230.0,1719.5649,1720.5769,1721.077,1721.077,1723.3488,1710.7,1723.3496,5.0,1724.3439,6.0,18.0,198.0,26.0,1.0,1.0,0.7,Time
,,S40,1,FEMALE,35,anonymized,Serial_Dependence_U,2023.2.3,Win32,59.88023952,,,,,,,,,,,,1724.3447,6.0,1724.3452,,,,1727.0945,1727.5938,1726.5779,1727.0938,1725.3651,223.0,1726.5774,1727.5938,1728.0938,1728.0939,1729.4817,1248.6,1729.4823,3.0,1730.477,6.0,19.0,199.0,2.0,1.0,1.2,0.3,Time
,,S40,1,FEMALE,35,anonymized,Serial_Dependence_U,2023.2.3,Win32,59.88023952,,,,,,,,,,,,1730.4775,6.0,1730.4777,,,,1733.6277,1734.1316,1733.1111,1733.6271,1731.4946,40.0,1733.1107,1734.1316,1734.6269,1734.6269,1735.9106,1167.0,1735.9113,2.0,1736.9104,6.0,20.0,200.0,24.0,1.0,1.6,0.3,Time
,,S40,1,FEMALE,35,anonymized,Serial_Dependence_U,2023.2.3,Win32,59.88023952,,,,,,,,,,,,1736.9109,6.0,1736.911,,,,1739.8447,1740.3438,1739.3278,1739.8442,1737.9113,80.0,1739.3272,1740.3439,1740.8436,1740.8436,1742.4276,1111.3,1742.4437,2.0,1743.4435,6.0,21.0,201.0,23.0,1.0,1.4,0.3,Time
,,S40,1,FEMALE,35,anonymized,Serial_Dependence_U,2023.2.3,Win32,59.88023952,,,,,,,,,,,,1743.4439,6.0,1743.4442,,,,1745.9945,1746.494,1745.4778,1745.9939,1744.4613,271.0,1745.4773,1746.494,1746.9935,1746.9935,1748.444,1085.5,1748.4446,4.0,1749.4436,6.0,22.0,202.0,1.0,1.0,1.0,0.3,Time
,,S40,1,FEMALE,35,anonymized,Serial_Dependence_U,2023.2.3,Win32,59.88023952,,,,,,,,,,,,1749.4439,6.0,1749.4441,,,,1751.7945,1752.294,1751.2778,1751.7941,1750.4614,315.0,1751.2773,1752.294,1752.7937,1752.7937,1754.2771,1165.8,1754.2777,5.0,1755.2769,6.0,23.0,203.0,20.0,1.0,0.8,0.3,Time
,,S40,1,FEMALE,35,anonymized,Serial_Dependence_U,2023.2.3,Win32,59.88023952,,,,,,,,,,,,1755.2774,6.0,1755.2776,,,,1758.2276,1758.7269,1757.7111,1758.2273,1756.2944,354.0,1757.7106,1758.727,1759.227,1759.227,1760.2437,934.8,1760.2447,1.0,1761.2435,6.0,24.0,204.0,13.0,1.0,1.4,0.3,Time
,,S40,1,FEMALE,35,anonymized,Serial_Dependence_U,2023.2.3,Win32,59.88023952,,,,,,,,,,,,1761.2439,6.0,1761.2441,,,,1763.5946,1764.0935,1763.0779,1763.5939,1762.2611,342.0,1763.0773,1764.0935,1764.5935,1764.5936,1766.5271,1585.5,1766.5278,5.0,1767.5269,6.0,25.0,205.0,25.0,1.0,0.8,0.7,Time
,,S40,1,FEMALE,35,anonymized,Serial_Dependence_U,2023.2.3,Win32,59.88023952,,,,,,,,,,,,1767.5274,6.0,1767.5276,,,,1770.6806,1771.1768,1770.165,1770.6802,1768.5449,1.0,1770.1644,1771.1769,1771.6769,1771.677,1773.8316,1760.0,1773.8321,4.0,1774.8268,6.0,26.0,206.0,9.0,1.0,1.6,0.7,Time
,,S40,1,FEMALE,35,anonymized,Serial_Dependence_U,2023.2.3,Win32,59.88023952,,,,,,,,,,,,1774.8273,6.0,1774.8275,,,,1777.5774,1778.0769,1777.0612,1777.577,1775.8445,1.0,1777.0605,1778.077,1778.5769,1778.577,1780.5105,1593.9,1780.5109,5.0,1781.5103,6.0,27.0,207.0,27.0,1.0,1.2,0.7,Time
,,S40,1,FEMALE,35,anonymized,Serial_Dependence_U,2023.2.3,Win32,59.88023952,,,,,,,,,,,,1781.5107,6.0,1781.5109,,,,1784.4609,1784.9601,1783.9449,1784.4605,1782.5289,238.0,1783.9441,1784.9602,1785.4604,1785.4604,1787.0153,1110.5,1787.0157,2.0,1788.0107,6.0,28.0,208.0,8.0,1.0,1.4,0.7,Time
,,S40,1,FEMALE,35,anonymized,Serial_Dependence_U,2023.2.3,Win32,59.88023952,,,,,,,,,,,,1788.0113,6.0,1788.0116,,,,1790.9658,1791.4602,1790.4449,1790.9654,1789.028,271.0,1790.4443,1791.4602,1791.9603,1791.9603,1792.1443,48.5,1792.1451,1.0,1793.1439,6.0,29.0,209.0,18.0,1.0,1.4,0.7,Time
,,S40,1,FEMALE,35,anonymized,Serial_Dependence_U,2023.2.3,Win32,59.88023952,,,,,,,,,,,,1793.1448,7.0,1797.661,s,4.4533,,1800.2111,1800.7103,1799.6952,1800.2105,1798.6775,161.0,1799.6941,1800.7103,1801.2102,1801.2104,1802.6816,883.1,1802.6822,2.0,1803.677,7.0,0.0,210.0,21.0,1.0,1.0,0.3,Time
,,S40,1,FEMALE,35,anonymized,Serial_Dependence_U,2023.2.3,Win32,59.88023952,,,,,,,,,,,,1803.6776,7.0,1803.6801,,,,1806.4312,1806.9271,1805.9153,1806.4307,1804.6944,279.0,1805.9149,1806.9271,1807.4269,1807.4269,1809.8484,1031.0,1809.849,2.0,1810.8437,7.0,1.0,211.0,17.0,1.0,1.2,0.7,Time
,,S40,1,FEMALE,35,anonymized,Serial_Dependence_U,2023.2.3,Win32,59.88023952,,,,,,,,,,,,1810.8442,7.0,1810.8445,,,,1813.3951,1813.8938,1812.878,1813.3941,1811.8662,225.0,1812.8772,1813.894,1814.3964,1814.3966,1815.8805,997.1,1815.8809,3.0,1816.8771,7.0,2.0,212.0,6.0,1.0,1.0,0.7,Time
,,S40,1,FEMALE,35,anonymized,Serial_Dependence_U,2023.2.3,Win32,59.88023952,,,,,,,,,,,,1816.8776,7.0,1816.8777,,,,1819.2277,1819.7269,1818.711,1819.2273,1817.8946,358.0,1818.7105,1819.727,1820.2267,1820.2268,1820.8103,494.3,1820.811,1.0,1821.8104,7.0,3.0,213.0,25.0,1.0,0.8,0.7,Time
,,S40,1,FEMALE,35,anonymized,Serial_Dependence_U,2023.2.3,Win32,59.88023952,,,,,,,,,,,,1821.8116,7.0,1821.8118,,,,1824.1649,1824.6602,1823.6445,1824.1644,1822.8321,195.0,1823.6439,1824.6602,1825.1603,1825.1603,1825.5818,34.5,1825.5823,1.0,1826.5768,7.0,4.0,214.0,20.0,1.0,0.8,0.3,Time
,,S40,1,FEMALE,35,anonymized,Serial_Dependence_U,2023.2.3,Win32,59.88023952,,,,,,,,,,,,1826.5775,7.0,1826.5776,,,,1829.3149,1829.8104,1828.8112,1829.3144,1827.5978,17.0,1828.8105,1829.8105,1830.3103,1830.3103,1831.2986,926.1,1831.2994,2.0,1832.2935,7.0,5.0,215.0,22.0,1.0,1.2,0.3,Time
,,S40,1,FEMALE,35,anonymized,Serial_Dependence_U,2023.2.3,Win32,59.88023952,,,,,,,,,,,,1832.2943,7.0,1832.2946,,,,1835.4493,1835.9437,1834.9281,1835.4486,1833.3158,248.0,1834.9272,1835.9437,1836.4436,1836.4437,1837.327,581.4,1837.3278,1.0,1838.327,7.0,6.0,216.0,19.0,1.0,1.6,0.7,Time
,,S40,1,FEMALE,35,anonymized,Serial_Dependence_U,2023.2.3,Win32,59.88023952,,,,,,,,,,,,1838.3276,7.0,1838.3278,,,,1841.478,1841.9771,1840.9613,1841.4772,1839.3448,334.0,1840.9608,1841.9772,1842.4769,1842.477,1844.8318,942.7,1844.8323,1.0,1845.827,7.0,7.0,217.0,14.0,1.0,1.6,0.3,Time
,,S40,1,FEMALE,35,anonymized,Serial_Dependence_U,2023.2.3,Win32,59.88023952,,,,,,,,,,,,1845.8277,7.0,1845.8279,,,,1848.7613,1849.2602,1848.2447,1848.7608,1846.8319,174.0,1848.2441,1849.2603,1849.7604,1849.7604,1851.049,916.0,1851.0495,1.0,1852.0437,7.0,8.0,218.0,18.0,1.0,1.4,0.7,Time
,,S40,1,FEMALE,35,anonymized,Serial_Dependence_U,2023.2.3,Win32,59.88023952,,,,,,,,,,,,1852.0446,7.0,1852.0448,,,,1854.3823,1854.8769,1853.8652,1854.3819,1853.0484,322.0,1853.8648,1854.8769,1855.3769,1855.3769,1859.5813,1477.0,1859.5818,5.0,1860.5768,7.0,9.0,219.0,5.0,1.0,0.8,0.7,Time
,,S40,1,FEMALE,35,anonymized,Serial_Dependence_U,2023.2.3,Win32,59.88023952,,,,,,,,,,,,1860.5773,7.0,1860.5775,,,,1863.3279,1863.827,1862.8112,1863.3274,1861.5945,61.0,1862.8107,1863.827,1864.327,1864.327,1866.1437,984.5,1866.1443,2.0,1867.1438,7.0,10.0,220.0,12.0,1.0,1.2,0.3,Time
,,S40,1,FEMALE,35,anonymized,Serial_Dependence_U,2023.2.3,Win32,59.88023952,,,,,,,,,,,,1867.1444,7.0,1867.1447,,,,1869.6957,1870.1937,1869.1812,1869.6942,1868.1643,164.0,1869.1807,1870.1937,1870.694,1870.694,1872.0106,1001.1,1872.0113,3.0,1873.0104,7.0,11.0,221.0,26.0,1.0,1.0,0.7,Time
,,S40,1,FEMALE,35,anonymized,Serial_Dependence_U,2023.2.3,Win32,59.88023952,,,,,,,,,,,,1873.0109,7.0,1873.0113,,,,1876.1323,1876.6269,1875.615,1876.1317,1874.0115,68.0,1875.6146,1876.6269,1877.1273,1877.1273,1878.7983,1390.2,1878.7989,2.0,1879.7935,7.0,12.0,222.0,4.0,1.0,1.6,0.3,Time
,,S40,1,FEMALE,35,anonymized,Serial_Dependence_U,2023.2.3,Win32,59.88023952,,,,,,,,,,,,1879.7939,7.0,1879.794,,,,1882.3309,1882.8268,1881.8287,1882.3304,1880.8111,217.0,1881.8277,1882.8268,1883.3271,1883.3271,1883.7844,75.80000001,1883.7853,1.0,1884.777,7.0,13.0,223.0,16.0,1.0,1.0,0.7,Time
,,S40,1,FEMALE,35,anonymized,Serial_Dependence_U,2023.2.3,Win32,59.88023952,,,,,,,,,,,,1884.7775,7.0,1884.7777,,,,1887.5148,1888.0103,1886.9988,1887.5143,1885.7953,223.0,1886.9982,1888.0103,1888.5102,1888.5102,1889.9441,1109.2,1889.945,2.0,1890.9436,7.0,14.0,224.0,27.0,1.0,1.2,0.7,Time
,,S40,1,FEMALE,35,anonymized,Serial_Dependence_U,2023.2.3,Win32,59.88023952,,,,,,,,,,,,1890.944,7.0,1890.9442,,,,1893.265,1893.7602,1892.7484,1893.2646,1891.9451,18.0,1892.7477,1893.7603,1894.2602,1894.2603,1895.6148,1036.7,1895.6154,4.0,1896.6102,7.0,15.0,225.0,0.0,1.0,0.8,0.3,Time
,,S40,1,FEMALE,35,anonymized,Serial_Dependence_U,2023.2.3,Win32,59.88023952,,,,,,,,,,,,1896.6106,7.0,1896.6107,,,,1899.1477,1899.6436,1898.6278,1899.1471,1897.6116,304.0,1898.6272,1899.6437,1900.1436,1900.1438,1901.7151,1216.1,1901.7156,4.0,1902.7102,7.0,16.0,226.0,11.0,1.0,1.0,0.3,Time
,,S40,1,FEMALE,35,anonymized,Serial_Dependence_U,2023.2.3,Win32,59.88023952,,,,,,,,,,,,1902.7108,7.0,1902.7109,,,,1905.6617,1906.1601,1905.145,1905.6611,1903.7318,20.0,1905.144,1906.1601,1906.6604,1906.6605,1907.8983,932.0,1907.8989,1.0,1908.894,7.0,17.0,227.0,13.0,1.0,1.4,0.3,Time
,,S40,1,FEMALE,35,anonymized,Serial_Dependence_U,2023.2.3,Win32,59.88023952,,,,,,,,,,,,1908.8945,7.0,1908.8946,,,,1911.8443,1912.3436,1911.3312,1911.8438,1909.9112,268.0,1911.3308,1912.3436,1912.8439,1912.844,1915.1148,641.8,1915.1153,1.0,1916.1102,7.0,18.0,228.0,28.0,1.0,1.4,0.7,Time
,,S40,1,FEMALE,35,anonymized,Serial_Dependence_U,2023.2.3,Win32,59.88023952,,,,,,,,,,,,1916.1107,7.0,1916.1109,,,,1919.0449,1919.5438,1918.5312,1919.044,1917.1276,159.0,1918.5308,1919.5438,1920.0439,1920.0439,1920.8103,391.9,1920.8111,1.0,1921.8103,7.0,19.0,229.0,23.0,1.0,1.4,0.3,Time
,,S40,1,FEMALE,35,anonymized,Serial_Dependence_U,2023.2.3,Win32,59.88023952,,,,,,,,,,,,1921.811,7.0,1921.8111,,,,1924.5476,1925.0437,1924.0447,1924.5471,1922.8321,110.0,1924.0441,1925.0438,1925.5436,1925.5436,1928.115,1165.8,1928.1155,3.0,1929.1104,7.0,20.0,230.0,2.0,1.0,1.2,0.3,Time
,,S40,1,FEMALE,35,anonymized,Serial_Dependence_U,2023.2.3,Win32,59.88023952,,,,,,,,,,,,1929.1108,7.0,1929.111,,,,1931.4446,1931.9437,1930.928,1931.4438,1930.1152,287.0,1930.9272,1931.9437,1932.4438,1932.4439,1934.0815,956.6,1934.0821,4.0,1935.077,7.0,21.0,231.0,10.0,1.0,0.8,0.3,Time
,,S40,1,FEMALE,35,anonymized,Serial_Dependence_U,2023.2.3,Win32,59.88023952,,,,,,,,,,,,1935.0778,7.0,1935.0781,,,,1938.0278,1938.5306,1937.514,1938.0272,1936.0959,100.0,1937.5134,1938.5306,1939.0271,1939.0272,1942.7326,1104.8,1942.7336,2.0,1943.7269,7.0,22.0,232.0,3.0,1.0,1.4,0.3,Time
,,S40,1,FEMALE,35,anonymized,Serial_Dependence_U,2023.2.3,Win32,59.88023952,,,,,,,,,,,,1943.7277,7.0,1943.728,,,,1946.078,1946.5819,1945.5627,1946.0772,1944.7493,50.0,1945.5618,1946.5819,1947.0775,1947.0777,1951.0486,1019.4,1951.049,4.0,1952.0438,7.0,23.0,233.0,15.0,1.0,0.8,0.7,Time
,,S40,1,FEMALE,35,anonymized,Serial_Dependence_U,2023.2.3,Win32,59.88023952,,,,,,,,,,,,1952.0445,7.0,1952.0447,,,,1954.9979,1955.4936,1954.4777,1954.997,1953.0616,300.0,1954.4772,1955.4936,1955.9936,1955.9936,1957.5185,626.5,1957.5192,1.0,1958.5103,7.0,24.0,234.0,8.0,1.0,1.4,0.7,Time
,,S40,1,FEMALE,35,anonymized,Serial_Dependence_U,2023.2.3,Win32,59.88023952,,,,,,,,,,,,1958.5108,7.0,1958.511,,,,1961.0613,1961.5606,1960.5444,1961.0609,1959.5281,90.0,1960.5438,1961.5606,1962.0601,1962.0601,1963.6269,329.2,1963.6275,1.0,1964.6267,7.0,25.0,235.0,1.0,1.0,1.0,0.3,Time
,,S40,1,FEMALE,35,anonymized,Serial_Dependence_U,2023.2.3,Win32,59.88023952,,,,,,,,,,,,1964.6271,7.0,1964.6272,,,,1967.3818,1967.877,1966.8612,1967.3813,1965.6445,205.0,1966.8606,1967.877,1968.3769,1968.377,1971.1982,1597.2,1971.1989,5.0,1972.1935,7.0,26.0,236.0,7.0,1.0,1.2,0.7,Time
,,S40,1,FEMALE,35,anonymized,Serial_Dependence_U,2023.2.3,Win32,59.88023952,,,,,,,,,,,,1972.194,7.0,1972.1941,,,,1975.3508,1975.8438,1974.8278,1975.3502,1973.2113,111.0,1974.8274,1975.8438,1976.3438,1976.3439,1977.9771,1276.5,1977.9778,2.0,1978.9771,7.0,27.0,237.0,24.0,1.0,1.6,0.3,Time
,,S40,1,FEMALE,35,anonymized,Serial_Dependence_U,2023.2.3,Win32,59.88023952,,,,,,,,,,,,1978.9775,7.0,1978.9777,,,,1982.1276,1982.6268,1981.6112,1982.127,1979.9944,257.0,1981.6107,1982.6268,1983.1268,1983.1268,1985.9437,764.3,1985.9445,1.0,1986.9438,7.0,28.0,238.0,9.0,1.0,1.6,0.7,Time
,,S40,1,FEMALE,35,anonymized,Serial_Dependence_U,2023.2.3,Win32,59.88023952,,,,,,,,,,,,1986.9446,7.0,1986.9448,,,,1990.0987,1990.5938,1989.5779,1990.0982,1987.9667,233.0,1989.5772,1990.5938,1991.1008,1991.101,1992.9817,1516.1,1992.9824,2.0,1993.977,7.0,29.0,239.0,29.0,1.0,1.6,0.7,Time
,,S40,1,FEMALE,35,anonymized,Serial_Dependence_U,2023.2.3,Win32,59.88023952,,,,,,,,,,,,1993.9775,8.0,1995.6785,s,1.6252,,1998.2155,1998.7101,1997.6978,1998.215,1996.6814,59.0,1997.6973,1998.7102,1999.2104,1999.2104,2001.0702,971.2,2001.0713,3.0,2002.0602,8.0,0.0,240.0,1.0,1.0,1.0,0.3,Time
,,S40,1,FEMALE,35,anonymized,Serial_Dependence_U,2023.2.3,Win32,59.88023952,,,,,,,,,,,,2002.0608,8.0,2002.0634,,,,2004.8114,2005.3102,2004.2952,2004.8106,2003.0819,79.0,2004.2943,2005.3102,2005.8102,2005.8103,2007.4154,1127.8,2007.4159,2.0,2008.4108,8.0,1.0,241.0,12.0,1.0,1.2,0.3,Time
,,S40,1,FEMALE,35,anonymized,Serial_Dependence_U,2023.2.3,Win32,59.88023952,,,,,,,,,,,,2008.4115,8.0,2008.4116,,,,2011.3661,2011.8601,2010.8449,2011.3656,2009.4316,29.0,2010.8439,2011.8602,2012.3603,2012.3603,2013.8316,1158.7,2013.8322,2.0,2014.8269,8.0,2.0,242.0,18.0,1.0,1.4,0.7,Time
,,S40,1,FEMALE,35,anonymized,Serial_Dependence_U,2023.2.3,Win32,59.88023952,,,,,,,,,,,,2014.8274,8.0,2014.8275,,,,2017.3784,2017.8768,2016.8644,2017.3773,2015.8445,160.0,2016.8639,2017.8769,2018.3769,2018.3769,2021.9484,961.0,2021.9491,3.0,2022.944,8.0,3.0,243.0,21.0,1.0,1.0,0.3,Time
,,S40,1,FEMALE,35,anonymized,Serial_Dependence_U,2023.2.3,Win32,59.88023952,,,,,,,,,,,,2022.9449,8.0,2022.945,,,,2025.8948,2026.3936,2025.378,2025.8939,2023.9655,175.0,2025.3774,2026.3936,2026.8937,2026.8938,2028.1277,934.0,2028.1284,1.0,2029.127,8.0,4.0,244.0,28.0,1.0,1.4,0.7,Time
,,S40,1,FEMALE,35,anonymized,Serial_Dependence_U,2023.2.3,Win32,59.88023952,,,,,,,,,,,,2029.1276,8.0,2029.1278,,,,2031.4779,2031.9769,2030.961,2031.4773,2030.1446,149.0,2030.9606,2031.977,2032.477,2032.477,2034.3937,1218.5,2034.3946,5.0,2035.3938,8.0,5.0,245.0,20.0,1.0,0.8,0.3,Time
,,S40,1,FEMALE,35,anonymized,Serial_Dependence_U,2023.2.3,Win32,59.88023952,,,,,,,,,,,,2035.3944,8.0,2035.3945,,,,2038.5446,2039.0436,2038.0275,2038.5439,2036.4108,307.0,2038.027,2039.0437,2039.544,2039.544,2040.9104,755.3,2040.9112,1.0,2041.9101,8.0,6.0,246.0,4.0,1.0,1.6,0.3,Time
,,S40,1,FEMALE,35,anonymized,Serial_Dependence_U,2023.2.3,Win32,59.88023952,,,,,,,,,,,,2041.9106,8.0,2041.9109,,,,2045.0611,2045.5603,2044.5445,2045.0607,2042.9277,30.0,2044.5438,2045.5603,2046.0604,2046.0604,2049.2439,888.5,2049.2448,1.0,2050.2439,8.0,7.0,247.0,14.0,1.0,1.6,0.3,Time
,,S40,1,FEMALE,35,anonymized,Serial_Dependence_U,2023.2.3,Win32,59.88023952,,,,,,,,,,,,2050.2447,8.0,2050.2449,,,,2052.5657,2053.0605,2052.0616,2052.5651,2051.2483,148.0,2052.061,2053.0606,2053.5604,2053.5605,2054.9661,1025.1,2054.9666,4.0,2055.9602,8.0,8.0,248.0,5.0,1.0,0.8,0.7,Time
,,S40,1,FEMALE,35,anonymized,Serial_Dependence_U,2023.2.3,Win32,59.88023952,,,,,,,,,,,,2055.9606,8.0,2055.9608,,,,2058.4947,2058.9939,2057.9815,2058.494,2056.9644,277.0,2057.9811,2058.9939,2059.4938,2059.4938,2060.8155,1066.0,2060.8165,4.0,2061.8134,8.0,9.0,249.0,16.0,1.0,1.0,0.7,Time
,,S40,1,FEMALE,35,anonymized,Serial_Dependence_U,2023.2.3,Win32,59.88023952,,,,,,,,,,,,2061.8138,8.0,2061.8139,,,,2064.5488,2065.0434,2064.0278,2064.5481,2062.8145,347.0,2064.0272,2065.0435,2065.544,2065.5442,2066.5983,765.6,2066.5989,1.0,2067.5936,8.0,10.0,250.0,2.0,1.0,1.2,0.3,Time
,,S40,1,FEMALE,35,anonymized,Serial_Dependence_U,2023.2.3,Win32,59.88023952,,,,,,,,,,,,2067.5942,8.0,2067.5943,,,,2070.1445,2070.6437,2069.6276,2070.1438,2068.6109,53.0,2069.627,2070.6438,2071.1434,2071.1435,2074.8439,1145.4,2074.8444,4.0,2075.8435,8.0,11.0,251.0,26.0,1.0,1.0,0.7,Time
,,S40,1,FEMALE,35,anonymized,Serial_Dependence_U,2023.2.3,Win32,59.88023952,,,,,,,,,,,,2075.844,8.0,2075.8441,,,,2078.7951,2079.2939,2078.2817,2078.7945,2076.8655,140.0,2078.2812,2079.2939,2079.7936,2079.7937,2080.2605,84.5,2080.2613,1.0,2081.2607,8.0,12.0,252.0,8.0,1.0,1.4,0.7,Time
,,S40,1,FEMALE,35,anonymized,Serial_Dependence_U,2023.2.3,Win32,59.88023952,,,,,,,,,,,,2081.2612,8.0,2081.2614,,,,2083.5814,2084.0769,2083.0664,2083.5809,2082.2652,201.0,2083.0658,2084.077,2084.5768,2084.5768,2087.0988,1148.5,2087.0994,5.0,2088.0936,8.0,13.0,253.0,15.0,1.0,0.8,0.7,Time
,,S40,1,FEMALE,35,anonymized,Serial_Dependence_U,2023.2.3,Win32,59.88023952,,,,,,,,,,,,2088.094,8.0,2088.0942,,,,2091.2155,2091.7102,2090.7113,2091.2148,2089.0989,171.0,2090.7108,2091.7102,2092.2104,2092.2104,2098.2332,9999.0,2098.2338,0.0,2099.227,8.0,14.0,254.0,19.0,1.0,1.6,0.7,Time
,,S40,1,FEMALE,35,anonymized,Serial_Dependence_U,2023.2.3,Win32,59.88023952,,,,,,,,,,,,2099.2278,8.0,2099.2279,,,,2101.9645,2102.4602,2101.4453,2101.961,2100.231,292.0,2101.4442,2102.4602,2102.9607,2102.9608,2104.7485,1072.4,2104.7491,2.0,2105.7437,8.0,15.0,255.0,17.0,1.0,1.2,0.7,Time
,,S40,1,FEMALE,35,anonymized,Serial_Dependence_U,2023.2.3,Win32,59.88023952,,,,,,,,,,,,2105.7441,8.0,2105.7443,,,,2108.4813,2108.977,2107.9654,2108.4805,2106.7451,140.0,2107.9647,2108.977,2109.4768,2109.4768,2115.4815,9999.0,2115.4821,0.0,2116.4772,8.0,16.0,256.0,22.0,1.0,1.2,0.3,Time
,,S40,1,FEMALE,35,anonymized,Serial_Dependence_U,2023.2.3,Win32,59.88023952,,,,,,,,,,,,2116.4776,8.0,2116.4779,,,,2118.8278,2119.3268,2118.3116,2118.8272,2117.4948,86.0,2118.3109,2119.3268,2119.8269,2119.8271,2125.848,9999.0,2125.8487,0.0,2126.8435,8.0,17.0,257.0,0.0,1.0,0.8,0.3,Time
,,S40,1,FEMALE,35,anonymized,Serial_Dependence_U,2023.2.3,Win32,59.88023952,,,,,,,,,,,,2126.844,8.0,2126.8441,,,,2129.1984,2129.6934,2128.6786,2129.1979,2127.8651,64.0,2128.6774,2129.6935,2130.1938,2130.1938,2131.7818,1074.7,2131.7825,5.0,2132.777,8.0,18.0,258.0,25.0,1.0,0.8,0.7,Time
,,S40,1,FEMALE,35,anonymized,Serial_Dependence_U,2023.2.3,Win32,59.88023952,,,,,,,,,,,,2132.7776,8.0,2132.7778,,,,2135.9118,2136.4103,2135.3985,2135.9112,2133.7823,228.0,2135.3979,2136.4103,2136.9104,2136.9105,2141.2482,266.1,2141.2491,1.0,2142.2437,8.0,19.0,259.0,24.0,1.0,1.6,0.3,Time
,,S40,1,FEMALE,35,anonymized,Serial_Dependence_U,2023.2.3,Win32,59.88023952,,,,,,,,,,,,2142.2448,8.0,2142.2452,,,,2144.7781,2145.277,2144.2649,2144.7776,2143.2447,23.0,2144.2644,2145.277,2145.7771,2145.7772,2147.4668,1193.9,2147.4675,4.0,2148.4603,8.0,20.0,260.0,6.0,1.0,1.0,0.7,Time
,,S40,1,FEMALE,35,anonymized,Serial_Dependence_U,2023.2.3,Win32,59.88023952,,,,,,,,,,,,2148.4608,8.0,2148.4609,,,,2151.5989,2152.0937,2151.0946,2151.5981,2149.482,162.0,2151.0938,2152.0937,2152.5938,2152.5939,2154.3652,1098.5,2154.3658,1.0,2155.3604,8.0,21.0,261.0,9.0,1.0,1.6,0.7,Time
,,S40,1,FEMALE,35,anonymized,Serial_Dependence_U,2023.2.3,Win32,59.88023952,,,,,,,,,,,,2155.361,8.0,2155.3613,,,,2158.0817,2158.5768,2157.5653,2158.0811,2156.3643,93.0,2157.5648,2158.5769,2159.0768,2159.0768,2165.0937,9999.0,2165.0943,0.0,2166.0936,8.0,22.0,262.0,7.0,1.0,1.2,0.7,Time
,,S40,1,FEMALE,35,anonymized,Serial_Dependence_U,2023.2.3,Win32,59.88023952,,,,,,,,,,,,2166.0947,8.0,2166.0949,,,,2169.0328,2169.5268,2168.5152,2169.0321,2167.1112,238.0,2168.5148,2169.5269,2170.0268,2170.0269,2172.3152,865.9,2172.3158,1.0,2173.3109,8.0,23.0,263.0,23.0,1.0,1.4,0.3,Time
,,S40,1,FEMALE,35,anonymized,Serial_Dependence_U,2023.2.3,Win32,59.88023952,,,,,,,,,,,,2173.3114,8.0,2173.3115,,,,2175.882,2176.3773,2175.3778,2175.8816,2174.3612,238.0,2175.3772,2176.3774,2176.8774,2176.8775,2178.5437,1214.7,2178.5445,4.0,2179.5439,8.0,24.0,264.0,11.0,1.0,1.0,0.3,Time
,,S40,1,FEMALE,35,anonymized,Serial_Dependence_U,2023.2.3,Win32,59.88023952,,,,,,,,,,,,2179.5449,8.0,2179.5451,,,,2182.4778,2182.9768,2181.9643,2182.4772,2180.5489,28.0,2181.9639,2182.9768,2183.4769,2183.477,2189.3986,1012.1,2189.3993,2.0,2190.3938,8.0,25.0,265.0,13.0,1.0,1.4,0.3,Time
,,S40,1,FEMALE,35,anonymized,Serial_Dependence_U,2023.2.3,Win32,59.88023952,,,,,,,,,,,,2190.3944,8.0,2190.3946,,,,2193.5283,2194.0268,2193.015,2193.5274,2191.3986,306.0,2193.0144,2194.0268,2194.527,2194.5271,2200.5442,9999.0,2200.5447,0.0,2201.5436,8.0,26.0,266.0,29.0,1.0,1.6,0.7,Time
,,S40,1,FEMALE,35,anonymized,Serial_Dependence_U,2023.2.3,Win32,59.88023952,,,,,,,,,,,,2201.5446,8.0,2201.545,,,,2203.8652,2204.3603,2203.3481,2203.8646,2202.5448,147.0,2203.3475,2204.3604,2204.8603,2204.8604,2210.8773,9999.0,2210.8779,0.0,2211.8768,8.0,27.0,267.0,10.0,1.0,0.8,0.3,Time
,,S40,1,FEMALE,35,anonymized,Serial_Dependence_U,2023.2.3,Win32,59.88023952,,,,,,,,,,,,2211.8773,8.0,2211.8776,,,,2214.6279,2215.1268,2214.1152,2214.6272,2212.9005,215.0,2214.1146,2215.1268,2215.6271,2215.6271,2221.2653,799.4,2221.2661,1.0,2222.2601,8.0,28.0,268.0,27.0,1.0,1.2,0.7,Time
,,S40,1,FEMALE,35,anonymized,Serial_Dependence_U,2023.2.3,Win32,59.88023952,,,,,,,,,,,,2222.2606,8.0,2222.2608,,,,2225.1977,2225.6936,2224.6944,2225.1972,2223.282,208.0,2224.6937,2225.6936,2226.1937,2226.1937,2227.8816,1075.3,2227.8821,2.0,2228.877,8.0,29.0,269.0,3.0,1.0,1.4,0.3,Time
