Scale_setup.started,Scale_setup.stopped,participant,session,sex,age,date,expName,psychopyVersion,OS,frameRate,screen_scale_keys.started,screen_scale_keys.stopped,X Scale,Y Scale,rectangel_keys.started,rectangel_keys.stopped,Intro.started,Intro.stopped,key_resp_2.keys,key_resp_2.rt,key_resp_2.duration,block.started,Block_id,block.stopped,Block_resp_2.keys,Block_resp_2.rt,Block_resp_2.duration,ITI.started,ITI.stopped,Mask_2.started,Mask_2.stopped,M2.started,direction,M2.stopped,Cue.started,Cue.stopped,Response.started,Response.stopped,keyDuration,Feedback_Time.started,FeedbackID_T,Feedback_Time.stopped,trials.thisRepN,trials.thisTrialN,trials.thisN,trials.thisIndex,trials.ran,TimeDur,Coherence1,TrialType
0.0,0.002,S41,1,,,anonymized,Serial_Dependence_U,2023.2.3,Win32,60.0240096,,,,,,,,,,,,,,,,,,,,,,,,,,,,,,,,,,,,,,,,
,,S41,1,,,anonymized,Serial_Dependence_U,2023.2.3,Win32,60.0240096,0.006,5.08,0.05,0.05,5.08,6.045,6.045,8.611,space,2.292,,,,,,,,,,,,,,,,,,,,,,,,,,,,,,
,,S41,1,,,anonymized,Serial_Dependence_U,2023.2.3,Win32,60.0240096,,,,,,,,,,,,8.678,0.0,10.283,s,1.413,,13.086,13.446,12.546,13.081,11.328,111.0,12.546,13.446,13.944,13.944,20.019,9999.0,20.021,0.0,20.814,0.0,0.0,0.0,22.0,1.0,1.2,0.3,Time
,,S41,1,,,anonymized,Serial_Dependence_U,2023.2.3,Win32,60.0240096,,,,,,,,,,,,20.823,0.0,20.847,,,,25.498,25.998,24.985,25.498,22.922,156.0,24.985,25.998,26.498,26.498,27.724,944.0,27.724,2.0,28.691,0.0,1.0,1.0,27.0,1.0,1.2,0.7,Time
,,S41,1,,,anonymized,Serial_Dependence_U,2023.2.3,Win32,60.0240096,,,,,,,,,,,,28.692,0.0,28.692,,,,31.663,32.151,31.147,31.663,29.712,320.0,31.147,32.151,32.656,32.656,34.453,1530.0,34.453,4.0,35.456,0.0,2.0,2.0,28.0,1.0,1.4,0.7,Time
,,S41,1,,,anonymized,Serial_Dependence_U,2023.2.3,Win32,60.0240096,,,,,,,,,,,,35.457,0.0,35.459,,,,38.49,38.968,37.975,38.49,36.358,263.0,37.969,38.968,39.364,39.364,40.737,967.0,40.738,1.0,41.735,0.0,3.0,3.0,24.0,1.0,1.6,0.3,Time
,,S41,1,,,anonymized,Serial_Dependence_U,2023.2.3,Win32,60.0240096,,,,,,,,,,,,41.736,0.0,41.737,,,,44.911,45.412,44.381,44.908,42.958,125.0,44.381,45.412,45.912,45.912,49.723,2504.0,49.723,5.0,50.711,0.0,4.0,4.0,23.0,1.0,1.4,0.3,Time
,,S41,1,,,anonymized,Serial_Dependence_U,2023.2.3,Win32,60.0240096,,,,,,,,,,,,50.712,0.0,50.712,,,,53.693,54.186,53.186,53.693,51.742,50.0,53.185,54.186,54.688,54.688,56.224,1418.0,56.224,3.0,57.219,0.0,5.0,5.0,3.0,1.0,1.4,0.3,Time
,,S41,1,,,anonymized,Serial_Dependence_U,2023.2.3,Win32,60.0240096,,,,,,,,,,,,57.221,0.0,57.221,,,,60.534,61.024,60.013,60.533,58.355,194.0,60.013,61.024,61.516,61.516,63.346,1396.0,63.346,2.0,64.496,0.0,6.0,6.0,9.0,1.0,1.6,0.7,Time
,,S41,1,,,anonymized,Serial_Dependence_U,2023.2.3,Win32,60.0240096,,,,,,,,,,,,64.504,0.0,64.506,,,,67.776,68.272,67.223,67.775,65.547,140.0,67.223,68.272,68.768,68.768,69.922,864.0,69.922,1.0,70.921,0.0,7.0,7.0,14.0,1.0,1.6,0.3,Time
,,S41,1,,,anonymized,Serial_Dependence_U,2023.2.3,Win32,60.0240096,,,,,,,,,,,,70.923,0.0,70.923,,,,73.468,73.956,72.954,73.468,71.949,78.0,72.954,73.956,74.453,74.453,75.901,1062.0,75.904,4.0,76.906,0.0,8.0,8.0,21.0,1.0,1.0,0.3,Time
,,S41,1,,,anonymized,Serial_Dependence_U,2023.2.3,Win32,60.0240096,,,,,,,,,,,,76.909,0.0,76.911,,,,80.049,80.546,79.548,80.049,77.927,231.0,79.548,80.546,81.064,81.065,82.307,954.0,82.307,1.0,83.31,0.0,9.0,9.0,4.0,1.0,1.6,0.3,Time
,,S41,1,,,anonymized,Serial_Dependence_U,2023.2.3,Win32,60.0240096,,,,,,,,,,,,83.311,0.0,83.312,,,,85.856,86.307,85.325,85.856,84.317,246.0,85.325,86.307,86.799,86.8,88.564,1318.0,88.564,5.0,89.569,0.0,10.0,10.0,11.0,1.0,1.0,0.3,Time
,,S41,1,,,anonymized,Serial_Dependence_U,2023.2.3,Win32,60.0240096,,,,,,,,,,,,89.57,0.0,89.571,,,,92.598,93.122,92.068,92.598,90.657,235.0,92.068,93.122,93.615,93.615,95.646,1587.0,95.646,4.0,96.658,0.0,11.0,11.0,13.0,1.0,1.4,0.3,Time
,,S41,1,,,anonymized,Serial_Dependence_U,2023.2.3,Win32,60.0240096,,,,,,,,,,,,96.658,0.0,96.659,,,,99.258,99.756,98.734,99.258,97.699,164.0,98.734,99.757,100.247,100.247,101.806,1450.0,101.807,5.0,102.795,0.0,12.0,12.0,1.0,1.0,1.0,0.3,Time
,,S41,1,,,anonymized,Serial_Dependence_U,2023.2.3,Win32,60.0240096,,,,,,,,,,,,102.796,0.0,102.796,,,,105.158,105.655,104.655,105.158,103.803,258.0,104.655,105.655,106.156,106.156,107.856,1385.0,107.856,5.0,108.856,0.0,13.0,13.0,0.0,1.0,0.8,0.3,Time
,,S41,1,,,anonymized,Serial_Dependence_U,2023.2.3,Win32,60.0240096,,,,,,,,,,,,108.856,0.0,108.857,,,,111.664,112.133,110.899,111.664,109.885,43.0,110.898,112.133,112.626,112.627,114.098,1327.0,114.099,5.0,115.108,0.0,14.0,14.0,16.0,1.0,1.0,0.7,Time
,,S41,1,,,anonymized,Serial_Dependence_U,2023.2.3,Win32,60.0240096,,,,,,,,,,,,115.114,0.0,115.116,,,,117.48,118.098,116.961,117.48,116.129,154.0,116.961,118.098,118.492,118.492,119.768,1074.0,119.769,5.0,120.757,0.0,15.0,15.0,5.0,1.0,0.8,0.7,Time
,,S41,1,,,anonymized,Serial_Dependence_U,2023.2.3,Win32,60.0240096,,,,,,,,,,,,120.768,0.0,120.77,,,,123.723,124.284,123.2,123.721,121.774,354.0,123.2,124.284,124.737,124.737,125.947,805.0,125.947,1.0,126.938,0.0,16.0,16.0,18.0,1.0,1.4,0.7,Time
,,S41,1,,,anonymized,Serial_Dependence_U,2023.2.3,Win32,60.0240096,,,,,,,,,,,,126.939,0.0,126.939,,,,129.665,130.166,129.149,129.664,127.937,112.0,129.149,130.166,130.667,130.667,131.864,851.0,131.864,2.0,132.865,0.0,17.0,17.0,17.0,1.0,1.2,0.7,Time
,,S41,1,,,anonymized,Serial_Dependence_U,2023.2.3,Win32,60.0240096,,,,,,,,,,,,132.866,0.0,132.867,,,,135.659,136.16,135.126,135.659,133.879,213.0,135.126,136.161,136.68,136.68,138.583,1397.0,138.583,4.0,139.601,0.0,18.0,18.0,12.0,1.0,1.2,0.3,Time
,,S41,1,,,anonymized,Serial_Dependence_U,2023.2.3,Win32,60.0240096,,,,,,,,,,,,139.604,0.0,139.604,,,,142.57,143.069,142.055,142.569,140.637,239.0,142.055,143.069,143.567,143.567,144.405,541.0,144.405,1.0,145.418,0.0,19.0,19.0,8.0,1.0,1.4,0.7,Time
,,S41,1,,,anonymized,Serial_Dependence_U,2023.2.3,Win32,60.0240096,,,,,,,,,,,,145.419,0.0,145.419,,,,147.992,148.49,147.462,147.991,146.448,22.0,147.462,148.49,148.959,148.959,150.082,1069.0,150.082,4.0,151.08,0.0,20.0,20.0,6.0,1.0,1.0,0.7,Time
,,S41,1,,,anonymized,Serial_Dependence_U,2023.2.3,Win32,60.0240096,,,,,,,,,,,,151.08,0.0,151.081,,,,153.459,153.961,152.941,153.459,152.126,244.0,152.941,153.961,154.461,154.461,156.291,1180.0,156.292,5.0,157.29,0.0,21.0,21.0,20.0,1.0,0.8,0.3,Time
,,S41,1,,,anonymized,Serial_Dependence_U,2023.2.3,Win32,60.0240096,,,,,,,,,,,,157.291,0.0,157.292,,,,160.092,160.587,159.569,160.091,158.326,40.0,159.569,160.587,161.087,161.087,162.252,1098.0,162.255,2.0,163.252,0.0,22.0,22.0,2.0,1.0,1.2,0.3,Time
,,S41,1,,,anonymized,Serial_Dependence_U,2023.2.3,Win32,60.0240096,,,,,,,,,,,,163.253,0.0,163.253,,,,166.475,166.964,165.9,166.475,164.265,68.0,165.9,166.964,167.469,167.469,169.199,1276.0,169.2,2.0,170.196,0.0,23.0,23.0,19.0,1.0,1.6,0.7,Time
,,S41,1,,,anonymized,Serial_Dependence_U,2023.2.3,Win32,60.0240096,,,,,,,,,,,,170.196,0.0,170.197,,,,172.726,173.226,172.196,172.723,171.376,232.0,172.196,173.226,173.726,173.726,174.738,582.0,174.738,2.0,175.733,0.0,24.0,24.0,25.0,1.0,0.8,0.7,Time
,,S41,1,,,anonymized,Serial_Dependence_U,2023.2.3,Win32,60.0240096,,,,,,,,,,,,175.736,0.0,175.736,,,,178.886,179.443,178.386,178.886,176.771,23.0,178.385,179.443,179.886,179.886,181.298,1341.0,181.298,2.0,182.3,0.0,25.0,25.0,29.0,1.0,1.6,0.7,Time
,,S41,1,,,anonymized,Serial_Dependence_U,2023.2.3,Win32,60.0240096,,,,,,,,,,,,182.3,0.0,182.301,,,,184.66,185.164,184.148,184.66,183.333,323.0,184.148,185.164,185.673,185.673,186.995,850.0,186.998,4.0,188.06,0.0,26.0,26.0,10.0,1.0,0.8,0.3,Time
,,S41,1,,,anonymized,Serial_Dependence_U,2023.2.3,Win32,60.0240096,,,,,,,,,,,,188.062,0.0,188.064,,,,190.613,191.111,190.093,190.613,189.074,350.0,190.093,191.111,191.608,191.608,193.106,1211.0,193.106,4.0,194.1,0.0,27.0,27.0,26.0,1.0,1.0,0.7,Time
,,S41,1,,,anonymized,Serial_Dependence_U,2023.2.3,Win32,60.0240096,,,,,,,,,,,,194.101,0.0,194.101,,,,196.487,196.983,195.97,196.485,195.153,98.0,195.97,196.983,197.469,197.469,198.8,1276.0,198.8,5.0,199.791,0.0,28.0,28.0,15.0,1.0,0.8,0.7,Time
,,S41,1,,,anonymized,Serial_Dependence_U,2023.2.3,Win32,60.0240096,,,,,,,,,,,,199.791,0.0,199.792,,,,202.777,202.825,202.108,202.777,200.803,250.0,202.102,202.826,202.828,202.828,207.863,1106.0,207.863,2.0,208.833,0.0,29.0,29.0,7.0,1.0,1.2,0.7,Time
,,S41,1,,,anonymized,Serial_Dependence_U,2023.2.3,Win32,60.0240096,,,,,,,,,,,,208.84,1.0,211.177,s,2.237,,214.12,214.583,213.602,214.12,212.185,258.0,213.602,214.583,215.083,215.083,216.4,970.0,216.4,1.0,217.364,1.0,0.0,30.0,28.0,1.0,1.4,0.7,Time
,,S41,1,,,anonymized,Serial_Dependence_U,2023.2.3,Win32,60.0240096,,,,,,,,,,,,217.365,1.0,217.384,,,,219.75,220.238,219.22,219.749,218.395,212.0,219.22,220.238,220.73,220.73,222.117,1038.0,222.117,4.0,223.12,1.0,1.0,31.0,10.0,1.0,0.8,0.3,Time
,,S41,1,,,anonymized,Serial_Dependence_U,2023.2.3,Win32,60.0240096,,,,,,,,,,,,223.12,1.0,223.121,,,,225.67,226.172,225.163,225.67,224.142,4.0,225.163,226.172,226.748,226.748,228.24,1286.0,228.24,4.0,229.236,1.0,2.0,32.0,16.0,1.0,1.0,0.7,Time
,,S41,1,,,anonymized,Serial_Dependence_U,2023.2.3,Win32,60.0240096,,,,,,,,,,,,229.237,1.0,229.237,,,,231.991,232.486,231.47,231.991,230.253,246.0,231.47,232.486,232.985,232.985,234.553,1341.0,234.553,4.0,235.55,1.0,3.0,33.0,12.0,1.0,1.2,0.3,Time
,,S41,1,,,anonymized,Serial_Dependence_U,2023.2.3,Win32,60.0240096,,,,,,,,,,,,235.55,1.0,235.551,,,,238.36,238.862,237.801,238.36,236.583,24.0,237.801,238.862,239.363,239.363,240.737,1048.0,240.738,2.0,241.73,1.0,4.0,34.0,27.0,1.0,1.2,0.7,Time
,,S41,1,,,anonymized,Serial_Dependence_U,2023.2.3,Win32,60.0240096,,,,,,,,,,,,241.735,1.0,241.736,,,,244.293,244.759,243.76,244.293,242.73,157.0,243.76,244.759,245.254,245.254,246.489,1167.0,246.489,4.0,247.487,1.0,5.0,35.0,11.0,1.0,1.0,0.3,Time
,,S41,1,,,anonymized,Serial_Dependence_U,2023.2.3,Win32,60.0240096,,,,,,,,,,,,247.488,1.0,247.489,,,,249.85,250.356,249.333,249.85,248.504,186.0,249.333,250.356,250.888,250.888,252.087,848.0,252.097,4.0,253.101,1.0,6.0,36.0,25.0,1.0,0.8,0.7,Time
,,S41,1,,,anonymized,Serial_Dependence_U,2023.2.3,Win32,60.0240096,,,,,,,,,,,,253.102,1.0,253.102,,,,256.048,256.547,255.53,256.048,254.114,213.0,255.53,256.547,257.048,257.048,257.465,113.0,257.467,1.0,258.461,1.0,7.0,37.0,8.0,1.0,1.4,0.7,Time
,,S41,1,,,anonymized,Serial_Dependence_U,2023.2.3,Win32,60.0240096,,,,,,,,,,,,258.463,1.0,258.464,,,,261.228,261.724,260.708,261.228,259.48,300.0,260.708,261.724,262.305,262.305,263.692,1197.0,263.693,3.0,264.688,1.0,8.0,38.0,17.0,1.0,1.2,0.7,Time
,,S41,1,,,anonymized,Serial_Dependence_U,2023.2.3,Win32,60.0240096,,,,,,,,,,,,264.689,1.0,264.691,,,,267.856,268.348,267.319,267.855,265.702,15.0,267.319,268.348,268.853,268.853,270.467,1099.0,270.468,1.0,271.476,1.0,9.0,39.0,24.0,1.0,1.6,0.3,Time
,,S41,1,,,anonymized,Serial_Dependence_U,2023.2.3,Win32,60.0240096,,,,,,,,,,,,271.485,1.0,271.486,,,,273.815,274.303,273.313,273.815,272.51,255.0,273.312,274.303,274.792,274.792,276.521,1300.0,276.521,5.0,277.521,1.0,10.0,40.0,5.0,1.0,0.8,0.7,Time
,,S41,1,,,anonymized,Serial_Dependence_U,2023.2.3,Win32,60.0240096,,,,,,,,,,,,277.523,1.0,277.523,,,,280.471,280.972,279.956,280.471,278.544,349.0,279.956,280.972,281.469,281.469,283.034,1210.0,283.035,2.0,284.038,1.0,11.0,41.0,18.0,1.0,1.4,0.7,Time
,,S41,1,,,anonymized,Serial_Dependence_U,2023.2.3,Win32,60.0240096,,,,,,,,,,,,284.039,1.0,284.039,,,,287.216,287.714,286.7,287.216,285.087,180.0,286.7,287.715,288.214,288.214,289.981,1454.0,289.981,2.0,290.971,1.0,12.0,42.0,14.0,1.0,1.6,0.3,Time
,,S41,1,,,anonymized,Serial_Dependence_U,2023.2.3,Win32,60.0240096,,,,,,,,,,,,290.973,1.0,290.974,,,,293.911,294.412,293.376,293.909,291.968,170.0,293.375,294.412,294.906,294.906,297.093,1779.0,297.094,4.0,298.09,1.0,13.0,43.0,23.0,1.0,1.4,0.3,Time
,,S41,1,,,anonymized,Serial_Dependence_U,2023.2.3,Win32,60.0240096,,,,,,,,,,,,298.093,1.0,298.093,,,,301.263,301.753,300.732,301.263,299.104,24.0,300.726,301.753,302.252,302.252,303.755,1188.0,303.755,2.0,304.777,1.0,14.0,44.0,4.0,1.0,1.6,0.3,Time
,,S41,1,,,anonymized,Serial_Dependence_U,2023.2.3,Win32,60.0240096,,,,,,,,,,,,304.783,1.0,304.783,,,,307.313,307.809,306.8,307.313,305.78,165.0,306.8,307.809,308.312,308.312,309.727,1362.0,309.727,5.0,310.726,1.0,15.0,45.0,1.0,1.0,1.0,0.3,Time
,,S41,1,,,anonymized,Serial_Dependence_U,2023.2.3,Win32,60.0240096,,,,,,,,,,,,310.727,1.0,310.727,,,,313.142,313.634,312.609,313.142,311.761,171.0,312.609,313.634,314.127,314.127,315.924,1333.0,315.924,5.0,316.922,1.0,16.0,46.0,15.0,1.0,0.8,0.7,Time
,,S41,1,,,anonymized,Serial_Dependence_U,2023.2.3,Win32,60.0240096,,,,,,,,,,,,316.924,1.0,316.924,,,,319.288,319.787,318.77,319.288,317.941,131.0,318.77,319.788,320.287,320.287,321.767,1057.0,321.767,5.0,322.814,1.0,17.0,47.0,20.0,1.0,0.8,0.3,Time
,,S41,1,,,anonymized,Serial_Dependence_U,2023.2.3,Win32,60.0240096,,,,,,,,,,,,322.816,1.0,322.816,,,,325.185,325.678,324.666,325.185,323.828,358.0,324.664,325.678,326.181,326.181,327.565,1054.0,327.566,5.0,328.564,1.0,18.0,48.0,0.0,1.0,0.8,0.3,Time
,,S41,1,,,anonymized,Serial_Dependence_U,2023.2.3,Win32,60.0240096,,,,,,,,,,,,328.565,1.0,328.565,,,,331.21,331.716,330.704,331.21,329.598,138.0,330.704,331.716,332.225,332.225,333.072,264.0,333.073,1.0,334.054,1.0,19.0,49.0,6.0,1.0,1.0,0.7,Time
,,S41,1,,,anonymized,Serial_Dependence_U,2023.2.3,Win32,60.0240096,,,,,,,,,,,,334.055,1.0,334.055,,,,336.704,337.264,336.181,336.704,335.126,55.0,336.181,337.264,337.725,337.725,339.234,1147.0,339.235,4.0,340.234,1.0,20.0,50.0,21.0,1.0,1.0,0.3,Time
,,S41,1,,,anonymized,Serial_Dependence_U,2023.2.3,Win32,60.0240096,,,,,,,,,,,,340.235,1.0,340.235,,,,342.964,343.464,342.462,342.964,341.246,324.0,342.462,343.464,343.958,343.958,345.578,1300.0,345.578,4.0,346.578,1.0,21.0,51.0,7.0,1.0,1.2,0.7,Time
,,S41,1,,,anonymized,Serial_Dependence_U,2023.2.3,Win32,60.0240096,,,,,,,,,,,,346.578,1.0,346.578,,,,349.156,349.657,348.628,349.156,347.605,337.0,348.627,349.657,350.152,350.152,351.622,1330.0,351.622,5.0,352.622,1.0,22.0,52.0,26.0,1.0,1.0,0.7,Time
,,S41,1,,,anonymized,Serial_Dependence_U,2023.2.3,Win32,60.0240096,,,,,,,,,,,,352.623,1.0,352.623,,,,355.418,355.919,354.885,355.417,353.654,59.0,354.885,355.919,356.407,356.407,362.465,9999.0,362.465,0.0,363.473,1.0,23.0,53.0,22.0,1.0,1.2,0.3,Time
,,S41,1,,,anonymized,Serial_Dependence_U,2023.2.3,Win32,60.0240096,,,,,,,,,,,,363.474,1.0,363.475,,,,366.291,366.794,365.786,366.291,364.543,328.0,365.785,366.794,367.293,367.293,372.635,1582.0,372.635,5.0,373.635,1.0,24.0,54.0,2.0,1.0,1.2,0.3,Time
,,S41,1,,,anonymized,Serial_Dependence_U,2023.2.3,Win32,60.0240096,,,,,,,,,,,,373.637,1.0,373.637,,,,376.782,377.283,376.268,376.782,374.651,45.0,376.268,377.284,377.783,377.783,379.578,1399.0,379.579,2.0,380.579,1.0,25.0,55.0,19.0,1.0,1.6,0.7,Time
,,S41,1,,,anonymized,Serial_Dependence_U,2023.2.3,Win32,60.0240096,,,,,,,,,,,,380.579,1.0,380.58,,,,383.528,384.026,383.015,383.528,381.613,269.0,383.015,384.026,384.533,384.533,387.538,1691.0,387.539,4.0,388.467,1.0,26.0,56.0,3.0,1.0,1.4,0.3,Time
,,S41,1,,,anonymized,Serial_Dependence_U,2023.2.3,Win32,60.0240096,,,,,,,,,,,,388.474,1.0,388.475,,,,391.633,392.134,391.103,391.633,389.486,270.0,391.103,392.135,392.62,392.62,394.814,1721.0,394.814,4.0,395.795,1.0,27.0,57.0,9.0,1.0,1.6,0.7,Time
,,S41,1,,,anonymized,Serial_Dependence_U,2023.2.3,Win32,60.0240096,,,,,,,,,,,,395.797,1.0,395.797,,,,398.944,399.429,398.427,398.944,396.799,160.0,398.427,399.429,399.943,399.943,402.68,1804.0,402.689,4.0,403.691,1.0,28.0,58.0,29.0,1.0,1.6,0.7,Time
,,S41,1,,,anonymized,Serial_Dependence_U,2023.2.3,Win32,60.0240096,,,,,,,,,,,,403.692,1.0,403.692,,,,406.669,407.166,406.157,406.669,404.722,116.0,406.156,407.166,407.656,407.656,409.632,1721.0,409.633,4.0,410.634,1.0,29.0,59.0,13.0,1.0,1.4,0.3,Time
,,S41,1,,,anonymized,Serial_Dependence_U,2023.2.3,Win32,60.0240096,,,,,,,,,,,,410.635,2.0,412.686,s,1.998,,415.866,416.357,415.345,415.859,413.697,209.0,415.344,416.358,416.856,416.856,420.571,2446.0,420.573,5.0,421.576,2.0,0.0,60.0,29.0,1.0,1.6,0.7,Time
,,S41,1,,,anonymized,Serial_Dependence_U,2023.2.3,Win32,60.0240096,,,,,,,,,,,,421.584,2.0,421.595,,,,423.968,424.471,423.44,423.968,422.622,318.0,423.44,424.471,424.961,424.961,426.385,1357.0,426.386,5.0,427.385,2.0,1.0,61.0,0.0,1.0,0.8,0.3,Time
,,S41,1,,,anonymized,Serial_Dependence_U,2023.2.3,Win32,60.0240096,,,,,,,,,,,,427.386,2.0,427.387,,,,430.148,430.649,429.633,430.148,428.415,5.0,429.633,430.649,431.147,431.147,432.994,1514.0,432.995,4.0,433.995,2.0,2.0,62.0,22.0,1.0,1.2,0.3,Time
,,S41,1,,,anonymized,Serial_Dependence_U,2023.2.3,Win32,60.0240096,,,,,,,,,,,,433.996,2.0,433.996,,,,436.527,437.024,436.025,436.527,435.009,253.0,436.025,437.024,437.536,437.536,439.307,1516.0,439.307,5.0,440.289,2.0,3.0,63.0,16.0,1.0,1.0,0.7,Time
,,S41,1,,,anonymized,Serial_Dependence_U,2023.2.3,Win32,60.0240096,,,,,,,,,,,,440.29,2.0,440.291,,,,443.467,443.969,442.951,443.466,441.318,232.0,442.95,443.969,444.463,444.463,446.216,1485.0,446.216,2.0,447.219,2.0,4.0,64.0,4.0,1.0,1.6,0.3,Time
,,S41,1,,,anonymized,Serial_Dependence_U,2023.2.3,Win32,60.0240096,,,,,,,,,,,,447.22,2.0,447.22,,,,450.149,450.643,449.647,450.149,448.231,346.0,449.647,450.643,451.148,451.148,452.948,1482.0,452.948,4.0,453.943,2.0,5.0,65.0,23.0,1.0,1.4,0.3,Time
,,S41,1,,,anonymized,Serial_Dependence_U,2023.2.3,Win32,60.0240096,,,,,,,,,,,,453.943,2.0,453.944,,,,456.34,456.82,455.79,456.34,454.976,99.0,455.79,456.82,457.327,457.327,458.721,880.0,458.721,4.0,459.721,2.0,6.0,66.0,25.0,1.0,0.8,0.7,Time
,,S41,1,,,anonymized,Serial_Dependence_U,2023.2.3,Win32,60.0240096,,,,,,,,,,,,459.73,2.0,459.733,,,,462.885,463.383,462.372,462.885,460.755,79.0,462.372,463.383,463.883,463.883,465.53,1390.0,465.531,2.0,466.539,2.0,7.0,67.0,19.0,1.0,1.6,0.7,Time
,,S41,1,,,anonymized,Serial_Dependence_U,2023.2.3,Win32,60.0240096,,,,,,,,,,,,466.542,2.0,466.543,,,,469.309,469.812,468.779,469.308,467.561,298.0,468.779,469.812,470.311,470.311,471.811,1244.0,471.812,3.0,472.804,2.0,8.0,68.0,12.0,1.0,1.2,0.3,Time
,,S41,1,,,anonymized,Serial_Dependence_U,2023.2.3,Win32,60.0240096,,,,,,,,,,,,472.805,2.0,472.807,,,,475.537,476.038,475.022,475.537,473.81,102.0,475.021,476.038,476.54,476.54,478.483,1866.0,478.485,5.0,479.449,2.0,9.0,69.0,2.0,1.0,1.2,0.3,Time
,,S41,1,,,anonymized,Serial_Dependence_U,2023.2.3,Win32,60.0240096,,,,,,,,,,,,479.451,2.0,479.453,,,,482.032,482.531,481.482,482.032,480.467,237.0,481.481,482.531,483.032,483.032,484.532,1080.0,484.532,4.0,485.528,2.0,10.0,70.0,6.0,1.0,1.0,0.7,Time
,,S41,1,,,anonymized,Serial_Dependence_U,2023.2.3,Win32,60.0240096,,,,,,,,,,,,485.529,2.0,485.53,,,,488.125,488.627,487.579,488.125,486.562,311.0,487.577,488.627,489.124,489.124,490.789,1335.0,490.79,5.0,491.788,2.0,11.0,71.0,26.0,1.0,1.0,0.7,Time
,,S41,1,,,anonymized,Serial_Dependence_U,2023.2.3,Win32,60.0240096,,,,,,,,,,,,491.793,2.0,491.794,,,,494.523,495.023,494.003,494.523,492.791,99.0,494.003,495.023,495.538,495.538,497.134,1212.0,497.134,3.0,498.135,2.0,12.0,72.0,17.0,1.0,1.2,0.7,Time
,,S41,1,,,anonymized,Serial_Dependence_U,2023.2.3,Win32,60.0240096,,,,,,,,,,,,498.136,2.0,498.136,,,,500.495,500.983,499.953,500.495,499.137,2.0,499.953,500.983,501.485,501.485,504.46,1395.0,504.46,5.0,505.448,2.0,13.0,73.0,15.0,1.0,0.8,0.7,Time
,,S41,1,,,anonymized,Serial_Dependence_U,2023.2.3,Win32,60.0240096,,,,,,,,,,,,505.449,2.0,505.451,,,,508.006,508.519,507.491,508.006,506.461,292.0,507.491,508.519,509.011,509.011,510.984,1592.0,510.985,5.0,511.973,2.0,14.0,74.0,1.0,1.0,1.0,0.3,Time
,,S41,1,,,anonymized,Serial_Dependence_U,2023.2.3,Win32,60.0240096,,,,,,,,,,,,511.974,2.0,511.975,,,,514.951,515.452,514.42,514.951,513.004,312.0,514.42,515.452,515.941,515.942,517.216,801.0,517.217,1.0,518.218,2.0,15.0,75.0,8.0,1.0,1.4,0.7,Time
,,S41,1,,,anonymized,Serial_Dependence_U,2023.2.3,Win32,60.0240096,,,,,,,,,,,,518.224,2.0,518.226,,,,520.829,521.308,520.296,520.829,519.249,34.0,520.296,521.308,521.798,521.798,523.432,1568.0,523.441,5.0,524.448,2.0,16.0,76.0,11.0,1.0,1.0,0.3,Time
,,S41,1,,,anonymized,Serial_Dependence_U,2023.2.3,Win32,60.0240096,,,,,,,,,,,,524.451,2.0,524.453,,,,526.794,527.291,526.273,526.794,525.459,71.0,526.273,527.291,527.783,527.783,530.168,1947.0,530.169,5.0,531.163,2.0,17.0,77.0,10.0,1.0,0.8,0.3,Time
,,S41,1,,,anonymized,Serial_Dependence_U,2023.2.3,Win32,60.0240096,,,,,,,,,,,,531.164,2.0,531.165,,,,534.324,534.824,533.82,534.322,532.186,23.0,533.82,534.824,535.314,535.314,537.167,1584.0,537.167,3.0,538.163,2.0,18.0,78.0,9.0,1.0,1.6,0.7,Time
,,S41,1,,,anonymized,Serial_Dependence_U,2023.2.3,Win32,60.0240096,,,,,,,,,,,,538.164,2.0,538.165,,,,541.158,541.677,540.632,541.158,539.193,230.0,540.632,541.677,542.16,542.16,542.392,31.0,542.393,1.0,543.403,2.0,19.0,79.0,13.0,1.0,1.4,0.3,Time
,,S41,1,,,anonymized,Serial_Dependence_U,2023.2.3,Win32,60.0240096,,,,,,,,,,,,543.404,2.0,543.405,,,,545.774,546.276,545.241,545.774,544.425,82.0,545.24,546.276,546.772,546.772,548.639,1417.0,548.64,5.0,549.635,2.0,20.0,80.0,5.0,1.0,0.8,0.7,Time
,,S41,1,,,anonymized,Serial_Dependence_U,2023.2.3,Win32,60.0240096,,,,,,,,,,,,549.636,2.0,549.637,,,,552.015,552.515,551.485,552.015,550.653,144.0,551.485,552.515,553.016,553.016,558.943,1449.0,558.944,5.0,559.938,2.0,21.0,81.0,20.0,1.0,0.8,0.3,Time
,,S41,1,,,anonymized,Serial_Dependence_U,2023.2.3,Win32,60.0240096,,,,,,,,,,,,559.946,2.0,559.951,,,,562.722,563.228,562.204,562.722,560.974,11.0,562.204,563.228,563.719,563.719,565.352,1236.0,565.352,3.0,566.349,2.0,22.0,82.0,7.0,1.0,1.2,0.7,Time
,,S41,1,,,anonymized,Serial_Dependence_U,2023.2.3,Win32,60.0240096,,,,,,,,,,,,566.35,2.0,566.35,,,,569.499,569.995,568.97,569.499,567.366,305.0,568.969,569.995,570.5,570.5,572.164,1199.0,572.165,2.0,573.163,2.0,23.0,83.0,14.0,1.0,1.6,0.3,Time
,,S41,1,,,anonymized,Serial_Dependence_U,2023.2.3,Win32,60.0240096,,,,,,,,,,,,573.164,2.0,573.164,,,,575.921,576.422,575.391,575.92,574.18,339.0,575.391,576.422,576.91,576.911,578.824,1819.0,578.825,5.0,579.823,2.0,24.0,84.0,27.0,1.0,1.2,0.7,Time
,,S41,1,,,anonymized,Serial_Dependence_U,2023.2.3,Win32,60.0240096,,,,,,,,,,,,579.824,2.0,579.825,,,,583.003,583.504,582.47,583.003,580.854,53.0,582.47,583.504,584.003,584.003,585.906,1813.0,585.916,4.0,586.917,2.0,25.0,85.0,24.0,1.0,1.6,0.3,Time
,,S41,1,,,anonymized,Serial_Dependence_U,2023.2.3,Win32,60.0240096,,,,,,,,,,,,586.918,2.0,586.919,,,,589.465,589.966,588.95,589.465,587.935,11.0,588.95,589.967,590.462,590.462,592.449,1557.0,592.45,5.0,593.443,2.0,26.0,86.0,21.0,1.0,1.0,0.3,Time
,,S41,1,,,anonymized,Serial_Dependence_U,2023.2.3,Win32,60.0240096,,,,,,,,,,,,593.449,2.0,593.451,,,,596.423,596.925,595.91,596.423,594.466,118.0,595.91,596.925,597.424,597.424,599.286,1477.0,599.289,4.0,600.284,2.0,27.0,87.0,18.0,1.0,1.4,0.7,Time
,,S41,1,,,anonymized,Serial_Dependence_U,2023.2.3,Win32,60.0240096,,,,,,,,,,,,600.285,2.0,600.286,,,,603.235,603.735,602.717,603.235,601.307,223.0,602.717,603.735,604.231,604.231,606.567,1702.0,606.57,4.0,607.563,2.0,28.0,88.0,3.0,1.0,1.4,0.3,Time
,,S41,1,,,anonymized,Serial_Dependence_U,2023.2.3,Win32,60.0240096,,,,,,,,,,,,607.565,2.0,607.565,,,,610.51,611.013,610.003,610.509,608.564,111.0,610.003,611.013,611.508,611.508,613.673,1771.0,613.674,4.0,614.674,2.0,29.0,89.0,28.0,1.0,1.4,0.7,Time
,,S41,1,,,anonymized,Serial_Dependence_U,2023.2.3,Win32,60.0240096,,,,,,,,,,,,614.675,3.0,616.79,s,2.068,,619.935,620.435,619.42,619.935,617.802,258.0,619.42,620.435,620.935,620.935,622.597,1420.0,622.6,2.0,623.602,3.0,0.0,90.0,14.0,1.0,1.6,0.3,Time
,,S41,1,,,anonymized,Serial_Dependence_U,2023.2.3,Win32,60.0240096,,,,,,,,,,,,623.603,3.0,623.616,,,,626.212,626.708,625.685,626.212,624.662,98.0,625.684,626.708,627.213,627.213,629.353,1808.0,629.355,5.0,630.346,3.0,1.0,91.0,6.0,1.0,1.0,0.7,Time
,,S41,1,,,anonymized,Serial_Dependence_U,2023.2.3,Win32,60.0240096,,,,,,,,,,,,630.363,3.0,630.364,,,,633.341,633.837,632.823,633.34,631.391,207.0,632.822,633.837,634.342,634.342,636.113,1688.0,636.113,4.0,637.105,3.0,2.0,92.0,23.0,1.0,1.4,0.3,Time
,,S41,1,,,anonymized,Serial_Dependence_U,2023.2.3,Win32,60.0240096,,,,,,,,,,,,637.106,3.0,637.106,,,,639.702,640.215,639.166,639.701,638.134,8.0,639.166,640.215,640.716,640.716,644.197,1631.0,644.198,5.0,645.194,3.0,3.0,93.0,16.0,1.0,1.0,0.7,Time
,,S41,1,,,anonymized,Serial_Dependence_U,2023.2.3,Win32,60.0240096,,,,,,,,,,,,645.195,3.0,645.195,,,,647.975,648.475,647.442,647.975,646.208,245.0,647.442,648.476,648.969,648.969,650.388,1284.0,650.388,4.0,651.39,3.0,4.0,94.0,2.0,1.0,1.2,0.3,Time
,,S41,1,,,anonymized,Serial_Dependence_U,2023.2.3,Win32,60.0240096,,,,,,,,,,,,651.391,3.0,651.392,,,,653.743,654.238,653.236,653.743,652.419,252.0,653.236,654.238,654.739,654.739,656.498,1387.0,656.502,5.0,657.501,3.0,5.0,95.0,20.0,1.0,0.8,0.3,Time
,,S41,1,,,anonymized,Serial_Dependence_U,2023.2.3,Win32,60.0240096,,,,,,,,,,,,657.502,3.0,657.503,,,,660.462,660.942,659.932,660.461,658.502,189.0,659.932,660.943,661.447,661.447,662.678,946.0,662.679,1.0,663.677,3.0,6.0,96.0,3.0,1.0,1.4,0.3,Time
,,S41,1,,,anonymized,Serial_Dependence_U,2023.2.3,Win32,60.0240096,,,,,,,,,,,,663.681,3.0,663.683,,,,666.056,666.562,665.527,666.056,664.726,99.0,665.527,666.563,667.058,667.058,669.842,2344.0,669.842,5.0,670.838,3.0,7.0,97.0,0.0,1.0,0.8,0.3,Time
,,S41,1,,,anonymized,Serial_Dependence_U,2023.2.3,Win32,60.0240096,,,,,,,,,,,,670.839,3.0,670.84,,,,673.235,673.739,672.706,673.235,671.868,315.0,672.705,673.739,674.234,674.234,676.798,1799.0,676.798,5.0,677.795,3.0,8.0,98.0,5.0,1.0,0.8,0.7,Time
,,S41,1,,,anonymized,Serial_Dependence_U,2023.2.3,Win32,60.0240096,,,,,,,,,,,,677.797,3.0,677.798,,,,680.533,681.028,680.015,680.533,678.812,261.0,680.015,681.028,681.53,681.53,683.318,1456.0,683.319,4.0,684.316,3.0,9.0,99.0,22.0,1.0,1.2,0.3,Time
,,S41,1,,,anonymized,Serial_Dependence_U,2023.2.3,Win32,60.0240096,,,,,,,,,,,,684.319,3.0,684.32,,,,687.472,687.973,686.94,687.472,685.338,326.0,686.94,687.973,688.508,688.508,689.899,1099.0,689.9,1.0,690.904,3.0,10.0,100.0,9.0,1.0,1.6,0.7,Time
,,S41,1,,,anonymized,Serial_Dependence_U,2023.2.3,Win32,60.0240096,,,,,,,,,,,,690.904,3.0,690.904,,,,693.483,693.984,692.965,693.483,691.934,34.0,692.965,693.984,694.481,694.481,695.879,1008.0,695.879,3.0,696.842,3.0,11.0,101.0,26.0,1.0,1.0,0.7,Time
,,S41,1,,,anonymized,Serial_Dependence_U,2023.2.3,Win32,60.0240096,,,,,,,,,,,,696.843,3.0,696.844,,,,699.441,699.925,698.916,699.44,697.848,165.0,698.915,699.925,700.427,700.427,702.657,1783.0,702.658,5.0,703.657,3.0,12.0,102.0,1.0,1.0,1.0,0.3,Time
,,S41,1,,,anonymized,Serial_Dependence_U,2023.2.3,Win32,60.0240096,,,,,,,,,,,,703.661,3.0,703.664,,,,706.653,707.151,706.119,706.653,704.688,56.0,706.119,707.151,707.653,707.653,709.684,1393.0,709.684,3.0,710.674,3.0,13.0,103.0,18.0,1.0,1.4,0.7,Time
,,S41,1,,,anonymized,Serial_Dependence_U,2023.2.3,Win32,60.0240096,,,,,,,,,,,,710.677,3.0,710.679,,,,713.029,713.525,712.497,713.029,711.683,89.0,712.497,713.525,714.027,714.027,716.11,1299.0,716.11,5.0,717.056,3.0,14.0,104.0,25.0,1.0,0.8,0.7,Time
,,S41,1,,,anonymized,Serial_Dependence_U,2023.2.3,Win32,60.0240096,,,,,,,,,,,,717.057,3.0,717.057,,,,719.454,719.958,718.928,719.454,718.097,243.0,718.928,719.958,720.46,720.46,720.616,84.0,720.617,1.0,721.611,3.0,15.0,105.0,10.0,1.0,0.8,0.3,Time
,,S41,1,,,anonymized,Serial_Dependence_U,2023.2.3,Win32,60.0240096,,,,,,,,,,,,721.614,3.0,721.615,,,,724.154,724.644,723.652,724.154,722.639,110.0,723.651,724.645,725.145,725.145,726.655,1222.0,726.656,4.0,727.647,3.0,16.0,106.0,21.0,1.0,1.0,0.3,Time
,,S41,1,,,anonymized,Serial_Dependence_U,2023.2.3,Win32,60.0240096,,,,,,,,,,,,727.648,3.0,727.649,,,,730.429,730.91,729.897,730.429,728.678,315.0,729.897,730.91,731.421,731.421,733.029,1455.0,733.03,4.0,734.007,3.0,17.0,107.0,7.0,1.0,1.2,0.7,Time
,,S41,1,,,anonymized,Serial_Dependence_U,2023.2.3,Win32,60.0240096,,,,,,,,,,,,734.007,3.0,734.008,,,,737.18,737.673,736.675,737.18,735.027,102.0,736.674,737.673,738.171,738.171,740.305,1375.0,740.306,2.0,741.303,3.0,18.0,108.0,19.0,1.0,1.6,0.7,Time
,,S41,1,,,anonymized,Serial_Dependence_U,2023.2.3,Win32,60.0240096,,,,,,,,,,,,741.309,3.0,741.31,,,,744.282,744.787,743.749,744.282,742.319,23.0,743.748,744.787,745.282,745.282,746.817,1255.0,746.817,2.0,747.808,3.0,19.0,109.0,28.0,1.0,1.4,0.7,Time
,,S41,1,,,anonymized,Serial_Dependence_U,2023.2.3,Win32,60.0240096,,,,,,,,,,,,747.809,3.0,747.809,,,,750.978,751.477,750.45,750.978,748.829,298.0,750.45,751.477,751.969,751.969,753.741,1510.0,753.742,2.0,754.747,3.0,20.0,110.0,4.0,1.0,1.6,0.3,Time
,,S41,1,,,anonymized,Serial_Dependence_U,2023.2.3,Win32,60.0240096,,,,,,,,,,,,754.751,3.0,754.752,,,,757.11,757.605,756.605,757.109,755.775,359.0,756.605,757.605,758.097,758.097,760.515,1341.0,760.517,5.0,761.509,3.0,21.0,111.0,15.0,1.0,0.8,0.7,Time
,,S41,1,,,anonymized,Serial_Dependence_U,2023.2.3,Win32,60.0240096,,,,,,,,,,,,761.51,3.0,761.511,,,,764.435,764.915,763.929,764.435,762.518,187.0,763.929,764.915,765.413,765.413,765.528,45.0,765.528,1.0,766.526,3.0,22.0,112.0,8.0,1.0,1.4,0.7,Time
,,S41,1,,,anonymized,Serial_Dependence_U,2023.2.3,Win32,60.0240096,,,,,,,,,,,,766.526,3.0,766.527,,,,769.709,770.191,769.179,769.709,767.551,358.0,769.178,770.191,770.738,770.738,772.69,1669.0,772.691,3.0,773.668,3.0,23.0,113.0,29.0,1.0,1.6,0.7,Time
,,S41,1,,,anonymized,Serial_Dependence_U,2023.2.3,Win32,60.0240096,,,,,,,,,,,,773.672,3.0,773.673,,,,776.656,777.154,776.12,776.656,774.701,129.0,776.12,777.154,777.654,777.654,778.602,583.0,778.604,1.0,779.603,3.0,24.0,114.0,13.0,1.0,1.4,0.3,Time
,,S41,1,,,anonymized,Serial_Dependence_U,2023.2.3,Win32,60.0240096,,,,,,,,,,,,779.604,3.0,779.604,,,,782.762,783.263,782.247,782.762,780.636,96.0,782.246,783.263,783.763,783.763,785.349,1134.0,785.349,2.0,786.356,3.0,25.0,115.0,24.0,1.0,1.6,0.3,Time
,,S41,1,,,anonymized,Serial_Dependence_U,2023.2.3,Win32,60.0240096,,,,,,,,,,,,786.356,3.0,786.357,,,,788.896,789.392,788.377,788.895,787.342,230.0,788.376,789.392,789.882,789.883,791.611,1370.0,791.612,5.0,792.601,3.0,26.0,116.0,11.0,1.0,1.0,0.3,Time
,,S41,1,,,anonymized,Serial_Dependence_U,2023.2.3,Win32,60.0240096,,,,,,,,,,,,792.602,3.0,792.603,,,,795.351,795.853,794.837,795.35,793.607,145.0,794.837,795.853,796.353,796.354,798.266,1637.0,798.266,5.0,799.266,3.0,27.0,117.0,12.0,1.0,1.2,0.3,Time
,,S41,1,,,anonymized,Serial_Dependence_U,2023.2.3,Win32,60.0240096,,,,,,,,,,,,799.267,3.0,799.267,,,,802.027,802.529,801.511,802.027,800.295,252.0,801.511,802.529,803.03,803.03,804.097,798.0,804.097,1.0,805.079,3.0,28.0,118.0,27.0,1.0,1.2,0.7,Time
,,S41,1,,,anonymized,Serial_Dependence_U,2023.2.3,Win32,60.0240096,,,,,,,,,,,,805.081,3.0,805.081,,,,807.859,808.357,807.338,807.859,806.097,42.0,807.338,808.357,808.859,808.859,810.47,1085.0,810.47,2.0,811.462,3.0,29.0,119.0,17.0,1.0,1.2,0.7,Time
,,S41,1,,,anonymized,Serial_Dependence_U,2023.2.3,Win32,60.0240096,,,,,,,,,,,,811.463,4.0,813.038,s,1.527,,815.982,816.483,815.467,815.982,814.054,193.0,815.467,816.483,816.962,816.963,819.218,1947.0,819.218,5.0,820.213,4.0,0.0,120.0,23.0,1.0,1.4,0.3,Time
,,S41,1,,,anonymized,Serial_Dependence_U,2023.2.3,Win32,60.0240096,,,,,,,,,,,,820.217,4.0,820.23,,,,822.526,823.03,822.01,822.526,821.178,339.0,822.01,823.03,823.527,823.527,825.621,1756.0,825.621,5.0,826.626,4.0,1.0,121.0,10.0,1.0,0.8,0.3,Time
,,S41,1,,,anonymized,Serial_Dependence_U,2023.2.3,Win32,60.0240096,,,,,,,,,,,,826.627,4.0,826.627,,,,829.593,830.083,829.075,829.593,827.659,121.0,829.075,830.083,830.572,830.573,831.768,900.0,831.768,1.0,832.712,4.0,2.0,122.0,28.0,1.0,1.4,0.7,Time
,,S41,1,,,anonymized,Serial_Dependence_U,2023.2.3,Win32,60.0240096,,,,,,,,,,,,832.713,4.0,832.714,,,,835.499,835.991,834.984,835.499,833.767,214.0,834.984,835.991,836.468,836.468,838.244,1713.0,838.245,5.0,839.244,4.0,3.0,123.0,27.0,1.0,1.2,0.7,Time
,,S41,1,,,anonymized,Serial_Dependence_U,2023.2.3,Win32,60.0240096,,,,,,,,,,,,839.247,4.0,839.247,,,,841.763,842.252,841.258,841.762,840.232,180.0,841.256,842.252,842.744,842.744,844.373,1319.0,844.373,5.0,845.373,4.0,4.0,124.0,11.0,1.0,1.0,0.3,Time
,,S41,1,,,anonymized,Serial_Dependence_U,2023.2.3,Win32,60.0240096,,,,,,,,,,,,845.374,4.0,845.374,,,,848.119,848.615,847.59,848.118,846.388,270.0,847.59,848.615,849.119,849.119,850.321,844.0,850.321,2.0,851.316,4.0,5.0,125.0,22.0,1.0,1.2,0.3,Time
,,S41,1,,,anonymized,Serial_Dependence_U,2023.2.3,Win32,60.0240096,,,,,,,,,,,,851.316,4.0,851.316,,,,853.696,854.185,853.162,853.695,852.332,41.0,853.162,854.186,854.674,854.674,856.194,1214.0,856.195,5.0,857.195,4.0,6.0,126.0,15.0,1.0,0.8,0.7,Time
,,S41,1,,,anonymized,Serial_Dependence_U,2023.2.3,Win32,60.0240096,,,,,,,,,,,,857.202,4.0,857.206,,,,859.979,860.469,859.474,859.978,858.243,18.0,859.474,860.47,860.976,860.977,862.504,1160.0,862.505,3.0,863.504,4.0,7.0,127.0,17.0,1.0,1.2,0.7,Time
,,S41,1,,,anonymized,Serial_Dependence_U,2023.2.3,Win32,60.0240096,,,,,,,,,,,,863.505,4.0,863.506,,,,866.052,866.552,865.519,866.052,864.506,131.0,865.519,866.553,867.052,867.052,868.684,897.0,868.684,2.0,869.685,4.0,8.0,128.0,26.0,1.0,1.0,0.7,Time
,,S41,1,,,anonymized,Serial_Dependence_U,2023.2.3,Win32,60.0240096,,,,,,,,,,,,869.686,4.0,869.686,,,,872.844,873.346,872.329,872.844,870.694,191.0,872.329,873.346,873.846,873.846,875.375,1190.0,875.375,2.0,876.388,4.0,9.0,129.0,4.0,1.0,1.6,0.3,Time
,,S41,1,,,anonymized,Serial_Dependence_U,2023.2.3,Win32,60.0240096,,,,,,,,,,,,876.39,4.0,876.39,,,,879.589,880.084,879.059,879.589,877.425,245.0,879.059,880.084,880.573,880.573,881.759,869.0,881.76,1.0,882.754,4.0,10.0,130.0,29.0,1.0,1.6,0.7,Time
,,S41,1,,,anonymized,Serial_Dependence_U,2023.2.3,Win32,60.0240096,,,,,,,,,,,,882.755,4.0,882.756,,,,885.933,886.437,885.42,885.933,883.784,83.0,885.419,886.437,886.916,886.917,888.613,1397.0,888.614,2.0,889.614,4.0,11.0,131.0,19.0,1.0,1.6,0.7,Time
,,S41,1,,,anonymized,Serial_Dependence_U,2023.2.3,Win32,60.0240096,,,,,,,,,,,,889.621,4.0,889.625,,,,891.994,892.494,891.48,891.994,890.644,50.0,891.479,892.494,892.995,892.995,895.211,1764.0,895.211,5.0,896.212,4.0,12.0,132.0,20.0,1.0,0.8,0.3,Time
,,S41,1,,,anonymized,Serial_Dependence_U,2023.2.3,Win32,60.0240096,,,,,,,,,,,,896.22,4.0,896.22,,,,899.455,899.956,898.94,899.455,897.315,123.0,898.94,899.956,900.45,900.45,901.853,1046.0,901.853,1.0,902.852,4.0,13.0,133.0,24.0,1.0,1.6,0.3,Time
,,S41,1,,,anonymized,Serial_Dependence_U,2023.2.3,Win32,60.0240096,,,,,,,,,,,,902.853,4.0,902.869,,,,905.861,906.358,905.331,905.86,903.882,83.0,905.331,906.358,906.853,906.853,909.678,1429.0,909.679,3.0,910.68,4.0,14.0,134.0,3.0,1.0,1.4,0.3,Time
,,S41,1,,,anonymized,Serial_Dependence_U,2023.2.3,Win32,60.0240096,,,,,,,,,,,,910.682,4.0,910.682,,,,913.46,913.951,912.93,913.46,911.697,9.0,912.93,913.951,914.441,914.441,916.235,1718.0,916.235,5.0,917.226,4.0,15.0,135.0,2.0,1.0,1.2,0.3,Time
,,S41,1,,,anonymized,Serial_Dependence_U,2023.2.3,Win32,60.0240096,,,,,,,,,,,,917.233,4.0,917.233,,,,920.386,920.887,919.883,920.385,918.254,83.0,919.882,920.887,921.376,921.376,922.683,1029.0,922.683,1.0,923.681,4.0,16.0,136.0,9.0,1.0,1.6,0.7,Time
,,S41,1,,,anonymized,Serial_Dependence_U,2023.2.3,Win32,60.0240096,,,,,,,,,,,,923.682,4.0,923.682,,,,926.267,926.762,925.745,926.267,924.716,134.0,925.745,926.762,927.255,927.255,928.742,998.0,928.743,3.0,929.736,4.0,17.0,137.0,16.0,1.0,1.0,0.7,Time
,,S41,1,,,anonymized,Serial_Dependence_U,2023.2.3,Win32,60.0240096,,,,,,,,,,,,929.744,4.0,929.745,,,,932.121,932.623,931.611,932.121,930.791,58.0,931.611,932.623,933.126,933.126,935.953,1072.0,935.954,5.0,936.951,4.0,18.0,138.0,0.0,1.0,0.8,0.3,Time
,,S41,1,,,anonymized,Serial_Dependence_U,2023.2.3,Win32,60.0240096,,,,,,,,,,,,936.951,4.0,936.952,,,,939.915,940.412,939.397,939.915,937.97,246.0,939.397,940.413,940.902,940.902,942.53,1306.0,942.531,2.0,943.534,4.0,19.0,139.0,8.0,1.0,1.4,0.7,Time
,,S41,1,,,anonymized,Serial_Dependence_U,2023.2.3,Win32,60.0240096,,,,,,,,,,,,943.535,4.0,943.541,,,,946.13,946.627,945.6,946.13,944.563,69.0,945.6,946.627,947.127,947.127,948.592,1028.0,948.592,3.0,949.593,4.0,20.0,140.0,21.0,1.0,1.0,0.3,Time
,,S41,1,,,anonymized,Serial_Dependence_U,2023.2.3,Win32,60.0240096,,,,,,,,,,,,949.593,4.0,949.594,,,,952.397,952.918,951.875,952.397,950.654,258.0,951.875,952.918,953.403,953.403,954.507,1049.0,954.508,2.0,955.498,4.0,21.0,141.0,12.0,1.0,1.2,0.3,Time
,,S41,1,,,anonymized,Serial_Dependence_U,2023.2.3,Win32,60.0240096,,,,,,,,,,,,955.5,4.0,955.5,,,,957.867,958.366,957.355,957.866,956.517,257.0,957.354,958.366,958.809,958.809,963.828,1085.0,963.828,5.0,964.83,4.0,22.0,142.0,25.0,1.0,0.8,0.7,Time
,,S41,1,,,anonymized,Serial_Dependence_U,2023.2.3,Win32,60.0240096,,,,,,,,,,,,964.84,4.0,964.841,,,,967.438,967.935,966.912,967.438,965.874,192.0,966.912,967.935,968.424,968.424,970.519,1742.0,970.519,5.0,971.517,4.0,23.0,143.0,6.0,1.0,1.0,0.7,Time
,,S41,1,,,anonymized,Serial_Dependence_U,2023.2.3,Win32,60.0240096,,,,,,,,,,,,971.518,4.0,971.519,,,,973.887,974.389,973.371,973.887,972.547,153.0,973.371,974.389,974.884,974.884,976.564,1261.0,976.565,5.0,977.626,4.0,24.0,144.0,5.0,1.0,0.8,0.7,Time
,,S41,1,,,anonymized,Serial_Dependence_U,2023.2.3,Win32,60.0240096,,,,,,,,,,,,977.626,4.0,977.627,,,,980.583,981.075,980.077,980.582,978.65,230.0,980.077,981.076,981.577,981.577,983.126,1495.0,983.127,4.0,984.125,4.0,25.0,145.0,13.0,1.0,1.4,0.3,Time
,,S41,1,,,anonymized,Serial_Dependence_U,2023.2.3,Win32,60.0240096,,,,,,,,,,,,984.126,4.0,984.126,,,,986.926,987.419,986.393,986.926,985.156,212.0,986.393,987.419,987.922,987.922,989.404,1342.0,989.404,4.0,990.401,4.0,26.0,146.0,7.0,1.0,1.2,0.7,Time
,,S41,1,,,anonymized,Serial_Dependence_U,2023.2.3,Win32,60.0240096,,,,,,,,,,,,990.402,4.0,990.403,,,,993.578,994.082,993.063,993.578,991.449,284.0,993.063,994.082,994.601,994.601,996.978,2109.0,996.981,5.0,997.992,4.0,27.0,147.0,14.0,1.0,1.6,0.3,Time
,,S41,1,,,anonymized,Serial_Dependence_U,2023.2.3,Win32,60.0240096,,,,,,,,,,,,998.0,4.0,998.003,,,,1001.007,1001.507,1000.474,1001.007,999.043,235.0,1000.473,1001.507,1002.006,1002.006,1004.088,1736.0,1004.088,4.0,1005.088,4.0,28.0,148.0,18.0,1.0,1.4,0.7,Time
,,S41,1,,,anonymized,Serial_Dependence_U,2023.2.3,Win32,60.0240096,,,,,,,,,,,,1005.089,4.0,1005.091,,,,1007.657,1008.151,1007.138,1007.657,1006.123,18.0,1007.138,1008.151,1008.643,1008.644,1010.697,1733.0,1010.698,5.0,1011.679,4.0,29.0,149.0,1.0,1.0,1.0,0.3,Time
,,S41,1,,,anonymized,Serial_Dependence_U,2023.2.3,Win32,60.0240096,,,,,,,,,,,,1011.681,5.0,1013.65,s,1.908,,1016.226,1016.727,1015.694,1016.226,1014.663,257.0,1015.694,1016.727,1017.228,1017.228,1018.556,953.0,1018.557,3.0,1019.557,5.0,0.0,150.0,21.0,1.0,1.0,0.3,Time
,,S41,1,,,anonymized,Serial_Dependence_U,2023.2.3,Win32,60.0240096,,,,,,,,,,,,1019.559,5.0,1019.573,,,,1022.743,1023.237,1022.207,1022.74,1020.589,354.0,1022.207,1023.237,1023.737,1023.737,1025.234,1203.0,1025.235,2.0,1026.236,5.0,1.0,151.0,29.0,1.0,1.6,0.7,Time
,,S41,1,,,anonymized,Serial_Dependence_U,2023.2.3,Win32,60.0240096,,,,,,,,,,,,1026.246,5.0,1026.247,,,,1028.817,1029.317,1028.296,1028.816,1027.28,6.0,1028.296,1029.317,1029.816,1029.816,1031.099,1076.0,1031.101,4.0,1032.106,5.0,2.0,152.0,11.0,1.0,1.0,0.3,Time
,,S41,1,,,anonymized,Serial_Dependence_U,2023.2.3,Win32,60.0240096,,,,,,,,,,,,1032.108,5.0,1032.108,,,,1034.475,1034.976,1033.958,1034.474,1033.128,182.0,1033.958,1034.977,1035.475,1035.475,1036.658,825.0,1036.658,3.0,1037.656,5.0,3.0,153.0,5.0,1.0,0.8,0.7,Time
,,S41,1,,,anonymized,Serial_Dependence_U,2023.2.3,Win32,60.0240096,,,,,,,,,,,,1037.657,5.0,1037.658,,,,1040.641,1041.134,1040.139,1040.641,1038.706,154.0,1040.138,1041.135,1041.618,1041.618,1042.719,1031.0,1042.719,2.0,1043.716,5.0,4.0,154.0,18.0,1.0,1.4,0.7,Time
,,S41,1,,,anonymized,Serial_Dependence_U,2023.2.3,Win32,60.0240096,,,,,,,,,,,,1043.718,5.0,1043.718,,,,1046.497,1046.984,1045.95,1046.497,1044.737,118.0,1045.95,1046.984,1047.483,1047.483,1048.795,1240.0,1048.795,3.0,1049.796,5.0,5.0,155.0,12.0,1.0,1.2,0.3,Time
,,S41,1,,,anonymized,Serial_Dependence_U,2023.2.3,Win32,60.0240096,,,,,,,,,,,,1049.796,5.0,1049.797,,,,1052.143,1052.634,1051.626,1052.141,1050.826,239.0,1051.626,1052.634,1053.128,1053.128,1054.259,1061.0,1054.261,5.0,1055.26,5.0,6.0,156.0,10.0,1.0,0.8,0.3,Time
,,S41,1,,,anonymized,Serial_Dependence_U,2023.2.3,Win32,60.0240096,,,,,,,,,,,,1055.269,5.0,1055.272,,,,1058.052,1058.555,1057.524,1058.052,1056.305,56.0,1057.524,1058.555,1059.074,1059.074,1060.365,768.0,1060.366,1.0,1061.371,5.0,7.0,157.0,22.0,1.0,1.2,0.3,Time
,,S41,1,,,anonymized,Serial_Dependence_U,2023.2.3,Win32,60.0240096,,,,,,,,,,,,1061.371,5.0,1061.371,,,,1064.097,1064.598,1063.597,1064.097,1062.385,152.0,1063.596,1064.598,1065.084,1065.085,1067.212,1435.0,1067.214,4.0,1068.205,5.0,8.0,158.0,7.0,1.0,1.2,0.7,Time
,,S41,1,,,anonymized,Serial_Dependence_U,2023.2.3,Win32,60.0240096,,,,,,,,,,,,1068.206,5.0,1068.207,,,,1071.389,1071.882,1070.857,1071.389,1069.225,239.0,1070.857,1071.886,1072.391,1072.391,1074.006,1377.0,1074.006,2.0,1075.01,5.0,9.0,159.0,19.0,1.0,1.6,0.7,Time
,,S41,1,,,anonymized,Serial_Dependence_U,2023.2.3,Win32,60.0240096,,,,,,,,,,,,1075.011,5.0,1075.018,,,,1077.999,1078.507,1077.469,1077.999,1076.036,79.0,1077.469,1078.507,1079.001,1079.001,1079.205,134.0,1079.206,1.0,1080.201,5.0,10.0,160.0,8.0,1.0,1.4,0.7,Time
,,S41,1,,,anonymized,Serial_Dependence_U,2023.2.3,Win32,60.0240096,,,,,,,,,,,,1080.202,5.0,1080.202,,,,1082.596,1083.098,1082.062,1082.596,1081.231,275.0,1082.062,1083.098,1083.596,1083.596,1086.216,2281.0,1086.22,5.0,1087.212,5.0,11.0,161.0,15.0,1.0,0.8,0.7,Time
,,S41,1,,,anonymized,Serial_Dependence_U,2023.2.3,Win32,60.0240096,,,,,,,,,,,,1087.219,5.0,1087.222,,,,1090.189,1090.69,1089.685,1090.189,1088.256,99.0,1089.685,1090.69,1091.186,1091.186,1092.768,1258.0,1092.769,2.0,1093.759,5.0,12.0,162.0,23.0,1.0,1.4,0.3,Time
,,S41,1,,,anonymized,Serial_Dependence_U,2023.2.3,Win32,60.0240096,,,,,,,,,,,,1093.759,5.0,1093.759,,,,1096.502,1097.001,1095.986,1096.502,1094.77,276.0,1095.986,1097.001,1097.501,1097.501,1099.947,1475.0,1099.947,4.0,1100.947,5.0,13.0,163.0,17.0,1.0,1.2,0.7,Time
,,S41,1,,,anonymized,Serial_Dependence_U,2023.2.3,Win32,60.0240096,,,,,,,,,,,,1100.949,5.0,1100.949,,,,1104.132,1104.628,1103.592,1104.131,1101.96,75.0,1103.592,1104.628,1105.122,1105.122,1106.608,1044.0,1106.609,1.0,1107.607,5.0,14.0,164.0,9.0,1.0,1.6,0.7,Time
,,S41,1,,,anonymized,Serial_Dependence_U,2023.2.3,Win32,60.0240096,,,,,,,,,,,,1107.608,5.0,1107.609,,,,1110.172,1110.65,1109.659,1110.172,1108.621,271.0,1109.659,1110.65,1111.146,1111.146,1112.55,1064.0,1112.551,4.0,1113.551,5.0,15.0,165.0,1.0,1.0,1.0,0.3,Time
,,S41,1,,,anonymized,Serial_Dependence_U,2023.2.3,Win32,60.0240096,,,,,,,,,,,,1113.552,5.0,1113.553,,,,1116.666,1117.164,1116.162,1116.665,1114.556,180.0,1116.162,1117.164,1117.667,1117.667,1118.961,1008.0,1118.962,1.0,1119.962,5.0,16.0,166.0,14.0,1.0,1.6,0.3,Time
,,S41,1,,,anonymized,Serial_Dependence_U,2023.2.3,Win32,60.0240096,,,,,,,,,,,,1119.963,5.0,1119.963,,,,1122.743,1123.242,1122.199,1122.743,1120.96,247.0,1122.199,1123.243,1123.743,1123.743,1125.256,1178.0,1125.257,3.0,1126.258,5.0,17.0,167.0,2.0,1.0,1.2,0.3,Time
,,S41,1,,,anonymized,Serial_Dependence_U,2023.2.3,Win32,60.0240096,,,,,,,,,,,,1126.262,5.0,1126.269,,,,1129.471,1129.964,1128.937,1129.471,1127.32,232.0,1128.937,1129.964,1130.453,1130.453,1131.65,828.0,1131.65,1.0,1132.647,5.0,18.0,168.0,24.0,1.0,1.6,0.3,Time
,,S41,1,,,anonymized,Serial_Dependence_U,2023.2.3,Win32,60.0240096,,,,,,,,,,,,1132.648,5.0,1132.649,,,,1135.802,1136.299,1135.283,1135.802,1133.681,244.0,1135.283,1136.299,1136.798,1136.798,1137.748,576.0,1137.749,1.0,1138.748,5.0,19.0,169.0,4.0,1.0,1.6,0.3,Time
,,S41,1,,,anonymized,Serial_Dependence_U,2023.2.3,Win32,60.0240096,,,,,,,,,,,,1138.749,5.0,1138.75,,,,1141.724,1142.227,1141.207,1141.724,1139.781,134.0,1141.207,1142.227,1142.732,1142.732,1144.04,892.0,1144.041,1.0,1145.036,5.0,20.0,170.0,13.0,1.0,1.4,0.3,Time
,,S41,1,,,anonymized,Serial_Dependence_U,2023.2.3,Win32,60.0240096,,,,,,,,,,,,1145.037,5.0,1145.038,,,,1147.369,1147.853,1146.856,1147.369,1146.05,9.0,1146.856,1147.853,1148.342,1148.343,1151.054,1388.0,1151.054,5.0,1152.044,5.0,21.0,171.0,20.0,1.0,0.8,0.3,Time
,,S41,1,,,anonymized,Serial_Dependence_U,2023.2.3,Win32,60.0240096,,,,,,,,,,,,1152.047,5.0,1152.047,,,,1154.533,1155.029,1154.011,1154.533,1153.192,342.0,1154.003,1155.029,1155.527,1155.527,1157.332,1576.0,1157.343,5.0,1158.341,5.0,22.0,172.0,0.0,1.0,0.8,0.3,Time
,,S41,1,,,anonymized,Serial_Dependence_U,2023.2.3,Win32,60.0240096,,,,,,,,,,,,1158.357,5.0,1158.361,,,,1160.788,1161.26,1160.273,1160.788,1159.258,12.0,1160.272,1161.26,1161.756,1161.756,1163.334,1336.0,1163.336,5.0,1164.342,5.0,23.0,173.0,6.0,1.0,1.0,0.7,Time
,,S41,1,,,anonymized,Serial_Dependence_U,2023.2.3,Win32,60.0240096,,,,,,,,,,,,1164.345,5.0,1164.35,,,,1167.349,1167.849,1166.818,1167.348,1165.41,144.0,1166.815,1167.849,1168.346,1168.346,1170.18,1359.0,1170.181,3.0,1171.172,5.0,24.0,174.0,28.0,1.0,1.4,0.7,Time
,,S41,1,,,anonymized,Serial_Dependence_U,2023.2.3,Win32,60.0240096,,,,,,,,,,,,1171.175,5.0,1171.176,,,,1173.558,1174.061,1173.028,1173.558,1172.195,92.0,1173.028,1174.061,1174.562,1174.562,1175.83,788.0,1175.831,3.0,1176.825,5.0,25.0,175.0,25.0,1.0,0.8,0.7,Time
,,S41,1,,,anonymized,Serial_Dependence_U,2023.2.3,Win32,60.0240096,,,,,,,,,,,,1176.827,5.0,1176.828,,,,1179.389,1179.892,1178.879,1179.389,1177.83,352.0,1178.879,1179.892,1180.406,1180.406,1181.404,643.0,1181.405,1.0,1182.403,5.0,26.0,176.0,26.0,1.0,1.0,0.7,Time
,,S41,1,,,anonymized,Serial_Dependence_U,2023.2.3,Win32,60.0240096,,,,,,,,,,,,1182.404,5.0,1182.405,,,,1185.334,1185.833,1184.82,1185.334,1183.402,220.0,1184.82,1185.833,1186.327,1186.327,1187.615,958.0,1187.618,1.0,1188.621,5.0,27.0,177.0,3.0,1.0,1.4,0.3,Time
,,S41,1,,,anonymized,Serial_Dependence_U,2023.2.3,Win32,60.0240096,,,,,,,,,,,,1188.63,5.0,1188.632,,,,1191.162,1191.661,1190.633,1191.162,1189.632,94.0,1190.633,1191.661,1192.161,1192.161,1193.879,1432.0,1193.88,5.0,1194.873,5.0,28.0,178.0,16.0,1.0,1.0,0.7,Time
,,S41,1,,,anonymized,Serial_Dependence_U,2023.2.3,Win32,60.0240096,,,,,,,,,,,,1194.874,5.0,1194.875,,,,1197.623,1198.122,1197.103,1197.622,1195.89,211.0,1197.103,1198.122,1198.624,1198.624,1200.052,927.0,1200.053,2.0,1201.054,5.0,29.0,179.0,27.0,1.0,1.2,0.7,Time
,,S41,1,,,anonymized,Serial_Dependence_U,2023.2.3,Win32,60.0240096,,,,,,,,,,,,1201.055,6.0,1203.018,s,1.906,,1205.58,1206.083,1205.045,1205.58,1204.032,190.0,1205.045,1206.083,1206.579,1206.579,1207.934,1293.0,1207.935,4.0,1208.93,6.0,0.0,180.0,11.0,1.0,1.0,0.3,Time
,,S41,1,,,anonymized,Serial_Dependence_U,2023.2.3,Win32,60.0240096,,,,,,,,,,,,1208.932,6.0,1208.944,,,,1211.489,1211.985,1210.974,1211.489,1209.96,87.0,1210.974,1211.986,1212.483,1212.483,1213.79,884.0,1213.79,2.0,1214.79,6.0,1.0,181.0,21.0,1.0,1.0,0.3,Time
,,S41,1,,,anonymized,Serial_Dependence_U,2023.2.3,Win32,60.0240096,,,,,,,,,,,,1214.794,6.0,1214.794,,,,1217.941,1218.436,1217.406,1217.941,1215.805,32.0,1217.406,1218.436,1218.937,1218.937,1220.2,860.0,1220.2,1.0,1221.215,6.0,2.0,182.0,24.0,1.0,1.6,0.3,Time
,,S41,1,,,anonymized,Serial_Dependence_U,2023.2.3,Win32,60.0240096,,,,,,,,,,,,1221.225,6.0,1221.229,,,,1223.599,1224.107,1223.097,1223.599,1222.267,154.0,1223.096,1224.107,1224.596,1224.597,1225.833,1180.0,1225.834,5.0,1226.836,6.0,3.0,183.0,15.0,1.0,0.8,0.7,Time
,,S41,1,,,anonymized,Serial_Dependence_U,2023.2.3,Win32,60.0240096,,,,,,,,,,,,1226.841,6.0,1226.842,,,,1229.611,1230.117,1229.075,1229.611,1227.845,29.0,1229.075,1230.117,1230.618,1230.619,1231.975,1291.0,1231.975,4.0,1232.968,6.0,4.0,184.0,17.0,1.0,1.2,0.7,Time
,,S41,1,,,anonymized,Serial_Dependence_U,2023.2.3,Win32,60.0240096,,,,,,,,,,,,1232.969,6.0,1232.971,,,,1235.939,1236.433,1235.402,1235.938,1233.968,204.0,1235.401,1236.433,1236.926,1236.926,1238.297,1310.0,1238.297,2.0,1239.298,6.0,5.0,185.0,3.0,1.0,1.4,0.3,Time
,,S41,1,,,anonymized,Serial_Dependence_U,2023.2.3,Win32,60.0240096,,,,,,,,,,,,1239.299,6.0,1239.3,,,,1242.114,1242.612,1241.612,1242.114,1240.38,154.0,1241.612,1242.612,1243.111,1243.111,1244.543,1120.0,1244.544,2.0,1245.556,6.0,6.0,186.0,27.0,1.0,1.2,0.7,Time
,,S41,1,,,anonymized,Serial_Dependence_U,2023.2.3,Win32,60.0240096,,,,,,,,,,,,1245.56,6.0,1245.561,,,,1248.41,1248.906,1247.873,1248.41,1246.662,79.0,1247.872,1248.906,1249.397,1249.397,1250.625,969.0,1250.626,2.0,1251.626,6.0,7.0,187.0,22.0,1.0,1.2,0.3,Time
,,S41,1,,,anonymized,Serial_Dependence_U,2023.2.3,Win32,60.0240096,,,,,,,,,,,,1251.634,6.0,1251.653,,,,1254.217,1254.697,1253.691,1254.216,1252.671,350.0,1253.691,1254.697,1255.196,1255.196,1256.888,1188.0,1256.898,4.0,1257.91,6.0,8.0,188.0,16.0,1.0,1.0,0.7,Time
,,S41,1,,,anonymized,Serial_Dependence_U,2023.2.3,Win32,60.0240096,,,,,,,,,,,,1257.911,6.0,1257.912,,,,1260.663,1261.164,1260.133,1260.663,1258.927,283.0,1260.133,1261.164,1261.658,1261.658,1263.473,1521.0,1263.474,4.0,1264.473,6.0,9.0,189.0,2.0,1.0,1.2,0.3,Time
,,S41,1,,,anonymized,Serial_Dependence_U,2023.2.3,Win32,60.0240096,,,,,,,,,,,,1264.473,6.0,1264.474,,,,1267.428,1267.931,1266.905,1267.427,1265.476,245.0,1266.905,1267.932,1268.419,1268.419,1269.452,726.0,1269.453,1.0,1270.466,6.0,10.0,190.0,13.0,1.0,1.4,0.3,Time
,,S41,1,,,anonymized,Serial_Dependence_U,2023.2.3,Win32,60.0240096,,,,,,,,,,,,1270.468,6.0,1270.469,,,,1273.245,1273.755,1272.699,1273.245,1271.483,56.0,1272.698,1273.755,1274.252,1274.252,1276.301,1529.0,1276.302,4.0,1277.294,6.0,11.0,191.0,7.0,1.0,1.2,0.7,Time
,,S41,1,,,anonymized,Serial_Dependence_U,2023.2.3,Win32,60.0240096,,,,,,,,,,,,1277.295,6.0,1277.295,,,,1280.227,1280.725,1279.711,1280.227,1278.295,355.0,1279.711,1280.725,1281.226,1281.226,1283.874,2432.0,1283.875,5.0,1284.876,6.0,12.0,192.0,18.0,1.0,1.4,0.7,Time
,,S41,1,,,anonymized,Serial_Dependence_U,2023.2.3,Win32,60.0240096,,,,,,,,,,,,1284.887,6.0,1284.888,,,,1287.584,1288.084,1287.055,1287.584,1286.042,319.0,1287.055,1288.084,1288.586,1288.586,1290.185,1311.0,1290.186,5.0,1291.183,6.0,13.0,193.0,26.0,1.0,1.0,0.7,Time
,,S41,1,,,anonymized,Serial_Dependence_U,2023.2.3,Win32,60.0240096,,,,,,,,,,,,1291.184,6.0,1291.184,,,,1294.363,1294.852,1293.853,1294.363,1292.216,349.0,1293.853,1294.852,1295.344,1295.344,1296.733,1315.0,1296.733,2.0,1297.757,6.0,14.0,194.0,29.0,1.0,1.6,0.7,Time
,,S41,1,,,anonymized,Serial_Dependence_U,2023.2.3,Win32,60.0240096,,,,,,,,,,,,1297.758,6.0,1297.759,,,,1300.975,1301.476,1300.436,1300.975,1298.792,215.0,1300.435,1301.476,1301.976,1301.976,1303.523,1179.0,1303.523,2.0,1304.56,6.0,15.0,195.0,9.0,1.0,1.6,0.7,Time
,,S41,1,,,anonymized,Serial_Dependence_U,2023.2.3,Win32,60.0240096,,,,,,,,,,,,1304.563,6.0,1304.565,,,,1307.123,1307.617,1306.584,1307.123,1305.575,206.0,1306.584,1307.617,1308.12,1308.12,1309.665,1170.0,1309.665,4.0,1310.66,6.0,16.0,196.0,6.0,1.0,1.0,0.7,Time
,,S41,1,,,anonymized,Serial_Dependence_U,2023.2.3,Win32,60.0240096,,,,,,,,,,,,1310.661,6.0,1310.661,,,,1313.01,1313.513,1312.483,1313.01,1311.664,14.0,1312.483,1313.513,1314.014,1314.014,1315.127,1042.0,1315.128,5.0,1316.129,6.0,17.0,197.0,5.0,1.0,0.8,0.7,Time
,,S41,1,,,anonymized,Serial_Dependence_U,2023.2.3,Win32,60.0240096,,,,,,,,,,,,1316.131,6.0,1316.131,,,,1318.696,1319.177,1318.176,1318.696,1317.159,39.0,1318.175,1319.177,1319.669,1319.669,1320.54,385.0,1320.542,1.0,1321.54,6.0,18.0,198.0,1.0,1.0,1.0,0.3,Time
,,S41,1,,,anonymized,Serial_Dependence_U,2023.2.3,Win32,60.0240096,,,,,,,,,,,,1321.548,6.0,1321.55,,,,1324.718,1325.313,1324.185,1324.718,1322.559,211.0,1324.184,1325.313,1325.723,1325.723,1327.13,1022.0,1327.131,1.0,1328.13,6.0,19.0,199.0,19.0,1.0,1.6,0.7,Time
,,S41,1,,,anonymized,Serial_Dependence_U,2023.2.3,Win32,60.0240096,,,,,,,,,,,,1328.131,6.0,1328.132,,,,1331.11,1331.615,1330.578,1331.109,1329.147,148.0,1330.578,1331.615,1332.106,1332.106,1333.615,1270.0,1333.616,2.0,1334.617,6.0,20.0,200.0,23.0,1.0,1.4,0.3,Time
,,S41,1,,,anonymized,Serial_Dependence_U,2023.2.3,Win32,60.0240096,,,,,,,,,,,,1334.62,6.0,1334.621,,,,1337.356,1337.849,1336.843,1337.355,1335.624,0.0,1336.843,1337.849,1338.347,1338.347,1339.939,1529.0,1339.939,4.0,1340.928,6.0,21.0,201.0,12.0,1.0,1.2,0.3,Time
,,S41,1,,,anonymized,Serial_Dependence_U,2023.2.3,Win32,60.0240096,,,,,,,,,,,,1340.932,6.0,1340.933,,,,1344.069,1344.566,1343.539,1344.069,1341.935,167.0,1343.539,1344.566,1345.068,1345.068,1347.345,1872.0,1347.346,4.0,1348.346,6.0,22.0,202.0,4.0,1.0,1.6,0.3,Time
,,S41,1,,,anonymized,Serial_Dependence_U,2023.2.3,Win32,60.0240096,,,,,,,,,,,,1348.347,6.0,1348.348,,,,1350.715,1351.211,1350.199,1350.715,1349.379,353.0,1350.199,1351.211,1351.711,1351.711,1354.823,943.0,1354.824,4.0,1355.834,6.0,23.0,203.0,10.0,1.0,0.8,0.3,Time
,,S41,1,,,anonymized,Serial_Dependence_U,2023.2.3,Win32,60.0240096,,,,,,,,,,,,1355.84,6.0,1355.841,,,,1358.229,1358.721,1357.705,1358.229,1356.885,23.0,1357.705,1358.721,1359.217,1359.217,1360.499,907.0,1360.499,4.0,1361.488,6.0,24.0,204.0,25.0,1.0,0.8,0.7,Time
,,S41,1,,,anonymized,Serial_Dependence_U,2023.2.3,Win32,60.0240096,,,,,,,,,,,,1361.49,6.0,1361.497,,,,1364.649,1365.145,1364.131,1364.649,1362.498,18.0,1364.131,1365.145,1365.649,1365.65,1367.299,1152.0,1367.299,2.0,1368.298,6.0,25.0,205.0,14.0,1.0,1.6,0.3,Time
,,S41,1,,,anonymized,Serial_Dependence_U,2023.2.3,Win32,60.0240096,,,,,,,,,,,,1368.299,6.0,1368.3,,,,1370.657,1371.152,1370.142,1370.656,1369.316,217.0,1370.141,1371.152,1371.656,1371.656,1371.759,57.0,1371.759,1.0,1372.755,6.0,26.0,206.0,0.0,1.0,0.8,0.3,Time
,,S41,1,,,anonymized,Serial_Dependence_U,2023.2.3,Win32,60.0240096,,,,,,,,,,,,1372.756,6.0,1372.757,,,,1375.109,1375.605,1374.59,1375.109,1373.788,340.0,1374.59,1375.605,1376.103,1376.103,1376.206,48.0,1376.207,1.0,1377.216,6.0,27.0,207.0,20.0,1.0,0.8,0.3,Time
,,S41,1,,,anonymized,Serial_Dependence_U,2023.2.3,Win32,60.0240096,,,,,,,,,,,,1377.216,6.0,1377.217,,,,1380.167,1380.666,1379.636,1380.167,1378.23,83.0,1379.636,1380.666,1381.165,1381.166,1383.095,1731.0,1383.095,4.0,1384.096,6.0,28.0,208.0,8.0,1.0,1.4,0.7,Time
,,S41,1,,,anonymized,Serial_Dependence_U,2023.2.3,Win32,60.0240096,,,,,,,,,,,,1384.097,6.0,1384.098,,,,1387.076,1387.577,1386.545,1387.075,1385.129,62.0,1386.545,1387.577,1388.097,1388.097,1389.627,1013.0,1389.628,2.0,1390.622,6.0,29.0,209.0,28.0,1.0,1.4,0.7,Time
,,S41,1,,,anonymized,Serial_Dependence_U,2023.2.3,Win32,60.0240096,,,,,,,,,,,,1390.627,7.0,1487.463,s,96.78,,1490.643,1491.144,1490.11,1490.643,1488.48,186.0,1490.11,1491.144,1491.644,1491.644,1493.013,1070.0,1493.013,1.0,1494.019,7.0,0.0,210.0,14.0,1.0,1.6,0.3,Time
,,S41,1,,,anonymized,Serial_Dependence_U,2023.2.3,Win32,60.0240096,,,,,,,,,,,,1494.025,7.0,1494.04,,,,1496.785,1497.275,1496.26,1496.785,1495.055,95.0,1496.26,1497.275,1497.772,1497.772,1498.92,891.0,1498.92,2.0,1499.92,7.0,1.0,211.0,2.0,1.0,1.2,0.3,Time
,,S41,1,,,anonymized,Serial_Dependence_U,2023.2.3,Win32,60.0240096,,,,,,,,,,,,1499.921,7.0,1499.922,,,,1502.265,1502.775,1501.75,1502.265,1500.934,182.0,1501.749,1502.775,1503.25,1503.25,1505.029,1671.0,1505.03,5.0,1505.978,7.0,2.0,212.0,10.0,1.0,0.8,0.3,Time
,,S41,1,,,anonymized,Serial_Dependence_U,2023.2.3,Win32,60.0240096,,,,,,,,,,,,1505.979,7.0,1506.01,,,,1508.41,1508.914,1507.881,1508.409,1507.048,342.0,1507.88,1508.914,1509.408,1509.408,1511.674,2208.0,1511.674,5.0,1512.665,7.0,3.0,213.0,20.0,1.0,0.8,0.3,Time
,,S41,1,,,anonymized,Serial_Dependence_U,2023.2.3,Win32,60.0240096,,,,,,,,,,,,1512.67,7.0,1512.671,,,,1515.653,1516.141,1515.135,1515.653,1513.707,108.0,1515.134,1516.141,1516.636,1516.639,1519.032,2321.0,1519.033,5.0,1520.034,7.0,4.0,214.0,13.0,1.0,1.4,0.3,Time
,,S41,1,,,anonymized,Serial_Dependence_U,2023.2.3,Win32,60.0240096,,,,,,,,,,,,1520.039,7.0,1520.041,,,,1522.596,1523.093,1522.08,1522.596,1521.054,344.0,1522.08,1523.093,1523.581,1523.581,1525.464,1353.0,1525.464,5.0,1526.46,7.0,5.0,215.0,16.0,1.0,1.0,0.7,Time
,,S41,1,,,anonymized,Serial_Dependence_U,2023.2.3,Win32,60.0240096,,,,,,,,,,,,1526.461,7.0,1526.461,,,,1529.642,1530.122,1529.13,1529.642,1527.493,86.0,1529.13,1530.122,1530.624,1530.624,1532.122,1259.0,1532.122,2.0,1533.121,7.0,6.0,216.0,4.0,1.0,1.6,0.3,Time
,,S41,1,,,anonymized,Serial_Dependence_U,2023.2.3,Win32,60.0240096,,,,,,,,,,,,1533.122,7.0,1533.122,,,,1536.102,1536.6,1535.555,1536.102,1534.14,149.0,1535.555,1536.6,1537.083,1537.083,1538.897,1739.0,1538.897,4.0,1539.835,7.0,7.0,217.0,3.0,1.0,1.4,0.3,Time
,,S41,1,,,anonymized,Serial_Dependence_U,2023.2.3,Win32,60.0240096,,,,,,,,,,,,1539.845,7.0,1539.846,,,,1542.196,1542.696,1541.683,1542.195,1540.864,150.0,1541.682,1542.696,1543.187,1543.19,1543.813,568.0,1543.814,2.0,1544.814,7.0,8.0,218.0,25.0,1.0,0.8,0.7,Time
,,S41,1,,,anonymized,Serial_Dependence_U,2023.2.3,Win32,60.0240096,,,,,,,,,,,,1544.817,7.0,1544.822,,,,1547.374,1547.874,1546.841,1547.374,1545.825,353.0,1546.841,1547.874,1548.352,1548.353,1549.474,1064.0,1549.475,4.0,1550.477,7.0,9.0,219.0,1.0,1.0,1.0,0.3,Time
,,S41,1,,,anonymized,Serial_Dependence_U,2023.2.3,Win32,60.0240096,,,,,,,,,,,,1550.488,7.0,1550.491,,,,1553.651,1554.155,1553.135,1553.651,1551.505,287.0,1553.135,1554.155,1554.645,1554.645,1556.869,2035.0,1556.872,4.0,1557.873,7.0,10.0,220.0,29.0,1.0,1.6,0.7,Time
,,S41,1,,,anonymized,Serial_Dependence_U,2023.2.3,Win32,60.0240096,,,,,,,,,,,,1557.876,7.0,1557.877,,,,1560.86,1561.364,1560.328,1560.857,1558.877,344.0,1560.328,1561.364,1561.856,1561.856,1562.711,796.0,1562.711,1.0,1563.757,7.0,11.0,221.0,8.0,1.0,1.4,0.7,Time
,,S41,1,,,anonymized,Serial_Dependence_U,2023.2.3,Win32,60.0240096,,,,,,,,,,,,1563.758,7.0,1563.758,,,,1566.091,1566.589,1565.576,1566.091,1564.773,171.0,1565.575,1566.589,1567.093,1567.093,1568.807,1647.0,1568.808,5.0,1569.804,7.0,12.0,222.0,15.0,1.0,0.8,0.7,Time
,,S41,1,,,anonymized,Serial_Dependence_U,2023.2.3,Win32,60.0240096,,,,,,,,,,,,1569.804,7.0,1569.805,,,,1573.018,1573.519,1572.497,1573.018,1570.868,237.0,1572.497,1573.52,1574.018,1574.018,1574.214,122.0,1574.216,1.0,1575.204,7.0,13.0,223.0,9.0,1.0,1.6,0.7,Time
,,S41,1,,,anonymized,Serial_Dependence_U,2023.2.3,Win32,60.0240096,,,,,,,,,,,,1575.208,7.0,1575.208,,,,1577.965,1578.464,1577.446,1577.965,1576.215,97.0,1577.446,1578.464,1579.015,1579.015,1581.957,1187.0,1581.958,3.0,1582.953,7.0,14.0,224.0,17.0,1.0,1.2,0.7,Time
,,S41,1,,,anonymized,Serial_Dependence_U,2023.2.3,Win32,60.0240096,,,,,,,,,,,,1582.954,7.0,1582.955,,,,1585.739,1586.238,1585.21,1585.739,1583.982,230.0,1585.207,1586.238,1586.739,1586.739,1587.773,764.0,1587.773,1.0,1588.769,7.0,15.0,225.0,12.0,1.0,1.2,0.3,Time
,,S41,1,,,anonymized,Serial_Dependence_U,2023.2.3,Win32,60.0240096,,,,,,,,,,,,1588.774,7.0,1588.78,,,,1591.333,1591.832,1590.816,1591.332,1589.783,109.0,1590.816,1591.833,1592.332,1592.332,1593.496,1013.0,1593.497,3.0,1594.519,7.0,16.0,226.0,21.0,1.0,1.0,0.3,Time
,,S41,1,,,anonymized,Serial_Dependence_U,2023.2.3,Win32,60.0240096,,,,,,,,,,,,1594.522,7.0,1594.523,,,,1596.912,1597.409,1596.367,1596.912,1595.526,226.0,1596.367,1597.41,1597.98,1597.98,1599.293,1117.0,1599.293,5.0,1600.293,7.0,17.0,227.0,0.0,1.0,0.8,0.3,Time
,,S41,1,,,anonymized,Serial_Dependence_U,2023.2.3,Win32,60.0240096,,,,,,,,,,,,1600.294,7.0,1600.296,,,,1603.056,1603.552,1602.542,1603.056,1601.307,283.0,1602.542,1603.552,1604.055,1604.055,1605.469,1144.0,1605.471,3.0,1606.473,7.0,18.0,228.0,7.0,1.0,1.2,0.7,Time
,,S41,1,,,anonymized,Serial_Dependence_U,2023.2.3,Win32,60.0240096,,,,,,,,,,,,1606.474,7.0,1606.474,,,,1609.449,1609.949,1608.932,1609.449,1607.497,302.0,1608.932,1609.949,1610.426,1610.426,1612.245,1595.0,1612.245,4.0,1613.313,7.0,19.0,229.0,23.0,1.0,1.4,0.3,Time
,,S41,1,,,anonymized,Serial_Dependence_U,2023.2.3,Win32,60.0240096,,,,,,,,,,,,1613.315,7.0,1613.315,,,,1616.256,1616.762,1615.726,1616.256,1614.297,260.0,1615.726,1616.763,1617.267,1617.267,1618.957,1434.0,1618.958,3.0,1619.956,7.0,20.0,230.0,18.0,1.0,1.4,0.7,Time
,,S41,1,,,anonymized,Serial_Dependence_U,2023.2.3,Win32,60.0240096,,,,,,,,,,,,1619.96,7.0,1619.961,,,,1622.502,1623.004,1621.984,1622.502,1620.973,233.0,1621.984,1623.004,1623.501,1623.501,1625.255,1288.0,1625.256,4.0,1626.253,7.0,21.0,231.0,11.0,1.0,1.0,0.3,Time
,,S41,1,,,anonymized,Serial_Dependence_U,2023.2.3,Win32,60.0240096,,,,,,,,,,,,1626.254,7.0,1626.254,,,,1629.429,1629.93,1628.895,1629.429,1627.264,80.0,1628.895,1629.93,1630.43,1630.43,1632.113,1515.0,1632.113,2.0,1633.111,7.0,22.0,232.0,19.0,1.0,1.6,0.7,Time
,,S41,1,,,anonymized,Serial_Dependence_U,2023.2.3,Win32,60.0240096,,,,,,,,,,,,1633.111,7.0,1633.112,,,,1636.06,1636.557,1635.544,1636.06,1634.124,355.0,1635.544,1636.557,1637.045,1637.045,1638.894,1683.0,1638.903,4.0,1639.895,7.0,23.0,233.0,28.0,1.0,1.4,0.7,Time
,,S41,1,,,anonymized,Serial_Dependence_U,2023.2.3,Win32,60.0240096,,,,,,,,,,,,1639.898,7.0,1639.899,,,,1642.65,1643.154,1642.134,1642.65,1640.918,80.0,1642.133,1643.154,1643.656,1643.656,1644.983,1048.0,1644.983,2.0,1645.976,7.0,24.0,234.0,27.0,1.0,1.2,0.7,Time
,,S41,1,,,anonymized,Serial_Dependence_U,2023.2.3,Win32,60.0240096,,,,,,,,,,,,1645.977,7.0,1645.977,,,,1648.559,1649.08,1648.029,1648.558,1646.996,19.0,1648.029,1649.08,1649.56,1649.56,1651.264,1395.0,1651.265,5.0,1652.259,7.0,25.0,235.0,26.0,1.0,1.0,0.7,Time
,,S41,1,,,anonymized,Serial_Dependence_U,2023.2.3,Win32,60.0240096,,,,,,,,,,,,1652.264,7.0,1652.269,,,,1654.824,1655.322,1654.305,1654.82,1653.273,101.0,1654.304,1655.322,1655.821,1655.821,1656.938,997.0,1656.938,3.0,1657.938,7.0,26.0,236.0,6.0,1.0,1.0,0.7,Time
,,S41,1,,,anonymized,Serial_Dependence_U,2023.2.3,Win32,60.0240096,,,,,,,,,,,,1657.939,7.0,1657.94,,,,1661.103,1661.601,1660.599,1661.103,1658.978,85.0,1660.598,1661.601,1662.104,1662.104,1663.316,1149.0,1663.317,2.0,1664.311,7.0,27.0,237.0,24.0,1.0,1.6,0.3,Time
,,S41,1,,,anonymized,Serial_Dependence_U,2023.2.3,Win32,60.0240096,,,,,,,,,,,,1664.312,7.0,1664.313,,,,1667.08,1667.58,1666.562,1667.08,1665.326,145.0,1666.562,1667.58,1668.08,1668.08,1670.456,1936.0,1670.457,5.0,1671.468,7.0,28.0,238.0,22.0,1.0,1.2,0.3,Time
,,S41,1,,,anonymized,Serial_Dependence_U,2023.2.3,Win32,60.0240096,,,,,,,,,,,,1671.47,7.0,1671.47,,,,1673.859,1674.352,1673.32,1673.858,1672.489,14.0,1673.319,1674.352,1674.854,1674.854,1676.751,1494.0,1676.751,5.0,1677.749,7.0,29.0,239.0,5.0,1.0,0.8,0.7,Time
,,S41,1,,,anonymized,Serial_Dependence_U,2023.2.3,Win32,60.0240096,,,,,,,,,,,,1677.75,8.0,1716.883,s,39.082,,1719.63,1720.129,1719.111,1719.63,1717.897,239.0,1719.111,1720.129,1720.629,1720.63,1721.592,907.0,1721.592,2.0,1722.593,8.0,0.0,240.0,17.0,1.0,1.2,0.7,Time
,,S41,1,,,anonymized,Serial_Dependence_U,2023.2.3,Win32,60.0240096,,,,,,,,,,,,1722.598,8.0,1722.613,,,,1725.587,1726.089,1725.076,1725.587,1723.63,235.0,1725.073,1726.089,1726.588,1726.588,1727.968,1085.0,1727.969,2.0,1728.975,8.0,1.0,241.0,8.0,1.0,1.4,0.7,Time
,,S41,1,,,anonymized,Serial_Dependence_U,2023.2.3,Win32,60.0240096,,,,,,,,,,,,1728.99,8.0,1728.996,,,,1731.349,1731.85,1730.817,1731.348,1730.0,303.0,1730.817,1731.85,1732.35,1732.35,1733.596,911.0,1733.596,4.0,1734.598,8.0,2.0,242.0,0.0,1.0,0.8,0.3,Time
,,S41,1,,,anonymized,Serial_Dependence_U,2023.2.3,Win32,60.0240096,,,,,,,,,,,,1734.6,8.0,1734.601,,,,1737.529,1738.022,1737.013,1737.529,1735.596,306.0,1737.012,1738.022,1738.511,1738.511,1740.144,1170.0,1740.145,2.0,1741.147,8.0,3.0,243.0,28.0,1.0,1.4,0.7,Time
,,S41,1,,,anonymized,Serial_Dependence_U,2023.2.3,Win32,60.0240096,,,,,,,,,,,,1741.156,8.0,1741.157,,,,1743.54,1744.053,1743.003,1743.54,1742.161,302.0,1743.003,1744.053,1744.554,1744.554,1746.021,1265.0,1746.021,5.0,1747.024,8.0,4.0,244.0,10.0,1.0,0.8,0.3,Time
,,S41,1,,,anonymized,Serial_Dependence_U,2023.2.3,Win32,60.0240096,,,,,,,,,,,,1747.032,8.0,1747.033,,,,1749.602,1750.1,1749.083,1749.602,1748.05,203.0,1749.083,1750.1,1750.599,1750.599,1752.147,1316.0,1752.147,5.0,1753.148,8.0,5.0,245.0,11.0,1.0,1.0,0.3,Time
,,S41,1,,,anonymized,Serial_Dependence_U,2023.2.3,Win32,60.0240096,,,,,,,,,,,,1753.149,8.0,1753.149,,,,1755.876,1756.377,1755.36,1755.874,1754.16,169.0,1755.36,1756.377,1756.889,1756.889,1758.129,982.0,1758.13,2.0,1759.128,8.0,6.0,246.0,27.0,1.0,1.2,0.7,Time
,,S41,1,,,anonymized,Serial_Dependence_U,2023.2.3,Win32,60.0240096,,,,,,,,,,,,1759.129,8.0,1759.129,,,,1761.704,1762.208,1761.173,1761.704,1760.157,10.0,1761.173,1762.208,1762.698,1762.698,1764.103,1093.0,1764.103,4.0,1765.101,8.0,7.0,247.0,6.0,1.0,1.0,0.7,Time
,,S41,1,,,anonymized,Serial_Dependence_U,2023.2.3,Win32,60.0240096,,,,,,,,,,,,1765.111,8.0,1765.111,,,,1768.278,1768.766,1767.748,1768.278,1766.121,294.0,1767.748,1768.766,1769.28,1769.28,1770.647,1296.0,1770.648,2.0,1771.651,8.0,8.0,248.0,4.0,1.0,1.6,0.3,Time
,,S41,1,,,anonymized,Serial_Dependence_U,2023.2.3,Win32,60.0240096,,,,,,,,,,,,1771.652,8.0,1771.658,,,,1774.47,1774.98,1773.913,1774.47,1772.681,333.0,1773.912,1774.98,1775.511,1775.511,1775.624,2.0,1775.624,1.0,1776.634,8.0,9.0,249.0,22.0,1.0,1.2,0.3,Time
,,S41,1,,,anonymized,Serial_Dependence_U,2023.2.3,Win32,60.0240096,,,,,,,,,,,,1776.635,8.0,1776.636,,,,1779.398,1779.876,1778.888,1779.397,1777.669,38.0,1778.888,1779.876,1780.274,1780.275,1781.638,1200.0,1781.639,3.0,1782.632,8.0,10.0,250.0,2.0,1.0,1.2,0.3,Time
,,S41,1,,,anonymized,Serial_Dependence_U,2023.2.3,Win32,60.0240096,,,,,,,,,,,,1782.633,8.0,1782.633,,,,1785.729,1785.752,1784.748,1785.729,1783.738,271.0,1784.748,1785.752,1785.752,1785.752,1791.78,9999.0,1791.781,0.0,1792.585,8.0,11.0,251.0,21.0,1.0,1.0,0.3,Time
,,S41,1,,,anonymized,Serial_Dependence_U,2023.2.3,Win32,60.0240096,,,,,,,,,,,,1792.597,8.0,1792.597,,,,1795.778,1796.293,1795.266,1795.778,1793.636,346.0,1795.266,1796.293,1796.773,1796.773,1798.104,1215.0,1798.105,4.0,1799.22,8.0,12.0,252.0,1.0,1.0,1.0,0.3,Time
,,S41,1,,,anonymized,Serial_Dependence_U,2023.2.3,Win32,60.0240096,,,,,,,,,,,,1799.223,8.0,1799.23,,,,1804.733,1805.035,1803.901,1804.733,1801.993,257.0,1803.901,1805.035,1805.263,1805.263,1806.562,717.0,1806.563,1.0,1807.509,8.0,13.0,253.0,3.0,1.0,1.4,0.3,Time
,,S41,1,,,anonymized,Serial_Dependence_U,2023.2.3,Win32,60.0240096,,,,,,,,,,,,1807.51,8.0,1807.51,,,,1810.324,1810.712,1809.793,1810.323,1808.579,307.0,1809.792,1810.712,1811.162,1811.162,1813.059,1557.0,1813.059,4.0,1814.056,8.0,14.0,254.0,7.0,1.0,1.2,0.7,Time
,,S41,1,,,anonymized,Serial_Dependence_U,2023.2.3,Win32,60.0240096,,,,,,,,,,,,1814.059,8.0,1814.06,,,,1816.42,1816.922,1815.891,1816.419,1815.076,350.0,1815.891,1816.923,1817.424,1817.424,1821.32,1226.0,1821.321,5.0,1822.32,8.0,15.0,255.0,5.0,1.0,0.8,0.7,Time
,,S41,1,,,anonymized,Serial_Dependence_U,2023.2.3,Win32,60.0240096,,,,,,,,,,,,1822.321,8.0,1822.323,,,,1824.679,1825.161,1824.151,1824.679,1823.35,327.0,1824.151,1825.161,1825.645,1825.645,1830.655,1319.0,1830.656,5.0,1831.643,8.0,16.0,256.0,20.0,1.0,0.8,0.3,Time
,,S41,1,,,anonymized,Serial_Dependence_U,2023.2.3,Win32,60.0240096,,,,,,,,,,,,1831.658,8.0,1831.66,,,,1834.806,1835.285,1834.29,1834.806,1832.658,247.0,1834.29,1835.285,1835.786,1835.786,1837.499,1335.0,1837.501,2.0,1838.498,8.0,17.0,257.0,14.0,1.0,1.6,0.3,Time
,,S41,1,,,anonymized,Serial_Dependence_U,2023.2.3,Win32,60.0240096,,,,,,,,,,,,1838.505,8.0,1838.531,,,,1841.564,1842.063,1841.035,1841.564,1839.516,349.0,1841.035,1842.063,1842.573,1842.574,1844.544,1785.0,1844.545,4.0,1845.547,8.0,18.0,258.0,18.0,1.0,1.4,0.7,Time
,,S41,1,,,anonymized,Serial_Dependence_U,2023.2.3,Win32,60.0240096,,,,,,,,,,,,1845.556,8.0,1845.556,,,,1848.143,1848.626,1847.608,1848.142,1846.58,52.0,1847.596,1848.626,1849.12,1849.121,1855.127,9999.0,1855.132,0.0,1856.109,8.0,19.0,259.0,26.0,1.0,1.0,0.7,Time
,,S41,1,,,anonymized,Serial_Dependence_U,2023.2.3,Win32,60.0240096,,,,,,,,,,,,1856.11,8.0,1856.111,,,,1858.419,1858.898,1857.916,1858.417,1857.084,123.0,1857.915,1858.898,1859.405,1859.405,1861.227,1511.0,1861.231,5.0,1862.253,8.0,20.0,260.0,25.0,1.0,0.8,0.7,Time
,,S41,1,,,anonymized,Serial_Dependence_U,2023.2.3,Win32,60.0240096,,,,,,,,,,,,1862.256,8.0,1862.257,,,,1865.622,1866.12,1865.007,1865.622,1863.335,306.0,1865.007,1866.121,1866.567,1866.567,1868.757,1933.0,1868.77,4.0,1870.05,8.0,21.0,261.0,9.0,1.0,1.6,0.7,Time
,,S41,1,,,anonymized,Serial_Dependence_U,2023.2.3,Win32,60.0240096,,,,,,,,,,,,1870.064,8.0,1870.065,,,,1875.515,1875.693,1874.265,1875.515,1870.971,204.0,1874.264,1875.693,1875.808,1875.808,1879.564,2721.0,1879.565,5.0,1880.56,8.0,22.0,262.0,29.0,1.0,1.6,0.7,Time
,,S41,1,,,anonymized,Serial_Dependence_U,2023.2.3,Win32,60.0240096,,,,,,,,,,,,1880.562,8.0,1880.564,,,,1882.922,1883.424,1882.392,1882.922,1881.558,302.0,1882.392,1883.424,1883.915,1883.915,1888.737,1577.0,1888.737,5.0,1889.843,8.0,23.0,263.0,15.0,1.0,0.8,0.7,Time
,,S41,1,,,anonymized,Serial_Dependence_U,2023.2.3,Win32,60.0240096,,,,,,,,,,,,1889.846,8.0,1889.851,,,,1892.452,1892.946,1891.902,1892.452,1890.883,343.0,1891.902,1892.947,1893.441,1893.441,1895.076,1291.0,1895.076,4.0,1896.066,8.0,24.0,264.0,16.0,1.0,1.0,0.7,Time
,,S41,1,,,anonymized,Serial_Dependence_U,2023.2.3,Win32,60.0240096,,,,,,,,,,,,1896.067,8.0,1896.067,,,,1899.262,1899.761,1898.742,1899.262,1897.092,219.0,1898.742,1899.761,1900.252,1900.252,1902.173,1725.0,1902.173,4.0,1903.183,8.0,25.0,265.0,19.0,1.0,1.6,0.7,Time
,,S41,1,,,anonymized,Serial_Dependence_U,2023.2.3,Win32,60.0240096,,,,,,,,,,,,1903.184,8.0,1903.184,,,,1906.347,1906.829,1905.814,1906.346,1904.239,60.0,1905.814,1906.83,1907.327,1907.327,1908.964,1434.0,1908.965,3.0,1909.957,8.0,26.0,266.0,13.0,1.0,1.4,0.3,Time
,,S41,1,,,anonymized,Serial_Dependence_U,2023.2.3,Win32,60.0240096,,,,,,,,,,,,1909.965,8.0,1909.966,,,,1912.696,1913.187,1912.195,1912.696,1910.984,59.0,1912.194,1913.187,1913.731,1913.731,1915.237,960.0,1915.238,2.0,1916.228,8.0,27.0,267.0,12.0,1.0,1.2,0.3,Time
,,S41,1,,,anonymized,Serial_Dependence_U,2023.2.3,Win32,60.0240096,,,,,,,,,,,,1916.229,8.0,1916.23,,,,1919.389,1919.877,1918.859,1919.388,1917.214,55.0,1918.858,1919.877,1920.384,1920.384,1921.725,869.0,1921.726,1.0,1922.719,8.0,28.0,268.0,24.0,1.0,1.6,0.3,Time
,,S41,1,,,anonymized,Serial_Dependence_U,2023.2.3,Win32,60.0240096,,,,,,,,,,,,1922.722,8.0,1922.723,,,,1925.681,1926.182,1925.167,1925.68,1923.749,72.0,1925.167,1926.182,1926.685,1926.685,1928.514,1089.0,1928.515,2.0,1929.559,8.0,29.0,269.0,23.0,1.0,1.4,0.3,Time
