Scale_setup.started,Scale_setup.stopped,participant,session,sex,age,date,expName,psychopyVersion,OS,frameRate,screen_scale_keys.started,screen_scale_keys.stopped,X Scale,Y Scale,rectangel_keys.started,rectangel_keys.stopped,Intro.started,Intro.stopped,key_resp_2.keys,key_resp_2.rt,key_resp_2.duration,block.started,Block_id,block.stopped,Block_resp_2.keys,Block_resp_2.rt,Block_resp_2.duration,ITI.started,ITI.stopped,Mask_2.started,Mask_2.stopped,M2.started,direction,M2.stopped,Cue.started,Cue.stopped,Response.started,Response.stopped,keyDuration,Feedback_Time.started,FeedbackID_T,Feedback_Time.stopped,trials.thisRepN,trials.thisTrialN,trials.thisN,trials.thisIndex,trials.ran,TimeDur,Coherence1,TrialType
0.0007,0.0014,S42,1,Female,34,anonymized,Serial_Dependence_U,2023.2.3,Win32,3.157562362,,,,,,,,,,,,,,,,,,,,,,,,,,,,,,,,,,,,,,,,
,,S42,1,Female,34,anonymized,Serial_Dependence_U,2023.2.3,Win32,3.157562362,0.0089,162.5284,0.0702,0.0695,162.5287,229.423,229.4237,269.4797,space,39.5576,,,,,,,,,,,,,,,,,,,,,,,,,,,,,,
,,S42,1,Female,34,anonymized,Serial_Dependence_U,2023.2.3,Win32,3.157562362,,,,,,,,,,,,269.5034,0.0,274.4459,s,4.6038,0.0006,278.0621,278.6375,277.4508,278.0618,275.6717,195.0,277.4506,278.6379,279.2005,279.2012,281.6577,1.399999976,281.6591,1.0,282.2661,0.0,0.0,0.0,14.0,1.0,1.6,0.3,Time
,,S42,1,Female,34,anonymized,Serial_Dependence_U,2023.2.3,Win32,3.157562362,,,,,,,,,,,,282.2682,0.0,282.2734,,,,285.269,285.8625,284.6494,285.2688,283.4644,192.0,284.6468,285.8626,286.4507,286.4508,287.0481,8.0,287.0485,1.0,287.6504,0.0,1.0,1.0,20.0,1.0,0.8,0.3,Time
,,S42,1,Female,34,anonymized,Serial_Dependence_U,2023.2.3,Win32,3.157562362,,,,,,,,,,,,287.6521,0.0,287.6526,,,,290.7344,291.3476,290.0952,290.7342,288.8285,9.0,290.095,291.3477,291.9407,291.9408,292.5818,1.600000024,292.5822,1.0,293.1449,0.0,2.0,2.0,27.0,1.0,1.2,0.7,Time
,,S42,1,Female,34,anonymized,Serial_Dependence_U,2023.2.3,Win32,3.157562362,,,,,,,,,,,,293.1458,0.0,293.1463,,,,296.188,296.7723,295.5534,296.1875,294.3461,335.0,295.5531,296.7723,297.3695,297.3695,298.5961,626.0,298.5965,1.0,299.1559,0.0,3.0,3.0,1.0,1.0,1.0,0.3,Time
,,S42,1,Female,34,anonymized,Serial_Dependence_U,2023.2.3,Win32,3.157562362,,,,,,,,,,,,299.1567,0.0,299.1573,,,,302.8401,303.4467,302.204,302.8399,300.3479,279.0,302.2038,303.4469,304.0629,304.0631,305.9306,1197.4,305.931,2.0,306.557,0.0,4.0,4.0,9.0,1.0,1.6,0.7,Time
,,S42,1,Female,34,anonymized,Serial_Dependence_U,2023.2.3,Win32,3.157562362,,,,,,,,,,,,306.5587,0.0,306.5598,,,,310.2471,310.8098,309.591,310.2469,307.7719,238.0,309.5908,310.8098,310.812,310.8123,316.7176,0.899999976,316.718,1.0,317.3229,0.0,5.0,5.0,4.0,1.0,1.6,0.3,Time
,,S42,1,Female,34,anonymized,Serial_Dependence_U,2023.2.3,Win32,3.157562362,,,,,,,,,,,,317.3237,0.0,317.3242,,,,320.9728,321.543,320.3297,320.9721,318.488,254.0,320.3293,321.5435,322.12,322.1201,322.7582,7.400000095,322.7587,1.0,323.3391,0.0,6.0,6.0,19.0,1.0,1.6,0.7,Time
,,S42,1,Female,34,anonymized,Serial_Dependence_U,2023.2.3,Win32,3.157562362,,,,,,,,,,,,323.3397,0.0,323.3404,,,,326.3241,326.8968,325.7122,326.3239,324.5244,262.0,325.7117,326.897,327.4886,327.4887,328.7499,605.1,328.7504,2.0,329.329,0.0,7.0,7.0,5.0,1.0,0.8,0.7,Time
,,S42,1,Female,34,anonymized,Serial_Dependence_U,2023.2.3,Win32,3.157562362,,,,,,,,,,,,329.33,0.0,329.3307,,,,332.8504,333.4386,332.2176,332.8503,330.4635,37.0,332.2173,333.4387,334.0456,334.0457,336.5339,1279.6,336.5344,2.0,337.1504,0.0,8.0,8.0,28.0,1.0,1.4,0.7,Time
,,S42,1,Female,34,anonymized,Serial_Dependence_U,2023.2.3,Win32,3.157562362,,,,,,,,,,,,337.1511,0.0,337.1516,,,,340.1786,340.7459,339.5559,340.1785,338.3387,112.0,339.5557,340.746,341.3063,341.3068,343.7112,1210.4,343.7115,4.0,344.3078,0.0,9.0,9.0,6.0,1.0,1.0,0.7,Time
,,S42,1,Female,34,anonymized,Serial_Dependence_U,2023.2.3,Win32,3.157562362,,,,,,,,,,,,344.3087,0.0,344.3092,,,,347.3051,347.9019,346.6872,347.3043,345.4906,167.0,346.6869,347.9022,348.4625,348.4632,354.5461,9999.0,354.5468,0.0,355.1266,0.0,10.0,10.0,25.0,1.0,0.8,0.7,Time
,,S42,1,Female,34,anonymized,Serial_Dependence_U,2023.2.3,Win32,3.157562362,,,,,,,,,,,,355.1274,0.0,355.1278,,,,358.1168,358.7381,357.51,358.1167,356.297,317.0,357.5098,358.7381,359.3575,359.3576,361.1643,1225.2,361.1647,4.0,361.7383,0.0,11.0,11.0,26.0,1.0,1.0,0.7,Time
,,S42,1,Female,34,anonymized,Serial_Dependence_U,2023.2.3,Win32,3.157562362,,,,,,,,,,,,361.7391,0.0,361.7396,,,,365.3065,365.8898,364.72,365.3064,362.9235,164.0,364.7198,365.8898,366.4873,366.4873,372.9709,9999.0,372.9714,0.0,373.5643,0.0,12.0,12.0,8.0,1.0,1.4,0.7,Time
,,S42,1,Female,34,anonymized,Serial_Dependence_U,2023.2.3,Win32,3.157562362,,,,,,,,,,,,373.565,0.0,373.5655,,,,376.5068,377.0607,375.9243,376.5066,374.698,298.0,375.9239,377.0608,377.6589,377.659,378.9456,642.9000001,378.9462,1.0,379.567,0.0,13.0,13.0,17.0,1.0,1.2,0.7,Time
,,S42,1,Female,34,anonymized,Serial_Dependence_U,2023.2.3,Win32,3.157562362,,,,,,,,,,,,379.5677,0.0,379.5682,,,,383.1022,383.7055,382.5071,383.1019,380.709,223.0,382.5067,383.7056,384.3138,384.3138,387.2585,1770.4,387.2589,4.0,387.8784,0.0,14.0,14.0,13.0,1.0,1.4,0.3,Time
,,S42,1,Female,34,anonymized,Serial_Dependence_U,2023.2.3,Win32,3.157562362,,,,,,,,,,,,387.8794,0.0,387.8802,,,,391.449,392.0279,390.8546,391.4489,389.0769,319.0,390.8543,392.028,392.6171,392.6173,396.2332,2412.9,396.2337,5.0,396.8491,0.0,15.0,15.0,12.0,1.0,1.2,0.3,Time
,,S42,1,Female,34,anonymized,Serial_Dependence_U,2023.2.3,Win32,3.157562362,,,,,,,,,,,,396.8501,0.0,396.8508,,,,400.4541,401.096,399.82,400.4539,398.065,87.0,399.8196,401.0961,401.6735,401.6735,406.4501,1170.6,406.4505,2.0,407.0402,0.0,16.0,16.0,3.0,1.0,1.4,0.3,Time
,,S42,1,Female,34,anonymized,Serial_Dependence_U,2023.2.3,Win32,3.157562362,,,,,,,,,,,,407.0416,0.0,407.0424,,,,409.9907,410.5811,409.3918,409.9905,408.2195,46.0,409.3916,410.5811,411.1856,411.1856,416.4949,1743.2,416.4954,5.0,417.079,0.0,17.0,17.0,0.0,1.0,0.8,0.3,Time
,,S42,1,Female,34,anonymized,Serial_Dependence_U,2023.2.3,Win32,3.157562362,,,,,,,,,,,,417.08,0.0,417.0806,,,,420.0686,420.6636,419.4455,420.0685,418.2536,192.0,419.4453,420.6637,421.2394,421.2395,422.4505,616.6999999,422.4509,1.0,423.0288,0.0,18.0,18.0,11.0,1.0,1.0,0.3,Time
,,S42,1,Female,34,anonymized,Serial_Dependence_U,2023.2.3,Win32,3.157562362,,,,,,,,,,,,423.0297,0.0,423.0303,,,,426.0498,426.6263,425.3977,426.0496,424.1943,317.0,425.3976,426.6264,427.2111,427.2113,429.118,1268.1,429.1184,4.0,429.7459,0.0,19.0,19.0,21.0,1.0,1.0,0.3,Time
,,S42,1,Female,34,anonymized,Serial_Dependence_U,2023.2.3,Win32,3.157562362,,,,,,,,,,,,429.7483,0.0,429.7487,,,,433.376,433.957,432.7772,433.3758,430.9617,180.0,432.7768,433.957,434.5211,434.5211,436.3389,1232.5,436.3392,2.0,436.9338,0.0,20.0,20.0,23.0,1.0,1.4,0.3,Time
,,S42,1,Female,34,anonymized,Serial_Dependence_U,2023.2.3,Win32,3.157562362,,,,,,,,,,,,436.9353,0.0,436.9363,,,,440.5894,441.1948,439.9531,440.5892,438.1268,6.0,439.9529,441.1952,441.7649,441.7654,443.031,617.5,443.0314,1.0,443.6302,0.0,21.0,21.0,24.0,1.0,1.6,0.3,Time
,,S42,1,Female,34,anonymized,Serial_Dependence_U,2023.2.3,Win32,3.157562362,,,,,,,,,,,,443.6311,0.0,443.6316,,,,447.2042,447.9072,446.612,447.2033,444.8067,274.0,446.6118,447.9072,448.4955,448.4956,454.3607,1807.2,454.3611,5.0,454.9474,0.0,22.0,22.0,7.0,1.0,1.2,0.7,Time
,,S42,1,Female,34,anonymized,Serial_Dependence_U,2023.2.3,Win32,3.157562362,,,,,,,,,,,,454.9481,0.0,454.9484,,,,458.5339,459.158,457.932,458.533,456.086,270.0,457.9318,459.1581,459.7349,459.7351,462.8015,1855.4,462.8018,5.0,463.3679,0.0,23.0,23.0,2.0,1.0,1.2,0.3,Time
,,S42,1,Female,34,anonymized,Serial_Dependence_U,2023.2.3,Win32,3.157562362,,,,,,,,,,,,463.3687,0.0,463.3691,,,,467.0023,467.6036,466.4067,467.0022,464.5474,219.0,466.4065,467.6036,468.172,468.1721,472.4644,3067.8,472.4649,5.0,473.0361,0.0,24.0,24.0,29.0,1.0,1.6,0.7,Time
,,S42,1,Female,34,anonymized,Serial_Dependence_U,2023.2.3,Win32,3.157562362,,,,,,,,,,,,473.0373,0.0,473.0379,,,,476.0346,476.6134,475.4181,476.0336,474.2041,97.0,475.4178,476.6137,477.212,477.2123,480.2762,1845.7,480.2767,5.0,480.8755,0.0,25.0,25.0,10.0,1.0,0.8,0.3,Time
,,S42,1,Female,34,anonymized,Serial_Dependence_U,2023.2.3,Win32,3.157562362,,,,,,,,,,,,480.8764,0.0,480.8769,,,,483.8631,484.436,483.2697,483.8629,482.0215,358.0,483.2695,484.4361,485.0057,485.0058,491.0407,1191.2,491.0411,5.0,491.6357,0.0,26.0,26.0,15.0,1.0,0.8,0.7,Time
,,S42,1,Female,34,anonymized,Serial_Dependence_U,2023.2.3,Win32,3.157562362,,,,,,,,,,,,491.6363,0.0,491.6369,,,,495.2166,495.8144,494.6158,495.2164,492.7862,257.0,494.6156,495.8144,496.4182,496.4183,497.6625,622.2,497.6628,1.0,498.2817,0.0,27.0,27.0,22.0,1.0,1.2,0.3,Time
,,S42,1,Female,34,anonymized,Serial_Dependence_U,2023.2.3,Win32,3.157562362,,,,,,,,,,,,498.2827,0.0,498.2832,,,,501.9581,502.5419,501.3179,501.9578,499.4801,103.0,501.3173,502.5419,503.1134,503.1134,508.4315,1215.1,508.432,2.0,509.0502,0.0,28.0,28.0,18.0,1.0,1.4,0.7,Time
,,S42,1,Female,34,anonymized,Serial_Dependence_U,2023.2.3,Win32,3.157562362,,,,,,,,,,,,509.051,0.0,509.0513,,,,512.0247,512.6591,511.4218,512.0243,510.2313,28.0,511.4216,512.6594,513.221,513.2213,516.7472,1152.3,516.7477,4.0,517.3372,0.0,29.0,29.0,16.0,1.0,1.0,0.7,Time
,,S42,1,Female,34,anonymized,Serial_Dependence_U,2023.2.3,Win32,3.157562362,,,,,,,,,,,,517.3401,1.0,578.2407,s,60.5421,,581.7978,582.3842,581.212,581.7975,579.415,178.0,581.2118,582.3843,582.9445,582.9446,584.1494,594.0,584.1498,1.0,584.7805,1.0,0.0,30.0,27.0,1.0,1.2,0.7,Time
,,S42,1,Female,34,anonymized,Serial_Dependence_U,2023.2.3,Win32,3.157562362,,,,,,,,,,,,584.7823,1.0,584.7865,,,,587.8362,588.3991,587.2323,587.836,585.9776,335.0,587.2321,588.3993,589.0154,589.0155,592.5869,1.400000095,592.5875,1.0,593.1865,1.0,1.0,31.0,20.0,1.0,0.8,0.3,Time
,,S42,1,Female,34,anonymized,Serial_Dependence_U,2023.2.3,Win32,3.157562362,,,,,,,,,,,,593.1872,1.0,593.1875,,,,596.8302,597.3884,596.2233,596.8301,594.4016,138.0,596.2231,597.3885,597.9695,597.9696,601.0148,1179.6,601.0152,2.0,601.6263,1.0,2.0,32.0,23.0,1.0,1.4,0.3,Time
,,S42,1,Female,34,anonymized,Serial_Dependence_U,2023.2.3,Win32,3.157562362,,,,,,,,,,,,601.6289,1.0,601.6295,,,,604.5805,605.1409,603.9921,604.5803,602.7932,31.0,603.9919,605.141,605.7188,605.7188,608.1494,1201.1,608.1499,4.0,608.7448,1.0,3.0,33.0,11.0,1.0,1.0,0.3,Time
,,S42,1,Female,34,anonymized,Serial_Dependence_U,2023.2.3,Win32,3.157562362,,,,,,,,,,,,608.7456,1.0,608.7461,,,,611.8204,612.4299,611.1785,611.8194,609.9,309.0,611.1784,612.4302,612.9984,612.9988,616.0859,1234.9,616.0863,5.0,616.6964,1.0,4.0,34.0,25.0,1.0,0.8,0.7,Time
,,S42,1,Female,34,anonymized,Serial_Dependence_U,2023.2.3,Win32,3.157562362,,,,,,,,,,,,616.6976,1.0,616.6984,,,,620.2584,620.8279,619.6504,620.2583,617.8564,161.0,619.6501,620.8279,621.4203,621.4204,622.0404,5.0,622.0408,1.0,622.6721,1.0,5.0,35.0,18.0,1.0,1.4,0.7,Time
,,S42,1,Female,34,anonymized,Serial_Dependence_U,2023.2.3,Win32,3.157562362,,,,,,,,,,,,622.673,1.0,622.6738,,,,626.3512,626.8953,625.7492,626.3511,623.8995,284.0,625.749,626.8954,627.4701,627.4704,631.0644,1217.7,631.0648,2.0,631.6503,1.0,6.0,36.0,4.0,1.0,1.6,0.3,Time
,,S42,1,Female,34,anonymized,Serial_Dependence_U,2023.2.3,Win32,3.157562362,,,,,,,,,,,,631.6511,1.0,631.6515,,,,635.1917,635.776,634.5915,635.1916,632.8194,16.0,634.5914,635.776,636.3556,636.3557,637.5595,617.2,637.5598,1.0,638.1654,1.0,7.0,37.0,3.0,1.0,1.4,0.3,Time
,,S42,1,Female,34,anonymized,Serial_Dependence_U,2023.2.3,Win32,3.157562362,,,,,,,,,,,,638.1662,1.0,638.1665,,,,641.1616,641.7384,640.5444,641.1611,639.3216,131.0,640.544,641.7385,642.3299,642.33,642.9373,10.0,642.9376,1.0,643.5364,1.0,8.0,38.0,7.0,1.0,1.2,0.7,Time
,,S42,1,Female,34,anonymized,Serial_Dependence_U,2023.2.3,Win32,3.157562362,,,,,,,,,,,,643.5371,1.0,643.5375,,,,647.0374,647.6479,646.4415,647.0371,644.6857,244.0,646.4413,647.648,648.235,648.235,648.8444,6.700000048,648.8449,1.0,649.4252,1.0,9.0,39.0,24.0,1.0,1.6,0.3,Time
,,S42,1,Female,34,anonymized,Serial_Dependence_U,2023.2.3,Win32,3.157562362,,,,,,,,,,,,649.426,1.0,649.4263,,,,652.3871,652.9866,651.7793,652.3869,650.5928,155.0,651.7788,652.9867,653.55,653.55,655.3493,618.8000001,655.3498,1.0,655.9162,1.0,10.0,40.0,26.0,1.0,1.0,0.7,Time
,,S42,1,Female,34,anonymized,Serial_Dependence_U,2023.2.3,Win32,3.157562362,,,,,,,,,,,,655.9169,1.0,655.9173,,,,658.9082,659.5286,658.295,658.9081,657.1025,46.0,658.2947,659.5287,660.1199,660.1199,661.9124,597.5,661.9128,1.0,662.5023,1.0,11.0,41.0,21.0,1.0,1.0,0.3,Time
,,S42,1,Female,34,anonymized,Serial_Dependence_U,2023.2.3,Win32,3.157562362,,,,,,,,,,,,662.5032,1.0,662.5038,,,,666.0904,666.6964,665.4706,666.0903,663.7225,86.0,665.4704,666.6964,667.2792,667.2792,668.5728,669.5,668.5731,1.0,669.182,1.0,12.0,42.0,8.0,1.0,1.4,0.7,Time
,,S42,1,Female,34,anonymized,Serial_Dependence_U,2023.2.3,Win32,3.157562362,,,,,,,,,,,,669.1827,1.0,669.1831,,,,672.2503,672.8313,671.6424,672.2502,669.8072,69.0,671.6422,672.8313,673.421,673.4211,674.0622,6.700000048,674.0625,1.0,674.6763,1.0,13.0,43.0,13.0,1.0,1.4,0.3,Time
,,S42,1,Female,34,anonymized,Serial_Dependence_U,2023.2.3,Win32,3.157562362,,,,,,,,,,,,674.6772,1.0,674.6776,,,,678.2324,678.8283,677.6394,678.2323,675.8448,36.0,677.6392,678.8284,679.4023,679.4024,680.6011,595.0,680.6014,1.0,681.1535,1.0,14.0,44.0,19.0,1.0,1.6,0.7,Time
,,S42,1,Female,34,anonymized,Serial_Dependence_U,2023.2.3,Win32,3.157562362,,,,,,,,,,,,681.1545,1.0,681.155,,,,684.6314,685.2022,684.0323,684.6313,682.2782,281.0,684.0321,685.2022,685.7997,685.7998,687.0365,616.4000001,687.0369,1.0,687.6245,1.0,15.0,45.0,9.0,1.0,1.6,0.7,Time
,,S42,1,Female,34,anonymized,Serial_Dependence_U,2023.2.3,Win32,3.157562362,,,,,,,,,,,,687.6254,1.0,687.6258,,,,690.6862,691.2457,690.07,690.6861,688.8212,248.0,690.0698,691.2457,691.8171,691.8172,693.0088,610.5,693.0092,1.0,693.6164,1.0,16.0,46.0,17.0,1.0,1.2,0.7,Time
,,S42,1,Female,34,anonymized,Serial_Dependence_U,2023.2.3,Win32,3.157562362,,,,,,,,,,,,693.6173,1.0,693.6177,,,,697.1498,697.7576,696.563,697.1497,694.7813,238.0,696.5628,697.7577,698.343,698.343,699.6002,627.7,699.6006,1.0,700.1679,1.0,17.0,47.0,29.0,1.0,1.6,0.7,Time
,,S42,1,Female,34,anonymized,Serial_Dependence_U,2023.2.3,Win32,3.157562362,,,,,,,,,,,,700.1688,1.0,700.1694,,,,703.1669,703.7725,702.5783,703.1667,701.3172,85.0,702.5782,703.7725,704.4023,704.4024,705.6202,614.5,705.6208,1.0,706.2297,1.0,18.0,48.0,1.0,1.0,1.0,0.3,Time
,,S42,1,Female,34,anonymized,Serial_Dependence_U,2023.2.3,Win32,3.157562362,,,,,,,,,,,,706.2306,1.0,706.2311,,,,709.2764,709.8611,708.6698,709.2757,707.4419,84.0,708.6696,709.8612,710.446,710.4461,711.0332,2.600000024,711.0337,1.0,711.6375,1.0,19.0,49.0,12.0,1.0,1.2,0.3,Time
,,S42,1,Female,34,anonymized,Serial_Dependence_U,2023.2.3,Win32,3.157562362,,,,,,,,,,,,711.6382,1.0,711.6387,,,,715.2688,715.8747,714.6722,715.2685,712.8226,176.0,714.6721,715.8747,716.4574,716.4574,717.6787,587.6999999,717.6791,1.0,718.8135,1.0,20.0,50.0,28.0,1.0,1.4,0.7,Time
,,S42,1,Female,34,anonymized,Serial_Dependence_U,2023.2.3,Win32,3.157562362,,,,,,,,,,,,718.8146,1.0,718.815,,,,721.8084,722.4078,721.1937,721.8082,719.9731,279.0,721.1935,722.408,723.0009,723.0011,723.6031,3.5,723.6035,1.0,724.1815,1.0,21.0,51.0,10.0,1.0,0.8,0.3,Time
,,S42,1,Female,34,anonymized,Serial_Dependence_U,2023.2.3,Win32,3.157562362,,,,,,,,,,,,724.1823,1.0,724.1826,,,,727.1646,727.7437,726.546,727.1644,725.367,350.0,726.5452,727.7437,728.3101,728.3101,728.902,8.899999976,728.9024,1.0,729.4659,1.0,22.0,52.0,16.0,1.0,1.0,0.7,Time
,,S42,1,Female,34,anonymized,Serial_Dependence_U,2023.2.3,Win32,3.157562362,,,,,,,,,,,,729.4668,1.0,729.4673,,,,733.0549,733.6356,732.4249,733.0548,730.6453,22.0,732.4247,733.6357,734.2442,734.2442,734.8455,6.700000048,734.8462,1.0,735.42,1.0,23.0,53.0,2.0,1.0,1.2,0.3,Time
,,S42,1,Female,34,anonymized,Serial_Dependence_U,2023.2.3,Win32,3.157562362,,,,,,,,,,,,735.4209,1.0,735.4214,,,,738.3655,738.9348,737.748,738.3654,736.5868,3.0,737.7476,738.9349,739.5244,739.5247,740.1709,0.700000048,740.1713,1.0,740.7383,1.0,24.0,54.0,15.0,1.0,0.8,0.7,Time
,,S42,1,Female,34,anonymized,Serial_Dependence_U,2023.2.3,Win32,3.157562362,,,,,,,,,,,,740.7394,1.0,740.7405,,,,743.6923,744.3031,743.0912,743.692,741.8891,223.0,743.091,744.3032,744.9138,744.9138,745.5439,6.0,745.5442,1.0,746.1113,1.0,25.0,55.0,5.0,1.0,0.8,0.7,Time
,,S42,1,Female,34,anonymized,Serial_Dependence_U,2023.2.3,Win32,3.157562362,,,,,,,,,,,,746.1119,1.0,746.1123,,,,749.659,750.2739,749.0449,749.6588,747.249,286.0,749.0447,750.2739,750.8902,750.8904,756.9032,9999.0,756.9038,0.0,757.6335,1.0,26.0,56.0,14.0,1.0,1.6,0.3,Time
,,S42,1,Female,34,anonymized,Serial_Dependence_U,2023.2.3,Win32,3.157562362,,,,,,,,,,,,757.6343,1.0,757.6348,,,,761.4805,761.4806,760.7232,761.4803,759.2035,331.0,760.7229,761.4806,761.4807,761.4808,765.2434,1247.6,765.2438,5.0,765.889,1.0,27.0,57.0,0.0,1.0,0.8,0.3,Time
,,S42,1,Female,34,anonymized,Serial_Dependence_U,2023.2.3,Win32,3.157562362,,,,,,,,,,,,765.8901,1.0,765.8908,,,,768.978,769.5508,768.3452,768.9778,767.0987,325.0,768.345,769.5509,770.132,770.132,773.2283,620.8,773.2288,1.0,773.8187,1.0,28.0,58.0,22.0,1.0,1.2,0.3,Time
,,S42,1,Female,34,anonymized,Serial_Dependence_U,2023.2.3,Win32,3.157562362,,,,,,,,,,,,773.8198,1.0,773.8204,,,,776.8497,777.4174,776.2216,776.8495,775.0156,71.0,776.2214,777.4175,778.0459,778.0459,779.29,595.0,779.291,1.0,779.8718,1.0,29.0,59.0,6.0,1.0,1.0,0.7,Time
,,S42,1,Female,34,anonymized,Serial_Dependence_U,2023.2.3,Win32,3.157562362,,,,,,,,,,,,779.8725,2.0,785.6673,s,5.4628,0.0006,789.2023,789.7665,788.6088,789.2022,786.8372,331.0,788.6083,789.7665,790.3554,790.3555,791.585,637.1999999,791.5854,1.0,792.171,2.0,0.0,60.0,12.0,1.0,1.2,0.3,Time
,,S42,1,Female,34,anonymized,Serial_Dependence_U,2023.2.3,Win32,3.157562362,,,,,,,,,,,,792.1718,2.0,792.1744,,,,795.7052,796.2722,795.0801,795.705,793.3097,269.0,795.0799,796.2722,796.869,796.8693,798.6714,1197.8,798.6718,2.0,799.2483,2.0,1.0,61.0,24.0,1.0,1.6,0.3,Time
,,S42,1,Female,34,anonymized,Serial_Dependence_U,2023.2.3,Win32,3.157562362,,,,,,,,,,,,799.2491,2.0,799.2495,,,,802.306,802.9049,801.6944,802.3059,800.443,26.0,801.6942,802.905,803.4989,803.499,805.3142,1239.1,805.3146,5.0,805.8885,2.0,2.0,62.0,25.0,1.0,0.8,0.7,Time
,,S42,1,Female,34,anonymized,Serial_Dependence_U,2023.2.3,Win32,3.157562362,,,,,,,,,,,,805.8893,2.0,805.8898,,,,809.5191,810.0923,808.9236,809.5188,807.0604,24.0,808.9234,810.0923,810.7052,810.7053,811.9431,592.5,811.9435,1.0,812.5499,2.0,3.0,63.0,9.0,1.0,1.6,0.7,Time
,,S42,1,Female,34,anonymized,Serial_Dependence_U,2023.2.3,Win32,3.157562362,,,,,,,,,,,,812.5507,2.0,812.5512,,,,815.5512,816.1466,814.965,815.5511,813.7291,248.0,814.9649,816.1466,816.7817,816.7818,817.4153,3.0,817.4156,1.0,817.9756,2.0,4.0,64.0,10.0,1.0,0.8,0.3,Time
,,S42,1,Female,34,anonymized,Serial_Dependence_U,2023.2.3,Win32,3.157562362,,,,,,,,,,,,817.9764,2.0,817.9767,,,,820.9883,821.5925,820.3662,820.9881,819.1553,327.0,820.366,821.5925,822.1783,822.1783,823.3806,598.9000001,823.3809,2.0,823.9872,2.0,5.0,65.0,5.0,1.0,0.8,0.7,Time
,,S42,1,Female,34,anonymized,Serial_Dependence_U,2023.2.3,Win32,3.157562362,,,,,,,,,,,,823.988,2.0,823.9883,,,,826.9874,827.6063,826.3344,826.9872,825.1263,53.0,826.3341,827.6063,828.1604,828.1604,830.0,1241.6,830.0004,4.0,830.608,2.0,6.0,66.0,16.0,1.0,1.0,0.7,Time
,,S42,1,Female,34,anonymized,Serial_Dependence_U,2023.2.3,Win32,3.157562362,,,,,,,,,,,,830.6088,2.0,830.6094,,,,833.5412,834.1043,832.9154,833.541,831.7379,265.0,832.915,834.1043,834.6606,834.6607,837.0868,609.9000001,837.0873,2.0,837.7054,2.0,7.0,67.0,15.0,1.0,0.8,0.7,Time
,,S42,1,Female,34,anonymized,Serial_Dependence_U,2023.2.3,Win32,3.157562362,,,,,,,,,,,,837.7061,2.0,837.7066,,,,840.7017,841.3157,840.0824,840.7015,838.8587,318.0,840.0824,841.3157,841.8671,841.8671,842.5311,4.700000048,842.5316,1.0,843.1461,2.0,8.0,68.0,22.0,1.0,1.2,0.3,Time
,,S42,1,Female,34,anonymized,Serial_Dependence_U,2023.2.3,Win32,3.157562362,,,,,,,,,,,,843.1469,2.0,843.1474,,,,846.6778,847.265,846.0887,846.6775,844.2841,289.0,846.0886,847.265,847.859,847.8592,849.0873,596.6999999,849.0877,1.0,849.6717,2.0,9.0,69.0,14.0,1.0,1.6,0.3,Time
,,S42,1,Female,34,anonymized,Serial_Dependence_U,2023.2.3,Win32,3.157562362,,,,,,,,,,,,849.6726,2.0,849.6731,,,,852.6589,853.2442,852.0511,852.6587,850.8441,266.0,852.0509,853.2442,853.8168,853.8169,854.4049,0.800000072,854.4052,1.0,854.9844,2.0,10.0,70.0,27.0,1.0,1.2,0.7,Time
,,S42,1,Female,34,anonymized,Serial_Dependence_U,2023.2.3,Win32,3.157562362,,,,,,,,,,,,854.9852,2.0,854.9855,,,,857.915,858.5005,857.3247,857.9148,856.1165,292.0,857.3243,858.5006,859.0745,859.0745,859.7067,8.300000072,859.707,1.0,860.3034,2.0,11.0,71.0,11.0,1.0,1.0,0.3,Time
,,S42,1,Female,34,anonymized,Serial_Dependence_U,2023.2.3,Win32,3.157562362,,,,,,,,,,,,860.3042,2.0,860.3047,,,,863.915,864.4938,863.2847,863.9149,861.4662,307.0,863.2845,864.4938,865.0562,865.0563,866.2687,601.3000001,866.269,1.0,866.8367,2.0,12.0,72.0,4.0,1.0,1.6,0.3,Time
,,S42,1,Female,34,anonymized,Serial_Dependence_U,2023.2.3,Win32,3.157562362,,,,,,,,,,,,866.8375,2.0,866.8379,,,,869.7585,870.362,869.1734,869.7583,867.975,163.0,869.1732,870.362,870.9718,870.9719,872.1688,583.8000001,872.1693,1.0,872.7587,2.0,13.0,73.0,21.0,1.0,1.0,0.3,Time
,,S42,1,Female,34,anonymized,Serial_Dependence_U,2023.2.3,Win32,3.157562362,,,,,,,,,,,,872.7594,2.0,872.76,,,,875.7771,876.351,875.1732,875.777,873.9801,358.0,875.173,876.351,876.9373,876.9374,882.7962,1187.5,882.7965,4.0,883.4074,2.0,14.0,74.0,1.0,1.0,1.0,0.3,Time
,,S42,1,Female,34,anonymized,Serial_Dependence_U,2023.2.3,Win32,3.157562362,,,,,,,,,,,,883.4082,2.0,883.4085,,,,886.4479,887.0139,885.8239,886.4478,884.5672,23.0,885.8237,887.014,887.618,887.6181,889.486,1237.1,889.4866,4.0,890.0923,2.0,15.0,75.0,26.0,1.0,1.0,0.7,Time
,,S42,1,Female,34,anonymized,Serial_Dependence_U,2023.2.3,Win32,3.157562362,,,,,,,,,,,,890.0932,2.0,890.0938,,,,893.7404,894.3507,893.1197,893.7402,891.277,192.0,893.1196,894.3507,894.938,894.9382,895.5691,12.29999995,895.5697,1.0,896.1882,2.0,16.0,76.0,3.0,1.0,1.4,0.3,Time
,,S42,1,Female,34,anonymized,Serial_Dependence_U,2023.2.3,Win32,3.157562362,,,,,,,,,,,,896.189,2.0,896.1895,,,,899.254,899.8603,898.611,899.2537,897.3657,90.0,898.6106,899.8604,900.4195,900.4195,902.2528,1192.9,902.2532,5.0,902.8625,2.0,17.0,77.0,0.0,1.0,0.8,0.3,Time
,,S42,1,Female,34,anonymized,Serial_Dependence_U,2023.2.3,Win32,3.157562362,,,,,,,,,,,,902.8633,2.0,902.8638,,,,905.8822,906.4638,905.2908,905.882,904.0583,54.0,905.2906,906.4639,907.0347,907.0348,908.2414,613.2,908.2418,1.0,908.8275,2.0,18.0,78.0,17.0,1.0,1.2,0.7,Time
,,S42,1,Female,34,anonymized,Serial_Dependence_U,2023.2.3,Win32,3.157562362,,,,,,,,,,,,908.8283,2.0,908.8288,,,,912.4069,912.9807,911.8098,912.4066,909.9645,55.0,911.8096,912.9809,913.5971,913.5971,914.2288,6.799999952,914.2291,1.0,914.8359,2.0,19.0,79.0,13.0,1.0,1.4,0.3,Time
,,S42,1,Female,34,anonymized,Serial_Dependence_U,2023.2.3,Win32,3.157562362,,,,,,,,,,,,914.8368,2.0,914.8376,,,,918.4151,918.9836,917.82,918.4148,916.0215,341.0,917.8196,918.9837,919.585,919.5851,920.7989,614.8000001,920.7994,1.0,921.3706,2.0,20.0,80.0,18.0,1.0,1.4,0.7,Time
,,S42,1,Female,34,anonymized,Serial_Dependence_U,2023.2.3,Win32,3.157562362,,,,,,,,,,,,921.3711,2.0,921.3715,,,,925.0145,925.5893,924.3952,925.0144,922.5945,33.0,924.3951,925.5894,926.196,926.1965,931.5881,1216.7,931.5886,2.0,932.1626,2.0,21.0,81.0,29.0,1.0,1.6,0.7,Time
,,S42,1,Female,34,anonymized,Serial_Dependence_U,2023.2.3,Win32,3.157562362,,,,,,,,,,,,932.1649,2.0,932.1663,,,,935.766,936.3411,935.1462,935.7657,933.336,92.0,935.1459,936.3411,936.9051,936.9052,937.5023,4.800000072,937.5028,1.0,938.1215,2.0,22.0,82.0,28.0,1.0,1.4,0.7,Time
,,S42,1,Female,34,anonymized,Serial_Dependence_U,2023.2.3,Win32,3.157562362,,,,,,,,,,,,938.1227,2.0,938.1238,,,,941.1301,941.6995,940.5329,941.1297,939.3078,355.0,940.5324,941.6995,942.2952,942.2953,944.7226,1223.7,944.7231,3.0,945.2968,2.0,23.0,83.0,7.0,1.0,1.2,0.7,Time
,,S42,1,Female,34,anonymized,Serial_Dependence_U,2023.2.3,Win32,3.157562362,,,,,,,,,,,,945.2975,2.0,945.2979,,,,948.2619,948.8526,947.6587,948.2617,946.4683,56.0,947.6585,948.8526,949.44,949.4401,951.3186,639.4,951.3189,1.0,951.9136,2.0,24.0,84.0,6.0,1.0,1.0,0.7,Time
,,S42,1,Female,34,anonymized,Serial_Dependence_U,2023.2.3,Win32,3.157562362,,,,,,,,,,,,951.9144,2.0,951.9149,,,,955.5543,956.1264,954.9468,955.5541,953.0744,84.0,954.9465,956.1265,956.714,956.7141,959.7418,1219.6,959.7433,2.0,960.3705,2.0,25.0,85.0,23.0,1.0,1.4,0.3,Time
,,S42,1,Female,34,anonymized,Serial_Dependence_U,2023.2.3,Win32,3.157562362,,,,,,,,,,,,960.3714,2.0,960.3718,,,,963.3769,963.9679,962.7698,963.3767,961.5472,344.0,962.7696,963.9679,964.5218,964.5218,965.7851,628.9,965.7855,2.0,966.36,2.0,26.0,86.0,20.0,1.0,0.8,0.3,Time
,,S42,1,Female,34,anonymized,Serial_Dependence_U,2023.2.3,Win32,3.157562362,,,,,,,,,,,,966.3613,2.0,966.3623,,,,969.9814,970.5796,969.374,969.9811,967.5689,225.0,969.3734,970.5797,971.1813,971.1814,972.388,596.9,972.3884,1.0,972.9835,2.0,27.0,87.0,8.0,1.0,1.4,0.7,Time
,,S42,1,Female,34,anonymized,Serial_Dependence_U,2023.2.3,Win32,3.157562362,,,,,,,,,,,,972.9852,2.0,972.9862,,,,976.58,977.1804,975.9901,976.5798,974.17,5.0,975.9899,977.1804,977.7635,977.7635,978.353,1.600000024,978.3543,1.0,978.9378,2.0,28.0,88.0,19.0,1.0,1.6,0.7,Time
,,S42,1,Female,34,anonymized,Serial_Dependence_U,2023.2.3,Win32,3.157562362,,,,,,,,,,,,978.9384,2.0,978.9386,,,,981.9657,982.5476,981.3625,981.9656,980.1126,39.0,981.3623,982.5476,983.1222,983.1224,987.2577,1208.7,987.2581,3.0,987.8691,2.0,29.0,89.0,2.0,1.0,1.2,0.3,Time
,,S42,1,Female,34,anonymized,Serial_Dependence_U,2023.2.3,Win32,3.157562362,,,,,,,,,,,,987.8698,3.0,1032.9174,s,44.7336,0.0009,1036.0043,1036.5768,1035.4096,1036.0041,1034.1117,121.0,1035.4094,1036.5769,1037.133,1037.1332,1038.9589,1203.1,1038.9592,3.0,1039.5562,3.0,0.0,90.0,2.0,1.0,1.2,0.3,Time
,,S42,1,Female,34,anonymized,Serial_Dependence_U,2023.2.3,Win32,3.157562362,,,,,,,,,,,,1039.5569,3.0,1039.5597,,,,1042.5286,1043.1387,1041.921,1042.5284,1040.6914,255.0,1041.9208,1043.1388,1043.7141,1043.7141,1044.3016,4.899999976,1044.3019,1.0,1044.8909,3.0,1.0,91.0,12.0,1.0,1.2,0.3,Time
,,S42,1,Female,34,anonymized,Serial_Dependence_U,2023.2.3,Win32,3.157562362,,,,,,,,,,,,1044.8929,3.0,1044.8942,,,,1047.8703,1048.4675,1047.2611,1047.87,1046.0855,225.0,1047.2607,1048.4675,1049.0504,1049.0504,1050.267,626.6,1050.2673,2.0,1050.8363,3.0,2.0,92.0,25.0,1.0,0.8,0.7,Time
,,S42,1,Female,34,anonymized,Serial_Dependence_U,2023.2.3,Win32,3.157562362,,,,,,,,,,,,1050.8369,3.0,1050.8373,,,,1054.4093,1054.9917,1053.8149,1054.4089,1052.0059,143.0,1053.8146,1054.9917,1055.5915,1055.5916,1056.8002,614.9,1056.8005,1.0,1057.3801,3.0,3.0,93.0,18.0,1.0,1.4,0.7,Time
,,S42,1,Female,34,anonymized,Serial_Dependence_U,2023.2.3,Win32,3.157562362,,,,,,,,,,,,1057.3808,3.0,1057.3811,,,,1060.9324,1061.5249,1060.3297,1060.9323,1058.542,187.0,1060.3294,1061.5249,1062.1014,1062.1016,1064.5005,1177.4,1064.5008,2.0,1065.0821,3.0,4.0,94.0,9.0,1.0,1.6,0.7,Time
,,S42,1,Female,34,anonymized,Serial_Dependence_U,2023.2.3,Win32,3.157562362,,,,,,,,,,,,1065.0828,3.0,1065.0832,,,,1068.0209,1068.6064,1067.4216,1068.0207,1066.2386,332.0,1067.4214,1068.6065,1069.1814,1069.1817,1071.575,1213.0,1071.5753,5.0,1072.1639,3.0,5.0,95.0,15.0,1.0,0.8,0.7,Time
,,S42,1,Female,34,anonymized,Serial_Dependence_U,2023.2.3,Win32,3.157562362,,,,,,,,,,,,1072.1654,3.0,1072.1666,,,,1075.7162,1076.2789,1075.0996,1075.716,1073.3265,333.0,1075.0994,1076.279,1076.8819,1076.882,1078.0801,612.5,1078.0804,1.0,1078.665,3.0,6.0,96.0,29.0,1.0,1.6,0.7,Time
,,S42,1,Female,34,anonymized,Serial_Dependence_U,2023.2.3,Win32,3.157562362,,,,,,,,,,,,1078.6658,3.0,1078.6664,,,,1081.6162,1082.2137,1081.0308,1081.6161,1079.8014,29.0,1081.0306,1082.2138,1082.7752,1082.7753,1084.596,1228.3,1084.5964,5.0,1085.175,3.0,7.0,97.0,20.0,1.0,0.8,0.3,Time
,,S42,1,Female,34,anonymized,Serial_Dependence_U,2023.2.3,Win32,3.157562362,,,,,,,,,,,,1085.1767,3.0,1085.1782,,,,1088.7776,1089.355,1088.1771,1088.7771,1086.3833,259.0,1088.1767,1089.3552,1089.9441,1089.9444,1091.1739,625.7,1091.1741,1.0,1091.7884,3.0,8.0,98.0,3.0,1.0,1.4,0.3,Time
,,S42,1,Female,34,anonymized,Serial_Dependence_U,2023.2.3,Win32,3.157562362,,,,,,,,,,,,1091.7892,3.0,1091.7898,,,,1094.7456,1095.316,1094.1493,1094.7454,1092.9495,227.0,1094.149,1095.3161,1095.9126,1095.9126,1096.5167,10.29999995,1096.5171,1.0,1097.1139,3.0,9.0,99.0,11.0,1.0,1.0,0.3,Time
,,S42,1,Female,34,anonymized,Serial_Dependence_U,2023.2.3,Win32,3.157562362,,,,,,,,,,,,1097.1144,3.0,1097.1148,,,,1100.1183,1100.7121,1099.4908,1100.1182,1098.2746,187.0,1099.4906,1100.7121,1101.256,1101.256,1102.5103,644.0,1102.5106,2.0,1103.0689,3.0,10.0,100.0,10.0,1.0,0.8,0.3,Time
,,S42,1,Female,34,anonymized,Serial_Dependence_U,2023.2.3,Win32,3.157562362,,,,,,,,,,,,1103.0696,3.0,1103.0725,,,,1106.6467,1107.2084,1106.0255,1106.6466,1104.2298,82.0,1106.0253,1107.2085,1107.7977,1107.7978,1109.6257,1241.7,1109.6261,2.0,1110.2072,3.0,11.0,101.0,4.0,1.0,1.6,0.3,Time
,,S42,1,Female,34,anonymized,Serial_Dependence_U,2023.2.3,Win32,3.157562362,,,,,,,,,,,,1110.2077,3.0,1110.2081,,,,1113.8214,1114.6611,1113.176,1113.8212,1111.3796,123.0,1113.1757,1114.6612,1115.457,1115.4571,1116.2625,11.60000002,1116.2629,1.0,1117.0527,3.0,12.0,102.0,28.0,1.0,1.4,0.7,Time
,,S42,1,Female,34,anonymized,Serial_Dependence_U,2023.2.3,Win32,3.157562362,,,,,,,,,,,,1117.0545,3.0,1117.0567,,,,1120.4019,1120.4021,1119.5782,1120.4017,1117.9136,252.0,1119.578,1120.4021,1120.4022,1120.4023,1122.8983,849.2,1122.8987,1.0,1123.6529,3.0,13.0,103.0,8.0,1.0,1.4,0.7,Time
,,S42,1,Female,34,anonymized,Serial_Dependence_U,2023.2.3,Win32,3.157562362,,,,,,,,,,,,1123.6537,3.0,1123.6541,,,,1126.9044,1126.9045,1126.0805,1126.9042,1124.4365,285.0,1126.0803,1126.9045,1126.9047,1126.9048,1129.3964,902.8,1129.3969,2.0,1130.1731,3.0,14.0,104.0,22.0,1.0,1.2,0.3,Time
,,S42,1,Female,34,anonymized,Serial_Dependence_U,2023.2.3,Win32,3.157562362,,,,,,,,,,,,1130.1741,3.0,1130.1747,,,,1133.4222,1133.4224,1132.618,1133.4221,1131.0044,166.0,1132.6177,1133.4224,1133.4225,1133.4225,1135.0498,1.200000048,1135.0503,1.0,1135.8979,3.0,15.0,105.0,6.0,1.0,1.0,0.7,Time
,,S42,1,Female,34,anonymized,Serial_Dependence_U,2023.2.3,Win32,3.157562362,,,,,,,,,,,,1135.9014,3.0,1135.9024,,,,1139.3426,1139.3428,1138.5516,1139.3425,1136.8789,156.0,1138.5513,1139.3428,1139.3429,1139.3429,1140.9658,823.6999999,1140.9663,1.0,1141.7688,3.0,16.0,106.0,19.0,1.0,1.6,0.7,Time
,,S42,1,Female,34,anonymized,Serial_Dependence_U,2023.2.3,Win32,3.157562362,,,,,,,,,,,,1141.7698,3.0,1141.7706,,,,1145.0032,1145.0033,1144.2158,1145.003,1142.5712,8.0,1144.2156,1145.0033,1145.0035,1145.0035,1147.4227,832.6,1147.423,1.0,1148.1802,3.0,17.0,107.0,24.0,1.0,1.6,0.3,Time
,,S42,1,Female,34,anonymized,Serial_Dependence_U,2023.2.3,Win32,3.157562362,,,,,,,,,,,,1148.1809,3.0,1148.1815,,,,1150.6138,1150.614,1149.8149,1150.6137,1148.966,284.0,1149.8147,1150.614,1150.6141,1150.6142,1153.0176,802.9,1153.018,3.0,1153.8306,3.0,18.0,108.0,5.0,1.0,0.8,0.7,Time
,,S42,1,Female,34,anonymized,Serial_Dependence_U,2023.2.3,Win32,3.157562362,,,,,,,,,,,,1153.8322,3.0,1153.8333,,,,1157.136,1157.1362,1156.2723,1157.1359,1154.6705,91.0,1156.2722,1157.1362,1157.1363,1157.1363,1161.0485,1556.9,1161.0491,5.0,1161.8545,3.0,19.0,109.0,26.0,1.0,1.0,0.7,Time
,,S42,1,Female,34,anonymized,Serial_Dependence_U,2023.2.3,Win32,3.157562362,,,,,,,,,,,,1161.8582,3.0,1161.8586,,,,1165.0821,1165.0826,1164.2647,1165.0813,1162.679,286.0,1164.2645,1165.0829,1165.0836,1165.0839,1166.7194,1.199999928,1166.7199,1.0,1167.5174,3.0,20.0,110.0,13.0,1.0,1.4,0.3,Time
,,S42,1,Female,34,anonymized,Serial_Dependence_U,2023.2.3,Win32,3.157562362,,,,,,,,,,,,1167.5182,3.0,1167.5186,,,,1170.7663,1170.7669,1169.9489,1170.7658,1168.2966,336.0,1169.9487,1170.7671,1170.7678,1170.7681,1172.3981,797.0,1172.3987,1.0,1173.2234,3.0,21.0,111.0,7.0,1.0,1.2,0.7,Time
,,S42,1,Female,34,anonymized,Serial_Dependence_U,2023.2.3,Win32,3.157562362,,,,,,,,,,,,1173.2244,3.0,1173.2249,,,,1176.4882,1176.4884,1175.6743,1176.4881,1174.0349,155.0,1175.6741,1176.4884,1176.4885,1176.4885,1178.7138,1360.7,1178.7142,2.0,1179.3173,3.0,22.0,112.0,14.0,1.0,1.6,0.3,Time
,,S42,1,Female,34,anonymized,Serial_Dependence_U,2023.2.3,Win32,3.157562362,,,,,,,,,,,,1179.3187,3.0,1179.324,,,,1182.3273,1182.8962,1181.7366,1182.3272,1180.5109,26.0,1181.7365,1182.8964,1183.4865,1183.4866,1189.3572,1174.1,1189.3578,3.0,1189.9322,3.0,23.0,113.0,17.0,1.0,1.2,0.7,Time
,,S42,1,Female,34,anonymized,Serial_Dependence_U,2023.2.3,Win32,3.157562362,,,,,,,,,,,,1189.9329,3.0,1189.9333,,,,1192.881,1193.4815,1192.2707,1192.8807,1191.1012,163.0,1192.2704,1193.4816,1194.0595,1194.0596,1197.012,593.2,1197.0123,2.0,1197.6029,3.0,24.0,114.0,0.0,1.0,0.8,0.3,Time
,,S42,1,Female,34,anonymized,Serial_Dependence_U,2023.2.3,Win32,3.157562362,,,,,,,,,,,,1197.6044,3.0,1197.6052,,,,1201.1274,1201.7232,1200.5168,1201.1272,1198.773,95.0,1200.5166,1201.7232,1202.2684,1202.2684,1203.5141,633.4,1203.5144,1.0,1204.1189,3.0,25.0,115.0,23.0,1.0,1.4,0.3,Time
,,S42,1,Female,34,anonymized,Serial_Dependence_U,2023.2.3,Win32,3.157562362,,,,,,,,,,,,1204.1196,3.0,1204.1201,,,,1207.0829,1207.685,1206.4733,1207.0827,1205.266,141.0,1206.4731,1207.6851,1208.275,1208.2751,1208.8775,1.600000024,1208.8779,1.0,1209.4429,3.0,26.0,116.0,21.0,1.0,1.0,0.3,Time
,,S42,1,Female,34,anonymized,Serial_Dependence_U,2023.2.3,Win32,3.157562362,,,,,,,,,,,,1209.4436,3.0,1209.444,,,,1212.3952,1212.9563,1211.8058,1212.3951,1210.5749,226.0,1211.8055,1212.9564,1213.5552,1213.5552,1214.1792,4.199999928,1214.1794,1.0,1214.7855,3.0,27.0,117.0,16.0,1.0,1.0,0.7,Time
,,S42,1,Female,34,anonymized,Serial_Dependence_U,2023.2.3,Win32,3.157562362,,,,,,,,,,,,1214.7862,3.0,1214.7864,,,,1217.7654,1218.3488,1217.1742,1217.7653,1215.951,17.0,1217.174,1218.3488,1218.9257,1218.9257,1220.1079,607.9,1220.1085,1.0,1220.669,3.0,28.0,118.0,27.0,1.0,1.2,0.7,Time
,,S42,1,Female,34,anonymized,Serial_Dependence_U,2023.2.3,Win32,3.157562362,,,,,,,,,,,,1220.6696,3.0,1220.6699,,,,1223.6613,1224.2634,1223.045,1223.6611,1221.8134,239.0,1223.0447,1224.2634,1224.8704,1224.8704,1227.8278,1165.4,1227.8281,4.0,1228.4295,3.0,29.0,119.0,1.0,1.0,1.0,0.3,Time
,,S42,1,Female,34,anonymized,Serial_Dependence_U,2023.2.3,Win32,3.157562362,,,,,,,,,,,,1228.4304,4.0,1295.4437,s,66.6478,0.0007,1298.4191,1299.0197,1297.8199,1298.419,1296.6017,291.0,1297.8197,1299.0198,1299.6078,1299.6079,1300.1904,3.899999976,1300.1908,1.0,1300.7779,4.0,0.0,120.0,1.0,1.0,1.0,0.3,Time
,,S42,1,Female,34,anonymized,Serial_Dependence_U,2023.2.3,Win32,3.157562362,,,,,,,,,,,,1300.779,4.0,1300.7868,,,,1303.7119,1304.3061,1303.1217,1303.7117,1301.9584,191.0,1303.1214,1304.3062,1304.8741,1304.8742,1307.8522,611.4,1307.8526,1.0,1308.4182,4.0,1.0,121.0,16.0,1.0,1.0,0.7,Time
,,S42,1,Female,34,anonymized,Serial_Dependence_U,2023.2.3,Win32,3.157562362,,,,,,,,,,,,1308.419,4.0,1308.4195,,,,1311.9785,1312.5658,1311.3659,1311.9783,1309.5765,355.0,1311.3657,1312.5658,1313.1254,1313.1255,1313.7888,10.30000007,1313.7892,1.0,1314.35,4.0,2.0,122.0,17.0,1.0,1.2,0.7,Time
,,S42,1,Female,34,anonymized,Serial_Dependence_U,2023.2.3,Win32,3.157562362,,,,,,,,,,,,1314.3508,4.0,1314.3513,,,,1317.969,1318.5638,1317.3582,1317.9688,1315.5348,235.0,1317.358,1318.5638,1319.1637,1319.1638,1319.8171,9.599999905,1319.8174,1.0,1320.3989,4.0,3.0,123.0,8.0,1.0,1.4,0.7,Time
,,S42,1,Female,34,anonymized,Serial_Dependence_U,2023.2.3,Win32,3.157562362,,,,,,,,,,,,1320.3994,4.0,1320.3998,,,,1323.3837,1323.989,1322.7464,1323.3833,1321.5539,261.0,1322.7462,1323.9892,1324.5877,1324.588,1326.5024,1265.5,1326.5028,4.0,1327.0916,4.0,4.0,124.0,11.0,1.0,1.0,0.3,Time
,,S42,1,Female,34,anonymized,Serial_Dependence_U,2023.2.3,Win32,3.157562362,,,,,,,,,,,,1327.0923,4.0,1327.0928,,,,1330.6526,1331.2185,1330.0479,1330.6525,1328.2398,64.0,1330.0478,1331.2186,1331.8293,1331.8293,1332.4209,4.299999952,1332.4213,1.0,1333.0215,4.0,5.0,125.0,19.0,1.0,1.6,0.7,Time
,,S42,1,Female,34,anonymized,Serial_Dependence_U,2023.2.3,Win32,3.157562362,,,,,,,,,,,,1333.0227,4.0,1333.0234,,,,1336.0934,1336.6678,1335.4704,1336.0932,1334.2384,224.0,1335.4702,1336.6678,1337.2197,1337.2198,1339.0357,1200.0,1339.0361,5.0,1339.6324,4.0,6.0,126.0,25.0,1.0,0.8,0.7,Time
,,S42,1,Female,34,anonymized,Serial_Dependence_U,2023.2.3,Win32,3.157562362,,,,,,,,,,,,1339.6331,4.0,1339.6334,,,,1343.1983,1343.7709,1342.6183,1343.1981,1340.7551,211.0,1342.6182,1343.7709,1344.3707,1344.3708,1344.9722,11.5,1344.9725,1.0,1345.5883,4.0,7.0,127.0,3.0,1.0,1.4,0.3,Time
,,S42,1,Female,34,anonymized,Serial_Dependence_U,2023.2.3,Win32,3.157562362,,,,,,,,,,,,1345.59,4.0,1345.5911,,,,1348.6294,1349.2193,1348.0182,1348.6291,1346.8103,253.0,1348.0178,1349.2193,1349.8211,1349.8211,1351.0047,577.5,1351.005,2.0,1351.6064,4.0,8.0,128.0,0.0,1.0,0.8,0.3,Time
,,S42,1,Female,34,anonymized,Serial_Dependence_U,2023.2.3,Win32,3.157562362,,,,,,,,,,,,1351.6073,4.0,1351.608,,,,1355.2218,1355.7998,1354.6132,1355.2216,1352.7741,121.0,1354.613,1355.8,1356.3816,1356.3818,1359.2652,819.3,1359.2656,1.0,1360.1116,4.0,9.0,129.0,28.0,1.0,1.4,0.7,Time
,,S42,1,Female,34,anonymized,Serial_Dependence_U,2023.2.3,Win32,3.157562362,,,,,,,,,,,,1360.1125,4.0,1360.1129,,,,1363.455,1363.4556,1362.5911,1363.4545,1360.8947,182.0,1362.5909,1363.4558,1363.4565,1363.4567,1367.5819,1587.4,1367.5822,3.0,1368.4133,4.0,10.0,130.0,4.0,1.0,1.6,0.3,Time
,,S42,1,Female,34,anonymized,Serial_Dependence_U,2023.2.3,Win32,3.157562362,,,,,,,,,,,,1368.4145,4.0,1368.4152,,,,1371.7842,1371.7844,1370.9954,1371.784,1369.2735,295.0,1370.9952,1371.7844,1371.7845,1371.7845,1373.4498,834.6,1373.4502,1.0,1374.2637,4.0,11.0,131.0,23.0,1.0,1.4,0.3,Time
,,S42,1,Female,34,anonymized,Serial_Dependence_U,2023.2.3,Win32,3.157562362,,,,,,,,,,,,1374.2656,4.0,1374.2666,,,,1376.7776,1376.7778,1375.9604,1376.7774,1375.1334,272.0,1375.9603,1376.7778,1376.778,1376.778,1377.612,13.70000005,1377.6124,1.0,1378.3876,4.0,12.0,132.0,5.0,1.0,0.8,0.7,Time
,,S42,1,Female,34,anonymized,Serial_Dependence_U,2023.2.3,Win32,3.157562362,,,,,,,,,,,,1378.3898,4.0,1378.3909,,,,1381.7166,1381.7167,1380.9021,1381.7164,1379.2796,283.0,1380.9018,1381.7167,1381.7169,1381.7169,1383.318,798.6999999,1383.3188,1.0,1384.1013,4.0,13.0,133.0,7.0,1.0,1.2,0.7,Time
,,S42,1,Female,34,anonymized,Serial_Dependence_U,2023.2.3,Win32,3.157562362,,,,,,,,,,,,1384.1021,4.0,1384.1027,,,,1387.3872,1387.3873,1386.5506,1387.3869,1384.9318,250.0,1386.5504,1387.3874,1387.3874,1387.3875,1389.7961,1614.3,1389.7965,5.0,1390.5987,4.0,14.0,134.0,6.0,1.0,1.0,0.7,Time
,,S42,1,Female,34,anonymized,Serial_Dependence_U,2023.2.3,Win32,3.157562362,,,,,,,,,,,,1390.6008,4.0,1390.6021,,,,1393.8867,1393.8868,1393.0906,1393.8866,1391.4414,223.0,1393.0904,1393.8869,1393.887,1393.8871,1396.3557,824.6,1396.3562,1.0,1397.1741,4.0,15.0,135.0,14.0,1.0,1.6,0.3,Time
,,S42,1,Female,34,anonymized,Serial_Dependence_U,2023.2.3,Win32,3.157562362,,,,,,,,,,,,1397.1749,4.0,1397.1754,,,,1400.4621,1400.4623,1399.5936,1400.4619,1397.9943,234.0,1399.5932,1400.4623,1400.4624,1400.4624,1402.9072,1642.3,1402.9076,5.0,1403.7181,4.0,16.0,136.0,12.0,1.0,1.2,0.3,Time
,,S42,1,Female,34,anonymized,Serial_Dependence_U,2023.2.3,Win32,3.157562362,,,,,,,,,,,,1403.7194,4.0,1403.7203,,,,1406.1794,1406.1794,1405.3727,1406.1792,1404.5139,204.0,1405.3725,1406.1795,1406.1796,1406.1797,1410.1677,786.9,1410.1683,3.0,1410.9587,4.0,17.0,137.0,15.0,1.0,0.8,0.7,Time
,,S42,1,Female,34,anonymized,Serial_Dependence_U,2023.2.3,Win32,3.157562362,,,,,,,,,,,,1410.9602,4.0,1410.9613,,,,1414.241,1414.2411,1413.4346,1414.2407,1411.7751,162.0,1413.4342,1414.2412,1414.2413,1414.2413,1416.6824,1647.2,1416.6827,3.0,1417.4919,4.0,18.0,138.0,29.0,1.0,1.6,0.7,Time
,,S42,1,Female,34,anonymized,Serial_Dependence_U,2023.2.3,Win32,3.157562362,,,,,,,,,,,,1417.4931,4.0,1417.4936,,,,1420.7458,1420.7458,1419.925,1420.7456,1418.2726,291.0,1419.9249,1420.7458,1420.746,1420.7461,1421.6152,4.5,1421.6157,1.0,1422.4133,4.0,19.0,139.0,26.0,1.0,1.0,0.7,Time
,,S42,1,Female,34,anonymized,Serial_Dependence_U,2023.2.3,Win32,3.157562362,,,,,,,,,,,,1422.4147,4.0,1422.4157,,,,1425.7481,1425.7482,1424.9055,1425.7479,1423.2329,348.0,1424.9052,1425.7483,1425.7484,1425.7484,1428.9904,1584.4,1428.9909,5.0,1429.807,4.0,20.0,140.0,2.0,1.0,1.2,0.3,Time
,,S42,1,Female,34,anonymized,Serial_Dependence_U,2023.2.3,Win32,3.157562362,,,,,,,,,,,,1429.8078,4.0,1429.8083,,,,1432.4562,1433.0466,1431.8523,1432.456,1430.6096,41.0,1431.8522,1433.0466,1433.6399,1433.64,1435.5064,1251.7,1435.5068,3.0,1436.1297,4.0,21.0,141.0,27.0,1.0,1.2,0.7,Time
,,S42,1,Female,34,anonymized,Serial_Dependence_U,2023.2.3,Win32,3.157562362,,,,,,,,,,,,1436.131,4.0,1436.1317,,,,1439.1968,1439.7665,1438.6258,1439.1967,1437.3517,151.0,1438.6257,1439.7665,1440.3284,1440.3284,1440.9063,3.399999976,1440.9068,1.0,1441.5055,4.0,22.0,142.0,20.0,1.0,0.8,0.3,Time
,,S42,1,Female,34,anonymized,Serial_Dependence_U,2023.2.3,Win32,3.157562362,,,,,,,,,,,,1441.5062,4.0,1441.5067,,,,1444.5344,1445.138,1443.9187,1444.5343,1442.6858,37.0,1443.9184,1445.138,1445.7093,1445.7093,1446.9216,598.3000001,1446.922,2.0,1447.5227,4.0,23.0,143.0,10.0,1.0,0.8,0.3,Time
,,S42,1,Female,34,anonymized,Serial_Dependence_U,2023.2.3,Win32,3.157562362,,,,,,,,,,,,1447.5235,4.0,1447.5242,,,,1451.1139,1451.6831,1450.514,1451.1138,1448.7077,24.0,1450.5138,1451.6832,1452.2691,1452.2692,1454.1339,1242.0,1454.1343,2.0,1454.704,4.0,24.0,144.0,9.0,1.0,1.6,0.7,Time
,,S42,1,Female,34,anonymized,Serial_Dependence_U,2023.2.3,Win32,3.157562362,,,,,,,,,,,,1454.7047,4.0,1454.7054,,,,1458.263,1458.8602,1457.6457,1458.2628,1455.8493,248.0,1457.6455,1458.8602,1459.43,1459.4301,1460.0616,5.399999976,1460.0619,1.0,1460.6466,4.0,25.0,145.0,18.0,1.0,1.4,0.7,Time
,,S42,1,Female,34,anonymized,Serial_Dependence_U,2023.2.3,Win32,3.157562362,,,,,,,,,,,,1460.6516,4.0,1460.6523,,,,1463.6158,1464.2106,1463.0204,1463.6155,1461.8144,305.0,1463.0202,1464.2107,1464.7845,1464.7847,1465.3884,4.200000048,1465.3887,1.0,1465.9628,4.0,26.0,146.0,21.0,1.0,1.0,0.3,Time
,,S42,1,Female,34,anonymized,Serial_Dependence_U,2023.2.3,Win32,3.157562362,,,,,,,,,,,,1465.9637,4.0,1465.9643,,,,1469.666,1470.2617,1469.0476,1469.6659,1467.1152,220.0,1469.0473,1470.2618,1470.8624,1470.8625,1473.8538,568.8000001,1473.8542,1.0,1474.9681,4.0,27.0,147.0,24.0,1.0,1.6,0.3,Time
,,S42,1,Female,34,anonymized,Serial_Dependence_U,2023.2.3,Win32,3.157562362,,,,,,,,,,,,1474.9692,4.0,1474.9699,,,,1478.6289,1479.236,1478.0084,1478.6287,1476.1647,222.0,1478.0083,1479.236,1479.8568,1479.8568,1481.6761,1199.3,1481.6764,2.0,1482.318,4.0,28.0,148.0,13.0,1.0,1.4,0.3,Time
,,S42,1,Female,34,anonymized,Serial_Dependence_U,2023.2.3,Win32,3.157562362,,,,,,,,,,,,1482.3196,4.0,1482.322,,,,1485.8531,1486.4385,1485.2434,1485.8529,1483.4764,210.0,1485.2432,1486.4385,1487.0019,1487.002,1488.8317,1222.6,1488.8323,3.0,1489.4507,4.0,29.0,149.0,22.0,1.0,1.2,0.3,Time
,,S42,1,Female,34,anonymized,Serial_Dependence_U,2023.2.3,Win32,3.157562362,,,,,,,,,,,,1489.4514,5.0,1806.4206,s,316.6564,,1810.0701,1810.6541,1809.4426,1810.0699,1807.6252,206.0,1809.4422,1810.6542,1811.2569,1811.2569,1811.902,9.5,1811.9023,1.0,1812.4874,5.0,0.0,150.0,23.0,1.0,1.4,0.3,Time
,,S42,1,Female,34,anonymized,Serial_Dependence_U,2023.2.3,Win32,3.157562362,,,,,,,,,,,,1812.4892,5.0,1812.4945,,,,1815.5216,1816.1238,1814.9038,1815.5213,1813.6609,275.0,1814.9036,1816.1238,1816.7107,1816.7107,1817.8655,574.8000001,1817.8658,1.0,1818.4666,5.0,1.0,151.0,16.0,1.0,1.0,0.7,Time
,,S42,1,Female,34,anonymized,Serial_Dependence_U,2023.2.3,Win32,3.157562362,,,,,,,,,,,,1818.4673,5.0,1818.4677,,,,1821.5031,1822.0686,1820.8229,1821.5029,1819.5955,143.0,1820.8226,1822.0687,1822.6526,1822.6527,1823.3391,9.700000048,1823.3396,1.0,1824.1869,5.0,2.0,152.0,20.0,1.0,0.8,0.3,Time
,,S42,1,Female,34,anonymized,Serial_Dependence_U,2023.2.3,Win32,3.157562362,,,,,,,,,,,,1824.1881,5.0,1824.1887,,,,1827.4451,1827.4452,1826.6374,1827.445,1825.0,39.0,1826.6372,1827.4453,1827.4454,1827.4454,1829.9182,1672.1,1829.9187,5.0,1830.7226,5.0,3.0,153.0,21.0,1.0,1.0,0.3,Time
,,S42,1,Female,34,anonymized,Serial_Dependence_U,2023.2.3,Win32,3.157562362,,,,,,,,,,,,1830.7239,5.0,1830.7249,,,,1834.061,1834.0611,1833.226,1834.0608,1831.5574,80.0,1833.2258,1834.0611,1834.0613,1834.0613,1836.5208,1624.0,1836.5216,4.0,1837.3796,5.0,4.0,154.0,8.0,1.0,1.4,0.7,Time
,,S42,1,Female,34,anonymized,Serial_Dependence_U,2023.2.3,Win32,3.157562362,,,,,,,,,,,,1837.3835,5.0,1837.384,,,,1840.6938,1840.6939,1839.8715,1840.6936,1838.1884,298.0,1839.8713,1840.6939,1840.6941,1840.6941,1842.3959,855.1,1842.3963,2.0,1843.3099,5.0,5.0,155.0,27.0,1.0,1.2,0.7,Time
,,S42,1,Female,34,anonymized,Serial_Dependence_U,2023.2.3,Win32,3.157562362,,,,,,,,,,,,1843.3113,5.0,1843.3124,,,,1847.0348,1847.0349,1846.1858,1847.0346,1844.205,72.0,1846.1856,1847.0349,1847.0351,1847.0351,1850.2839,2197.1,1850.2851,5.0,1851.4057,5.0,6.0,156.0,22.0,1.0,1.2,0.3,Time
,,S42,1,Female,34,anonymized,Serial_Dependence_U,2023.2.3,Win32,3.157562362,,,,,,,,,,,,1851.4065,5.0,1851.407,,,,1854.8034,1854.8036,1853.737,1854.8032,1852.567,135.0,1853.7367,1854.8037,1854.8038,1854.804,1857.0401,1150.4,1857.0408,5.0,1857.9362,5.0,7.0,157.0,25.0,1.0,0.8,0.7,Time
,,S42,1,Female,34,anonymized,Serial_Dependence_U,2023.2.3,Win32,3.157562362,,,,,,,,,,,,1857.9372,5.0,1857.9382,,,,1861.3588,1861.3589,1860.5046,1861.3586,1858.78,262.0,1860.5044,1861.359,1861.3591,1861.3591,1863.8617,1663.4,1863.8624,5.0,1864.7124,5.0,8.0,158.0,2.0,1.0,1.2,0.3,Time
,,S42,1,Female,34,anonymized,Serial_Dependence_U,2023.2.3,Win32,3.157562362,,,,,,,,,,,,1864.7137,5.0,1864.7153,,,,1868.0552,1868.0553,1867.2367,1868.055,1865.5687,133.0,1867.2366,1868.0553,1868.0554,1868.0555,1869.836,897.4,1869.8372,2.0,1870.6613,5.0,9.0,159.0,11.0,1.0,1.0,0.3,Time
,,S42,1,Female,34,anonymized,Serial_Dependence_U,2023.2.3,Win32,3.157562362,,,,,,,,,,,,1870.6626,5.0,1870.6637,,,,1874.0158,1874.0159,1873.2055,1874.0156,1871.5133,349.0,1873.2053,1874.0159,1874.0161,1874.0161,1876.5233,868.0,1876.5244,1.0,1877.3568,5.0,10.0,160.0,18.0,1.0,1.4,0.7,Time
,,S42,1,Female,34,anonymized,Serial_Dependence_U,2023.2.3,Win32,3.157562362,,,,,,,,,,,,1877.3593,5.0,1877.3604,,,,1879.9073,1879.9074,1879.0806,1879.9071,1878.1972,3.0,1879.0805,1879.9074,1879.9076,1879.9076,1881.5318,1.600000024,1881.5322,1.0,1882.3654,5.0,11.0,161.0,10.0,1.0,0.8,0.3,Time
,,S42,1,Female,34,anonymized,Serial_Dependence_U,2023.2.3,Win32,3.157562362,,,,,,,,,,,,1882.3672,5.0,1882.3682,,,,1885.6918,1885.692,1884.826,1885.6917,1883.2176,26.0,1884.8259,1885.692,1885.6922,1885.6922,1888.1831,853.8000001,1888.1835,2.0,1888.9797,5.0,12.0,162.0,12.0,1.0,1.2,0.3,Time
,,S42,1,Female,34,anonymized,Serial_Dependence_U,2023.2.3,Win32,3.157562362,,,,,,,,,,,,1888.9805,5.0,1888.981,,,,1892.3136,1892.3136,1891.481,1892.3134,1889.8007,207.0,1891.4807,1892.3137,1892.3138,1892.3138,1894.7793,2.399999976,1894.7797,1.0,1895.5932,5.0,13.0,163.0,13.0,1.0,1.4,0.3,Time
,,S42,1,Female,34,anonymized,Serial_Dependence_U,2023.2.3,Win32,3.157562362,,,,,,,,,,,,1895.5961,5.0,1895.5971,,,,1898.912,1898.9121,1898.0991,1898.9117,1896.4743,61.0,1898.0988,1898.9121,1898.9123,1898.9123,1900.8627,605.0,1900.8632,1.0,1901.4684,5.0,14.0,164.0,7.0,1.0,1.2,0.7,Time
,,S42,1,Female,34,anonymized,Serial_Dependence_U,2023.2.3,Win32,3.157562362,,,,,,,,,,,,1901.4693,5.0,1901.4703,,,,1905.0438,1905.6058,1904.4551,1905.0437,1902.6267,34.0,1904.4549,1905.6058,1906.1667,1906.1668,1907.3537,603.3000001,1907.3541,1.0,1907.954,5.0,15.0,165.0,24.0,1.0,1.6,0.3,Time
,,S42,1,Female,34,anonymized,Serial_Dependence_U,2023.2.3,Win32,3.157562362,,,,,,,,,,,,1907.955,5.0,1907.9563,,,,1911.5482,1912.1473,1910.9339,1911.5479,1909.1484,252.0,1910.9336,1912.1473,1912.7371,1912.7372,1913.3702,8.0,1913.3705,1.0,1913.9267,5.0,16.0,166.0,4.0,1.0,1.6,0.3,Time
,,S42,1,Female,34,anonymized,Serial_Dependence_U,2023.2.3,Win32,3.157562362,,,,,,,,,,,,1913.9274,5.0,1913.9277,,,,1917.4801,1918.1008,1916.8772,1917.48,1915.0852,13.0,1916.877,1918.1009,1918.7038,1918.7038,1919.3641,10.19999993,1919.3645,1.0,1919.9267,5.0,17.0,167.0,28.0,1.0,1.4,0.7,Time
,,S42,1,Female,34,anonymized,Serial_Dependence_U,2023.2.3,Win32,3.157562362,,,,,,,,,,,,1919.9275,5.0,1919.9281,,,,1922.8379,1923.4166,1922.2375,1922.8377,1921.0775,218.0,1922.2373,1923.4166,1924.0178,1924.0178,1927.0271,601.5,1927.0275,1.0,1927.6032,5.0,18.0,168.0,26.0,1.0,1.0,0.7,Time
,,S42,1,Female,34,anonymized,Serial_Dependence_U,2023.2.3,Win32,3.157562362,,,,,,,,,,,,1927.6038,5.0,1927.6043,,,,1931.1861,1931.7594,1930.6017,1931.1859,1928.7508,342.0,1930.6015,1931.7595,1932.372,1932.3721,1933.0194,7.299999952,1933.0197,1.0,1933.6375,5.0,19.0,169.0,19.0,1.0,1.6,0.7,Time
,,S42,1,Female,34,anonymized,Serial_Dependence_U,2023.2.3,Win32,3.157562362,,,,,,,,,,,,1933.6385,5.0,1933.6393,,,,1937.2388,1937.8045,1936.6475,1937.2386,1934.7983,275.0,1936.6472,1937.8046,1938.3734,1938.3735,1942.4978,585.1,1942.4981,1.0,1943.0921,5.0,20.0,170.0,3.0,1.0,1.4,0.3,Time
,,S42,1,Female,34,anonymized,Serial_Dependence_U,2023.2.3,Win32,3.157562362,,,,,,,,,,,,1943.0931,5.0,1943.0935,,,,1946.5945,1947.1636,1945.9861,1946.5943,1944.2365,262.0,1945.9856,1947.1636,1947.738,1947.7381,1948.4043,13.20000005,1948.4047,1.0,1949.0006,5.0,21.0,171.0,17.0,1.0,1.2,0.7,Time
,,S42,1,Female,34,anonymized,Serial_Dependence_U,2023.2.3,Win32,3.157562362,,,,,,,,,,,,1949.0012,5.0,1949.0015,,,,1952.5303,1953.1054,1951.9348,1952.53,1950.1783,154.0,1951.9345,1953.1055,1953.6749,1953.6749,1955.483,1228.6,1955.4852,2.0,1956.1367,5.0,22.0,172.0,14.0,1.0,1.6,0.3,Time
,,S42,1,Female,34,anonymized,Serial_Dependence_U,2023.2.3,Win32,3.157562362,,,,,,,,,,,,1956.1377,5.0,1956.1387,,,,1959.1465,1959.7128,1958.5613,1959.1464,1957.3477,171.0,1958.5613,1959.7128,1960.3072,1960.3074,1962.0771,1179.8,1962.0777,5.0,1962.6596,5.0,23.0,173.0,5.0,1.0,0.8,0.7,Time
,,S42,1,Female,34,anonymized,Serial_Dependence_U,2023.2.3,Win32,3.157562362,,,,,,,,,,,,1962.6603,5.0,1962.6608,,,,1965.6516,1966.2286,1965.0087,1965.6514,1963.7923,307.0,1965.0085,1966.2287,1966.7941,1966.7941,1968.0427,618.5,1968.043,2.0,1968.6117,5.0,24.0,174.0,15.0,1.0,0.8,0.7,Time
,,S42,1,Female,34,anonymized,Serial_Dependence_U,2023.2.3,Win32,3.157562362,,,,,,,,,,,,1968.6126,5.0,1968.6133,,,,1971.6244,1972.2248,1971.023,1971.6243,1969.8397,22.0,1971.0228,1972.2249,1972.8003,1972.8003,1976.3688,620.0,1976.3692,1.0,1976.9444,5.0,25.0,175.0,1.0,1.0,1.0,0.3,Time
,,S42,1,Female,34,anonymized,Serial_Dependence_U,2023.2.3,Win32,3.157562362,,,,,,,,,,,,1976.945,5.0,1976.9455,,,,1980.5227,1981.133,1979.9012,1980.5226,1978.0751,282.0,1979.9009,1981.133,1981.7203,1981.7204,1982.9369,607.5,1982.9373,1.0,1983.5375,5.0,26.0,176.0,9.0,1.0,1.6,0.7,Time
,,S42,1,Female,34,anonymized,Serial_Dependence_U,2023.2.3,Win32,3.157562362,,,,,,,,,,,,1983.5385,5.0,1983.5393,,,,1987.1176,1987.6862,1986.5124,1987.1176,1984.7303,223.0,1986.5122,1987.6863,1988.2641,1988.2642,1988.8844,2.0,1988.8848,1.0,1989.4481,5.0,27.0,177.0,29.0,1.0,1.6,0.7,Time
,,S42,1,Female,34,anonymized,Serial_Dependence_U,2023.2.3,Win32,3.157562362,,,,,,,,,,,,1989.449,5.0,1989.4496,,,,1992.4839,1993.0783,1991.837,1992.4837,1990.6015,324.0,1991.8367,1993.0783,1993.6703,1993.6703,1995.4816,624.9,1995.482,2.0,1996.0532,5.0,28.0,178.0,0.0,1.0,0.8,0.3,Time
,,S42,1,Female,34,anonymized,Serial_Dependence_U,2023.2.3,Win32,3.157562362,,,,,,,,,,,,1996.0542,5.0,1996.0596,,,,1999.005,1999.5746,1998.4183,1999.0048,1997.2103,198.0,1998.418,1999.5746,2000.1531,2000.1532,2001.943,1196.5,2001.9433,4.0,2002.5197,5.0,29.0,179.0,6.0,1.0,1.0,0.7,Time
,,S42,1,Female,34,anonymized,Serial_Dependence_U,2023.2.3,Win32,3.157562362,,,,,,,,,,,,2002.5203,6.0,2007.4675,s,4.6324,0.0007,2011.1072,2011.6878,2010.5067,2011.1069,2008.7265,338.0,2010.5065,2011.6878,2012.2475,2012.2476,2013.4684,625.9,2013.4688,1.0,2014.0488,6.0,0.0,180.0,27.0,1.0,1.2,0.7,Time
,,S42,1,Female,34,anonymized,Serial_Dependence_U,2023.2.3,Win32,3.157562362,,,,,,,,,,,,2014.0495,6.0,2014.0523,,,,2017.6563,2018.2315,2017.0484,2017.6561,2015.2625,144.0,2017.048,2018.2316,2018.8387,2018.8389,2019.4463,2.899999976,2019.4468,1.0,2020.0145,6.0,1.0,181.0,28.0,1.0,1.4,0.7,Time
,,S42,1,Female,34,anonymized,Serial_Dependence_U,2023.2.3,Win32,3.157562362,,,,,,,,,,,,2020.0154,6.0,2020.0161,,,,2023.5885,2024.1433,2022.9808,2023.5882,2021.2117,313.0,2022.9805,2024.1433,2024.7332,2024.7332,2025.3687,9.5,2025.369,1.0,2025.9567,6.0,2.0,182.0,13.0,1.0,1.4,0.3,Time
,,S42,1,Female,34,anonymized,Serial_Dependence_U,2023.2.3,Win32,3.157562362,,,,,,,,,,,,2025.9572,6.0,2025.9577,,,,2029.4906,2030.1065,2028.9004,2029.4904,2027.1033,129.0,2028.9001,2030.1065,2030.6639,2030.664,2032.4802,1218.3,2032.4805,3.0,2033.0953,6.0,3.0,183.0,2.0,1.0,1.2,0.3,Time
,,S42,1,Female,34,anonymized,Serial_Dependence_U,2023.2.3,Win32,3.157562362,,,,,,,,,,,,2033.0963,6.0,2033.097,,,,2036.6898,2037.2555,2036.098,2036.6896,2034.2604,146.0,2036.0979,2037.2556,2037.8558,2037.8558,2039.685,1230.8,2039.6854,2.0,2040.5294,6.0,4.0,184.0,14.0,1.0,1.6,0.3,Time
,,S42,1,Female,34,anonymized,Serial_Dependence_U,2023.2.3,Win32,3.157562362,,,,,,,,,,,,2040.5305,6.0,2040.5311,,,,2045.2616,2045.2617,2044.4852,2045.2614,2042.129,353.0,2044.485,2045.2617,2045.2619,2045.2619,2047.8287,838.5,2047.8292,1.0,2048.6545,6.0,5.0,185.0,9.0,1.0,1.6,0.7,Time
,,S42,1,Female,34,anonymized,Serial_Dependence_U,2023.2.3,Win32,3.157562362,,,,,,,,,,,,2048.6553,6.0,2048.656,,,,2051.0633,2051.0634,2050.2542,2051.0631,2049.4443,266.0,2050.254,2051.0634,2051.0635,2051.0636,2052.7291,2.600000024,2052.7296,1.0,2053.4785,6.0,6.0,186.0,0.0,1.0,0.8,0.3,Time
,,S42,1,Female,34,anonymized,Serial_Dependence_U,2023.2.3,Win32,3.157562362,,,,,,,,,,,,2053.4792,6.0,2053.4796,,,,2056.6862,2056.6862,2055.8814,2056.686,2054.2652,302.0,2055.8812,2056.6863,2056.6864,2056.6864,2058.3319,12.20000005,2058.3324,1.0,2059.2,6.0,7.0,187.0,7.0,1.0,1.2,0.7,Time
,,S42,1,Female,34,anonymized,Serial_Dependence_U,2023.2.3,Win32,3.157562362,,,,,,,,,,,,2059.2013,6.0,2059.202,,,,2062.5121,2062.5121,2061.6873,2062.5118,2059.9853,326.0,2061.6871,2062.5122,2062.5123,2062.5123,2064.9572,839.0,2064.9576,2.0,2065.7335,6.0,8.0,188.0,6.0,1.0,1.0,0.7,Time
,,S42,1,Female,34,anonymized,Serial_Dependence_U,2023.2.3,Win32,3.157562362,,,,,,,,,,,,2065.7343,6.0,2065.7349,,,,2068.9838,2068.9839,2068.1461,2068.9836,2066.542,315.0,2068.1456,2068.9839,2068.9841,2068.9841,2071.4376,820.7,2071.438,2.0,2072.2227,6.0,9.0,189.0,1.0,1.0,1.0,0.3,Time
,,S42,1,Female,34,anonymized,Serial_Dependence_U,2023.2.3,Win32,3.157562362,,,,,,,,,,,,2072.2239,6.0,2072.2247,,,,2075.4426,2075.4427,2074.6482,2075.4425,2073.0153,334.0,2074.6479,2075.4427,2075.4428,2075.4428,2077.061,810.6999999,2077.0615,1.0,2077.8998,6.0,10.0,190.0,4.0,1.0,1.6,0.3,Time
,,S42,1,Female,34,anonymized,Serial_Dependence_U,2023.2.3,Win32,3.157562362,,,,,,,,,,,,2077.9009,6.0,2077.9017,,,,2081.1618,2081.1619,2080.3584,2081.1616,2078.7156,125.0,2080.3582,2081.1619,2081.1621,2081.1621,2083.6112,839.5,2083.6119,2.0,2084.4091,6.0,11.0,191.0,26.0,1.0,1.0,0.7,Time
,,S42,1,Female,34,anonymized,Serial_Dependence_U,2023.2.3,Win32,3.157562362,,,,,,,,,,,,2084.4119,6.0,2084.4143,,,,2086.9109,2086.9111,2086.0684,2086.9108,2085.2333,287.0,2086.0683,2086.9111,2086.9112,2086.9113,2088.5983,0.899999976,2088.599,1.0,2089.4468,6.0,12.0,192.0,25.0,1.0,0.8,0.7,Time
,,S42,1,Female,34,anonymized,Serial_Dependence_U,2023.2.3,Win32,3.157562362,,,,,,,,,,,,2089.4477,6.0,2089.4485,,,,2092.7016,2092.7019,2091.8683,2092.7014,2090.2519,34.0,2091.8681,2092.7019,2092.7021,2092.7021,2095.17,1608.6,2095.1704,4.0,2095.9544,6.0,13.0,193.0,3.0,1.0,1.4,0.3,Time
,,S42,1,Female,34,anonymized,Serial_Dependence_U,2023.2.3,Win32,3.157562362,,,,,,,,,,,,2095.9555,6.0,2095.9563,,,,2099.2384,2099.2385,2098.4588,2099.2382,2096.8061,188.0,2098.4587,2099.2386,2099.2387,2099.2387,2100.8585,799.2,2100.8588,1.0,2101.6688,6.0,14.0,194.0,12.0,1.0,1.2,0.3,Time
,,S42,1,Female,34,anonymized,Serial_Dependence_U,2023.2.3,Win32,3.157562362,,,,,,,,,,,,2101.6699,6.0,2101.6707,,,,2104.9654,2104.9655,2104.157,2104.9652,2102.4765,251.0,2104.1569,2104.9655,2104.9657,2104.9658,2107.4115,793.7,2107.4121,1.0,2108.1739,6.0,15.0,195.0,23.0,1.0,1.4,0.3,Time
,,S42,1,Female,34,anonymized,Serial_Dependence_U,2023.2.3,Win32,3.157562362,,,,,,,,,,,,2108.1746,6.0,2108.175,,,,2110.6274,2110.6276,2109.7968,2110.6272,2108.9703,125.0,2109.7967,2110.6276,2110.6277,2110.6277,2112.229,1.699999928,2112.2293,1.0,2113.0477,6.0,16.0,196.0,20.0,1.0,0.8,0.3,Time
,,S42,1,Female,34,anonymized,Serial_Dependence_U,2023.2.3,Win32,3.157562362,,,,,,,,,,,,2113.0483,6.0,2113.0487,,,,2115.8738,2116.447,2115.2612,2115.8737,2113.8687,90.0,2115.261,2116.4471,2117.0082,2117.0084,2118.2763,634.9,2118.2767,1.0,2118.8457,6.0,17.0,197.0,16.0,1.0,1.0,0.7,Time
,,S42,1,Female,34,anonymized,Serial_Dependence_U,2023.2.3,Win32,3.157562362,,,,,,,,,,,,2118.8471,6.0,2118.8476,,,,2121.8162,2122.385,2121.1703,2121.8161,2119.9905,251.0,2121.17,2122.385,2122.9439,2122.9439,2124.1343,591.6999999,2124.1347,1.0,2124.7072,6.0,18.0,198.0,21.0,1.0,1.0,0.3,Time
,,S42,1,Female,34,anonymized,Serial_Dependence_U,2023.2.3,Win32,3.157562362,,,,,,,,,,,,2124.7079,6.0,2124.7084,,,,2127.6755,2128.2443,2127.08,2127.6752,2125.878,356.0,2127.0797,2128.2443,2128.8237,2128.8237,2131.4013,613.8000001,2131.4016,2.0,2132.0351,6.0,19.0,199.0,10.0,1.0,0.8,0.3,Time
,,S42,1,Female,34,anonymized,Serial_Dependence_U,2023.2.3,Win32,3.157562362,,,,,,,,,,,,2132.0358,6.0,2132.0361,,,,2135.002,2135.6129,2134.3875,2135.0018,2133.1864,353.0,2134.3873,2135.6129,2136.2057,2136.2059,2137.4261,605.0,2137.4266,2.0,2137.9863,6.0,20.0,200.0,15.0,1.0,0.8,0.7,Time
,,S42,1,Female,34,anonymized,Serial_Dependence_U,2023.2.3,Win32,3.157562362,,,,,,,,,,,,2137.987,6.0,2137.9876,,,,2141.5841,2142.1544,2140.9703,2141.5839,2139.1561,214.0,2140.9701,2142.1545,2142.7415,2142.7416,2144.59,647.0,2144.5905,1.0,2145.1682,6.0,21.0,201.0,18.0,1.0,1.4,0.7,Time
,,S42,1,Female,34,anonymized,Serial_Dependence_U,2023.2.3,Win32,3.157562362,,,,,,,,,,,,2145.1693,6.0,2145.1701,,,,2148.14,2148.7199,2147.5409,2148.1398,2146.3703,327.0,2147.5406,2148.7199,2149.3264,2149.3264,2149.9336,8.199999928,2149.9339,1.0,2150.4949,6.0,22.0,202.0,5.0,1.0,0.8,0.7,Time
,,S42,1,Female,34,anonymized,Serial_Dependence_U,2023.2.3,Win32,3.157562362,,,,,,,,,,,,2150.4958,6.0,2150.4965,,,,2154.0547,2154.6503,2153.4463,2154.0546,2151.6697,225.0,2153.4461,2154.6504,2155.2443,2155.2444,2156.4568,610.9,2156.4571,1.0,2157.038,6.0,23.0,203.0,24.0,1.0,1.6,0.3,Time
,,S42,1,Female,34,anonymized,Serial_Dependence_U,2023.2.3,Win32,3.157562362,,,,,,,,,,,,2157.0388,6.0,2157.0394,,,,2160.0728,2160.6723,2159.4818,2160.0726,2158.235,269.0,2159.4816,2160.6723,2161.2746,2161.2747,2162.4733,613.4,2162.4738,1.0,2163.0713,6.0,24.0,204.0,11.0,1.0,1.0,0.3,Time
,,S42,1,Female,34,anonymized,Serial_Dependence_U,2023.2.3,Win32,3.157562362,,,,,,,,,,,,2163.0723,6.0,2163.0729,,,,2166.6237,2167.1862,2166.019,2166.6234,2164.2265,17.0,2166.0186,2167.1863,2167.7391,2167.7391,2169.5595,1227.5,2169.5598,2.0,2170.1437,6.0,25.0,205.0,8.0,1.0,1.4,0.7,Time
,,S42,1,Female,34,anonymized,Serial_Dependence_U,2023.2.3,Win32,3.157562362,,,,,,,,,,,,2170.1448,6.0,2170.1488,,,,2173.752,2174.347,2173.1439,2173.7519,2171.3651,114.0,2173.1432,2174.3471,2174.9293,2174.9294,2176.1577,638.6,2176.1586,1.0,2176.7432,6.0,26.0,206.0,29.0,1.0,1.6,0.7,Time
,,S42,1,Female,34,anonymized,Serial_Dependence_U,2023.2.3,Win32,3.157562362,,,,,,,,,,,,2176.7483,6.0,2176.7489,,,,2179.7776,2180.3494,2179.136,2179.7773,2177.9185,314.0,2179.1358,2180.3495,2180.8973,2180.8975,2182.7301,595.3000001,2182.7305,1.0,2183.3082,6.0,27.0,207.0,17.0,1.0,1.2,0.7,Time
,,S42,1,Female,34,anonymized,Serial_Dependence_U,2023.2.3,Win32,3.157562362,,,,,,,,,,,,2183.3091,6.0,2183.31,,,,2186.8756,2187.4538,2186.2758,2186.8753,2184.4801,161.0,2186.2756,2187.4539,2188.0392,2188.0393,2189.2573,623.7,2189.2577,1.0,2189.8236,6.0,28.0,208.0,22.0,1.0,1.2,0.3,Time
,,S42,1,Female,34,anonymized,Serial_Dependence_U,2023.2.3,Win32,3.157562362,,,,,,,,,,,,2189.8243,6.0,2189.8248,,,,2193.3406,2193.9153,2192.7417,2193.3402,2190.9891,245.0,2192.7415,2193.9154,2194.5093,2194.5095,2195.7904,635.0,2195.7908,1.0,2196.38,6.0,29.0,209.0,19.0,1.0,1.6,0.7,Time
,,S42,1,Female,34,anonymized,Serial_Dependence_U,2023.2.3,Win32,3.157562362,,,,,,,,,,,,2196.3808,7.0,2254.5952,s,57.8395,0.001,2258.5934,2258.5935,2257.7802,2258.5932,2256.1719,137.0,2257.7799,2258.5935,2258.5936,2258.5937,2262.625,805.0,2262.6446,2.0,2263.442,7.0,0.0,210.0,26.0,1.0,1.0,0.7,Time
,,S42,1,Female,34,anonymized,Serial_Dependence_U,2023.2.3,Win32,3.157562362,,,,,,,,,,,,2263.443,7.0,2263.448,,,,2266.7546,2266.7548,2265.9212,2266.7545,2264.2597,324.0,2265.9209,2266.7548,2266.7549,2266.7551,2270.1309,866.1999999,2270.1315,2.0,2270.9261,7.0,1.0,211.0,1.0,1.0,1.0,0.3,Time
,,S42,1,Female,34,anonymized,Serial_Dependence_U,2023.2.3,Win32,3.157562362,,,,,,,,,,,,2270.9269,7.0,2270.928,,,,2274.1844,2274.1845,2273.3775,2274.1842,2271.7113,188.0,2273.3771,2274.1845,2274.1846,2274.1846,2276.7147,835.7,2276.7152,2.0,2277.4928,7.0,2.0,212.0,11.0,1.0,1.0,0.3,Time
,,S42,1,Female,34,anonymized,Serial_Dependence_U,2023.2.3,Win32,3.157562362,,,,,,,,,,,,2277.4934,7.0,2277.4939,,,,2280.8884,2280.8885,2280.023,2280.8873,2278.4059,246.0,2280.0228,2280.8885,2280.8887,2280.8888,2283.3197,1616.0,2283.3202,4.0,2284.1416,7.0,3.0,213.0,28.0,1.0,1.4,0.7,Time
,,S42,1,Female,34,anonymized,Serial_Dependence_U,2023.2.3,Win32,3.157562362,,,,,,,,,,,,2284.1424,7.0,2284.143,,,,2287.3574,2287.3576,2286.5515,2287.3572,2284.975,190.0,2286.5512,2287.3577,2287.3578,2287.3578,2289.0232,825.7,2289.0236,1.0,2289.8207,7.0,4.0,214.0,12.0,1.0,1.2,0.3,Time
,,S42,1,Female,34,anonymized,Serial_Dependence_U,2023.2.3,Win32,3.157562362,,,,,,,,,,,,2289.8218,7.0,2289.8224,,,,2293.1531,2293.1533,2292.3017,2293.1529,2290.6431,105.0,2292.3016,2293.1533,2293.1534,2293.1534,2294.8014,834.3000001,2294.8017,1.0,2295.5685,7.0,5.0,215.0,9.0,1.0,1.6,0.7,Time
,,S42,1,Female,34,anonymized,Serial_Dependence_U,2023.2.3,Win32,3.157562362,,,,,,,,,,,,2295.5693,7.0,2295.57,,,,2298.8139,2298.814,2297.9794,2298.8137,2296.3585,305.0,2297.9792,2298.814,2298.8142,2298.8142,2300.423,812.8,2300.4234,1.0,2301.1768,7.0,6.0,216.0,19.0,1.0,1.6,0.7,Time
,,S42,1,Female,34,anonymized,Serial_Dependence_U,2023.2.3,Win32,3.157562362,,,,,,,,,,,,2301.1775,7.0,2301.1783,,,,2304.4759,2304.4762,2303.6573,2304.4758,2301.9965,17.0,2303.657,2304.4762,2304.4763,2304.4763,2306.1641,799.8,2306.1646,2.0,2306.9556,7.0,7.0,217.0,6.0,1.0,1.0,0.7,Time
,,S42,1,Female,34,anonymized,Serial_Dependence_U,2023.2.3,Win32,3.157562362,,,,,,,,,,,,2306.9565,7.0,2306.9572,,,,2310.2785,2310.2786,2309.4652,2310.2783,2307.7843,87.0,2309.465,2310.2787,2310.2788,2310.2788,2311.9684,798.2,2311.9692,1.0,2312.762,7.0,8.0,218.0,22.0,1.0,1.2,0.3,Time
,,S42,1,Female,34,anonymized,Serial_Dependence_U,2023.2.3,Win32,3.157562362,,,,,,,,,,,,2312.7632,7.0,2312.764,,,,2315.2037,2315.2038,2314.4021,2315.2035,2313.5798,195.0,2314.402,2315.2038,2315.204,2315.204,2318.4162,1.200000048,2318.4167,1.0,2319.1901,7.0,9.0,219.0,25.0,1.0,0.8,0.7,Time
,,S42,1,Female,34,anonymized,Serial_Dependence_U,2023.2.3,Win32,3.157562362,,,,,,,,,,,,2319.1909,7.0,2319.1914,,,,2322.4771,2322.4772,2321.6599,2322.4769,2320.0263,68.0,2321.6596,2322.4773,2322.4774,2322.4776,2325.804,832.1,2325.8044,1.0,2326.6133,7.0,10.0,220.0,3.0,1.0,1.4,0.3,Time
,,S42,1,Female,34,anonymized,Serial_Dependence_U,2023.2.3,Win32,3.157562362,,,,,,,,,,,,2326.6142,7.0,2326.6146,,,,2329.2122,2329.7758,2328.6014,2329.212,2327.3816,196.0,2328.6013,2329.7758,2330.3731,2330.3732,2332.8016,1207.1,2332.802,3.0,2333.386,7.0,11.0,221.0,27.0,1.0,1.2,0.7,Time
,,S42,1,Female,34,anonymized,Serial_Dependence_U,2023.2.3,Win32,3.157562362,,,,,,,,,,,,2333.3868,7.0,2333.3931,,,,2336.482,2337.0774,2335.8607,2336.4817,2334.6123,224.0,2335.8606,2337.0775,2337.6956,2337.6956,2339.527,1215.5,2339.5275,3.0,2340.126,7.0,12.0,222.0,17.0,1.0,1.2,0.7,Time
,,S42,1,Female,34,anonymized,Serial_Dependence_U,2023.2.3,Win32,3.157562362,,,,,,,,,,,,2340.1274,7.0,2340.1284,,,,2343.7457,2344.3203,2343.1388,2343.7456,2341.3342,18.0,2343.1386,2344.3203,2344.8885,2344.8886,2347.3611,1218.7,2347.3614,2.0,2347.9836,7.0,13.0,223.0,29.0,1.0,1.6,0.7,Time
,,S42,1,Female,34,anonymized,Serial_Dependence_U,2023.2.3,Win32,3.157562362,,,,,,,,,,,,2347.9846,7.0,2347.9851,,,,2351.6895,2352.2874,2351.0568,2351.6893,2349.2034,55.0,2351.0566,2352.2874,2352.8474,2352.8475,2354.7196,1243.4,2354.72,2.0,2355.2939,7.0,14.0,224.0,18.0,1.0,1.4,0.7,Time
,,S42,1,Female,34,anonymized,Serial_Dependence_U,2023.2.3,Win32,3.157562362,,,,,,,,,,,,2355.2947,7.0,2355.2952,,,,2358.2923,2358.8665,2357.6772,2358.2921,2356.4742,351.0,2357.6769,2358.8666,2359.4251,2359.4252,2361.2979,624.5,2361.2984,2.0,2361.8946,7.0,15.0,225.0,5.0,1.0,0.8,0.7,Time
,,S42,1,Female,34,anonymized,Serial_Dependence_U,2023.2.3,Win32,3.157562362,,,,,,,,,,,,2361.8953,7.0,2361.8957,,,,2364.9149,2365.4928,2364.3034,2364.9147,2363.1006,181.0,2364.3032,2365.4929,2366.0813,2366.0813,2367.2929,620.1,2367.2933,2.0,2367.9,7.0,16.0,226.0,15.0,1.0,0.8,0.7,Time
,,S42,1,Female,34,anonymized,Serial_Dependence_U,2023.2.3,Win32,3.157562362,,,,,,,,,,,,2367.9007,7.0,2367.9011,,,,2371.4423,2372.038,2370.8531,2371.4422,2369.0789,68.0,2370.8528,2372.0382,2372.622,2372.6222,2374.4521,1252.2,2374.4525,2.0,2375.0543,7.0,17.0,227.0,8.0,1.0,1.4,0.7,Time
,,S42,1,Female,34,anonymized,Serial_Dependence_U,2023.2.3,Win32,3.157562362,,,,,,,,,,,,2375.0551,7.0,2375.0557,,,,2378.5973,2379.204,2377.99,2378.5972,2376.2165,73.0,2377.9898,2379.2041,2379.7604,2379.7609,2382.774,607.6999999,2382.7743,1.0,2383.4116,7.0,18.0,228.0,4.0,1.0,1.6,0.3,Time
,,S42,1,Female,34,anonymized,Serial_Dependence_U,2023.2.3,Win32,3.157562362,,,,,,,,,,,,2383.4127,7.0,2383.4135,,,,2386.4137,2386.9893,2385.8152,2386.4134,2384.5924,91.0,2385.8148,2386.9894,2387.5454,2387.5455,2388.7202,591.5,2388.7208,1.0,2389.3006,7.0,19.0,229.0,21.0,1.0,1.0,0.3,Time
,,S42,1,Female,34,anonymized,Serial_Dependence_U,2023.2.3,Win32,3.157562362,,,,,,,,,,,,2389.3014,7.0,2389.3019,,,,2392.8903,2393.4933,2392.2818,2392.89,2390.4402,115.0,2392.2813,2393.4933,2394.1055,2394.1056,2395.3186,613.9,2395.3188,1.0,2395.8843,7.0,20.0,230.0,13.0,1.0,1.4,0.3,Time
,,S42,1,Female,34,anonymized,Serial_Dependence_U,2023.2.3,Win32,3.157562362,,,,,,,,,,,,2395.8849,7.0,2395.8852,,,,2399.5339,2400.1227,2398.9346,2399.5338,2397.122,82.0,2398.9341,2400.1228,2400.6823,2400.6824,2401.8733,615.5,2401.8735,1.0,2402.469,7.0,21.0,231.0,14.0,1.0,1.6,0.3,Time
,,S42,1,Female,34,anonymized,Serial_Dependence_U,2023.2.3,Win32,3.157562362,,,,,,,,,,,,2402.4696,7.0,2402.4702,,,,2405.4875,2406.0781,2404.8749,2405.4873,2403.6484,100.0,2404.8744,2406.0781,2406.6573,2406.6575,2408.4774,1226.7,2408.4778,4.0,2409.0701,7.0,22.0,232.0,16.0,1.0,1.0,0.7,Time
,,S42,1,Female,34,anonymized,Serial_Dependence_U,2023.2.3,Win32,3.157562362,,,,,,,,,,,,2409.0709,7.0,2409.0714,,,,2412.6422,2413.2112,2412.0248,2412.642,2410.2486,63.0,2412.0245,2413.2112,2413.7804,2413.7805,2415.6085,630.0,2415.6088,1.0,2416.2052,7.0,23.0,233.0,24.0,1.0,1.6,0.3,Time
,,S42,1,Female,34,anonymized,Serial_Dependence_U,2023.2.3,Win32,3.157562362,,,,,,,,,,,,2416.2061,7.0,2416.2066,,,,2419.7564,2420.3363,2419.1529,2419.7563,2417.3846,343.0,2419.1526,2420.3363,2420.904,2420.9041,2422.705,1204.5,2422.7055,3.0,2423.2822,7.0,24.0,234.0,7.0,1.0,1.2,0.7,Time
,,S42,1,Female,34,anonymized,Serial_Dependence_U,2023.2.3,Win32,3.157562362,,,,,,,,,,,,2423.2831,7.0,2423.2838,,,,2426.3552,2426.9652,2425.7323,2426.3551,2424.5157,267.0,2425.7317,2426.9653,2427.5337,2427.5338,2428.727,585.1,2428.7274,1.0,2429.3489,7.0,25.0,235.0,2.0,1.0,1.2,0.3,Time
,,S42,1,Female,34,anonymized,Serial_Dependence_U,2023.2.3,Win32,3.157562362,,,,,,,,,,,,2429.3497,7.0,2429.3501,,,,2432.3136,2432.9067,2431.7223,2432.3135,2430.5412,207.0,2431.7218,2432.9068,2433.4747,2433.4748,2435.2784,605.2,2435.279,2.0,2435.9029,7.0,26.0,236.0,20.0,1.0,0.8,0.3,Time
,,S42,1,Female,34,anonymized,Serial_Dependence_U,2023.2.3,Win32,3.157562362,,,,,,,,,,,,2435.9037,7.0,2435.9043,,,,2438.8674,2439.467,2438.2717,2438.8673,2437.0818,212.0,2438.2713,2439.467,2440.059,2440.0591,2441.2696,617.8,2441.27,2.0,2441.8345,7.0,27.0,237.0,10.0,1.0,0.8,0.3,Time
,,S42,1,Female,34,anonymized,Serial_Dependence_U,2023.2.3,Win32,3.157562362,,,,,,,,,,,,2441.8353,7.0,2441.8359,,,,2445.3485,2446.0525,2444.7408,2445.3483,2442.9816,35.0,2444.7405,2446.0525,2446.9142,2446.9142,2447.7799,12.5,2447.7803,1.0,2448.6075,7.0,28.0,238.0,23.0,1.0,1.4,0.3,Time
,,S42,1,Female,34,anonymized,Serial_Dependence_U,2023.2.3,Win32,3.157562362,,,,,,,,,,,,2448.6089,7.0,2448.6099,,,,2451.1129,2451.113,2450.2954,2451.1127,2449.4434,122.0,2450.2952,2451.1131,2451.1132,2451.1132,2455.9033,834.0,2455.9038,3.0,2456.7028,7.0,29.0,239.0,0.0,1.0,0.8,0.3,Time
,,S42,1,Female,34,anonymized,Serial_Dependence_U,2023.2.3,Win32,3.157562362,,,,,,,,,,,,2456.7038,8.0,2474.1261,s,16.9846,,2477.3421,2477.3423,2476.533,2477.3419,2475.6911,203.0,2476.5328,2477.3423,2477.3425,2477.3425,2478.9714,807.8000001,2478.9718,3.0,2479.7687,8.0,0.0,240.0,20.0,1.0,0.8,0.3,Time
,,S42,1,Female,34,anonymized,Serial_Dependence_U,2023.2.3,Win32,3.157562362,,,,,,,,,,,,2479.7694,8.0,2479.773,,,,2483.0868,2483.0869,2482.2151,2483.0867,2480.5703,139.0,2482.2149,2483.0869,2483.0871,2483.0871,2485.5165,850.5,2485.517,2.0,2486.2938,8.0,1.0,241.0,11.0,1.0,1.0,0.3,Time
,,S42,1,Female,34,anonymized,Serial_Dependence_U,2023.2.3,Win32,3.157562362,,,,,,,,,,,,2486.295,8.0,2486.2956,,,,2489.5268,2489.527,2488.7062,2489.5267,2487.0885,138.0,2488.706,2489.527,2489.5271,2489.5272,2491.1512,801.0,2491.1517,1.0,2491.9771,8.0,2.0,242.0,2.0,1.0,1.2,0.3,Time
,,S42,1,Female,34,anonymized,Serial_Dependence_U,2023.2.3,Win32,3.157562362,,,,,,,,,,,,2491.9779,8.0,2491.9784,,,,2495.2248,2495.2249,2494.4187,2495.2246,2492.7961,201.0,2494.4185,2495.2249,2495.2251,2495.2251,2497.6861,6.699999928,2497.6866,1.0,2498.4681,8.0,3.0,243.0,28.0,1.0,1.4,0.7,Time
,,S42,1,Female,34,anonymized,Serial_Dependence_U,2023.2.3,Win32,3.157562362,,,,,,,,,,,,2498.4689,8.0,2498.47,,,,2501.7004,2501.7006,2500.9002,2501.7003,2499.2546,109.0,2500.8999,2501.7006,2501.7007,2501.7008,2504.1584,809.1,2504.1588,1.0,2504.968,8.0,4.0,244.0,7.0,1.0,1.2,0.7,Time
,,S42,1,Female,34,anonymized,Serial_Dependence_U,2023.2.3,Win32,3.157562362,,,,,,,,,,,,2504.9687,8.0,2504.9692,,,,2508.1772,2508.1773,2507.3216,2508.177,2505.7473,128.0,2507.3215,2508.1774,2508.1775,2508.1775,2510.6124,1604.0,2510.6128,5.0,2511.5073,8.0,5.0,245.0,1.0,1.0,1.0,0.3,Time
,,S42,1,Female,34,anonymized,Serial_Dependence_U,2023.2.3,Win32,3.157562362,,,,,,,,,,,,2511.5082,8.0,2511.5087,,,,2514.7079,2514.708,2513.8824,2514.7077,2512.304,258.0,2513.8822,2514.708,2514.7082,2514.7082,2516.3335,823.7,2516.3339,3.0,2517.1322,8.0,6.0,246.0,10.0,1.0,0.8,0.3,Time
,,S42,1,Female,34,anonymized,Serial_Dependence_U,2023.2.3,Win32,3.157562362,,,,,,,,,,,,2517.133,8.0,2517.1336,,,,2520.3776,2520.3776,2519.5577,2520.3774,2517.9227,301.0,2519.5574,2520.3777,2520.3778,2520.3778,2522.0358,828.2,2522.0365,2.0,2522.8055,8.0,7.0,247.0,21.0,1.0,1.0,0.3,Time
,,S42,1,Female,34,anonymized,Serial_Dependence_U,2023.2.3,Win32,3.157562362,,,,,,,,,,,,2522.8063,8.0,2522.8069,,,,2525.166,2525.7322,2524.5783,2525.1659,2523.3886,143.0,2524.5782,2525.7323,2526.2769,2526.2771,2527.4553,601.5,2527.4556,2.0,2528.0376,8.0,8.0,248.0,25.0,1.0,0.8,0.7,Time
,,S42,1,Female,34,anonymized,Serial_Dependence_U,2023.2.3,Win32,3.157562362,,,,,,,,,,,,2528.0383,8.0,2528.0388,,,,2531.609,2532.1905,2530.9847,2531.6088,2529.2164,224.0,2530.9843,2532.1905,2532.7552,2532.7553,2534.5599,1197.7,2534.5603,2.0,2535.1361,8.0,9.0,249.0,14.0,1.0,1.6,0.3,Time
,,S42,1,Female,34,anonymized,Serial_Dependence_U,2023.2.3,Win32,3.157562362,,,,,,,,,,,,2535.137,8.0,2535.1376,,,,2538.62,2539.2048,2537.9978,2538.6198,2536.2635,160.0,2537.9975,2539.2049,2539.773,2539.773,2541.6059,1247.7,2541.6063,2.0,2542.2041,8.0,10.0,250.0,23.0,1.0,1.4,0.3,Time
,,S42,1,Female,34,anonymized,Serial_Dependence_U,2023.2.3,Win32,3.157562362,,,,,,,,,,,,2542.2048,8.0,2542.2053,,,,2545.8173,2546.3936,2545.1797,2545.8171,2543.3897,56.0,2545.1794,2546.3936,2546.9873,2546.9874,2548.8481,1228.5,2548.8488,2.0,2549.4412,8.0,11.0,251.0,13.0,1.0,1.4,0.3,Time
,,S42,1,Female,34,anonymized,Serial_Dependence_U,2023.2.3,Win32,3.157562362,,,,,,,,,,,,2549.442,8.0,2549.4426,,,,2552.411,2552.9757,2551.7825,2552.4109,2550.6197,331.0,2551.7823,2552.9757,2553.5796,2553.5796,2555.976,581.1999999,2555.9763,1.0,2556.5718,8.0,12.0,252.0,26.0,1.0,1.0,0.7,Time
,,S42,1,Female,34,anonymized,Serial_Dependence_U,2023.2.3,Win32,3.157562362,,,,,,,,,,,,2556.5725,8.0,2556.5729,,,,2559.5504,2560.1461,2558.9522,2559.5503,2557.7501,21.0,2558.9519,2560.1461,2560.7005,2560.7005,2561.2879,4.100000024,2561.2883,1.0,2561.8538,8.0,13.0,253.0,6.0,1.0,1.0,0.7,Time
,,S42,1,Female,34,anonymized,Serial_Dependence_U,2023.2.3,Win32,3.157562362,,,,,,,,,,,,2561.8546,8.0,2561.8551,,,,2564.8227,2565.402,2564.2145,2564.8225,2563.0263,60.0,2564.2143,2565.4021,2565.9793,2565.9794,2566.6176,7.900000095,2566.618,1.0,2567.2138,8.0,14.0,254.0,5.0,1.0,0.8,0.7,Time
,,S42,1,Female,34,anonymized,Serial_Dependence_U,2023.2.3,Win32,3.157562362,,,,,,,,,,,,2567.2145,8.0,2567.2151,,,,2570.7889,2571.3662,2570.1682,2570.7887,2568.3718,38.0,2570.1678,2571.3663,2571.9485,2571.9486,2573.7469,1207.8,2573.7476,3.0,2574.3662,8.0,15.0,255.0,27.0,1.0,1.2,0.7,Time
,,S42,1,Female,34,anonymized,Serial_Dependence_U,2023.2.3,Win32,3.157562362,,,,,,,,,,,,2574.3687,8.0,2574.3696,,,,2577.401,2577.9682,2576.7997,2577.4008,2575.5881,15.0,2576.7995,2577.9682,2578.559,2578.559,2579.1484,3.600000024,2579.1487,1.0,2579.7256,8.0,16.0,256.0,15.0,1.0,0.8,0.7,Time
,,S42,1,Female,34,anonymized,Serial_Dependence_U,2023.2.3,Win32,3.157562362,,,,,,,,,,,,2579.7264,8.0,2579.7269,,,,2583.2916,2583.8592,2582.6958,2583.2913,2580.8763,218.0,2582.6954,2583.8593,2584.4356,2584.4358,2585.6822,588.4,2585.6827,1.0,2586.2825,8.0,17.0,257.0,24.0,1.0,1.6,0.3,Time
,,S42,1,Female,34,anonymized,Serial_Dependence_U,2023.2.3,Win32,3.157562362,,,,,,,,,,,,2586.2832,8.0,2586.2839,,,,2589.8196,2590.3969,2589.2237,2589.8195,2587.43,61.0,2589.2235,2590.3969,2590.9413,2590.9414,2592.7609,1230.8,2592.7612,2.0,2593.3959,8.0,18.0,258.0,9.0,1.0,1.6,0.7,Time
,,S42,1,Female,34,anonymized,Serial_Dependence_U,2023.2.3,Win32,3.157562362,,,,,,,,,,,,2593.402,8.0,2593.4023,,,,2596.4369,2597.0069,2595.8344,2596.4367,2594.5948,242.0,2595.8343,2597.0069,2597.5951,2597.5951,2599.3745,1169.6,2599.3749,3.0,2599.9497,8.0,19.0,259.0,17.0,1.0,1.2,0.7,Time
,,S42,1,Female,34,anonymized,Serial_Dependence_U,2023.2.3,Win32,3.157562362,,,,,,,,,,,,2599.9507,8.0,2599.9514,,,,2603.5046,2604.0766,2602.8945,2603.5045,2601.0686,293.0,2602.8943,2604.0767,2604.6303,2604.6304,2606.3886,604.8,2606.3889,1.0,2607.0076,8.0,20.0,260.0,18.0,1.0,1.4,0.7,Time
,,S42,1,Female,34,anonymized,Serial_Dependence_U,2023.2.3,Win32,3.157562362,,,,,,,,,,,,2607.0127,8.0,2607.0131,,,,2610.0254,2610.6409,2609.4236,2610.0253,2608.2015,30.0,2609.4235,2610.6409,2611.2308,2611.2309,2612.4757,629.2,2612.4761,2.0,2613.0793,8.0,21.0,261.0,0.0,1.0,0.8,0.3,Time
,,S42,1,Female,34,anonymized,Serial_Dependence_U,2023.2.3,Win32,3.157562362,,,,,,,,,,,,2613.08,8.0,2613.0804,,,,2616.0627,2616.6707,2615.4513,2616.0625,2614.26,9.0,2615.4509,2616.6708,2617.2327,2617.2327,2618.4362,606.8,2618.4365,1.0,2619.0594,8.0,22.0,262.0,16.0,1.0,1.0,0.7,Time
,,S42,1,Female,34,anonymized,Serial_Dependence_U,2023.2.3,Win32,3.157562362,,,,,,,,,,,,2619.0639,8.0,2619.0643,,,,2622.5855,2623.1766,2621.9865,2622.5853,2620.2342,250.0,2621.9861,2623.1767,2623.7585,2623.7586,2625.5751,1185.9,2625.5755,2.0,2626.1575,8.0,23.0,263.0,19.0,1.0,1.6,0.7,Time
,,S42,1,Female,34,anonymized,Serial_Dependence_U,2023.2.3,Win32,3.157562362,,,,,,,,,,,,2626.1587,8.0,2626.1596,,,,2629.7354,2630.3105,2629.1451,2629.7353,2627.3296,325.0,2629.1449,2630.3106,2630.8619,2630.862,2633.2657,1222.3,2633.266,2.0,2633.8629,8.0,24.0,264.0,3.0,1.0,1.4,0.3,Time
,,S42,1,Female,34,anonymized,Serial_Dependence_U,2023.2.3,Win32,3.157562362,,,,,,,,,,,,2633.8635,8.0,2633.8638,,,,2636.8118,2637.3791,2636.2062,2636.8117,2634.9992,34.0,2636.206,2637.3791,2637.9408,2637.9409,2639.7631,652.1,2639.7643,1.0,2640.3609,8.0,25.0,265.0,12.0,1.0,1.2,0.3,Time
,,S42,1,Female,34,anonymized,Serial_Dependence_U,2023.2.3,Win32,3.157562362,,,,,,,,,,,,2640.3624,8.0,2640.3632,,,,2643.7153,2643.7154,2642.8874,2643.7151,2641.5092,321.0,2642.8872,2643.7154,2643.7155,2643.7155,2645.3505,2.699999928,2645.351,1.0,2646.1368,8.0,26.0,266.0,22.0,1.0,1.2,0.3,Time
,,S42,1,Female,34,anonymized,Serial_Dependence_U,2023.2.3,Win32,3.157562362,,,,,,,,,,,,2646.1375,8.0,2646.1378,,,,2650.1661,2650.1663,2649.369,2650.1658,2646.962,257.0,2649.3687,2650.1663,2650.1664,2650.1664,2652.6519,856.4,2652.6524,1.0,2653.4262,8.0,27.0,267.0,4.0,1.0,1.6,0.3,Time
,,S42,1,Female,34,anonymized,Serial_Dependence_U,2023.2.3,Win32,3.157562362,,,,,,,,,,,,2653.4271,8.0,2653.4276,,,,2656.7422,2656.7424,2655.8943,2656.742,2654.2275,92.0,2655.894,2656.7424,2656.7425,2656.7425,2660.0046,850.6,2660.0052,1.0,2660.8143,8.0,28.0,268.0,8.0,1.0,1.4,0.7,Time
,,S42,1,Female,34,anonymized,Serial_Dependence_U,2023.2.3,Win32,3.157562362,,,,,,,,,,,,2660.8153,8.0,2660.8158,,,,2664.007,2664.0071,2663.2148,2664.0069,2661.6025,327.0,2663.2145,2664.0071,2664.0072,2664.0073,2664.8657,1.400000095,2664.866,1.0,2665.6952,8.0,29.0,269.0,29.0,1.0,1.6,0.7,Time
