Scale_setup.started,Scale_setup.stopped,participant,session,sex,age,date,expName,psychopyVersion,OS,frameRate,screen_scale_keys.started,screen_scale_keys.stopped,X Scale,Y Scale,rectangel_keys.started,rectangel_keys.stopped,Intro.started,Intro.stopped,key_resp_2.keys,key_resp_2.rt,key_resp_2.duration,block.started,Block_id,block.stopped,Block_resp_2.keys,Block_resp_2.rt,Block_resp_2.duration,ITI.started,ITI.stopped,Mask_2.started,Mask_2.stopped,M2.started,direction,M2.stopped,Cue.started,Cue.stopped,Response.started,Response.stopped,keyDuration,Feedback_Time.started,FeedbackID_T,Feedback_Time.stopped,trials.thisRepN,trials.thisTrialN,trials.thisN,trials.thisIndex,trials.ran,TimeDur,Coherence1,TrialType
0.001,0.001,S43,1,Male,25,anonymized,Serial_Dependence_U,2023.2.3,Win32,29.94011976,,,,,,,,,,,,,,,,,,,,,,,,,,,,,,,,,,,,,,,,
,,S43,1,Male,25,anonymized,Serial_Dependence_U,2023.2.3,Win32,29.94011976,0.004,406.811,0.0499,0.0423,406.812,425.536,425.537,484.82,space,59.203,,,,,,,,,,,,,,,,,,,,,,,,,,,,,,
,,S43,1,Male,25,anonymized,Serial_Dependence_U,2023.2.3,Win32,29.94011976,,,,,,,,,,,,484.833,0.0,494.078,s,9.197,,496.453,496.921,495.92,496.453,495.1,296.0,495.92,496.921,497.418,497.419,502.237,909.0,502.237,4.0,503.231,0.0,0.0,0.0,5.0,1.0,0.8,0.7,Time
,,S43,1,Male,25,anonymized,Serial_Dependence_U,2023.2.3,Win32,29.94011976,,,,,,,,,,,,503.231,0.0,503.235,,,,505.6,506.067,505.086,505.6,504.244,281.0,505.086,506.067,506.538,506.538,506.798,211.0,506.799,1.0,507.805,0.0,1.0,1.0,20.0,1.0,0.8,0.3,Time
,,S43,1,Male,25,anonymized,Serial_Dependence_U,2023.2.3,Win32,29.94011976,,,,,,,,,,,,507.806,0.0,507.806,,,,510.579,511.077,510.054,510.579,508.852,295.0,510.054,511.077,511.578,511.578,517.598,9999.0,517.598,0.0,518.584,0.0,2.0,2.0,12.0,1.0,1.2,0.3,Time
,,S43,1,Male,25,anonymized,Serial_Dependence_U,2023.2.3,Win32,29.94011976,,,,,,,,,,,,518.585,0.0,518.585,,,,521.569,522.032,521.048,521.568,519.626,126.0,521.048,522.032,522.518,522.518,526.037,1350.0,526.038,3.0,527.02,0.0,3.0,3.0,28.0,1.0,1.4,0.7,Time
,,S43,1,Male,25,anonymized,Serial_Dependence_U,2023.2.3,Win32,29.94011976,,,,,,,,,,,,527.02,0.0,527.021,,,,529.814,530.31,529.287,529.814,528.039,227.0,529.287,530.31,530.801,530.801,532.995,1159.0,532.996,3.0,534.008,0.0,4.0,4.0,2.0,1.0,1.2,0.3,Time
,,S43,1,Male,25,anonymized,Serial_Dependence_U,2023.2.3,Win32,29.94011976,,,,,,,,,,,,534.008,0.0,534.009,,,,536.939,537.427,536.42,536.939,535.013,298.0,536.42,537.427,537.925,537.925,540.721,759.0,540.722,1.0,541.724,0.0,5.0,5.0,13.0,1.0,1.4,0.3,Time
,,S43,1,Male,25,anonymized,Serial_Dependence_U,2023.2.3,Win32,29.94011976,,,,,,,,,,,,541.725,0.0,541.725,,,,544.709,545.22,544.189,544.709,542.742,252.0,544.189,545.22,545.736,545.736,547.788,988.0,547.788,2.0,548.771,0.0,6.0,6.0,18.0,1.0,1.4,0.7,Time
,,S43,1,Male,25,anonymized,Serial_Dependence_U,2023.2.3,Win32,29.94011976,,,,,,,,,,,,548.772,0.0,548.772,,,,551.73,552.195,551.212,551.729,549.779,290.0,551.212,552.195,552.692,552.692,554.829,829.0,554.829,1.0,555.808,0.0,7.0,7.0,3.0,1.0,1.4,0.3,Time
,,S43,1,Male,25,anonymized,Serial_Dependence_U,2023.2.3,Win32,29.94011976,,,,,,,,,,,,555.809,0.0,555.809,,,,558.358,558.811,557.809,558.358,556.801,276.0,557.809,558.811,559.27,559.27,562.233,863.0,562.234,2.0,563.207,0.0,8.0,8.0,1.0,1.0,1.0,0.3,Time
,,S43,1,Male,25,anonymized,Serial_Dependence_U,2023.2.3,Win32,29.94011976,,,,,,,,,,,,563.208,0.0,563.208,,,,565.768,566.261,565.243,565.768,564.22,194.0,565.243,566.261,566.737,566.737,566.964,175.0,566.965,1.0,567.997,0.0,9.0,9.0,21.0,1.0,1.0,0.3,Time
,,S43,1,Male,25,anonymized,Serial_Dependence_U,2023.2.3,Win32,29.94011976,,,,,,,,,,,,567.997,0.0,567.997,,,,570.804,571.307,570.287,570.804,569.041,167.0,570.287,571.307,571.803,571.803,573.963,2105.0,573.963,5.0,574.935,0.0,10.0,10.0,22.0,1.0,1.2,0.3,Time
,,S43,1,Male,25,anonymized,Serial_Dependence_U,2023.2.3,Win32,29.94011976,,,,,,,,,,,,574.936,0.0,574.936,,,,577.657,578.137,577.153,577.657,575.935,237.0,577.153,578.137,578.634,578.634,581.039,2359.0,581.04,5.0,582.024,0.0,11.0,11.0,17.0,1.0,1.2,0.7,Time
,,S43,1,Male,25,anonymized,Serial_Dependence_U,2023.2.3,Win32,29.94011976,,,,,,,,,,,,582.024,0.0,582.025,,,,584.569,585.059,584.054,584.568,583.026,130.0,584.054,585.059,585.569,585.569,587.815,1029.0,587.815,3.0,588.798,0.0,12.0,12.0,6.0,1.0,1.0,0.7,Time
,,S43,1,Male,25,anonymized,Serial_Dependence_U,2023.2.3,Win32,29.94011976,,,,,,,,,,,,588.798,0.0,588.799,,,,591.537,592.019,591.02,591.537,589.81,291.0,591.019,592.019,592.505,592.505,595.956,3400.0,595.957,5.0,596.926,0.0,13.0,13.0,7.0,1.0,1.2,0.7,Time
,,S43,1,Male,25,anonymized,Serial_Dependence_U,2023.2.3,Win32,29.94011976,,,,,,,,,,,,596.927,0.0,596.927,,,,599.741,600.217,599.21,599.741,597.973,276.0,599.21,600.217,600.69,600.69,604.625,2525.0,604.625,5.0,605.627,0.0,14.0,14.0,27.0,1.0,1.2,0.7,Time
,,S43,1,Male,25,anonymized,Serial_Dependence_U,2023.2.3,Win32,29.94011976,,,,,,,,,,,,605.627,0.0,605.627,,,,608.791,609.3,608.274,608.791,606.644,196.0,608.274,609.3,609.793,609.793,611.657,1440.0,611.658,2.0,612.65,0.0,15.0,15.0,4.0,1.0,1.6,0.3,Time
,,S43,1,Male,25,anonymized,Serial_Dependence_U,2023.2.3,Win32,29.94011976,,,,,,,,,,,,612.65,0.0,612.651,,,,615.164,615.665,614.63,615.164,613.624,223.0,614.629,615.665,616.146,616.146,617.201,156.0,617.201,1.0,618.21,0.0,16.0,16.0,16.0,1.0,1.0,0.7,Time
,,S43,1,Male,25,anonymized,Serial_Dependence_U,2023.2.3,Win32,29.94011976,,,,,,,,,,,,618.211,0.0,618.211,,,,620.555,621.064,620.043,620.555,619.205,111.0,620.042,621.064,621.561,621.561,624.603,2029.0,624.604,5.0,625.602,0.0,17.0,17.0,10.0,1.0,0.8,0.3,Time
,,S43,1,Male,25,anonymized,Serial_Dependence_U,2023.2.3,Win32,29.94011976,,,,,,,,,,,,625.602,0.0,625.603,,,,627.933,628.449,627.413,627.933,626.594,213.0,627.412,628.449,628.934,628.934,631.397,51.0,631.397,1.0,632.378,0.0,18.0,18.0,0.0,1.0,0.8,0.3,Time
,,S43,1,Male,25,anonymized,Serial_Dependence_U,2023.2.3,Win32,29.94011976,,,,,,,,,,,,632.379,0.0,632.379,,,,635.575,636.071,635.051,635.574,633.415,127.0,635.051,636.071,636.561,636.561,638.405,1327.0,638.406,2.0,639.385,0.0,19.0,19.0,9.0,1.0,1.6,0.7,Time
,,S43,1,Male,25,anonymized,Serial_Dependence_U,2023.2.3,Win32,29.94011976,,,,,,,,,,,,639.386,0.0,639.386,,,,641.962,642.454,641.442,641.961,640.401,66.0,641.442,642.454,642.952,642.952,644.834,412.0,644.834,1.0,646.225,0.0,20.0,20.0,26.0,1.0,1.0,0.7,Time
,,S43,1,Male,25,anonymized,Serial_Dependence_U,2023.2.3,Win32,29.94011976,,,,,,,,,,,,646.226,0.0,646.226,,,,651.72,652.222,651.206,651.72,649.587,211.0,651.206,652.222,652.719,652.719,656.532,1971.0,656.533,4.0,657.527,0.0,21.0,21.0,14.0,1.0,1.6,0.3,Time
,,S43,1,Male,25,anonymized,Serial_Dependence_U,2023.2.3,Win32,29.94011976,,,,,,,,,,,,657.528,0.0,657.528,,,,660.691,661.207,660.182,660.691,658.561,353.0,660.182,661.207,661.7,661.7,664.925,2602.0,664.926,5.0,665.917,0.0,22.0,22.0,29.0,1.0,1.6,0.7,Time
,,S43,1,Male,25,anonymized,Serial_Dependence_U,2023.2.3,Win32,29.94011976,,,,,,,,,,,,665.918,0.0,665.918,,,,668.866,669.37,668.36,668.865,666.927,246.0,668.36,669.37,669.887,669.887,672.019,1598.0,672.021,4.0,673.006,0.0,23.0,23.0,23.0,1.0,1.4,0.3,Time
,,S43,1,Male,25,anonymized,Serial_Dependence_U,2023.2.3,Win32,29.94011976,,,,,,,,,,,,673.006,0.0,673.007,,,,676.13,676.62,675.613,676.13,673.976,198.0,675.613,676.62,677.091,677.091,677.883,746.0,677.884,1.0,678.883,0.0,24.0,24.0,24.0,1.0,1.6,0.3,Time
,,S43,1,Male,25,anonymized,Serial_Dependence_U,2023.2.3,Win32,29.94011976,,,,,,,,,,,,678.884,0.0,678.884,,,,682.053,682.544,681.549,682.053,679.898,257.0,681.549,682.544,683.044,683.044,684.523,1192.0,684.523,2.0,685.505,0.0,25.0,25.0,19.0,1.0,1.6,0.7,Time
,,S43,1,Male,25,anonymized,Serial_Dependence_U,2023.2.3,Win32,29.94011976,,,,,,,,,,,,685.505,0.0,685.506,,,,687.889,688.362,687.374,687.888,686.527,120.0,687.374,688.362,688.842,688.842,690.764,1057.0,690.764,5.0,691.731,0.0,26.0,26.0,15.0,1.0,0.8,0.7,Time
,,S43,1,Male,25,anonymized,Serial_Dependence_U,2023.2.3,Win32,29.94011976,,,,,,,,,,,,691.732,0.0,691.732,,,,694.134,694.633,693.604,694.134,692.764,223.0,693.604,694.633,695.115,695.115,696.854,908.0,696.855,4.0,697.837,0.0,27.0,27.0,25.0,1.0,0.8,0.7,Time
,,S43,1,Male,25,anonymized,Serial_Dependence_U,2023.2.3,Win32,29.94011976,,,,,,,,,,,,697.838,0.0,697.838,,,,700.81,701.305,700.298,700.81,698.847,125.0,700.298,701.305,701.801,701.801,702.806,607.0,702.806,1.0,703.783,0.0,28.0,28.0,8.0,1.0,1.4,0.7,Time
,,S43,1,Male,25,anonymized,Serial_Dependence_U,2023.2.3,Win32,29.94011976,,,,,,,,,,,,703.783,0.0,703.784,,,,706.396,706.862,705.847,706.396,704.8,246.0,705.847,706.862,707.352,707.352,709.297,1184.0,709.298,4.0,710.284,0.0,29.0,29.0,11.0,1.0,1.0,0.3,Time
,,S43,1,Male,25,anonymized,Serial_Dependence_U,2023.2.3,Win32,29.94011976,,,,,,,,,,,,710.284,1.0,719.129,s,8.789,,722.129,722.605,721.588,722.129,720.136,92.0,721.588,722.605,723.088,723.088,724.915,1206.0,724.915,2.0,725.9,1.0,0.0,30.0,3.0,1.0,1.4,0.3,Time
,,S43,1,Male,25,anonymized,Serial_Dependence_U,2023.2.3,Win32,29.94011976,,,,,,,,,,,,725.901,1.0,725.904,,,,728.866,729.365,728.331,728.866,726.916,355.0,728.331,729.365,729.866,729.866,731.492,1122.0,731.493,2.0,732.474,1.0,1.0,31.0,13.0,1.0,1.4,0.3,Time
,,S43,1,Male,25,anonymized,Serial_Dependence_U,2023.2.3,Win32,29.94011976,,,,,,,,,,,,732.475,1.0,732.475,,,,734.851,735.319,734.32,734.851,733.495,183.0,734.32,735.319,735.806,735.807,737.141,770.0,737.142,3.0,738.134,1.0,2.0,32.0,5.0,1.0,0.8,0.7,Time
,,S43,1,Male,25,anonymized,Serial_Dependence_U,2023.2.3,Win32,29.94011976,,,,,,,,,,,,738.135,1.0,738.135,,,,740.899,741.394,740.381,740.899,739.139,328.0,740.381,741.394,741.895,741.895,742.769,715.0,742.77,1.0,743.749,1.0,3.0,33.0,12.0,1.0,1.2,0.3,Time
,,S43,1,Male,25,anonymized,Serial_Dependence_U,2023.2.3,Win32,29.94011976,,,,,,,,,,,,743.75,1.0,743.75,,,,746.292,746.767,745.782,746.292,744.748,205.0,745.781,746.767,747.269,747.269,747.524,208.0,747.526,1.0,748.523,1.0,4.0,34.0,16.0,1.0,1.0,0.7,Time
,,S43,1,Male,25,anonymized,Serial_Dependence_U,2023.2.3,Win32,29.94011976,,,,,,,,,,,,748.524,1.0,748.524,,,,751.296,751.796,750.77,751.296,749.536,156.0,750.77,751.796,752.289,752.289,757.43,1554.0,757.43,4.0,758.411,1.0,5.0,35.0,17.0,1.0,1.2,0.7,Time
,,S43,1,Male,25,anonymized,Serial_Dependence_U,2023.2.3,Win32,29.94011976,,,,,,,,,,,,758.412,1.0,758.412,,,,761.174,761.653,760.656,761.174,759.424,199.0,760.656,761.653,762.147,762.148,764.269,1106.0,764.269,2.0,765.263,1.0,6.0,36.0,7.0,1.0,1.2,0.7,Time
,,S43,1,Male,25,anonymized,Serial_Dependence_U,2023.2.3,Win32,29.94011976,,,,,,,,,,,,765.263,1.0,765.264,,,,768.402,768.892,767.892,768.401,766.274,334.0,767.892,768.892,769.386,769.386,770.877,783.0,770.877,1.0,771.856,1.0,7.0,37.0,19.0,1.0,1.6,0.7,Time
,,S43,1,Male,25,anonymized,Serial_Dependence_U,2023.2.3,Win32,29.94011976,,,,,,,,,,,,771.857,1.0,771.857,,,,774.216,774.681,773.677,774.216,772.859,179.0,773.677,774.681,775.183,775.183,776.722,1039.0,776.722,4.0,777.703,1.0,8.0,38.0,10.0,1.0,0.8,0.3,Time
,,S43,1,Male,25,anonymized,Serial_Dependence_U,2023.2.3,Win32,29.94011976,,,,,,,,,,,,777.703,1.0,777.704,,,,780.633,781.143,780.121,780.633,778.704,148.0,780.119,781.143,781.642,781.642,782.643,953.0,782.644,1.0,783.649,1.0,9.0,39.0,18.0,1.0,1.4,0.7,Time
,,S43,1,Male,25,anonymized,Serial_Dependence_U,2023.2.3,Win32,29.94011976,,,,,,,,,,,,783.649,1.0,783.649,,,,786.826,787.325,786.301,786.826,784.659,198.0,786.301,787.325,787.816,787.816,789.713,1389.0,789.713,2.0,790.689,1.0,10.0,40.0,24.0,1.0,1.6,0.3,Time
,,S43,1,Male,25,anonymized,Serial_Dependence_U,2023.2.3,Win32,29.94011976,,,,,,,,,,,,790.689,1.0,790.69,,,,793.263,793.771,792.747,793.263,791.704,299.0,792.747,793.771,794.278,794.278,795.617,985.0,795.618,3.0,796.622,1.0,11.0,41.0,6.0,1.0,1.0,0.7,Time
,,S43,1,Male,25,anonymized,Serial_Dependence_U,2023.2.3,Win32,29.94011976,,,,,,,,,,,,796.623,1.0,796.623,,,,799.575,800.076,799.062,799.575,797.645,145.0,799.062,800.076,800.577,800.577,801.503,504.0,801.503,1.0,802.489,1.0,12.0,42.0,8.0,1.0,1.4,0.7,Time
,,S43,1,Male,25,anonymized,Serial_Dependence_U,2023.2.3,Win32,29.94011976,,,,,,,,,,,,802.489,1.0,802.49,,,,805.064,805.57,804.529,805.064,803.512,240.0,804.528,805.57,806.069,806.069,807.655,978.0,807.656,3.0,808.67,1.0,13.0,43.0,1.0,1.0,1.0,0.3,Time
,,S43,1,Male,25,anonymized,Serial_Dependence_U,2023.2.3,Win32,29.94011976,,,,,,,,,,,,808.671,1.0,808.671,,,,811.227,811.692,810.7,811.226,809.668,217.0,810.7,811.692,812.189,812.189,812.437,155.0,812.437,1.0,813.414,1.0,14.0,44.0,11.0,1.0,1.0,0.3,Time
,,S43,1,Male,25,anonymized,Serial_Dependence_U,2023.2.3,Win32,29.94011976,,,,,,,,,,,,813.415,1.0,813.415,,,,816.143,816.651,815.642,816.143,814.41,310.0,815.642,816.651,817.148,817.148,817.766,567.0,817.766,1.0,818.744,1.0,15.0,45.0,2.0,1.0,1.2,0.3,Time
,,S43,1,Male,25,anonymized,Serial_Dependence_U,2023.2.3,Win32,29.94011976,,,,,,,,,,,,818.745,1.0,818.745,,,,821.711,822.176,821.185,821.711,819.772,245.0,821.184,822.176,822.668,822.668,823.415,570.0,823.415,1.0,824.381,1.0,16.0,46.0,23.0,1.0,1.4,0.3,Time
,,S43,1,Male,25,anonymized,Serial_Dependence_U,2023.2.3,Win32,29.94011976,,,,,,,,,,,,824.382,1.0,824.382,,,,827.124,827.621,826.609,827.124,825.389,10.0,826.609,827.621,828.124,828.124,828.638,350.0,828.638,1.0,829.616,1.0,17.0,47.0,27.0,1.0,1.2,0.7,Time
,,S43,1,Male,25,anonymized,Serial_Dependence_U,2023.2.3,Win32,29.94011976,,,,,,,,,,,,829.617,1.0,829.617,,,,832.027,832.501,831.498,832.027,830.668,332.0,831.498,832.501,833.004,833.004,834.983,710.0,834.983,2.0,835.964,1.0,18.0,48.0,15.0,1.0,0.8,0.7,Time
,,S43,1,Male,25,anonymized,Serial_Dependence_U,2023.2.3,Win32,29.94011976,,,,,,,,,,,,835.964,1.0,835.965,,,,838.722,839.204,838.201,838.722,836.972,22.0,838.201,839.204,839.722,839.723,845.736,9999.0,845.737,0.0,846.725,1.0,19.0,49.0,22.0,1.0,1.2,0.3,Time
,,S43,1,Male,25,anonymized,Serial_Dependence_U,2023.2.3,Win32,29.94011976,,,,,,,,,,,,846.726,1.0,846.727,,,,849.873,850.337,849.355,849.873,847.737,273.0,849.355,850.337,850.838,850.839,854.335,926.0,854.335,1.0,855.317,1.0,20.0,50.0,4.0,1.0,1.6,0.3,Time
,,S43,1,Male,25,anonymized,Serial_Dependence_U,2023.2.3,Win32,29.94011976,,,,,,,,,,,,855.317,1.0,855.318,,,,857.663,858.143,857.135,857.663,856.322,66.0,857.135,858.143,858.627,858.627,859.834,880.0,859.834,4.0,860.839,1.0,21.0,51.0,20.0,1.0,0.8,0.3,Time
,,S43,1,Male,25,anonymized,Serial_Dependence_U,2023.2.3,Win32,29.94011976,,,,,,,,,,,,860.84,1.0,860.84,,,,863.974,864.443,863.454,863.974,861.834,125.0,863.454,864.443,864.933,864.933,869.479,1272.0,869.48,2.0,870.467,1.0,22.0,52.0,9.0,1.0,1.6,0.7,Time
,,S43,1,Male,25,anonymized,Serial_Dependence_U,2023.2.3,Win32,29.94011976,,,,,,,,,,,,870.468,1.0,870.468,,,,873.384,873.9,872.873,873.383,871.444,96.0,872.872,873.9,874.39,874.391,876.228,1035.0,876.229,2.0,877.193,1.0,23.0,53.0,28.0,1.0,1.4,0.7,Time
,,S43,1,Male,25,anonymized,Serial_Dependence_U,2023.2.3,Win32,29.94011976,,,,,,,,,,,,877.194,1.0,877.194,,,,880.338,880.831,879.812,880.338,878.202,353.0,879.812,880.831,881.334,881.334,882.066,636.0,882.067,1.0,883.053,1.0,24.0,54.0,14.0,1.0,1.6,0.3,Time
,,S43,1,Male,25,anonymized,Serial_Dependence_U,2023.2.3,Win32,29.94011976,,,,,,,,,,,,883.054,1.0,883.055,,,,885.435,885.941,884.927,885.435,884.07,312.0,884.926,885.941,886.416,886.416,888.524,1746.0,888.524,5.0,889.51,1.0,25.0,55.0,25.0,1.0,0.8,0.7,Time
,,S43,1,Male,25,anonymized,Serial_Dependence_U,2023.2.3,Win32,29.94011976,,,,,,,,,,,,889.51,1.0,889.511,,,,892.038,892.514,891.528,892.037,890.52,15.0,891.528,892.514,893.01,893.01,897.957,2023.0,897.957,5.0,898.946,1.0,26.0,56.0,26.0,1.0,1.0,0.7,Time
,,S43,1,Male,25,anonymized,Serial_Dependence_U,2023.2.3,Win32,29.94011976,,,,,,,,,,,,898.947,1.0,898.947,,,,901.31,901.82,900.776,901.31,899.94,152.0,900.776,901.82,902.311,902.311,902.785,412.0,902.785,1.0,903.755,1.0,27.0,57.0,0.0,1.0,0.8,0.3,Time
,,S43,1,Male,25,anonymized,Serial_Dependence_U,2023.2.3,Win32,29.94011976,,,,,,,,,,,,903.756,1.0,903.756,,,,906.33,906.812,905.78,906.33,904.743,17.0,905.779,906.812,907.279,907.279,907.335,9.0,907.336,1.0,908.32,1.0,28.0,58.0,21.0,1.0,1.0,0.3,Time
,,S43,1,Male,25,anonymized,Serial_Dependence_U,2023.2.3,Win32,29.94011976,,,,,,,,,,,,908.321,1.0,908.321,,,,911.48,911.943,910.947,911.48,909.326,329.0,910.947,911.943,912.448,912.448,918.492,9999.0,918.492,0.0,919.487,1.0,29.0,59.0,29.0,1.0,1.6,0.7,Time
,,S43,1,Male,25,anonymized,Serial_Dependence_U,2023.2.3,Win32,29.94011976,,,,,,,,,,,,919.488,2.0,929.829,s,10.284,,932.809,933.304,932.304,932.809,930.871,295.0,932.304,933.304,933.808,933.808,934.327,356.0,934.328,1.0,935.311,2.0,0.0,60.0,18.0,1.0,1.4,0.7,Time
,,S43,1,Male,25,anonymized,Serial_Dependence_U,2023.2.3,Win32,29.94011976,,,,,,,,,,,,935.312,2.0,935.315,,,,937.701,938.199,937.169,937.701,936.355,355.0,937.169,938.199,938.706,938.706,939.971,763.0,939.971,3.0,940.939,2.0,1.0,61.0,0.0,1.0,0.8,0.3,Time
,,S43,1,Male,25,anonymized,Serial_Dependence_U,2023.2.3,Win32,29.94011976,,,,,,,,,,,,940.939,2.0,940.939,,,,943.748,944.231,943.2,943.748,941.997,29.0,943.2,944.231,944.717,944.717,946.679,814.0,946.68,1.0,947.675,2.0,2.0,62.0,12.0,1.0,1.2,0.3,Time
,,S43,1,Male,25,anonymized,Serial_Dependence_U,2023.2.3,Win32,29.94011976,,,,,,,,,,,,947.676,2.0,947.676,,,,950.831,951.295,950.307,950.831,948.683,127.0,950.307,951.295,951.797,951.797,952.566,719.0,952.566,1.0,953.557,2.0,3.0,63.0,29.0,1.0,1.6,0.7,Time
,,S43,1,Male,25,anonymized,Serial_Dependence_U,2023.2.3,Win32,29.94011976,,,,,,,,,,,,953.558,2.0,953.558,,,,955.9,956.412,955.383,955.899,954.566,275.0,955.383,956.412,956.918,956.918,957.775,800.0,957.776,3.0,958.758,2.0,4.0,64.0,5.0,1.0,0.8,0.7,Time
,,S43,1,Male,25,anonymized,Serial_Dependence_U,2023.2.3,Win32,29.94011976,,,,,,,,,,,,958.758,2.0,958.759,,,,961.904,962.412,961.388,961.903,959.773,238.0,961.388,962.412,962.891,962.891,963.501,354.0,963.501,1.0,964.491,2.0,5.0,65.0,4.0,1.0,1.6,0.3,Time
,,S43,1,Male,25,anonymized,Serial_Dependence_U,2023.2.3,Win32,29.94011976,,,,,,,,,,,,964.491,2.0,964.492,,,,966.851,967.355,966.34,966.851,965.499,84.0,966.34,967.355,967.848,967.848,971.409,1246.0,971.409,5.0,972.395,2.0,6.0,66.0,10.0,1.0,0.8,0.3,Time
,,S43,1,Male,25,anonymized,Serial_Dependence_U,2023.2.3,Win32,29.94011976,,,,,,,,,,,,972.395,2.0,972.396,,,,974.978,975.471,974.451,974.977,973.431,228.0,974.451,975.471,975.971,975.971,976.43,409.0,976.43,1.0,977.43,2.0,7.0,67.0,26.0,1.0,1.0,0.7,Time
,,S43,1,Male,25,anonymized,Serial_Dependence_U,2023.2.3,Win32,29.94011976,,,,,,,,,,,,977.431,2.0,977.431,,,,979.814,980.313,979.272,979.814,978.454,60.0,979.272,980.313,980.805,980.805,983.396,1526.0,983.397,5.0,984.388,2.0,8.0,68.0,25.0,1.0,0.8,0.7,Time
,,S43,1,Male,25,anonymized,Serial_Dependence_U,2023.2.3,Win32,29.94011976,,,,,,,,,,,,984.388,2.0,984.389,,,,986.95,987.426,986.423,986.949,985.4,106.0,986.423,987.426,987.91,987.91,989.425,1146.0,989.426,4.0,990.401,2.0,9.0,69.0,6.0,1.0,1.0,0.7,Time
,,S43,1,Male,25,anonymized,Serial_Dependence_U,2023.2.3,Win32,29.94011976,,,,,,,,,,,,990.401,2.0,990.402,,,,993.418,993.921,992.876,993.418,991.435,311.0,992.875,993.921,994.426,994.426,996.592,1512.0,996.593,4.0,997.602,2.0,10.0,70.0,13.0,1.0,1.4,0.3,Time
,,S43,1,Male,25,anonymized,Serial_Dependence_U,2023.2.3,Win32,29.94011976,,,,,,,,,,,,997.602,2.0,997.603,,,,1000.568,1001.06,1000.045,1000.568,998.617,83.0,1000.045,1001.06,1001.563,1001.563,1003.286,1171.0,1003.287,2.0,1004.295,2.0,11.0,71.0,8.0,1.0,1.4,0.7,Time
,,S43,1,Male,25,anonymized,Serial_Dependence_U,2023.2.3,Win32,29.94011976,,,,,,,,,,,,1004.296,2.0,1004.296,,,,1006.686,1007.151,1006.13,1006.685,1005.293,161.0,1006.13,1007.151,1007.641,1007.641,1008.636,756.0,1008.637,2.0,1009.632,2.0,12.0,72.0,20.0,1.0,0.8,0.3,Time
,,S43,1,Male,25,anonymized,Serial_Dependence_U,2023.2.3,Win32,29.94011976,,,,,,,,,,,,1009.633,2.0,1009.633,,,,1012.614,1013.12,1012.096,1012.614,1010.639,299.0,1012.095,1013.12,1013.623,1013.623,1013.671,0.0,1013.671,1.0,1014.678,2.0,13.0,73.0,3.0,1.0,1.4,0.3,Time
,,S43,1,Male,25,anonymized,Serial_Dependence_U,2023.2.3,Win32,29.94011976,,,,,,,,,,,,1014.679,2.0,1014.68,,,,1017.268,1017.744,1016.762,1017.268,1015.732,165.0,1016.762,1017.744,1018.244,1018.244,1019.263,759.0,1019.263,2.0,1020.248,2.0,14.0,74.0,11.0,1.0,1.0,0.3,Time
,,S43,1,Male,25,anonymized,Serial_Dependence_U,2023.2.3,Win32,29.94011976,,,,,,,,,,,,1020.248,2.0,1020.249,,,,1023.39,1023.889,1022.884,1023.39,1021.247,346.0,1022.884,1023.889,1024.374,1024.375,1025.923,1133.0,1025.924,2.0,1026.896,2.0,15.0,75.0,14.0,1.0,1.6,0.3,Time
,,S43,1,Male,25,anonymized,Serial_Dependence_U,2023.2.3,Win32,29.94011976,,,,,,,,,,,,1026.897,2.0,1026.897,,,,1029.666,1030.168,1029.147,1029.666,1027.924,350.0,1029.147,1030.168,1030.639,1030.639,1035.751,2471.0,1035.751,5.0,1036.728,2.0,16.0,76.0,22.0,1.0,1.2,0.3,Time
,,S43,1,Male,25,anonymized,Serial_Dependence_U,2023.2.3,Win32,29.94011976,,,,,,,,,,,,1036.729,2.0,1036.73,,,,1039.657,1040.139,1039.153,1039.657,1037.718,282.0,1039.153,1040.139,1040.606,1040.606,1042.525,1114.0,1042.526,2.0,1043.516,2.0,17.0,77.0,28.0,1.0,1.4,0.7,Time
,,S43,1,Male,25,anonymized,Serial_Dependence_U,2023.2.3,Win32,29.94011976,,,,,,,,,,,,1043.517,2.0,1043.517,,,,1046.091,1046.555,1045.549,1046.091,1044.52,44.0,1045.549,1046.555,1047.048,1047.048,1047.97,873.0,1047.971,2.0,1048.928,2.0,18.0,78.0,1.0,1.0,1.0,0.3,Time
,,S43,1,Male,25,anonymized,Serial_Dependence_U,2023.2.3,Win32,29.94011976,,,,,,,,,,,,1048.929,2.0,1048.929,,,,1051.672,1052.148,1051.156,1051.671,1049.936,294.0,1051.156,1052.148,1052.636,1052.636,1053.757,1025.0,1053.759,2.0,1054.766,2.0,19.0,79.0,2.0,1.0,1.2,0.3,Time
,,S43,1,Male,25,anonymized,Serial_Dependence_U,2023.2.3,Win32,29.94011976,,,,,,,,,,,,1054.766,2.0,1054.767,,,,1057.508,1057.99,1056.99,1057.507,1055.774,337.0,1056.99,1057.99,1058.486,1058.486,1058.844,310.0,1058.845,1.0,1059.842,2.0,20.0,80.0,17.0,1.0,1.2,0.7,Time
,,S43,1,Male,25,anonymized,Serial_Dependence_U,2023.2.3,Win32,29.94011976,,,,,,,,,,,,1059.842,2.0,1059.842,,,,1062.396,1062.89,1061.878,1062.396,1060.842,43.0,1061.877,1062.89,1063.38,1063.38,1064.901,1117.0,1064.901,4.0,1065.902,2.0,21.0,81.0,21.0,1.0,1.0,0.3,Time
,,S43,1,Male,25,anonymized,Serial_Dependence_U,2023.2.3,Win32,29.94011976,,,,,,,,,,,,1065.902,2.0,1065.903,,,,1068.62,1069.123,1068.103,1068.62,1066.871,195.0,1068.103,1069.123,1069.61,1069.61,1071.446,1201.0,1071.446,3.0,1072.463,2.0,22.0,82.0,7.0,1.0,1.2,0.7,Time
,,S43,1,Male,25,anonymized,Serial_Dependence_U,2023.2.3,Win32,29.94011976,,,,,,,,,,,,1072.463,2.0,1072.464,,,,1075.634,1076.115,1075.127,1075.634,1073.496,165.0,1075.127,1076.115,1076.615,1076.615,1078.012,1030.0,1078.012,1.0,1079.005,2.0,23.0,83.0,9.0,1.0,1.6,0.7,Time
,,S43,1,Male,25,anonymized,Serial_Dependence_U,2023.2.3,Win32,29.94011976,,,,,,,,,,,,1079.006,2.0,1079.006,,,,1082.167,1082.671,1081.635,1082.167,1080.023,156.0,1081.634,1082.671,1083.159,1083.159,1085.037,1455.0,1085.038,2.0,1086.018,2.0,24.0,84.0,24.0,1.0,1.6,0.3,Time
,,S43,1,Male,25,anonymized,Serial_Dependence_U,2023.2.3,Win32,29.94011976,,,,,,,,,,,,1086.019,2.0,1086.02,,,,1088.786,1089.285,1088.261,1088.786,1087.028,254.0,1088.261,1089.285,1089.753,1089.753,1091.081,1037.0,1091.082,2.0,1092.057,2.0,25.0,85.0,27.0,1.0,1.2,0.7,Time
,,S43,1,Male,25,anonymized,Serial_Dependence_U,2023.2.3,Win32,29.94011976,,,,,,,,,,,,1092.057,2.0,1092.057,,,,1095.152,1095.649,1094.647,1095.152,1093.027,293.0,1094.647,1095.649,1096.152,1096.152,1097.224,761.0,1097.224,1.0,1098.214,2.0,26.0,86.0,19.0,1.0,1.6,0.7,Time
,,S43,1,Male,25,anonymized,Serial_Dependence_U,2023.2.3,Win32,29.94011976,,,,,,,,,,,,1098.214,2.0,1098.215,,,,1101.169,1101.675,1100.646,1101.169,1099.21,347.0,1100.646,1101.675,1102.174,1102.174,1103.055,834.0,1103.055,1.0,1104.08,2.0,27.0,87.0,23.0,1.0,1.4,0.3,Time
,,S43,1,Male,25,anonymized,Serial_Dependence_U,2023.2.3,Win32,29.94011976,,,,,,,,,,,,1104.08,2.0,1104.08,,,,1106.619,1107.087,1106.106,1106.619,1105.065,208.0,1106.106,1107.088,1107.579,1107.579,1107.866,180.0,1107.866,1.0,1108.835,2.0,28.0,88.0,16.0,1.0,1.0,0.7,Time
,,S43,1,Male,25,anonymized,Serial_Dependence_U,2023.2.3,Win32,29.94011976,,,,,,,,,,,,1108.836,2.0,1108.836,,,,1111.27,1111.777,1110.732,1111.269,1109.889,345.0,1110.732,1111.777,1112.277,1112.277,1114.579,1435.0,1114.58,5.0,1115.558,2.0,29.0,89.0,15.0,1.0,0.8,0.7,Time
,,S43,1,Male,25,anonymized,Serial_Dependence_U,2023.2.3,Win32,29.94011976,,,,,,,,,,,,1115.558,3.0,1120.721,s,5.11,,1123.633,1124.137,1123.124,1123.632,1121.72,251.0,1123.124,1124.137,1124.635,1124.635,1125.568,884.0,1125.568,1.0,1126.58,3.0,0.0,90.0,23.0,1.0,1.4,0.3,Time
,,S43,1,Male,25,anonymized,Serial_Dependence_U,2023.2.3,Win32,29.94011976,,,,,,,,,,,,1126.581,3.0,1126.583,,,,1129.358,1129.83,1128.83,1129.358,1127.588,118.0,1128.829,1129.83,1130.327,1130.328,1132.638,1218.0,1132.639,3.0,1133.632,3.0,1.0,91.0,7.0,1.0,1.2,0.7,Time
,,S43,1,Male,25,anonymized,Serial_Dependence_U,2023.2.3,Win32,29.94011976,,,,,,,,,,,,1133.633,3.0,1133.633,,,,1135.994,1136.489,1135.477,1135.993,1134.651,153.0,1135.477,1136.489,1136.989,1136.989,1142.99,9999.0,1142.991,0.0,1143.96,3.0,2.0,92.0,5.0,1.0,0.8,0.7,Time
,,S43,1,Male,25,anonymized,Serial_Dependence_U,2023.2.3,Win32,29.94011976,,,,,,,,,,,,1143.961,3.0,1143.961,,,,1146.317,1146.826,1145.792,1146.317,1144.969,164.0,1145.791,1146.826,1147.289,1147.289,1148.603,702.0,1148.603,2.0,1149.594,3.0,3.0,93.0,15.0,1.0,0.8,0.7,Time
,,S43,1,Male,25,anonymized,Serial_Dependence_U,2023.2.3,Win32,29.94011976,,,,,,,,,,,,1149.594,3.0,1149.595,,,,1152.148,1152.615,1151.627,1152.148,1150.61,77.0,1151.627,1152.615,1153.116,1153.116,1154.348,803.0,1154.348,2.0,1155.354,3.0,4.0,94.0,16.0,1.0,1.0,0.7,Time
,,S43,1,Male,25,anonymized,Serial_Dependence_U,2023.2.3,Win32,29.94011976,,,,,,,,,,,,1155.354,3.0,1155.355,,,,1157.749,1158.236,1157.196,1157.749,1156.361,0.0,1157.195,1158.236,1158.705,1158.705,1160.996,983.0,1160.996,4.0,1161.963,3.0,5.0,95.0,0.0,1.0,0.8,0.3,Time
,,S43,1,Male,25,anonymized,Serial_Dependence_U,2023.2.3,Win32,29.94011976,,,,,,,,,,,,1161.964,3.0,1161.964,,,,1164.584,1165.081,1164.059,1164.584,1163.015,312.0,1164.059,1165.081,1165.58,1165.58,1166.289,304.0,1166.289,1.0,1167.278,3.0,6.0,96.0,6.0,1.0,1.0,0.7,Time
,,S43,1,Male,25,anonymized,Serial_Dependence_U,2023.2.3,Win32,29.94011976,,,,,,,,,,,,1167.278,3.0,1167.279,,,,1169.871,1170.376,1169.342,1169.871,1168.308,178.0,1169.342,1170.376,1170.879,1170.879,1174.406,1090.0,1174.406,4.0,1175.394,3.0,7.0,97.0,26.0,1.0,1.0,0.7,Time
,,S43,1,Male,25,anonymized,Serial_Dependence_U,2023.2.3,Win32,29.94011976,,,,,,,,,,,,1175.394,3.0,1175.395,,,,1178.564,1179.057,1178.046,1178.564,1176.404,318.0,1178.045,1179.057,1179.542,1179.542,1180.104,512.0,1180.105,1.0,1181.104,3.0,8.0,98.0,24.0,1.0,1.6,0.3,Time
,,S43,1,Male,25,anonymized,Serial_Dependence_U,2023.2.3,Win32,29.94011976,,,,,,,,,,,,1181.104,3.0,1181.104,,,,1184.133,1184.637,1183.611,1184.133,1182.164,238.0,1183.61,1184.637,1185.139,1185.139,1187.237,1380.0,1187.237,3.0,1188.209,3.0,9.0,99.0,8.0,1.0,1.4,0.7,Time
,,S43,1,Male,25,anonymized,Serial_Dependence_U,2023.2.3,Win32,29.94011976,,,,,,,,,,,,1188.209,3.0,1188.21,,,,1190.571,1191.048,1190.063,1190.57,1189.238,37.0,1190.063,1191.048,1191.55,1191.55,1193.112,1114.0,1193.113,5.0,1194.098,3.0,10.0,100.0,10.0,1.0,0.8,0.3,Time
,,S43,1,Male,25,anonymized,Serial_Dependence_U,2023.2.3,Win32,29.94011976,,,,,,,,,,,,1194.098,3.0,1194.099,,,,1196.652,1197.154,1196.124,1196.652,1195.12,141.0,1196.124,1197.154,1197.624,1197.624,1199.248,1215.0,1199.248,4.0,1200.244,3.0,11.0,101.0,11.0,1.0,1.0,0.3,Time
,,S43,1,Male,25,anonymized,Serial_Dependence_U,2023.2.3,Win32,29.94011976,,,,,,,,,,,,1200.245,3.0,1200.245,,,,1203.033,1203.51,1202.52,1203.033,1201.273,253.0,1202.52,1203.51,1203.973,1203.973,1205.076,708.0,1205.076,1.0,1206.055,3.0,12.0,102.0,27.0,1.0,1.2,0.7,Time
,,S43,1,Male,25,anonymized,Serial_Dependence_U,2023.2.3,Win32,29.94011976,,,,,,,,,,,,1206.055,3.0,1206.056,,,,1209.217,1209.715,1208.698,1209.217,1207.073,108.0,1208.697,1209.715,1210.21,1210.21,1211.09,781.0,1211.09,1.0,1212.098,3.0,13.0,103.0,19.0,1.0,1.6,0.7,Time
,,S43,1,Male,25,anonymized,Serial_Dependence_U,2023.2.3,Win32,29.94011976,,,,,,,,,,,,1212.098,3.0,1212.098,,,,1214.465,1214.967,1213.933,1214.465,1213.099,353.0,1213.932,1214.967,1215.461,1215.461,1216.599,1036.0,1216.6,4.0,1217.618,3.0,14.0,104.0,25.0,1.0,0.8,0.7,Time
,,S43,1,Male,25,anonymized,Serial_Dependence_U,2023.2.3,Win32,29.94011976,,,,,,,,,,,,1217.619,3.0,1217.619,,,,1220.773,1221.26,1220.268,1220.772,1218.623,268.0,1220.268,1221.26,1221.726,1221.726,1223.57,878.0,1223.57,1.0,1226.639,3.0,15.0,105.0,29.0,1.0,1.6,0.7,Time
,,S43,1,Male,25,anonymized,Serial_Dependence_U,2023.2.3,Win32,29.94011976,,,,,,,,,,,,1226.64,3.0,1226.641,,,,1230.05,1230.524,1229.52,1230.05,1227.876,214.0,1229.52,1230.524,1231.016,1231.017,1232.874,1216.0,1232.875,2.0,1233.845,3.0,16.0,106.0,4.0,1.0,1.6,0.3,Time
,,S43,1,Male,25,anonymized,Serial_Dependence_U,2023.2.3,Win32,29.94011976,,,,,,,,,,,,1233.845,3.0,1233.846,,,,1236.592,1237.106,1236.077,1236.591,1234.86,62.0,1236.077,1237.106,1237.601,1237.601,1238.316,571.0,1238.316,1.0,1239.3,3.0,17.0,107.0,17.0,1.0,1.2,0.7,Time
,,S43,1,Male,25,anonymized,Serial_Dependence_U,2023.2.3,Win32,29.94011976,,,,,,,,,,,,1239.3,3.0,1239.3,,,,1242.202,1242.666,1241.68,1242.202,1240.271,301.0,1241.68,1242.666,1243.143,1243.143,1246.397,204.0,1246.398,1.0,1247.373,3.0,18.0,108.0,3.0,1.0,1.4,0.3,Time
,,S43,1,Male,25,anonymized,Serial_Dependence_U,2023.2.3,Win32,29.94011976,,,,,,,,,,,,1247.374,3.0,1247.374,,,,1250.146,1250.637,1249.618,1250.146,1248.391,220.0,1249.618,1250.637,1251.15,1251.15,1252.803,1237.0,1252.804,3.0,1253.768,3.0,19.0,109.0,22.0,1.0,1.2,0.3,Time
,,S43,1,Male,25,anonymized,Serial_Dependence_U,2023.2.3,Win32,29.94011976,,,,,,,,,,,,1253.768,3.0,1253.769,,,,1256.885,1257.385,1256.371,1256.885,1254.762,202.0,1256.371,1257.385,1257.887,1257.887,1259.15,1162.0,1259.15,2.0,1260.138,3.0,20.0,110.0,9.0,1.0,1.6,0.7,Time
,,S43,1,Male,25,anonymized,Serial_Dependence_U,2023.2.3,Win32,29.94011976,,,,,,,,,,,,1260.138,3.0,1260.139,,,,1263.127,1263.621,1262.61,1263.127,1261.161,300.0,1262.61,1263.621,1264.099,1264.099,1265.014,818.0,1265.014,1.0,1265.992,3.0,21.0,111.0,18.0,1.0,1.4,0.7,Time
,,S43,1,Male,25,anonymized,Serial_Dependence_U,2023.2.3,Win32,29.94011976,,,,,,,,,,,,1265.993,3.0,1265.993,,,,1268.529,1269.03,1268.016,1268.529,1266.989,307.0,1268.016,1269.03,1269.526,1269.526,1270.669,1047.0,1270.669,3.0,1271.659,3.0,22.0,112.0,21.0,1.0,1.0,0.3,Time
,,S43,1,Male,25,anonymized,Serial_Dependence_U,2023.2.3,Win32,29.94011976,,,,,,,,,,,,1271.659,3.0,1271.66,,,,1274.433,1274.934,1273.908,1274.433,1272.668,42.0,1273.908,1274.934,1275.424,1275.424,1276.526,213.0,1276.527,1.0,1277.508,3.0,23.0,113.0,12.0,1.0,1.2,0.3,Time
,,S43,1,Male,25,anonymized,Serial_Dependence_U,2023.2.3,Win32,29.94011976,,,,,,,,,,,,1277.509,3.0,1277.509,,,,1280.435,1280.901,1279.918,1280.435,1278.515,100.0,1279.918,1280.901,1281.394,1281.394,1285.263,1083.0,1285.264,2.0,1286.252,3.0,24.0,114.0,13.0,1.0,1.4,0.3,Time
,,S43,1,Male,25,anonymized,Serial_Dependence_U,2023.2.3,Win32,29.94011976,,,,,,,,,,,,1286.252,3.0,1286.252,,,,1288.656,1289.112,1288.103,1288.656,1287.261,49.0,1288.103,1289.112,1289.618,1289.618,1290.071,406.0,1290.071,1.0,1291.071,3.0,25.0,115.0,20.0,1.0,0.8,0.3,Time
,,S43,1,Male,25,anonymized,Serial_Dependence_U,2023.2.3,Win32,29.94011976,,,,,,,,,,,,1291.072,3.0,1291.072,,,,1294.215,1294.719,1293.697,1294.214,1292.078,43.0,1293.696,1294.719,1295.209,1295.209,1297.093,1035.0,1297.094,1.0,1298.078,3.0,26.0,116.0,14.0,1.0,1.6,0.3,Time
,,S43,1,Male,25,anonymized,Serial_Dependence_U,2023.2.3,Win32,29.94011976,,,,,,,,,,,,1298.079,3.0,1298.079,,,,1300.808,1301.309,1300.293,1300.808,1299.086,220.0,1300.293,1301.309,1301.804,1301.804,1303.36,1360.0,1303.361,4.0,1304.347,3.0,27.0,117.0,2.0,1.0,1.2,0.3,Time
,,S43,1,Male,25,anonymized,Serial_Dependence_U,2023.2.3,Win32,29.94011976,,,,,,,,,,,,1304.347,3.0,1304.348,,,,1306.875,1307.383,1306.363,1306.875,1305.35,13.0,1306.363,1307.383,1307.884,1307.884,1308.999,1070.0,1309.0,4.0,1309.98,3.0,28.0,118.0,1.0,1.0,1.0,0.3,Time
,,S43,1,Male,25,anonymized,Serial_Dependence_U,2023.2.3,Win32,29.94011976,,,,,,,,,,,,1309.981,3.0,1309.981,,,,1312.982,1313.494,1312.458,1312.982,1311.029,303.0,1312.458,1313.494,1314.002,1314.002,1315.48,1430.0,1315.481,3.0,1316.478,3.0,29.0,119.0,28.0,1.0,1.4,0.7,Time
,,S43,1,Male,25,anonymized,Serial_Dependence_U,2023.2.3,Win32,29.94011976,,,,,,,,,,,,1316.478,4.0,1318.945,s,2.411,,1321.964,1322.477,1321.415,1321.964,1319.969,157.0,1321.414,1322.477,1322.975,1322.975,1323.913,713.0,1323.913,1.0,1324.903,4.0,0.0,120.0,8.0,1.0,1.4,0.7,Time
,,S43,1,Male,25,anonymized,Serial_Dependence_U,2023.2.3,Win32,29.94011976,,,,,,,,,,,,1324.903,4.0,1324.906,,,,1327.838,1328.338,1327.326,1327.837,1325.915,53.0,1327.326,1328.338,1328.844,1328.844,1330.643,1183.0,1330.643,2.0,1331.655,4.0,1.0,121.0,13.0,1.0,1.4,0.3,Time
,,S43,1,Male,25,anonymized,Serial_Dependence_U,2023.2.3,Win32,29.94011976,,,,,,,,,,,,1331.656,4.0,1331.656,,,,1334.431,1334.903,1333.895,1334.431,1332.676,307.0,1333.895,1334.903,1335.408,1335.408,1337.478,1329.0,1337.478,4.0,1338.455,4.0,2.0,122.0,12.0,1.0,1.2,0.3,Time
,,S43,1,Male,25,anonymized,Serial_Dependence_U,2023.2.3,Win32,29.94011976,,,,,,,,,,,,1338.456,4.0,1338.456,,,,1341.633,1342.132,1341.093,1341.633,1339.46,188.0,1341.093,1342.132,1342.598,1342.598,1344.772,1811.0,1344.772,4.0,1345.758,4.0,3.0,123.0,4.0,1.0,1.6,0.3,Time
,,S43,1,Male,25,anonymized,Serial_Dependence_U,2023.2.3,Win32,29.94011976,,,,,,,,,,,,1345.759,4.0,1345.759,,,,1348.579,1349.082,1348.02,1348.579,1346.815,9.0,1348.02,1349.082,1349.587,1349.587,1351.331,1087.0,1351.332,2.0,1352.321,4.0,4.0,124.0,22.0,1.0,1.2,0.3,Time
,,S43,1,Male,25,anonymized,Serial_Dependence_U,2023.2.3,Win32,29.94011976,,,,,,,,,,,,1352.322,4.0,1352.322,,,,1355.089,1355.583,1354.561,1355.089,1353.346,344.0,1354.561,1355.583,1356.074,1356.074,1357.12,884.0,1357.121,2.0,1358.091,4.0,5.0,125.0,17.0,1.0,1.2,0.7,Time
,,S43,1,Male,25,anonymized,Serial_Dependence_U,2023.2.3,Win32,29.94011976,,,,,,,,,,,,1358.092,4.0,1358.092,,,,1360.842,1361.335,1360.32,1360.842,1359.106,338.0,1360.32,1361.335,1361.835,1361.835,1363.576,1055.0,1363.577,2.0,1364.547,4.0,6.0,126.0,2.0,1.0,1.2,0.3,Time
,,S43,1,Male,25,anonymized,Serial_Dependence_U,2023.2.3,Win32,29.94011976,,,,,,,,,,,,1364.548,4.0,1364.549,,,,1367.159,1367.65,1366.624,1367.159,1365.58,219.0,1366.624,1367.651,1368.142,1368.142,1370.137,1368.0,1370.138,5.0,1371.118,4.0,7.0,127.0,16.0,1.0,1.0,0.7,Time
,,S43,1,Male,25,anonymized,Serial_Dependence_U,2023.2.3,Win32,29.94011976,,,,,,,,,,,,1371.118,4.0,1371.119,,,,1373.445,1373.952,1372.93,1373.445,1372.126,245.0,1372.93,1373.952,1374.415,1374.415,1376.134,1118.0,1376.135,5.0,1377.129,4.0,8.0,128.0,10.0,1.0,0.8,0.3,Time
,,S43,1,Male,25,anonymized,Serial_Dependence_U,2023.2.3,Win32,29.94011976,,,,,,,,,,,,1377.13,4.0,1377.13,,,,1380.104,1380.615,1379.565,1380.104,1378.143,60.0,1379.565,1380.615,1381.107,1381.107,1382.717,1243.0,1382.718,2.0,1383.716,4.0,9.0,129.0,23.0,1.0,1.4,0.3,Time
,,S43,1,Male,25,anonymized,Serial_Dependence_U,2023.2.3,Win32,29.94011976,,,,,,,,,,,,1383.716,4.0,1383.717,,,,1386.716,1387.224,1386.19,1386.716,1384.754,313.0,1386.19,1387.224,1387.715,1387.715,1389.802,1617.0,1389.802,4.0,1390.797,4.0,10.0,130.0,28.0,1.0,1.4,0.7,Time
,,S43,1,Male,25,anonymized,Serial_Dependence_U,2023.2.3,Win32,29.94011976,,,,,,,,,,,,1390.797,4.0,1390.797,,,,1393.148,1393.619,1392.627,1393.147,1391.81,142.0,1392.627,1393.619,1394.121,1394.121,1395.882,1204.0,1395.882,5.0,1396.849,4.0,11.0,131.0,25.0,1.0,0.8,0.7,Time
,,S43,1,Male,25,anonymized,Serial_Dependence_U,2023.2.3,Win32,29.94011976,,,,,,,,,,,,1396.85,4.0,1396.85,,,,1399.373,1399.852,1398.87,1399.373,1397.842,282.0,1398.87,1399.852,1400.318,1400.318,1402.143,1371.0,1402.144,5.0,1403.128,4.0,12.0,132.0,6.0,1.0,1.0,0.7,Time
,,S43,1,Male,25,anonymized,Serial_Dependence_U,2023.2.3,Win32,29.94011976,,,,,,,,,,,,1403.128,4.0,1403.129,,,,1405.726,1406.226,1405.18,1405.726,1404.154,352.0,1405.179,1406.226,1406.723,1406.723,1409.586,1699.0,1409.586,5.0,1410.555,4.0,13.0,133.0,11.0,1.0,1.0,0.3,Time
,,S43,1,Male,25,anonymized,Serial_Dependence_U,2023.2.3,Win32,29.94011976,,,,,,,,,,,,1410.556,4.0,1410.556,,,,1413.133,1413.62,1412.608,1413.133,1411.574,56.0,1412.607,1413.62,1414.115,1414.115,1415.615,841.0,1415.615,2.0,1416.592,4.0,14.0,134.0,26.0,1.0,1.0,0.7,Time
,,S43,1,Male,25,anonymized,Serial_Dependence_U,2023.2.3,Win32,29.94011976,,,,,,,,,,,,1416.592,4.0,1416.592,,,,1419.759,1420.262,1419.225,1419.759,1417.603,168.0,1419.225,1420.262,1420.771,1420.772,1424.404,726.0,1424.404,1.0,1425.385,4.0,15.0,135.0,29.0,1.0,1.6,0.7,Time
,,S43,1,Male,25,anonymized,Serial_Dependence_U,2023.2.3,Win32,29.94011976,,,,,,,,,,,,1425.385,4.0,1425.386,,,,1427.925,1428.438,1427.399,1427.925,1426.399,298.0,1427.399,1428.438,1428.93,1428.93,1432.431,749.0,1432.432,2.0,1433.442,4.0,16.0,136.0,21.0,1.0,1.0,0.3,Time
,,S43,1,Male,25,anonymized,Serial_Dependence_U,2023.2.3,Win32,29.94011976,,,,,,,,,,,,1433.443,4.0,1433.443,,,,1436.437,1436.927,1435.91,1436.436,1434.468,139.0,1435.91,1436.927,1437.422,1437.422,1437.941,307.0,1437.942,1.0,1438.925,4.0,17.0,137.0,18.0,1.0,1.4,0.7,Time
,,S43,1,Male,25,anonymized,Serial_Dependence_U,2023.2.3,Win32,29.94011976,,,,,,,,,,,,1438.925,4.0,1438.926,,,,1441.694,1442.19,1441.168,1441.694,1439.956,118.0,1441.167,1442.19,1442.658,1442.658,1442.761,54.0,1442.762,1.0,1443.756,4.0,18.0,138.0,7.0,1.0,1.2,0.7,Time
,,S43,1,Male,25,anonymized,Serial_Dependence_U,2023.2.3,Win32,29.94011976,,,,,,,,,,,,1443.756,4.0,1443.757,,,,1446.548,1447.053,1446.025,1446.548,1444.791,112.0,1446.025,1447.053,1447.549,1447.549,1451.0,1259.0,1451.001,3.0,1452.005,4.0,19.0,139.0,27.0,1.0,1.2,0.7,Time
,,S43,1,Male,25,anonymized,Serial_Dependence_U,2023.2.3,Win32,29.94011976,,,,,,,,,,,,1452.006,4.0,1452.006,,,,1455.163,1455.632,1454.634,1455.163,1453.024,65.0,1454.634,1455.632,1456.133,1456.134,1460.087,2989.0,1460.088,5.0,1461.083,4.0,20.0,140.0,14.0,1.0,1.6,0.3,Time
,,S43,1,Male,25,anonymized,Serial_Dependence_U,2023.2.3,Win32,29.94011976,,,,,,,,,,,,1461.084,4.0,1461.084,,,,1464.068,1464.552,1463.543,1464.067,1462.101,234.0,1463.543,1464.552,1465.047,1465.048,1466.02,922.0,1466.021,1.0,1467.003,4.0,21.0,141.0,3.0,1.0,1.4,0.3,Time
,,S43,1,Male,25,anonymized,Serial_Dependence_U,2023.2.3,Win32,29.94011976,,,,,,,,,,,,1467.004,4.0,1467.004,,,,1470.118,1470.614,1469.589,1470.118,1467.982,128.0,1469.589,1470.614,1471.118,1471.118,1472.923,1335.0,1472.924,2.0,1473.932,4.0,22.0,142.0,19.0,1.0,1.6,0.7,Time
,,S43,1,Male,25,anonymized,Serial_Dependence_U,2023.2.3,Win32,29.94011976,,,,,,,,,,,,1473.933,4.0,1473.933,,,,1477.101,1477.581,1476.56,1477.101,1474.939,35.0,1476.56,1477.581,1478.061,1478.061,1480.71,2430.0,1480.711,5.0,1481.696,4.0,23.0,143.0,24.0,1.0,1.6,0.3,Time
,,S43,1,Male,25,anonymized,Serial_Dependence_U,2023.2.3,Win32,29.94011976,,,,,,,,,,,,1481.697,4.0,1481.697,,,,1484.091,1484.585,1483.539,1484.091,1482.723,87.0,1483.539,1484.585,1485.08,1485.08,1487.926,1174.0,1487.926,5.0,1488.898,4.0,24.0,144.0,0.0,1.0,0.8,0.3,Time
,,S43,1,Male,25,anonymized,Serial_Dependence_U,2023.2.3,Win32,29.94011976,,,,,,,,,,,,1488.899,4.0,1488.9,,,,1491.496,1492.004,1490.945,1491.496,1489.923,18.0,1490.945,1492.004,1492.495,1492.495,1494.104,688.0,1494.105,1.0,1495.094,4.0,25.0,145.0,1.0,1.0,1.0,0.3,Time
,,S43,1,Male,25,anonymized,Serial_Dependence_U,2023.2.3,Win32,29.94011976,,,,,,,,,,,,1495.094,4.0,1495.094,,,,1497.43,1497.947,1496.917,1497.43,1496.105,265.0,1496.917,1497.947,1498.44,1498.44,1502.589,870.0,1502.589,4.0,1503.574,4.0,26.0,146.0,5.0,1.0,0.8,0.7,Time
,,S43,1,Male,25,anonymized,Serial_Dependence_U,2023.2.3,Win32,29.94011976,,,,,,,,,,,,1503.574,4.0,1503.575,,,,1505.917,1506.415,1505.385,1505.916,1504.575,342.0,1505.384,1506.415,1506.915,1506.915,1509.983,1950.0,1509.983,5.0,1510.96,4.0,27.0,147.0,15.0,1.0,0.8,0.7,Time
,,S43,1,Male,25,anonymized,Serial_Dependence_U,2023.2.3,Win32,29.94011976,,,,,,,,,,,,1510.96,4.0,1510.961,,,,1513.346,1513.851,1512.807,1513.346,1511.987,320.0,1512.807,1513.851,1514.353,1514.353,1515.349,703.0,1515.349,2.0,1516.365,4.0,28.0,148.0,20.0,1.0,0.8,0.3,Time
,,S43,1,Male,25,anonymized,Serial_Dependence_U,2023.2.3,Win32,29.94011976,,,,,,,,,,,,1516.365,4.0,1516.366,,,,1519.544,1520.014,1518.992,1519.543,1517.371,356.0,1518.992,1520.014,1520.499,1520.499,1521.843,1133.0,1521.843,2.0,1522.824,4.0,29.0,149.0,9.0,1.0,1.6,0.7,Time
,,S43,1,Male,25,anonymized,Serial_Dependence_U,2023.2.3,Win32,29.94011976,,,,,,,,,,,,1522.824,5.0,1527.512,s,4.636,,1530.334,1530.838,1529.812,1530.334,1528.581,181.0,1529.812,1530.838,1531.337,1531.337,1532.318,689.0,1532.318,1.0,1533.319,5.0,0.0,150.0,17.0,1.0,1.2,0.7,Time
,,S43,1,Male,25,anonymized,Serial_Dependence_U,2023.2.3,Win32,29.94011976,,,,,,,,,,,,1533.32,5.0,1533.322,,,,1535.692,1536.19,1535.144,1535.692,1534.316,203.0,1535.143,1536.19,1536.708,1536.708,1538.132,1066.0,1538.132,5.0,1539.126,5.0,1.0,151.0,0.0,1.0,0.8,0.3,Time
,,S43,1,Male,25,anonymized,Serial_Dependence_U,2023.2.3,Win32,29.94011976,,,,,,,,,,,,1539.127,5.0,1539.127,,,,1541.88,1542.351,1541.362,1541.88,1540.143,354.0,1541.362,1542.351,1542.839,1542.839,1544.104,797.0,1544.104,1.0,1545.062,5.0,2.0,152.0,22.0,1.0,1.2,0.3,Time
,,S43,1,Male,25,anonymized,Serial_Dependence_U,2023.2.3,Win32,29.94011976,,,,,,,,,,,,1545.064,5.0,1545.064,,,,1548.13,1548.622,1547.58,1548.13,1546.115,287.0,1547.58,1548.622,1549.111,1549.112,1550.125,611.0,1550.126,1.0,1551.134,5.0,3.0,153.0,8.0,1.0,1.4,0.7,Time
,,S43,1,Male,25,anonymized,Serial_Dependence_U,2023.2.3,Win32,29.94011976,,,,,,,,,,,,1551.135,5.0,1551.135,,,,1553.72,1554.197,1553.17,1553.72,1552.138,114.0,1553.17,1554.197,1554.66,1554.66,1556.012,1282.0,1556.012,4.0,1556.98,5.0,4.0,154.0,6.0,1.0,1.0,0.7,Time
,,S43,1,Male,25,anonymized,Serial_Dependence_U,2023.2.3,Win32,29.94011976,,,,,,,,,,,,1556.98,5.0,1556.981,,,,1559.538,1560.017,1559.002,1559.538,1557.974,161.0,1559.002,1560.017,1560.49,1560.49,1561.767,816.0,1561.767,2.0,1562.766,5.0,5.0,155.0,21.0,1.0,1.0,0.3,Time
,,S43,1,Male,25,anonymized,Serial_Dependence_U,2023.2.3,Win32,29.94011976,,,,,,,,,,,,1562.766,5.0,1562.767,,,,1565.133,1565.613,1564.621,1565.133,1563.782,203.0,1564.621,1565.613,1566.115,1566.115,1567.342,821.0,1567.343,3.0,1568.333,5.0,6.0,156.0,10.0,1.0,0.8,0.3,Time
,,S43,1,Male,25,anonymized,Serial_Dependence_U,2023.2.3,Win32,29.94011976,,,,,,,,,,,,1568.334,5.0,1568.334,,,,1571.29,1571.788,1570.767,1571.29,1569.319,336.0,1570.767,1571.788,1572.301,1572.301,1573.628,1017.0,1573.628,2.0,1574.611,5.0,7.0,157.0,13.0,1.0,1.4,0.3,Time
,,S43,1,Male,25,anonymized,Serial_Dependence_U,2023.2.3,Win32,29.94011976,,,,,,,,,,,,1574.611,5.0,1574.612,,,,1577.837,1578.304,1577.296,1577.837,1575.649,125.0,1577.296,1578.304,1578.783,1578.783,1579.342,511.0,1579.342,1.0,1580.326,5.0,8.0,158.0,29.0,1.0,1.6,0.7,Time
,,S43,1,Male,25,anonymized,Serial_Dependence_U,2023.2.3,Win32,29.94011976,,,,,,,,,,,,1580.327,5.0,1580.327,,,,1583.507,1584.005,1582.991,1583.507,1581.353,213.0,1582.991,1584.005,1584.516,1584.516,1588.675,1078.0,1588.676,1.0,1589.66,5.0,9.0,159.0,14.0,1.0,1.6,0.3,Time
,,S43,1,Male,25,anonymized,Serial_Dependence_U,2023.2.3,Win32,29.94011976,,,,,,,,,,,,1589.66,5.0,1589.661,,,,1592.843,1593.353,1592.309,1592.842,1590.68,191.0,1592.309,1593.353,1593.843,1593.843,1595.456,1100.0,1595.456,1.0,1596.434,5.0,10.0,160.0,24.0,1.0,1.6,0.3,Time
,,S43,1,Male,25,anonymized,Serial_Dependence_U,2023.2.3,Win32,29.94011976,,,,,,,,,,,,1596.434,5.0,1596.435,,,,1598.974,1599.45,1598.468,1598.974,1597.453,79.0,1598.468,1599.45,1599.942,1599.942,1601.354,1254.0,1601.355,4.0,1602.368,5.0,11.0,161.0,1.0,1.0,1.0,0.3,Time
,,S43,1,Male,25,anonymized,Serial_Dependence_U,2023.2.3,Win32,29.94011976,,,,,,,,,,,,1602.369,5.0,1602.369,,,,1605.12,1605.623,1604.598,1605.12,1603.395,237.0,1604.598,1605.623,1606.112,1606.112,1606.655,162.0,1606.655,1.0,1607.674,5.0,12.0,162.0,2.0,1.0,1.2,0.3,Time
,,S43,1,Male,25,anonymized,Serial_Dependence_U,2023.2.3,Win32,29.94011976,,,,,,,,,,,,1607.674,5.0,1607.675,,,,1610.008,1610.505,1609.503,1610.008,1608.685,32.0,1609.503,1610.506,1611.007,1611.007,1617.041,9999.0,1617.041,0.0,1618.032,5.0,13.0,163.0,5.0,1.0,0.8,0.7,Time
,,S43,1,Male,25,anonymized,Serial_Dependence_U,2023.2.3,Win32,29.94011976,,,,,,,,,,,,1618.033,5.0,1618.033,,,,1621.099,1621.587,1620.552,1621.099,1619.104,333.0,1620.552,1621.587,1622.075,1622.075,1623.585,985.0,1623.586,2.0,1624.591,5.0,14.0,164.0,3.0,1.0,1.4,0.3,Time
,,S43,1,Male,25,anonymized,Serial_Dependence_U,2023.2.3,Win32,29.94011976,,,,,,,,,,,,1624.592,5.0,1624.592,,,,1627.319,1627.782,1626.799,1627.319,1625.594,111.0,1626.799,1627.782,1628.248,1628.248,1630.611,1756.0,1630.611,5.0,1631.568,5.0,15.0,165.0,12.0,1.0,1.2,0.3,Time
,,S43,1,Male,25,anonymized,Serial_Dependence_U,2023.2.3,Win32,29.94011976,,,,,,,,,,,,1631.569,5.0,1631.57,,,,1634.776,1635.287,1634.238,1634.776,1632.595,61.0,1634.238,1635.287,1635.786,1635.786,1637.377,1125.0,1637.377,2.0,1638.367,5.0,16.0,166.0,4.0,1.0,1.6,0.3,Time
,,S43,1,Male,25,anonymized,Serial_Dependence_U,2023.2.3,Win32,29.94011976,,,,,,,,,,,,1638.368,5.0,1638.368,,,,1641.53,1642.002,1641.005,1641.53,1639.382,159.0,1641.004,1642.002,1642.478,1642.478,1644.15,1202.0,1644.15,2.0,1645.154,5.0,17.0,167.0,9.0,1.0,1.6,0.7,Time
,,S43,1,Male,25,anonymized,Serial_Dependence_U,2023.2.3,Win32,29.94011976,,,,,,,,,,,,1645.154,5.0,1645.154,,,,1647.516,1647.98,1646.979,1647.516,1646.154,341.0,1646.978,1647.98,1648.472,1648.472,1650.289,1248.0,1650.289,5.0,1651.29,5.0,18.0,168.0,20.0,1.0,0.8,0.3,Time
,,S43,1,Male,25,anonymized,Serial_Dependence_U,2023.2.3,Win32,29.94011976,,,,,,,,,,,,1651.291,5.0,1651.291,,,,1654.258,1654.766,1653.743,1654.258,1652.304,222.0,1653.743,1654.766,1655.265,1655.265,1655.923,611.0,1655.925,1.0,1656.892,5.0,19.0,169.0,23.0,1.0,1.4,0.3,Time
,,S43,1,Male,25,anonymized,Serial_Dependence_U,2023.2.3,Win32,29.94011976,,,,,,,,,,,,1656.892,5.0,1656.893,,,,1660.053,1660.518,1659.513,1660.053,1657.89,246.0,1659.512,1660.518,1661.017,1661.017,1664.83,812.0,1664.831,1.0,1665.851,5.0,20.0,170.0,19.0,1.0,1.6,0.7,Time
,,S43,1,Male,25,anonymized,Serial_Dependence_U,2023.2.3,Win32,29.94011976,,,,,,,,,,,,1665.852,5.0,1665.852,,,,1668.361,1668.833,1667.853,1668.361,1666.85,171.0,1667.853,1668.833,1669.32,1669.321,1672.102,768.0,1672.103,2.0,1673.087,5.0,21.0,171.0,11.0,1.0,1.0,0.3,Time
,,S43,1,Male,25,anonymized,Serial_Dependence_U,2023.2.3,Win32,29.94011976,,,,,,,,,,,,1673.088,5.0,1673.088,,,,1675.656,1676.152,1675.143,1675.655,1674.099,151.0,1675.143,1676.153,1676.658,1676.658,1678.258,895.0,1678.259,2.0,1679.258,5.0,22.0,172.0,26.0,1.0,1.0,0.7,Time
,,S43,1,Male,25,anonymized,Serial_Dependence_U,2023.2.3,Win32,29.94011976,,,,,,,,,,,,1679.259,5.0,1679.259,,,,1682.001,1682.501,1681.468,1682.001,1680.265,356.0,1681.468,1682.501,1683.01,1683.01,1684.297,973.0,1684.298,2.0,1685.282,5.0,23.0,173.0,27.0,1.0,1.2,0.7,Time
,,S43,1,Male,25,anonymized,Serial_Dependence_U,2023.2.3,Win32,29.94011976,,,,,,,,,,,,1685.283,5.0,1685.283,,,,1688.064,1688.562,1687.536,1688.063,1686.296,217.0,1687.536,1688.562,1689.065,1689.065,1690.55,1389.0,1690.551,4.0,1691.534,5.0,24.0,174.0,7.0,1.0,1.2,0.7,Time
,,S43,1,Male,25,anonymized,Serial_Dependence_U,2023.2.3,Win32,29.94011976,,,,,,,,,,,,1691.535,5.0,1691.535,,,,1694.523,1695.015,1694.0,1694.523,1692.544,129.0,1694.0,1695.015,1695.492,1695.492,1697.141,1149.0,1697.141,2.0,1698.117,5.0,25.0,175.0,18.0,1.0,1.4,0.7,Time
,,S43,1,Male,25,anonymized,Serial_Dependence_U,2023.2.3,Win32,29.94011976,,,,,,,,,,,,1698.118,5.0,1698.118,,,,1700.528,1701.006,1699.984,1700.528,1699.143,317.0,1699.984,1701.006,1701.506,1701.506,1702.624,1024.0,1702.625,4.0,1703.621,5.0,26.0,176.0,25.0,1.0,0.8,0.7,Time
,,S43,1,Male,25,anonymized,Serial_Dependence_U,2023.2.3,Win32,29.94011976,,,,,,,,,,,,1703.621,5.0,1703.621,,,,1706.173,1706.675,1705.658,1706.173,1704.631,51.0,1705.658,1706.675,1707.189,1707.189,1709.746,1517.0,1709.747,5.0,1710.733,5.0,27.0,177.0,16.0,1.0,1.0,0.7,Time
,,S43,1,Male,25,anonymized,Serial_Dependence_U,2023.2.3,Win32,29.94011976,,,,,,,,,,,,1710.733,5.0,1710.733,,,,1713.079,1714.091,1712.561,1713.079,1711.733,327.0,1712.561,1714.091,1714.091,1714.091,1715.782,2.0,1715.783,1.0,1717.439,5.0,28.0,178.0,15.0,1.0,0.8,0.7,Time
,,S43,1,Male,25,anonymized,Serial_Dependence_U,2023.2.3,Win32,29.94011976,,,,,,,,,,,,1717.439,5.0,1717.44,,,,1719.92,1720.413,1719.383,1719.92,1717.953,266.0,1719.383,1720.413,1720.911,1720.911,1721.458,498.0,1721.459,1.0,1722.47,5.0,29.0,179.0,28.0,1.0,1.4,0.7,Time
,,S43,1,Male,25,anonymized,Serial_Dependence_U,2023.2.3,Win32,29.94011976,,,,,,,,,,,,1722.471,6.0,1725.852,s,3.328,,1728.249,1728.749,1727.728,1728.249,1726.893,121.0,1727.728,1728.749,1729.252,1729.252,1732.578,1611.0,1732.578,5.0,1733.574,6.0,0.0,180.0,10.0,1.0,0.8,0.3,Time
,,S43,1,Male,25,anonymized,Serial_Dependence_U,2023.2.3,Win32,29.94011976,,,,,,,,,,,,1733.575,6.0,1733.578,,,,1736.55,1737.014,1736.026,1736.55,1734.591,76.0,1736.026,1737.015,1737.514,1737.514,1738.071,508.0,1738.071,1.0,1739.055,6.0,1.0,181.0,28.0,1.0,1.4,0.7,Time
,,S43,1,Male,25,anonymized,Serial_Dependence_U,2023.2.3,Win32,29.94011976,,,,,,,,,,,,1739.056,6.0,1739.056,,,,1741.842,1742.341,1741.316,1741.841,1740.087,5.0,1741.316,1742.341,1742.834,1742.834,1746.652,1017.0,1746.652,2.0,1747.646,6.0,2.0,182.0,7.0,1.0,1.2,0.7,Time
,,S43,1,Male,25,anonymized,Serial_Dependence_U,2023.2.3,Win32,29.94011976,,,,,,,,,,,,1747.646,6.0,1747.647,,,,1750.203,1750.702,1749.689,1750.203,1748.671,98.0,1749.689,1750.703,1751.195,1751.195,1751.976,314.0,1751.977,1.0,1752.96,6.0,3.0,183.0,16.0,1.0,1.0,0.7,Time
,,S43,1,Male,25,anonymized,Serial_Dependence_U,2023.2.3,Win32,29.94011976,,,,,,,,,,,,1752.961,6.0,1752.961,,,,1755.311,1755.791,1754.778,1755.31,1753.963,10.0,1754.778,1755.791,1756.292,1756.292,1758.371,197.0,1758.372,1.0,1759.363,6.0,4.0,184.0,20.0,1.0,0.8,0.3,Time
,,S43,1,Male,25,anonymized,Serial_Dependence_U,2023.2.3,Win32,29.94011976,,,,,,,,,,,,1759.364,6.0,1759.364,,,,1761.951,1762.437,1761.434,1761.951,1760.4,30.0,1761.434,1762.437,1762.935,1762.935,1764.423,931.0,1764.423,2.0,1765.406,6.0,5.0,185.0,6.0,1.0,1.0,0.7,Time
,,S43,1,Male,25,anonymized,Serial_Dependence_U,2023.2.3,Win32,29.94011976,,,,,,,,,,,,1765.407,6.0,1765.407,,,,1767.985,1768.488,1767.461,1767.985,1766.417,93.0,1767.461,1768.488,1768.972,1768.972,1769.56,199.0,1769.56,1.0,1770.554,6.0,6.0,186.0,26.0,1.0,1.0,0.7,Time
,,S43,1,Male,25,anonymized,Serial_Dependence_U,2023.2.3,Win32,29.94011976,,,,,,,,,,,,1770.554,6.0,1770.555,,,,1773.733,1774.245,1773.202,1773.732,1771.57,61.0,1773.202,1774.245,1774.731,1774.731,1775.059,265.0,1775.06,1.0,1776.058,6.0,7.0,187.0,4.0,1.0,1.6,0.3,Time
,,S43,1,Male,25,anonymized,Serial_Dependence_U,2023.2.3,Win32,29.94011976,,,,,,,,,,,,1776.059,6.0,1776.059,,,,1779.188,1779.655,1778.668,1779.187,1777.054,140.0,1778.668,1779.655,1780.153,1780.153,1786.153,9999.0,1786.154,0.0,1787.159,6.0,8.0,188.0,29.0,1.0,1.6,0.7,Time
,,S43,1,Male,25,anonymized,Serial_Dependence_U,2023.2.3,Win32,29.94011976,,,,,,,,,,,,1787.16,6.0,1787.16,,,,1789.674,1790.187,1789.163,1789.674,1788.14,255.0,1789.162,1790.187,1790.673,1790.674,1792.322,1029.0,1792.323,3.0,1793.32,6.0,9.0,189.0,21.0,1.0,1.0,0.3,Time
,,S43,1,Male,25,anonymized,Serial_Dependence_U,2023.2.3,Win32,29.94011976,,,,,,,,,,,,1793.321,6.0,1793.321,,,,1795.687,1796.179,1795.165,1795.687,1794.339,52.0,1795.165,1796.179,1796.63,1796.63,1797.757,709.0,1797.757,2.0,1798.74,6.0,10.0,190.0,25.0,1.0,0.8,0.7,Time
,,S43,1,Male,25,anonymized,Serial_Dependence_U,2023.2.3,Win32,29.94011976,,,,,,,,,,,,1798.741,6.0,1798.741,,,,1801.524,1802.013,1800.994,1801.524,1799.764,338.0,1800.994,1802.013,1802.502,1802.502,1803.181,631.0,1803.181,1.0,1804.175,6.0,11.0,191.0,27.0,1.0,1.2,0.7,Time
,,S43,1,Male,25,anonymized,Serial_Dependence_U,2023.2.3,Win32,29.94011976,,,,,,,,,,,,1804.176,6.0,1804.176,,,,1806.909,1807.39,1806.383,1806.909,1805.178,66.0,1806.382,1807.39,1807.873,1807.873,1811.625,979.0,1811.625,2.0,1812.603,6.0,12.0,192.0,12.0,1.0,1.2,0.3,Time
,,S43,1,Male,25,anonymized,Serial_Dependence_U,2023.2.3,Win32,29.94011976,,,,,,,,,,,,1812.603,6.0,1812.604,,,,1815.789,1816.279,1815.258,1815.789,1813.623,104.0,1815.257,1816.279,1816.781,1816.781,1818.562,1596.0,1818.562,3.0,1819.538,6.0,13.0,193.0,19.0,1.0,1.6,0.7,Time
,,S43,1,Male,25,anonymized,Serial_Dependence_U,2023.2.3,Win32,29.94011976,,,,,,,,,,,,1819.538,6.0,1819.539,,,,1822.751,1823.247,1822.192,1822.75,1820.559,290.0,1822.192,1823.247,1823.746,1823.746,1825.681,1075.0,1825.681,1.0,1826.677,6.0,14.0,194.0,14.0,1.0,1.6,0.3,Time
,,S43,1,Male,25,anonymized,Serial_Dependence_U,2023.2.3,Win32,29.94011976,,,,,,,,,,,,1826.678,6.0,1826.679,,,,1829.24,1829.709,1828.725,1829.24,1827.689,23.0,1828.725,1829.709,1830.207,1830.207,1830.809,554.0,1830.81,1.0,1831.802,6.0,15.0,195.0,1.0,1.0,1.0,0.3,Time
,,S43,1,Male,25,anonymized,Serial_Dependence_U,2023.2.3,Win32,29.94011976,,,,,,,,,,,,1831.803,6.0,1831.803,,,,1834.966,1835.444,1834.447,1834.966,1832.821,67.0,1834.447,1835.445,1835.935,1835.935,1838.573,844.0,1838.573,1.0,1839.554,6.0,16.0,196.0,9.0,1.0,1.6,0.7,Time
,,S43,1,Male,25,anonymized,Serial_Dependence_U,2023.2.3,Win32,29.94011976,,,,,,,,,,,,1839.554,6.0,1839.555,,,,1842.317,1842.816,1841.792,1842.317,1840.556,264.0,1841.791,1842.816,1843.305,1843.305,1845.062,1282.0,1845.062,4.0,1846.041,6.0,17.0,197.0,17.0,1.0,1.2,0.7,Time
,,S43,1,Male,25,anonymized,Serial_Dependence_U,2023.2.3,Win32,29.94011976,,,,,,,,,,,,1846.041,6.0,1846.042,,,,1849.003,1849.501,1848.488,1849.003,1847.048,298.0,1848.488,1849.501,1850.006,1850.006,1851.513,938.0,1851.514,1.0,1852.506,6.0,18.0,198.0,8.0,1.0,1.4,0.7,Time
,,S43,1,Male,25,anonymized,Serial_Dependence_U,2023.2.3,Win32,29.94011976,,,,,,,,,,,,1852.506,6.0,1852.507,,,,1855.312,1855.832,1854.756,1855.312,1853.51,107.0,1854.756,1855.832,1856.313,1856.313,1857.251,887.0,1857.252,2.0,1858.235,6.0,19.0,199.0,2.0,1.0,1.2,0.3,Time
,,S43,1,Male,25,anonymized,Serial_Dependence_U,2023.2.3,Win32,29.94011976,,,,,,,,,,,,1858.235,6.0,1858.236,,,,1861.179,1861.675,1860.662,1861.179,1859.24,211.0,1860.661,1861.675,1862.149,1862.149,1863.777,1221.0,1863.778,2.0,1864.76,6.0,20.0,200.0,23.0,1.0,1.4,0.3,Time
,,S43,1,Male,25,anonymized,Serial_Dependence_U,2023.2.3,Win32,29.94011976,,,,,,,,,,,,1864.761,6.0,1864.761,,,,1867.703,1868.205,1867.202,1867.702,1865.768,260.0,1867.201,1868.205,1868.71,1868.71,1870.812,1683.0,1870.812,4.0,1871.777,6.0,21.0,201.0,18.0,1.0,1.4,0.7,Time
,,S43,1,Male,25,anonymized,Serial_Dependence_U,2023.2.3,Win32,29.94011976,,,,,,,,,,,,1871.777,6.0,1871.777,,,,1874.935,1875.439,1874.405,1874.935,1872.779,180.0,1874.404,1875.439,1875.937,1875.937,1877.636,1193.0,1877.637,2.0,1878.624,6.0,22.0,202.0,24.0,1.0,1.6,0.3,Time
,,S43,1,Male,25,anonymized,Serial_Dependence_U,2023.2.3,Win32,29.94011976,,,,,,,,,,,,1878.624,6.0,1878.625,,,,1881.201,1881.709,1880.683,1881.201,1879.631,173.0,1880.683,1881.709,1882.212,1882.212,1883.388,753.0,1883.388,2.0,1884.36,6.0,23.0,203.0,11.0,1.0,1.0,0.3,Time
,,S43,1,Male,25,anonymized,Serial_Dependence_U,2023.2.3,Win32,29.94011976,,,,,,,,,,,,1884.36,6.0,1884.361,,,,1886.76,1887.262,1886.208,1886.76,1885.361,87.0,1886.208,1887.262,1887.736,1887.736,1890.559,2216.0,1890.56,5.0,1891.543,6.0,24.0,204.0,0.0,1.0,0.8,0.3,Time
,,S43,1,Male,25,anonymized,Serial_Dependence_U,2023.2.3,Win32,29.94011976,,,,,,,,,,,,1891.544,6.0,1891.545,,,,1893.905,1894.407,1893.387,1893.905,1892.568,85.0,1893.386,1894.407,1894.892,1894.892,1897.425,1619.0,1897.426,5.0,1898.42,6.0,25.0,205.0,5.0,1.0,0.8,0.7,Time
,,S43,1,Male,25,anonymized,Serial_Dependence_U,2023.2.3,Win32,29.94011976,,,,,,,,,,,,1898.421,6.0,1898.421,,,,1901.379,1901.893,1900.851,1901.379,1899.424,316.0,1900.851,1901.893,1902.382,1902.382,1904.004,1062.0,1904.004,2.0,1904.99,6.0,26.0,206.0,3.0,1.0,1.4,0.3,Time
,,S43,1,Male,25,anonymized,Serial_Dependence_U,2023.2.3,Win32,29.94011976,,,,,,,,,,,,1904.991,6.0,1904.991,,,,1907.926,1908.43,1907.421,1907.926,1905.991,18.0,1907.421,1908.43,1908.924,1908.924,1910.925,1488.0,1910.925,4.0,1911.913,6.0,27.0,207.0,13.0,1.0,1.4,0.3,Time
,,S43,1,Male,25,anonymized,Serial_Dependence_U,2023.2.3,Win32,29.94011976,,,,,,,,,,,,1911.914,6.0,1911.914,,,,1914.664,1915.129,1914.145,1914.663,1912.921,91.0,1914.145,1915.129,1915.625,1915.625,1917.126,1071.0,1917.126,2.0,1918.126,6.0,28.0,208.0,22.0,1.0,1.2,0.3,Time
,,S43,1,Male,25,anonymized,Serial_Dependence_U,2023.2.3,Win32,29.94011976,,,,,,,,,,,,1918.126,6.0,1918.127,,,,1920.455,1920.957,1919.934,1920.455,1919.126,97.0,1919.934,1920.957,1921.457,1921.457,1922.772,1045.0,1922.773,5.0,1923.778,6.0,29.0,209.0,15.0,1.0,0.8,0.7,Time
,,S43,1,Male,25,anonymized,Serial_Dependence_U,2023.2.3,Win32,29.94011976,,,,,,,,,,,,1923.779,7.0,1926.916,s,3.09,,1929.245,1929.71,1928.724,1929.245,1927.893,193.0,1928.724,1929.71,1930.205,1930.205,1932.384,1318.0,1932.384,5.0,1933.36,7.0,0.0,210.0,5.0,1.0,0.8,0.7,Time
,,S43,1,Male,25,anonymized,Serial_Dependence_U,2023.2.3,Win32,29.94011976,,,,,,,,,,,,1933.36,7.0,1933.363,,,,1936.317,1936.816,1935.801,1936.317,1934.355,217.0,1935.801,1936.816,1937.328,1937.328,1938.619,872.0,1938.62,1.0,1939.605,7.0,1.0,211.0,8.0,1.0,1.4,0.7,Time
,,S43,1,Male,25,anonymized,Serial_Dependence_U,2023.2.3,Win32,29.94011976,,,,,,,,,,,,1939.605,7.0,1939.606,,,,1942.743,1943.242,1942.229,1942.743,1940.621,172.0,1942.229,1943.242,1943.743,1943.743,1945.347,1079.0,1945.347,1.0,1946.319,7.0,2.0,212.0,4.0,1.0,1.6,0.3,Time
,,S43,1,Male,25,anonymized,Serial_Dependence_U,2023.2.3,Win32,29.94011976,,,,,,,,,,,,1946.319,7.0,1946.32,,,,1949.065,1949.577,1948.542,1949.065,1947.337,155.0,1948.542,1949.577,1950.068,1950.068,1952.057,1123.0,1952.057,2.0,1953.042,7.0,3.0,213.0,7.0,1.0,1.2,0.7,Time
,,S43,1,Male,25,anonymized,Serial_Dependence_U,2023.2.3,Win32,29.94011976,,,,,,,,,,,,1953.043,7.0,1953.043,,,,1956.234,1956.73,1955.693,1956.234,1954.08,43.0,1955.693,1956.73,1957.208,1957.208,1959.939,1380.0,1959.939,2.0,1960.944,7.0,4.0,214.0,19.0,1.0,1.6,0.7,Time
,,S43,1,Male,25,anonymized,Serial_Dependence_U,2023.2.3,Win32,29.94011976,,,,,,,,,,,,1960.945,7.0,1960.945,,,,1963.907,1964.373,1963.388,1963.907,1961.959,1.0,1963.388,1964.373,1964.866,1964.867,1965.711,794.0,1965.711,1.0,1966.691,7.0,5.0,215.0,13.0,1.0,1.4,0.3,Time
,,S43,1,Male,25,anonymized,Serial_Dependence_U,2023.2.3,Win32,29.94011976,,,,,,,,,,,,1966.692,7.0,1966.692,,,,1969.84,1970.336,1969.321,1969.84,1967.691,287.0,1969.321,1970.336,1970.826,1970.826,1971.507,472.0,1971.507,1.0,1972.495,7.0,6.0,216.0,29.0,1.0,1.6,0.7,Time
,,S43,1,Male,25,anonymized,Serial_Dependence_U,2023.2.3,Win32,29.94011976,,,,,,,,,,,,1972.495,7.0,1972.495,,,,1975.662,1976.154,1975.118,1975.662,1973.509,157.0,1975.118,1976.154,1976.629,1976.629,1979.335,1229.0,1979.336,2.0,1980.317,7.0,7.0,217.0,9.0,1.0,1.6,0.7,Time
,,S43,1,Male,25,anonymized,Serial_Dependence_U,2023.2.3,Win32,29.94011976,,,,,,,,,,,,1980.318,7.0,1980.319,,,,1982.882,1983.381,1982.353,1982.882,1981.32,190.0,1982.353,1983.381,1983.883,1983.883,1985.966,1370.0,1985.967,5.0,1986.963,7.0,8.0,218.0,6.0,1.0,1.0,0.7,Time
,,S43,1,Male,25,anonymized,Serial_Dependence_U,2023.2.3,Win32,29.94011976,,,,,,,,,,,,1986.963,7.0,1986.963,,,,1989.939,1990.443,1989.421,1989.939,1987.982,51.0,1989.421,1990.444,1990.946,1990.946,1992.52,1303.0,1992.521,2.0,1993.506,7.0,9.0,219.0,18.0,1.0,1.4,0.7,Time
,,S43,1,Male,25,anonymized,Serial_Dependence_U,2023.2.3,Win32,29.94011976,,,,,,,,,,,,1993.507,7.0,1993.507,,,,1996.275,1996.778,1995.76,1996.275,1994.531,305.0,1995.759,1996.778,1997.276,1997.276,1999.118,1266.0,1999.118,4.0,2000.118,7.0,10.0,220.0,17.0,1.0,1.2,0.7,Time
,,S43,1,Male,25,anonymized,Serial_Dependence_U,2023.2.3,Win32,29.94011976,,,,,,,,,,,,2000.118,7.0,2000.119,,,,2003.313,2003.811,2002.767,2003.313,2001.126,17.0,2002.767,2003.811,2004.307,2004.307,2005.688,1059.0,2005.688,1.0,2006.683,7.0,11.0,221.0,24.0,1.0,1.6,0.3,Time
,,S43,1,Male,25,anonymized,Serial_Dependence_U,2023.2.3,Win32,29.94011976,,,,,,,,,,,,2006.683,7.0,2006.684,,,,2009.469,2009.974,2008.92,2009.468,2007.69,57.0,2008.92,2009.974,2010.453,2010.453,2012.958,1049.0,2012.958,2.0,2013.955,7.0,12.0,222.0,2.0,1.0,1.2,0.3,Time
,,S43,1,Male,25,anonymized,Serial_Dependence_U,2023.2.3,Win32,29.94011976,,,,,,,,,,,,2013.956,7.0,2013.956,,,,2016.932,2017.44,2016.42,2016.932,2015.001,190.0,2016.42,2017.44,2017.936,2017.936,2019.776,1383.0,2019.777,3.0,2020.766,7.0,13.0,223.0,3.0,1.0,1.4,0.3,Time
,,S43,1,Male,25,anonymized,Serial_Dependence_U,2023.2.3,Win32,29.94011976,,,,,,,,,,,,2020.767,7.0,2020.767,,,,2023.352,2023.846,2022.832,2023.352,2021.784,72.0,2022.832,2023.846,2024.337,2024.337,2026.21,1342.0,2026.21,5.0,2027.196,7.0,14.0,224.0,1.0,1.0,1.0,0.3,Time
,,S43,1,Male,25,anonymized,Serial_Dependence_U,2023.2.3,Win32,29.94011976,,,,,,,,,,,,2027.196,7.0,2027.197,,,,2030.177,2030.675,2029.641,2030.177,2028.219,187.0,2029.641,2030.676,2031.189,2031.189,2032.068,827.0,2032.068,1.0,2033.039,7.0,15.0,225.0,23.0,1.0,1.4,0.3,Time
,,S43,1,Male,25,anonymized,Serial_Dependence_U,2023.2.3,Win32,29.94011976,,,,,,,,,,,,2033.04,7.0,2033.04,,,,2035.784,2036.293,2035.262,2035.784,2034.048,279.0,2035.261,2036.294,2036.789,2036.789,2039.067,1123.0,2039.068,2.0,2040.075,7.0,16.0,226.0,27.0,1.0,1.2,0.7,Time
,,S43,1,Male,25,anonymized,Serial_Dependence_U,2023.2.3,Win32,29.94011976,,,,,,,,,,,,2040.076,7.0,2040.076,,,,2042.397,2042.901,2041.863,2042.397,2041.05,3.0,2041.862,2042.901,2043.367,2043.367,2044.122,707.0,2044.123,2.0,2045.134,7.0,17.0,227.0,15.0,1.0,0.8,0.7,Time
,,S43,1,Male,25,anonymized,Serial_Dependence_U,2023.2.3,Win32,29.94011976,,,,,,,,,,,,2045.135,7.0,2045.135,,,,2048.287,2048.756,2047.752,2048.287,2046.145,200.0,2047.752,2048.756,2049.224,2049.224,2050.776,1115.0,2050.776,1.0,2051.764,7.0,18.0,228.0,14.0,1.0,1.6,0.3,Time
,,S43,1,Male,25,anonymized,Serial_Dependence_U,2023.2.3,Win32,29.94011976,,,,,,,,,,,,2051.764,7.0,2051.764,,,,2054.333,2054.832,2053.81,2054.333,2052.778,322.0,2053.809,2054.832,2055.316,2055.316,2057.049,949.0,2057.049,2.0,2058.034,7.0,19.0,229.0,16.0,1.0,1.0,0.7,Time
,,S43,1,Male,25,anonymized,Serial_Dependence_U,2023.2.3,Win32,29.94011976,,,,,,,,,,,,2058.035,7.0,2058.035,,,,2060.406,2060.91,2059.886,2060.405,2059.062,211.0,2059.886,2060.91,2061.395,2061.395,2063.195,1308.0,2063.195,5.0,2064.174,7.0,20.0,230.0,25.0,1.0,0.8,0.7,Time
,,S43,1,Male,25,anonymized,Serial_Dependence_U,2023.2.3,Win32,29.94011976,,,,,,,,,,,,2064.175,7.0,2064.175,,,,2066.501,2066.994,2065.975,2066.501,2065.159,84.0,2065.975,2066.994,2067.461,2067.461,2069.056,1172.0,2069.056,5.0,2070.038,7.0,21.0,231.0,10.0,1.0,0.8,0.3,Time
,,S43,1,Male,25,anonymized,Serial_Dependence_U,2023.2.3,Win32,29.94011976,,,,,,,,,,,,2070.039,7.0,2070.039,,,,2072.563,2073.063,2072.044,2072.562,2071.026,327.0,2072.043,2073.063,2073.562,2073.562,2075.042,1065.0,2075.043,4.0,2076.026,7.0,22.0,232.0,11.0,1.0,1.0,0.3,Time
,,S43,1,Male,25,anonymized,Serial_Dependence_U,2023.2.3,Win32,29.94011976,,,,,,,,,,,,2076.026,7.0,2076.027,,,,2078.81,2079.303,2078.298,2078.809,2077.055,252.0,2078.298,2079.304,2079.781,2079.781,2081.317,1060.0,2081.317,2.0,2082.288,7.0,23.0,233.0,22.0,1.0,1.2,0.3,Time
,,S43,1,Male,25,anonymized,Serial_Dependence_U,2023.2.3,Win32,29.94011976,,,,,,,,,,,,2082.288,7.0,2082.289,,,,2084.636,2085.118,2084.113,2084.636,2083.284,249.0,2084.113,2085.119,2085.598,2085.598,2087.558,1352.0,2087.559,5.0,2088.565,7.0,24.0,234.0,0.0,1.0,0.8,0.3,Time
,,S43,1,Male,25,anonymized,Serial_Dependence_U,2023.2.3,Win32,29.94011976,,,,,,,,,,,,2088.566,7.0,2088.567,,,,2091.322,2091.827,2090.788,2091.322,2089.55,140.0,2090.788,2091.827,2092.318,2092.318,2093.69,1272.0,2093.69,4.0,2094.685,7.0,25.0,235.0,12.0,1.0,1.2,0.3,Time
,,S43,1,Male,25,anonymized,Serial_Dependence_U,2023.2.3,Win32,29.94011976,,,,,,,,,,,,2094.685,7.0,2094.686,,,,2097.254,2097.718,2096.717,2097.254,2095.698,345.0,2096.717,2097.718,2098.219,2098.219,2099.819,1016.0,2099.819,3.0,2100.802,7.0,26.0,236.0,26.0,1.0,1.0,0.7,Time
,,S43,1,Male,25,anonymized,Serial_Dependence_U,2023.2.3,Win32,29.94011976,,,,,,,,,,,,2100.803,7.0,2100.803,,,,2103.763,2104.285,2103.248,2103.763,2101.824,233.0,2103.248,2104.285,2104.776,2104.776,2106.376,1139.0,2106.377,2.0,2107.374,7.0,27.0,237.0,28.0,1.0,1.4,0.7,Time
,,S43,1,Male,25,anonymized,Serial_Dependence_U,2023.2.3,Win32,29.94011976,,,,,,,,,,,,2107.374,7.0,2107.375,,,,2109.965,2110.464,2109.444,2109.965,2108.416,301.0,2109.444,2110.464,2110.937,2110.937,2112.956,1613.0,2112.957,5.0,2113.943,7.0,28.0,238.0,21.0,1.0,1.0,0.3,Time
,,S43,1,Male,25,anonymized,Serial_Dependence_U,2023.2.3,Win32,29.94011976,,,,,,,,,,,,2113.944,7.0,2113.944,,,,2116.274,2116.75,2115.749,2116.274,2114.947,185.0,2115.749,2116.75,2117.238,2117.238,2120.575,1899.0,2120.576,5.0,2121.577,7.0,29.0,239.0,20.0,1.0,0.8,0.3,Time
,,S43,1,Male,25,anonymized,Serial_Dependence_U,2023.2.3,Win32,29.94011976,,,,,,,,,,,,2121.578,8.0,2131.351,s,9.729,,2133.719,2134.218,2133.176,2133.718,2132.355,15.0,2133.176,2134.218,2134.684,2134.684,2136.757,1854.0,2136.757,5.0,2137.739,8.0,0.0,240.0,5.0,1.0,0.8,0.7,Time
,,S43,1,Male,25,anonymized,Serial_Dependence_U,2023.2.3,Win32,29.94011976,,,,,,,,,,,,2137.74,8.0,2137.742,,,,2140.935,2141.433,2140.402,2140.935,2138.758,10.0,2140.402,2141.433,2141.922,2141.922,2144.057,1717.0,2144.058,4.0,2145.055,8.0,1.0,241.0,14.0,1.0,1.6,0.3,Time
,,S43,1,Male,25,anonymized,Serial_Dependence_U,2023.2.3,Win32,29.94011976,,,,,,,,,,,,2145.055,8.0,2145.056,,,,2147.616,2148.09,2147.115,2147.615,2146.071,32.0,2147.115,2148.09,2148.575,2148.575,2150.06,1070.0,2150.061,4.0,2151.037,8.0,2.0,242.0,11.0,1.0,1.0,0.3,Time
,,S43,1,Male,25,anonymized,Serial_Dependence_U,2023.2.3,Win32,29.94011976,,,,,,,,,,,,2151.038,8.0,2151.038,,,,2153.587,2154.08,2153.056,2153.587,2152.047,282.0,2153.056,2154.08,2154.569,2154.569,2156.509,1327.0,2156.509,5.0,2157.487,8.0,3.0,243.0,16.0,1.0,1.0,0.7,Time
,,S43,1,Male,25,anonymized,Serial_Dependence_U,2023.2.3,Win32,29.94011976,,,,,,,,,,,,2157.488,8.0,2157.488,,,,2160.476,2160.966,2159.941,2160.476,2158.503,37.0,2159.941,2160.966,2161.46,2161.46,2164.037,1438.0,2164.037,3.0,2165.037,8.0,4.0,244.0,3.0,1.0,1.4,0.3,Time
,,S43,1,Male,25,anonymized,Serial_Dependence_U,2023.2.3,Win32,29.94011976,,,,,,,,,,,,2165.037,8.0,2165.038,,,,2168.035,2168.539,2167.515,2168.035,2166.065,195.0,2167.515,2168.539,2169.008,2169.008,2170.735,1216.0,2170.735,2.0,2171.717,8.0,5.0,245.0,13.0,1.0,1.4,0.3,Time
,,S43,1,Male,25,anonymized,Serial_Dependence_U,2023.2.3,Win32,29.94011976,,,,,,,,,,,,2171.717,8.0,2171.718,,,,2174.463,2174.976,2173.931,2174.463,2172.729,95.0,2173.931,2174.976,2175.486,2175.486,2177.042,1078.0,2177.043,2.0,2178.031,8.0,6.0,246.0,27.0,1.0,1.2,0.7,Time
,,S43,1,Male,25,anonymized,Serial_Dependence_U,2023.2.3,Win32,29.94011976,,,,,,,,,,,,2178.032,8.0,2178.032,,,,2180.375,2180.84,2179.849,2180.375,2179.033,232.0,2179.848,2180.84,2181.34,2181.34,2183.431,906.0,2183.432,4.0,2184.424,8.0,7.0,247.0,25.0,1.0,0.8,0.7,Time
,,S43,1,Male,25,anonymized,Serial_Dependence_U,2023.2.3,Win32,29.94011976,,,,,,,,,,,,2184.425,8.0,2184.425,,,,2187.594,2188.118,2187.07,2187.594,2185.438,205.0,2187.07,2188.118,2188.596,2188.596,2189.808,1015.0,2189.808,1.0,2190.773,8.0,8.0,248.0,19.0,1.0,1.6,0.7,Time
,,S43,1,Male,25,anonymized,Serial_Dependence_U,2023.2.3,Win32,29.94011976,,,,,,,,,,,,2190.773,8.0,2190.774,,,,2193.78,2194.301,2193.249,2193.78,2191.821,356.0,2193.249,2194.301,2194.795,2194.795,2196.143,982.0,2196.143,2.0,2197.136,8.0,9.0,249.0,23.0,1.0,1.4,0.3,Time
,,S43,1,Male,25,anonymized,Serial_Dependence_U,2023.2.3,Win32,29.94011976,,,,,,,,,,,,2197.136,8.0,2197.136,,,,2200.284,2200.776,2199.753,2200.284,2198.142,249.0,2199.753,2200.776,2201.25,2201.25,2202.47,1061.0,2202.47,1.0,2203.457,8.0,10.0,250.0,29.0,1.0,1.6,0.7,Time
,,S43,1,Male,25,anonymized,Serial_Dependence_U,2023.2.3,Win32,29.94011976,,,,,,,,,,,,2203.458,8.0,2203.458,,,,2206.249,2206.755,2205.719,2206.249,2204.479,322.0,2205.719,2206.755,2207.218,2207.218,2208.459,1082.0,2208.46,2.0,2209.449,8.0,11.0,251.0,12.0,1.0,1.2,0.3,Time
,,S43,1,Male,25,anonymized,Serial_Dependence_U,2023.2.3,Win32,29.94011976,,,,,,,,,,,,2209.45,8.0,2209.45,,,,2212.436,2212.929,2211.906,2212.435,2210.462,348.0,2211.906,2212.929,2213.419,2213.419,2214.982,984.0,2214.982,2.0,2215.971,8.0,12.0,252.0,28.0,1.0,1.4,0.7,Time
,,S43,1,Male,25,anonymized,Serial_Dependence_U,2023.2.3,Win32,29.94011976,,,,,,,,,,,,2215.972,8.0,2215.972,,,,2218.385,2218.876,2217.866,2218.385,2217.014,82.0,2217.866,2218.876,2219.374,2219.374,2220.93,1241.0,2220.931,5.0,2221.922,8.0,13.0,253.0,15.0,1.0,0.8,0.7,Time
,,S43,1,Male,25,anonymized,Serial_Dependence_U,2023.2.3,Win32,29.94011976,,,,,,,,,,,,2221.922,8.0,2221.922,,,,2225.103,2225.605,2224.563,2225.103,2222.94,22.0,2224.562,2225.605,2226.118,2226.119,2226.833,664.0,2226.846,1.0,2227.831,8.0,14.0,254.0,4.0,1.0,1.6,0.3,Time
,,S43,1,Male,25,anonymized,Serial_Dependence_U,2023.2.3,Win32,29.94011976,,,,,,,,,,,,2227.832,8.0,2227.833,,,,2230.189,2230.655,2229.664,2230.189,2228.853,68.0,2229.664,2230.655,2231.144,2231.144,2231.37,45.0,2231.37,1.0,2232.351,8.0,15.0,255.0,20.0,1.0,0.8,0.3,Time
,,S43,1,Male,25,anonymized,Serial_Dependence_U,2023.2.3,Win32,29.94011976,,,,,,,,,,,,2232.352,8.0,2232.352,,,,2234.773,2235.287,2234.239,2234.773,2233.406,152.0,2234.239,2235.287,2235.782,2235.783,2237.172,923.0,2237.173,4.0,2238.182,8.0,16.0,256.0,10.0,1.0,0.8,0.3,Time
,,S43,1,Male,25,anonymized,Serial_Dependence_U,2023.2.3,Win32,29.94011976,,,,,,,,,,,,2238.183,8.0,2238.183,,,,2240.957,2241.458,2240.435,2240.957,2239.193,155.0,2240.435,2241.458,2241.964,2241.964,2242.158,145.0,2242.158,1.0,2243.142,8.0,17.0,257.0,2.0,1.0,1.2,0.3,Time
,,S43,1,Male,25,anonymized,Serial_Dependence_U,2023.2.3,Win32,29.94011976,,,,,,,,,,,,2243.142,8.0,2243.142,,,,2245.9,2246.387,2245.372,2245.9,2244.158,103.0,2245.372,2246.387,2246.904,2246.904,2248.698,1310.0,2248.699,4.0,2249.669,8.0,18.0,258.0,17.0,1.0,1.2,0.7,Time
,,S43,1,Male,25,anonymized,Serial_Dependence_U,2023.2.3,Win32,29.94011976,,,,,,,,,,,,2249.67,8.0,2249.67,,,,2252.637,2253.141,2252.119,2252.637,2250.679,257.0,2252.119,2253.141,2253.627,2253.627,2255.841,1771.0,2255.842,4.0,2256.851,8.0,19.0,259.0,8.0,1.0,1.4,0.7,Time
,,S43,1,Male,25,anonymized,Serial_Dependence_U,2023.2.3,Win32,29.94011976,,,,,,,,,,,,2256.852,8.0,2256.852,,,,2259.427,2259.922,2258.91,2259.427,2257.883,57.0,2258.91,2259.922,2260.44,2260.44,2261.858,1365.0,2261.858,5.0,2262.839,8.0,20.0,260.0,6.0,1.0,1.0,0.7,Time
,,S43,1,Male,25,anonymized,Serial_Dependence_U,2023.2.3,Win32,29.94011976,,,,,,,,,,,,2262.839,8.0,2262.84,,,,2265.582,2266.062,2265.069,2265.582,2263.866,168.0,2265.069,2266.062,2266.569,2266.569,2268.126,1055.0,2268.127,2.0,2269.095,8.0,21.0,261.0,22.0,1.0,1.2,0.3,Time
,,S43,1,Male,25,anonymized,Serial_Dependence_U,2023.2.3,Win32,29.94011976,,,,,,,,,,,,2269.095,8.0,2269.096,,,,2271.662,2272.178,2271.157,2271.662,2270.11,123.0,2271.157,2272.178,2272.684,2272.684,2274.337,1024.0,2274.337,3.0,2275.335,8.0,22.0,262.0,1.0,1.0,1.0,0.3,Time
,,S43,1,Male,25,anonymized,Serial_Dependence_U,2023.2.3,Win32,29.94011976,,,,,,,,,,,,2275.336,8.0,2275.336,,,,2277.933,2278.439,2277.413,2277.933,2276.354,110.0,2277.413,2278.439,2278.935,2278.935,2280.071,976.0,2280.071,3.0,2281.075,8.0,23.0,263.0,21.0,1.0,1.0,0.3,Time
,,S43,1,Male,25,anonymized,Serial_Dependence_U,2023.2.3,Win32,29.94011976,,,,,,,,,,,,2281.076,8.0,2281.076,,,,2284.266,2284.757,2283.733,2284.266,2282.093,238.0,2283.733,2284.757,2285.241,2285.242,2286.478,955.0,2286.479,1.0,2287.459,8.0,24.0,264.0,24.0,1.0,1.6,0.3,Time
,,S43,1,Male,25,anonymized,Serial_Dependence_U,2023.2.3,Win32,29.94011976,,,,,,,,,,,,2287.46,8.0,2287.46,,,,2290.656,2291.119,2290.12,2290.655,2288.487,356.0,2290.12,2291.119,2291.607,2291.607,2292.814,987.0,2292.815,1.0,2293.791,8.0,25.0,265.0,9.0,1.0,1.6,0.7,Time
,,S43,1,Male,25,anonymized,Serial_Dependence_U,2023.2.3,Win32,29.94011976,,,,,,,,,,,,2293.792,8.0,2293.793,,,,2299.769,2300.242,2299.245,2299.769,2294.829,175.0,2299.245,2300.242,2300.706,2300.707,2302.505,1172.0,2302.506,5.0,2303.484,8.0,26.0,266.0,0.0,1.0,0.8,0.3,Time
,,S43,1,Male,25,anonymized,Serial_Dependence_U,2023.2.3,Win32,29.94011976,,,,,,,,,,,,2303.484,8.0,2303.485,,,,2306.223,2306.715,2305.712,2306.223,2304.49,109.0,2305.712,2306.715,2307.205,2307.206,2308.678,961.0,2308.678,2.0,2309.693,8.0,27.0,267.0,7.0,1.0,1.2,0.7,Time
,,S43,1,Male,25,anonymized,Serial_Dependence_U,2023.2.3,Win32,29.94011976,,,,,,,,,,,,2309.693,8.0,2309.694,,,,2312.68,2313.185,2312.165,2312.68,2310.727,104.0,2312.165,2313.185,2313.684,2313.684,2314.969,963.0,2314.969,1.0,2315.963,8.0,28.0,268.0,18.0,1.0,1.4,0.7,Time
,,S43,1,Male,25,anonymized,Serial_Dependence_U,2023.2.3,Win32,29.94011976,,,,,,,,,,,,2315.964,8.0,2315.965,,,,2318.531,2318.996,2318.019,2318.531,2317.0,157.0,2318.019,2318.996,2319.493,2319.493,2320.668,936.0,2320.669,2.0,2321.663,8.0,29.0,269.0,26.0,1.0,1.0,0.7,Time
