Scale_setup.started,Scale_setup.stopped,participant,expid,session,sex,age,date,expName,psychopyVersion,OS,frameRate,screen_scale_keys.started,screen_scale_keys.stopped,X Scale,Y Scale,rectangel_keys.started,rectangel_keys.stopped,Intro.started,Intro.stopped,key_resp_2.keys,key_resp_2.rt,key_resp_2.duration,block.started,Block_id,block.stopped,Block_resp_2.keys,Block_resp_2.rt,Block_resp_2.duration,ITI.started,ITI.stopped,Mask_2.started,Mask_2.stopped,M2.started,direction,M2.stopped,Cue.started,Cue.stopped,Response.started,Response.stopped,keyDuration,Feedback_Time.started,FeedbackID_T,Feedback_Time.stopped,trials.thisRepN,trials.thisTrialN,trials.thisN,trials.thisIndex,trials.ran,TimeDur,Coherence1,TrialType
0.0001,0.0002,S01,002046,1,Female,32,anonymized,Serial_Dependence_U,2023.2.3,MacIntel,62.11180124,,,,,,,,,,,,,,,,,,,,,,,,,,,,,,,,,,,,,,,,
,,S01,002046,1,Female,32,anonymized,Serial_Dependence_U,2023.2.3,MacIntel,62.11180124,0.0009,73.5541,0.0551,0.0548,73.5546,81.7874,81.7877,118.9203,space,37.1057,,,,,,,,,,,,,,,,,,,,,,,,,,,,,,
,,S01,002046,1,Female,32,anonymized,Serial_Dependence_U,2023.2.3,MacIntel,62.11180124,,,,,,,,,,,,118.9278,0.0,124.7525,s,5.7959,,127.1038,127.602,126.5863,127.1036,125.7713,235.0,126.5861,127.6024,128.1032,128.1037,134.1197,9999.0,134.1206,0.0,135.1189,0.0,0.0,0.0,10.0,1.0,0.8,0.3,Time
,,S01,002046,1,Female,32,anonymized,Serial_Dependence_U,2023.2.3,MacIntel,62.11180124,,,,,,,,,,,,135.1198,0.0,135.1221,,,,137.8702,138.3695,137.3535,137.87,136.1361,277.0,137.3534,138.3695,138.8686,138.8687,144.8855,9999.0,144.886,0.0,145.8863,0.0,1.0,1.0,2.0,1.0,1.2,0.3,Time
,,S01,002046,1,Female,32,anonymized,Serial_Dependence_U,2023.2.3,MacIntel,62.11180124,,,,,,,,,,,,145.8869,0.0,145.8873,,,,148.8182,149.3184,148.3033,148.8182,146.8866,30.0,148.3032,149.3184,149.8193,149.8194,155.8355,9999.0,155.8359,0.0,156.835,0.0,2.0,2.0,8.0,1.0,1.4,0.7,Time
,,S01,002046,1,Female,32,anonymized,Serial_Dependence_U,2023.2.3,MacIntel,62.11180124,,,,,,,,,,,,156.8359,0.0,156.8361,,,,159.3873,159.8859,158.869,159.3869,157.8532,185.0,158.8687,159.8859,160.3859,160.3859,166.4019,9999.0,166.4023,0.0,167.4024,0.0,3.0,3.0,21.0,1.0,1.0,0.3,Time
,,S01,002046,1,Female,32,anonymized,Serial_Dependence_U,2023.2.3,MacIntel,62.11180124,,,,,,,,,,,,167.4032,0.0,167.4035,,,,170.5521,171.0524,170.0364,170.5521,168.4197,220.0,170.0362,171.0525,171.5514,171.5515,174.4019,1788.6,174.4021,4.0,175.4016,0.0,4.0,4.0,9.0,1.0,1.6,0.7,Time
,,S01,002046,1,Female,32,anonymized,Serial_Dependence_U,2023.2.3,MacIntel,62.11180124,,,,,,,,,,,,175.4022,0.0,175.4025,,,,177.7362,178.2347,177.2197,177.7361,176.403,322.0,177.2195,178.2348,178.7357,178.7358,184.7527,9999.0,184.753,0.0,185.7523,0.0,5.0,5.0,5.0,1.0,0.8,0.7,Time
,,S01,002046,1,Female,32,anonymized,Serial_Dependence_U,2023.2.3,MacIntel,62.11180124,,,,,,,,,,,,185.7529,0.0,185.7534,,,,188.9028,189.4013,188.3862,188.9026,186.7694,34.0,188.386,189.402,189.9013,189.9014,191.418,1164.4,191.4183,2.0,192.4178,0.0,6.0,6.0,29.0,1.0,1.6,0.7,Time
,,S01,002046,1,Female,32,anonymized,Serial_Dependence_U,2023.2.3,MacIntel,62.11180124,,,,,,,,,,,,192.4185,0.0,192.419,,,,195.3685,195.8677,194.8529,195.3683,193.4361,354.0,194.8528,195.8678,196.3679,196.368,196.4523,7.400000036,196.4526,1.0,197.4511,0.0,7.0,7.0,3.0,1.0,1.4,0.3,Time
,,S01,002046,1,Female,32,anonymized,Serial_Dependence_U,2023.2.3,MacIntel,62.11180124,,,,,,,,,,,,197.4518,0.0,197.452,,,,200.0025,200.501,199.4861,200.0025,198.4685,310.0,199.486,200.5011,201.0019,201.0021,204.1181,1457.5,204.1186,5.0,205.1177,0.0,8.0,8.0,1.0,1.0,1.0,0.3,Time
,,S01,002046,1,Female,32,anonymized,Serial_Dependence_U,2023.2.3,MacIntel,62.11180124,,,,,,,,,,,,205.1184,0.0,205.1186,,,,208.0525,208.5519,207.5517,208.0524,206.1358,164.0,207.5515,208.5519,209.0519,209.052,210.768,1697.8,210.7685,4.0,211.7685,0.0,9.0,9.0,13.0,1.0,1.4,0.3,Time
,,S01,002046,1,Female,32,anonymized,Serial_Dependence_U,2023.2.3,MacIntel,62.11180124,,,,,,,,,,,,211.7693,0.0,211.7696,,,,214.9191,215.4184,214.4024,214.9189,212.7851,43.0,214.4023,215.4184,215.9176,215.9176,218.1522,2151.2,218.1525,5.0,219.1508,0.0,10.0,10.0,19.0,1.0,1.6,0.7,Time
,,S01,002046,1,Female,32,anonymized,Serial_Dependence_U,2023.2.3,MacIntel,62.11180124,,,,,,,,,,,,219.1514,0.0,219.1518,,,,221.9023,222.4007,221.3846,221.9023,220.1683,295.0,221.3844,222.4008,222.9008,222.9009,228.9187,9999.0,228.919,0.0,229.9183,0.0,11.0,11.0,12.0,1.0,1.2,0.3,Time
,,S01,002046,1,Female,32,anonymized,Serial_Dependence_U,2023.2.3,MacIntel,62.11180124,,,,,,,,,,,,229.919,0.0,229.9192,,,,233.0522,233.5516,232.5356,233.052,230.9189,267.0,232.5354,233.5516,234.0516,234.0516,240.0687,9999.0,240.0689,0.0,241.0682,0.0,12.0,12.0,14.0,1.0,1.6,0.3,Time
,,S01,002046,1,Female,32,anonymized,Serial_Dependence_U,2023.2.3,MacIntel,62.11180124,,,,,,,,,,,,241.0689,0.0,241.0692,,,,243.6187,244.1181,243.1012,243.6186,242.0854,328.0,243.101,244.1181,244.6181,244.6182,246.5841,1223.0,246.5846,4.0,247.5838,0.0,13.0,13.0,16.0,1.0,1.0,0.7,Time
,,S01,002046,1,Female,32,anonymized,Serial_Dependence_U,2023.2.3,MacIntel,62.11180124,,,,,,,,,,,,247.5844,0.0,247.5847,,,,250.118,250.6181,249.6019,250.1179,248.5855,267.0,249.6018,250.6181,251.1181,251.1182,251.9008,742.7,251.9012,2.0,252.9013,0.0,14.0,14.0,26.0,1.0,1.0,0.7,Time
,,S01,002046,1,Female,32,anonymized,Serial_Dependence_U,2023.2.3,MacIntel,62.11180124,,,,,,,,,,,,252.902,0.0,252.9022,,,,255.452,255.9504,254.9353,255.4519,253.9186,341.0,254.9352,255.9504,256.4513,256.4514,262.0338,4708.5,262.0341,5.0,263.0336,0.0,15.0,15.0,6.0,1.0,1.0,0.7,Time
,,S01,002046,1,Female,32,anonymized,Serial_Dependence_U,2023.2.3,MacIntel,62.11180124,,,,,,,,,,,,263.0343,0.0,263.0346,,,,266.1842,266.6844,265.6678,266.184,264.0511,151.0,265.6676,266.6844,267.1836,267.1836,269.085,951.8,269.0853,1.0,270.0845,0.0,16.0,16.0,24.0,1.0,1.6,0.3,Time
,,S01,002046,1,Female,32,anonymized,Serial_Dependence_U,2023.2.3,MacIntel,62.11180124,,,,,,,,,,,,270.0852,0.0,270.0854,,,,272.8351,273.3344,272.3183,272.835,271.1017,223.0,272.3182,273.3345,273.8344,273.8345,276.0013,1855.3,276.0016,5.0,277.001,0.0,17.0,17.0,22.0,1.0,1.2,0.3,Time
,,S01,002046,1,Female,32,anonymized,Serial_Dependence_U,2023.2.3,MacIntel,62.11180124,,,,,,,,,,,,277.0017,0.0,277.002,,,,279.3516,279.8501,278.8349,279.3515,278.0183,253.0,278.8347,279.8501,280.3502,280.3502,281.7838,865.6,281.7842,4.0,282.7843,0.0,18.0,18.0,25.0,1.0,0.8,0.7,Time
,,S01,002046,1,Female,32,anonymized,Serial_Dependence_U,2023.2.3,MacIntel,62.11180124,,,,,,,,,,,,282.7849,0.0,282.7852,,,,285.5182,286.0175,285.0016,285.5181,283.7847,293.0,285.0014,286.0176,286.5167,286.5167,288.3511,1437.4,288.3514,4.0,289.3509,0.0,19.0,19.0,27.0,1.0,1.2,0.7,Time
,,S01,002046,1,Female,32,anonymized,Serial_Dependence_U,2023.2.3,MacIntel,62.11180124,,,,,,,,,,,,289.3515,0.0,289.3518,,,,292.1007,292.5998,291.5848,292.1006,290.3682,111.0,291.5846,292.5999,293.0999,293.1,294.9012,1399.9,294.9015,4.0,295.9008,0.0,20.0,20.0,7.0,1.0,1.2,0.7,Time
,,S01,002046,1,Female,32,anonymized,Serial_Dependence_U,2023.2.3,MacIntel,62.11180124,,,,,,,,,,,,295.9014,0.0,295.9016,,,,298.8338,299.334,298.3179,298.8337,296.9014,333.0,298.3179,299.3341,299.8331,299.8333,301.5,1232.8,301.5003,2.0,302.5007,0.0,21.0,21.0,18.0,1.0,1.4,0.7,Time
,,S01,002046,1,Female,32,anonymized,Serial_Dependence_U,2023.2.3,MacIntel,62.11180124,,,,,,,,,,,,302.5014,0.0,302.5016,,,,305.2513,305.7507,304.7346,305.2512,303.518,61.0,304.7344,305.7507,306.2497,306.2499,307.6178,950.9,307.6181,2.0,308.6164,0.0,22.0,22.0,17.0,1.0,1.2,0.7,Time
,,S01,002046,1,Female,32,anonymized,Serial_Dependence_U,2023.2.3,MacIntel,62.11180124,,,,,,,,,,,,308.6171,0.0,308.6173,,,,310.967,311.4672,310.4513,310.9669,309.6345,78.0,310.4501,311.4672,311.9664,311.9665,313.5334,1014.1,313.5338,4.0,314.5329,0.0,23.0,23.0,15.0,1.0,0.8,0.7,Time
,,S01,002046,1,Female,32,anonymized,Serial_Dependence_U,2023.2.3,MacIntel,62.11180124,,,,,,,,,,,,314.5336,0.0,314.5339,,,,316.8679,317.3672,316.3504,316.8677,315.5344,337.0,316.3503,317.3673,317.8662,317.8662,319.1833,856.2,319.1836,4.0,320.1839,0.0,24.0,24.0,20.0,1.0,0.8,0.3,Time
,,S01,002046,1,Female,32,anonymized,Serial_Dependence_U,2023.2.3,MacIntel,62.11180124,,,,,,,,,,,,320.1845,0.0,320.1848,,,,323.1344,323.6338,322.617,323.1343,321.2012,237.0,322.6168,323.6338,324.1328,324.1329,326.0162,1424.5,326.0164,3.0,327.0171,0.0,25.0,25.0,28.0,1.0,1.4,0.7,Time
,,S01,002046,1,Female,32,anonymized,Serial_Dependence_U,2023.2.3,MacIntel,62.11180124,,,,,,,,,,,,327.0178,0.0,327.0181,,,,330.1676,330.666,329.651,330.1674,328.0336,210.0,329.6508,330.6661,331.167,331.1671,332.584,1041.9,332.5842,1.0,333.5836,0.0,26.0,26.0,4.0,1.0,1.6,0.3,Time
,,S01,002046,1,Female,32,anonymized,Serial_Dependence_U,2023.2.3,MacIntel,62.11180124,,,,,,,,,,,,333.5842,0.0,333.5845,,,,335.9334,336.4335,335.4167,335.9332,334.6009,30.0,335.4165,336.4336,336.9326,336.9327,338.2173,874.1,338.2177,4.0,339.2168,0.0,27.0,27.0,0.0,1.0,0.8,0.3,Time
,,S01,002046,1,Female,32,anonymized,Serial_Dependence_U,2023.2.3,MacIntel,62.11180124,,,,,,,,,,,,339.2176,0.0,339.2179,,,,341.75,342.2501,341.2341,341.7499,340.2325,148.0,341.234,342.2502,342.7493,342.7493,344.2171,1021.7,344.2173,3.0,345.2168,0.0,28.0,28.0,11.0,1.0,1.0,0.3,Time
,,S01,002046,1,Female,32,anonymized,Serial_Dependence_U,2023.2.3,MacIntel,62.11180124,,,,,,,,,,,,345.2174,0.0,345.2177,,,,348.1664,348.6668,347.6507,348.1664,346.2333,349.0,347.6506,348.6668,349.1667,349.1669,350.4494,991.6,350.4496,2.0,351.4492,0.0,29.0,29.0,23.0,1.0,1.4,0.3,Time
,,S01,002046,1,Female,32,anonymized,Serial_Dependence_U,2023.2.3,MacIntel,62.11180124,,,,,,,,,,,,351.4499,1.0,376.3158,s,24.8413,,379.2662,379.7655,378.7504,379.2658,377.3337,240.0,378.7502,379.7656,380.2654,380.2655,382.0333,1207.7,382.0336,2.0,383.0331,1.0,0.0,30.0,13.0,1.0,1.4,0.3,Time
,,S01,002046,1,Female,32,anonymized,Serial_Dependence_U,2023.2.3,MacIntel,62.11180124,,,,,,,,,,,,383.0336,1.0,383.0354,,,,385.7662,386.2662,385.2502,385.7661,384.0336,36.0,385.2501,386.2663,386.7663,386.7664,387.9331,724.2,387.9333,1.0,388.9321,1.0,1.0,31.0,7.0,1.0,1.2,0.7,Time
,,S01,002046,1,Female,32,anonymized,Serial_Dependence_U,2023.2.3,MacIntel,62.11180124,,,,,,,,,,,,388.9328,1.0,388.9333,,,,391.866,392.3654,391.3502,391.8659,389.9335,206.0,391.35,392.3654,392.8663,392.8664,394.3829,1142.0,394.3831,2.0,395.3829,1.0,2.0,32.0,3.0,1.0,1.4,0.3,Time
,,S01,002046,1,Female,32,anonymized,Serial_Dependence_U,2023.2.3,MacIntel,62.11180124,,,,,,,,,,,,395.3835,1.0,395.3838,,,,398.1334,398.6328,397.6167,398.1333,396.4003,131.0,397.6166,398.6329,399.1319,399.1319,400.4165,874.0,400.4169,2.0,401.4152,1.0,3.0,33.0,17.0,1.0,1.2,0.7,Time
,,S01,002046,1,Female,32,anonymized,Serial_Dependence_U,2023.2.3,MacIntel,62.11180124,,,,,,,,,,,,401.4159,1.0,401.4161,,,,403.7659,404.2661,403.2499,403.7658,402.4333,40.0,403.2498,404.2662,404.7653,404.7654,405.533,452.4,405.5333,1.0,406.5327,1.0,4.0,34.0,5.0,1.0,0.8,0.7,Time
,,S01,002046,1,Female,32,anonymized,Serial_Dependence_U,2023.2.3,MacIntel,62.11180124,,,,,,,,,,,,406.5334,1.0,406.5337,,,,409.0833,409.5826,408.5667,409.0831,407.55,116.0,408.5665,409.5827,410.0826,410.0827,411.2487,726.0,411.2492,2.0,412.2493,1.0,5.0,35.0,16.0,1.0,1.0,0.7,Time
,,S01,002046,1,Female,32,anonymized,Serial_Dependence_U,2023.2.3,MacIntel,62.11180124,,,,,,,,,,,,412.25,1.0,412.2502,,,,414.9998,415.4992,414.4832,414.9997,413.2666,149.0,414.4831,415.4993,415.9993,415.9994,417.2662,898.6,417.2666,2.0,418.265,1.0,6.0,36.0,12.0,1.0,1.2,0.3,Time
,,S01,002046,1,Female,32,anonymized,Serial_Dependence_U,2023.2.3,MacIntel,62.11180124,,,,,,,,,,,,418.2657,1.0,418.266,,,,421.4167,421.9149,420.8998,421.4165,419.2831,48.0,420.8997,421.915,422.4159,422.416,423.8986,1107.6,423.899,1.0,424.8991,1.0,7.0,37.0,9.0,1.0,1.6,0.7,Time
,,S01,002046,1,Female,32,anonymized,Serial_Dependence_U,2023.2.3,MacIntel,62.11180124,,,,,,,,,,,,424.8998,1.0,424.9,,,,427.4497,427.9491,426.933,427.4496,425.9165,46.0,426.933,427.9491,428.4481,428.4483,429.8494,942.2,429.8497,2.0,430.8492,1.0,8.0,38.0,26.0,1.0,1.0,0.7,Time
,,S01,002046,1,Female,32,anonymized,Serial_Dependence_U,2023.2.3,MacIntel,62.11180124,,,,,,,,,,,,430.8498,1.0,430.8501,,,,433.7996,434.2981,433.2829,433.7995,431.8664,121.0,433.2828,434.2982,434.7993,434.7994,436.0995,940.2,436.0998,1.0,437.0981,1.0,9.0,39.0,23.0,1.0,1.4,0.3,Time
,,S01,002046,1,Female,32,anonymized,Serial_Dependence_U,2023.2.3,MacIntel,62.11180124,,,,,,,,,,,,437.099,1.0,437.0994,,,,440.0496,440.5489,439.5321,440.0495,438.1155,22.0,439.5318,440.549,441.048,441.0481,442.6149,1181.3,442.6152,2.0,443.6147,1.0,10.0,40.0,8.0,1.0,1.4,0.7,Time
,,S01,002046,1,Female,32,anonymized,Serial_Dependence_U,2023.2.3,MacIntel,62.11180124,,,,,,,,,,,,443.6154,1.0,443.6156,,,,446.3661,446.8646,445.8486,446.366,444.6329,331.0,445.8485,446.8646,447.3655,447.3656,448.7482,974.5,448.7487,2.0,449.7489,1.0,11.0,41.0,27.0,1.0,1.2,0.7,Time
,,S01,002046,1,Female,32,anonymized,Serial_Dependence_U,2023.2.3,MacIntel,62.11180124,,,,,,,,,,,,449.7495,1.0,449.7498,,,,452.4829,452.9821,451.982,452.4826,450.7659,1.0,451.982,452.9822,453.4822,453.4823,454.6657,859.7,454.666,2.0,455.6655,1.0,12.0,42.0,2.0,1.0,1.2,0.3,Time
,,S01,002046,1,Female,32,anonymized,Serial_Dependence_U,2023.2.3,MacIntel,62.11180124,,,,,,,,,,,,455.6662,1.0,455.6664,,,,458.5829,459.0812,458.0661,458.5827,456.6653,247.0,458.0659,459.0812,459.5811,459.5812,461.299,1347.7,461.2993,3.0,462.2988,1.0,13.0,43.0,18.0,1.0,1.4,0.7,Time
,,S01,002046,1,Female,32,anonymized,Serial_Dependence_U,2023.2.3,MacIntel,62.11180124,,,,,,,,,,,,462.2994,1.0,462.2995,,,,464.8495,465.3486,464.3325,464.8493,463.316,302.0,464.3324,465.3486,465.8477,465.8478,466.9157,712.4,466.916,2.0,467.9153,1.0,14.0,44.0,6.0,1.0,1.0,0.7,Time
,,S01,002046,1,Female,32,anonymized,Serial_Dependence_U,2023.2.3,MacIntel,62.11180124,,,,,,,,,,,,467.9159,1.0,467.9162,,,,470.4483,470.9485,469.9336,470.4482,468.9317,122.0,469.9323,470.9485,471.4485,471.4486,472.7323,867.2,472.7325,2.0,473.7318,1.0,15.0,45.0,11.0,1.0,1.0,0.3,Time
,,S01,002046,1,Female,32,anonymized,Serial_Dependence_U,2023.2.3,MacIntel,62.11180124,,,,,,,,,,,,473.7325,1.0,473.7327,,,,476.2659,476.7651,475.765,476.2657,474.7492,169.0,475.7648,476.7651,477.2652,477.2652,478.3489,665.7,478.3491,1.0,479.3484,1.0,16.0,46.0,21.0,1.0,1.0,0.3,Time
,,S01,002046,1,Female,32,anonymized,Serial_Dependence_U,2023.2.3,MacIntel,62.11180124,,,,,,,,,,,,479.3491,1.0,479.3493,,,,481.699,482.1975,481.1823,481.6989,480.3657,207.0,481.1822,482.1976,482.6975,482.6975,483.9153,791.2,483.9155,3.0,484.9141,1.0,17.0,47.0,10.0,1.0,0.8,0.3,Time
,,S01,002046,1,Female,32,anonymized,Serial_Dependence_U,2023.2.3,MacIntel,62.11180124,,,,,,,,,,,,484.9149,1.0,484.9151,,,,488.0491,488.5483,487.5315,488.0489,485.9157,94.0,487.5313,488.5483,489.0483,489.0484,490.5312,1143.0,490.5314,2.0,491.5316,1.0,18.0,48.0,4.0,1.0,1.6,0.3,Time
,,S01,002046,1,Female,32,anonymized,Serial_Dependence_U,2023.2.3,MacIntel,62.11180124,,,,,,,,,,,,491.5323,1.0,491.5326,,,,493.8814,494.3807,493.3655,493.8812,492.5487,175.0,493.3654,494.3808,494.8808,494.8809,495.9654,623.5,495.9657,2.0,496.9641,1.0,19.0,49.0,15.0,1.0,0.8,0.7,Time
,,S01,002046,1,Female,32,anonymized,Serial_Dependence_U,2023.2.3,MacIntel,62.11180124,,,,,,,,,,,,496.9647,1.0,496.965,,,,499.2988,499.7973,498.798,499.2987,497.9823,16.0,498.7978,499.7974,500.2982,500.2983,501.2142,565.5,501.2144,2.0,502.2149,1.0,20.0,50.0,25.0,1.0,0.8,0.7,Time
,,S01,002046,1,Female,32,anonymized,Serial_Dependence_U,2023.2.3,MacIntel,62.11180124,,,,,,,,,,,,502.2156,1.0,502.2157,,,,504.9487,505.4481,504.433,504.9486,503.2312,106.0,504.4319,505.4482,505.9482,505.9482,507.1652,900.4,507.1655,2.0,508.1647,1.0,21.0,51.0,22.0,1.0,1.2,0.3,Time
,,S01,002046,1,Female,32,anonymized,Serial_Dependence_U,2023.2.3,MacIntel,62.11180124,,,,,,,,,,,,508.1654,1.0,508.1656,,,,511.3153,511.8147,510.7988,511.3153,509.182,61.0,510.7986,511.8147,512.3147,512.3147,513.5486,966.9,513.5488,1.0,514.548,1.0,22.0,52.0,24.0,1.0,1.6,0.3,Time
,,S01,002046,1,Female,32,anonymized,Serial_Dependence_U,2023.2.3,MacIntel,62.11180124,,,,,,,,,,,,514.5487,1.0,514.549,,,,516.8986,517.3979,516.382,516.8985,515.5652,346.0,516.3819,517.3981,517.898,517.898,519.0639,872.3,519.0642,4.0,520.0637,1.0,23.0,53.0,20.0,1.0,0.8,0.3,Time
,,S01,002046,1,Female,32,anonymized,Serial_Dependence_U,2023.2.3,MacIntel,62.11180124,,,,,,,,,,,,520.0644,1.0,520.0647,,,,523.2143,523.7146,522.6985,523.2141,521.0811,80.0,522.6984,523.7146,524.2137,524.2137,525.4816,923.7,525.4818,1.0,526.4813,1.0,24.0,54.0,19.0,1.0,1.6,0.7,Time
,,S01,002046,1,Female,32,anonymized,Serial_Dependence_U,2023.2.3,MacIntel,62.11180124,,,,,,,,,,,,526.482,1.0,526.4822,,,,529.6318,530.1312,529.1146,529.6317,527.4978,334.0,529.1145,530.1312,530.6302,530.6303,532.1148,1165.2,532.1151,2.0,533.1144,1.0,25.0,55.0,29.0,1.0,1.6,0.7,Time
,,S01,002046,1,Female,32,anonymized,Serial_Dependence_U,2023.2.3,MacIntel,62.11180124,,,,,,,,,,,,533.1151,1.0,533.1154,,,,536.2643,536.7644,535.7485,536.2642,534.1317,274.0,535.7483,536.7644,537.2636,537.2637,538.8972,1302.0,538.8976,2.0,539.8977,1.0,26.0,56.0,14.0,1.0,1.6,0.3,Time
,,S01,002046,1,Female,32,anonymized,Serial_Dependence_U,2023.2.3,MacIntel,62.11180124,,,,,,,,,,,,539.8984,1.0,539.8986,,,,542.4482,542.9477,541.9315,542.4481,540.915,338.0,541.9314,542.9477,543.4476,543.4477,544.5478,857.2,544.548,2.0,545.5476,1.0,27.0,57.0,1.0,1.0,1.0,0.3,Time
,,S01,002046,1,Female,32,anonymized,Serial_Dependence_U,2023.2.3,MacIntel,62.11180124,,,,,,,,,,,,545.5482,1.0,545.5485,,,,547.8816,548.3809,547.3649,547.8814,546.5484,347.0,547.3647,548.381,548.8809,548.881,549.9136,856.6,549.9139,4.0,550.9133,1.0,28.0,58.0,0.0,1.0,0.8,0.3,Time
,,S01,002046,1,Female,32,anonymized,Serial_Dependence_U,2023.2.3,MacIntel,62.11180124,,,,,,,,,,,,550.914,1.0,550.9142,,,,553.8649,554.3641,553.3482,553.8647,551.9308,61.0,553.3481,554.3642,554.8642,554.8643,556.0803,757.8,556.0805,1.0,557.0808,1.0,29.0,59.0,28.0,1.0,1.4,0.7,Time
,,S01,002046,1,Female,32,anonymized,Serial_Dependence_U,2023.2.3,MacIntel,62.11180124,,,,,,,,,,,,557.0816,2.0,610.9138,s,53.8022,,613.6632,614.1626,613.1474,613.663,611.93,303.0,613.1473,614.1627,614.6634,614.6635,616.0138,964.6,616.014,2.0,617.0135,2.0,0.0,60.0,12.0,1.0,1.2,0.3,Time
,,S01,002046,1,Female,32,anonymized,Serial_Dependence_U,2023.2.3,MacIntel,62.11180124,,,,,,,,,,,,617.0142,2.0,617.016,,,,620.1464,620.6458,619.6298,620.1464,618.014,11.0,619.6296,620.6458,621.1458,621.1458,622.647,1164.2,622.6473,2.0,623.6466,2.0,1.0,61.0,14.0,1.0,1.6,0.3,Time
,,S01,002046,1,Female,32,anonymized,Serial_Dependence_U,2023.2.3,MacIntel,62.11180124,,,,,,,,,,,,623.6473,2.0,623.6475,,,,626.5972,627.0957,626.0807,626.5971,624.6631,7.0,626.0806,627.0958,627.5967,627.5968,629.1137,1059.2,629.114,2.0,630.1124,2.0,2.0,62.0,23.0,1.0,1.4,0.3,Time
,,S01,002046,1,Female,32,anonymized,Serial_Dependence_U,2023.2.3,MacIntel,62.11180124,,,,,,,,,,,,630.1131,2.0,630.1133,,,,632.8473,633.3465,632.3304,632.8471,631.1139,7.0,632.3303,633.3465,633.8465,633.8466,635.1635,931.8,635.1638,2.0,636.1632,2.0,3.0,63.0,17.0,1.0,1.2,0.7,Time
,,S01,002046,1,Female,32,anonymized,Serial_Dependence_U,2023.2.3,MacIntel,62.11180124,,,,,,,,,,,,636.1639,2.0,636.1641,,,,638.6962,639.1963,638.1804,638.6961,637.1637,218.0,638.1802,639.1963,639.6955,639.6956,641.4793,1473.0,641.4796,5.0,642.4797,2.0,4.0,64.0,1.0,1.0,1.0,0.3,Time
,,S01,002046,1,Female,32,anonymized,Serial_Dependence_U,2023.2.3,MacIntel,62.11180124,,,,,,,,,,,,642.4804,2.0,642.4806,,,,645.6296,646.1288,645.1129,645.6295,643.4971,48.0,645.1127,646.1288,646.6298,646.6299,648.0798,1157.4,648.08,2.0,649.0797,2.0,5.0,65.0,24.0,1.0,1.6,0.3,Time
,,S01,002046,1,Female,32,anonymized,Serial_Dependence_U,2023.2.3,MacIntel,62.11180124,,,,,,,,,,,,649.0804,2.0,649.0806,,,,651.8303,652.3296,651.3128,651.8302,650.0969,40.0,651.3125,652.3296,652.8296,652.8297,654.079,975.6,654.0793,2.0,655.0787,2.0,6.0,66.0,7.0,1.0,1.2,0.7,Time
,,S01,002046,1,Female,32,anonymized,Serial_Dependence_U,2023.2.3,MacIntel,62.11180124,,,,,,,,,,,,655.0794,2.0,655.0796,,,,657.6135,658.1128,657.1127,657.6134,656.0969,23.0,657.1125,658.1129,658.6121,658.6121,660.513,1392.3,660.5132,5.0,661.5128,2.0,7.0,67.0,26.0,1.0,1.0,0.7,Time
,,S01,002046,1,Female,32,anonymized,Serial_Dependence_U,2023.2.3,MacIntel,62.11180124,,,,,,,,,,,,661.5134,2.0,661.5137,,,,664.4626,664.9628,663.9467,664.4625,662.5301,243.0,663.9466,664.9628,665.4627,665.4628,666.7132,907.0,666.7134,1.0,667.7128,2.0,8.0,68.0,28.0,1.0,1.4,0.7,Time
,,S01,002046,1,Female,32,anonymized,Serial_Dependence_U,2023.2.3,MacIntel,62.11180124,,,,,,,,,,,,667.7135,2.0,667.7137,,,,670.8633,671.3618,670.3467,670.8632,668.7301,147.0,670.3465,671.3618,671.8627,671.8628,673.662,1489.5,673.6624,2.0,674.6618,2.0,9.0,69.0,4.0,1.0,1.6,0.3,Time
,,S01,002046,1,Female,32,anonymized,Serial_Dependence_U,2023.2.3,MacIntel,62.11180124,,,,,,,,,,,,674.6625,2.0,674.6628,,,,677.6132,678.1118,677.0976,677.6131,675.6799,198.0,677.0964,678.1118,678.6126,678.6127,679.8796,943.1,679.88,1.0,680.8792,2.0,10.0,70.0,8.0,1.0,1.4,0.7,Time
,,S01,002046,1,Female,32,anonymized,Serial_Dependence_U,2023.2.3,MacIntel,62.11180124,,,,,,,,,,,,680.88,2.0,680.8803,,,,684.0131,684.5117,683.4958,684.013,681.88,12.0,683.4954,684.5117,685.0116,685.0117,686.2618,882.9,686.2621,1.0,687.2625,2.0,11.0,71.0,19.0,1.0,1.6,0.7,Time
,,S01,002046,1,Female,32,anonymized,Serial_Dependence_U,2023.2.3,MacIntel,62.11180124,,,,,,,,,,,,687.2632,2.0,687.2634,,,,689.7966,690.2957,689.2798,689.7964,688.263,303.0,689.2797,690.2958,690.7949,690.795,692.2792,1157.2,692.2795,4.0,693.2792,2.0,12.0,72.0,11.0,1.0,1.0,0.3,Time
,,S01,002046,1,Female,32,anonymized,Serial_Dependence_U,2023.2.3,MacIntel,62.11180124,,,,,,,,,,,,693.2799,2.0,693.2801,,,,696.0298,696.5282,695.513,696.0297,694.2963,151.0,695.5128,696.5282,697.029,697.0291,698.6286,1217.3,698.6289,3.0,699.6291,2.0,13.0,73.0,2.0,1.0,1.2,0.3,Time
,,S01,002046,1,Female,32,anonymized,Serial_Dependence_U,2023.2.3,MacIntel,62.11180124,,,,,,,,,,,,699.6296,2.0,699.6299,,,,702.5796,703.078,702.063,702.5795,700.6462,180.0,702.0628,703.0781,703.5789,703.579,704.8617,965.5,704.862,1.0,705.8614,2.0,14.0,74.0,13.0,1.0,1.4,0.3,Time
,,S01,002046,1,Female,32,anonymized,Serial_Dependence_U,2023.2.3,MacIntel,62.11180124,,,,,,,,,,,,705.862,2.0,705.8624,,,,708.4128,708.9114,707.8961,708.4127,706.8796,56.0,707.896,708.9114,709.4114,709.4115,710.9117,1108.8,710.9121,4.0,711.9121,2.0,15.0,75.0,16.0,1.0,1.0,0.7,Time
,,S01,002046,1,Female,32,anonymized,Serial_Dependence_U,2023.2.3,MacIntel,62.11180124,,,,,,,,,,,,711.9128,2.0,711.9131,,,,714.6628,715.1621,714.1461,714.6627,712.9288,44.0,714.146,715.1622,715.6621,715.6622,716.9957,981.1,716.9961,2.0,717.9954,2.0,16.0,76.0,27.0,1.0,1.2,0.7,Time
,,S01,002046,1,Female,32,anonymized,Serial_Dependence_U,2023.2.3,MacIntel,62.11180124,,,,,,,,,,,,717.9962,2.0,717.9964,,,,720.7127,721.212,720.2119,720.7126,718.9963,139.0,720.2118,721.2122,721.712,721.7121,723.3113,1247.6,723.3116,3.0,724.3121,2.0,17.0,77.0,22.0,1.0,1.2,0.3,Time
,,S01,002046,1,Female,32,anonymized,Serial_Dependence_U,2023.2.3,MacIntel,62.11180124,,,,,,,,,,,,724.3128,2.0,724.313,,,,726.8626,727.362,726.346,726.8625,725.3293,154.0,726.3458,727.362,727.862,727.8621,729.4617,1302.2,729.462,5.0,730.4611,2.0,18.0,78.0,6.0,1.0,1.0,0.7,Time
,,S01,002046,1,Female,32,anonymized,Serial_Dependence_U,2023.2.3,MacIntel,62.11180124,,,,,,,,,,,,730.4619,2.0,730.4621,,,,732.9958,733.4952,732.4793,732.9957,731.4626,215.0,732.4791,733.4953,733.9944,733.9945,735.2788,924.6,735.2791,2.0,736.2777,2.0,19.0,79.0,21.0,1.0,1.0,0.3,Time
,,S01,002046,1,Female,32,anonymized,Serial_Dependence_U,2023.2.3,MacIntel,62.11180124,,,,,,,,,,,,736.2784,2.0,736.2786,,,,738.6291,739.1277,738.1116,738.629,737.2959,261.0,738.1115,739.1277,739.6276,739.6277,740.7956,874.7,740.7958,4.0,741.7952,2.0,20.0,80.0,5.0,1.0,0.8,0.7,Time
,,S01,002046,1,Female,32,anonymized,Serial_Dependence_U,2023.2.3,MacIntel,62.11180124,,,,,,,,,,,,741.7958,2.0,741.7961,,,,744.1449,744.6452,743.629,744.1447,742.8124,95.0,743.6288,744.6452,745.1451,745.1451,746.2786,857.8,746.2789,4.0,747.2776,2.0,21.0,81.0,0.0,1.0,0.8,0.3,Time
,,S01,002046,1,Female,32,anonymized,Serial_Dependence_U,2023.2.3,MacIntel,62.11180124,,,,,,,,,,,,747.2782,2.0,747.2784,,,,750.429,750.9283,749.9122,750.4288,748.2956,205.0,749.9121,750.9284,751.4284,751.4285,752.7609,1157.6,752.7611,2.0,753.7617,2.0,22.0,82.0,9.0,1.0,1.6,0.7,Time
,,S01,002046,1,Female,32,anonymized,Serial_Dependence_U,2023.2.3,MacIntel,62.11180124,,,,,,,,,,,,753.7624,2.0,753.7626,,,,756.6948,757.194,756.179,756.6947,754.7624,295.0,756.1789,757.1941,757.6949,757.695,758.9943,959.1,758.9945,1.0,759.9949,2.0,23.0,83.0,3.0,1.0,1.4,0.3,Time
,,S01,002046,1,Female,32,anonymized,Serial_Dependence_U,2023.2.3,MacIntel,62.11180124,,,,,,,,,,,,759.9956,2.0,759.996,,,,762.3456,762.844,761.828,762.3455,761.0115,351.0,761.8279,762.844,763.345,763.3451,764.4118,966.5,764.412,4.0,765.4107,2.0,24.0,84.0,15.0,1.0,0.8,0.7,Time
,,S01,002046,1,Female,32,anonymized,Serial_Dependence_U,2023.2.3,MacIntel,62.11180124,,,,,,,,,,,,765.4113,2.0,765.4116,,,,767.7454,768.2448,767.2288,767.7452,766.4122,217.0,767.2286,768.2448,768.7449,768.7449,770.0283,975.7,770.0286,4.0,771.0283,2.0,25.0,85.0,20.0,1.0,0.8,0.3,Time
,,S01,002046,1,Female,32,anonymized,Serial_Dependence_U,2023.2.3,MacIntel,62.11180124,,,,,,,,,,,,771.0289,2.0,771.029,,,,774.1787,774.6781,773.6619,774.1786,772.0451,163.0,773.6618,774.6781,775.178,775.1782,776.8117,1289.4,776.8119,2.0,777.8104,2.0,26.0,86.0,29.0,1.0,1.6,0.7,Time
,,S01,002046,1,Female,32,anonymized,Serial_Dependence_U,2023.2.3,MacIntel,62.11180124,,,,,,,,,,,,777.8111,2.0,777.8114,,,,780.162,780.6613,779.6453,780.1618,778.8286,286.0,779.6452,780.6613,781.1613,781.1614,782.6115,1125.0,782.6118,5.0,783.6113,2.0,27.0,87.0,10.0,1.0,0.8,0.3,Time
,,S01,002046,1,Female,32,anonymized,Serial_Dependence_U,2023.2.3,MacIntel,62.11180124,,,,,,,,,,,,783.612,2.0,783.6122,,,,785.9618,786.4613,785.4452,785.9618,784.6285,138.0,785.4451,786.4613,786.9612,786.9613,788.4951,1298.3,788.4953,5.0,789.4946,2.0,28.0,88.0,25.0,1.0,0.8,0.7,Time
,,S01,002046,1,Female,32,anonymized,Serial_Dependence_U,2023.2.3,MacIntel,62.11180124,,,,,,,,,,,,789.4953,2.0,789.4955,,,,792.4451,792.9445,791.9286,792.4451,790.5118,109.0,791.9285,792.9446,793.4445,793.4446,793.878,142.6,793.8783,1.0,794.8779,2.0,29.0,89.0,18.0,1.0,1.4,0.7,Time
,,S01,002046,1,Female,32,anonymized,Serial_Dependence_U,2023.2.3,MacIntel,62.11180124,,,,,,,,,,,,794.8786,3.0,880.277,s,85.3686,,883.4272,883.9267,882.9107,883.4272,881.2939,125.0,882.9106,883.9267,884.4257,884.4257,886.5427,1766.8,886.543,4.0,887.5433,3.0,0.0,90.0,14.0,1.0,1.6,0.3,Time
,,S01,002046,1,Female,32,anonymized,Serial_Dependence_U,2023.2.3,MacIntel,62.11180124,,,,,,,,,,,,887.5439,3.0,887.5454,,,,890.4774,890.9756,889.9605,890.4773,888.544,293.0,889.9604,890.9757,891.4755,891.4757,892.7767,1021.0,892.7769,2.0,893.7766,3.0,1.0,91.0,23.0,1.0,1.4,0.3,Time
,,S01,002046,1,Female,32,anonymized,Serial_Dependence_U,2023.2.3,MacIntel,62.11180124,,,,,,,,,,,,893.7773,3.0,893.7775,,,,896.1105,896.6098,895.5937,896.1103,894.7928,356.0,895.5936,896.6099,897.1088,897.1089,897.91,553.2,897.9103,1.0,898.9098,3.0,2.0,92.0,10.0,1.0,0.8,0.3,Time
,,S01,002046,1,Female,32,anonymized,Serial_Dependence_U,2023.2.3,MacIntel,62.11180124,,,,,,,,,,,,898.9106,3.0,898.9107,,,,901.4603,901.9598,900.9436,901.4603,899.9272,272.0,900.9425,901.9598,902.4598,902.4599,903.7435,980.7,903.7438,3.0,904.7431,3.0,3.0,93.0,16.0,1.0,1.0,0.7,Time
,,S01,002046,1,Female,32,anonymized,Serial_Dependence_U,2023.2.3,MacIntel,62.11180124,,,,,,,,,,,,904.7438,3.0,904.744,,,,907.0937,907.593,906.5769,907.0936,905.7604,193.0,906.5768,907.593,908.093,908.0931,909.1935,841.2,909.1938,4.0,910.193,3.0,4.0,94.0,20.0,1.0,0.8,0.3,Time
,,S01,002046,1,Female,32,anonymized,Serial_Dependence_U,2023.2.3,MacIntel,62.11180124,,,,,,,,,,,,910.1937,3.0,910.1939,,,,912.9426,913.4421,912.4278,912.9424,911.2104,148.0,912.4267,913.4421,913.942,913.9421,915.3268,1114.7,915.327,2.0,916.3263,3.0,5.0,95.0,17.0,1.0,1.2,0.7,Time
,,S01,002046,1,Female,32,anonymized,Serial_Dependence_U,2023.2.3,MacIntel,62.11180124,,,,,,,,,,,,916.3272,3.0,916.3274,,,,919.2593,919.7595,918.7447,919.2591,917.3426,201.0,918.7435,919.7596,920.2586,920.2587,921.9589,1340.2,921.9591,3.0,922.9586,3.0,6.0,96.0,13.0,1.0,1.4,0.3,Time
,,S01,002046,1,Female,32,anonymized,Serial_Dependence_U,2023.2.3,MacIntel,62.11180124,,,,,,,,,,,,922.9593,3.0,922.9595,,,,925.51,926.0095,924.9934,925.5099,923.9768,232.0,924.9933,926.0096,926.5095,926.5096,927.843,1033.6,927.8433,3.0,928.8428,3.0,7.0,97.0,26.0,1.0,1.0,0.7,Time
,,S01,002046,1,Female,32,anonymized,Serial_Dependence_U,2023.2.3,MacIntel,62.11180124,,,,,,,,,,,,928.8435,3.0,928.8437,,,,931.1924,931.6917,930.6767,931.1923,929.8601,131.0,930.6765,931.6918,932.1918,932.1918,933.2266,751.8,933.2268,2.0,934.2261,3.0,8.0,98.0,15.0,1.0,0.8,0.7,Time
,,S01,002046,1,Female,32,anonymized,Serial_Dependence_U,2023.2.3,MacIntel,62.11180124,,,,,,,,,,,,934.2267,3.0,934.227,,,,937.1766,937.6759,936.6609,937.1765,935.2433,11.0,936.6598,937.676,938.176,938.176,939.5763,1107.9,939.5766,2.0,940.576,3.0,9.0,99.0,18.0,1.0,1.4,0.7,Time
,,S01,002046,1,Female,32,anonymized,Serial_Dependence_U,2023.2.3,MacIntel,62.11180124,,,,,,,,,,,,940.5767,3.0,940.5771,,,,943.7089,944.2082,943.194,943.7088,941.5766,354.0,943.193,944.2083,944.7092,944.7093,946.4262,1324.5,946.4265,2.0,947.4259,3.0,10.0,100.0,24.0,1.0,1.6,0.3,Time
,,S01,002046,1,Female,32,anonymized,Serial_Dependence_U,2023.2.3,MacIntel,62.11180124,,,,,,,,,,,,947.4266,3.0,947.4268,,,,950.5765,951.075,950.0597,950.5764,948.4431,28.0,950.0596,951.0751,951.5759,951.5759,953.4095,1523.9,953.4098,3.0,954.4091,3.0,11.0,101.0,4.0,1.0,1.6,0.3,Time
,,S01,002046,1,Female,32,anonymized,Serial_Dependence_U,2023.2.3,MacIntel,62.11180124,,,,,,,,,,,,954.4097,3.0,954.41,,,,957.3431,957.8414,956.8263,957.3429,955.4096,170.0,956.8262,957.8414,958.3426,958.3426,959.8927,1232.6,959.8929,2.0,960.8914,3.0,12.0,102.0,28.0,1.0,1.4,0.7,Time
,,S01,002046,1,Female,32,anonymized,Serial_Dependence_U,2023.2.3,MacIntel,62.11180124,,,,,,,,,,,,960.8921,3.0,960.8923,,,,963.8262,964.3247,963.3096,963.8261,961.9087,101.0,963.3095,964.3247,964.8247,964.8248,966.1084,950.0,966.1088,1.0,967.1091,3.0,13.0,103.0,8.0,1.0,1.4,0.7,Time
,,S01,002046,1,Female,32,anonymized,Serial_Dependence_U,2023.2.3,MacIntel,62.11180124,,,,,,,,,,,,967.1097,3.0,967.1101,,,,969.4429,969.9422,968.9262,969.4427,968.1096,31.0,968.926,969.9422,970.4423,970.4423,971.8258,1017.1,971.8261,4.0,972.8255,3.0,14.0,104.0,25.0,1.0,0.8,0.7,Time
,,S01,002046,1,Female,32,anonymized,Serial_Dependence_U,2023.2.3,MacIntel,62.11180124,,,,,,,,,,,,972.8262,3.0,972.8265,,,,975.5584,976.0589,975.0428,975.5583,973.8418,257.0,975.0427,976.0589,976.5588,976.5589,977.7926,901.9,977.7929,2.0,978.7921,3.0,15.0,105.0,12.0,1.0,1.2,0.3,Time
,,S01,002046,1,Female,32,anonymized,Serial_Dependence_U,2023.2.3,MacIntel,62.11180124,,,,,,,,,,,,978.7928,3.0,978.7931,,,,981.1427,981.6421,980.626,981.1426,979.8094,304.0,980.6259,981.6421,982.1421,982.1422,983.2089,773.2,983.2092,3.0,984.2087,3.0,16.0,106.0,0.0,1.0,0.8,0.3,Time
,,S01,002046,1,Female,32,anonymized,Serial_Dependence_U,2023.2.3,MacIntel,62.11180124,,,,,,,,,,,,984.2094,3.0,984.2097,,,,986.7426,987.241,986.226,986.7424,985.2251,9.0,986.2259,987.241,987.7422,987.7422,988.8088,741.9,988.8091,2.0,989.8088,3.0,17.0,107.0,21.0,1.0,1.0,0.3,Time
,,S01,002046,1,Female,32,anonymized,Serial_Dependence_U,2023.2.3,MacIntel,62.11180124,,,,,,,,,,,,989.8094,3.0,989.8097,,,,992.3425,992.841,991.8259,992.3424,990.8093,157.0,991.8257,992.841,993.3409,993.3411,994.6423,973.1,994.6426,3.0,995.642,3.0,18.0,108.0,6.0,1.0,1.0,0.7,Time
,,S01,002046,1,Female,32,anonymized,Serial_Dependence_U,2023.2.3,MacIntel,62.11180124,,,,,,,,,,,,995.6426,3.0,995.6429,,,,998.1915,998.6919,997.6758,998.1914,996.6592,48.0,997.6757,998.6919,999.1918,999.192,1000.7078,1090.8,1000.7081,4.0,1001.7086,3.0,19.0,109.0,1.0,1.0,1.0,0.3,Time
,,S01,002046,1,Female,32,anonymized,Serial_Dependence_U,2023.2.3,MacIntel,62.11180124,,,,,,,,,,,,1001.7092,3.0,1001.7095,,,,1004.0592,1004.5574,1003.5415,1004.059,1002.7258,114.0,1003.5413,1004.5575,1005.0584,1005.0586,1006.2255,871.5,1006.2258,4.0,1007.2242,3.0,20.0,110.0,5.0,1.0,0.8,0.7,Time
,,S01,002046,1,Female,32,anonymized,Serial_Dependence_U,2023.2.3,MacIntel,62.11180124,,,,,,,,,,,,1007.2249,3.0,1007.2251,,,,1010.3581,1010.8574,1009.8423,1010.358,1008.2416,91.0,1009.8422,1010.8575,1011.3584,1011.3585,1012.7587,1072.3,1012.759,1.0,1013.7585,3.0,21.0,111.0,9.0,1.0,1.6,0.7,Time
,,S01,002046,1,Female,32,anonymized,Serial_Dependence_U,2023.2.3,MacIntel,62.11180124,,,,,,,,,,,,1013.7591,3.0,1013.7594,,,,1016.6922,1017.1917,1016.1756,1016.6921,1014.7589,349.0,1016.1754,1017.1917,1017.6907,1017.6908,1019.0586,1097.9,1019.0589,2.0,1020.0582,3.0,22.0,112.0,3.0,1.0,1.4,0.3,Time
,,S01,002046,1,Female,32,anonymized,Serial_Dependence_U,2023.2.3,MacIntel,62.11180124,,,,,,,,,,,,1020.059,3.0,1020.0593,,,,1022.7921,1023.2916,1022.2756,1022.792,1021.0746,107.0,1022.2754,1023.2917,1023.7918,1023.792,1025.1085,857.7,1025.1088,2.0,1026.1085,3.0,23.0,113.0,7.0,1.0,1.2,0.7,Time
,,S01,002046,1,Female,32,anonymized,Serial_Dependence_U,2023.2.3,MacIntel,62.11180124,,,,,,,,,,,,1026.1093,3.0,1026.1095,,,,1029.2422,1029.7405,1028.7257,1029.2422,1027.1247,26.0,1028.7255,1029.7406,1030.2415,1030.2416,1031.7574,1175.0,1031.7577,2.0,1032.7581,3.0,24.0,114.0,29.0,1.0,1.6,0.7,Time
,,S01,002046,1,Female,32,anonymized,Serial_Dependence_U,2023.2.3,MacIntel,62.11180124,,,,,,,,,,,,1032.7588,3.0,1032.7591,,,,1035.5077,1036.0081,1034.992,1035.5075,1033.7754,135.0,1034.9919,1036.0082,1036.5072,1036.5072,1037.925,1040.5,1037.9253,2.0,1038.9248,3.0,25.0,115.0,2.0,1.0,1.2,0.3,Time
,,S01,002046,1,Female,32,anonymized,Serial_Dependence_U,2023.2.3,MacIntel,62.11180124,,,,,,,,,,,,1038.9255,3.0,1038.9257,,,,1041.4576,1041.957,1040.942,1041.4574,1039.9412,222.0,1040.9419,1041.957,1042.458,1042.4581,1043.5917,818.0,1043.592,2.0,1044.5904,3.0,26.0,116.0,11.0,1.0,1.0,0.3,Time
,,S01,002046,1,Female,32,anonymized,Serial_Dependence_U,2023.2.3,MacIntel,62.11180124,,,,,,,,,,,,1044.5922,3.0,1044.5925,,,,1047.3418,1047.8404,1046.8251,1047.3417,1045.6085,236.0,1046.825,1047.8405,1048.3414,1048.3414,1049.7416,1097.7,1049.7418,2.0,1050.7402,3.0,27.0,117.0,27.0,1.0,1.2,0.7,Time
,,S01,002046,1,Female,32,anonymized,Serial_Dependence_U,2023.2.3,MacIntel,62.11180124,,,,,,,,,,,,1050.741,3.0,1050.7412,,,,1053.8751,1054.3746,1053.3575,1053.875,1051.7418,150.0,1053.3574,1054.3746,1054.8746,1054.8746,1056.4749,1280.6,1056.4752,2.0,1057.474,3.0,28.0,118.0,19.0,1.0,1.6,0.7,Time
,,S01,002046,1,Female,32,anonymized,Serial_Dependence_U,2023.2.3,MacIntel,62.11180124,,,,,,,,,,,,1057.4746,3.0,1057.4749,,,,1060.2074,1060.7078,1059.6918,1060.2073,1058.4908,247.0,1059.6917,1060.7079,1061.2078,1061.2079,1062.5581,900.5,1062.5583,2.0,1063.5578,3.0,29.0,119.0,22.0,1.0,1.2,0.3,Time
,,S01,002046,1,Female,32,anonymized,Serial_Dependence_U,2023.2.3,MacIntel,62.11180124,,,,,,,,,,,,1063.5584,4.0,1253.3222,s,189.7449,,1256.4727,1256.9721,1255.956,1256.4725,1254.3383,16.0,1255.9559,1256.9721,1257.4711,1257.4711,1259.6557,1917.5,1259.656,4.0,1260.6554,4.0,0.0,120.0,29.0,1.0,1.6,0.7,Time
,,S01,002046,1,Female,32,anonymized,Serial_Dependence_U,2023.2.3,MacIntel,62.11180124,,,,,,,,,,,,1260.6562,4.0,1260.658,,,,1263.4058,1263.9052,1262.8891,1263.4057,1261.6724,239.0,1262.889,1263.9053,1264.4052,1264.4053,1265.6554,917.7,1265.6558,2.0,1266.6553,4.0,1.0,121.0,27.0,1.0,1.2,0.7,Time
,,S01,002046,1,Female,32,anonymized,Serial_Dependence_U,2023.2.3,MacIntel,62.11180124,,,,,,,,,,,,1266.6559,4.0,1266.6561,,,,1269.5893,1270.0874,1269.0881,1269.5892,1267.6725,71.0,1269.088,1270.0876,1270.5875,1270.5876,1272.1889,1207.5,1272.1892,2.0,1273.1885,4.0,2.0,122.0,23.0,1.0,1.4,0.3,Time
,,S01,002046,1,Female,32,anonymized,Serial_Dependence_U,2023.2.3,MacIntel,62.11180124,,,,,,,,,,,,1273.1892,4.0,1273.1894,,,,1276.1223,1276.6208,1275.6057,1276.1222,1274.1891,65.0,1275.6055,1276.6209,1277.1218,1277.1218,1278.472,1087.0,1278.4722,2.0,1279.4718,4.0,3.0,123.0,28.0,1.0,1.4,0.7,Time
,,S01,002046,1,Female,32,anonymized,Serial_Dependence_U,2023.2.3,MacIntel,62.11180124,,,,,,,,,,,,1279.4724,4.0,1279.4727,,,,1282.6223,1283.1217,1282.1056,1282.6222,1280.4889,242.0,1282.1055,1283.1217,1283.6207,1283.6208,1285.2887,1384.4,1285.289,2.0,1286.2873,4.0,4.0,124.0,24.0,1.0,1.6,0.3,Time
,,S01,002046,1,Female,32,anonymized,Serial_Dependence_U,2023.2.3,MacIntel,62.11180124,,,,,,,,,,,,1286.288,4.0,1286.2881,,,,1289.4389,1289.9382,1288.9221,1289.4388,1287.3057,219.0,1288.922,1289.9383,1290.4382,1290.4383,1292.4554,1696.5,1292.4557,4.0,1293.4549,4.0,5.0,125.0,14.0,1.0,1.6,0.3,Time
,,S01,002046,1,Female,32,anonymized,Serial_Dependence_U,2023.2.3,MacIntel,62.11180124,,,,,,,,,,,,1293.4556,4.0,1293.4558,,,,1296.6054,1297.1049,1296.0888,1296.6053,1294.4721,267.0,1296.0886,1297.1049,1297.6043,1297.6043,1299.0219,949.5,1299.0223,1.0,1300.0215,4.0,6.0,126.0,9.0,1.0,1.6,0.7,Time
,,S01,002046,1,Female,32,anonymized,Serial_Dependence_U,2023.2.3,MacIntel,62.11180124,,,,,,,,,,,,1300.0222,4.0,1300.0223,,,,1302.3554,1302.8547,1301.8387,1302.3553,1301.0378,43.0,1301.8385,1302.8547,1303.3547,1303.3548,1304.6715,972.5,1304.6717,4.0,1305.6704,4.0,7.0,127.0,5.0,1.0,0.8,0.7,Time
,,S01,002046,1,Female,32,anonymized,Serial_Dependence_U,2023.2.3,MacIntel,62.11180124,,,,,,,,,,,,1305.671,4.0,1305.6711,,,,1308.4219,1308.9214,1307.9052,1308.4218,1306.6886,156.0,1307.9051,1308.9214,1309.4213,1309.4214,1310.9217,1151.1,1310.922,3.0,1311.9213,4.0,8.0,128.0,22.0,1.0,1.2,0.3,Time
,,S01,002046,1,Female,32,anonymized,Serial_Dependence_U,2023.2.3,MacIntel,62.11180124,,,,,,,,,,,,1311.922,4.0,1311.9222,,,,1314.4552,1314.9535,1313.9386,1314.4551,1312.922,34.0,1313.9385,1314.9536,1315.4546,1315.4547,1316.9216,1188.9,1316.9219,4.0,1317.9203,4.0,9.0,129.0,1.0,1.0,1.0,0.3,Time
,,S01,002046,1,Female,32,anonymized,Serial_Dependence_U,2023.2.3,MacIntel,62.11180124,,,,,,,,,,,,1317.921,4.0,1317.9213,,,,1320.4709,1320.9711,1319.9551,1320.4707,1318.9385,293.0,1319.955,1320.9712,1321.4712,1321.4713,1322.9383,1113.8,1322.9385,4.0,1323.9378,4.0,10.0,130.0,26.0,1.0,1.0,0.7,Time
,,S01,002046,1,Female,32,anonymized,Serial_Dependence_U,2023.2.3,MacIntel,62.11180124,,,,,,,,,,,,1323.9385,4.0,1323.9388,,,,1326.4718,1326.9701,1325.955,1326.4717,1324.9385,129.0,1325.9549,1326.9702,1327.4712,1327.4712,1328.9871,1134.7,1328.9874,4.0,1329.9868,4.0,11.0,131.0,21.0,1.0,1.0,0.3,Time
,,S01,002046,1,Female,32,anonymized,Serial_Dependence_U,2023.2.3,MacIntel,62.11180124,,,,,,,,,,,,1329.9875,4.0,1329.9877,,,,1332.3383,1332.8367,1331.8217,1332.3382,1331.0051,52.0,1331.8215,1332.8367,1333.3377,1333.3378,1334.3372,641.1,1334.3374,2.0,1335.3377,4.0,12.0,132.0,10.0,1.0,0.8,0.3,Time
,,S01,002046,1,Female,32,anonymized,Serial_Dependence_U,2023.2.3,MacIntel,62.11180124,,,,,,,,,,,,1335.3384,4.0,1335.3387,,,,1337.6883,1338.1868,1337.1716,1337.6882,1336.3549,247.0,1337.1715,1338.1868,1338.6876,1338.6877,1339.8214,833.3,1339.8216,3.0,1340.82,4.0,13.0,133.0,20.0,1.0,0.8,0.3,Time
,,S01,002046,1,Female,32,anonymized,Serial_Dependence_U,2023.2.3,MacIntel,62.11180124,,,,,,,,,,,,1340.8207,4.0,1340.8209,,,,1343.3549,1343.8543,1342.8539,1343.3548,1341.8382,239.0,1342.8538,1343.8543,1344.3544,1344.3544,1345.5544,881.4,1345.5546,2.0,1346.5543,4.0,14.0,134.0,6.0,1.0,1.0,0.7,Time
,,S01,002046,1,Female,32,anonymized,Serial_Dependence_U,2023.2.3,MacIntel,62.11180124,,,,,,,,,,,,1346.5549,4.0,1346.5551,,,,1349.4882,1349.9875,1348.9713,1349.4881,1347.5548,102.0,1348.9712,1349.9876,1350.4865,1350.4866,1351.7379,940.6,1351.7382,1.0,1352.7375,4.0,15.0,135.0,3.0,1.0,1.4,0.3,Time
,,S01,002046,1,Female,32,anonymized,Serial_Dependence_U,2023.2.3,MacIntel,62.11180124,,,,,,,,,,,,1352.7381,4.0,1352.7384,,,,1355.2871,1355.7874,1354.7713,1355.287,1353.7538,102.0,1354.7712,1355.7875,1356.2874,1356.2875,1357.4043,841.0,1357.4045,2.0,1358.4031,4.0,16.0,136.0,11.0,1.0,1.0,0.3,Time
,,S01,002046,1,Female,32,anonymized,Serial_Dependence_U,2023.2.3,MacIntel,62.11180124,,,,,,,,,,,,1358.4038,4.0,1358.4041,,,,1361.3536,1361.854,1360.8378,1361.3535,1359.4203,271.0,1360.8377,1361.854,1362.353,1362.3531,1363.7542,1056.2,1363.7544,2.0,1364.7542,4.0,17.0,137.0,13.0,1.0,1.4,0.3,Time
,,S01,002046,1,Female,32,anonymized,Serial_Dependence_U,2023.2.3,MacIntel,62.11180124,,,,,,,,,,,,1364.7549,4.0,1364.7551,,,,1367.488,1367.9863,1366.9712,1367.4878,1365.7705,235.0,1366.9711,1367.9863,1368.4872,1368.4874,1369.9208,1052.2,1369.9211,2.0,1370.9206,4.0,18.0,138.0,2.0,1.0,1.2,0.3,Time
,,S01,002046,1,Female,32,anonymized,Serial_Dependence_U,2023.2.3,MacIntel,62.11180124,,,,,,,,,,,,1370.9213,4.0,1370.9215,,,,1373.8712,1374.3703,1373.3544,1373.8711,1371.9378,144.0,1373.3543,1374.3703,1374.8705,1374.8706,1376.4042,1207.6,1376.4045,2.0,1377.4039,4.0,19.0,139.0,18.0,1.0,1.4,0.7,Time
,,S01,002046,1,Female,32,anonymized,Serial_Dependence_U,2023.2.3,MacIntel,62.11180124,,,,,,,,,,,,1377.4045,4.0,1377.4047,,,,1380.3544,1380.8529,1379.8377,1380.3543,1378.4212,141.0,1379.8375,1380.8529,1381.3537,1381.3538,1382.7532,1076.1,1382.7535,2.0,1383.7539,4.0,20.0,140.0,8.0,1.0,1.4,0.7,Time
,,S01,002046,1,Female,32,anonymized,Serial_Dependence_U,2023.2.3,MacIntel,62.11180124,,,,,,,,,,,,1383.7546,4.0,1383.7549,,,,1386.0876,1386.5861,1385.5709,1386.0875,1384.7544,16.0,1385.5708,1386.5861,1387.0861,1387.0861,1388.2531,833.8,1388.2534,3.0,1389.2538,4.0,21.0,141.0,0.0,1.0,0.8,0.3,Time
,,S01,002046,1,Female,32,anonymized,Serial_Dependence_U,2023.2.3,MacIntel,62.11180124,,,,,,,,,,,,1389.2545,4.0,1389.2547,,,,1391.9876,1392.486,1391.4867,1391.9874,1390.2709,266.0,1391.4865,1392.486,1392.987,1392.987,1394.3205,1017.1,1394.3208,2.0,1395.3203,4.0,22.0,142.0,17.0,1.0,1.2,0.7,Time
,,S01,002046,1,Female,32,anonymized,Serial_Dependence_U,2023.2.3,MacIntel,62.11180124,,,,,,,,,,,,1395.3209,4.0,1395.3212,,,,1398.054,1398.5526,1397.5375,1398.0538,1396.3209,223.0,1397.5373,1398.5526,1399.0536,1399.0536,1400.2705,825.5,1400.2708,1.0,1401.2692,4.0,23.0,143.0,12.0,1.0,1.2,0.3,Time
,,S01,002046,1,Female,32,anonymized,Serial_Dependence_U,2023.2.3,MacIntel,62.11180124,,,,,,,,,,,,1401.27,4.0,1401.2702,,,,1403.8032,1404.3034,1403.2874,1403.8031,1402.2865,79.0,1403.2873,1404.3035,1404.8034,1404.8035,1406.2526,1108.5,1406.2529,4.0,1407.2535,4.0,24.0,144.0,16.0,1.0,1.0,0.7,Time
,,S01,002046,1,Female,32,anonymized,Serial_Dependence_U,2023.2.3,MacIntel,62.11180124,,,,,,,,,,,,1407.2541,4.0,1407.2543,,,,1409.5874,1410.0867,1409.0704,1409.5872,1408.2541,293.0,1409.0703,1410.0868,1410.5868,1410.5869,1412.0204,1090.4,1412.0206,5.0,1413.0201,4.0,25.0,145.0,15.0,1.0,0.8,0.7,Time
,,S01,002046,1,Female,32,anonymized,Serial_Dependence_U,2023.2.3,MacIntel,62.11180124,,,,,,,,,,,,1413.0208,4.0,1413.021,,,,1416.1706,1416.67,1415.6529,1416.1705,1414.0374,343.0,1415.6528,1416.6701,1417.17,1417.1701,1418.9871,1456.5,1418.9873,2.0,1419.9857,4.0,26.0,146.0,4.0,1.0,1.6,0.3,Time
,,S01,002046,1,Female,32,anonymized,Serial_Dependence_U,2023.2.3,MacIntel,62.11180124,,,,,,,,,,,,1419.9863,4.0,1419.9865,,,,1422.7362,1423.2365,1422.2205,1422.7361,1421.0039,36.0,1422.2204,1423.2366,1423.7366,1423.7367,1425.1536,1106.8,1425.1538,2.0,1426.1532,4.0,27.0,147.0,7.0,1.0,1.2,0.7,Time
,,S01,002046,1,Female,32,anonymized,Serial_Dependence_U,2023.2.3,MacIntel,62.11180124,,,,,,,,,,,,1426.1539,4.0,1426.1542,,,,1429.3038,1429.8032,1428.7871,1429.3037,1427.1705,264.0,1428.787,1429.8032,1430.3021,1430.3022,1431.569,941.0,1431.5692,1.0,1432.5688,4.0,28.0,148.0,19.0,1.0,1.6,0.7,Time
,,S01,002046,1,Female,32,anonymized,Serial_Dependence_U,2023.2.3,MacIntel,62.11180124,,,,,,,,,,,,1432.5695,4.0,1432.5697,,,,1434.9037,1435.4031,1434.3869,1434.9036,1433.5705,197.0,1434.3869,1435.4031,1435.9031,1435.9032,1437.2201,1024.6,1437.2203,4.0,1438.2187,4.0,29.0,149.0,25.0,1.0,0.8,0.7,Time
,,S01,002046,1,Female,32,anonymized,Serial_Dependence_U,2023.2.3,MacIntel,62.11180124,,,,,,,,,,,,1438.2194,5.0,1691.9334,s,253.6949,,1694.6839,1695.1833,1694.1673,1694.6838,1692.9507,264.0,1694.1671,1695.1833,1695.6824,1695.6824,1697.0169,983.9,1697.0172,2.0,1698.0156,5.0,0.0,150.0,22.0,1.0,1.2,0.3,Time
,,S01,002046,1,Female,32,anonymized,Serial_Dependence_U,2023.2.3,MacIntel,62.11180124,,,,,,,,,,,,1698.0162,5.0,1698.0183,,,,1700.5661,1701.0664,1700.0504,1700.566,1699.0337,347.0,1700.0503,1701.0665,1701.5664,1701.5665,1703.1668,1268.5,1703.1671,4.0,1704.1665,5.0,1.0,151.0,1.0,1.0,1.0,0.3,Time
,,S01,002046,1,Female,32,anonymized,Serial_Dependence_U,2023.2.3,MacIntel,62.11180124,,,,,,,,,,,,1704.1671,5.0,1704.1674,,,,1707.317,1707.8165,1706.8002,1707.3169,1705.1837,101.0,1706.8001,1707.8165,1708.3153,1708.3154,1710.0835,1457.9,1710.0837,2.0,1711.083,5.0,2.0,152.0,14.0,1.0,1.6,0.3,Time
,,S01,002046,1,Female,32,anonymized,Serial_Dependence_U,2023.2.3,MacIntel,62.11180124,,,,,,,,,,,,1711.0838,5.0,1711.0839,,,,1713.4335,1713.9329,1712.917,1713.4335,1712.1002,59.0,1712.9168,1713.933,1714.432,1714.4321,1715.3999,648.8,1715.4002,2.0,1716.3986,5.0,3.0,153.0,5.0,1.0,0.8,0.7,Time
,,S01,002046,1,Female,32,anonymized,Serial_Dependence_U,2023.2.3,MacIntel,62.11180124,,,,,,,,,,,,1716.3993,5.0,1716.3995,,,,1718.9501,1719.4495,1718.4334,1718.95,1717.4169,128.0,1718.4334,1719.4496,1719.9485,1719.9486,1721.0657,874.3,1721.066,2.0,1722.0662,5.0,4.0,154.0,26.0,1.0,1.0,0.7,Time
,,S01,002046,1,Female,32,anonymized,Serial_Dependence_U,2023.2.3,MacIntel,62.11180124,,,,,,,,,,,,1722.0669,5.0,1722.0671,,,,1725.2168,1725.7161,1724.7001,1725.2167,1723.0835,312.0,1724.7,1725.7161,1726.2161,1726.2162,1727.5999,1125.0,1727.6002,2.0,1728.5995,5.0,5.0,155.0,4.0,1.0,1.6,0.3,Time
,,S01,002046,1,Female,32,anonymized,Serial_Dependence_U,2023.2.3,MacIntel,62.11180124,,,,,,,,,,,,1728.6002,5.0,1728.6004,,,,1731.3334,1731.8327,1730.8167,1731.3332,1729.6157,291.0,1730.8165,1731.8328,1732.3317,1732.3319,1733.6831,1084.9,1733.6834,2.0,1734.6827,5.0,6.0,156.0,7.0,1.0,1.2,0.7,Time
,,S01,002046,1,Female,32,anonymized,Serial_Dependence_U,2023.2.3,MacIntel,62.11180124,,,,,,,,,,,,1734.6834,5.0,1734.6836,,,,1737.4,1737.8993,1736.899,1737.3998,1735.6832,171.0,1736.8989,1737.8993,1738.3994,1738.3994,1739.8163,1080.8,1739.8166,2.0,1740.816,5.0,7.0,157.0,12.0,1.0,1.2,0.3,Time
,,S01,002046,1,Female,32,anonymized,Serial_Dependence_U,2023.2.3,MacIntel,62.11180124,,,,,,,,,,,,1740.8166,5.0,1740.8168,,,,1743.7331,1744.2326,1743.2323,1743.733,1741.8165,240.0,1743.232,1744.2326,1744.7326,1744.7326,1746.0495,1056.1,1746.0499,2.0,1747.0492,5.0,8.0,158.0,3.0,1.0,1.4,0.3,Time
,,S01,002046,1,Female,32,anonymized,Serial_Dependence_U,2023.2.3,MacIntel,62.11180124,,,,,,,,,,,,1747.0499,5.0,1747.05,,,,1749.7998,1750.2983,1749.2831,1749.7997,1748.0665,139.0,1749.283,1750.2983,1750.7993,1750.7993,1752.1327,960.1,1752.1329,2.0,1753.1315,5.0,9.0,159.0,17.0,1.0,1.2,0.7,Time
,,S01,002046,1,Female,32,anonymized,Serial_Dependence_U,2023.2.3,MacIntel,62.11180124,,,,,,,,,,,,1753.1322,5.0,1753.1324,,,,1755.8831,1756.3814,1755.3665,1755.883,1754.1497,173.0,1755.3662,1756.3814,1756.8824,1756.8825,1758.1494,999.1,1758.1498,2.0,1759.1491,5.0,10.0,160.0,2.0,1.0,1.2,0.3,Time
,,S01,002046,1,Female,32,anonymized,Serial_Dependence_U,2023.2.3,MacIntel,62.11180124,,,,,,,,,,,,1759.1498,5.0,1759.15,,,,1761.8996,1762.398,1761.383,1761.8994,1760.1663,341.0,1761.3828,1762.3981,1762.899,1762.8991,1763.9817,928.0,1763.9819,2.0,1764.9823,5.0,11.0,161.0,27.0,1.0,1.2,0.7,Time
,,S01,002046,1,Female,32,anonymized,Serial_Dependence_U,2023.2.3,MacIntel,62.11180124,,,,,,,,,,,,1764.983,5.0,1764.9832,,,,1767.8995,1768.399,1767.3986,1767.8994,1765.9829,193.0,1767.3985,1768.399,1768.898,1768.898,1770.1327,941.1,1770.133,1.0,1771.1323,5.0,12.0,162.0,8.0,1.0,1.4,0.7,Time
,,S01,002046,1,Female,32,anonymized,Serial_Dependence_U,2023.2.3,MacIntel,62.11180124,,,,,,,,,,,,1771.133,5.0,1771.1333,,,,1774.2828,1774.7823,1773.7661,1774.2827,1772.1495,97.0,1773.7661,1774.7823,1775.2821,1775.2822,1776.6326,1039.8,1776.6329,1.0,1777.6323,5.0,13.0,163.0,9.0,1.0,1.6,0.7,Time
,,S01,002046,1,Female,32,anonymized,Serial_Dependence_U,2023.2.3,MacIntel,62.11180124,,,,,,,,,,,,1777.633,5.0,1777.6333,,,,1779.9818,1780.4822,1779.466,1779.9816,1778.6495,92.0,1779.4659,1780.4822,1780.9822,1780.9822,1781.9649,689.1,1781.9653,2.0,1782.9655,5.0,14.0,164.0,0.0,1.0,0.8,0.3,Time
,,S01,002046,1,Female,32,anonymized,Serial_Dependence_U,2023.2.3,MacIntel,62.11180124,,,,,,,,,,,,1782.9661,5.0,1782.9664,,,,1785.916,1786.4144,1785.3994,1785.9159,1783.9828,280.0,1785.3992,1786.4145,1786.9153,1786.9154,1788.4491,1200.5,1788.4494,2.0,1789.4478,5.0,15.0,165.0,28.0,1.0,1.4,0.7,Time
,,S01,002046,1,Female,32,anonymized,Serial_Dependence_U,2023.2.3,MacIntel,62.11180124,,,,,,,,,,,,1789.4484,5.0,1789.4486,,,,1791.7827,1792.282,1791.2816,1791.7825,1790.4659,350.0,1791.2815,1792.282,1792.782,1792.782,1793.8657,755.8,1793.866,2.0,1794.8653,5.0,16.0,166.0,10.0,1.0,0.8,0.3,Time
,,S01,002046,1,Female,32,anonymized,Serial_Dependence_U,2023.2.3,MacIntel,62.11180124,,,,,,,,,,,,1794.866,5.0,1794.8663,,,,1798.0158,1798.5152,1797.4992,1798.0158,1795.8825,50.0,1797.499,1798.5153,1799.0153,1799.0154,1800.5157,1208.0,1800.5159,2.0,1801.5152,5.0,17.0,167.0,19.0,1.0,1.6,0.7,Time
,,S01,002046,1,Female,32,anonymized,Serial_Dependence_U,2023.2.3,MacIntel,62.11180124,,,,,,,,,,,,1801.5159,5.0,1801.5163,,,,1804.0658,1804.5651,1803.5491,1804.0657,1802.5326,300.0,1803.549,1804.5651,1805.0652,1805.0652,1806.2644,882.0,1806.2646,2.0,1807.2652,5.0,18.0,168.0,16.0,1.0,1.0,0.7,Time
,,S01,002046,1,Female,32,anonymized,Serial_Dependence_U,2023.2.3,MacIntel,62.11180124,,,,,,,,,,,,1807.2659,5.0,1807.2661,,,,1809.8157,1810.3151,1809.2991,1809.8156,1808.2823,307.0,1809.2989,1810.3151,1810.8152,1810.8152,1812.0823,960.4,1812.0825,3.0,1813.0817,5.0,19.0,169.0,6.0,1.0,1.0,0.7,Time
,,S01,002046,1,Female,32,anonymized,Serial_Dependence_U,2023.2.3,MacIntel,62.11180124,,,,,,,,,,,,1813.0825,5.0,1813.0827,,,,1815.6157,1816.115,1815.099,1815.6156,1814.0824,166.0,1815.0989,1816.115,1816.615,1816.6151,1817.965,990.9,1817.9654,3.0,1818.965,5.0,20.0,170.0,21.0,1.0,1.0,0.3,Time
,,S01,002046,1,Female,32,anonymized,Serial_Dependence_U,2023.2.3,MacIntel,62.11180124,,,,,,,,,,,,1818.9657,5.0,1818.9659,,,,1821.9155,1822.4149,1821.398,1821.9153,1819.9822,241.0,1821.3979,1822.4149,1822.915,1822.915,1824.3817,1147.0,1824.3819,2.0,1825.3816,5.0,21.0,171.0,23.0,1.0,1.4,0.3,Time
,,S01,002046,1,Female,32,anonymized,Serial_Dependence_U,2023.2.3,MacIntel,62.11180124,,,,,,,,,,,,1825.3823,5.0,1825.3825,,,,1828.5312,1829.0315,1828.0154,1828.5311,1826.3981,226.0,1828.0153,1829.0316,1829.5316,1829.5316,1831.1152,1236.5,1831.1154,2.0,1832.1148,5.0,22.0,172.0,24.0,1.0,1.6,0.3,Time
,,S01,002046,1,Female,32,anonymized,Serial_Dependence_U,2023.2.3,MacIntel,62.11180124,,,,,,,,,,,,1832.1155,5.0,1832.1158,,,,1835.0653,1835.5648,1834.5487,1835.0653,1833.1321,33.0,1834.5486,1835.5648,1836.0648,1836.0648,1837.5817,1132.4,1837.5821,2.0,1838.5814,5.0,23.0,173.0,13.0,1.0,1.4,0.3,Time
,,S01,002046,1,Female,32,anonymized,Serial_Dependence_U,2023.2.3,MacIntel,62.11180124,,,,,,,,,,,,1838.5822,5.0,1838.5825,,,,1841.532,1842.0314,1841.0153,1841.5318,1839.5987,106.0,1841.0152,1842.0314,1842.5314,1842.5315,1844.1817,1352.5,1844.182,3.0,1845.1814,5.0,24.0,174.0,18.0,1.0,1.4,0.7,Time
,,S01,002046,1,Female,32,anonymized,Serial_Dependence_U,2023.2.3,MacIntel,62.11180124,,,,,,,,,,,,1845.182,5.0,1845.1824,,,,1847.5319,1848.0303,1847.0143,1847.5318,1846.1986,160.0,1847.0142,1848.0304,1848.5314,1848.5314,1849.6149,881.5,1849.6152,4.0,1850.6146,5.0,25.0,175.0,15.0,1.0,0.8,0.7,Time
,,S01,002046,1,Female,32,anonymized,Serial_Dependence_U,2023.2.3,MacIntel,62.11180124,,,,,,,,,,,,1850.6152,5.0,1850.6155,,,,1853.1651,1853.6645,1852.6485,1853.165,1851.6319,249.0,1852.6484,1853.6645,1854.1646,1854.1647,1855.2981,1016.5,1855.2984,3.0,1856.2979,5.0,26.0,176.0,11.0,1.0,1.0,0.3,Time
,,S01,002046,1,Female,32,anonymized,Serial_Dependence_U,2023.2.3,MacIntel,62.11180124,,,,,,,,,,,,1856.2986,5.0,1856.2988,,,,1859.4317,1859.9312,1858.9151,1859.4315,1857.2985,155.0,1858.915,1859.9313,1860.4311,1860.4312,1862.0314,1431.5,1862.0317,2.0,1863.0311,5.0,27.0,177.0,29.0,1.0,1.6,0.7,Time
,,S01,002046,1,Female,32,anonymized,Serial_Dependence_U,2023.2.3,MacIntel,62.11180124,,,,,,,,,,,,1863.0317,5.0,1863.032,,,,1865.3817,1865.881,1864.865,1865.3816,1864.0484,103.0,1864.8649,1865.881,1866.381,1866.3812,1867.5981,971.5,1867.5984,4.0,1868.5977,5.0,28.0,178.0,25.0,1.0,0.8,0.7,Time
,,S01,002046,1,Female,32,anonymized,Serial_Dependence_U,2023.2.3,MacIntel,62.11180124,,,,,,,,,,,,1868.5984,5.0,1868.5986,,,,1870.9483,1871.4476,1870.4316,1870.9482,1869.6149,226.0,1870.4315,1871.4477,1871.9477,1871.9477,1873.2647,963.6,1873.265,4.0,1874.2634,5.0,29.0,179.0,20.0,1.0,0.8,0.3,Time
,,S01,002046,1,Female,32,anonymized,Serial_Dependence_U,2023.2.3,MacIntel,62.11180124,,,,,,,,,,,,1874.264,6.0,1877.8812,s,3.5926,,1880.8148,1881.3142,1880.3138,1880.8147,1878.8982,274.0,1880.3136,1881.3142,1881.8142,1881.8142,1883.0314,947.9,1883.0316,1.0,1884.0309,6.0,0.0,180.0,3.0,1.0,1.4,0.3,Time
,,S01,002046,1,Female,32,anonymized,Serial_Dependence_U,2023.2.3,MacIntel,62.11180124,,,,,,,,,,,,1884.0315,6.0,1884.0332,,,,1886.5814,1887.0807,1886.0647,1886.5813,1885.0481,112.0,1886.0646,1887.0808,1887.5807,1887.5809,1888.7979,900.5,1888.7981,2.0,1889.7974,6.0,1.0,181.0,26.0,1.0,1.0,0.7,Time
,,S01,002046,1,Female,32,anonymized,Serial_Dependence_U,2023.2.3,MacIntel,62.11180124,,,,,,,,,,,,1889.7982,6.0,1889.7984,,,,1892.9481,1893.4474,1892.4313,1892.948,1890.8147,219.0,1892.4311,1893.4474,1893.9474,1893.9474,1895.3643,1089.0,1895.3646,1.0,1896.364,6.0,2.0,182.0,24.0,1.0,1.6,0.3,Time
,,S01,002046,1,Female,32,anonymized,Serial_Dependence_U,2023.2.3,MacIntel,62.11180124,,,,,,,,,,,,1896.3647,6.0,1896.3649,,,,1899.1146,1899.614,1898.5979,1899.1144,1897.3813,301.0,1898.5978,1899.6141,1900.114,1900.1141,1901.4141,1070.1,1901.4144,2.0,1902.4139,6.0,3.0,183.0,17.0,1.0,1.2,0.7,Time
,,S01,002046,1,Female,32,anonymized,Serial_Dependence_U,2023.2.3,MacIntel,62.11180124,,,,,,,,,,,,1902.4146,6.0,1902.4149,,,,1905.1645,1905.6638,1904.6478,1905.1644,1903.4313,176.0,1904.6476,1905.6639,1906.1639,1906.1641,1907.5475,1165.6,1907.5479,3.0,1908.5472,6.0,4.0,184.0,2.0,1.0,1.2,0.3,Time
,,S01,002046,1,Female,32,anonymized,Serial_Dependence_U,2023.2.3,MacIntel,62.11180124,,,,,,,,,,,,1908.5479,6.0,1908.5482,,,,1911.2978,1911.7972,1910.7811,1911.2976,1909.5645,253.0,1910.7809,1911.7972,1912.2972,1912.2973,1913.7975,1190.6,1913.7978,3.0,1914.7972,6.0,5.0,185.0,27.0,1.0,1.2,0.7,Time
,,S01,002046,1,Female,32,anonymized,Serial_Dependence_U,2023.2.3,MacIntel,62.11180124,,,,,,,,,,,,1914.7977,6.0,1914.798,,,,1917.7478,1918.247,1917.2312,1917.7476,1915.8145,285.0,1917.2311,1918.2472,1918.7471,1918.7471,1919.8306,932.4,1919.831,1.0,1920.8304,6.0,6.0,186.0,28.0,1.0,1.4,0.7,Time
,,S01,002046,1,Female,32,anonymized,Serial_Dependence_U,2023.2.3,MacIntel,62.11180124,,,,,,,,,,,,1920.8311,6.0,1920.8313,,,,1923.181,1923.6804,1922.6643,1923.1808,1921.8476,181.0,1922.6642,1923.6804,1924.1804,1924.1804,1925.4807,990.1,1925.481,4.0,1926.4803,6.0,7.0,187.0,25.0,1.0,0.8,0.7,Time
,,S01,002046,1,Female,32,anonymized,Serial_Dependence_U,2023.2.3,MacIntel,62.11180124,,,,,,,,,,,,1926.4809,6.0,1926.4812,,,,1929.6309,1930.1303,1929.1143,1929.6308,1927.4976,80.0,1929.1141,1930.1304,1930.6304,1930.6304,1932.0804,1058.1,1932.0807,1.0,1933.0803,6.0,8.0,188.0,29.0,1.0,1.6,0.7,Time
,,S01,002046,1,Female,32,anonymized,Serial_Dependence_U,2023.2.3,MacIntel,62.11180124,,,,,,,,,,,,1933.081,6.0,1933.0812,,,,1935.8309,1936.3302,1935.3142,1935.8307,1934.0976,323.0,1935.314,1936.3302,1936.8302,1936.8303,1938.1807,1107.6,1938.1809,2.0,1939.1801,6.0,9.0,189.0,12.0,1.0,1.2,0.3,Time
,,S01,002046,1,Female,32,anonymized,Serial_Dependence_U,2023.2.3,MacIntel,62.11180124,,,,,,,,,,,,1939.1809,6.0,1939.1811,,,,1941.5307,1942.0301,1941.014,1941.5306,1940.1974,208.0,1941.0139,1942.0301,1942.5302,1942.5302,1943.7971,1033.8,1943.7973,4.0,1944.7968,6.0,10.0,190.0,15.0,1.0,0.8,0.7,Time
,,S01,002046,1,Female,32,anonymized,Serial_Dependence_U,2023.2.3,MacIntel,62.11180124,,,,,,,,,,,,1944.7975,6.0,1944.7977,,,,1947.3473,1947.8467,1946.8306,1947.3472,1945.814,3.0,1946.8304,1947.8467,1948.3467,1948.3468,1949.6302,1114.6,1949.6304,4.0,1950.63,6.0,11.0,191.0,1.0,1.0,1.0,0.3,Time
,,S01,002046,1,Female,32,anonymized,Serial_Dependence_U,2023.2.3,MacIntel,62.11180124,,,,,,,,,,,,1950.6307,6.0,1950.6309,,,,1953.1806,1953.6799,1952.6639,1953.1805,1951.6473,11.0,1952.6637,1953.68,1954.1799,1954.18,1955.5303,1132.9,1955.5306,4.0,1956.5299,6.0,12.0,192.0,6.0,1.0,1.0,0.7,Time
,,S01,002046,1,Female,32,anonymized,Serial_Dependence_U,2023.2.3,MacIntel,62.11180124,,,,,,,,,,,,1956.5306,6.0,1956.5308,,,,1959.4806,1959.9798,1958.9638,1959.4805,1957.5472,332.0,1958.9636,1959.9799,1960.4799,1960.48,1961.9136,1125.1,1961.9139,2.0,1962.9132,6.0,13.0,193.0,18.0,1.0,1.4,0.7,Time
,,S01,002046,1,Female,32,anonymized,Serial_Dependence_U,2023.2.3,MacIntel,62.11180124,,,,,,,,,,,,1962.9139,6.0,1962.914,,,,1965.8639,1966.3632,1965.347,1965.8637,1963.9305,66.0,1965.3469,1966.3632,1966.8632,1966.8633,1968.3301,1208.1,1968.3303,2.0,1969.3298,6.0,14.0,194.0,23.0,1.0,1.4,0.3,Time
,,S01,002046,1,Female,32,anonymized,Serial_Dependence_U,2023.2.3,MacIntel,62.11180124,,,,,,,,,,,,1969.3305,6.0,1969.3307,,,,1972.4804,1972.9798,1971.9636,1972.4802,1970.3471,14.0,1971.9636,1972.9798,1973.4799,1973.48,1975.1133,1232.8,1975.1137,2.0,1976.1131,6.0,15.0,195.0,9.0,1.0,1.6,0.7,Time
,,S01,002046,1,Female,32,anonymized,Serial_Dependence_U,2023.2.3,MacIntel,62.11180124,,,,,,,,,,,,1976.1138,6.0,1976.114,,,,1979.2635,1979.7629,1978.7469,1979.2634,1977.1301,138.0,1978.7468,1979.763,1980.2631,1980.2631,1982.3632,1599.8,1982.3634,3.0,1983.363,6.0,16.0,196.0,4.0,1.0,1.6,0.3,Time
,,S01,002046,1,Female,32,anonymized,Serial_Dependence_U,2023.2.3,MacIntel,62.11180124,,,,,,,,,,,,1983.3637,6.0,1983.3639,,,,1985.7134,1986.2129,1985.1969,1985.7134,1984.3802,157.0,1985.1967,1986.213,1986.7129,1986.713,1988.163,1131.8,1988.1633,5.0,1989.1629,6.0,17.0,197.0,20.0,1.0,0.8,0.3,Time
,,S01,002046,1,Female,32,anonymized,Serial_Dependence_U,2023.2.3,MacIntel,62.11180124,,,,,,,,,,,,1989.1634,6.0,1989.1637,,,,1991.5135,1992.0128,1990.9967,1991.5133,1990.1802,172.0,1990.9966,1992.0128,1992.513,1992.513,1993.9631,1167.4,1993.9633,5.0,1994.9629,6.0,18.0,198.0,10.0,1.0,0.8,0.3,Time
,,S01,002046,1,Female,32,anonymized,Serial_Dependence_U,2023.2.3,MacIntel,62.11180124,,,,,,,,,,,,1994.9635,6.0,1994.9638,,,,1997.9134,1998.4128,1997.3967,1997.9133,1995.9801,290.0,1997.3965,1998.4128,1998.9128,1998.9128,2000.363,1149.8,2000.3633,2.0,2001.3627,6.0,19.0,199.0,8.0,1.0,1.4,0.7,Time
,,S01,002046,1,Female,32,anonymized,Serial_Dependence_U,2023.2.3,MacIntel,62.11180124,,,,,,,,,,,,2001.3634,6.0,2001.3637,,,,2003.9133,2004.4127,2003.3967,2003.9131,2002.3799,313.0,2003.3965,2004.4127,2004.9126,2004.9127,2006.4796,1225.0,2006.4799,4.0,2007.4793,6.0,20.0,200.0,11.0,1.0,1.0,0.3,Time
,,S01,002046,1,Female,32,anonymized,Serial_Dependence_U,2023.2.3,MacIntel,62.11180124,,,,,,,,,,,,2007.48,6.0,2007.4803,,,,2009.8298,2010.3292,2009.3132,2009.8297,2008.4966,353.0,2009.313,2010.3293,2010.8292,2010.8294,2012.1627,990.8,2012.163,4.0,2013.1626,6.0,21.0,201.0,0.0,1.0,0.8,0.3,Time
,,S01,002046,1,Female,32,anonymized,Serial_Dependence_U,2023.2.3,MacIntel,62.11180124,,,,,,,,,,,,2013.1632,6.0,2013.1634,,,,2015.4965,2015.9958,2014.9799,2015.4964,2014.179,264.0,2014.9797,2015.9959,2016.4958,2016.4959,2017.6296,807.3,2017.6298,3.0,2018.6292,6.0,22.0,202.0,5.0,1.0,0.8,0.7,Time
,,S01,002046,1,Female,32,anonymized,Serial_Dependence_U,2023.2.3,MacIntel,62.11180124,,,,,,,,,,,,2018.6299,6.0,2018.6301,,,,2021.3797,2021.8791,2020.8626,2021.3796,2019.6464,176.0,2020.8624,2021.8791,2022.3792,2022.3792,2023.696,979.9,2023.6963,2.0,2024.6958,6.0,23.0,203.0,22.0,1.0,1.2,0.3,Time
,,S01,002046,1,Female,32,anonymized,Serial_Dependence_U,2023.2.3,MacIntel,62.11180124,,,,,,,,,,,,2024.6964,6.0,2024.6966,,,,2027.2463,2027.7457,2026.7297,2027.2462,2025.7129,135.0,2026.7295,2027.7457,2028.2457,2028.2458,2029.7128,1166.7,2029.7131,4.0,2030.7123,6.0,24.0,204.0,16.0,1.0,1.0,0.7,Time
,,S01,002046,1,Female,32,anonymized,Serial_Dependence_U,2023.2.3,MacIntel,62.11180124,,,,,,,,,,,,2030.7131,6.0,2030.7133,,,,2033.4629,2033.9623,2032.9462,2033.4628,2031.7296,310.0,2032.9461,2033.9623,2034.4623,2034.4623,2036.0458,1272.6,2036.0461,4.0,2037.0456,6.0,25.0,205.0,7.0,1.0,1.2,0.7,Time
,,S01,002046,1,Female,32,anonymized,Serial_Dependence_U,2023.2.3,MacIntel,62.11180124,,,,,,,,,,,,2037.0462,6.0,2037.0465,,,,2039.9961,2040.4956,2039.4794,2039.996,2038.0629,83.0,2039.4793,2040.4956,2040.9953,2040.9954,2042.5292,1166.4,2042.5295,2.0,2043.5288,6.0,26.0,206.0,13.0,1.0,1.4,0.3,Time
,,S01,002046,1,Female,32,anonymized,Serial_Dependence_U,2023.2.3,MacIntel,62.11180124,,,,,,,,,,,,2043.5295,6.0,2043.5297,,,,2046.6794,2047.1788,2046.1628,2046.6793,2044.5462,6.0,2046.1627,2047.1788,2047.6784,2047.6785,2049.379,1242.6,2049.3792,2.0,2050.3788,6.0,27.0,207.0,14.0,1.0,1.6,0.3,Time
,,S01,002046,1,Female,32,anonymized,Serial_Dependence_U,2023.2.3,MacIntel,62.11180124,,,,,,,,,,,,2050.3794,6.0,2050.3797,,,,2053.5128,2054.0121,2053.0118,2053.5125,2051.3961,134.0,2053.0117,2054.0121,2054.5122,2054.5122,2056.3124,1332.2,2056.3126,2.0,2057.312,6.0,28.0,208.0,19.0,1.0,1.6,0.7,Time
,,S01,002046,1,Female,32,anonymized,Serial_Dependence_U,2023.2.3,MacIntel,62.11180124,,,,,,,,,,,,2057.3127,6.0,2057.3131,,,,2059.8626,2060.362,2059.3458,2059.8625,2058.3293,260.0,2059.3457,2060.362,2060.862,2060.862,2062.2123,1057.7,2062.2126,4.0,2063.212,6.0,29.0,209.0,21.0,1.0,1.0,0.3,Time
,,S01,002046,1,Female,32,anonymized,Serial_Dependence_U,2023.2.3,MacIntel,62.11180124,,,,,,,,,,,,2063.2127,7.0,2212.7765,s,149.537,,2215.9274,2216.4267,2215.4107,2215.9273,2213.7941,19.0,2215.4105,2216.4269,2216.9268,2216.9268,2218.5771,1307.1,2218.5773,2.0,2219.5767,7.0,0.0,210.0,29.0,1.0,1.6,0.7,Time
,,S01,002046,1,Female,32,anonymized,Serial_Dependence_U,2023.2.3,MacIntel,62.11180124,,,,,,,,,,,,2219.5773,7.0,2219.5794,,,,2222.7271,2223.2266,2222.2105,2222.727,2220.594,288.0,2222.2104,2223.2266,2223.7266,2223.7266,2225.2597,1363.9,2225.2599,2.0,2226.2599,7.0,1.0,211.0,14.0,1.0,1.6,0.3,Time
,,S01,002046,1,Female,32,anonymized,Serial_Dependence_U,2023.2.3,MacIntel,62.11180124,,,,,,,,,,,,2226.2605,7.0,2226.2608,,,,2229.0104,2229.5099,2228.4938,2229.0104,2227.2772,277.0,2228.4937,2229.5099,2230.0099,2230.0099,2231.5268,1149.9,2231.5271,3.0,2232.5266,7.0,2.0,212.0,27.0,1.0,1.2,0.7,Time
,,S01,002046,1,Female,32,anonymized,Serial_Dependence_U,2023.2.3,MacIntel,62.11180124,,,,,,,,,,,,2232.5272,7.0,2232.5275,,,,2235.677,2236.1764,2235.1603,2235.6769,2233.5438,35.0,2235.1602,2236.1764,2236.6765,2236.6765,2238.6268,1683.1,2238.6271,4.0,2239.6265,7.0,3.0,213.0,19.0,1.0,1.6,0.7,Time
,,S01,002046,1,Female,32,anonymized,Serial_Dependence_U,2023.2.3,MacIntel,62.11180124,,,,,,,,,,,,2239.6271,7.0,2239.6274,,,,2241.977,2242.4763,2241.4603,2241.9769,2240.6437,25.0,2241.4602,2242.4763,2242.9764,2242.9764,2244.0767,883.3,2244.077,4.0,2245.0764,7.0,4.0,214.0,20.0,1.0,0.8,0.3,Time
,,S01,002046,1,Female,32,anonymized,Serial_Dependence_U,2023.2.3,MacIntel,62.11180124,,,,,,,,,,,,2245.077,7.0,2245.0772,,,,2247.4269,2247.9263,2246.9103,2247.4268,2246.0936,249.0,2246.9102,2247.9263,2248.4263,2248.4264,2249.6766,983.0,2249.6769,4.0,2250.6763,7.0,5.0,215.0,5.0,1.0,0.8,0.7,Time
,,S01,002046,1,Female,32,anonymized,Serial_Dependence_U,2023.2.3,MacIntel,62.11180124,,,,,,,,,,,,2250.6769,7.0,2250.6771,,,,2253.2269,2253.7262,2252.7101,2253.2267,2251.6936,203.0,2252.71,2253.7262,2254.2262,2254.2263,2255.4099,1005.4,2255.4101,3.0,2256.4096,7.0,6.0,216.0,26.0,1.0,1.0,0.7,Time
,,S01,002046,1,Female,32,anonymized,Serial_Dependence_U,2023.2.3,MacIntel,62.11180124,,,,,,,,,,,,2256.4102,7.0,2256.4104,,,,2259.1601,2259.6596,2258.6434,2259.16,2257.4267,5.0,2258.6433,2259.6596,2260.1595,2260.1595,2261.3764,879.6,2261.3766,2.0,2262.3762,7.0,7.0,217.0,17.0,1.0,1.2,0.7,Time
,,S01,002046,1,Female,32,anonymized,Serial_Dependence_U,2023.2.3,MacIntel,62.11180124,,,,,,,,,,,,2262.3768,7.0,2262.377,,,,2265.3268,2265.8261,2264.8102,2265.3265,2263.3934,72.0,2264.8101,2265.8261,2266.3261,2266.3262,2267.7431,1016.5,2267.7434,2.0,2268.7427,7.0,8.0,218.0,18.0,1.0,1.4,0.7,Time
,,S01,002046,1,Female,32,anonymized,Serial_Dependence_U,2023.2.3,MacIntel,62.11180124,,,,,,,,,,,,2268.7434,7.0,2268.7436,,,,2271.4933,2271.9927,2270.9767,2271.4931,2269.7601,79.0,2270.9765,2271.9927,2272.4927,2272.4928,2273.693,1096.2,2273.6933,2.0,2274.6928,7.0,9.0,219.0,2.0,1.0,1.2,0.3,Time
,,S01,002046,1,Female,32,anonymized,Serial_Dependence_U,2023.2.3,MacIntel,62.11180124,,,,,,,,,,,,2274.6933,7.0,2274.6936,,,,2277.2431,2277.7426,2276.7264,2277.243,2275.71,86.0,2276.7263,2277.7426,2278.2426,2278.2427,2278.4764,186.1,2278.4766,1.0,2279.476,7.0,10.0,220.0,1.0,1.0,1.0,0.3,Time
,,S01,002046,1,Female,32,anonymized,Serial_Dependence_U,2023.2.3,MacIntel,62.11180124,,,,,,,,,,,,2279.4766,7.0,2279.4768,,,,2282.0264,2282.5259,2281.5099,2282.0263,2280.4932,280.0,2281.5097,2282.526,2283.0259,2283.026,2284.5263,1181.6,2284.5266,4.0,2285.5259,7.0,11.0,221.0,21.0,1.0,1.0,0.3,Time
,,S01,002046,1,Female,32,anonymized,Serial_Dependence_U,2023.2.3,MacIntel,62.11180124,,,,,,,,,,,,2285.5266,7.0,2285.5267,,,,2288.4765,2288.9757,2287.9598,2288.4763,2286.5433,169.0,2287.9597,2288.9758,2289.4758,2289.4758,2291.0594,1204.2,2291.0596,2.0,2292.0592,7.0,12.0,222.0,8.0,1.0,1.4,0.7,Time
,,S01,002046,1,Female,32,anonymized,Serial_Dependence_U,2023.2.3,MacIntel,62.11180124,,,,,,,,,,,,2292.0599,7.0,2292.0601,,,,2294.4097,2294.9091,2293.8931,2294.4096,2293.0763,233.0,2293.8929,2294.9091,2295.4091,2295.4091,2296.6925,980.5,2296.6927,4.0,2297.6925,7.0,13.0,223.0,25.0,1.0,0.8,0.7,Time
,,S01,002046,1,Female,32,anonymized,Serial_Dependence_U,2023.2.3,MacIntel,62.11180124,,,,,,,,,,,,2297.6932,7.0,2297.6934,,,,2300.4427,2300.9424,2299.9262,2300.4426,2298.7096,14.0,2299.9261,2300.9424,2301.4424,2301.4424,2302.7593,973.1,2302.7596,2.0,2303.7589,7.0,14.0,224.0,22.0,1.0,1.2,0.3,Time
,,S01,002046,1,Female,32,anonymized,Serial_Dependence_U,2023.2.3,MacIntel,62.11180124,,,,,,,,,,,,2303.7596,7.0,2303.7598,,,,2306.9095,2307.4088,2306.3929,2306.9094,2304.7762,328.0,2306.3927,2307.409,2307.909,2307.909,2309.276,1063.8,2309.2762,1.0,2310.2755,7.0,15.0,225.0,9.0,1.0,1.6,0.7,Time
,,S01,002046,1,Female,32,anonymized,Serial_Dependence_U,2023.2.3,MacIntel,62.11180124,,,,,,,,,,,,2310.2762,7.0,2310.2765,,,,2313.2261,2313.7255,2312.7095,2313.2259,2311.2929,185.0,2312.7093,2313.7255,2314.2255,2314.2256,2315.8422,1223.9,2315.8425,2.0,2316.8421,7.0,16.0,226.0,28.0,1.0,1.4,0.7,Time
,,S01,002046,1,Female,32,anonymized,Serial_Dependence_U,2023.2.3,MacIntel,62.11180124,,,,,,,,,,,,2316.8428,7.0,2316.843,,,,2319.5927,2320.0921,2319.076,2319.5926,2317.8593,206.0,2319.0759,2320.0921,2320.592,2320.5922,2322.4758,1457.1,2322.4761,4.0,2323.4754,7.0,17.0,227.0,12.0,1.0,1.2,0.3,Time
,,S01,002046,1,Female,32,anonymized,Serial_Dependence_U,2023.2.3,MacIntel,62.11180124,,,,,,,,,,,,2323.476,7.0,2323.4763,,,,2326.0259,2326.5254,2325.5093,2326.0257,2324.4926,114.0,2325.5091,2326.5254,2327.0253,2327.0254,2328.509,1157.4,2328.5093,4.0,2329.5087,7.0,18.0,228.0,6.0,1.0,1.0,0.7,Time
,,S01,002046,1,Female,32,anonymized,Serial_Dependence_U,2023.2.3,MacIntel,62.11180124,,,,,,,,,,,,2329.5093,7.0,2329.5096,,,,2331.8592,2332.3587,2331.3426,2331.8591,2330.5258,60.0,2331.3424,2332.3587,2332.8587,2332.8587,2334.2423,1016.2,2334.2426,4.0,2335.2419,7.0,19.0,229.0,0.0,1.0,0.8,0.3,Time
,,S01,002046,1,Female,32,anonymized,Serial_Dependence_U,2023.2.3,MacIntel,62.11180124,,,,,,,,,,,,2335.2426,7.0,2335.2428,,,,2337.7924,2338.2919,2337.2758,2337.7923,2336.2592,227.0,2337.2756,2338.2919,2338.7919,2338.792,2340.3754,1224.3,2340.3756,4.0,2341.3752,7.0,20.0,230.0,11.0,1.0,1.0,0.3,Time
,,S01,002046,1,Female,32,anonymized,Serial_Dependence_U,2023.2.3,MacIntel,62.11180124,,,,,,,,,,,,2341.3758,7.0,2341.3761,,,,2344.5257,2345.0251,2344.0089,2344.5255,2342.3926,44.0,2344.0089,2345.0251,2345.5251,2345.5251,2347.308,1491.6,2347.3083,2.0,2348.3084,7.0,21.0,231.0,4.0,1.0,1.6,0.3,Time
,,S01,002046,1,Female,32,anonymized,Serial_Dependence_U,2023.2.3,MacIntel,62.11180124,,,,,,,,,,,,2348.309,7.0,2348.3093,,,,2350.859,2351.3584,2350.3422,2350.8588,2349.3257,203.0,2350.3421,2351.3584,2351.8585,2351.8585,2353.4253,1234.2,2353.4256,4.0,2354.425,7.0,22.0,232.0,16.0,1.0,1.0,0.7,Time
,,S01,002046,1,Female,32,anonymized,Serial_Dependence_U,2023.2.3,MacIntel,62.11180124,,,,,,,,,,,,2354.4257,7.0,2354.4259,,,,2357.3755,2357.875,2356.859,2357.3754,2355.4422,210.0,2356.8588,2357.8751,2358.375,2358.375,2359.9086,1256.2,2359.9089,2.0,2360.9083,7.0,23.0,233.0,13.0,1.0,1.4,0.3,Time
,,S01,002046,1,Female,32,anonymized,Serial_Dependence_U,2023.2.3,MacIntel,62.11180124,,,,,,,,,,,,2360.909,7.0,2360.9092,,,,2363.6578,2364.1582,2363.1422,2363.6578,2361.9255,183.0,2363.142,2364.1582,2364.6582,2364.6583,2366.3251,1267.9,2366.3254,4.0,2367.3249,7.0,24.0,234.0,7.0,1.0,1.2,0.7,Time
,,S01,002046,1,Female,32,anonymized,Serial_Dependence_U,2023.2.3,MacIntel,62.11180124,,,,,,,,,,,,2367.3256,7.0,2367.3258,,,,2370.2754,2370.7747,2369.7587,2370.2752,2368.3421,111.0,2369.7586,2370.7748,2371.2747,2371.2748,2373.1414,1423.2,2373.1417,3.0,2374.1415,7.0,25.0,235.0,3.0,1.0,1.4,0.3,Time
,,S01,002046,1,Female,32,anonymized,Serial_Dependence_U,2023.2.3,MacIntel,62.11180124,,,,,,,,,,,,2374.1422,7.0,2374.1424,,,,2377.092,2377.5913,2376.5752,2377.0919,2375.1586,119.0,2376.5751,2377.5914,2378.0914,2378.0914,2379.8418,1456.4,2379.842,3.0,2380.8414,7.0,26.0,236.0,23.0,1.0,1.4,0.3,Time
,,S01,002046,1,Female,32,anonymized,Serial_Dependence_U,2023.2.3,MacIntel,62.11180124,,,,,,,,,,,,2380.842,7.0,2380.8422,,,,2383.192,2383.6913,2382.6753,2383.1918,2381.8585,277.0,2382.6752,2383.6913,2384.1912,2384.1914,2385.3749,1001.0,2385.3752,4.0,2386.3746,7.0,27.0,237.0,10.0,1.0,0.8,0.3,Time
,,S01,002046,1,Female,32,anonymized,Serial_Dependence_U,2023.2.3,MacIntel,62.11180124,,,,,,,,,,,,2386.3752,7.0,2386.3755,,,,2389.5251,2390.0245,2389.0084,2389.5251,2387.3919,19.0,2389.0084,2390.0246,2390.5245,2390.5246,2391.9748,1140.5,2391.9751,2.0,2392.9745,7.0,28.0,238.0,24.0,1.0,1.6,0.3,Time
,,S01,002046,1,Female,32,anonymized,Serial_Dependence_U,2023.2.3,MacIntel,62.11180124,,,,,,,,,,,,2392.9752,7.0,2392.9755,,,,2395.325,2395.8245,2394.8085,2395.3249,2393.9918,140.0,2394.8084,2395.8245,2396.3245,2396.3245,2397.7081,1049.4,2397.7084,5.0,2398.7078,7.0,29.0,239.0,15.0,1.0,0.8,0.7,Time
,,S01,002046,1,Female,32,anonymized,Serial_Dependence_U,2023.2.3,MacIntel,62.11180124,,,,,,,,,,,,2398.7084,8.0,2401.2746,s,2.5381,,2404.4249,2404.9243,2403.9083,2404.4248,2402.2917,268.0,2403.9081,2404.9244,2405.4244,2405.4244,2406.7247,828.5,2406.7249,1.0,2407.7243,8.0,0.0,240.0,14.0,1.0,1.6,0.3,Time
,,S01,002046,1,Female,32,anonymized,Serial_Dependence_U,2023.2.3,MacIntel,62.11180124,,,,,,,,,,,,2407.725,8.0,2407.7267,,,,2410.8748,2411.3743,2410.3582,2410.8746,2408.7415,140.0,2410.358,2411.3744,2411.8743,2411.8743,2413.3412,1107.5,2413.3416,1.0,2414.3409,8.0,1.0,241.0,19.0,1.0,1.6,0.7,Time
,,S01,002046,1,Female,32,anonymized,Serial_Dependence_U,2023.2.3,MacIntel,62.11180124,,,,,,,,,,,,2414.3416,8.0,2414.3418,,,,2416.8914,2417.3908,2416.3749,2416.8913,2415.3581,264.0,2416.3747,2417.3909,2417.8908,2417.8909,2419.1411,1056.9,2419.1414,4.0,2420.1409,8.0,2.0,242.0,1.0,1.0,1.0,0.3,Time
,,S01,002046,1,Female,32,anonymized,Serial_Dependence_U,2023.2.3,MacIntel,62.11180124,,,,,,,,,,,,2420.1416,8.0,2420.1418,,,,2423.0914,2423.5908,2422.5746,2423.0913,2421.1581,247.0,2422.5745,2423.5908,2424.0907,2424.0909,2425.6744,1231.4,2425.6747,2.0,2426.6741,8.0,3.0,243.0,3.0,1.0,1.4,0.3,Time
,,S01,002046,1,Female,32,anonymized,Serial_Dependence_U,2023.2.3,MacIntel,62.11180124,,,,,,,,,,,,2426.6748,8.0,2426.6751,,,,2429.0246,2429.524,2428.5079,2429.0245,2427.6914,95.0,2428.5079,2429.5241,2430.0241,2430.0242,2431.4243,1006.1,2431.4246,4.0,2432.424,8.0,4.0,244.0,20.0,1.0,0.8,0.3,Time
,,S01,002046,1,Female,32,anonymized,Serial_Dependence_U,2023.2.3,MacIntel,62.11180124,,,,,,,,,,,,2432.4248,8.0,2432.4249,,,,2434.758,2435.2573,2434.2413,2434.7579,2433.4405,353.0,2434.2411,2435.2574,2435.7573,2435.7574,2437.1243,991.1,2437.1247,4.0,2438.1239,8.0,5.0,245.0,5.0,1.0,0.8,0.7,Time
,,S01,002046,1,Female,32,anonymized,Serial_Dependence_U,2023.2.3,MacIntel,62.11180124,,,,,,,,,,,,2438.1246,8.0,2438.1249,,,,2440.6746,2441.1739,2440.1579,2440.6745,2439.1411,283.0,2440.1577,2441.1739,2441.6739,2441.6739,2443.391,1289.5,2443.3913,4.0,2444.3905,8.0,6.0,246.0,21.0,1.0,1.0,0.3,Time
,,S01,002046,1,Female,32,anonymized,Serial_Dependence_U,2023.2.3,MacIntel,62.11180124,,,,,,,,,,,,2444.3911,8.0,2444.3915,,,,2446.7401,2447.2404,2446.2244,2446.74,2445.4077,11.0,2446.2242,2447.2405,2447.7405,2447.7405,2449.7241,1297.8,2449.7244,5.0,2450.7238,8.0,7.0,247.0,10.0,1.0,0.8,0.3,Time
,,S01,002046,1,Female,32,anonymized,Serial_Dependence_U,2023.2.3,MacIntel,62.11180124,,,,,,,,,,,,2450.7245,8.0,2450.7247,,,,2453.8743,2454.3738,2453.3577,2453.8742,2451.7411,325.0,2453.3575,2454.3738,2454.8737,2454.8738,2456.5573,1313.0,2456.5576,2.0,2457.5567,8.0,8.0,248.0,24.0,1.0,1.6,0.3,Time
,,S01,002046,1,Female,32,anonymized,Serial_Dependence_U,2023.2.3,MacIntel,62.11180124,,,,,,,,,,,,2457.5569,8.0,2457.5569,,,,2460.3075,2460.807,2459.7909,2460.3074,2458.5743,257.0,2459.7909,2460.8071,2461.307,2461.3071,2461.3567,7.599999964,2461.3568,1.0,2462.3561,8.0,9.0,249.0,7.0,1.0,1.2,0.7,Time
,,S01,002046,1,Female,32,anonymized,Serial_Dependence_U,2023.2.3,MacIntel,62.11180124,,,,,,,,,,,,2462.3566,8.0,2462.3569,,,,2465.3076,2465.8069,2464.7908,2465.3075,2463.3742,245.0,2464.7906,2465.8069,2466.3069,2466.3071,2467.8742,1217.5,2467.8744,2.0,2468.8736,8.0,10.0,250.0,28.0,1.0,1.4,0.7,Time
,,S01,002046,1,Female,32,anonymized,Serial_Dependence_U,2023.2.3,MacIntel,62.11180124,,,,,,,,,,,,2468.8742,8.0,2468.8745,,,,2471.8241,2472.3235,2471.3074,2471.824,2469.8909,16.0,2471.3073,2472.3236,2472.8235,2472.8235,2474.4572,1275.1,2474.4574,2.0,2475.4568,8.0,11.0,251.0,18.0,1.0,1.4,0.7,Time
,,S01,002046,1,Female,32,anonymized,Serial_Dependence_U,2023.2.3,MacIntel,62.11180124,,,,,,,,,,,,2475.4574,8.0,2475.4577,,,,2477.8074,2478.3068,2477.2907,2477.8073,2476.4741,286.0,2477.2906,2478.3068,2478.8068,2478.8069,2480.0904,976.0,2480.0907,4.0,2481.0901,8.0,12.0,252.0,15.0,1.0,0.8,0.7,Time
,,S01,002046,1,Female,32,anonymized,Serial_Dependence_U,2023.2.3,MacIntel,62.11180124,,,,,,,,,,,,2481.0907,8.0,2481.091,,,,2483.8407,2484.3401,2483.3239,2483.8405,2482.1071,257.0,2483.3238,2484.3401,2484.84,2484.8401,2486.3903,1267.7,2486.3907,4.0,2487.39,8.0,13.0,253.0,27.0,1.0,1.2,0.7,Time
,,S01,002046,1,Female,32,anonymized,Serial_Dependence_U,2023.2.3,MacIntel,62.11180124,,,,,,,,,,,,2487.3907,8.0,2487.3908,,,,2490.1406,2490.6399,2489.6236,2490.1405,2488.4072,142.0,2489.6236,2490.6399,2491.1399,2491.14,2492.757,1463.5,2492.7573,4.0,2493.7566,8.0,14.0,254.0,17.0,1.0,1.2,0.7,Time
,,S01,002046,1,Female,32,anonymized,Serial_Dependence_U,2023.2.3,MacIntel,62.11180124,,,,,,,,,,,,2493.7573,8.0,2493.7576,,,,2496.9072,2497.4065,2496.3905,2496.9071,2494.7738,72.0,2496.3904,2497.4066,2497.9066,2497.9066,2499.7735,1481.9,2499.7738,2.0,2500.7732,8.0,15.0,255.0,9.0,1.0,1.6,0.7,Time
,,S01,002046,1,Female,32,anonymized,Serial_Dependence_U,2023.2.3,MacIntel,62.11180124,,,,,,,,,,,,2500.7739,8.0,2500.7741,,,,2503.1237,2503.6231,2502.607,2503.1237,2501.7905,292.0,2502.607,2503.6231,2504.1231,2504.1232,2505.9569,1466.4,2505.9572,5.0,2506.9564,8.0,16.0,256.0,0.0,1.0,0.8,0.3,Time
,,S01,002046,1,Female,32,anonymized,Serial_Dependence_U,2023.2.3,MacIntel,62.11180124,,,,,,,,,,,,2506.9571,8.0,2506.9575,,,,2510.1069,2510.6063,2509.5903,2510.1069,2507.9737,105.0,2509.5902,2510.6063,2511.1063,2511.1064,2512.89,1440.2,2512.8903,2.0,2513.8897,8.0,17.0,257.0,29.0,1.0,1.6,0.7,Time
,,S01,002046,1,Female,32,anonymized,Serial_Dependence_U,2023.2.3,MacIntel,62.11180124,,,,,,,,,,,,2513.8904,8.0,2513.8905,,,,2516.6402,2517.1396,2516.1235,2516.6401,2514.9069,93.0,2516.1234,2517.1397,2517.6397,2517.6397,2519.3899,1367.2,2519.3903,4.0,2520.3896,8.0,18.0,258.0,22.0,1.0,1.2,0.3,Time
,,S01,002046,1,Female,32,anonymized,Serial_Dependence_U,2023.2.3,MacIntel,62.11180124,,,,,,,,,,,,2520.3903,8.0,2520.3905,,,,2522.9401,2523.4396,2522.4234,2522.94,2521.4069,175.0,2522.4232,2523.4396,2523.9396,2523.9396,2525.7565,1307.9,2525.7568,5.0,2526.7561,8.0,19.0,259.0,26.0,1.0,1.0,0.7,Time
,,S01,002046,1,Female,32,anonymized,Serial_Dependence_U,2023.2.3,MacIntel,62.11180124,,,,,,,,,,,,2526.7568,8.0,2526.7571,,,,2529.7067,2530.2062,2529.19,2529.7066,2527.7736,115.0,2529.1899,2530.2062,2530.7061,2530.7062,2532.3232,1352.7,2532.3234,3.0,2533.3227,8.0,20.0,260.0,23.0,1.0,1.4,0.3,Time
,,S01,002046,1,Female,32,anonymized,Serial_Dependence_U,2023.2.3,MacIntel,62.11180124,,,,,,,,,,,,2533.3234,8.0,2533.3236,,,,2536.0734,2536.5728,2535.5567,2536.0732,2534.3401,358.0,2535.5565,2536.5728,2537.0727,2537.0728,2538.823,1260.2,2538.8232,4.0,2539.8227,8.0,21.0,261.0,12.0,1.0,1.2,0.3,Time
,,S01,002046,1,Female,32,anonymized,Serial_Dependence_U,2023.2.3,MacIntel,62.11180124,,,,,,,,,,,,2539.8234,8.0,2539.8236,,,,2542.1566,2542.656,2541.6557,2542.1564,2540.8399,111.0,2541.6555,2542.6561,2543.156,2543.1561,2544.8563,1336.8,2544.8565,5.0,2545.8559,8.0,22.0,262.0,25.0,1.0,0.8,0.7,Time
,,S01,002046,1,Female,32,anonymized,Serial_Dependence_U,2023.2.3,MacIntel,62.11180124,,,,,,,,,,,,2545.8567,8.0,2545.8569,,,,2548.4064,2548.9058,2547.8898,2548.4063,2546.8732,122.0,2547.8897,2548.9059,2549.4059,2549.406,2551.0229,1180.6,2551.0232,4.0,2552.0225,8.0,23.0,263.0,16.0,1.0,1.0,0.7,Time
,,S01,002046,1,Female,32,anonymized,Serial_Dependence_U,2023.2.3,MacIntel,62.11180124,,,,,,,,,,,,2552.0232,8.0,2552.0235,,,,2555.1732,2555.6725,2554.6565,2555.1729,2553.0399,357.0,2554.6563,2555.6725,2556.1725,2556.1725,2557.5563,1055.6,2557.5565,1.0,2558.5558,8.0,24.0,264.0,4.0,1.0,1.6,0.3,Time
,,S01,002046,1,Female,32,anonymized,Serial_Dependence_U,2023.2.3,MacIntel,62.11180124,,,,,,,,,,,,2558.5564,8.0,2558.5567,,,,2561.0896,2561.589,2560.573,2561.0895,2559.5563,296.0,2560.5729,2561.5891,2562.0891,2562.0892,2563.9062,1463.0,2563.9064,5.0,2564.9049,8.0,25.0,265.0,11.0,1.0,1.0,0.3,Time
,,S01,002046,1,Female,32,anonymized,Serial_Dependence_U,2023.2.3,MacIntel,62.11180124,,,,,,,,,,,,2564.9054,8.0,2564.9057,,,,2567.8562,2568.3556,2567.3395,2567.8561,2565.923,333.0,2567.3394,2568.3557,2568.8557,2568.8558,2570.3227,1107.9,2570.323,2.0,2571.3223,8.0,26.0,266.0,13.0,1.0,1.4,0.3,Time
,,S01,002046,1,Female,32,anonymized,Serial_Dependence_U,2023.2.3,MacIntel,62.11180124,,,,,,,,,,,,2571.3229,8.0,2571.3231,,,,2573.8728,2574.3722,2573.3562,2573.8726,2572.3395,107.0,2573.3559,2574.3722,2574.8723,2574.8724,2576.5558,1257.6,2576.5561,4.0,2577.5555,8.0,27.0,267.0,6.0,1.0,1.0,0.7,Time
,,S01,002046,1,Female,32,anonymized,Serial_Dependence_U,2023.2.3,MacIntel,62.11180124,,,,,,,,,,,,2577.5562,8.0,2577.5565,,,,2580.3061,2580.8055,2579.7894,2580.306,2578.5729,352.0,2579.7892,2580.8055,2581.3055,2581.3055,2582.8895,1160.7,2582.8899,3.0,2583.8889,8.0,28.0,268.0,2.0,1.0,1.2,0.3,Time
,,S01,002046,1,Female,32,anonymized,Serial_Dependence_U,2023.2.3,MacIntel,62.11180124,,,,,,,,,,,,2583.8895,8.0,2583.8897,,,,2586.8393,2587.3387,2586.3219,2586.8392,2584.9061,45.0,2586.3218,2587.3388,2587.8387,2587.8388,2589.4224,1238.1,2589.4226,2.0,2590.422,8.0,29.0,269.0,8.0,1.0,1.4,0.7,Time
