Scale_setup.started,Scale_setup.stopped,participant,session,sex,age,date,expName,psychopyVersion,OS,frameRate,Intro.started,Intro.stopped,key_resp_2.keys,key_resp_2.rt,key_resp_2.duration,block.started,direction,Block_id,block.stopped,trial_direction,Block_resp_2.keys,Block_resp_2.rt,Block_resp_2.duration,ITI.started,ITI.stopped,Mask_2.started,Mask_2.stopped,encoding.started,encoding.stopped,Cue.started,Cue.stopped,Response.started,Response.stopped,keyDuration,Feedback_Time.started,FeedbackID_T,Feedback_Time.stopped,trials.thisRepN,trials.thisTrialN,trials.thisN,trials.thisIndex,trials.ran,TimeDur,Coherence1,TrialType
0.0001000000000317,0.0003000000000383,S02,1,女,21,anonymized,Serial_Dependence_U,2023.2.3,Win32,60.240963855400565,,,,,,,,,,,,,,,,,,,,,,,,,,,,,,,,,,,
,,S02,1,女,21,anonymized,Serial_Dependence_U,2023.2.3,Win32,60.240963855400565,7.867800000000045,34.528300000000016,space,26.64199999999998,,,,,,,,,,,,,,,,,,,,,,,,,,,,,,,
,,S02,1,女,21,anonymized,Serial_Dependence_U,2023.2.3,Win32,60.240963855400565,,,,,,34.5322,198.0,0.0,42.58930000000005,198.0,s,8.039400000000057,,46.37980000000006,46.87580000000004,45.86410000000002,46.37950000000002,43.60080000000006,45.86410000000002,46.875900000000016,47.37700000000002,47.37720000000003,95.49090000000002,2300.0,95.49110000000005,5.0,96.48780000000006,0.0,0.0,0.0,22.0,1.0,1.2,0.3,Time
,,S02,1,女,21,anonymized,Serial_Dependence_U,2023.2.3,Win32,60.240963855400565,,,,,,96.48830000000004,109.0,0.0,96.49020000000004,109.0,,,,100.46049999999998,100.95890000000004,99.94530000000005,100.4604,97.50220000000004,99.94530000000005,100.95900000000002,101.4575,101.4575,106.19460000000004,2120.0,106.19470000000004,5.0,107.19190000000005,0.0,1.0,1.0,18.0,1.0,1.4,0.7,Time
,,S02,1,女,21,anonymized,Serial_Dependence_U,2023.2.3,Win32,60.240963855400565,,,,,,107.19240000000003,162.0,0.0,107.1925,162.0,,,,111.3972,111.89580000000002,110.88220000000004,111.39710000000004,108.2061,110.88210000000004,111.89580000000002,112.39430000000006,112.39440000000003,116.9486,3922.0,116.94899999999996,5.0,117.94580000000003,0.0,2.0,2.0,4.0,1.0,1.6,0.3,Time
,,S02,1,女,21,anonymized,Serial_Dependence_U,2023.2.3,Win32,60.240963855400565,,,,,,117.94610000000002,71.0,0.0,117.9462,71.0,,,,121.91839999999998,122.41749999999998,121.4034,121.9183,118.96030000000005,121.4034,122.4176,122.91549999999997,122.91549999999997,223.9564,1473.0,223.95649999999995,4.0,224.9542,0.0,3.0,3.0,8.0,1.0,1.4,0.7,Time
,,S02,1,女,21,anonymized,Serial_Dependence_U,2023.2.3,Win32,60.240963855400565,,,,,,224.9544,118.0,0.0,224.95449999999997,118.0,,,,228.72709999999995,229.2253,228.21180000000004,228.7269,225.968,228.21180000000004,229.2254,229.7241,229.7241,239.797,1395.0,239.797,4.0,240.794,0.0,4.0,4.0,17.0,1.0,1.2,0.7,Time
,,S02,1,女,21,anonymized,Serial_Dependence_U,2023.2.3,Win32,60.240963855400565,,,,,,240.7943,80.0,0.0,240.7945,80.0,,,,244.99949999999995,245.49759999999992,244.48420000000004,244.9994,241.8081,244.4841,245.49759999999992,245.99670000000003,245.99670000000003,249.4202,2710.0,249.4203,5.0,250.4175,0.0,5.0,5.0,14.0,1.0,1.6,0.3,Time
,,S02,1,女,21,anonymized,Serial_Dependence_U,2023.2.3,Win32,60.240963855400565,,,,,,250.4177,251.0,0.0,250.4179,251.0,,,,254.59,255.08820000000003,254.07449999999997,254.58980000000005,251.4318,254.07449999999997,255.08820000000003,255.587,255.587,257.7642,1852.0,257.7642,4.0,258.7615,0.0,6.0,6.0,29.0,1.0,1.6,0.7,Time
,,S02,1,女,21,anonymized,Serial_Dependence_U,2023.2.3,Win32,60.240963855400565,,,,,,258.7619,85.0,0.0,258.76199999999994,85.0,,,,262.1524,262.6509,261.63720000000006,262.1524,259.77559999999994,261.6370999999999,262.6509,263.1498,263.1498,332.0116,1628.0,332.0117,5.0,333.0093,0.0,7.0,7.0,10.0,1.0,0.8,0.3,Time
,,S02,1,女,21,anonymized,Serial_Dependence_U,2023.2.3,Win32,60.240963855400565,,,,,,333.00949999999995,317.0,0.0,333.0095999999999,317.0,,,,336.38359999999994,336.8819,335.86830000000003,336.38320000000004,334.0233,335.86830000000003,336.8819,337.38030000000003,337.38030000000003,340.8043,3042.0,340.8043,5.0,341.8014,0.0,8.0,8.0,15.0,1.0,0.8,0.7,Time
,,S02,1,女,21,anonymized,Serial_Dependence_U,2023.2.3,Win32,60.240963855400565,,,,,,341.8018,214.0,0.0,341.8018,214.0,,,,345.3755,345.8735,344.86,345.3755,342.8159,344.8599,345.87359999999995,346.3722,346.3723,350.0959,3433.0,350.0959,5.0,351.0933,0.0,9.0,9.0,6.0,1.0,1.0,0.7,Time
,,S02,1,女,21,anonymized,Serial_Dependence_U,2023.2.3,Win32,60.240963855400565,,,,,,351.09349999999995,226.0,0.0,351.0935999999999,226.0,,,,355.2658,355.76359999999994,354.7499,355.2658,352.1073,354.7498,355.76359999999994,356.26230000000004,356.26230000000004,365.38720000000006,2394.0,365.38720000000006,5.0,366.3843,0.0,10.0,10.0,19.0,1.0,1.6,0.7,Time
,,S02,1,女,21,anonymized,Serial_Dependence_U,2023.2.3,Win32,60.240963855400565,,,,,,366.3845999999999,195.0,0.0,366.3847,195.0,,,,370.1578,370.656,369.6427000000001,370.1576,367.3987,369.6426,370.656,371.1547000000001,371.1548,373.9969,2364.0,373.9969,5.0,374.9941,0.0,11.0,11.0,27.0,1.0,1.2,0.7,Time
,,S02,1,女,21,anonymized,Serial_Dependence_U,2023.2.3,Win32,60.240963855400565,,,,,,374.9944,324.0,0.0,374.9945,324.0,,,,378.5848,379.0835,378.0699,378.5848,376.0084999999999,378.0699,379.0835,379.5823,379.5823,382.9231,2942.0,382.92320000000007,5.0,383.9199,0.0,12.0,12.0,11.0,1.0,1.0,0.3,Time
,,S02,1,女,21,anonymized,Serial_Dependence_U,2023.2.3,Win32,60.240963855400565,,,,,,383.92009999999993,146.0,0.0,383.9202,146.0,,,,387.9262,388.4247,387.4110999999999,387.9260999999999,384.9345,387.4110999999999,388.4247,388.9233,388.9233,392.0811,2760.0,392.0811,5.0,393.0786,0.0,13.0,13.0,23.0,1.0,1.4,0.3,Time
,,S02,1,女,21,anonymized,Serial_Dependence_U,2023.2.3,Win32,60.240963855400565,,,,,,393.0787,209.0,0.0,393.0789,209.0,,,,396.6524,397.1503,396.137,396.6522,394.0927,396.1369,397.1504,397.6495,397.6496,401.3058,3315.0,401.3058,5.0,402.3031,0.0,14.0,14.0,16.0,1.0,1.0,0.7,Time
,,S02,1,女,21,anonymized,Serial_Dependence_U,2023.2.3,Win32,60.240963855400565,,,,,,402.3034,163.0,0.0,402.3035,163.0,,,,406.1099,406.608,405.5948,406.1099,403.3174,405.5948,406.608,407.1068,407.1068,411.1957,3515.0,411.1958,5.0,412.1928,0.0,15.0,15.0,12.0,1.0,1.2,0.3,Time
,,S02,1,女,21,anonymized,Serial_Dependence_U,2023.2.3,Win32,60.240963855400565,,,,,,412.1933,311.0,0.0,412.1934,311.0,,,,415.96580000000006,416.4644,415.4505999999999,415.96580000000006,413.2074,415.4504999999999,416.46449999999993,416.9634,416.9635,421.2349,3982.0,421.2349,5.0,422.2322,0.0,16.0,16.0,7.0,1.0,1.2,0.7,Time
,,S02,1,女,21,anonymized,Serial_Dependence_U,2023.2.3,Win32,60.240963855400565,,,,,,422.2327,24.0,0.0,422.2329,24.0,,,,426.2380999999999,426.7366,425.7226,426.2379,423.246,425.7226,426.7366,427.23530000000005,427.23530000000005,430.7919999999999,3268.0,430.7920999999999,5.0,431.7895,0.0,17.0,17.0,3.0,1.0,1.4,0.3,Time
,,S02,1,女,21,anonymized,Serial_Dependence_U,2023.2.3,Win32,60.240963855400565,,,,,,431.7898,306.0,0.0,431.7899,306.0,,,,435.3801,435.8787,434.8643,435.3801,432.8035,434.8642,435.8787,436.3765,436.3765,440.1498,3274.0,440.1499,5.0,441.14699999999993,0.0,18.0,18.0,1.0,1.0,1.0,0.3,Time
,,S02,1,女,21,anonymized,Serial_Dependence_U,2023.2.3,Win32,60.240963855400565,,,,,,441.1473,71.0,0.0,441.1474999999999,71.0,,,,445.3194,445.8181,444.8041,445.3194,442.1614,444.8039,445.8182000000001,446.3160999999999,446.3162,448.8428,2176.0,448.8429,5.0,449.8399999999999,0.0,19.0,19.0,9.0,1.0,1.6,0.7,Time
,,S02,1,女,21,anonymized,Serial_Dependence_U,2023.2.3,Win32,60.240963855400565,,,,,,449.8404000000001,219.0,0.0,449.8405,219.0,,,,453.414,453.91239999999993,452.8994,453.4139,450.8542,452.8994,453.91239999999993,454.4108,454.4108,458.0510999999999,3316.0,458.0512,5.0,459.0483,0.0,20.0,20.0,26.0,1.0,1.0,0.7,Time
,,S02,1,女,21,anonymized,Serial_Dependence_U,2023.2.3,Win32,60.240963855400565,,,,,,459.0488,132.0,0.0,459.0488,132.0,,,,462.6392000000001,463.137,462.1238,462.6392000000001,460.0622000000001,462.1237,463.1370999999999,463.6357,463.6357,466.7439,2789.0,466.7439,5.0,467.7413,0.0,21.0,21.0,21.0,1.0,1.0,0.3,Time
,,S02,1,女,21,anonymized,Serial_Dependence_U,2023.2.3,Win32,60.240963855400565,,,,,,467.7416,218.0,0.0,467.7417,218.0,,,,471.1324,471.6306,470.6173,471.1323,468.75520000000006,470.6172,471.6307000000001,472.1295,472.1296,474.7221,2296.0,474.7223,5.0,475.7195999999999,0.0,22.0,22.0,0.0,1.0,0.8,0.3,Time
,,S02,1,女,21,anonymized,Serial_Dependence_U,2023.2.3,Win32,60.240963855400565,,,,,,475.7198,136.0,0.0,475.7199,136.0,,,,479.7252000000001,480.2237,479.2099,479.7251,476.7334,479.2097,480.2238,480.7227,480.7227,484.4623,3457.0,484.4623,5.0,485.4597,0.0,23.0,23.0,13.0,1.0,1.4,0.3,Time
,,S02,1,女,21,anonymized,Serial_Dependence_U,2023.2.3,Win32,60.240963855400565,,,,,,485.4599,345.0,0.0,485.4599999999999,345.0,,,,488.8337,489.33220000000006,488.3185,488.8337,486.4738,488.3184,489.33220000000006,489.8307000000001,489.8307000000001,492.7228,2664.0,492.7229,5.0,493.7206,0.0,24.0,24.0,25.0,1.0,0.8,0.7,Time
,,S02,1,女,21,anonymized,Serial_Dependence_U,2023.2.3,Win32,60.240963855400565,,,,,,493.72080000000005,20.0,0.0,493.72080000000005,20.0,,,,497.51020000000005,498.0083,496.9949,497.51020000000005,494.7340999999999,496.9949,498.0083,498.5075,498.5075,501.5826,2832.0,501.5826,5.0,502.5794,0.0,25.0,25.0,2.0,1.0,1.2,0.3,Time
,,S02,1,女,21,anonymized,Serial_Dependence_U,2023.2.3,Win32,60.240963855400565,,,,,,502.5797,215.0,0.0,502.5798,215.0,,,,505.9706,506.4687,505.4552,505.9706,503.5934,505.4552,506.4687,506.9676,506.9676,509.6104,2411.0,509.6104,5.0,510.6077,0.0,26.0,26.0,20.0,1.0,0.8,0.3,Time
,,S02,1,女,21,anonymized,Serial_Dependence_U,2023.2.3,Win32,60.240963855400565,,,,,,510.6079,23.0,0.0,510.608,23.0,,,,514.5802,515.0787,514.0649,514.5800999999999,511.6217,514.0649,515.0787,515.5775,515.5775,519.1675,3307.0,519.1676,5.0,520.1647,0.0,27.0,27.0,28.0,1.0,1.4,0.7,Time
,,S02,1,女,21,anonymized,Serial_Dependence_U,2023.2.3,Win32,60.240963855400565,,,,,,520.165,107.0,0.0,520.165,107.0,,,,523.5391,524.0373999999999,523.0239,523.5391,521.1789,523.0239,524.0373999999999,524.5360999999999,524.5360999999999,527.5114,2683.0,527.5115,5.0,528.5084999999999,0.0,28.0,28.0,5.0,1.0,0.8,0.7,Time
,,S02,1,女,21,anonymized,Serial_Dependence_U,2023.2.3,Win32,60.240963855400565,,,,,,528.5088000000001,46.0,0.0,528.5089,46.0,,,,532.7152,533.2125,532.1989,532.7149,529.5227,532.1988,533.2125,533.7114,533.7115,537.1519999999999,3221.0,537.1519999999999,5.0,538.1488,0.0,29.0,29.0,24.0,1.0,1.6,0.3,Time
,,S02,1,女,21,anonymized,Serial_Dependence_U,2023.2.3,Win32,60.240963855400565,,,,,,538.1491,258.0,1.0,602.2411,258.0,s,64.07209999999998,,606.23,606.7287,605.7150999999999,606.23,603.2546,605.7149999999999,606.7287,607.2272,607.2272,611.2333,3599.0,611.2333,5.0,611.2334999999999,1.0,0.0,30.0,3.0,1.0,1.4,0.3,Time
,,S02,1,女,21,anonymized,Serial_Dependence_U,2023.2.3,Win32,60.240963855400565,,,,,,611.2337,123.0,1.0,611.2349,123.0,,,,614.8072000000001,615.3053,614.2915999999999,614.8072000000001,612.2468,614.2910999999999,615.3053,615.804,615.8041,630.0479,3043.0,630.0479,5.0,630.0481,1.0,1.0,31.0,16.0,1.0,1.0,0.7,Time
,,S02,1,女,21,anonymized,Serial_Dependence_U,2023.2.3,Win32,60.240963855400565,,,,,,630.0485,292.0,1.0,630.0486,292.0,,,,633.8551,634.3534999999999,633.3395999999999,633.8551,631.063,633.3395999999999,634.3535999999999,634.8516,634.8516,637.9599,2771.0,637.9599,5.0,637.9603,1.0,2.0,32.0,2.0,1.0,1.2,0.3,Time
,,S02,1,女,21,anonymized,Serial_Dependence_U,2023.2.3,Win32,60.240963855400565,,,,,,637.9606,71.0,1.0,637.9607000000001,71.0,,,,641.9655,642.4642,641.4505999999999,641.9655,638.9739999999999,641.4504999999999,642.4642,642.9630999999999,642.9630999999999,646.9687,3682.0,646.9688,5.0,646.9689999999999,1.0,3.0,33.0,23.0,1.0,1.4,0.3,Time
,,S02,1,女,21,anonymized,Serial_Dependence_U,2023.2.3,Win32,60.240963855400565,,,,,,646.9693,134.0,1.0,646.9694,134.0,,,,650.5592999999999,651.0575000000001,650.0440000000001,650.5592,647.9827999999999,650.0439,651.0576,651.5562,651.5562,654.6315999999999,2791.0,654.6319,5.0,654.6320999999999,1.0,4.0,34.0,21.0,1.0,1.0,0.3,Time
,,S02,1,女,21,anonymized,Serial_Dependence_U,2023.2.3,Win32,60.240963855400565,,,,,,654.6322999999999,22.0,1.0,654.6324,22.0,,,,658.8032000000001,659.3017,658.2882000000001,658.8032000000001,655.6452,658.2881,659.3017,659.8005999999999,659.8005999999999,663.3072999999999,3193.0,663.3072999999999,5.0,663.3075000000001,1.0,5.0,35.0,19.0,1.0,1.6,0.7,Time
,,S02,1,女,21,anonymized,Serial_Dependence_U,2023.2.3,Win32,60.240963855400565,,,,,,663.3077999999999,96.0,1.0,663.3079,96.0,,,,667.0977,667.5957000000001,666.5822999999999,667.0975999999999,664.3215000000001,666.5822000000001,667.5957999999999,668.0942999999999,668.0942999999999,671.7842999999999,3228.0,671.7842999999999,5.0,671.7844,1.0,6.0,36.0,22.0,1.0,1.2,0.3,Time
,,S02,1,女,21,anonymized,Serial_Dependence_U,2023.2.3,Win32,60.240963855400565,,,,,,671.7846,86.0,1.0,671.7846,86.0,,,,675.9905000000001,676.4882,675.4742999999999,675.9905000000001,672.7984,675.4742999999999,676.4882,676.9870000000001,676.9870000000001,677.7512,456.0,677.7512,1.0,677.7515000000001,1.0,7.0,37.0,14.0,1.0,1.6,0.3,Time
,,S02,1,女,21,anonymized,Serial_Dependence_U,2023.2.3,Win32,60.240963855400565,,,,,,677.7517,12.0,1.0,677.7519,12.0,,,,681.1422999999999,681.6405000000001,680.6274,681.1422999999999,678.7655000000001,680.6274,681.6405000000001,682.1395000000001,682.1395000000001,685.1647999999999,2726.0,685.1649,5.0,685.1650000000001,1.0,8.0,38.0,0.0,1.0,0.8,0.3,Time
,,S02,1,女,21,anonymized,Serial_Dependence_U,2023.2.3,Win32,60.240963855400565,,,,,,685.1652,261.0,1.0,685.1652,261.0,,,,688.738,689.2367999999999,688.2227,688.738,686.1784,688.2227,689.2367999999999,689.7355000000001,689.7355000000001,692.6440000000001,2587.0,692.6440000000001,5.0,692.6442000000001,1.0,9.0,39.0,6.0,1.0,1.0,0.7,Time
,,S02,1,女,21,anonymized,Serial_Dependence_U,2023.2.3,Win32,60.240963855400565,,,,,,692.6446,158.0,1.0,692.6446,158.0,,,,696.6497999999999,697.1484,696.1347000000001,696.6497,693.6581,696.1346,697.1485000000001,697.6470999999999,697.6470999999999,701.2541,3309.0,701.2541,5.0,701.2543,1.0,10.0,40.0,13.0,1.0,1.4,0.3,Time
,,S02,1,女,21,anonymized,Serial_Dependence_U,2023.2.3,Win32,60.240963855400565,,,,,,701.2544,189.0,1.0,701.2545000000001,189.0,,,,705.2265000000001,705.7247999999998,704.7112999999999,705.2265000000001,702.2682000000001,704.7112000000001,705.7247999999998,706.2239,706.2239,710.1460999999999,3567.0,710.1460999999999,5.0,710.1462999999999,1.0,11.0,41.0,28.0,1.0,1.4,0.7,Time
,,S02,1,女,21,anonymized,Serial_Dependence_U,2023.2.3,Win32,60.240963855400565,,,,,,710.1465999999999,201.0,1.0,710.1467,201.0,,,,713.9192999999999,714.4179,713.4042999999999,713.9192,711.1600000000001,713.4041,714.4180000000001,714.9165,714.9165999999999,718.8724,3697.0,718.8724,5.0,718.8727,1.0,12.0,42.0,17.0,1.0,1.2,0.7,Time
,,S02,1,女,21,anonymized,Serial_Dependence_U,2023.2.3,Win32,60.240963855400565,,,,,,718.8729,31.0,1.0,718.8730999999999,31.0,,,,722.4629,722.9610000000001,721.9475000000001,722.4627999999999,719.8867,721.9475000000001,722.9611,723.4597,723.4597,726.4859,2685.0,726.4861,5.0,726.4874,1.0,13.0,43.0,1.0,1.0,1.0,0.3,Time
,,S02,1,女,21,anonymized,Serial_Dependence_U,2023.2.3,Win32,60.240963855400565,,,,,,726.4877,1.0,1.0,726.4877999999999,1.0,,,,730.6902999999999,731.1889,730.1755,730.6902999999999,727.4987999999998,730.1752999999999,731.1889,731.6872000000001,731.6872999999999,735.7931,3740.0,735.7931,5.0,735.7932999999999,1.0,14.0,44.0,24.0,1.0,1.6,0.3,Time
,,S02,1,女,21,anonymized,Serial_Dependence_U,2023.2.3,Win32,60.240963855400565,,,,,,735.7935000000001,154.0,1.0,735.7936,154.0,,,,739.7656,740.2642000000001,739.2505000000001,739.7655000000001,736.8090000000001,739.2504,740.2642000000001,740.7624,740.7625,744.7185000000001,3660.0,744.7185999999999,5.0,744.7187999999999,1.0,15.0,45.0,8.0,1.0,1.4,0.7,Time
,,S02,1,女,21,anonymized,Serial_Dependence_U,2023.2.3,Win32,60.240963855400565,,,,,,744.719,344.0,1.0,744.7190999999999,344.0,,,,748.0926,748.5911,747.5774,748.0926,745.7324,747.5774,748.5911,749.0902999999998,749.0902999999998,752.2479,2942.0,752.2479,5.0,752.2482,1.0,16.0,46.0,5.0,1.0,0.8,0.7,Time
,,S02,1,女,21,anonymized,Serial_Dependence_U,2023.2.3,Win32,60.240963855400565,,,,,,752.2484,80.0,1.0,752.2484,80.0,,,,755.6397000000001,756.1375999999999,755.1235999999999,755.6397000000001,753.2627,755.1235,756.1375999999999,756.6356,756.6357,760.1097000000001,3158.0,760.1098,5.0,760.1100000000001,1.0,17.0,47.0,10.0,1.0,0.8,0.3,Time
,,S02,1,女,21,anonymized,Serial_Dependence_U,2023.2.3,Win32,60.240963855400565,,,,,,760.1101,26.0,1.0,760.1102000000001,26.0,,,,763.8832999999998,764.3815000000001,763.3679,763.8832,761.1238999999999,763.3679,764.3815000000001,764.8800000000001,764.8800000000001,768.5536,3367.0,768.5536,5.0,768.5537,1.0,18.0,48.0,27.0,1.0,1.2,0.7,Time
,,S02,1,女,21,anonymized,Serial_Dependence_U,2023.2.3,Win32,60.240963855400565,,,,,,768.5541,95.0,1.0,768.5541,95.0,,,,772.3105999999999,772.8127000000001,771.7992,772.3105,769.5674,771.7992,772.8127000000001,773.3089,773.3090000000001,777.0686,3441.0,777.0686,5.0,777.0687999999999,1.0,19.0,49.0,7.0,1.0,1.2,0.7,Time
,,S02,1,女,21,anonymized,Serial_Dependence_U,2023.2.3,Win32,60.240963855400565,,,,,,777.0690000000001,24.0,1.0,777.0690999999999,24.0,,,,781.2072000000001,781.7049,780.7044,781.2072000000001,778.0657999999999,780.7044,781.7049,782.2039,782.2040000000001,786.0107999999999,3458.0,786.0109,5.0,786.0110000000001,1.0,20.0,50.0,9.0,1.0,1.6,0.7,Time
,,S02,1,女,21,anonymized,Serial_Dependence_U,2023.2.3,Win32,60.240963855400565,,,,,,786.0112999999999,34.0,1.0,786.0112999999999,34.0,,,,790.1977,790.6971,789.6839,790.1977,787.0207,789.6837999999999,790.6972000000001,791.1921,791.1922999999999,794.9532,3458.0,794.9532,5.0,794.9534,1.0,21.0,51.0,4.0,1.0,1.6,0.3,Time
,,S02,1,女,21,anonymized,Serial_Dependence_U,2023.2.3,Win32,60.240963855400565,,,,,,794.9537,132.0,1.0,794.9537,132.0,,,,798.7422999999999,799.2401,798.2272999999999,798.7422,795.9625000000001,798.2272,799.2401,799.7387999999999,799.7387999999999,803.1971,3092.0,803.1971,5.0,803.1972999999999,1.0,22.0,52.0,12.0,1.0,1.2,0.3,Time
,,S02,1,女,21,anonymized,Serial_Dependence_U,2023.2.3,Win32,60.240963855400565,,,,,,803.1975000000001,174.0,1.0,803.1975000000001,174.0,,,,806.5550000000001,807.0512,806.0397,806.5549,804.1947999999999,806.0396,807.0512,807.5502,807.5502999999999,811.2419,3401.0,811.2420000000001,5.0,811.2422,1.0,23.0,53.0,15.0,1.0,0.8,0.7,Time
,,S02,1,女,21,anonymized,Serial_Dependence_U,2023.2.3,Win32,60.240963855400565,,,,,,811.2424,241.0,1.0,811.2424,241.0,,,,814.6324,815.1302999999999,814.1177,814.6324,812.2520999999999,814.1177,815.1302999999999,815.6254,815.6254,824.5222999999999,3174.0,824.5222999999999,5.0,824.5224,1.0,24.0,54.0,20.0,1.0,0.8,0.3,Time
,,S02,1,女,21,anonymized,Serial_Dependence_U,2023.2.3,Win32,60.240963855400565,,,,,,824.5227,73.0,1.0,824.5227,73.0,,,,828.6774,829.1745000000001,828.1626,828.6774,825.5197999999999,828.1626,829.1745000000001,829.6745999999999,829.6745999999999,834.5952000000001,4571.0,834.5953,5.0,834.5953,1.0,25.0,55.0,29.0,1.0,1.6,0.7,Time
,,S02,1,女,21,anonymized,Serial_Dependence_U,2023.2.3,Win32,60.240963855400565,,,,,,834.5955000000001,269.0,1.0,834.5956,269.0,,,,838.1637000000001,838.6664,837.6527999999998,838.1636,835.6085999999999,837.6527999999998,838.6664,839.1652999999999,839.1652999999999,842.8389,3340.0,842.8389,5.0,842.8390999999999,1.0,26.0,56.0,26.0,1.0,1.0,0.7,Time
,,S02,1,女,21,anonymized,Serial_Dependence_U,2023.2.3,Win32,60.240963855400565,,,,,,842.8392999999999,311.0,1.0,842.8392999999999,311.0,,,,846.2097,846.7095,845.6985999999999,846.2095999999999,843.8527,845.6985000000001,846.7095,847.2085999999999,847.2085999999999,850.5350000000001,3058.0,850.5350000000001,5.0,850.5352999999999,1.0,27.0,57.0,25.0,1.0,0.8,0.7,Time
,,S02,1,女,21,anonymized,Serial_Dependence_U,2023.2.3,Win32,60.240963855400565,,,,,,850.5355000000001,214.0,1.0,850.5357,214.0,,,,854.4866,854.9875999999999,853.9710000000001,854.4865000000001,851.5319,853.9709,854.9875999999999,855.4875000000001,855.4875999999999,859.1734,3335.0,859.1735000000001,5.0,859.1740000000001,1.0,28.0,58.0,18.0,1.0,1.4,0.7,Time
,,S02,1,女,21,anonymized,Serial_Dependence_U,2023.2.3,Win32,60.240963855400565,,,,,,859.1742999999999,114.0,1.0,859.1745000000001,114.0,,,,862.7677999999999,863.2660000000001,862.2527,862.7677999999999,860.1747999999999,862.2527,863.2660000000001,863.7647999999999,863.7647999999999,866.9231,2870.0,866.9231,5.0,866.9232999999999,1.0,29.0,59.0,11.0,1.0,1.0,0.3,Time
,,S02,1,女,21,anonymized,Serial_Dependence_U,2023.2.3,Win32,60.240963855400565,,,,,,866.9234,102.0,2.0,954.6663,102.0,s,87.72699999999986,,958.2202000000002,958.7217,957.7087,958.2198999999998,955.6772,957.7086000000002,958.7217,959.2162,959.2162999999998,964.1412000000004,3540.0,964.1412000000004,5.0,964.1414,2.0,0.0,60.0,16.0,1.0,1.0,0.7,Time
,,S02,1,女,21,anonymized,Serial_Dependence_U,2023.2.3,Win32,60.240963855400565,,,,,,964.1415,288.0,2.0,964.1421,288.0,,,,967.9286,968.4244,967.4157000000002,967.9285,965.1548999999998,967.4156,968.4244,968.9272999999998,968.9272999999998,972.7345,3360.0,972.7345,5.0,972.7347000000002,2.0,1.0,61.0,22.0,1.0,1.2,0.3,Time
,,S02,1,女,21,anonymized,Serial_Dependence_U,2023.2.3,Win32,60.240963855400565,,,,,,972.7349,151.0,2.0,972.735,151.0,,,,976.1251,976.6232999999996,975.61,976.125,973.7478,975.61,976.6232999999996,977.1219,977.1219,979.9812999999996,2507.0,979.9814,5.0,979.9815,2.0,2.0,62.0,20.0,1.0,0.8,0.3,Time
,,S02,1,女,21,anonymized,Serial_Dependence_U,2023.2.3,Win32,60.240963855400565,,,,,,979.9817,325.0,2.0,979.9817,325.0,,,,983.3722000000002,983.8655,982.8687999999996,983.3722000000002,980.9949,982.8686,983.8655,984.3682,984.3682,987.7272999999998,2934.0,987.7272999999998,5.0,987.7275,2.0,3.0,63.0,10.0,1.0,0.8,0.3,Time
,,S02,1,女,21,anonymized,Serial_Dependence_U,2023.2.3,Win32,60.240963855400565,,,,,,987.728,241.0,2.0,987.7282000000002,241.0,,,,991.2837999999996,991.7776,990.7647999999996,991.2837999999996,988.7217,990.7647999999996,991.7776,992.2796,992.2797,995.9376,3291.0,995.9376,5.0,995.938,2.0,4.0,64.0,6.0,1.0,1.0,0.7,Time
,,S02,1,女,21,anonymized,Serial_Dependence_U,2023.2.3,Win32,60.240963855400565,,,,,,995.9381,258.0,2.0,995.9382,258.0,,,,999.5115,1000.0055,998.9959,999.5115,996.9512999999996,998.9959,1000.0055,1000.5085,1000.5085,1003.9492000000002,3108.0,1003.9492000000002,5.0,1003.9494,2.0,5.0,65.0,26.0,1.0,1.0,0.7,Time
,,S02,1,女,21,anonymized,Serial_Dependence_U,2023.2.3,Win32,60.240963855400565,,,,,,1003.9496,87.0,2.0,1003.9496,87.0,,,,1007.7021,1008.2025,1007.1904,1007.7017999999998,1004.959,1007.1904,1008.2025,1008.7022999999996,1008.7022999999996,1035.48,2510.0,1035.48,5.0,1035.4802000000002,2.0,6.0,66.0,17.0,1.0,1.2,0.7,Time
,,S02,1,女,21,anonymized,Serial_Dependence_U,2023.2.3,Win32,60.240963855400565,,,,,,1035.4804,228.0,2.0,1035.4805,228.0,,,,1039.2527000000002,1039.7514,1038.7357000000002,1039.2526,1036.489,1038.7357000000002,1039.7514,1040.2495,1040.2495,1044.1894,3618.0,1044.1894,5.0,1044.1896000000002,2.0,7.0,67.0,7.0,1.0,1.2,0.7,Time
,,S02,1,女,21,anonymized,Serial_Dependence_U,2023.2.3,Win32,60.240963855400565,,,,,,1044.1897,206.0,2.0,1044.1898,206.0,,,,1048.3952000000002,1048.8914,1047.8795,1048.3952000000002,1045.1994,1047.8793999999998,1048.8914,1049.3907000000002,1049.3907999999997,1050.1899,477.0,1050.19,1.0,1050.1902000000002,2.0,8.0,68.0,4.0,1.0,1.6,0.3,Time
,,S02,1,女,21,anonymized,Serial_Dependence_U,2023.2.3,Win32,60.240963855400565,,,,,,1050.1904,55.0,2.0,1050.1905,55.0,,,,1053.5632,1054.0578999999998,1053.0481,1053.5631,1051.2037000000005,1053.0481,1054.0578999999998,1054.5603999999998,1054.5603999999998,1058.1681,3225.0,1058.1681,5.0,1058.1682999999998,2.0,9.0,69.0,25.0,1.0,0.8,0.7,Time
,,S02,1,女,21,anonymized,Serial_Dependence_U,2023.2.3,Win32,60.240963855400565,,,,,,1058.1685,310.0,2.0,1058.1686,310.0,,,,1062.1573,1062.6547,1061.6547999999998,1062.1571,1059.1796000000002,1061.6547999999998,1062.6547999999998,1063.1493999999998,1063.1495,1068.2073999999998,3369.0,1068.2075,5.0,1068.2076,2.0,10.0,70.0,3.0,1.0,1.4,0.3,Time
,,S02,1,女,21,anonymized,Serial_Dependence_U,2023.2.3,Win32,60.240963855400565,,,,,,1068.2077000000002,135.0,2.0,1068.2079,135.0,,,,1072.3787999999995,1072.8777000000002,1071.8641,1072.3787000000002,1069.2171,1071.8641,1072.8777000000002,1073.3744,1073.3745,1077.7811000000002,3908.0,1077.7811000000002,5.0,1077.7812,2.0,11.0,71.0,19.0,1.0,1.6,0.7,Time
,,S02,1,女,21,anonymized,Serial_Dependence_U,2023.2.3,Win32,60.240963855400565,,,,,,1077.7813999999998,343.0,2.0,1077.7815,343.0,,,,1081.9701,1082.4661,1081.4671,1081.9701,1078.7941,1081.4671,1082.4662,1082.9662999999998,1082.9662999999998,1088.0533999999998,3807.0,1088.0535,5.0,1088.0535,2.0,12.0,72.0,14.0,1.0,1.6,0.3,Time
,,S02,1,女,21,anonymized,Serial_Dependence_U,2023.2.3,Win32,60.240963855400565,,,,,,1088.0537000000002,197.0,2.0,1088.0537000000002,197.0,,,,1091.4106000000002,1091.9042000000002,1090.895,1091.4106000000002,1089.0625,1090.8948999999998,1091.9042000000002,1092.4027999999998,1092.4027999999998,1095.4829,2695.0,1095.4829,5.0,1095.4831,2.0,13.0,73.0,5.0,1.0,0.8,0.7,Time
,,S02,1,女,21,anonymized,Serial_Dependence_U,2023.2.3,Win32,60.240963855400565,,,,,,1095.4833,296.0,2.0,1095.4833,296.0,,,,1099.469,1099.9692000000002,1098.9565,1099.469,1096.4921000000002,1098.9563999999998,1099.9692000000002,1100.4667999999997,1100.4667999999997,1101.2342999999998,450.0,1101.2342999999998,1.0,1101.2346,2.0,14.0,74.0,23.0,1.0,1.4,0.3,Time
,,S02,1,女,21,anonymized,Serial_Dependence_U,2023.2.3,Win32,60.240963855400565,,,,,,1101.2347999999995,288.0,2.0,1101.235,288.0,,,,1105.4055,1105.9036,1104.8905,1105.4055,1102.2477,1104.8903999999998,1105.9036,1106.4022000000002,1106.4022999999995,1110.5581,3779.0,1110.5581,5.0,1110.5582999999997,2.0,15.0,75.0,29.0,1.0,1.6,0.7,Time
,,S02,1,女,21,anonymized,Serial_Dependence_U,2023.2.3,Win32,60.240963855400565,,,,,,1110.5585,157.0,2.0,1110.5586,157.0,,,,1113.9494,1114.4457999999995,1113.4338999999998,1113.9492999999998,1111.572,1113.4337999999998,1114.4457999999995,1114.945,1114.945,1118.8855,3540.0,1118.8856,5.0,1118.8857,2.0,16.0,76.0,0.0,1.0,0.8,0.3,Time
,,S02,1,女,21,anonymized,Serial_Dependence_U,2023.2.3,Win32,60.240963855400565,,,,,,1118.8858999999998,70.0,2.0,1118.8858999999998,70.0,,,,1122.8413999999998,1123.3372000000002,1122.3262000000002,1122.8413999999998,1119.8831,1122.3262000000002,1123.3372000000002,1123.8367,1123.8367999999998,1127.562,3457.0,1127.562,5.0,1127.5622,2.0,17.0,77.0,28.0,1.0,1.4,0.7,Time
,,S02,1,女,21,anonymized,Serial_Dependence_U,2023.2.3,Win32,60.240963855400565,,,,,,1127.5623999999998,47.0,2.0,1127.5625,47.0,,,,1131.5342999999998,1132.0301,1131.0177,1131.5342999999998,1128.574,1131.0176,1132.0301,1132.5286,1132.5286,1136.0342,3101.0,1136.0342,5.0,1136.0343999999998,2.0,18.0,78.0,8.0,1.0,1.4,0.7,Time
,,S02,1,女,21,anonymized,Serial_Dependence_U,2023.2.3,Win32,60.240963855400565,,,,,,1136.0347000000002,148.0,2.0,1136.0349,148.0,,,,1140.0237000000002,1140.5261,1139.5117999999998,1140.0235,1137.0484,1139.5117000000002,1140.5261,1141.0242,1141.0242,1144.7602999999997,3430.0,1144.7604,5.0,1144.761,2.0,19.0,79.0,13.0,1.0,1.4,0.3,Time
,,S02,1,女,21,anonymized,Serial_Dependence_U,2023.2.3,Win32,60.240963855400565,,,,,,1144.7615,54.0,2.0,1144.7617000000002,54.0,,,,1148.7211,1149.2177999999997,1148.2181,1148.7211,1145.7794,1148.218,1149.2177999999997,1149.715,1149.715,1153.4577000000002,3501.0,1153.4577000000002,5.0,1153.458,2.0,20.0,80.0,18.0,1.0,1.4,0.7,Time
,,S02,1,女,21,anonymized,Serial_Dependence_U,2023.2.3,Win32,60.240963855400565,,,,,,1153.4582000000005,271.0,2.0,1153.4582000000005,271.0,,,,1156.8316,1157.3299,1156.3161,1156.8313999999998,1154.4671,1156.316,1157.3299,1157.8282999999997,1157.8282999999997,1161.004,2731.0,1161.004,5.0,1161.0041,2.0,21.0,81.0,15.0,1.0,0.8,0.7,Time
,,S02,1,女,21,anonymized,Serial_Dependence_U,2023.2.3,Win32,60.240963855400565,,,,,,1161.0042999999998,42.0,2.0,1161.0042999999998,42.0,,,,1164.7604,1165.257,1164.245,1164.7602999999997,1162.0136,1164.2449,1165.2572000000002,1165.7567,1165.7567,1169.5637999999997,3423.0,1169.5639,5.0,1169.5641,2.0,22.0,82.0,27.0,1.0,1.2,0.7,Time
,,S02,1,女,21,anonymized,Serial_Dependence_U,2023.2.3,Win32,60.240963855400565,,,,,,1169.5642999999998,245.0,2.0,1169.5642999999998,245.0,,,,1173.1522000000002,1173.6475,1172.6387999999995,1173.152,1170.5733999999998,1172.6387000000002,1173.6475,1174.1506000000002,1174.1506000000002,1177.7043,3120.0,1177.7043,5.0,1177.7044,2.0,23.0,83.0,21.0,1.0,1.0,0.3,Time
,,S02,1,女,21,anonymized,Serial_Dependence_U,2023.2.3,Win32,60.240963855400565,,,,,,1177.7047000000002,326.0,2.0,1177.705,326.0,,,,1181.4982000000002,1181.9947999999995,1180.9827000000002,1181.4978999999998,1178.718,1180.9825,1181.9949,1182.4953999999998,1182.4955,1186.4843999999998,3483.0,1186.4843999999998,5.0,1186.4847000000002,2.0,24.0,84.0,2.0,1.0,1.2,0.3,Time
,,S02,1,女,21,anonymized,Serial_Dependence_U,2023.2.3,Win32,60.240963855400565,,,,,,1186.4849,325.0,2.0,1186.485,325.0,,,,1190.6522999999995,1191.1536,1190.141,1190.6522999999995,1187.4985,1190.1409,1191.1536,1191.6532000000002,1191.6532000000002,1195.4432999999997,3435.0,1195.4434,5.0,1195.4435,2.0,25.0,85.0,9.0,1.0,1.6,0.7,Time
,,S02,1,女,21,anonymized,Serial_Dependence_U,2023.2.3,Win32,60.240963855400565,,,,,,1195.4436,36.0,2.0,1195.4437000000005,36.0,,,,1199.0333999999998,1199.5302999999997,1198.518,1199.0333999999998,1196.4527,1198.5178999999998,1199.5302999999997,1200.0286,1200.0286,1203.6542000000002,3141.0,1203.6542000000002,5.0,1203.6542999999997,2.0,26.0,86.0,1.0,1.0,1.0,0.3,Time
,,S02,1,女,21,anonymized,Serial_Dependence_U,2023.2.3,Win32,60.240963855400565,,,,,,1203.6545,17.0,2.0,1203.6546,17.0,,,,1207.2236,1207.7252999999998,1206.7126,1207.2235,1204.6518,1206.7124,1207.7252999999998,1208.2235,1208.2235,1211.799,3225.0,1211.799,5.0,1211.7991,2.0,27.0,87.0,11.0,1.0,1.0,0.3,Time
,,S02,1,女,21,anonymized,Serial_Dependence_U,2023.2.3,Win32,60.240963855400565,,,,,,1211.7992999999997,55.0,2.0,1211.7992999999997,55.0,,,,1215.9871,1216.4812000000002,1215.4722000000002,1215.9871,1212.808,1215.4718999999998,1216.4812999999997,1216.9826,1216.9827000000002,1221.5512,4194.0,1221.5513,5.0,1221.5513999999998,2.0,28.0,88.0,24.0,1.0,1.6,0.3,Time
,,S02,1,女,21,anonymized,Serial_Dependence_U,2023.2.3,Win32,60.240963855400565,,,,,,1221.5516,120.0,2.0,1221.5517000000002,120.0,,,,1225.341,1225.8431,1224.8254,1225.3407000000002,1222.5527999999997,1224.8252999999995,1225.8431,1226.3421,1226.3421,1229.9827000000002,3341.0,1229.9827999999998,5.0,1229.983,2.0,29.0,89.0,12.0,1.0,1.2,0.3,Time
,,S02,1,女,21,anonymized,Serial_Dependence_U,2023.2.3,Win32,60.240963855400565,,,,,,1229.9831,128.0,3.0,1241.5513999999998,128.0,s,11.552699999999732,,1245.7517000000005,1246.2529,1245.2411,1245.7516,1242.5647,1245.241,1246.2529,1246.7517999999998,1246.7517999999998,1251.7897999999998,4555.0,1251.7897999999998,5.0,1251.79,3.0,0.0,90.0,14.0,1.0,1.6,0.3,Time
,,S02,1,女,21,anonymized,Serial_Dependence_U,2023.2.3,Win32,60.240963855400565,,,,,,1251.7902,159.0,3.0,1251.7909,159.0,,,,1255.5789,1256.0777,1255.0617000000002,1255.5787000000005,1252.7868,1255.0616,1256.0777,1256.5748999999998,1256.575,1260.5655,3635.0,1260.5655,5.0,1260.5657,3.0,1.0,91.0,22.0,1.0,1.2,0.3,Time
,,S02,1,女,21,anonymized,Serial_Dependence_U,2023.2.3,Win32,60.240963855400565,,,,,,1260.5658999999998,324.0,3.0,1260.566,324.0,,,,1264.1347999999998,1264.6372,1263.6236,1264.1347,1261.5622999999998,1263.6232999999995,1264.6373,1265.1312999999998,1265.1314,1268.8386,3278.0,1268.8386,5.0,1268.8391,3.0,2.0,92.0,1.0,1.0,1.0,0.3,Time
,,S02,1,女,21,anonymized,Serial_Dependence_U,2023.2.3,Win32,60.240963855400565,,,,,,1268.8393,166.0,3.0,1268.8393,166.0,,,,1273.0313,1273.5287,1272.5287999999998,1273.0312,1269.8525,1272.5286,1273.5287,1274.0257,1274.0258,1277.9512999999995,3606.0,1277.9514,5.0,1277.9514,3.0,3.0,93.0,4.0,1.0,1.6,0.3,Time
,,S02,1,女,21,anonymized,Serial_Dependence_U,2023.2.3,Win32,60.240963855400565,,,,,,1277.9517,108.0,3.0,1277.9517999999998,108.0,,,,1281.7036,1282.2056,1281.1925,1281.7035,1278.9612000000002,1281.1924,1282.2057000000002,1282.705,1282.7051,1286.2453999999998,3224.0,1286.2455,5.0,1286.2455,3.0,4.0,94.0,17.0,1.0,1.2,0.7,Time
,,S02,1,女,21,anonymized,Serial_Dependence_U,2023.2.3,Win32,60.240963855400565,,,,,,1286.2457000000002,335.0,3.0,1286.2457999999997,335.0,,,,1290.2306,1290.7322999999997,1289.7182000000005,1290.2302999999995,1287.2553999999998,1289.7182000000005,1290.7322999999997,1291.2308999999998,1291.2308999999998,1295.3371,3839.0,1295.3371,5.0,1295.3372999999997,3.0,5.0,95.0,3.0,1.0,1.4,0.3,Time
,,S02,1,女,21,anonymized,Serial_Dependence_U,2023.2.3,Win32,60.240963855400565,,,,,,1295.3374,90.0,3.0,1295.3375,90.0,,,,1298.9062,1299.405,1298.3957999999998,1298.906,1296.351,1298.3957000000005,1299.405,1299.9073,1299.9073,1303.2327999999998,3009.0,1303.2329,5.0,1303.2331,3.0,6.0,96.0,16.0,1.0,1.0,0.7,Time
,,S02,1,女,21,anonymized,Serial_Dependence_U,2023.2.3,Win32,60.240963855400565,,,,,,1303.2333,276.0,3.0,1303.2333,276.0,,,,1307.4216,1307.9148999999998,1306.9057999999998,1307.4216,1304.2292000000002,1306.9057000000005,1307.915,1308.4172999999998,1308.4173999999998,1312.7732,4056.0,1312.7732,5.0,1312.7735,3.0,7.0,97.0,24.0,1.0,1.6,0.3,Time
,,S02,1,女,21,anonymized,Serial_Dependence_U,2023.2.3,Win32,60.240963855400565,,,,,,1312.7736,21.0,3.0,1312.7737999999997,21.0,,,,1316.1587999999997,1316.6622000000002,1315.649,1316.1587000000002,1313.7867,1315.649,1316.6622000000002,1317.1592999999998,1317.1592999999998,1320.4518999999998,2925.0,1320.4518999999998,5.0,1320.4521,3.0,8.0,98.0,0.0,1.0,0.8,0.3,Time
,,S02,1,女,21,anonymized,Serial_Dependence_U,2023.2.3,Win32,60.240963855400565,,,,,,1320.4522999999997,323.0,3.0,1320.4522999999997,323.0,,,,1324.2044,1324.702,1323.6898,1324.2044,1321.4501,1323.6897,1324.7021,1325.2051,1325.2051,1328.9457999999995,3360.0,1328.9457999999995,5.0,1328.9459,3.0,9.0,99.0,27.0,1.0,1.2,0.7,Time
,,S02,1,女,21,anonymized,Serial_Dependence_U,2023.2.3,Win32,60.240963855400565,,,,,,1328.9461,319.0,3.0,1328.9461,319.0,,,,1332.5317000000002,1333.0343999999998,1332.0202000000002,1332.5316,1329.9555,1332.0202000000002,1333.0343999999998,1333.528,1333.5281,1337.2396,3177.0,1337.2396,5.0,1337.2397,3.0,10.0,100.0,11.0,1.0,1.0,0.3,Time
,,S02,1,女,21,anonymized,Serial_Dependence_U,2023.2.3,Win32,60.240963855400565,,,,,,1337.2398999999998,71.0,3.0,1337.24,71.0,,,,1341.0143999999998,1341.5111000000002,1340.4972000000002,1341.0143999999998,1338.2531,1340.4972000000002,1341.5111000000002,1342.0087999999998,1342.0088999999998,1409.8697999999995,3130.0,1409.8699,5.0,1409.8701,3.0,11.0,101.0,7.0,1.0,1.2,0.7,Time
,,S02,1,女,21,anonymized,Serial_Dependence_U,2023.2.3,Win32,60.240963855400565,,,,,,1409.8702,298.0,3.0,1409.8702999999998,298.0,,,,1413.2605,1413.7597,1412.7459,1413.2605,1410.8847,1412.7457999999997,1413.7597,1414.2578999999998,1414.258,1417.8652000000002,3264.0,1417.8652000000002,5.0,1417.8655,3.0,12.0,102.0,10.0,1.0,0.8,0.3,Time
,,S02,1,女,21,anonymized,Serial_Dependence_U,2023.2.3,Win32,60.240963855400565,,,,,,1417.8657,295.0,3.0,1417.8657999999998,295.0,,,,1421.4385,1421.9373999999998,1420.9244,1421.4382999999998,1418.8787999999995,1420.9244,1421.9373999999998,1422.4359,1422.4359,1426.3751,3618.0,1426.3752000000002,5.0,1426.3755,3.0,13.0,103.0,26.0,1.0,1.0,0.7,Time
,,S02,1,女,21,anonymized,Serial_Dependence_U,2023.2.3,Win32,60.240963855400565,,,,,,1426.3757999999998,89.0,3.0,1426.3757999999998,89.0,,,,1430.1647999999998,1430.6631,1429.6499,1430.1647999999998,1427.3887000000002,1429.6497999999997,1430.6631,1431.1622999999995,1431.1622999999995,1435.1841000000002,3546.0,1435.1841000000002,5.0,1435.1844,3.0,14.0,104.0,12.0,1.0,1.2,0.3,Time
,,S02,1,女,21,anonymized,Serial_Dependence_U,2023.2.3,Win32,60.240963855400565,,,,,,1435.1847999999998,81.0,3.0,1435.185,81.0,,,,1438.5584,1439.0575,1438.0432999999998,1438.5584,1436.1982,1438.0432999999998,1439.0575,1439.5558,1439.5558,1443.179,3244.0,1443.179,5.0,1443.1794,3.0,15.0,105.0,25.0,1.0,0.8,0.7,Time
,,S02,1,女,21,anonymized,Serial_Dependence_U,2023.2.3,Win32,60.240963855400565,,,,,,1443.1798,57.0,3.0,1443.1799,57.0,,,,1447.1524,1447.6503999999998,1446.6362,1447.1522999999995,1444.1932999999997,1446.6362,1447.6503999999998,1448.1495,1448.1495,1452.1046,3540.0,1452.1047,5.0,1452.1047999999998,3.0,16.0,106.0,18.0,1.0,1.4,0.7,Time
,,S02,1,女,21,anonymized,Serial_Dependence_U,2023.2.3,Win32,60.240963855400565,,,,,,1452.1051,23.0,3.0,1452.1052000000002,23.0,,,,1456.0768999999998,1456.5756,1455.562,1456.0768999999998,1453.1185,1455.5619,1456.5756,1457.074,1457.0741,1460.9804,3595.0,1460.9804,5.0,1460.9807,3.0,17.0,107.0,28.0,1.0,1.4,0.7,Time
,,S02,1,女,21,anonymized,Serial_Dependence_U,2023.2.3,Win32,60.240963855400565,,,,,,1460.9811,182.0,3.0,1460.9812000000002,182.0,,,,1464.9862,1465.4846,1464.4711,1464.9861,1461.9949,1464.4711,1465.4846,1465.9837000000002,1465.9837000000002,1469.7402999999997,3407.0,1469.7402999999997,5.0,1469.7407,3.0,18.0,108.0,23.0,1.0,1.4,0.3,Time
,,S02,1,女,21,anonymized,Serial_Dependence_U,2023.2.3,Win32,60.240963855400565,,,,,,1469.7411,339.0,3.0,1469.7412000000002,339.0,,,,1473.3133999999998,1473.8123999999998,1472.7982000000002,1473.3132999999998,1470.7539,1472.7981,1473.8123999999998,1474.3107000000002,1474.3107000000002,1477.7516,3179.0,1477.7516,5.0,1477.7519,3.0,19.0,109.0,6.0,1.0,1.0,0.7,Time
,,S02,1,女,21,anonymized,Serial_Dependence_U,2023.2.3,Win32,60.240963855400565,,,,,,1477.7524,189.0,3.0,1477.7525,189.0,,,,1481.7239,1482.2227000000005,1481.2086000000002,1481.7237999999998,1478.7661,1481.2085,1482.2227000000005,1482.721,1482.721,1486.9096,3607.0,1486.9096,5.0,1486.9097999999997,3.0,20.0,110.0,8.0,1.0,1.4,0.7,Time
,,S02,1,女,21,anonymized,Serial_Dependence_U,2023.2.3,Win32,60.240963855400565,,,,,,1486.9101,345.0,3.0,1486.9102999999998,345.0,,,,1490.2839,1490.782,1489.769,1490.2837999999997,1487.9242999999997,1489.7688999999998,1490.7821,1491.2807999999998,1491.2807999999998,1495.0207000000005,3351.0,1495.0207000000005,5.0,1495.021,3.0,21.0,111.0,15.0,1.0,0.8,0.7,Time
,,S02,1,女,21,anonymized,Serial_Dependence_U,2023.2.3,Win32,60.240963855400565,,,,,,1495.0215,37.0,3.0,1495.0216,37.0,,,,1499.1937999999998,1499.6911,1498.6776,1499.1937999999998,1496.0358,1498.6776,1499.6911,1500.1899,1500.19,1504.0958999999998,3555.0,1504.0958999999998,5.0,1504.0961,3.0,22.0,112.0,29.0,1.0,1.6,0.7,Time
,,S02,1,女,21,anonymized,Serial_Dependence_U,2023.2.3,Win32,60.240963855400565,,,,,,1504.0962999999997,148.0,3.0,1504.0965,148.0,,,,1508.2686,1508.7668,1507.7527999999998,1508.2686,1505.1103999999998,1507.7527000000002,1508.7668,1509.2655,1509.2656,1513.4869,3983.0,1513.4869,5.0,1513.4872000000005,3.0,23.0,113.0,19.0,1.0,1.6,0.7,Time
,,S02,1,女,21,anonymized,Serial_Dependence_U,2023.2.3,Win32,60.240963855400565,,,,,,1513.4877,124.0,3.0,1513.4877,124.0,,,,1516.8779,1517.3762000000002,1516.3627,1516.8777999999998,1514.5008999999998,1516.3626000000002,1517.3762000000002,1517.8752000000002,1517.8752000000002,1521.3822000000002,2928.0,1521.3822000000002,5.0,1521.3826,3.0,24.0,114.0,20.0,1.0,0.8,0.3,Time
,,S02,1,女,21,anonymized,Serial_Dependence_U,2023.2.3,Win32,60.240963855400565,,,,,,1521.3828999999998,329.0,3.0,1521.3831,329.0,,,,1524.7564,1525.2545,1524.2415,1524.7564,1522.397,1524.2415,1525.2546,1525.7536,1525.7536,1529.2108999999998,3067.0,1529.2108999999998,5.0,1529.2112000000002,3.0,25.0,115.0,5.0,1.0,0.8,0.7,Time
,,S02,1,女,21,anonymized,Serial_Dependence_U,2023.2.3,Win32,60.240963855400565,,,,,,1529.2116,66.0,3.0,1529.2117,66.0,,,,1533.0176,1533.5159,1532.5027000000002,1533.0172999999998,1530.2255,1532.5026,1533.5159,1534.0145,1534.0145,1537.7872000000002,3421.0,1537.7872000000002,5.0,1537.7872999999995,3.0,26.0,116.0,2.0,1.0,1.2,0.3,Time
,,S02,1,女,21,anonymized,Serial_Dependence_U,2023.2.3,Win32,60.240963855400565,,,,,,1537.7876,249.0,3.0,1537.7877,249.0,,,,1541.9595,1542.4576,1541.4446,1541.9594,1538.8017999999995,1541.4446,1542.4577000000002,1542.9566,1542.9566,1547.5442,4200.0,1547.5442999999998,5.0,1547.5446000000002,3.0,27.0,117.0,9.0,1.0,1.6,0.7,Time
,,S02,1,女,21,anonymized,Serial_Dependence_U,2023.2.3,Win32,60.240963855400565,,,,,,1547.545,58.0,3.0,1547.5451,58.0,,,,1551.1347999999998,1551.6332000000002,1550.6197999999995,1551.1346,1548.5587,1550.6197000000002,1551.6332000000002,1552.1315,1552.1315,1555.5725,3038.0,1555.5726,5.0,1555.5729,3.0,28.0,118.0,21.0,1.0,1.0,0.3,Time
,,S02,1,女,21,anonymized,Serial_Dependence_U,2023.2.3,Win32,60.240963855400565,,,,,,1555.5732999999998,159.0,3.0,1555.5732999999998,159.0,,,,1559.5785,1560.077,1559.0635,1559.5784,1556.5867,1559.0633999999998,1560.077,1560.5754,1560.5755,1564.7143999999998,3837.0,1564.7146,5.0,1564.7147999999995,3.0,29.0,119.0,13.0,1.0,1.4,0.3,Time
,,S02,1,女,21,anonymized,Serial_Dependence_U,2023.2.3,Win32,60.240963855400565,,,,,,1564.7152,327.0,4.0,1679.9827000000002,327.0,s,115.25469999999972,,1683.9553,1684.4539,1683.4412000000002,1683.9552,1680.9967,1683.4411,1684.4539,1684.9525,1684.9526,1689.1076,3819.0,1689.1077000000002,5.0,1689.1079,4.0,0.0,120.0,8.0,1.0,1.4,0.7,Time
,,S02,1,女,21,anonymized,Serial_Dependence_U,2023.2.3,Win32,60.240963855400565,,,,,,1689.1082,165.0,4.0,1689.1095,165.0,,,,1692.8807999999997,1693.3792,1692.3664,1692.8807000000002,1690.1225,1692.3662000000002,1693.3792,1693.8783999999998,1693.8785,1698.1165,3899.0,1698.1165,5.0,1698.1166999999996,4.0,1.0,121.0,7.0,1.0,1.2,0.7,Time
,,S02,1,女,21,anonymized,Serial_Dependence_U,2023.2.3,Win32,60.240963855400565,,,,,,1698.117,131.0,4.0,1698.1171000000002,131.0,,,,1701.7066,1702.2056,1701.192,1701.7066,1699.1306,1701.192,1702.2056,1702.7039,1702.7039,1706.4769,3446.0,1706.4769,5.0,1706.4771,4.0,2.0,122.0,1.0,1.0,1.0,0.3,Time
,,S02,1,女,21,anonymized,Serial_Dependence_U,2023.2.3,Win32,60.240963855400565,,,,,,1706.4771999999996,246.0,4.0,1706.4772999999998,246.0,,,,1710.0672999999997,1710.5658,1709.5526999999995,1710.0671999999995,1707.4911999999997,1709.5526,1710.5658999999998,1711.0644,1711.0644,1714.4884,3074.0,1714.4884,5.0,1714.4886,4.0,3.0,123.0,11.0,1.0,1.0,0.3,Time
,,S02,1,女,21,anonymized,Serial_Dependence_U,2023.2.3,Win32,60.240963855400565,,,,,,1714.4891,180.0,4.0,1714.4891999999998,180.0,,,,1718.4784,1718.9761,1717.9631000000002,1718.4782999999998,1715.5025,1717.9628999999998,1718.9761,1719.4746,1719.4747999999995,1722.2502999999997,2384.0,1722.2505,5.0,1722.2507999999998,4.0,4.0,124.0,3.0,1.0,1.4,0.3,Time
,,S02,1,女,21,anonymized,Serial_Dependence_U,2023.2.3,Win32,60.240963855400565,,,,,,1722.2512999999997,346.0,4.0,1722.2514,346.0,,,,1726.0239,1726.5226,1725.5084,1726.0237999999997,1723.2643999999998,1725.5081999999998,1726.5226999999998,1727.0209,1727.021,1730.6274,3139.0,1730.6274,5.0,1730.6276,4.0,5.0,125.0,17.0,1.0,1.2,0.7,Time
,,S02,1,女,21,anonymized,Serial_Dependence_U,2023.2.3,Win32,60.240963855400565,,,,,,1730.6279,128.0,4.0,1730.6281999999997,128.0,,,,1734.7997999999998,1735.2981,1734.2845,1734.7996999999996,1731.6416999999997,1734.2843999999998,1735.2981,1735.7974,1735.7975,1740.0019,3824.0,1740.002,5.0,1740.0021000000002,4.0,6.0,126.0,19.0,1.0,1.6,0.7,Time
,,S02,1,女,21,anonymized,Serial_Dependence_U,2023.2.3,Win32,60.240963855400565,,,,,,1740.0024,253.0,4.0,1740.0024,253.0,,,,1743.3765,1743.8751999999995,1742.8609,1743.3765,1741.016,1742.8609,1743.8751999999995,1744.3737999999998,1744.3737999999998,1748.2794,3474.0,1748.2794,5.0,1748.2798999999998,4.0,7.0,127.0,5.0,1.0,0.8,0.7,Time
,,S02,1,女,21,anonymized,Serial_Dependence_U,2023.2.3,Win32,60.240963855400565,,,,,,1748.2804,287.0,4.0,1748.2805,287.0,,,,1751.6701999999998,1752.1691999999996,1751.1551999999997,1751.6701999999998,1749.2931999999996,1751.155,1752.1691999999996,1752.6676,1752.6676,1756.2745,3125.0,1756.2745,5.0,1756.2746999999997,4.0,8.0,128.0,20.0,1.0,0.8,0.3,Time
,,S02,1,女,21,anonymized,Serial_Dependence_U,2023.2.3,Win32,60.240963855400565,,,,,,1756.275,282.0,4.0,1756.2751,282.0,,,,1759.6666999999998,1760.164,1759.1501,1759.6666999999998,1757.2881999999995,1759.15,1760.1641999999997,1760.6622999999995,1760.6622999999995,1821.43,3267.0,1821.4301,5.0,1821.4305,4.0,9.0,129.0,10.0,1.0,0.8,0.3,Time
,,S02,1,女,21,anonymized,Serial_Dependence_U,2023.2.3,Win32,60.240963855400565,,,,,,1821.4308,52.0,4.0,1821.431,52.0,,,,1825.4025,1825.9017,1824.8879,1825.4025,1822.4445,1824.8877,1825.9017,1826.3999,1826.3999,1830.4221,3641.0,1830.4222,5.0,1830.4224,4.0,10.0,130.0,28.0,1.0,1.4,0.7,Time
,,S02,1,女,21,anonymized,Serial_Dependence_U,2023.2.3,Win32,60.240963855400565,,,,,,1830.4227,95.0,4.0,1830.4228,95.0,,,,1833.7972,1834.2955,1833.2816,1833.797,1831.4364,1833.2816,1834.2955,1834.7934,1834.7934,1838.3336,3174.0,1838.3337,5.0,1838.3339,4.0,11.0,131.0,15.0,1.0,0.8,0.7,Time
,,S02,1,女,21,anonymized,Serial_Dependence_U,2023.2.3,Win32,60.240963855400565,,,,,,1838.3343,338.0,4.0,1838.3344,338.0,,,,1842.1409,1842.6384,1841.6254,1842.1408,1839.3485,1841.6254,1842.6385,1843.1373,1843.1373,1846.7611,3215.0,1846.7611,5.0,1846.7614,4.0,12.0,132.0,2.0,1.0,1.2,0.3,Time
,,S02,1,女,21,anonymized,Serial_Dependence_U,2023.2.3,Win32,60.240963855400565,,,,,,1846.7617,38.0,4.0,1846.7619,38.0,,,,1850.5343,1851.0323,1850.0185,1850.5342,1847.7751,1850.0183,1851.0324,1851.5311,1851.5311,1855.5537,3734.0,1855.5537,5.0,1855.5541,4.0,13.0,133.0,27.0,1.0,1.2,0.7,Time
,,S02,1,女,21,anonymized,Serial_Dependence_U,2023.2.3,Win32,60.240963855400565,,,,,,1855.5544,81.0,4.0,1855.5544,81.0,,,,1859.1281,1859.6259,1858.6119,1859.1279,1856.5676,1858.6119,1859.626,1860.1244,1860.1244,1863.4651,3075.0,1863.4652,5.0,1863.4654,4.0,14.0,134.0,26.0,1.0,1.0,0.7,Time
,,S02,1,女,21,anonymized,Serial_Dependence_U,2023.2.3,Win32,60.240963855400565,,,,,,1863.4655,76.0,4.0,1863.4656,76.0,,,,1867.0394,1867.5375,1866.5244,1867.0393,1864.4794,1866.5244,1867.5376,1868.0364,1868.0364,1871.909,3573.0,1871.9092,5.0,1871.9098,4.0,15.0,135.0,16.0,1.0,1.0,0.7,Time
,,S02,1,女,21,anonymized,Serial_Dependence_U,2023.2.3,Win32,60.240963855400565,,,,,,1871.9101,12.0,4.0,1871.9102,12.0,,,,1875.699,1876.1974,1875.1834,1875.6989,1872.9228,1875.1834,1876.1974,1876.6959,1876.6959,1880.2531,3208.0,1880.2531,5.0,1880.2535,4.0,16.0,136.0,22.0,1.0,1.2,0.3,Time
,,S02,1,女,21,anonymized,Serial_Dependence_U,2023.2.3,Win32,60.240963855400565,,,,,,1880.2539,281.0,4.0,1880.254,281.0,,,,1883.8265,1884.325,1883.3118,1883.8265,1881.2665,1883.3118,1884.325,1884.8236,1884.8236,1888.5799,3450.0,1888.5799,5.0,1888.5802,4.0,17.0,137.0,6.0,1.0,1.0,0.7,Time
,,S02,1,女,21,anonymized,Serial_Dependence_U,2023.2.3,Win32,60.240963855400565,,,,,,1888.5806,113.0,4.0,1888.5807,113.0,,,,1892.7855,1893.2843,1892.2703,1892.7854,1889.5942,1892.2703,1893.2843,1893.7823,1893.7824,1898.3034,4131.0,1898.3035,5.0,1898.3037,4.0,18.0,138.0,14.0,1.0,1.6,0.3,Time
,,S02,1,女,21,anonymized,Serial_Dependence_U,2023.2.3,Win32,60.240963855400565,,,,,,1898.3041,118.0,4.0,1898.3041,118.0,,,,1902.4757,1902.9738,1901.9608,1902.4757,1899.3174,1901.9606,1902.9739,1903.4731,1903.4731,1908.2098,4412.0,1908.2098,5.0,1908.2102,4.0,19.0,139.0,29.0,1.0,1.6,0.7,Time
,,S02,1,女,21,anonymized,Serial_Dependence_U,2023.2.3,Win32,60.240963855400565,,,,,,1908.2106,230.0,4.0,1908.2106,230.0,,,,1911.8011,1912.2989,1911.2851,1911.801,1909.2238,1911.2849,1912.299,1912.7975,1912.7976,1916.3208,3083.0,1916.3209,5.0,1916.3211,4.0,20.0,140.0,21.0,1.0,1.0,0.3,Time
,,S02,1,女,21,anonymized,Serial_Dependence_U,2023.2.3,Win32,60.240963855400565,,,,,,1916.3215,327.0,4.0,1916.3216999999995,327.0,,,,1920.3274,1920.8254,1919.8115,1920.3272,1917.3351,1919.8115,1920.8254,1921.3241000000005,1921.3241000000005,1925.6625,3838.0,1925.6626,5.0,1925.6628,4.0,21.0,141.0,13.0,1.0,1.4,0.3,Time
,,S02,1,女,21,anonymized,Serial_Dependence_U,2023.2.3,Win32,60.240963855400565,,,,,,1925.6631999999995,200.0,4.0,1925.6634,200.0,,,,1929.8344,1930.333,1929.3189,1929.8344,1926.6762,1929.3188,1930.333,1930.8317,1930.8317,1935.768,4268.0,1935.768,5.0,1935.7681999999995,4.0,22.0,142.0,9.0,1.0,1.6,0.7,Time
,,S02,1,女,21,anonymized,Serial_Dependence_U,2023.2.3,Win32,60.240963855400565,,,,,,1935.7686,340.0,4.0,1935.7687,340.0,,,,1939.7579,1940.2553,1939.2427,1939.7577,1936.7816000000005,1939.2427,1940.2553,1940.7541,1940.7541,1944.9759,3821.0,1944.976,5.0,1944.9761,4.0,23.0,143.0,23.0,1.0,1.4,0.3,Time
,,S02,1,女,21,anonymized,Serial_Dependence_U,2023.2.3,Win32,60.240963855400565,,,,,,1944.9766,30.0,4.0,1944.9767,30.0,,,,1948.3668,1948.865,1947.8518,1948.3668,1945.9902,1947.8517,1948.8651,1949.3653,1949.3653,1952.8547,3087.0,1952.8548,5.0,1952.8554,4.0,24.0,144.0,0.0,1.0,0.8,0.3,Time
,,S02,1,女,21,anonymized,Serial_Dependence_U,2023.2.3,Win32,60.240963855400565,,,,,,1952.8556,138.0,4.0,1952.8558,138.0,,,,1957.0599,1957.5586,1956.5446999999997,1957.0598,1953.8689,1956.5445,1957.5586,1958.057,1958.057,1962.1964,3798.0,1962.1965,5.0,1962.1968,4.0,25.0,145.0,24.0,1.0,1.6,0.3,Time
,,S02,1,女,21,anonymized,Serial_Dependence_U,2023.2.3,Win32,60.240963855400565,,,,,,1962.197,97.0,4.0,1962.1972,97.0,,,,1966.1682,1966.6666,1965.6532,1966.168,1963.2095,1965.6531,1966.6666,1967.1652,1967.1652,1971.7198,4255.0,1971.7198,5.0,1971.7202,4.0,26.0,146.0,18.0,1.0,1.4,0.7,Time
,,S02,1,女,21,anonymized,Serial_Dependence_U,2023.2.3,Win32,60.240963855400565,,,,,,1971.7206,238.0,4.0,1971.7208,238.0,,,,1975.9255,1976.4234,1975.4099,1975.9254,1972.7335,1975.4098,1976.4234,1976.9219,1976.9219,1981.4762,4222.0,1981.4763,5.0,1981.4766,4.0,27.0,147.0,4.0,1.0,1.6,0.3,Time
,,S02,1,女,21,anonymized,Serial_Dependence_U,2023.2.3,Win32,60.240963855400565,,,,,,1981.4769,209.0,4.0,1981.477,209.0,,,,1984.8513,1985.3493,1984.3362,1984.8512,1982.4904,1984.3361,1985.3493,1985.8483,1985.8484,1989.8865,3591.0,1989.8866000000005,5.0,1989.8866000000005,4.0,28.0,148.0,25.0,1.0,0.8,0.7,Time
,,S02,1,女,21,anonymized,Serial_Dependence_U,2023.2.3,Win32,60.240963855400565,,,,,,1989.887,295.0,4.0,1989.8871,295.0,,,,1993.693,1994.1917,1993.1781,1993.6929,1990.9018,1993.1781,1994.1917,1994.6901999999995,1994.6901999999995,1998.5961999999995,3451.0,1998.5961999999995,5.0,1998.5965,4.0,29.0,149.0,12.0,1.0,1.2,0.3,Time
,,S02,1,女,21,anonymized,Serial_Dependence_U,2023.2.3,Win32,60.240963855400565,,,,,,1998.5966,274.0,5.0,2012.4588,274.0,s,13.842200000000048,,2016.4313,2016.93,2015.9159,2016.4313,2013.4726,2015.9159,2016.93,2017.4286999999997,2017.4286999999997,2022.4321,4645.0,2022.4323,5.0,2022.4327,5.0,0.0,150.0,18.0,1.0,1.4,0.7,Time
,,S02,1,女,21,anonymized,Serial_Dependence_U,2023.2.3,Win32,60.240963855400565,,,,,,2022.4331999999995,211.0,5.0,2022.434,211.0,,,,2026.4205,2026.9191,2025.9062,2026.4205,2023.4451,2025.9061,2026.9191,2027.4176,2027.4176,2032.3373,3671.0,2032.3373,5.0,2032.3375,5.0,1.0,151.0,3.0,1.0,1.4,0.3,Time
,,S02,1,女,21,anonymized,Serial_Dependence_U,2023.2.3,Win32,60.240963855400565,,,,,,2032.3378,273.0,5.0,2032.3378,273.0,,,,2036.5432,2037.0411,2036.0285,2036.5432,2033.3514,2036.0283,2037.0411,2037.5405,2037.5405,2045.1695,3860.0,2045.1695,5.0,2045.1698,5.0,2.0,152.0,4.0,1.0,1.6,0.3,Time
,,S02,1,女,21,anonymized,Serial_Dependence_U,2023.2.3,Win32,60.240963855400565,,,,,,2045.1701000000005,145.0,5.0,2045.1702,145.0,,,,2048.9756,2049.4739,2048.4604,2048.9755,2046.1838,2048.4603,2049.4739,2049.9724,2049.9725,2054.0614,3674.0,2054.0614,5.0,2054.0617,5.0,3.0,153.0,22.0,1.0,1.2,0.3,Time
,,S02,1,女,21,anonymized,Serial_Dependence_U,2023.2.3,Win32,60.240963855400565,,,,,,2054.0618,191.0,5.0,2054.0618,191.0,,,,2057.6355,2058.1338,2057.1209,2057.6354,2055.0761999999995,2057.1208,2058.1338,2058.6329,2058.633,2062.6048,3637.0,2062.6048,5.0,2062.6051,5.0,4.0,154.0,26.0,1.0,1.0,0.7,Time
,,S02,1,女,21,anonymized,Serial_Dependence_U,2023.2.3,Win32,60.240963855400565,,,,,,2062.6053,295.0,5.0,2062.6054,295.0,,,,2066.6113,2067.1094,2066.0961,2066.6112,2063.6196,2066.096,2067.1094,2067.6081,2067.6082,2072.594,4473.0,2072.5941999999995,5.0,2072.5943,5.0,5.0,155.0,13.0,1.0,1.4,0.3,Time
,,S02,1,女,21,anonymized,Serial_Dependence_U,2023.2.3,Win32,60.240963855400565,,,,,,2072.5945,219.0,5.0,2072.5946,219.0,,,,2075.9688,2076.4672,2075.4539,2075.9687,2073.6091,2075.4539,2076.4672,2076.9661,2076.9661,2083.0987,3015.0,2083.0987,5.0,2083.099,5.0,6.0,156.0,25.0,1.0,0.8,0.7,Time
,,S02,1,女,21,anonymized,Serial_Dependence_U,2023.2.3,Win32,60.240963855400565,,,,,,2083.0995,266.0,5.0,2083.0996,266.0,,,,2086.4734,2086.9713,2085.9584,2086.4733,2084.1131,2085.9583,2086.9713,2087.4701,2087.4701,2091.6092,3019.0,2091.6093,5.0,2091.6095,5.0,7.0,157.0,5.0,1.0,0.8,0.7,Time
,,S02,1,女,21,anonymized,Serial_Dependence_U,2023.2.3,Win32,60.240963855400565,,,,,,2091.6099,336.0,5.0,2091.61,336.0,,,,2095.0001999999995,2095.4989,2094.4848,2095.0,2092.6238,2094.4846999999995,2095.4989,2095.9973,2095.9973,2099.7037,3086.0,2099.7039,5.0,2099.7042,5.0,8.0,158.0,10.0,1.0,0.8,0.3,Time
,,S02,1,女,21,anonymized,Serial_Dependence_U,2023.2.3,Win32,60.240963855400565,,,,,,2099.7044,18.0,5.0,2099.7046,18.0,,,,2103.0783,2103.5764,2102.5626,2103.0781999999995,2100.7183,2102.5625,2103.5764,2104.0752,2104.0752,2107.9642,2997.0,2107.9643,5.0,2107.9643,5.0,9.0,159.0,15.0,1.0,0.8,0.7,Time
,,S02,1,女,21,anonymized,Serial_Dependence_U,2023.2.3,Win32,60.240963855400565,,,,,,2107.9646,115.0,5.0,2107.9646,115.0,,,,2111.9375,2112.4354,2111.4218,2111.9372,2108.9788,2111.4217,2112.4354,2112.9342,2112.9343,2122.8072,3163.0,2122.8073,5.0,2122.8075,5.0,10.0,160.0,8.0,1.0,1.4,0.7,Time
,,S02,1,女,21,anonymized,Serial_Dependence_U,2023.2.3,Win32,60.240963855400565,,,,,,2122.808,203.0,5.0,2122.8081999999995,203.0,,,,2126.9793,2127.4783,2126.4645,2126.9792,2123.8219,2126.4644,2127.4783,2127.9764,2127.9764,2132.9977,4544.0,2132.9977,5.0,2132.9979,5.0,11.0,161.0,29.0,1.0,1.6,0.7,Time
,,S02,1,女,21,anonymized,Serial_Dependence_U,2023.2.3,Win32,60.240963855400565,,,,,,2132.9981,41.0,5.0,2132.9981999999995,41.0,,,,2137.1684,2137.6664,2136.6532,2137.1683,2134.0102,2136.6531,2137.6664,2138.1657,2138.1657,2144.033,4065.0,2144.033,5.0,2144.0331,5.0,12.0,162.0,19.0,1.0,1.6,0.7,Time
,,S02,1,女,21,anonymized,Serial_Dependence_U,2023.2.3,Win32,60.240963855400565,,,,,,2144.0336,74.0,5.0,2144.0338,74.0,,,,2147.8057,2148.3047,2147.2905,2147.8057,2145.0471,2147.2904,2148.3047,2148.8034,2148.8035,2156.1992,3178.0,2156.1993,5.0,2156.1994,5.0,13.0,163.0,17.0,1.0,1.2,0.7,Time
,,S02,1,女,21,anonymized,Serial_Dependence_U,2023.2.3,Win32,60.240963855400565,,,,,,2156.1996,250.0,5.0,2156.1997,250.0,,,,2159.9727,2160.4709,2159.4576,2159.9726,2157.2135,2159.4575,2160.4709,2160.9696,2160.9696,2166.8201,3613.0,2166.8201,5.0,2166.8203,5.0,14.0,164.0,27.0,1.0,1.2,0.7,Time
,,S02,1,女,21,anonymized,Serial_Dependence_U,2023.2.3,Win32,60.240963855400565,,,,,,2166.8207,329.0,5.0,2166.8208,329.0,,,,2170.2116,2170.7101999999995,2169.6974,2170.2116,2167.8348,2169.6972,2170.7101999999995,2171.2086,2171.2087,2176.0952,3854.0,2176.0952,5.0,2176.0955,5.0,15.0,165.0,20.0,1.0,0.8,0.3,Time
,,S02,1,女,21,anonymized,Serial_Dependence_U,2023.2.3,Win32,60.240963855400565,,,,,,2176.0957,42.0,5.0,2176.0957,42.0,,,,2179.4866999999995,2179.9844,2178.971,2179.4866,2177.1092,2178.9709,2179.9844,2180.4837,2180.4837,2184.2893,3303.0,2184.2893,5.0,2184.2897,5.0,16.0,166.0,0.0,1.0,0.8,0.3,Time
,,S02,1,女,21,anonymized,Serial_Dependence_U,2023.2.3,Win32,60.240963855400565,,,,,,2184.2902,87.0,5.0,2184.2902,87.0,,,,2187.88,2188.3784,2187.3652,2187.8798,2185.3038,2187.3651,2188.3784,2188.8771,2188.8771,2200.9275,3474.0,2200.9275,5.0,2200.9277,5.0,17.0,167.0,21.0,1.0,1.0,0.3,Time
,,S02,1,女,21,anonymized,Serial_Dependence_U,2023.2.3,Win32,60.240963855400565,,,,,,2200.9281,219.0,5.0,2200.9283,219.0,,,,2205.0993,2205.5984,2204.5846,2205.0993,2201.9423,2204.5845,2205.5984,2206.0969,2206.0969,2210.9831,4160.0,2210.9832,5.0,2210.9832,5.0,18.0,168.0,9.0,1.0,1.6,0.7,Time
,,S02,1,女,21,anonymized,Serial_Dependence_U,2023.2.3,Win32,60.240963855400565,,,,,,2210.9836,70.0,5.0,2210.9837,70.0,,,,2214.9891,2215.488,2214.4742,2214.989,2211.9971,2214.4742,2215.488,2215.9861,2215.9861,2227.3055,3574.0,2227.3055,5.0,2227.3061,5.0,19.0,169.0,23.0,1.0,1.4,0.3,Time
,,S02,1,女,21,anonymized,Serial_Dependence_U,2023.2.3,Win32,60.240963855400565,,,,,,2227.3064,217.0,5.0,2227.3065,217.0,,,,2230.8956000000003,2231.3948,2230.3805,2230.8956000000003,2228.3194,2230.3804,2231.3948,2231.8931999999995,2231.8931999999995,2235.9824,3598.0,2235.9825,5.0,2235.9828,5.0,20.0,170.0,1.0,1.0,1.0,0.3,Time
,,S02,1,女,21,anonymized,Serial_Dependence_U,2023.2.3,Win32,60.240963855400565,,,,,,2235.9831,229.0,5.0,2235.9832,229.0,,,,2239.7724,2240.27,2239.2579,2239.7723,2236.9958,2239.2579,2240.27,2240.7686,2240.7686,2244.7746999999995,3537.0,2244.7748,5.0,2244.7752,5.0,21.0,171.0,2.0,1.0,1.2,0.3,Time
,,S02,1,女,21,anonymized,Serial_Dependence_U,2023.2.3,Win32,60.240963855400565,,,,,,2244.7756,321.0,5.0,2244.7757,321.0,,,,2248.3652,2248.8632,2247.85,2248.3652,2245.7886,2247.85,2248.8633,2249.3615,2249.3616,2253.5671999999995,3605.0,2253.5673,5.0,2253.5676,5.0,22.0,172.0,11.0,1.0,1.0,0.3,Time
,,S02,1,女,21,anonymized,Serial_Dependence_U,2023.2.3,Win32,60.240963855400565,,,,,,2253.5679,286.0,5.0,2253.5681,286.0,,,,2257.1412,2257.6394,2256.6255,2257.1411000000003,2254.5817,2256.6255,2257.6395,2258.1385,2258.1385,2262.1601,3473.0,2262.1601,5.0,2262.1602,5.0,23.0,173.0,16.0,1.0,1.0,0.7,Time
,,S02,1,女,21,anonymized,Serial_Dependence_U,2023.2.3,Win32,60.240963855400565,,,,,,2262.1605,60.0,5.0,2262.1607,60.0,,,,2265.7337,2266.2325,2265.2191999999995,2265.7337,2263.1741999999995,2265.2191000000003,2266.2325,2266.7312,2266.7313,2271.2355,3778.0,2271.2355,5.0,2271.2357,5.0,24.0,174.0,6.0,1.0,1.0,0.7,Time
,,S02,1,女,21,anonymized,Serial_Dependence_U,2023.2.3,Win32,60.240963855400565,,,,,,2271.236,228.0,5.0,2271.2362,228.0,,,,2275.0253,2275.5241,2274.5104,2275.0252,2272.2493,2274.5103,2275.5242,2276.0224,2276.0224,2281.2419,3593.0,2281.2421,5.0,2281.2424,5.0,25.0,175.0,12.0,1.0,1.2,0.3,Time
,,S02,1,女,21,anonymized,Serial_Dependence_U,2023.2.3,Win32,60.240963855400565,,,,,,2281.2426,312.0,5.0,2281.2429,312.0,,,,2285.4477,2285.9454,2284.932,2285.4477,2282.2561,2284.9316,2285.9454,2286.4439,2286.444,2298.9264,3561.0,2298.9264,5.0,2298.9266,5.0,26.0,176.0,14.0,1.0,1.6,0.3,Time
,,S02,1,女,21,anonymized,Serial_Dependence_U,2023.2.3,Win32,60.240963855400565,,,,,,2298.9272,198.0,5.0,2298.9273,198.0,,,,2302.7003,2303.1983,2302.1854,2302.7002,2299.9416,2302.1854,2303.1983,2303.6971,2303.6971,2308.7002,4346.0,2308.7002,5.0,2308.7006,5.0,27.0,177.0,7.0,1.0,1.2,0.7,Time
,,S02,1,女,21,anonymized,Serial_Dependence_U,2023.2.3,Win32,60.240963855400565,,,,,,2308.7009,49.0,5.0,2308.701,49.0,,,,2312.6735,2313.1709,2312.1576,2312.6734,2309.7142,2312.1575,2313.1709,2313.67,2313.6701000000003,2319.2877,3967.0,2319.2877,5.0,2319.2881999999995,5.0,28.0,178.0,28.0,1.0,1.4,0.7,Time
,,S02,1,女,21,anonymized,Serial_Dependence_U,2023.2.3,Win32,60.240963855400565,,,,,,2319.2887,277.0,5.0,2319.2887,277.0,,,,2323.4933,2323.9922,2322.978,2323.493,2320.3021,2322.9777,2323.9922,2324.4905,2324.4906,2328.961,4129.0,2328.961,5.0,2328.9612,5.0,29.0,179.0,24.0,1.0,1.6,0.3,Time
,,S02,1,女,21,anonymized,Serial_Dependence_U,2023.2.3,Win32,60.240963855400565,,,,,,2328.9617,173.0,6.0,2617.475,173.0,s,288.50509999999986,,2621.4631,2621.9617,2620.9484,2621.4631,2618.4876,2620.9483,2621.9617,2622.4604,2622.4605,2627.3631,4046.0,2627.3631,5.0,2627.3633,6.0,0.0,180.0,13.0,1.0,1.4,0.3,Time
,,S02,1,女,21,anonymized,Serial_Dependence_U,2023.2.3,Win32,60.240963855400565,,,,,,2627.3635,99.0,6.0,2627.3651,99.0,,,,2631.5365,2632.0343,2631.0208,2631.5364,2628.3782,2631.0205,2632.0343,2632.5326,2632.5327,2637.6023,4613.0,2637.6025,5.0,2637.6027,6.0,1.0,181.0,19.0,1.0,1.6,0.7,Time
,,S02,1,女,21,anonymized,Serial_Dependence_U,2023.2.3,Win32,60.240963855400565,,,,,,2637.603,284.0,6.0,2637.6032,284.0,,,,2641.575,2642.0731,2641.0594,2641.5749,2638.6163,2641.0594,2642.0731,2642.5723,2642.5723,2707.6608,3532.0,2707.6608,5.0,2707.661,6.0,2.0,182.0,18.0,1.0,1.4,0.7,Time
,,S02,1,女,21,anonymized,Serial_Dependence_U,2023.2.3,Win32,60.240963855400565,,,,,,2707.6612,248.0,6.0,2707.6614,248.0,,,,2711.0525,2711.5509,2710.5364,2711.0524,2708.6751,2710.5363,2711.5511,2712.0487,2712.0488,2818.2429,2773.0,2818.2429,5.0,2818.2435,6.0,3.0,183.0,0.0,1.0,0.8,0.3,Time
,,S02,1,女,21,anonymized,Serial_Dependence_U,2023.2.3,Win32,60.240963855400565,,,,,,2818.2438,334.0,6.0,2818.2439,334.0,,,,2822.4477,2822.9458,2821.933,2822.4477,2819.2569,2821.9329,2822.9458,2823.4447,2823.4448,3017.9809,3303.0,3017.9809,5.0,3017.9812,6.0,4.0,184.0,4.0,1.0,1.6,0.3,Time
,,S02,1,女,21,anonymized,Serial_Dependence_U,2023.2.3,Win32,60.240963855400565,,,,,,3017.9814,194.0,6.0,3017.9817,194.0,,,,3021.3555,3021.8536,3020.84,3021.3555,3018.9956999999995,3020.84,3021.8537,3022.3519,3022.3519,3025.6928,2985.0,3025.6929,5.0,3025.693,6.0,5.0,185.0,25.0,1.0,0.8,0.7,Time
,,S02,1,女,21,anonymized,Serial_Dependence_U,2023.2.3,Win32,60.240963855400565,,,,,,3025.6932,151.0,6.0,3025.6934,151.0,,,,3029.4831,3029.9814,3028.9682,3029.4829,3026.7073,3028.9681,3029.9814,3030.48,3030.48,3034.7517,3781.0,3034.7517,5.0,3034.7521,6.0,6.0,186.0,12.0,1.0,1.2,0.3,Time
,,S02,1,女,21,anonymized,Serial_Dependence_U,2023.2.3,Win32,60.240963855400565,,,,,,3034.7525,124.0,6.0,3034.7526000000003,124.0,,,,3038.3419,3038.8403,3037.8266,3038.3416,3035.7663,3037.8266,3038.8404,3039.3392,3039.3392,3043.2783,3364.0,3043.2783,5.0,3043.2788,6.0,7.0,187.0,1.0,1.0,1.0,0.3,Time
,,S02,1,女,21,anonymized,Serial_Dependence_U,2023.2.3,Win32,60.240963855400565,,,,,,3043.2791,209.0,6.0,3043.2794,209.0,,,,3047.4835,3047.9824,3046.969,3047.4834,3044.2928,3046.9688,3047.9825,3048.4808,3048.4808,3053.0682,4170.0,3053.0683,5.0,3053.0688,6.0,8.0,188.0,24.0,1.0,1.6,0.3,Time
,,S02,1,女,21,anonymized,Serial_Dependence_U,2023.2.3,Win32,60.240963855400565,,,,,,3053.0691,84.0,6.0,3053.0693,84.0,,,,3057.0416,3057.5399,3056.5263,3057.0415,3054.0824,3056.5262,3057.5399,3058.0381999999995,3058.0381999999995,3062.0769,3617.0,3062.077,5.0,3062.0775,6.0,9.0,189.0,8.0,1.0,1.4,0.7,Time
,,S02,1,女,21,anonymized,Serial_Dependence_U,2023.2.3,Win32,60.240963855400565,,,,,,3062.0777,92.0,6.0,3062.0778,92.0,,,,3065.4676,3065.9666,3064.9534,3065.4675,3063.091,3064.953,3065.9666999999995,3066.4652,3066.4652,3070.0882,3284.0,3070.0882,5.0,3070.0883,6.0,10.0,190.0,10.0,1.0,0.8,0.3,Time
,,S02,1,女,21,anonymized,Serial_Dependence_U,2023.2.3,Win32,60.240963855400565,,,,,,3070.0884,243.0,6.0,3070.0886,243.0,,,,3073.4632,3073.9615,3072.9471,3073.4631,3071.1031000000003,3072.947,3073.9615,3074.4601,3074.4601,3078.316,3521.0,3078.316,5.0,3078.3164,6.0,11.0,191.0,15.0,1.0,0.8,0.7,Time
,,S02,1,女,21,anonymized,Serial_Dependence_U,2023.2.3,Win32,60.240963855400565,,,,,,3078.3167,309.0,6.0,3078.3167,309.0,,,,3082.5234,3083.0196,3082.0067,3082.523,3079.3304,3082.0066,3083.0196,3083.5181,3083.5181,3088.3553,4510.0,3088.3553,5.0,3088.3555,6.0,12.0,192.0,14.0,1.0,1.6,0.3,Time
,,S02,1,女,21,anonymized,Serial_Dependence_U,2023.2.3,Win32,60.240963855400565,,,,,,3088.356,346.0,6.0,3088.3562,346.0,,,,3092.5275,3093.0257,3092.0124,3092.5275,3089.3701,3092.0124,3093.0257,3093.5244,3093.5244,3097.5635,3754.0,3097.5636,5.0,3097.564,6.0,13.0,193.0,29.0,1.0,1.6,0.7,Time
,,S02,1,女,21,anonymized,Serial_Dependence_U,2023.2.3,Win32,60.240963855400565,,,,,,3097.5643,147.0,6.0,3097.5644,147.0,,,,3100.9378,3101.4361,3100.4225,3100.9376,3098.5781999999995,3100.4225,3101.4361,3101.9349,3101.935,3105.359,3120.0,3105.359,5.0,3105.3592,6.0,14.0,194.0,5.0,1.0,0.8,0.7,Time
,,S02,1,女,21,anonymized,Serial_Dependence_U,2023.2.3,Win32,60.240963855400565,,,,,,3105.3596,343.0,6.0,3105.3598,343.0,,,,3108.7497,3109.2487,3108.235,3108.7497,3106.3731999999995,3108.2349,3109.2487,3109.7465,3109.7465,3119.4702,3379.0,3119.4702,5.0,3119.4706,6.0,15.0,195.0,20.0,1.0,0.8,0.3,Time
,,S02,1,女,21,anonymized,Serial_Dependence_U,2023.2.3,Win32,60.240963855400565,,,,,,3119.471,253.0,6.0,3119.4711999999995,253.0,,,,3123.2442,3123.7416,3122.7284,3123.2442,3120.4844,3122.7282,3123.7416,3124.2406,3124.2406,3128.5289,3963.0,3128.5289,5.0,3128.5293,6.0,16.0,196.0,7.0,1.0,1.2,0.7,Time
,,S02,1,女,21,anonymized,Serial_Dependence_U,2023.2.3,Win32,60.240963855400565,,,,,,3128.5296,148.0,6.0,3128.5299,148.0,,,,3132.1029,3132.6014,3131.5876,3132.1027,3129.543,3131.5875,3132.6014,3133.0996,3133.0996,3138.269,3660.0,3138.2691,5.0,3138.2693,6.0,17.0,197.0,26.0,1.0,1.0,0.7,Time
,,S02,1,女,21,anonymized,Serial_Dependence_U,2023.2.3,Win32,60.240963855400565,,,,,,3138.2697,316.0,6.0,3138.2699,316.0,,,,3142.2751,3142.773,3141.7602,3142.275,3139.283,3141.7601,3142.7731,3143.2717,3143.2717,3147.9091,4008.0,3147.9092,5.0,3147.9097,6.0,18.0,198.0,23.0,1.0,1.4,0.3,Time
,,S02,1,女,21,anonymized,Serial_Dependence_U,2023.2.3,Win32,60.240963855400565,,,,,,3147.91,77.0,6.0,3147.9102,77.0,,,,3151.6831,3152.1808,3151.1679,3151.6831,3148.9235,3151.1678,3152.1808,3152.6797,3152.6797,3158.2478,3601.0,3158.2478,5.0,3158.248,6.0,19.0,199.0,27.0,1.0,1.2,0.7,Time
,,S02,1,女,21,anonymized,Serial_Dependence_U,2023.2.3,Win32,60.240963855400565,,,,,,3158.2485,349.0,6.0,3158.2487,349.0,,,,3161.8386,3162.3363,3161.3243,3161.8385,3159.2617,3161.3242,3162.3363,3162.8353,3162.8353,3169.3508,3338.0,3169.3508,5.0,3169.3509,6.0,20.0,200.0,21.0,1.0,1.0,0.3,Time
,,S02,1,女,21,anonymized,Serial_Dependence_U,2023.2.3,Win32,60.240963855400565,,,,,,3169.3511,10.0,6.0,3169.3513,10.0,,,,3172.9244,3173.4228,3172.4095,3172.9243,3170.3647,3172.4093,3173.4228,3173.9214,3173.9214,3178.4429,4015.0,3178.443,5.0,3178.4432,6.0,21.0,201.0,6.0,1.0,1.0,0.7,Time
,,S02,1,女,21,anonymized,Serial_Dependence_U,2023.2.3,Win32,60.240963855400565,,,,,,3178.4436,155.0,6.0,3178.4439,155.0,,,,3182.2488,3182.7479,3181.7345,3182.2487,3179.4573,3181.7344,3182.748,3183.2465,3183.2466,3188.5981,4513.0,3188.5981,5.0,3188.5983,6.0,22.0,202.0,22.0,1.0,1.2,0.3,Time
,,S02,1,女,21,anonymized,Serial_Dependence_U,2023.2.3,Win32,60.240963855400565,,,,,,3188.5985,121.0,6.0,3188.5988,121.0,,,,3192.6039,3193.1027,3192.0895,3192.6039,3189.6127,3192.0895,3193.1027,3193.601,3193.601,3199.2194,3635.0,3199.2195,5.0,3199.2198,6.0,23.0,203.0,3.0,1.0,1.4,0.3,Time
,,S02,1,女,21,anonymized,Serial_Dependence_U,2023.2.3,Win32,60.240963855400565,,,,,,3199.2202,287.0,6.0,3199.2205,287.0,,,,3202.9929,3203.4911999999995,3202.4773,3202.9927,3200.2333,3202.4772,3203.4911999999995,3203.9894,3203.9895,3207.5802,3201.0,3207.5803,5.0,3207.5806999999995,6.0,24.0,204.0,17.0,1.0,1.2,0.7,Time
,,S02,1,女,21,anonymized,Serial_Dependence_U,2023.2.3,Win32,60.240963855400565,,,,,,3207.581,330.0,6.0,3207.5811,330.0,,,,3211.1541999999995,3211.652,3210.6384,3211.154,3208.5944,3210.6383,3211.652,3212.1509,3212.1509,3217.6029,3454.0,3217.6029,5.0,3217.6032,6.0,25.0,205.0,16.0,1.0,1.0,0.7,Time
,,S02,1,女,21,anonymized,Serial_Dependence_U,2023.2.3,Win32,60.240963855400565,,,,,,3217.6036,116.0,6.0,3217.6037,116.0,,,,3221.4089,3221.907,3220.8935,3221.4088,3218.6169,3220.8934,3221.9071,3222.4064,3222.4064,3226.8438,4004.0,3226.8438,5.0,3226.844,6.0,26.0,206.0,2.0,1.0,1.2,0.3,Time
,,S02,1,女,21,anonymized,Serial_Dependence_U,2023.2.3,Win32,60.240963855400565,,,,,,3226.8441999999995,339.0,6.0,3226.8445,339.0,,,,3231.0159,3231.5144,3230.5016,3231.0159,3227.8581,3230.5015,3231.5144,3232.013,3232.013,3236.8005,4331.0,3236.8006,5.0,3236.8014,6.0,27.0,207.0,9.0,1.0,1.6,0.7,Time
,,S02,1,女,21,anonymized,Serial_Dependence_U,2023.2.3,Win32,60.240963855400565,,,,,,3236.8016,274.0,6.0,3236.8019,274.0,,,,3240.391,3240.8891,3239.8761,3240.391,3237.8145,3239.876,3240.8891,3241.3875,3241.3875,3245.3596999999995,3525.0,3245.3596999999995,5.0,3245.3599,6.0,28.0,208.0,11.0,1.0,1.0,0.3,Time
,,S02,1,女,21,anonymized,Serial_Dependence_U,2023.2.3,Win32,60.240963855400565,,,,,,3245.3601,210.0,6.0,3245.3604,210.0,,,,3249.3325,3249.8308,3248.8186,3249.3323,3246.3742,3248.8185,3249.8308,3250.3294,3250.3294,3254.7179,4047.0,3254.718,5.0,3254.7183,6.0,29.0,209.0,28.0,1.0,1.4,0.7,Time
,,S02,1,女,21,anonymized,Serial_Dependence_U,2023.2.3,Win32,60.240963855400565,,,,,,3254.7187,211.0,7.0,3277.1399,211.0,s,22.4083999999998,,3281.3128,3281.8105,3280.7969,3281.3126,3278.1546,3280.7967,3281.8105,3282.3092,3282.3092,3286.5312,3812.0,3286.5314,5.0,3286.5316999999995,7.0,0.0,210.0,19.0,1.0,1.6,0.7,Time
,,S02,1,女,21,anonymized,Serial_Dependence_U,2023.2.3,Win32,60.240963855400565,,,,,,3286.5321,50.0,7.0,3286.533,50.0,,,,3289.922,3290.4202,3289.4071,3289.9219,3287.5455,3289.4069,3290.4202,3290.9187,3290.9187,3295.3403,4004.0,3295.3403,5.0,3295.3409,7.0,1.0,211.0,20.0,1.0,0.8,0.3,Time
,,S02,1,女,21,anonymized,Serial_Dependence_U,2023.2.3,Win32,60.240963855400565,,,,,,3295.3412,25.0,7.0,3295.3414,25.0,,,,3298.7151,3299.2131,3298.2003,3298.7151,3296.355,3298.2002,3299.2131,3299.7118,3299.7118,3304.1998,4028.0,3304.1999,5.0,3304.2004,7.0,2.0,212.0,15.0,1.0,0.8,0.7,Time
,,S02,1,女,21,anonymized,Serial_Dependence_U,2023.2.3,Win32,60.240963855400565,,,,,,3304.2006,97.0,7.0,3304.2008,97.0,,,,3308.2051,3308.7039,3307.6906,3308.2051,3305.214,3307.6904,3308.704,3309.2025,3309.2025,3313.4909,3839.0,3313.491,5.0,3313.4911,7.0,3.0,213.0,13.0,1.0,1.4,0.3,Time
,,S02,1,女,21,anonymized,Serial_Dependence_U,2023.2.3,Win32,60.240963855400565,,,,,,3313.4914,221.0,7.0,3313.4916,221.0,,,,3317.2978,3317.7957,3316.7824,3317.2978,3314.5056,3316.7823,3317.7958,3318.2941,3318.2941,3322.5661,3756.0,3322.5661,5.0,3322.5666,7.0,4.0,214.0,22.0,1.0,1.2,0.3,Time
,,S02,1,女,21,anonymized,Serial_Dependence_U,2023.2.3,Win32,60.240963855400565,,,,,,3322.5669,337.0,7.0,3322.5671,337.0,,,,3326.5719,3327.0704,3326.0571,3326.5716999999995,3323.5806,3326.057,3327.0704,3327.5701,3327.5702,3331.4747,3603.0,3331.4748,5.0,3331.475,7.0,5.0,215.0,23.0,1.0,1.4,0.3,Time
,,S02,1,女,21,anonymized,Serial_Dependence_U,2023.2.3,Win32,60.240963855400565,,,,,,3331.4755,341.0,7.0,3331.4758,341.0,,,,3335.2649,3335.7635,3334.7495,3335.2648,3332.4889,3334.7494,3335.7635,3336.2614,3336.2614,3340.035,3349.0,3340.0351,5.0,3340.0356,7.0,6.0,216.0,2.0,1.0,1.2,0.3,Time
,,S02,1,女,21,anonymized,Serial_Dependence_U,2023.2.3,Win32,60.240963855400565,,,,,,3340.0359,326.0,7.0,3340.036,326.0,,,,3343.6254,3344.1237,3343.11,3343.6254,3341.0493,3343.11,3344.1237,3344.622,3344.6221,3358.6178,3121.0,3358.6178,5.0,3358.6181,7.0,7.0,217.0,21.0,1.0,1.0,0.3,Time
,,S02,1,女,21,anonymized,Serial_Dependence_U,2023.2.3,Win32,60.240963855400565,,,,,,3358.6185,43.0,7.0,3358.6186999999995,43.0,,,,3362.0083,3362.5068,3361.493,3362.0082,3359.6314,3361.493,3362.5068,3363.0052,3363.0053,3367.1773,3718.0,3367.1773,5.0,3367.1775,7.0,8.0,218.0,0.0,1.0,0.8,0.3,Time
,,S02,1,女,21,anonymized,Serial_Dependence_U,2023.2.3,Win32,60.240963855400565,,,,,,3367.1779,22.0,7.0,3367.1782,22.0,,,,3370.569,3371.0668,3370.053,3370.5689,3368.1916,3370.0527,3371.0668,3371.5653,3371.5653,3376.2694,4098.0,3376.2695,5.0,3376.2696,7.0,9.0,219.0,10.0,1.0,0.8,0.3,Time
,,S02,1,女,21,anonymized,Serial_Dependence_U,2023.2.3,Win32,60.240963855400565,,,,,,3376.27,119.0,7.0,3376.2701999999995,119.0,,,,3380.0595,3380.5577,3379.5448,3380.0593,3377.2834,3379.5446,3380.5577,3381.0561,3381.0561999999995,3386.0592,3640.0,3386.0592,5.0,3386.0595,7.0,10.0,220.0,12.0,1.0,1.2,0.3,Time
,,S02,1,女,21,anonymized,Serial_Dependence_U,2023.2.3,Win32,60.240963855400565,,,,,,3386.0597,222.0,7.0,3386.0599,222.0,,,,3390.2646,3390.7634,3389.7493,3390.2645,3387.0738,3389.7493,3390.7634,3391.2622,3391.2622,3395.9004,4300.0,3395.9005,5.0,3395.9008,7.0,11.0,221.0,14.0,1.0,1.6,0.3,Time
,,S02,1,女,21,anonymized,Serial_Dependence_U,2023.2.3,Win32,60.240963855400565,,,,,,3395.901,17.0,7.0,3395.9012,17.0,,,,3399.4735,3399.9713,3398.9576,3399.4734,3396.9131999999995,3398.9576,3399.9713,3400.4701,3400.4701,3404.6751,3893.0,3404.6751,5.0,3404.6753,7.0,12.0,222.0,6.0,1.0,1.0,0.7,Time
,,S02,1,女,21,anonymized,Serial_Dependence_U,2023.2.3,Win32,60.240963855400565,,,,,,3404.6755,161.0,7.0,3404.6758,161.0,,,,3408.6479,3409.1466,3408.1327,3408.6478,3405.6904,3408.1326,3409.1466,3409.6449,3409.6449,3414.0829,4035.0,3414.083,5.0,3414.0833,7.0,13.0,223.0,28.0,1.0,1.4,0.7,Time
,,S02,1,女,21,anonymized,Serial_Dependence_U,2023.2.3,Win32,60.240963855400565,,,,,,3414.0835,214.0,7.0,3414.0837,214.0,,,,3418.2886,3418.7865,3417.7726999999995,3418.2885,3415.0967,3417.7726999999995,3418.7865,3419.2856,3419.2857,3423.6066,3972.0,3423.6066,5.0,3423.6068,7.0,14.0,224.0,4.0,1.0,1.6,0.3,Time
,,S02,1,女,21,anonymized,Serial_Dependence_U,2023.2.3,Win32,60.240963855400565,,,,,,3423.607,146.0,7.0,3423.6071999999995,146.0,,,,3427.7789,3428.2775,3427.2636999999995,3427.7789,3424.6214,3427.2636,3428.2775,3428.7759,3428.7759,3433.3302,4223.0,3433.3302,5.0,3433.3303,7.0,15.0,225.0,29.0,1.0,1.6,0.7,Time
,,S02,1,女,21,anonymized,Serial_Dependence_U,2023.2.3,Win32,60.240963855400565,,,,,,3433.3305,153.0,7.0,3433.3308,153.0,,,,3437.3362,3437.835,3436.8209,3437.336,3434.344,3436.8207,3437.835,3438.3329,3438.333,3442.1892,3509.0,3442.1892,5.0,3442.1894,7.0,16.0,226.0,3.0,1.0,1.4,0.3,Time
,,S02,1,女,21,anonymized,Serial_Dependence_U,2023.2.3,Win32,60.240963855400565,,,,,,3442.1895,254.0,7.0,3442.1896,254.0,,,,3445.5643,3446.0626999999995,3445.0481,3445.5643,3443.2035,3445.048,3446.0626999999995,3446.5609,3446.5609,3449.8524,2825.0,3449.8524,5.0,3449.8528,7.0,17.0,227.0,25.0,1.0,0.8,0.7,Time
,,S02,1,女,21,anonymized,Serial_Dependence_U,2023.2.3,Win32,60.240963855400565,,,,,,3449.8531000000003,36.0,7.0,3449.8533,36.0,,,,3453.2266,3453.7251,3452.711,3453.2265,3450.8663,3452.7108,3453.7252,3454.2233,3454.2234,3457.564,2973.0,3457.564,5.0,3457.5642,7.0,18.0,228.0,5.0,1.0,0.8,0.7,Time
,,S02,1,女,21,anonymized,Serial_Dependence_U,2023.2.3,Win32,60.240963855400565,,,,,,3457.5646,328.0,7.0,3457.5648,328.0,,,,3461.1382,3461.6366000000003,3460.6231,3461.1381,3458.5784,3460.623,3461.6366000000003,3462.1346,3462.1347,3462.9665,597.0,3462.9666,1.0,3462.9671,7.0,19.0,229.0,16.0,1.0,1.0,0.7,Time
,,S02,1,女,21,anonymized,Serial_Dependence_U,2023.2.3,Win32,60.240963855400565,,,,,,3462.9675,110.0,7.0,3462.9677,110.0,,,,3467.1721999999995,3467.6704,3466.6566999999995,3467.1721999999995,3463.9809,3466.6566000000003,3467.6704,3468.169,3468.169,3471.9916,3442.0,3471.9917,5.0,3471.992,7.0,20.0,230.0,24.0,1.0,1.6,0.3,Time
,,S02,1,女,21,anonymized,Serial_Dependence_U,2023.2.3,Win32,60.240963855400565,,,,,,3471.9923,42.0,7.0,3471.9925,42.0,,,,3475.7647,3476.2634,3475.2498,3475.7646,3473.0064,3475.2495,3476.2634,3476.7615,3476.7615,3480.967,3796.0,3480.9671,5.0,3480.9674,7.0,21.0,231.0,7.0,1.0,1.2,0.7,Time
,,S02,1,女,21,anonymized,Serial_Dependence_U,2023.2.3,Win32,60.240963855400565,,,,,,3480.9677,15.0,7.0,3480.9678,15.0,,,,3484.5745,3485.0721,3484.0592,3484.5744,3481.9817,3484.059,3485.0722,3485.571,3485.571,3489.5934,3629.0,3489.5934,5.0,3489.5939,7.0,22.0,232.0,1.0,1.0,1.0,0.3,Time
,,S02,1,女,21,anonymized,Serial_Dependence_U,2023.2.3,Win32,60.240963855400565,,,,,,3489.5941999999995,166.0,7.0,3489.5944,166.0,,,,3493.3672,3493.8647,3492.8519,3493.3671,3490.6078,3492.8518,3493.8648,3494.3636,3494.3637,3498.3199,3536.0,3498.32,5.0,3498.3204,7.0,23.0,233.0,17.0,1.0,1.2,0.7,Time
,,S02,1,女,21,anonymized,Serial_Dependence_U,2023.2.3,Win32,60.240963855400565,,,,,,3498.3208,231.0,7.0,3498.3209,231.0,,,,3501.8943,3502.3917,3501.3782,3501.8942,3499.3338,3501.3781,3502.3917,3502.8905,3502.8906,3506.497,3261.0,3506.497,5.0,3506.4971,7.0,24.0,234.0,26.0,1.0,1.0,0.7,Time
,,S02,1,女,21,anonymized,Serial_Dependence_U,2023.2.3,Win32,60.240963855400565,,,,,,3506.4974,67.0,7.0,3506.4974,67.0,,,,3510.4706,3510.9684,3509.9554,3510.4705,3507.5119,3509.9553,3510.9684,3511.4673,3511.4674,3515.7223,3892.0,3515.7224,5.0,3515.7228,7.0,25.0,235.0,18.0,1.0,1.4,0.7,Time
,,S02,1,女,21,anonymized,Serial_Dependence_U,2023.2.3,Win32,60.240963855400565,,,,,,3515.7231,236.0,7.0,3515.7232,236.0,,,,3519.8943,3520.3926,3519.3791,3519.8942,3516.7364,3519.3789,3520.3927,3520.891,3520.891,3525.9938,4814.0,3525.9939,5.0,3525.994,7.0,26.0,236.0,9.0,1.0,1.6,0.7,Time
,,S02,1,女,21,anonymized,Serial_Dependence_U,2023.2.3,Win32,60.240963855400565,,,,,,3525.9945,291.0,7.0,3525.9947,291.0,,,,3529.7672,3530.2656999999995,3529.2525,3529.7672,3527.0083,3529.2524,3530.2658,3530.7642,3530.7642,3534.3879,3241.0,3534.3879,5.0,3534.3881,7.0,27.0,237.0,27.0,1.0,1.2,0.7,Time
,,S02,1,女,21,anonymized,Serial_Dependence_U,2023.2.3,Win32,60.240963855400565,,,,,,3534.3886,115.0,7.0,3534.3886999999995,115.0,,,,3538.3604,3538.8591,3537.8456,3538.3603,3535.4021999999995,3537.8456,3538.8591,3539.3573,3539.3573,3543.3141,3707.0,3543.3142,5.0,3543.3144,7.0,28.0,238.0,8.0,1.0,1.4,0.7,Time
,,S02,1,女,21,anonymized,Serial_Dependence_U,2023.2.3,Win32,60.240963855400565,,,,,,3543.3147,228.0,7.0,3543.3149,228.0,,,,3546.9041999999995,3547.4028,3546.3892,3546.9041,3544.3275,3546.3891,3547.4028,3547.9014,3547.9014,3551.5574,3255.0,3551.5576,5.0,3551.5578,7.0,29.0,239.0,11.0,1.0,1.0,0.3,Time
,,S02,1,女,21,anonymized,Serial_Dependence_U,2023.2.3,Win32,60.240963855400565,,,,,,3551.558,68.0,8.0,3555.2141,68.0,s,3.64679999999953,,3559.2204,3559.719,3558.7049,3559.2203,3556.2287,3558.7048,3559.719,3560.2175,3560.2176,3564.5885,4022.0,3564.5885,5.0,3564.5887,8.0,0.0,240.0,3.0,1.0,1.4,0.3,Time
,,S02,1,女,21,anonymized,Serial_Dependence_U,2023.2.3,Win32,60.240963855400565,,,,,,3564.5891,6.0,8.0,3564.5904,6.0,,,,3568.1629,3568.661,3567.6474,3568.1628,3565.6027,3567.6473,3568.661,3569.1597,3569.1597,3573.4979,3402.0,3573.498,5.0,3573.4984,8.0,1.0,241.0,26.0,1.0,1.0,0.7,Time
,,S02,1,女,21,anonymized,Serial_Dependence_U,2023.2.3,Win32,60.240963855400565,,,,,,3573.4986,176.0,8.0,3573.4988,176.0,,,,3577.2709,3577.7695,3576.7562,3577.2708,3574.5124,3576.7562,3577.7695,3578.268,3578.268,3582.5904,3978.0,3582.5905,5.0,3582.5907,8.0,2.0,242.0,7.0,1.0,1.2,0.7,Time
,,S02,1,女,21,anonymized,Serial_Dependence_U,2023.2.3,Win32,60.240963855400565,,,,,,3582.591,222.0,8.0,3582.5912,222.0,,,,3586.18,3586.6783,3585.6646,3586.1799,3583.6036,3585.6645,3586.6783,3587.1774,3587.1775,3591.4819,3898.0,3591.482,5.0,3591.4821999999995,8.0,3.0,243.0,1.0,1.0,1.0,0.3,Time
,,S02,1,女,21,anonymized,Serial_Dependence_U,2023.2.3,Win32,60.240963855400565,,,,,,3591.4826000000003,333.0,8.0,3591.4829,333.0,,,,3594.8728,3595.3714,3594.3577,3594.8727,3592.496,3594.3576000000003,3595.3714,3595.8703,3595.8705,3600.8064,3153.0,3600.8065,5.0,3600.8067,8.0,4.0,244.0,10.0,1.0,0.8,0.3,Time
,,S02,1,女,21,anonymized,Serial_Dependence_U,2023.2.3,Win32,60.240963855400565,,,,,,3600.807,21.0,8.0,3600.8073,21.0,,,,3604.5964,3605.0946,3604.0819,3604.5963,3601.8207,3604.0818,3605.0946,3605.5934,3605.5934,3609.7987,3861.0,3609.7988,5.0,3609.799,8.0,5.0,245.0,22.0,1.0,1.2,0.3,Time
,,S02,1,女,21,anonymized,Serial_Dependence_U,2023.2.3,Win32,60.240963855400565,,,,,,3609.7993,147.0,8.0,3609.7996,147.0,,,,3613.1903,3613.688,3612.6743,3613.1903,3610.8134,3612.6742,3613.688,3614.1871,3614.1872,3618.1432,3645.0,3618.1433,5.0,3618.1438,8.0,6.0,246.0,20.0,1.0,0.8,0.3,Time
,,S02,1,女,21,anonymized,Serial_Dependence_U,2023.2.3,Win32,60.240963855400565,,,,,,3618.1441,230.0,8.0,3618.1442,230.0,,,,3621.5333,3622.0322,3621.0183,3621.5333,3619.1566,3621.0181,3622.0322,3622.5303,3622.5304,3626.1536,3241.0,3626.1537,5.0,3626.154,8.0,7.0,247.0,0.0,1.0,0.8,0.3,Time
,,S02,1,女,21,anonymized,Serial_Dependence_U,2023.2.3,Win32,60.240963855400565,,,,,,3626.1544,289.0,8.0,3626.1546,289.0,,,,3629.961,3630.4587,3629.4453,3629.9609,3627.1683,3629.4452,3630.4587,3630.9572,3630.9572,3634.9463,3651.0,3634.9465,5.0,3634.9466,8.0,8.0,248.0,12.0,1.0,1.2,0.3,Time
,,S02,1,女,21,anonymized,Serial_Dependence_U,2023.2.3,Win32,60.240963855400565,,,,,,3634.9471,215.0,8.0,3634.9473,215.0,,,,3638.9196,3639.418,3638.4052,3638.9195,3635.9606,3638.4051,3639.418,3639.917,3639.917,3643.9402,3685.0,3643.9403,5.0,3643.9406,8.0,9.0,249.0,8.0,1.0,1.4,0.7,Time
,,S02,1,女,21,anonymized,Serial_Dependence_U,2023.2.3,Win32,60.240963855400565,,,,,,3643.9408,149.0,8.0,3643.9409,149.0,,,,3647.3132,3647.8116,3646.798,3647.3131,3644.953,3646.798,3647.8116,3648.31,3648.31,3652.0503,3327.0,3652.0504,5.0,3652.0507,8.0,10.0,250.0,5.0,1.0,0.8,0.7,Time
,,S02,1,女,21,anonymized,Serial_Dependence_U,2023.2.3,Win32,60.240963855400565,,,,,,3652.0512,56.0,8.0,3652.0514,56.0,,,,3656.0235,3656.5218,3655.5077,3656.0235,3653.0637,3655.5077,3656.5219,3657.0193,3657.0194,3664.3826,3965.0,3664.3827,5.0,3664.3829,8.0,11.0,251.0,18.0,1.0,1.4,0.7,Time
,,S02,1,女,21,anonymized,Serial_Dependence_U,2023.2.3,Win32,60.240963855400565,,,,,,3664.3832,206.0,8.0,3664.3836,206.0,,,,3668.1569,3668.655,3667.6415,3668.1568,3665.398,3667.6413,3668.655,3669.1538,3669.1538,3677.4306,3414.0,3677.4306,5.0,3677.4309,8.0,12.0,252.0,17.0,1.0,1.2,0.7,Time
,,S02,1,女,21,anonymized,Serial_Dependence_U,2023.2.3,Win32,60.240963855400565,,,,,,3677.4313,125.0,8.0,3677.4314,125.0,,,,3681.6031,3682.1014,3681.0873,3681.603,3678.4446,3681.0872,3682.1016,3682.6,3682.6,3687.1708,4164.0,3687.1709,5.0,3687.1713,8.0,13.0,253.0,19.0,1.0,1.6,0.7,Time
,,S02,1,女,21,anonymized,Serial_Dependence_U,2023.2.3,Win32,60.240963855400565,,,,,,3687.1716,201.0,8.0,3687.1718,201.0,,,,3690.9444,3691.4424,3690.4295,3690.9444,3688.1853,3690.4294,3691.4424,3691.9419,3691.9419,3696.2292,3853.0,3696.2293,5.0,3696.2298,8.0,14.0,254.0,27.0,1.0,1.2,0.7,Time
,,S02,1,女,21,anonymized,Serial_Dependence_U,2023.2.3,Win32,60.240963855400565,,,,,,3696.2303,198.0,8.0,3696.2307,198.0,,,,3699.8036,3700.3016,3699.2881,3699.8036,3697.2441,3699.2881,3700.3016,3700.7999,3700.7999,3704.7894,3550.0,3704.7895,5.0,3704.7898,8.0,15.0,255.0,6.0,1.0,1.0,0.7,Time
,,S02,1,女,21,anonymized,Serial_Dependence_U,2023.2.3,Win32,60.240963855400565,,,,,,3704.7902,2.0,8.0,3704.7903,2.0,,,,3708.1641,3708.6624,3707.649,3708.1639,3705.804,3707.6489,3708.6624,3709.1612,3709.1612,3713.4823,3888.0,3713.4823,5.0,3713.4828,8.0,16.0,256.0,25.0,1.0,0.8,0.7,Time
,,S02,1,女,21,anonymized,Serial_Dependence_U,2023.2.3,Win32,60.240963855400565,,,,,,3713.4831,183.0,8.0,3713.4833,183.0,,,,3716.8572,3717.3551,3716.342,3716.8571,3714.4976,3716.3419,3717.3552,3717.854,3717.854,3721.7096,3347.0,3721.7096,5.0,3721.7098,8.0,17.0,257.0,15.0,1.0,0.8,0.7,Time
,,S02,1,女,21,anonymized,Serial_Dependence_U,2023.2.3,Win32,60.240963855400565,,,,,,3721.7098,44.0,8.0,3721.7101,44.0,,,,3725.7161,3726.2144,3725.2008,3725.7159,3722.7245,3725.2007,3726.2144,3726.7129,3726.713,3730.4031,3208.0,3730.4031,5.0,3730.4035,8.0,18.0,258.0,13.0,1.0,1.4,0.3,Time
,,S02,1,女,21,anonymized,Serial_Dependence_U,2023.2.3,Win32,60.240963855400565,,,,,,3730.4039,112.0,8.0,3730.4041,112.0,,,,3734.6082,3735.1067,3734.0933,3734.6081,3731.4172,3734.0931,3735.1067,3735.6052,3735.6052,3740.2256,4275.0,3740.2257,5.0,3740.2259,8.0,19.0,259.0,14.0,1.0,1.6,0.3,Time
,,S02,1,女,21,anonymized,Serial_Dependence_U,2023.2.3,Win32,60.240963855400565,,,,,,3740.2261,0.0,8.0,3740.2265,0.0,,,,3744.0328,3744.5307,3743.5174,3744.0327,3741.2404,3743.5173,3744.5307,3745.0291,3745.0292,3749.1021,3681.0,3749.1022,5.0,3749.1024,8.0,20.0,260.0,2.0,1.0,1.2,0.3,Time
,,S02,1,女,21,anonymized,Serial_Dependence_U,2023.2.3,Win32,60.240963855400565,,,,,,3749.1028,78.0,8.0,3749.1029,78.0,,,,3752.6926,3753.1904,3752.1767,3752.6925,3750.1156,3752.1766,3753.1904,3753.6896,3753.6897,3757.5951,3577.0,3757.5951,5.0,3757.5954,8.0,21.0,261.0,11.0,1.0,1.0,0.3,Time
,,S02,1,女,21,anonymized,Serial_Dependence_U,2023.2.3,Win32,60.240963855400565,,,,,,3757.5958,52.0,8.0,3757.5959,52.0,,,,3761.5676,3762.0667,3761.0531,3761.5676,3758.6096,3761.053,3762.0667,3762.5654,3762.5654,3767.4349,4538.0,3767.4349,5.0,3767.4352,8.0,22.0,262.0,28.0,1.0,1.4,0.7,Time
,,S02,1,女,21,anonymized,Serial_Dependence_U,2023.2.3,Win32,60.240963855400565,,,,,,3767.4355,322.0,8.0,3767.4356,322.0,,,,3771.6408,3772.1391,3771.1256,3771.6407,3768.4493,3771.1254,3772.1392,3772.6377,3772.6377,3777.6737,4538.0,3777.6738,5.0,3777.6741,8.0,23.0,263.0,4.0,1.0,1.6,0.3,Time
,,S02,1,女,21,anonymized,Serial_Dependence_U,2023.2.3,Win32,60.240963855400565,,,,,,3777.6745,305.0,8.0,3777.6747,305.0,,,,3781.8794,3782.3774,3781.3647,3781.8793,3778.688,3781.3646,3782.3774,3782.8762,3782.8762,3787.6134,4301.0,3787.6135,5.0,3787.6136,8.0,24.0,264.0,24.0,1.0,1.6,0.3,Time
,,S02,1,女,21,anonymized,Serial_Dependence_U,2023.2.3,Win32,60.240963855400565,,,,,,3787.614,211.0,8.0,3787.6141,211.0,,,,3791.2038,3791.7023,3790.6885,3791.2037,3788.6281,3790.6884,3791.7023,3792.2008,3792.2009,3795.5428,3008.0,3795.5429,5.0,3795.543,8.0,25.0,265.0,21.0,1.0,1.0,0.3,Time
,,S02,1,女,21,anonymized,Serial_Dependence_U,2023.2.3,Win32,60.240963855400565,,,,,,3795.5432,55.0,8.0,3795.5433,55.0,,,,3799.1149999999993,3799.6141,3798.6009,3799.1149999999993,3796.5557,3798.6008,3799.6141,3800.1127,3800.1127,3805.2154999999993,3559.0,3805.2154999999993,5.0,3805.2157,8.0,26.0,266.0,16.0,1.0,1.0,0.7,Time
,,S02,1,女,21,anonymized,Serial_Dependence_U,2023.2.3,Win32,60.240963855400565,,,,,,3805.216,206.0,8.0,3805.2164,206.0,,,,3809.388,3809.8867,3808.8725,3809.3879,3806.2293,3808.8724,3809.8868,3810.3847,3810.3847,3814.6397,3910.0,3814.6397,5.0,3814.6399,8.0,27.0,267.0,29.0,1.0,1.6,0.7,Time
,,S02,1,女,21,anonymized,Serial_Dependence_U,2023.2.3,Win32,60.240963855400565,,,,,,3814.6403,220.0,8.0,3814.6405,220.0,,,,3818.6459,3819.1439,3818.1302,3818.6458,3815.6536,3818.1302,3819.1439,3819.6428,3819.6429,3824.3464,4361.0,3824.3464,5.0,3824.3469,8.0,28.0,268.0,23.0,1.0,1.4,0.3,Time
,,S02,1,女,21,anonymized,Serial_Dependence_U,2023.2.3,Win32,60.240963855400565,,,,,,3824.3472,99.0,8.0,3824.3473,99.0,,,,3828.5183,3829.0169,3828.0042,3828.5182,3825.361,3828.0041,3829.0169,3829.5155,3829.5155,3833.8372,4024.0,3833.8373,5.0,3833.8378,8.0,29.0,269.0,9.0,1.0,1.6,0.7,Time
