Scale_setup.started,Scale_setup.stopped,participant,session,sex,age,date,expName,psychopyVersion,OS,frameRate,Intro.started,Intro.stopped,key_resp_2.keys,key_resp_2.rt,key_resp_2.duration,block.started,direction,Block_id,block.stopped,trial_direction,Block_resp_2.keys,Block_resp_2.rt,Block_resp_2.duration,ITI.started,ITI.stopped,Mask_2.started,Mask_2.stopped,encoding.started,encoding.stopped,Cue.started,Cue.stopped,Response.started,Response.stopped,keyDuration,Feedback_Time.started,FeedbackID_T,Feedback_Time.stopped,trials.thisRepN,trials.thisTrialN,trials.thisN,trials.thisIndex,trials.ran,TimeDur,Coherence1,TrialType
0.0001000000000033,0.0003999999999919,S03,1,male,24,anonymized,Serial_Dependence_U,2023.2.3,Win32,60.24096385542697,,,,,,,,,,,,,,,,,,,,,,,,,,,,,,,,,,,
,,S03,1,male,24,anonymized,Serial_Dependence_U,2023.2.3,Win32,60.24096385542697,42.66280000000002,44.31180000000002,space,1.624600000000001,,,,,,,,,,,,,,,,,,,,,,,,,,,,,,,
,,S03,1,male,24,anonymized,Serial_Dependence_U,2023.2.3,Win32,60.24096385542697,,,,,,44.317200000000014,196.0,0.0,47.1614,196.0,s,2.828799999999987,,51.16020000000002,51.659300000000016,50.64389999999999,51.16,48.17820000000002,50.64380000000001,51.65950000000002,52.15939999999999,52.15950000000002,54.04250000000003,893.0,54.042800000000014,1.0,55.04169999999998,0.0,0.0,0.0,13.0,1.0,1.4,0.3,Time
,,S03,1,male,24,anonymized,Serial_Dependence_U,2023.2.3,Win32,60.24096385542697,,,,,,55.04219999999998,255.0,0.0,55.04360000000001,255.0,,,,59.20739999999999,59.706699999999984,58.6909,59.20719999999999,56.05850000000002,58.69080000000001,59.706699999999984,60.20639999999999,60.20639999999999,61.75630000000001,1072.0,61.7564,1.0,62.7554,0.0,1.0,1.0,9.0,1.0,1.6,0.7,Time
,,S03,1,male,24,anonymized,Serial_Dependence_U,2023.2.3,Win32,60.24096385542697,,,,,,62.7559,71.0,0.0,62.7561,71.0,,,,66.95469999999999,67.45410000000001,66.4381,66.9546,63.77250000000002,66.4379,67.45410000000001,67.95389999999999,67.95389999999999,69.0539,136.0,69.0539,1.0,70.0531,0.0,2.0,2.0,14.0,1.0,1.6,0.3,Time
,,S03,1,male,24,anonymized,Serial_Dependence_U,2023.2.3,Win32,60.24096385542697,,,,,,70.0534,275.0,0.0,70.05369999999998,275.0,,,,73.65250000000003,74.15169999999998,73.13600000000002,73.65230000000001,71.06989999999999,73.13589999999999,74.15169999999998,74.6516,74.6516,76.0349,967.0,76.0349,3.0,77.03410000000001,0.0,3.0,3.0,11.0,1.0,1.0,0.3,Time
,,S03,1,male,24,anonymized,Serial_Dependence_U,2023.2.3,Win32,60.24096385542697,,,,,,77.03439999999999,107.0,0.0,77.03450000000002,107.0,,,,81.00000000000003,81.49919999999999,80.48339999999999,80.99980000000002,78.05080000000002,80.48339999999999,81.49919999999999,81.9991,81.9991,83.99839999999999,1425.0,83.99860000000001,3.0,84.99810000000001,0.0,4.0,4.0,8.0,1.0,1.4,0.7,Time
,,S03,1,male,24,anonymized,Serial_Dependence_U,2023.2.3,Win32,60.24096385542697,,,,,,84.99839999999999,45.0,0.0,84.99860000000001,45.0,,,,88.3976,88.89639999999999,87.88110000000002,88.39730000000002,86.01480000000002,87.88100000000001,88.89639999999999,89.3963,89.3963,90.03,255.0,90.0301,1.0,91.0293,0.0,5.0,5.0,0.0,1.0,0.8,0.3,Time
,,S03,1,male,24,anonymized,Serial_Dependence_U,2023.2.3,Win32,60.24096385542697,,,,,,91.0296,313.0,0.0,91.02989999999996,313.0,,,,94.8286,95.32789999999996,94.3121,94.8284,92.04619999999996,94.312,95.32789999999996,95.82769999999996,95.82769999999996,97.67739999999998,1265.0,97.6775,4.0,98.67669999999995,0.0,6.0,6.0,22.0,1.0,1.2,0.3,Time
,,S03,1,male,24,anonymized,Serial_Dependence_U,2023.2.3,Win32,60.24096385542697,,,,,,98.67700000000002,46.0,0.0,98.6773,46.0,,,,102.24269999999996,102.74200000000002,101.7261,102.24259999999998,99.69369999999998,101.72600000000004,102.74200000000002,103.2418,103.2419,104.92489999999998,1300.0,104.9251,5.0,105.92430000000002,0.0,7.0,7.0,6.0,1.0,1.0,0.7,Time
,,S03,1,male,24,anonymized,Serial_Dependence_U,2023.2.3,Win32,60.24096385542697,,,,,,105.92450000000002,154.0,0.0,105.92469999999996,154.0,,,,109.7233,110.22250000000004,109.20700000000002,109.7231,106.9408,109.20680000000002,110.22250000000004,110.72269999999996,110.7228,112.23919999999995,972.0,112.23950000000002,2.0,113.23839999999998,0.0,8.0,8.0,2.0,1.0,1.2,0.3,Time
,,S03,1,male,24,anonymized,Serial_Dependence_U,2023.2.3,Win32,60.24096385542697,,,,,,113.23869999999997,140.0,0.0,113.2388,140.0,,,,116.60439999999996,117.1038,116.0881,116.6043,114.25519999999996,116.0879,117.1038,117.6036,117.6036,119.70319999999998,1400.0,119.70319999999998,5.0,120.7026,0.0,9.0,9.0,5.0,1.0,0.8,0.7,Time
,,S03,1,male,24,anonymized,Serial_Dependence_U,2023.2.3,Win32,60.24096385542697,,,,,,120.703,1.0,0.0,120.70309999999998,1.0,,,,124.8683,125.36759999999998,124.35189999999996,124.86819999999996,121.71939999999998,124.3518,125.36759999999998,125.8675,125.8675,128.00019999999998,1760.0,128.0003,4.0,128.99969999999996,0.0,10.0,10.0,19.0,1.0,1.6,0.7,Time
,,S03,1,male,24,anonymized,Serial_Dependence_U,2023.2.3,Win32,60.24096385542697,,,,,,129.00000000000003,135.0,0.0,129.00019999999998,135.0,,,,132.34919999999997,132.84839999999997,131.83269999999996,132.3491,129.9998,131.8326,132.84839999999997,133.3483,133.3483,134.5148,705.0,134.51489999999998,2.0,135.51409999999998,0.0,11.0,11.0,25.0,1.0,0.8,0.7,Time
,,S03,1,male,24,anonymized,Serial_Dependence_U,2023.2.3,Win32,60.24096385542697,,,,,,135.5143,10.0,0.0,135.51439999999997,10.0,,,,139.48000000000002,139.9793,138.9636,139.4799,136.531,138.96339999999998,139.9793,140.4791,140.47919999999996,143.3288,1901.0,143.3288,5.0,144.3278,0.0,12.0,12.0,28.0,1.0,1.4,0.7,Time
,,S03,1,male,24,anonymized,Serial_Dependence_U,2023.2.3,Win32,60.24096385542697,,,,,,144.32809999999998,124.0,0.0,144.3283,124.0,,,,147.72719999999995,148.22650000000002,147.2108,147.72709999999998,145.3446,147.21069999999995,148.22650000000002,148.7263,148.7263,150.44269999999997,1101.0,150.4428,5.0,151.442,0.0,13.0,13.0,20.0,1.0,0.8,0.3,Time
,,S03,1,male,24,anonymized,Serial_Dependence_U,2023.2.3,Win32,60.24096385542697,,,,,,151.4426,61.0,0.0,151.44289999999998,61.0,,,,154.80819999999997,155.30719999999997,154.29189999999997,154.8081,152.45889999999997,154.29169999999996,155.30719999999997,155.8073,155.8073,157.2736,983.0,157.27369999999996,4.0,158.27300000000002,0.0,14.0,14.0,15.0,1.0,0.8,0.7,Time
,,S03,1,male,24,anonymized,Serial_Dependence_U,2023.2.3,Win32,60.24096385542697,,,,,,158.27339999999998,280.0,0.0,158.27369999999996,280.0,,,,162.03900000000002,162.53819999999996,161.52259999999998,162.03889999999998,159.29000000000002,161.5225,162.53819999999996,163.038,163.038,164.3713,1001.0,164.37150000000003,2.0,165.37050000000002,0.0,15.0,15.0,17.0,1.0,1.2,0.7,Time
,,S03,1,male,24,anonymized,Serial_Dependence_U,2023.2.3,Win32,60.24096385542697,,,,,,165.37069999999997,5.0,0.0,165.371,5.0,,,,168.9534,169.4525,168.4371,168.95319999999998,166.3708,168.43689999999998,169.4525,169.9523,169.9523,171.7023,1369.0,171.70239999999998,5.0,172.70139999999998,0.0,16.0,16.0,1.0,1.0,1.0,0.3,Time
,,S03,1,male,24,anonymized,Serial_Dependence_U,2023.2.3,Win32,60.24096385542697,,,,,,172.70159999999998,81.0,0.0,172.70169999999996,81.0,,,,176.9006,177.39969999999997,176.38459999999998,176.9004,173.7183,176.38439999999997,177.39969999999997,177.89969999999997,177.89969999999997,179.4998,1131.0,179.49989999999997,2.0,180.4989,0.0,17.0,17.0,4.0,1.0,1.6,0.3,Time
,,S03,1,male,24,anonymized,Serial_Dependence_U,2023.2.3,Win32,60.24096385542697,,,,,,180.4991,112.0,0.0,180.4992,112.0,,,,184.6648,185.1638,184.1482,184.6645,181.5158,184.1481,185.1638,185.6639,185.6639,188.9295,2878.0,188.9297,5.0,189.9289,0.0,18.0,18.0,29.0,1.0,1.6,0.7,Time
,,S03,1,male,24,anonymized,Serial_Dependence_U,2023.2.3,Win32,60.24096385542697,,,,,,189.9293,239.0,0.0,189.9295,239.0,,,,193.3279,193.8275,192.8119,193.3278,190.9458,192.8118,193.8275,194.3275,194.3275,195.2107,462.0,195.2107,1.0,196.2101,0.0,19.0,19.0,10.0,1.0,0.8,0.3,Time
,,S03,1,male,24,anonymized,Serial_Dependence_U,2023.2.3,Win32,60.24096385542697,,,,,,196.2102,85.0,0.0,196.2104,85.0,,,,199.8096,200.3088,199.293,199.8095,197.227,199.2929,200.3089,200.8086,200.8087,201.392,210.0,201.3921,1.0,202.3914,0.0,20.0,20.0,21.0,1.0,1.0,0.3,Time
,,S03,1,male,24,anonymized,Serial_Dependence_U,2023.2.3,Win32,60.24096385542697,,,,,,202.3917,73.0,0.0,202.3918,73.0,,,,206.1905,206.69000000000003,205.6742,206.1904,203.4082,205.674,206.69000000000003,207.1896,207.1896,216.6368,117.0,216.6369,1.0,217.6363,0.0,21.0,21.0,12.0,1.0,1.2,0.3,Time
,,S03,1,male,24,anonymized,Serial_Dependence_U,2023.2.3,Win32,60.24096385542697,,,,,,217.63650000000007,351.0,0.0,217.63660000000004,351.0,,,,221.40200000000004,221.9014,220.8857,221.4019,218.653,220.8856,221.90150000000008,222.40130000000005,222.40130000000005,223.36800000000005,913.0,223.36810000000003,2.0,224.3671,0.0,22.0,22.0,7.0,1.0,1.2,0.7,Time
,,S03,1,male,24,anonymized,Serial_Dependence_U,2023.2.3,Win32,60.24096385542697,,,,,,224.36730000000009,120.0,0.0,224.3675000000001,120.0,,,,227.9332,228.43260000000004,227.4168,227.9331,225.3842,227.4166,228.43260000000004,228.93240000000003,228.93240000000003,230.3489,933.0,230.3491,2.0,231.34830000000005,0.0,23.0,23.0,26.0,1.0,1.0,0.7,Time
,,S03,1,male,24,anonymized,Serial_Dependence_U,2023.2.3,Win32,60.24096385542697,,,,,,231.34860000000003,87.0,0.0,231.34880000000004,87.0,,,,235.34750000000005,235.8467,234.831,235.3473,232.36500000000007,234.8308,235.8467,236.3466,236.3466,238.6793,1683.0,238.6794,4.0,239.6788,0.0,24.0,24.0,3.0,1.0,1.4,0.3,Time
,,S03,1,male,24,anonymized,Serial_Dependence_U,2023.2.3,Win32,60.24096385542697,,,,,,239.6789,178.0,0.0,239.6791,178.0,,,,243.8779,244.37710000000004,243.3612,243.87780000000004,240.69550000000004,243.36100000000005,244.37710000000004,244.87690000000003,244.87700000000007,246.61010000000005,1161.0,246.61030000000005,2.0,247.6094,0.0,25.0,25.0,24.0,1.0,1.6,0.3,Time
,,S03,1,male,24,anonymized,Serial_Dependence_U,2023.2.3,Win32,60.24096385542697,,,,,,247.6097,296.0,0.0,247.6098,296.0,,,,251.3589,251.85790000000003,250.8423,251.3587,248.6097,250.8421,251.85790000000003,252.35780000000003,252.35780000000003,254.00730000000004,1102.0,254.0074,2.0,255.00690000000003,0.0,26.0,26.0,27.0,1.0,1.2,0.7,Time
,,S03,1,male,24,anonymized,Serial_Dependence_U,2023.2.3,Win32,60.24096385542697,,,,,,255.00730000000004,231.0,0.0,255.0074,231.0,,,,259.0062,259.5052,258.4897,259.00600000000003,256.02360000000004,258.4895,259.50530000000003,260.0051,260.0052,260.5387,191.0,260.5387,1.0,261.53800000000007,0.0,27.0,27.0,23.0,1.0,1.4,0.3,Time
,,S03,1,male,24,anonymized,Serial_Dependence_U,2023.2.3,Win32,60.24096385542697,,,,,,261.5382,126.0,0.0,261.5384,126.0,,,,265.10400000000004,265.60330000000005,264.5876,265.10380000000004,262.55480000000006,264.5874,265.60330000000005,266.10310000000004,266.10310000000004,267.6528,978.0,267.6529,3.0,268.6522,0.0,28.0,28.0,16.0,1.0,1.0,0.7,Time
,,S03,1,male,24,anonymized,Serial_Dependence_U,2023.2.3,Win32,60.24096385542697,,,,,,268.65250000000003,54.0,0.0,268.6526,54.0,,,,272.6181,273.11730000000006,272.1018,272.61800000000005,269.6691,272.1016,273.11740000000003,273.6172,273.6172,275.2337,1192.0,275.23380000000003,2.0,276.23300000000006,0.0,29.0,29.0,18.0,1.0,1.4,0.7,Time
,,S03,1,male,24,anonymized,Serial_Dependence_U,2023.2.3,Win32,60.24096385542697,,,,,,276.23330000000004,215.0,1.0,280.1039,215.0,s,3.854599999999948,,283.8643,284.36350000000004,283.3477,283.8641,281.11480000000006,283.3476,284.36350000000004,284.8632,284.86330000000004,286.42990000000003,1118.0,286.43000000000006,2.0,286.43580000000003,1.0,0.0,30.0,7.0,1.0,1.2,0.7,Time
,,S03,1,male,24,anonymized,Serial_Dependence_U,2023.2.3,Win32,60.24096385542697,,,,,,286.43600000000004,249.0,1.0,286.4368,249.0,,,,290.22880000000004,290.72800000000007,289.7123,290.2287,287.4464,289.7122,290.72800000000007,291.22780000000006,291.22780000000006,291.8446,237.0,291.8446,1.0,291.85040000000004,1.0,1.0,31.0,12.0,1.0,1.2,0.3,Time
,,S03,1,male,24,anonymized,Serial_Dependence_U,2023.2.3,Win32,60.24096385542697,,,,,,291.85060000000004,141.0,1.0,291.85080000000005,141.0,,,,295.6434,296.1429,295.1272,295.6433,292.8611,295.12690000000003,296.1429,296.64250000000004,296.64250000000004,297.4427,248.0,297.44280000000003,1.0,297.4486,1.0,2.0,32.0,2.0,1.0,1.2,0.3,Time
,,S03,1,male,24,anonymized,Serial_Dependence_U,2023.2.3,Win32,60.24096385542697,,,,,,297.4487,134.0,1.0,297.4488,134.0,,,,300.84180000000003,301.34100000000007,300.3254,300.8417,298.4592,300.3252,301.34110000000004,301.84090000000003,301.84100000000007,305.8063,661.0,305.8064,2.0,305.8127,1.0,3.0,33.0,10.0,1.0,0.8,0.3,Time
,,S03,1,male,24,anonymized,Serial_Dependence_U,2023.2.3,Win32,60.24096385542697,,,,,,305.8129,320.0,1.0,305.81300000000005,320.0,,,,309.97200000000004,310.4714,309.45550000000003,309.9719,306.8234,309.4554,310.4714,310.9712,310.9712,312.0543,985.0,312.0545,1.0,312.06030000000004,1.0,4.0,34.0,9.0,1.0,1.6,0.7,Time
,,S03,1,male,24,anonymized,Serial_Dependence_U,2023.2.3,Win32,60.24096385542697,,,,,,312.06050000000005,23.0,1.0,312.0606,23.0,,,,315.62010000000004,316.11940000000004,315.1038,315.62000000000006,313.0708,315.10360000000003,316.11940000000004,316.619,316.6191,318.9522,1303.0,318.9522,5.0,318.95829999999995,1.0,5.0,35.0,6.0,1.0,1.0,0.7,Time
,,S03,1,male,24,anonymized,Serial_Dependence_U,2023.2.3,Win32,60.24096385542697,,,,,,318.9585,324.0,1.0,318.95860000000005,324.0,,,,323.1008,323.6,322.5844000000001,323.1007,319.9519000000001,322.5843,323.6,324.1,324.1001,326.69950000000006,1981.0,326.69960000000003,4.0,326.7057,1.0,6.0,36.0,19.0,1.0,1.6,0.7,Time
,,S03,1,male,24,anonymized,Serial_Dependence_U,2023.2.3,Win32,60.24096385542697,,,,,,326.70579999999995,83.0,1.0,326.70590000000004,83.0,,,,330.06540000000007,330.56450000000007,329.5487,330.06510000000003,327.71600000000007,329.5486,330.56450000000007,331.0644000000001,331.0644000000001,333.0973,1566.0,333.09740000000005,5.0,333.1032,1.0,7.0,37.0,5.0,1.0,0.8,0.7,Time
,,S03,1,male,24,anonymized,Serial_Dependence_U,2023.2.3,Win32,60.24096385542697,,,,,,333.10350000000005,241.0,1.0,333.10350000000005,241.0,,,,337.06300000000005,337.56210000000004,336.5463,337.06290000000007,334.1138,336.5462,337.56210000000004,338.06200000000007,338.06200000000007,339.8947,1467.0,339.8948,3.0,339.9007,1.0,8.0,38.0,18.0,1.0,1.4,0.7,Time
,,S03,1,male,24,anonymized,Serial_Dependence_U,2023.2.3,Win32,60.24096385542697,,,,,,339.90079999999995,344.0,1.0,339.9009000000001,344.0,,,,343.8939000000001,344.3928,343.3774000000001,343.8937,340.91140000000007,343.3773,344.3928,344.8927,344.8927,346.42600000000004,910.0,346.4261,1.0,346.43179999999995,1.0,9.0,39.0,23.0,1.0,1.4,0.3,Time
,,S03,1,male,24,anonymized,Serial_Dependence_U,2023.2.3,Win32,60.24096385542697,,,,,,346.432,314.0,1.0,346.432,314.0,,,,350.0252,350.5243,349.5082,350.02500000000003,347.44250000000005,349.50800000000004,350.5243,351.0242,351.0242,351.60760000000005,176.0,351.6077,1.0,351.61340000000007,1.0,10.0,40.0,1.0,1.0,1.0,0.3,Time
,,S03,1,male,24,anonymized,Serial_Dependence_U,2023.2.3,Win32,60.24096385542697,,,,,,351.61350000000004,215.0,1.0,351.6136,215.0,,,,355.5732,356.0724000000001,355.0567,355.5731,352.62429999999995,355.0565,356.0724000000001,356.5723,356.5723,358.2887,1228.0,358.2888,2.0,358.2946,1.0,11.0,41.0,28.0,1.0,1.4,0.7,Time
,,S03,1,male,24,anonymized,Serial_Dependence_U,2023.2.3,Win32,60.24096385542697,,,,,,358.29479999999995,23.0,1.0,358.29479999999995,23.0,,,,361.8877,362.38700000000006,361.3712,361.8876,359.30510000000004,361.3711,362.38700000000006,362.8869000000001,362.8869000000001,364.8531,1301.0,364.8532,5.0,364.8593,1.0,12.0,42.0,11.0,1.0,1.0,0.3,Time
,,S03,1,male,24,anonymized,Serial_Dependence_U,2023.2.3,Win32,60.24096385542697,,,,,,364.8595,204.0,1.0,364.8596,204.0,,,,368.6188,369.1181,368.1025,368.6186,365.8696,368.1022,369.1181,369.6179000000001,369.6179000000001,371.61750000000006,1595.0,371.6176,5.0,371.62340000000006,1.0,13.0,43.0,27.0,1.0,1.2,0.7,Time
,,S03,1,male,24,anonymized,Serial_Dependence_U,2023.2.3,Win32,60.24096385542697,,,,,,371.6235,181.0,1.0,371.6236,181.0,,,,374.9832,375.4826000000001,374.4668,374.98300000000006,372.6341000000001,374.4666,375.4826000000001,375.9824,375.9824,377.98190000000005,1442.0,377.982,5.0,377.9878,1.0,14.0,44.0,15.0,1.0,0.8,0.7,Time
,,S03,1,male,24,anonymized,Serial_Dependence_U,2023.2.3,Win32,60.24096385542697,,,,,,377.9879000000001,64.0,1.0,377.98800000000006,64.0,,,,381.581,382.0802,381.0646,381.5809,378.9985,381.0644000000001,382.0802,382.57990000000007,382.57990000000007,384.0633,683.0,384.0633,1.0,384.0691,1.0,15.0,45.0,21.0,1.0,1.0,0.3,Time
,,S03,1,male,24,anonymized,Serial_Dependence_U,2023.2.3,Win32,60.24096385542697,,,,,,384.0693,201.0,1.0,384.0694000000001,201.0,,,,388.2287,388.7281,387.7123,388.2286,385.0797,387.7122,388.7281,389.2279000000001,389.2279000000001,390.9943,1404.0,390.9943,2.0,391.0005000000001,1.0,16.0,46.0,29.0,1.0,1.6,0.7,Time
,,S03,1,male,24,anonymized,Serial_Dependence_U,2023.2.3,Win32,60.24096385542697,,,,,,391.0008,233.0,1.0,391.0008,233.0,,,,394.36000000000007,394.8592,393.84350000000006,394.3598,392.0107,393.8434000000001,394.8592,395.3591,395.3591,396.9089000000001,1142.0,396.9090000000001,5.0,396.9148,1.0,17.0,47.0,25.0,1.0,0.8,0.7,Time
,,S03,1,male,24,anonymized,Serial_Dependence_U,2023.2.3,Win32,60.24096385542697,,,,,,396.915,66.0,1.0,396.9151,66.0,,,,401.1076000000001,401.607,400.5912,401.1075,397.92550000000006,400.59100000000007,401.607,402.1068,402.1068,403.5733,1121.0,403.5734000000001,2.0,403.5793,1.0,18.0,48.0,24.0,1.0,1.6,0.3,Time
,,S03,1,male,24,anonymized,Serial_Dependence_U,2023.2.3,Win32,60.24096385542697,,,,,,403.57950000000005,195.0,1.0,403.57950000000005,195.0,,,,407.3557,407.8548,406.83900000000006,407.35550000000006,404.5731,406.8389000000001,407.8548,408.3545,408.3545,410.3543,1550.0,410.35440000000006,4.0,410.3603,1.0,19.0,49.0,22.0,1.0,1.2,0.3,Time
,,S03,1,male,24,anonymized,Serial_Dependence_U,2023.2.3,Win32,60.24096385542697,,,,,,410.3606,29.0,1.0,410.3606,29.0,,,,414.5365000000001,415.0357,414.02,414.5363,411.3541,414.01990000000006,415.0357,415.5356,415.5356,417.9852,2040.0,417.9852,4.0,417.99140000000006,1.0,20.0,50.0,4.0,1.0,1.6,0.3,Time
,,S03,1,male,24,anonymized,Serial_Dependence_U,2023.2.3,Win32,60.24096385542697,,,,,,417.9915,252.0,1.0,417.9916,252.0,,,,421.5506,422.0498,421.0342,421.55050000000006,419.0015,421.0340000000001,422.0498,422.5498,422.5499000000001,424.5498,1553.0,424.55000000000007,5.0,424.5556,1.0,21.0,51.0,26.0,1.0,1.0,0.7,Time
,,S03,1,male,24,anonymized,Serial_Dependence_U,2023.2.3,Win32,60.24096385542697,,,,,,424.5558,332.0,1.0,424.556,332.0,,,,428.3147,428.8142,427.7985000000001,428.3146,425.5661,427.7983,428.8142,429.3141,429.3141,431.6469000000001,1951.0,431.6469000000001,5.0,431.65350000000007,1.0,22.0,52.0,17.0,1.0,1.2,0.7,Time
,,S03,1,male,24,anonymized,Serial_Dependence_U,2023.2.3,Win32,60.24096385542697,,,,,,431.6537,71.0,1.0,431.6538,71.0,,,,435.8457,436.34490000000005,435.3293,435.8456000000001,432.6633,435.3291,436.34490000000005,436.845,436.845,437.41190000000006,183.0,437.412,1.0,437.4177,1.0,23.0,53.0,14.0,1.0,1.6,0.3,Time
,,S03,1,male,24,anonymized,Serial_Dependence_U,2023.2.3,Win32,60.24096385542697,,,,,,437.4178,322.0,1.0,437.4179000000001,322.0,,,,441.3773,441.8765,440.8608,441.3772,438.4279000000001,440.8607,441.8765,442.3764000000001,442.3765,447.5750000000001,1325.0,447.5751,2.0,447.5813,1.0,24.0,54.0,8.0,1.0,1.4,0.7,Time
,,S03,1,male,24,anonymized,Serial_Dependence_U,2023.2.3,Win32,60.24096385542697,,,,,,447.58150000000006,132.0,1.0,447.5816,132.0,,,,450.9741,451.4733,450.45740000000006,450.9740000000001,448.5914000000001,450.4573,451.4733,451.97300000000007,451.97300000000007,454.5726,1633.0,454.5727,5.0,454.5784,1.0,25.0,55.0,0.0,1.0,0.8,0.3,Time
,,S03,1,male,24,anonymized,Serial_Dependence_U,2023.2.3,Win32,60.24096385542697,,,,,,454.5786,192.0,1.0,454.5787,192.0,,,,458.1384000000001,458.63740000000007,457.6219,458.1382,455.5891,457.6217,458.63740000000007,459.13740000000007,459.1375000000001,461.3537,1680.0,461.3538,5.0,461.36000000000007,1.0,26.0,56.0,16.0,1.0,1.0,0.7,Time
,,S03,1,male,24,anonymized,Serial_Dependence_U,2023.2.3,Win32,60.24096385542697,,,,,,461.3603,356.0,1.0,461.3603,356.0,,,,465.3524000000001,465.8517,464.8359,465.3523,462.3701,464.8358,465.8518,466.3516,466.3516,468.9509000000001,1932.0,468.951,5.0,468.9572,1.0,27.0,57.0,13.0,1.0,1.4,0.3,Time
,,S03,1,male,24,anonymized,Serial_Dependence_U,2023.2.3,Win32,60.24096385542697,,,,,,468.9573,240.0,1.0,468.95740000000006,240.0,,,,472.35,472.8492,471.8334000000001,472.3499000000001,469.9674000000001,471.8333,472.8492,473.3490000000001,473.3491,473.9992,164.0,473.9993,1.0,474.0052,1.0,28.0,58.0,20.0,1.0,0.8,0.3,Time
,,S03,1,male,24,anonymized,Serial_Dependence_U,2023.2.3,Win32,60.24096385542697,,,,,,474.0054000000001,52.0,1.0,474.0055000000001,52.0,,,,477.9981,478.4972,477.48160000000007,477.9979000000001,475.0159000000001,477.4815000000001,478.4972,478.9972,478.9972,480.9135,420.0,480.9136,1.0,480.9198,1.0,29.0,59.0,3.0,1.0,1.4,0.3,Time
,,S03,1,male,24,anonymized,Serial_Dependence_U,2023.2.3,Win32,60.24096385542697,,,,,,480.9199000000001,97.0,2.0,482.8125,97.0,s,1.8865999999999303,,487.0118,487.51110000000006,486.49529999999993,487.0117,483.82950000000005,486.4951,487.51110000000006,488.0109000000001,488.0110000000001,488.9274,221.0,488.9275,1.0,488.9332,2.0,0.0,60.0,4.0,1.0,1.6,0.3,Time
,,S03,1,male,24,anonymized,Serial_Dependence_U,2023.2.3,Win32,60.24096385542697,,,,,,488.9334000000001,106.0,2.0,488.93410000000006,106.0,,,,492.6932000000001,493.1925,492.177,492.6931000000001,489.9440000000001,492.1766,493.1925,493.6922,493.69229999999993,495.8916,1583.0,495.8917,5.0,495.8975,2.0,1.0,61.0,27.0,1.0,1.2,0.7,Time
,,S03,1,male,24,anonymized,Serial_Dependence_U,2023.2.3,Win32,60.24096385542697,,,,,,495.8977,235.0,2.0,495.8977,235.0,,,,499.4577000000001,499.95679999999993,498.941,499.4575000000001,496.9084,498.94090000000006,499.95679999999993,500.4567,500.4567,502.6561,1645.0,502.6562,5.0,502.6623,2.0,2.0,62.0,6.0,1.0,1.0,0.7,Time
,,S03,1,male,24,anonymized,Serial_Dependence_U,2023.2.3,Win32,60.24096385542697,,,,,,502.6625,242.0,2.0,502.6626,242.0,,,,506.6218,507.1210000000001,506.1054,506.6217,503.6728,506.1052,507.1210000000001,507.6209000000001,507.6209000000001,509.8205,1759.0,509.8205,4.0,509.8274,2.0,3.0,63.0,8.0,1.0,1.4,0.7,Time
,,S03,1,male,24,anonymized,Serial_Dependence_U,2023.2.3,Win32,60.24096385542697,,,,,,509.8277000000001,330.0,2.0,509.8277000000001,330.0,,,,513.8193,514.3186000000001,513.3027999999999,513.8191,510.8369,513.3027,514.3187,514.8185000000001,514.8185000000001,516.9513,1582.0,516.9515,4.0,516.9576000000001,2.0,4.0,64.0,3.0,1.0,1.4,0.3,Time
,,S03,1,male,24,anonymized,Serial_Dependence_U,2023.2.3,Win32,60.24096385542697,,,,,,516.9578,70.0,2.0,516.9578,70.0,,,,520.3504,520.8497,519.8340000000001,520.3503,517.9679000000001,519.8339000000001,520.8497,521.3496,521.3496,522.4826,711.0,522.4827,2.0,522.4883,2.0,5.0,65.0,20.0,1.0,0.8,0.3,Time
,,S03,1,male,24,anonymized,Serial_Dependence_U,2023.2.3,Win32,60.24096385542697,,,,,,522.4885,122.0,2.0,522.4886,122.0,,,,525.8486,526.3477,525.3317999999999,525.8484000000001,523.4993,525.3316,526.3477,526.8477,526.8477,528.3143,1032.0,528.3143,4.0,528.3203,2.0,6.0,66.0,25.0,1.0,0.8,0.7,Time
,,S03,1,male,24,anonymized,Serial_Dependence_U,2023.2.3,Win32,60.24096385542697,,,,,,528.3205,209.0,2.0,528.3206,209.0,,,,531.9132999999999,532.4125,531.3965000000001,531.9132,529.3304,531.3964000000001,532.4125,532.9123,532.9124,534.6786000000001,1222.0,534.6787,4.0,534.6848,2.0,7.0,67.0,11.0,1.0,1.0,0.3,Time
,,S03,1,male,24,anonymized,Serial_Dependence_U,2023.2.3,Win32,60.24096385542697,,,,,,534.6850000000001,68.0,2.0,534.6850000000001,68.0,,,,538.8275,539.3267,538.311,538.8274,535.6785000000001,538.3109000000001,539.3267999999999,539.8267,539.8267,541.5764,1315.0,541.5764,2.0,541.5822,2.0,8.0,68.0,19.0,1.0,1.6,0.7,Time
,,S03,1,male,24,anonymized,Serial_Dependence_U,2023.2.3,Win32,60.24096385542697,,,,,,541.5825000000001,257.0,2.0,541.5825000000001,257.0,,,,545.3417,545.8412,544.8254000000001,545.3416,542.5928,544.8253,545.8412,546.3411,546.3411,548.1408,1233.0,548.1409000000001,3.0,548.1466,2.0,9.0,69.0,17.0,1.0,1.2,0.7,Time
,,S03,1,male,24,anonymized,Serial_Dependence_U,2023.2.3,Win32,60.24096385542697,,,,,,548.1469000000001,218.0,2.0,548.147,218.0,,,,551.9064000000001,552.4057,551.3899,551.9063,549.1572,551.3897,552.4057,552.9056,552.9056,554.4553,1177.0,554.4554,3.0,554.4612,2.0,10.0,70.0,7.0,1.0,1.2,0.7,Time
,,S03,1,male,24,anonymized,Serial_Dependence_U,2023.2.3,Win32,60.24096385542697,,,,,,554.4612999999999,160.0,2.0,554.4612999999999,160.0,,,,558.2543,558.7535,557.7379000000001,558.2541,555.4719000000001,557.7377,558.7535,559.2533,559.2534,560.653,1103.0,560.6531,2.0,560.6589,2.0,11.0,71.0,12.0,1.0,1.2,0.3,Time
,,S03,1,male,24,anonymized,Serial_Dependence_U,2023.2.3,Win32,60.24096385542697,,,,,,560.6591,205.0,2.0,560.6591,205.0,,,,564.019,564.5183,563.5025,564.0187999999999,561.6698,563.5024000000001,564.5183,565.0181,565.0181,566.951,1237.0,566.951,5.0,566.9571,2.0,12.0,72.0,15.0,1.0,0.8,0.7,Time
,,S03,1,male,24,anonymized,Serial_Dependence_U,2023.2.3,Win32,60.24096385542697,,,,,,566.9572999999999,74.0,2.0,566.9574000000001,74.0,,,,571.1332,571.6325,570.6165000000001,571.133,567.9508,570.6164000000001,571.6325,572.1323,572.1323,574.0654000000001,1182.0,574.0655,2.0,574.0712,2.0,13.0,73.0,14.0,1.0,1.6,0.3,Time
,,S03,1,male,24,anonymized,Serial_Dependence_U,2023.2.3,Win32,60.24096385542697,,,,,,574.0714,60.0,2.0,574.0714,60.0,,,,578.0309000000001,578.5300000000001,577.5142999999999,578.0307,575.0817,577.5142,578.5301000000001,579.0300000000001,579.0300000000001,580.613,1230.0,580.6131,2.0,580.6187,2.0,14.0,74.0,18.0,1.0,1.4,0.7,Time
,,S03,1,male,24,anonymized,Serial_Dependence_U,2023.2.3,Win32,60.24096385542697,,,,,,580.6189,68.0,2.0,580.619,68.0,,,,584.4117,584.9113,583.8955000000001,584.4116,581.6295,583.8954000000001,584.9113,585.4111,585.4111,586.061,270.0,586.061,1.0,586.0667,2.0,15.0,75.0,22.0,1.0,1.2,0.3,Time
,,S03,1,male,24,anonymized,Serial_Dependence_U,2023.2.3,Win32,60.24096385542697,,,,,,586.067,355.0,2.0,586.067,355.0,,,,590.2267,590.7259,589.7102,590.2266000000001,587.0776000000001,589.7101,590.7259,591.2257999999999,591.2257999999999,593.6917,2036.0,593.6918,4.0,593.6978,2.0,16.0,76.0,29.0,1.0,1.6,0.7,Time
,,S03,1,male,24,anonymized,Serial_Dependence_U,2023.2.3,Win32,60.24096385542697,,,,,,593.6980000000001,268.0,2.0,593.6981000000001,268.0,,,,597.6907,598.1901,597.1743,597.6906,594.7084000000001,597.1742,598.1901,598.6899000000001,598.69,600.8063,935.0,600.8064,1.0,600.8126,2.0,17.0,77.0,13.0,1.0,1.4,0.3,Time
,,S03,1,male,24,anonymized,Serial_Dependence_U,2023.2.3,Win32,60.24096385542697,,,,,,600.8127999999999,165.0,2.0,600.8127999999999,165.0,,,,604.4053,604.9045000000001,603.8886,604.4051000000001,601.8228,603.8885,604.9045000000001,605.4044,605.4044,606.6542,845.0,606.6542999999999,2.0,606.6601,2.0,18.0,78.0,21.0,1.0,1.0,0.3,Time
,,S03,1,male,24,anonymized,Serial_Dependence_U,2023.2.3,Win32,60.24096385542697,,,,,,606.6603,309.0,2.0,606.6603,309.0,,,,610.0201000000001,610.5192,609.5035,610.0199000000001,607.6705000000001,609.5033,610.5192,611.0191,611.0191,612.2523,828.0,612.2524000000001,3.0,612.2582,2.0,19.0,79.0,5.0,1.0,0.8,0.7,Time
,,S03,1,male,24,anonymized,Serial_Dependence_U,2023.2.3,Win32,60.24096385542697,,,,,,612.2583,8.0,2.0,612.2584,8.0,,,,616.0511,616.5505,615.5348,616.0511,613.2687999999999,615.5346000000001,616.5505,617.0504000000001,617.0504000000001,618.5002,1023.0,618.5002999999999,2.0,618.5059000000001,2.0,20.0,80.0,2.0,1.0,1.2,0.3,Time
,,S03,1,male,24,anonymized,Serial_Dependence_U,2023.2.3,Win32,60.24096385542697,,,,,,618.5061000000001,201.0,2.0,618.5062,201.0,,,,621.8992,622.3985,621.3829000000001,621.8991,619.5168,621.3827,622.3985,622.8984,622.8984,624.2151,916.0,624.2151,4.0,624.2209,2.0,21.0,81.0,0.0,1.0,0.8,0.3,Time
,,S03,1,male,24,anonymized,Serial_Dependence_U,2023.2.3,Win32,60.24096385542697,,,,,,624.2211,84.0,2.0,624.2211,84.0,,,,628.2138,628.7131,627.697,628.2137,625.2314000000001,627.6967999999999,628.7131,629.2129000000001,629.2129000000001,631.2792,1621.0,631.2792999999999,4.0,631.2853,2.0,22.0,82.0,23.0,1.0,1.4,0.3,Time
,,S03,1,male,24,anonymized,Serial_Dependence_U,2023.2.3,Win32,60.24096385542697,,,,,,631.2855000000001,120.0,2.0,631.2856,120.0,,,,635.4778,635.9773,634.9615,635.4777,632.2957,634.9614,635.9773,636.4771000000001,636.4771000000001,637.0938,159.0,637.094,1.0,637.0997,2.0,23.0,83.0,24.0,1.0,1.6,0.3,Time
,,S03,1,male,24,anonymized,Serial_Dependence_U,2023.2.3,Win32,60.24096385542697,,,,,,637.0998,205.0,2.0,637.0999,205.0,,,,640.4929000000001,640.9922,639.9764,640.4928,638.1104,639.9762999999999,640.9923,641.4920000000001,641.4920000000001,642.0255000000001,145.0,642.0255000000001,1.0,642.0313,2.0,24.0,84.0,10.0,1.0,0.8,0.3,Time
,,S03,1,male,24,anonymized,Serial_Dependence_U,2023.2.3,Win32,60.24096385542697,,,,,,642.0315,328.0,2.0,642.0315,328.0,,,,646.1907,646.6901,645.6745000000001,646.1906,643.0419,645.6743,646.6901,647.1901,647.1901,649.3061,1509.0,649.3062,2.0,649.3122999999999,2.0,25.0,85.0,9.0,1.0,1.6,0.7,Time
,,S03,1,male,24,anonymized,Serial_Dependence_U,2023.2.3,Win32,60.24096385542697,,,,,,649.3125,252.0,2.0,649.3126,252.0,,,,652.8720000000001,653.3713,652.3556,652.8719000000001,650.3228,652.3555,653.3713,653.8712,653.8712,655.2708,924.0,655.2708,2.0,655.2766,2.0,26.0,86.0,26.0,1.0,1.0,0.7,Time
,,S03,1,male,24,anonymized,Serial_Dependence_U,2023.2.3,Win32,60.24096385542697,,,,,,655.2767,145.0,2.0,655.2768,145.0,,,,658.8367,659.336,658.3202,658.8366,656.2876,658.3201,659.336,659.8358,659.8358,661.9854,1696.0,661.9855,5.0,661.9913,2.0,27.0,87.0,16.0,1.0,1.0,0.7,Time
,,S03,1,male,24,anonymized,Serial_Dependence_U,2023.2.3,Win32,60.24096385542697,,,,,,661.9916000000001,14.0,2.0,661.9916000000001,14.0,,,,665.9508,666.45,665.4345000000001,665.9507,663.0018,665.4344000000001,666.45,666.95,666.95,669.2167,1876.0,669.2167999999999,5.0,669.2226,2.0,28.0,88.0,28.0,1.0,1.4,0.7,Time
,,S03,1,male,24,anonymized,Serial_Dependence_U,2023.2.3,Win32,60.24096385542697,,,,,,669.2228,40.0,2.0,669.2229000000001,40.0,,,,672.7988,673.2979,672.2821,672.7985,670.2161,672.282,673.2979,673.7977999999999,673.7977999999999,674.5145,182.0,674.5146,1.0,674.5205000000001,2.0,29.0,89.0,1.0,1.0,1.0,0.3,Time
,,S03,1,male,24,anonymized,Serial_Dependence_U,2023.2.3,Win32,60.24096385542697,,,,,,674.5206000000001,319.0,3.0,676.4136,319.0,s,1.8731000000000224,,680.0126,680.5121,679.4963,680.0125,677.4302,679.4962,680.5121,681.0119000000001,681.0119000000001,681.4785,136.0,681.4786,1.0,681.4843,3.0,0.0,90.0,1.0,1.0,1.0,0.3,Time
,,S03,1,male,24,anonymized,Serial_Dependence_U,2023.2.3,Win32,60.24096385542697,,,,,,681.4845,65.0,3.0,681.4851,65.0,,,,684.8446,685.3438,684.3280000000001,684.8444000000001,682.4952999999999,684.3279000000001,685.3438,685.8436,685.8436,686.9604,543.0,686.9604,1.0,686.9662,3.0,1.0,91.0,25.0,1.0,0.8,0.7,Time
,,S03,1,male,24,anonymized,Serial_Dependence_U,2023.2.3,Win32,60.24096385542697,,,,,,686.9662999999999,334.0,3.0,686.9664,334.0,,,,691.159,691.6582999999999,690.6425,691.1589,687.9768,690.6424000000001,691.6582999999999,692.1581,692.1581,693.5577999999999,884.0,693.5579,1.0,693.5636000000001,3.0,2.0,92.0,4.0,1.0,1.6,0.3,Time
,,S03,1,male,24,anonymized,Serial_Dependence_U,2023.2.3,Win32,60.24096385542697,,,,,,693.5638,62.0,3.0,693.5640000000001,62.0,,,,697.7235000000001,698.2228,697.207,697.7233,694.5745000000001,697.2067999999999,698.2228,698.7225000000001,698.7226,699.739,630.0,699.7391,1.0,699.7447,3.0,3.0,93.0,29.0,1.0,1.6,0.7,Time
,,S03,1,male,24,anonymized,Serial_Dependence_U,2023.2.3,Win32,60.24096385542697,,,,,,699.7449,149.0,3.0,699.745,149.0,,,,703.105,703.604,702.5885000000001,703.1049,700.7556000000001,702.5884000000001,703.604,704.1039000000001,704.1039000000001,705.1539,552.0,705.154,1.0,705.1598,3.0,4.0,94.0,5.0,1.0,0.8,0.7,Time
,,S03,1,male,24,anonymized,Serial_Dependence_U,2023.2.3,Win32,60.24096385542697,,,,,,705.1600000000001,48.0,3.0,705.1601,48.0,,,,708.753,709.2522,708.2364000000001,708.7529000000001,706.1705000000001,708.2363,709.2522,709.7519000000001,709.7519000000001,710.7522,529.0,710.7522,1.0,710.7581,3.0,5.0,95.0,21.0,1.0,1.0,0.3,Time
,,S03,1,male,24,anonymized,Serial_Dependence_U,2023.2.3,Win32,60.24096385542697,,,,,,710.7582,22.0,3.0,710.7583,22.0,,,,714.1511,714.6505000000001,713.6349,714.1510000000001,711.7685,713.6347,714.6505000000001,715.1503,715.1503,715.7005,124.0,715.7006,1.0,715.7065,3.0,6.0,96.0,10.0,1.0,0.8,0.3,Time
,,S03,1,male,24,anonymized,Serial_Dependence_U,2023.2.3,Win32,60.24096385542697,,,,,,715.7066,86.0,3.0,715.7066,86.0,,,,719.8824000000001,720.3819000000001,719.3660000000001,719.8822,716.7003,719.3659,720.3819000000001,720.8816,720.8816,722.4646,788.0,722.4648,1.0,722.4705,3.0,7.0,97.0,14.0,1.0,1.6,0.3,Time
,,S03,1,male,24,anonymized,Serial_Dependence_U,2023.2.3,Win32,60.24096385542697,,,,,,722.4706,0.0,3.0,722.4707,0.0,,,,726.2651000000001,726.7628,725.7475000000001,726.2649,723.4812999999999,725.7475000000001,726.7628,727.2627,727.2627,728.5125,826.0,728.5125,1.0,728.5186,3.0,8.0,98.0,12.0,1.0,1.2,0.3,Time
,,S03,1,male,24,anonymized,Serial_Dependence_U,2023.2.3,Win32,60.24096385542697,,,,,,728.5187,230.0,3.0,728.5187999999999,230.0,,,,732.6614000000001,733.1609000000001,732.1451000000001,732.6613,729.5125,732.1450000000001,733.1609000000001,733.6607,733.6607,734.6774,600.0,734.6774,1.0,734.6831999999999,3.0,9.0,99.0,9.0,1.0,1.6,0.7,Time
,,S03,1,male,24,anonymized,Serial_Dependence_U,2023.2.3,Win32,60.24096385542697,,,,,,734.6834000000001,218.0,3.0,734.6834000000001,218.0,,,,738.4429000000001,738.9422,737.9265,738.4427,735.6936000000001,737.9263,738.9422,739.4421,739.4421,740.5588,654.0,740.5588,1.0,740.5646,3.0,10.0,100.0,7.0,1.0,1.2,0.7,Time
,,S03,1,male,24,anonymized,Serial_Dependence_U,2023.2.3,Win32,60.24096385542697,,,,,,740.5648,40.0,3.0,740.5648,40.0,,,,744.5576,745.0568,744.0406,744.5574,741.5751,744.0406,745.0568,745.5567,745.5567,746.2901,125.0,746.2902,1.0,746.2959000000001,3.0,11.0,101.0,23.0,1.0,1.4,0.3,Time
,,S03,1,male,24,anonymized,Serial_Dependence_U,2023.2.3,Win32,60.24096385542697,,,,,,746.2961,5.0,3.0,746.2962,5.0,,,,750.2552999999999,750.7547999999999,749.7391,750.2552,747.3065,749.739,750.7549,751.2547,751.2547,751.9545,303.0,751.9546,1.0,751.9604,3.0,12.0,102.0,8.0,1.0,1.4,0.7,Time
,,S03,1,male,24,anonymized,Serial_Dependence_U,2023.2.3,Win32,60.24096385542697,,,,,,751.9605,21.0,3.0,751.9606,21.0,,,,755.5537,756.0531,755.0374,755.5536000000001,752.9712,755.0372,756.0531,756.5529,756.5529,757.0698,170.0,757.0699000000001,1.0,757.0757,3.0,13.0,103.0,11.0,1.0,1.0,0.3,Time
,,S03,1,male,24,anonymized,Serial_Dependence_U,2023.2.3,Win32,60.24096385542697,,,,,,757.0759,305.0,3.0,757.076,305.0,,,,761.2682,761.7678,760.7520000000001,761.2681,758.086,760.7518,761.7678,762.2676,762.2676,762.7511000000001,116.0,762.7512,1.0,762.7570000000001,3.0,14.0,104.0,24.0,1.0,1.6,0.3,Time
,,S03,1,male,24,anonymized,Serial_Dependence_U,2023.2.3,Win32,60.24096385542697,,,,,,762.7572,0.0,3.0,762.7572,0.0,,,,766.5,766.9993,765.9836,766.4999,763.7509000000001,765.9835,766.9993,767.499,767.499,769.1990000000001,1305.0,769.1990000000001,4.0,769.2052,3.0,15.0,105.0,27.0,1.0,1.2,0.7,Time
,,S03,1,male,24,anonymized,Serial_Dependence_U,2023.2.3,Win32,60.24096385542697,,,,,,769.2054,359.0,3.0,769.2054,359.0,,,,772.5980000000001,773.0973,772.0815,772.5978,770.2155,772.0814,773.0973,773.5971000000001,773.5971000000001,774.9637,1327.0,774.9638,5.0,774.9695,3.0,16.0,106.0,20.0,1.0,0.8,0.3,Time
,,S03,1,male,24,anonymized,Serial_Dependence_U,2023.2.3,Win32,60.24096385542697,,,,,,774.9697,301.0,3.0,774.9697,301.0,,,,778.9625000000001,779.4617,778.446,778.9624000000001,775.9801,778.4458,779.4617,779.9616,779.9616,781.6947,1314.0,781.6947,2.0,781.7005,3.0,17.0,107.0,13.0,1.0,1.4,0.3,Time
,,S03,1,male,24,anonymized,Serial_Dependence_U,2023.2.3,Win32,60.24096385542697,,,,,,781.7007,36.0,3.0,781.7008,36.0,,,,785.6769,786.1761,785.1604000000001,785.6768,782.6945000000001,785.1603,786.1761,786.6759000000001,786.6759000000001,788.0088,919.0,788.0089,1.0,788.0147,3.0,18.0,108.0,3.0,1.0,1.4,0.3,Time
,,S03,1,male,24,anonymized,Serial_Dependence_U,2023.2.3,Win32,60.24096385542697,,,,,,788.015,315.0,3.0,788.015,315.0,,,,792.1746,792.6736999999999,791.6582999999999,792.1745000000001,789.0256,791.6582,792.6736999999999,793.1738,793.1738,794.6403,1454.0,794.6403,2.0,794.6460000000001,3.0,19.0,109.0,19.0,1.0,1.6,0.7,Time
,,S03,1,male,24,anonymized,Serial_Dependence_U,2023.2.3,Win32,60.24096385542697,,,,,,794.6462,287.0,3.0,794.6462,287.0,,,,798.4392,798.9384000000001,797.9227999999999,798.4390000000001,795.6568,797.9227,798.9384000000001,799.4381,799.4381,800.1385,303.0,800.1385,1.0,800.1442,3.0,20.0,110.0,22.0,1.0,1.2,0.3,Time
,,S03,1,male,24,anonymized,Serial_Dependence_U,2023.2.3,Win32,60.24096385542697,,,,,,800.1444,296.0,3.0,800.1446,296.0,,,,803.5372,804.0364000000001,803.0210000000001,803.5372,801.1548,803.0208,804.0364000000001,804.5365,804.5366,805.1866,224.0,805.1867,1.0,805.1924,3.0,21.0,111.0,0.0,1.0,0.8,0.3,Time
,,S03,1,male,24,anonymized,Serial_Dependence_U,2023.2.3,Win32,60.24096385542697,,,,,,805.1926,184.0,3.0,805.1926,184.0,,,,808.7521,809.2516,808.2357999999999,808.7520000000001,806.2032,808.2357,809.2516,809.7515000000001,809.7515000000001,811.004,746.0,811.0041,2.0,811.0119000000001,3.0,22.0,112.0,6.0,1.0,1.0,0.7,Time
,,S03,1,male,24,anonymized,Serial_Dependence_U,2023.2.3,Win32,60.24096385542697,,,,,,811.0121,192.0,3.0,811.0121,192.0,,,,814.3672,814.8664000000001,813.8505,814.3670000000001,812.0178,813.8503,814.8664000000001,815.3662,815.3662,816.3494000000001,596.0,816.3496,2.0,816.3555,3.0,23.0,113.0,15.0,1.0,0.8,0.7,Time
,,S03,1,male,24,anonymized,Serial_Dependence_U,2023.2.3,Win32,60.24096385542697,,,,,,816.3557,164.0,3.0,816.3557999999999,164.0,,,,819.9151,820.4145000000001,819.3985,819.9150000000001,817.3660000000001,819.3984,820.4145000000001,820.9143,820.9143,822.2642999999999,883.0,822.2642999999999,2.0,822.2700000000001,3.0,24.0,114.0,26.0,1.0,1.0,0.7,Time
,,S03,1,male,24,anonymized,Serial_Dependence_U,2023.2.3,Win32,60.24096385542697,,,,,,822.2703,303.0,3.0,822.2703,303.0,,,,825.8299000000001,826.3292,825.3134000000001,825.8297,823.2806,825.3133,826.3292,826.8288,826.8288,828.3119,1034.0,828.3121,3.0,828.3177999999999,3.0,25.0,115.0,16.0,1.0,1.0,0.7,Time
,,S03,1,male,24,anonymized,Serial_Dependence_U,2023.2.3,Win32,60.24096385542697,,,,,,828.3180000000001,329.0,3.0,828.3180000000001,329.0,,,,832.1109,832.6102999999999,831.5946,832.1107999999999,829.3287,831.5944000000001,832.6104,833.1101,833.1102,834.3932,671.0,834.3933,1.0,834.399,3.0,26.0,116.0,2.0,1.0,1.2,0.3,Time
,,S03,1,male,24,anonymized,Serial_Dependence_U,2023.2.3,Win32,60.24096385542697,,,,,,834.3992,264.0,3.0,834.3992999999999,264.0,,,,838.1589,838.6582999999999,837.6423,838.1587999999999,835.4098,837.642,838.6582999999999,839.1582000000001,839.1582000000001,840.8409,1141.0,840.8409,3.0,840.8472000000002,3.0,27.0,117.0,17.0,1.0,1.2,0.7,Time
,,S03,1,male,24,anonymized,Serial_Dependence_U,2023.2.3,Win32,60.24096385542697,,,,,,840.8474000000001,198.0,3.0,840.8474000000001,198.0,,,,844.8067000000001,845.3059999999999,844.2907000000001,844.8066,841.8577000000001,844.2906,845.3061,845.8058,845.8058,847.6719999999999,1275.0,847.6719999999999,2.0,847.6777000000001,3.0,28.0,118.0,18.0,1.0,1.4,0.7,Time
,,S03,1,male,24,anonymized,Serial_Dependence_U,2023.2.3,Win32,60.24096385542697,,,,,,847.6779,226.0,3.0,847.6779999999999,226.0,,,,851.6376,852.1371,851.1212000000002,851.6374999999999,848.6886000000001,851.1211000000001,852.1371,852.6366,852.6366,854.1199999999999,1110.0,854.1199999999999,2.0,854.1258,3.0,29.0,119.0,28.0,1.0,1.4,0.7,Time
,,S03,1,male,24,anonymized,Serial_Dependence_U,2023.2.3,Win32,60.24096385542697,,,,,,854.126,260.0,4.0,855.8024999999999,260.0,s,1.6606000000001586,,859.6012999999999,860.1009,859.0852000000001,859.6011,856.8193,859.0849999999999,860.1009,860.6006,860.6006,862.5169999999999,177.0,862.5171,1.0,862.5231,4.0,0.0,120.0,2.0,1.0,1.2,0.3,Time
,,S03,1,male,24,anonymized,Serial_Dependence_U,2023.2.3,Win32,60.24096385542697,,,,,,862.5233,223.0,4.0,862.5239999999999,223.0,,,,866.083,866.5819,865.5664,866.0827000000002,863.5334,865.5663,866.5819999999999,867.0817999999999,867.0817999999999,868.3151,748.0,868.3153,2.0,868.3213,4.0,1.0,121.0,16.0,1.0,1.0,0.7,Time
,,S03,1,male,24,anonymized,Serial_Dependence_U,2023.2.3,Win32,60.24096385542697,,,,,,868.3214999999999,147.0,4.0,868.3216,147.0,,,,871.6639999999999,872.1636,871.1477000000001,871.6637999999999,869.3149999999999,871.1476,872.1636,872.6634999999999,872.6636,874.0797000000001,862.0,874.0798,4.0,874.0859,4.0,2.0,122.0,5.0,1.0,0.8,0.7,Time
,,S03,1,male,24,anonymized,Serial_Dependence_U,2023.2.3,Win32,60.24096385542697,,,,,,874.0862000000001,4.0,4.0,874.0862000000001,4.0,,,,878.2449,878.7443,877.7288,878.2449,875.0961,877.7287000000001,878.7444,879.2443,879.2443,880.6439999999999,988.0,880.6439999999999,1.0,880.65,4.0,3.0,123.0,19.0,1.0,1.6,0.7,Time
,,S03,1,male,24,anonymized,Serial_Dependence_U,2023.2.3,Win32,60.24096385542697,,,,,,880.6501000000001,188.0,4.0,880.6502000000002,188.0,,,,884.2429000000001,884.7424000000001,883.7266000000001,884.2428,881.6608,883.7266000000001,884.7424000000001,885.2424000000001,885.2424000000001,886.7921,1221.0,886.7922000000001,4.0,886.7979,4.0,4.0,124.0,21.0,1.0,1.0,0.3,Time
,,S03,1,male,24,anonymized,Serial_Dependence_U,2023.2.3,Win32,60.24096385542697,,,,,,886.7981,106.0,4.0,886.7982000000001,106.0,,,,890.7909999999999,891.2903,890.2747000000002,890.7909000000001,887.8082999999999,890.2744999999999,891.2903,891.7902000000001,891.7903,892.4069999999999,178.0,892.4071,1.0,892.4128,4.0,5.0,125.0,23.0,1.0,1.4,0.3,Time
,,S03,1,male,24,anonymized,Serial_Dependence_U,2023.2.3,Win32,60.24096385542697,,,,,,892.4129999999999,285.0,4.0,892.4131,285.0,,,,896.2059,896.7051,895.6894000000001,896.2058,893.4234999999999,895.6892000000001,896.7052000000001,897.2049999999999,897.2049999999999,898.5214000000001,854.0,898.5215,2.0,898.5272000000001,4.0,6.0,126.0,22.0,1.0,1.2,0.3,Time
,,S03,1,male,24,anonymized,Serial_Dependence_U,2023.2.3,Win32,60.24096385542697,,,,,,898.5274000000001,203.0,4.0,898.5274000000001,203.0,,,,902.1206,902.6198,901.6041,902.1205,899.5381,901.604,902.6198,903.1196,903.1196,904.6194,1127.0,904.6195,4.0,904.6253,4.0,7.0,127.0,11.0,1.0,1.0,0.3,Time
,,S03,1,male,24,anonymized,Serial_Dependence_U,2023.2.3,Win32,60.24096385542697,,,,,,904.6256,216.0,4.0,904.6256,216.0,,,,908.1853,908.6844,907.6687,908.1851,905.6358,907.6685,908.6845,909.1843,909.1843,911.2841,1526.0,911.2842000000002,5.0,911.29,4.0,8.0,128.0,26.0,1.0,1.0,0.7,Time
,,S03,1,male,24,anonymized,Serial_Dependence_U,2023.2.3,Win32,60.24096385542697,,,,,,911.2902,220.0,4.0,911.2903,220.0,,,,915.0495,915.5488,914.533,915.0494,912.3004,914.5329,915.5488,916.0486,916.0486,918.0317,1597.0,918.0318,5.0,918.0375,4.0,9.0,129.0,7.0,1.0,1.2,0.7,Time
,,S03,1,male,24,anonymized,Serial_Dependence_U,2023.2.3,Win32,60.24096385542697,,,,,,918.0377,11.0,4.0,918.0378,11.0,,,,922.1971,922.6964,921.6805,922.1969,919.048,921.6804,922.6964,923.1962,923.1962,924.8792,1297.0,924.8794,2.0,924.8858,4.0,10.0,130.0,9.0,1.0,1.6,0.7,Time
,,S03,1,male,24,anonymized,Serial_Dependence_U,2023.2.3,Win32,60.24096385542697,,,,,,924.8859,272.0,4.0,924.886,272.0,,,,929.0612,929.5604,928.5449,929.061,925.8792,928.5448,929.5604,930.0605,930.0605,930.8603,233.0,930.8605,1.0,930.8664,4.0,11.0,131.0,24.0,1.0,1.6,0.3,Time
,,S03,1,male,24,anonymized,Serial_Dependence_U,2023.2.3,Win32,60.24096385542697,,,,,,930.8666,223.0,4.0,930.8666,223.0,,,,934.46,934.9589,933.9435,934.4599,931.8768,933.9433,934.9589,935.4588,935.4588,936.0924,171.0,936.0924,1.0,936.0981,4.0,12.0,132.0,1.0,1.0,1.0,0.3,Time
,,S03,1,male,24,anonymized,Serial_Dependence_U,2023.2.3,Win32,60.24096385542697,,,,,,936.0983,248.0,4.0,936.0984,248.0,,,,940.0576,940.5567,939.541,940.0576,937.1085,939.5408,940.5567,941.0568,941.0568,942.5566,918.0,942.5566,1.0,942.5624,4.0,13.0,133.0,18.0,1.0,1.4,0.7,Time
,,S03,1,male,24,anonymized,Serial_Dependence_U,2023.2.3,Win32,60.24096385542697,,,,,,942.5625,314.0,4.0,942.5626,314.0,,,,945.9223,946.4216,945.4056,945.9221,943.5731,945.4055,946.4216,946.9214,946.9214,947.6215,262.0,947.6216,1.0,947.6272,4.0,14.0,134.0,25.0,1.0,0.8,0.7,Time
,,S03,1,male,24,anonymized,Serial_Dependence_U,2023.2.3,Win32,60.24096385542697,,,,,,947.6274,342.0,4.0,947.6274,342.0,,,,951.387,951.8865,950.8707,951.3869,948.638,950.8706,951.8865,952.3863,952.3863,953.9695,1117.0,953.9696,2.0,953.9754,4.0,15.0,135.0,17.0,1.0,1.2,0.7,Time
,,S03,1,male,24,anonymized,Serial_Dependence_U,2023.2.3,Win32,60.24096385542697,,,,,,953.9756,300.0,4.0,953.9756,300.0,,,,957.9682,958.4675,957.4518,957.9681,954.9858,957.4516,958.4675,958.9673,958.9674,959.9504,357.0,959.9505,1.0,959.9563,4.0,16.0,136.0,3.0,1.0,1.4,0.3,Time
,,S03,1,male,24,anonymized,Serial_Dependence_U,2023.2.3,Win32,60.24096385542697,,,,,,959.9564,233.0,4.0,959.9565,233.0,,,,963.7163,964.2156,963.1998,963.7162,960.9672000000002,963.1997,964.2156,964.7154,964.7154,966.1652,1286.0,966.1654,4.0,966.1711,4.0,17.0,137.0,27.0,1.0,1.2,0.7,Time
,,S03,1,male,24,anonymized,Serial_Dependence_U,2023.2.3,Win32,60.24096385542697,,,,,,966.1713,153.0,4.0,966.1713,153.0,,,,970.1141,970.6134,969.5975,970.1139,967.165,969.5974,970.6134,971.1132,971.1132,973.2129,1287.0,973.213,2.0,973.219,4.0,18.0,138.0,8.0,1.0,1.4,0.7,Time
,,S03,1,male,24,anonymized,Serial_Dependence_U,2023.2.3,Win32,60.24096385542697,,,,,,973.2192,182.0,4.0,973.2193,182.0,,,,976.995,977.4943,976.4786,976.9948,974.2126,976.4785,977.4943,977.9942,977.9942,978.9274,178.0,978.9275,1.0,978.9332,4.0,19.0,139.0,12.0,1.0,1.2,0.3,Time
,,S03,1,male,24,anonymized,Serial_Dependence_U,2023.2.3,Win32,60.24096385542697,,,,,,978.9334,189.0,4.0,978.9335,189.0,,,,983.1097,983.6088,982.5932,983.1096,979.9275,982.5931,983.6088,984.1089,984.1089,984.9256,375.0,984.9256,1.0,984.9314,4.0,20.0,140.0,14.0,1.0,1.6,0.3,Time
,,S03,1,male,24,anonymized,Serial_Dependence_U,2023.2.3,Win32,60.24096385542697,,,,,,984.9316,78.0,4.0,984.9316,78.0,,,,988.3078,988.8071,987.7914,988.3077000000002,985.9254,987.7913,988.8072,989.307,989.3071,991.3731,1209.0,991.3732,5.0,991.3789,4.0,21.0,141.0,0.0,1.0,0.8,0.3,Time
,,S03,1,male,24,anonymized,Serial_Dependence_U,2023.2.3,Win32,60.24096385542697,,,,,,991.3791,173.0,4.0,991.3792000000002,173.0,,,,995.3721,995.8715,994.8557000000002,995.372,992.3897,994.8556,995.8715,996.3712000000002,996.3713,996.9715,202.0,996.9716,1.0,996.9773,4.0,22.0,142.0,13.0,1.0,1.4,0.3,Time
,,S03,1,male,24,anonymized,Serial_Dependence_U,2023.2.3,Win32,60.24096385542697,,,,,,996.9774999999998,62.0,4.0,996.9776,62.0,,,,1000.5204,1001.0197000000002,1000.004,1000.5203,997.9713,1000.0038,1001.0197000000002,1001.5195,1001.5196,1003.4358,1259.0,1003.4358,4.0,1003.4416,4.0,23.0,143.0,6.0,1.0,1.0,0.7,Time
,,S03,1,male,24,anonymized,Serial_Dependence_U,2023.2.3,Win32,60.24096385542697,,,,,,1003.4418,135.0,4.0,1003.4418,135.0,,,,1007.5846,1008.084,1007.0682,1007.5844999999998,1004.4362000000002,1007.0681,1008.084,1008.5838,1008.5838,1010.7168,1650.0,1010.7168,3.0,1010.7225,4.0,24.0,144.0,29.0,1.0,1.6,0.7,Time
,,S03,1,male,24,anonymized,Serial_Dependence_U,2023.2.3,Win32,60.24096385542697,,,,,,1010.7227,270.0,4.0,1010.7227,270.0,,,,1014.1156,1014.6151,1013.5994000000002,1014.1155,1011.7331,1013.5992000000002,1014.6151,1015.1149,1015.1149,1015.9484,224.0,1015.9485,1.0,1015.9544,4.0,25.0,145.0,10.0,1.0,0.8,0.3,Time
,,S03,1,male,24,anonymized,Serial_Dependence_U,2023.2.3,Win32,60.24096385542697,,,,,,1015.9546,276.0,4.0,1015.9547,276.0,,,,1020.1469,1020.6463,1019.6306,1020.1468,1016.9644,1019.6304,1020.6463,1021.1462,1021.1462,1022.9292000000002,1227.0,1022.9293,2.0,1022.9354,4.0,26.0,146.0,4.0,1.0,1.6,0.3,Time
,,S03,1,male,24,anonymized,Serial_Dependence_U,2023.2.3,Win32,60.24096385542697,,,,,,1022.9356,349.0,4.0,1022.9357,349.0,,,,1026.3283,1026.8276,1025.8117000000002,1026.3281000000002,1023.9459,1025.8114999999998,1026.8276,1027.3274,1027.3275,1028.9604,1286.0,1028.9604,5.0,1028.9661,4.0,27.0,147.0,20.0,1.0,0.8,0.3,Time
,,S03,1,male,24,anonymized,Serial_Dependence_U,2023.2.3,Win32,60.24096385542697,,,,,,1028.9663,285.0,4.0,1028.9664000000002,285.0,,,,1032.9094,1033.4087,1032.393,1032.9092999999998,1029.9603000000002,1032.3928,1033.4087,1033.9085,1033.9086000000002,1035.6913,1406.0,1035.6914000000002,3.0,1035.6971,4.0,28.0,148.0,28.0,1.0,1.4,0.7,Time
,,S03,1,male,24,anonymized,Serial_Dependence_U,2023.2.3,Win32,60.24096385542697,,,,,,1035.6972999999998,296.0,4.0,1035.6972999999998,296.0,,,,1039.0573,1039.5564,1038.5407999999998,1039.0571,1036.708,1038.5405999999998,1039.5564,1040.0564,1040.0564,1041.2064,836.0,1041.2064,3.0,1041.2123,4.0,29.0,149.0,15.0,1.0,0.8,0.7,Time
,,S03,1,male,24,anonymized,Serial_Dependence_U,2023.2.3,Win32,60.24096385542697,,,,,,1041.2125999999998,284.0,5.0,1043.2551,284.0,s,2.031100000000152,,1047.0547,1047.5538,1046.5382,1047.0544999999995,1044.272,1046.538,1047.5538,1048.0537,1048.0537,1048.5873,184.0,1048.5873,1.0,1048.5929999999998,5.0,0.0,150.0,2.0,1.0,1.2,0.3,Time
,,S03,1,male,24,anonymized,Serial_Dependence_U,2023.2.3,Win32,60.24096385542697,,,,,,1048.5932000000005,89.0,5.0,1048.5938999999998,89.0,,,,1051.9862000000005,1052.4854,1051.4697,1051.9861,1049.6036,1051.4696,1052.4854999999998,1052.9854,1052.9854,1054.6183,943.0,1054.6184000000003,4.0,1054.6242000000002,5.0,1.0,151.0,20.0,1.0,0.8,0.3,Time
,,S03,1,male,24,anonymized,Serial_Dependence_U,2023.2.3,Win32,60.24096385542697,,,,,,1054.6244000000002,161.0,5.0,1054.6244000000002,161.0,,,,1058.784,1059.2831,1058.2675,1058.7839,1055.6349999999998,1058.2674000000002,1059.2831,1059.783,1059.7831,1061.6657999999998,1463.0,1061.6657999999998,2.0,1061.6721000000002,5.0,2.0,152.0,29.0,1.0,1.6,0.7,Time
,,S03,1,male,24,anonymized,Serial_Dependence_U,2023.2.3,Win32,60.24096385542697,,,,,,1061.6723000000002,119.0,5.0,1061.6724,119.0,,,,1065.2651,1065.7642999999998,1064.7487,1065.265,1062.6822000000002,1064.7485,1065.7642999999998,1066.2642,1066.2642,1066.8311,187.0,1066.8311,1.0,1066.8368,5.0,3.0,153.0,21.0,1.0,1.0,0.3,Time
,,S03,1,male,24,anonymized,Serial_Dependence_U,2023.2.3,Win32,60.24096385542697,,,,,,1066.837,93.0,5.0,1066.837,93.0,,,,1070.7964000000002,1071.2958,1070.2799999999995,1070.7963,1067.8473,1070.2799,1071.2958,1071.7956,1071.7956,1073.3116,1163.0,1073.3117000000002,2.0,1073.3181,5.0,4.0,154.0,8.0,1.0,1.4,0.7,Time
,,S03,1,male,24,anonymized,Serial_Dependence_U,2023.2.3,Win32,60.24096385542697,,,,,,1073.3183,137.0,5.0,1073.3183,137.0,,,,1076.861,1077.3602999999998,1076.3446,1076.8608,1074.3118,1076.3444,1077.3602999999998,1077.8602999999998,1077.8602999999998,1079.0602,757.0,1079.0603,2.0,1079.0659999999998,5.0,5.0,155.0,26.0,1.0,1.0,0.7,Time
,,S03,1,male,24,anonymized,Serial_Dependence_U,2023.2.3,Win32,60.24096385542697,,,,,,1079.0662000000002,21.0,5.0,1079.0663,21.0,,,,1082.8257000000003,1083.3249999999998,1082.3093,1082.8256,1080.0767,1082.3091,1083.3249999999998,1083.8248,1083.8248,1084.6915,416.0,1084.6916,1.0,1084.6974,5.0,6.0,156.0,17.0,1.0,1.2,0.7,Time
,,S03,1,male,24,anonymized,Serial_Dependence_U,2023.2.3,Win32,60.24096385542697,,,,,,1084.6974999999998,6.0,5.0,1084.6976,6.0,,,,1088.4571,1088.9562999999998,1087.9407,1088.457,1085.7079,1087.9404999999997,1088.9562999999998,1089.4562999999998,1089.4562999999998,1090.8393,973.0,1090.8393,2.0,1090.8449999999998,5.0,7.0,157.0,27.0,1.0,1.2,0.7,Time
,,S03,1,male,24,anonymized,Serial_Dependence_U,2023.2.3,Win32,60.24096385542697,,,,,,1090.8452000000002,135.0,5.0,1090.8453,135.0,,,,1095.0049,1095.5043,1094.4884000000002,1095.0048000000002,1091.8559,1094.4883,1095.5043,1096.004,1096.004,1097.9535999999998,1555.0,1097.9537,3.0,1097.9599000000003,5.0,8.0,158.0,9.0,1.0,1.6,0.7,Time
,,S03,1,male,24,anonymized,Serial_Dependence_U,2023.2.3,Win32,60.24096385542697,,,,,,1097.9601000000002,265.0,5.0,1097.9601000000002,265.0,,,,1101.7194,1102.2186000000002,1101.2029000000002,1101.7192,1098.9701,1101.2027000000005,1102.2186000000002,1102.7184000000002,1102.7184000000002,1104.0184,934.0,1104.0184,2.0,1104.0242000000003,5.0,9.0,159.0,7.0,1.0,1.2,0.7,Time
,,S03,1,male,24,anonymized,Serial_Dependence_U,2023.2.3,Win32,60.24096385542697,,,,,,1104.0244000000002,29.0,5.0,1104.0244000000002,29.0,,,,1107.5841,1108.0832,1107.0675,1107.5839999999998,1105.0348,1107.0674,1108.0832,1108.5830999999998,1108.5830999999998,1109.5331,584.0,1109.5332000000003,1.0,1109.5389999999998,5.0,10.0,160.0,6.0,1.0,1.0,0.7,Time
,,S03,1,male,24,anonymized,Serial_Dependence_U,2023.2.3,Win32,60.24096385542697,,,,,,1109.5391,210.0,5.0,1109.5392000000002,210.0,,,,1113.5321,1114.0312,1113.0154000000002,1113.5319,1110.5495,1113.0153,1114.0312,1114.5311000000002,1114.5311000000002,1115.1146,174.0,1115.1147,1.0,1115.1203,5.0,11.0,161.0,3.0,1.0,1.4,0.3,Time
,,S03,1,male,24,anonymized,Serial_Dependence_U,2023.2.3,Win32,60.24096385542697,,,,,,1115.1205,124.0,5.0,1115.1206000000002,124.0,,,,1119.2965,1119.7959,1118.7802,1119.2963,1116.1144,1118.7799999999995,1119.7959,1120.2957,1120.2957,1121.8119000000002,1146.0,1121.812,2.0,1121.8177999999998,5.0,12.0,162.0,14.0,1.0,1.6,0.3,Time
,,S03,1,male,24,anonymized,Serial_Dependence_U,2023.2.3,Win32,60.24096385542697,,,,,,1121.8179,150.0,5.0,1121.8179999999998,150.0,,,,1125.6111,1126.1104999999998,1125.0947,1125.611,1122.8285,1125.0946,1126.1104999999998,1126.6102,1126.6102,1127.3935,211.0,1127.3937,1.0,1127.3993,5.0,13.0,163.0,12.0,1.0,1.2,0.3,Time
,,S03,1,male,24,anonymized,Serial_Dependence_U,2023.2.3,Win32,60.24096385542697,,,,,,1127.3995,43.0,5.0,1127.3996000000002,43.0,,,,1131.3593,1131.8586,1130.8428,1131.3591,1128.4101,1130.8426,1131.8586,1132.3581,1132.3581,1134.0748,1308.0,1134.0749,2.0,1134.0807,5.0,14.0,164.0,28.0,1.0,1.4,0.7,Time
,,S03,1,male,24,anonymized,Serial_Dependence_U,2023.2.3,Win32,60.24096385542697,,,,,,1134.0808000000002,181.0,5.0,1134.0809,181.0,,,,1138.0569,1138.5562,1137.5405,1138.0567999999998,1135.0746,1137.5403,1138.5562,1139.0561000000002,1139.0561000000002,1140.5392000000002,1075.0,1140.5393,2.0,1140.5450999999998,5.0,15.0,165.0,23.0,1.0,1.4,0.3,Time
,,S03,1,male,24,anonymized,Serial_Dependence_U,2023.2.3,Win32,60.24096385542697,,,,,,1140.5452999999998,267.0,5.0,1140.5454,267.0,,,,1144.1382000000003,1144.6374999999998,1143.6217,1144.1381,1141.5555,1143.6216,1144.6374999999998,1145.1374,1145.1374,1145.7207000000003,185.0,1145.7207000000003,1.0,1145.7264999999998,5.0,16.0,166.0,1.0,1.0,1.0,0.3,Time
,,S03,1,male,24,anonymized,Serial_Dependence_U,2023.2.3,Win32,60.24096385542697,,,,,,1145.7267000000002,338.0,5.0,1145.7267000000002,338.0,,,,1149.1198,1149.6191,1148.6030999999998,1149.1197000000002,1146.7372999999998,1148.603,1149.6191,1150.1189,1150.1189,1151.3524000000002,854.0,1151.3526000000002,4.0,1151.3581,5.0,17.0,167.0,10.0,1.0,0.8,0.3,Time
,,S03,1,male,24,anonymized,Serial_Dependence_U,2023.2.3,Win32,60.24096385542697,,,,,,1151.3582,145.0,5.0,1151.3583,145.0,,,,1154.7014,1155.2005,1154.1848,1154.7012,1152.352,1154.1846,1155.2005,1155.7003,1155.7004000000002,1157.3002,1109.0,1157.3002,5.0,1157.306,5.0,18.0,168.0,25.0,1.0,0.8,0.7,Time
,,S03,1,male,24,anonymized,Serial_Dependence_U,2023.2.3,Win32,60.24096385542697,,,,,,1157.3062,167.0,5.0,1157.3063000000002,167.0,,,,1161.4989999999998,1161.9982,1160.9825999999998,1161.4987999999998,1158.3166,1160.9824,1161.9982,1162.4980999999998,1162.4980999999998,1163.3815,192.0,1163.3815,1.0,1163.3873,5.0,19.0,169.0,24.0,1.0,1.6,0.3,Time
,,S03,1,male,24,anonymized,Serial_Dependence_U,2023.2.3,Win32,60.24096385542697,,,,,,1163.3874,132.0,5.0,1163.3874999999998,132.0,,,,1167.1803,1167.6796,1166.6639,1167.1802000000002,1164.3978000000002,1166.6637999999998,1167.6796,1168.1794,1168.1794999999995,1168.8629,183.0,1168.8629,1.0,1168.8687,5.0,20.0,170.0,22.0,1.0,1.2,0.3,Time
,,S03,1,male,24,anonymized,Serial_Dependence_U,2023.2.3,Win32,60.24096385542697,,,,,,1168.8689,36.0,5.0,1168.869,36.0,,,,1172.4286000000002,1172.9279,1171.9122000000002,1172.4285,1169.8793,1171.9119999999998,1172.9279,1173.4277000000002,1173.4278,1175.3107,1257.0,1175.3108000000002,4.0,1175.317,5.0,21.0,171.0,16.0,1.0,1.0,0.7,Time
,,S03,1,male,24,anonymized,Serial_Dependence_U,2023.2.3,Win32,60.24096385542697,,,,,,1175.3171000000002,300.0,5.0,1175.3171000000002,300.0,,,,1178.7096,1179.2089999999998,1178.1933,1178.7096,1176.3271,1178.1932000000002,1179.2089999999998,1179.7089,1179.7089,1180.9088000000002,722.0,1180.9089,2.0,1180.9146,5.0,22.0,172.0,0.0,1.0,0.8,0.3,Time
,,S03,1,male,24,anonymized,Serial_Dependence_U,2023.2.3,Win32,60.24096385542697,,,,,,1180.9148,318.0,5.0,1180.9149000000002,318.0,,,,1185.1075999999998,1185.6069000000002,1184.5908,1185.1074,1181.9252,1184.5907000000002,1185.6069000000002,1186.1066,1186.1066,1186.9233,447.0,1186.9234,1.0,1186.9292999999998,5.0,23.0,173.0,4.0,1.0,1.6,0.3,Time
,,S03,1,male,24,anonymized,Serial_Dependence_U,2023.2.3,Win32,60.24096385542697,,,,,,1186.9294999999995,288.0,5.0,1186.9294999999995,288.0,,,,1190.2889999999998,1190.7884,1189.7728000000002,1190.2889,1187.9399,1189.7726000000002,1190.7885,1191.2882,1191.2882,1192.6880999999998,916.0,1192.6882,4.0,1192.694,5.0,24.0,174.0,5.0,1.0,0.8,0.7,Time
,,S03,1,male,24,anonymized,Serial_Dependence_U,2023.2.3,Win32,60.24096385542697,,,,,,1192.6942,355.0,5.0,1192.6942,355.0,,,,1196.2871,1196.7864,1195.7705999999998,1196.2869999999998,1193.7044999999998,1195.7705,1196.7864,1197.286,1197.286,1198.7195000000002,1039.0,1198.7196,3.0,1198.7253,5.0,25.0,175.0,11.0,1.0,1.0,0.3,Time
,,S03,1,male,24,anonymized,Serial_Dependence_U,2023.2.3,Win32,60.24096385542697,,,,,,1198.7254000000005,348.0,5.0,1198.7255,348.0,,,,1202.8849,1203.3841000000002,1202.3684000000003,1202.8847,1199.7359,1202.3683,1203.3842,1203.8839000000005,1203.884,1205.5503,1266.0,1205.5503,2.0,1205.5565,5.0,26.0,176.0,19.0,1.0,1.6,0.7,Time
,,S03,1,male,24,anonymized,Serial_Dependence_U,2023.2.3,Win32,60.24096385542697,,,,,,1205.5567,54.0,5.0,1205.5567,54.0,,,,1208.9161,1209.4154,1208.3996000000002,1208.9159999999997,1206.5668,1208.3995,1209.4154,1209.9152,1209.9152,1210.8984,378.0,1210.8984999999998,1.0,1210.9042,5.0,27.0,177.0,15.0,1.0,0.8,0.7,Time
,,S03,1,male,24,anonymized,Serial_Dependence_U,2023.2.3,Win32,60.24096385542697,,,,,,1210.9044,18.0,5.0,1210.9044,18.0,,,,1214.8975,1215.3967000000002,1214.381,1214.8973,1211.915,1214.3808,1215.3967000000002,1215.8966,1215.8966,1216.6633000000002,170.0,1216.6633000000002,1.0,1216.6692000000005,5.0,28.0,178.0,13.0,1.0,1.4,0.3,Time
,,S03,1,male,24,anonymized,Serial_Dependence_U,2023.2.3,Win32,60.24096385542697,,,,,,1216.6693,290.0,5.0,1216.6694000000002,290.0,,,,1220.6288,1221.1279999999997,1220.1122999999998,1220.6287000000002,1217.6798,1220.1122,1221.1279999999997,1221.6279,1221.6279,1223.4277000000002,501.0,1223.4277000000002,1.0,1223.4339,5.0,29.0,179.0,18.0,1.0,1.4,0.7,Time
,,S03,1,male,24,anonymized,Serial_Dependence_U,2023.2.3,Win32,60.24096385542697,,,,,,1223.4339999999995,225.0,6.0,1225.5266,225.0,s,2.085399999999936,,1228.8929000000005,1229.3919999999998,1228.3762000000002,1228.8927000000003,1226.5434,1228.3759999999995,1229.3919999999998,1229.8918,1229.8918,1231.1751,775.0,1231.1751,3.0,1231.1808,6.0,0.0,180.0,25.0,1.0,0.8,0.7,Time
,,S03,1,male,24,anonymized,Serial_Dependence_U,2023.2.3,Win32,60.24096385542697,,,,,,1231.181,293.0,6.0,1231.1817,293.0,,,,1235.3404999999998,1235.8398000000002,1234.8240999999998,1235.3402999999998,1232.1914000000002,1234.8239,1235.8398000000002,1236.3396000000002,1236.3396000000002,1237.956,1020.0,1237.9561,1.0,1237.9618,6.0,1.0,181.0,29.0,1.0,1.6,0.7,Time
,,S03,1,male,24,anonymized,Serial_Dependence_U,2023.2.3,Win32,60.24096385542697,,,,,,1237.9621000000002,52.0,6.0,1237.9621000000002,52.0,,,,1241.7217,1242.2209000000005,1241.205,1241.7215,1238.9727000000005,1241.2049000000002,1242.221,1242.7207000000003,1242.7207000000003,1244.2536,1180.0,1244.2537000000002,3.0,1244.2596,6.0,2.0,182.0,27.0,1.0,1.2,0.7,Time
,,S03,1,male,24,anonymized,Serial_Dependence_U,2023.2.3,Win32,60.24096385542697,,,,,,1244.2597999999998,6.0,6.0,1244.2599,6.0,,,,1247.6529,1248.1522,1247.1365999999998,1247.6527,1245.27,1247.1364,1248.1523000000002,1248.6521000000002,1248.6521000000002,1249.4854999999998,339.0,1249.4856,1.0,1249.4914,6.0,3.0,183.0,10.0,1.0,0.8,0.3,Time
,,S03,1,male,24,anonymized,Serial_Dependence_U,2023.2.3,Win32,60.24096385542697,,,,,,1249.4915999999998,286.0,6.0,1249.4917,286.0,,,,1253.0677,1253.567,1252.551,1253.0676,1250.4852999999998,1252.5509000000002,1253.567,1254.0669000000005,1254.0669000000005,1255.0669000000005,380.0,1255.067,1.0,1255.0727000000002,6.0,4.0,184.0,21.0,1.0,1.0,0.3,Time
,,S03,1,male,24,anonymized,Serial_Dependence_U,2023.2.3,Win32,60.24096385542697,,,,,,1255.0729,277.0,6.0,1255.073,277.0,,,,1258.6659,1259.1651000000002,1258.1495,1258.6657999999998,1256.0832999999998,1258.1493,1259.1652,1259.665,1259.665,1260.4817000000005,370.0,1260.4818,1.0,1260.4876,6.0,5.0,185.0,11.0,1.0,1.0,0.3,Time
,,S03,1,male,24,anonymized,Serial_Dependence_U,2023.2.3,Win32,60.24096385542697,,,,,,1260.4878,207.0,6.0,1260.4878,207.0,,,,1264.2804999999998,1264.7799,1263.7641,1264.2804,1261.4982,1263.764,1264.7799,1265.2797,1265.2797,1266.3464,599.0,1266.3464,1.0,1266.3523,6.0,6.0,186.0,22.0,1.0,1.2,0.3,Time
,,S03,1,male,24,anonymized,Serial_Dependence_U,2023.2.3,Win32,60.24096385542697,,,,,,1266.3525,273.0,6.0,1266.3526000000002,273.0,,,,1270.5450999999998,1271.0444000000002,1270.0288,1270.545,1267.3628,1270.0286,1271.0444000000002,1271.5442000000005,1271.5443,1272.5274,400.0,1272.5276,1.0,1272.5334000000005,6.0,7.0,187.0,4.0,1.0,1.6,0.3,Time
,,S03,1,male,24,anonymized,Serial_Dependence_U,2023.2.3,Win32,60.24096385542697,,,,,,1272.5335,345.0,6.0,1272.5336000000002,345.0,,,,1276.4931,1276.9924,1275.9767000000002,1276.493,1273.5442000000005,1275.9766,1276.9924,1277.4923,1277.4923,1279.3253,1337.0,1279.3253,3.0,1279.3317000000002,6.0,8.0,188.0,18.0,1.0,1.4,0.7,Time
,,S03,1,male,24,anonymized,Serial_Dependence_U,2023.2.3,Win32,60.24096385542697,,,,,,1279.3319,330.0,6.0,1279.3319,330.0,,,,1283.3240999999998,1283.8232000000005,1282.8074,1283.324,1280.3418,1282.8073,1283.8232000000005,1284.3233,1284.3233,1285.4232000000002,671.0,1285.4233,1.0,1285.4290999999998,6.0,9.0,189.0,3.0,1.0,1.4,0.3,Time
,,S03,1,male,24,anonymized,Serial_Dependence_U,2023.2.3,Win32,60.24096385542697,,,,,,1285.4292,303.0,6.0,1285.4292,303.0,,,,1289.6219,1290.1212999999998,1289.1055,1289.6219,1286.4397,1289.1054,1290.1212999999998,1290.6212,1290.6212,1291.7545,674.0,1291.7545,1.0,1291.7602000000002,6.0,10.0,190.0,14.0,1.0,1.6,0.3,Time
,,S03,1,male,24,anonymized,Serial_Dependence_U,2023.2.3,Win32,60.24096385542697,,,,,,1291.7604,125.0,6.0,1291.7605,125.0,,,,1295.9532,1296.4524,1295.4366,1295.9531000000002,1292.7707999999998,1295.4364999999998,1296.4524,1296.9523,1296.9523,1298.3691,507.0,1298.3691,1.0,1298.3749000000005,6.0,11.0,191.0,24.0,1.0,1.6,0.3,Time
,,S03,1,male,24,anonymized,Serial_Dependence_U,2023.2.3,Win32,60.24096385542697,,,,,,1298.375,45.0,6.0,1298.3751000000002,45.0,,,,1302.3342000000002,1302.8337,1301.8179,1302.3339999999998,1299.3853,1301.8177999999998,1302.8337,1303.3334,1303.3334999999995,1305.1165,1380.0,1305.1165,3.0,1305.1225,6.0,12.0,192.0,28.0,1.0,1.4,0.7,Time
,,S03,1,male,24,anonymized,Serial_Dependence_U,2023.2.3,Win32,60.24096385542697,,,,,,1305.1227,134.0,6.0,1305.1228,134.0,,,,1308.6822000000002,1309.1815,1308.1657999999998,1308.6819999999998,1306.1327,1308.1655999999998,1309.1815,1309.681,1309.681,1311.1978,1058.0,1311.1979,4.0,1311.2035999999998,6.0,13.0,193.0,6.0,1.0,1.0,0.7,Time
,,S03,1,male,24,anonymized,Serial_Dependence_U,2023.2.3,Win32,60.24096385542697,,,,,,1311.2037999999998,268.0,6.0,1311.2037999999998,268.0,,,,1314.9633,1315.4625999999998,1314.4469,1314.9632,1312.2142,1314.4467,1315.4625999999998,1315.9624,1315.9625,1316.8620999999998,512.0,1316.8622,1.0,1316.8678,6.0,14.0,194.0,7.0,1.0,1.2,0.7,Time
,,S03,1,male,24,anonymized,Serial_Dependence_U,2023.2.3,Win32,60.24096385542697,,,,,,1316.8681,218.0,6.0,1316.8681,218.0,,,,1320.6614,1321.1608,1320.145,1320.6612999999998,1317.879,1320.1448,1321.1608,1321.6606000000002,1321.6606000000002,1322.2104,188.0,1322.2106,1.0,1322.2163,6.0,15.0,195.0,12.0,1.0,1.2,0.3,Time
,,S03,1,male,24,anonymized,Serial_Dependence_U,2023.2.3,Win32,60.24096385542697,,,,,,1322.2165,90.0,6.0,1322.2166000000002,90.0,,,,1325.9762999999998,1326.4756000000002,1325.4598,1325.9762,1323.2272000000005,1325.4597000000003,1326.4756000000002,1326.9755,1326.9755,1328.542,1179.0,1328.542,3.0,1328.5477,6.0,16.0,196.0,17.0,1.0,1.2,0.7,Time
,,S03,1,male,24,anonymized,Serial_Dependence_U,2023.2.3,Win32,60.24096385542697,,,,,,1328.5479,208.0,6.0,1328.5479,208.0,,,,1331.9406,1332.4400999999998,1331.4245,1331.9404999999997,1329.5583,1331.4243,1332.4400999999998,1332.9398,1332.9399,1333.5567,209.0,1333.5569,1.0,1333.5626000000002,6.0,17.0,197.0,20.0,1.0,0.8,0.3,Time
,,S03,1,male,24,anonymized,Serial_Dependence_U,2023.2.3,Win32,60.24096385542697,,,,,,1333.5627,252.0,6.0,1333.5628000000002,252.0,,,,1337.1225,1337.6217,1336.6059999999998,1337.1224000000002,1334.5732000000005,1336.6059,1337.6217,1338.1216,1338.1216,1339.5548,965.0,1339.5549,3.0,1339.5607,6.0,18.0,198.0,16.0,1.0,1.0,0.7,Time
,,S03,1,male,24,anonymized,Serial_Dependence_U,2023.2.3,Win32,60.24096385542697,,,,,,1339.5609,351.0,6.0,1339.5609,351.0,,,,1343.5536000000002,1344.0529,1343.0372000000002,1343.5535,1340.5713,1343.0371,1344.0529,1344.5528,1344.5528,1345.7527,266.0,1345.7527999999998,1.0,1345.7586,6.0,19.0,199.0,13.0,1.0,1.4,0.3,Time
,,S03,1,male,24,anonymized,Serial_Dependence_U,2023.2.3,Win32,60.24096385542697,,,,,,1345.7588,1.0,6.0,1345.7588,1.0,,,,1349.1349999999998,1349.6343000000002,1348.6187,1349.1349,1346.7524,1348.6185,1349.6343000000002,1350.1342,1350.1342,1351.3339,833.0,1351.3339999999998,3.0,1351.3397,6.0,20.0,200.0,0.0,1.0,0.8,0.3,Time
,,S03,1,male,24,anonymized,Serial_Dependence_U,2023.2.3,Win32,60.24096385542697,,,,,,1351.3398000000002,275.0,6.0,1351.3399,275.0,,,,1354.9328,1355.4324,1354.4166,1354.9326,1352.3505,1354.4164999999998,1355.4324,1355.9322000000002,1355.9322000000002,1356.4989999999998,233.0,1356.4989999999998,1.0,1356.5049,6.0,21.0,201.0,1.0,1.0,1.0,0.3,Time
,,S03,1,male,24,anonymized,Serial_Dependence_U,2023.2.3,Win32,60.24096385542697,,,,,,1356.5051,160.0,6.0,1356.5052,160.0,,,,1360.6478000000002,1361.1471,1360.1313,1360.6477,1357.4987999999998,1360.1311,1361.1471,1361.647,1361.647,1363.2799,1076.0,1363.2799999999995,1.0,1363.286,6.0,22.0,202.0,9.0,1.0,1.6,0.7,Time
,,S03,1,male,24,anonymized,Serial_Dependence_U,2023.2.3,Win32,60.24096385542697,,,,,,1363.2862,318.0,6.0,1363.2862999999998,318.0,,,,1367.2455,1367.7448,1366.7289999999998,1367.2454000000002,1364.2961,1366.7289,1367.7449,1368.2447000000002,1368.2447000000002,1370.1778,1407.0,1370.1778,3.0,1370.1835999999998,6.0,23.0,203.0,8.0,1.0,1.4,0.7,Time
,,S03,1,male,24,anonymized,Serial_Dependence_U,2023.2.3,Win32,60.24096385542697,,,,,,1370.1837,231.0,6.0,1370.1837999999998,231.0,,,,1373.5432999999998,1374.0427,1373.027,1373.5432999999998,1371.1941000000002,1373.0268999999998,1374.0427,1374.5425,1374.5425,1375.6924,644.0,1375.6925,2.0,1375.6982000000005,6.0,24.0,204.0,15.0,1.0,0.8,0.7,Time
,,S03,1,male,24,anonymized,Serial_Dependence_U,2023.2.3,Win32,60.24096385542697,,,,,,1375.6985,347.0,6.0,1375.6985,347.0,,,,1379.8577999999998,1380.3572,1379.3415,1379.8577,1376.7088,1379.3413,1380.3572,1380.8571000000002,1380.8571000000002,1382.5234999999998,1269.0,1382.5234999999998,2.0,1382.5294,6.0,25.0,205.0,19.0,1.0,1.6,0.7,Time
,,S03,1,male,24,anonymized,Serial_Dependence_U,2023.2.3,Win32,60.24096385542697,,,,,,1382.5295,233.0,6.0,1382.5295999999998,233.0,,,,1386.0722,1386.5716000000002,1385.556,1386.0722,1383.5234,1385.5559000000003,1386.5716000000002,1387.0716000000002,1387.0716000000002,1388.7378,1262.0,1388.7379,4.0,1388.7437,6.0,26.0,206.0,26.0,1.0,1.0,0.7,Time
,,S03,1,male,24,anonymized,Serial_Dependence_U,2023.2.3,Win32,60.24096385542697,,,,,,1388.7439,309.0,6.0,1388.744,309.0,,,,1392.7368,1393.2361,1392.2204000000002,1392.7368,1389.7543,1392.2203,1393.2362000000005,1393.7359,1393.7361,1395.9522000000002,521.0,1395.9522000000002,1.0,1395.9584999999995,6.0,27.0,207.0,23.0,1.0,1.4,0.3,Time
,,S03,1,male,24,anonymized,Serial_Dependence_U,2023.2.3,Win32,60.24096385542697,,,,,,1395.9587,130.0,6.0,1395.9588,130.0,,,,1399.7509,1400.2505,1399.2344000000005,1399.7507999999998,1396.9685,1399.2344000000005,1400.2505,1400.7501000000002,1400.7501000000002,1401.8503,462.0,1401.8504000000005,1.0,1401.8561,6.0,28.0,208.0,2.0,1.0,1.2,0.3,Time
,,S03,1,male,24,anonymized,Serial_Dependence_U,2023.2.3,Win32,60.24096385542697,,,,,,1401.8562000000002,245.0,6.0,1401.8563,245.0,,,,1405.2159,1405.7152,1404.6996,1405.2158,1402.8667,1404.6994,1405.7152,1406.2151,1406.2151,1407.6482999999998,1017.0,1407.6482999999998,4.0,1407.6541000000002,6.0,29.0,209.0,5.0,1.0,0.8,0.7,Time
,,S03,1,male,24,anonymized,Serial_Dependence_U,2023.2.3,Win32,60.24096385542697,,,,,,1407.6542,108.0,7.0,1472.1985,108.0,s,64.52839999999992,,1476.3918,1476.891,1475.8753000000002,1476.3916,1473.2095,1475.8751000000002,1476.891,1477.3909,1477.3909,1478.6074,821.0,1478.6075,1.0,1478.6132000000002,7.0,0.0,210.0,24.0,1.0,1.6,0.3,Time
,,S03,1,male,24,anonymized,Serial_Dependence_U,2023.2.3,Win32,60.24096385542697,,,,,,1478.6134000000002,57.0,7.0,1478.6141000000002,57.0,,,,1482.4063,1482.9056,1481.89,1482.4062,1479.6239999999998,1481.8898,1482.9056,1483.4054999999998,1483.4054999999998,1484.3553000000002,539.0,1484.3554,1.0,1484.3612000000005,7.0,1.0,211.0,2.0,1.0,1.2,0.3,Time
,,S03,1,male,24,anonymized,Serial_Dependence_U,2023.2.3,Win32,60.24096385542697,,,,,,1484.3614000000002,260.0,7.0,1484.3615,260.0,,,,1487.9212000000002,1488.4204999999995,1487.4047,1487.9209999999998,1485.3719999999998,1487.4045999999998,1488.4204999999995,1488.9202,1488.9202999999998,1490.2533,928.0,1490.2534,2.0,1490.2592,7.0,2.0,212.0,26.0,1.0,1.0,0.7,Time
,,S03,1,male,24,anonymized,Serial_Dependence_U,2023.2.3,Win32,60.24096385542697,,,,,,1490.2594,184.0,7.0,1490.2595,184.0,,,,1493.6525,1494.1518,1493.1361000000002,1493.6524,1491.27,1493.136,1494.1518,1494.6517,1494.6517,1495.7351,716.0,1495.7352,2.0,1495.7409000000002,7.0,3.0,213.0,20.0,1.0,0.8,0.3,Time
,,S03,1,male,24,anonymized,Serial_Dependence_U,2023.2.3,Win32,60.24096385542697,,,,,,1495.741,73.0,7.0,1495.7411000000002,73.0,,,,1499.9004,1500.3997,1499.384,1499.9002999999998,1496.7514,1499.3839000000005,1500.3997,1500.8995,1500.8995,1502.366,1128.0,1502.3661000000002,2.0,1502.3722000000002,7.0,4.0,214.0,9.0,1.0,1.6,0.7,Time
,,S03,1,male,24,anonymized,Serial_Dependence_U,2023.2.3,Win32,60.24096385542697,,,,,,1502.3724000000002,149.0,7.0,1502.3725,149.0,,,,1506.3316,1506.8308000000002,1505.8150999999998,1506.3314999999998,1503.3824,1505.815,1506.8308000000002,1507.3307,1507.3307,1508.7469,1078.0,1508.7469,2.0,1508.7527,7.0,5.0,215.0,8.0,1.0,1.4,0.7,Time
,,S03,1,male,24,anonymized,Serial_Dependence_U,2023.2.3,Win32,60.24096385542697,,,,,,1508.7529999999997,167.0,7.0,1508.7529999999997,167.0,,,,1512.3128000000002,1512.8122000000003,1511.7963,1512.3128000000002,1509.7637,1511.7963,1512.8122000000003,1513.3117000000002,1513.3117000000002,1514.795,1184.0,1514.7950999999998,4.0,1514.801,7.0,6.0,216.0,6.0,1.0,1.0,0.7,Time
,,S03,1,male,24,anonymized,Serial_Dependence_U,2023.2.3,Win32,60.24096385542697,,,,,,1514.8012000000003,336.0,7.0,1514.8012000000003,336.0,,,,1518.3608,1518.86,1517.8444,1518.3607000000002,1515.8116,1517.8440999999998,1518.8601,1519.3599,1519.36,1520.8432000000005,1202.0,1520.8432000000005,4.0,1520.8491,7.0,7.0,217.0,16.0,1.0,1.0,0.7,Time
,,S03,1,male,24,anonymized,Serial_Dependence_U,2023.2.3,Win32,60.24096385542697,,,,,,1520.8492,238.0,7.0,1520.8493,238.0,,,,1524.2088,1524.7080999999998,1523.6924,1524.2087,1521.8595,1523.6922,1524.7082,1525.208,1525.208,1526.2745,726.0,1526.2745,2.0,1526.2804,7.0,8.0,218.0,5.0,1.0,0.8,0.7,Time
,,S03,1,male,24,anonymized,Serial_Dependence_U,2023.2.3,Win32,60.24096385542697,,,,,,1526.2804999999998,100.0,7.0,1526.2804999999998,100.0,,,,1529.6737000000005,1530.1727999999998,1529.1572,1529.6736,1527.2909999999997,1529.1570000000002,1530.1729,1530.6727,1530.6727999999998,1531.3062,240.0,1531.3062,1.0,1531.3119000000002,7.0,9.0,219.0,10.0,1.0,0.8,0.3,Time
,,S03,1,male,24,anonymized,Serial_Dependence_U,2023.2.3,Win32,60.24096385542697,,,,,,1531.3121,202.0,7.0,1531.3122000000003,202.0,,,,1535.0717,1535.5711,1534.5554000000002,1535.0716000000002,1532.3226,1534.5552000000002,1535.5711,1536.0707000000002,1536.0708,1537.4371,1003.0,1537.4372000000003,2.0,1537.4429,7.0,10.0,220.0,17.0,1.0,1.2,0.7,Time
,,S03,1,male,24,anonymized,Serial_Dependence_U,2023.2.3,Win32,60.24096385542697,,,,,,1537.4431,94.0,7.0,1537.4432000000002,94.0,,,,1540.8366,1541.3357999999998,1540.3199999999997,1540.8364,1538.4537999999998,1540.3199,1541.3357999999998,1541.8354,1541.8354,1542.4024,166.0,1542.4025,1.0,1542.4082000000003,7.0,11.0,221.0,0.0,1.0,0.8,0.3,Time
,,S03,1,male,24,anonymized,Serial_Dependence_U,2023.2.3,Win32,60.24096385542697,,,,,,1542.4083,226.0,7.0,1542.4085,226.0,,,,1545.7681000000002,1546.2674000000002,1545.2517000000005,1545.768,1543.4189,1545.2515,1546.2674000000002,1546.7673,1546.7673,1547.9337,836.0,1547.9337999999998,3.0,1547.9395,7.0,12.0,222.0,15.0,1.0,0.8,0.7,Time
,,S03,1,male,24,anonymized,Serial_Dependence_U,2023.2.3,Win32,60.24096385542697,,,,,,1547.9397,87.0,7.0,1547.9398,87.0,,,,1551.6994999999995,1552.1988,1551.183,1551.6994,1548.9502000000002,1551.1828,1552.1988,1552.6983,1552.6983,1554.0819,1147.0,1554.0819,3.0,1554.0875999999998,7.0,13.0,223.0,7.0,1.0,1.2,0.7,Time
,,S03,1,male,24,anonymized,Serial_Dependence_U,2023.2.3,Win32,60.24096385542697,,,,,,1554.0877999999998,272.0,7.0,1554.0879,272.0,,,,1557.8807000000002,1558.3798000000002,1557.3643000000002,1557.8806,1555.0982,1557.3641000000002,1558.3798000000002,1558.8796000000002,1558.8796000000002,1559.7631,491.0,1559.7632000000003,1.0,1559.7689,7.0,14.0,224.0,12.0,1.0,1.2,0.3,Time
,,S03,1,male,24,anonymized,Serial_Dependence_U,2023.2.3,Win32,60.24096385542697,,,,,,1559.7689999999998,178.0,7.0,1559.7691,178.0,,,,1563.5288,1564.0277999999998,1563.0119999999995,1563.5286,1560.7797,1563.0119,1564.0277999999998,1564.5279,1564.5279,1565.8611,987.0,1565.8611,2.0,1565.8669,7.0,15.0,225.0,27.0,1.0,1.2,0.7,Time
,,S03,1,male,24,anonymized,Serial_Dependence_U,2023.2.3,Win32,60.24096385542697,,,,,,1565.8669999999995,298.0,7.0,1565.8669999999995,298.0,,,,1569.46,1569.9593,1568.9437000000005,1569.4599000000003,1566.8775,1568.9435,1569.9593,1570.4592000000002,1570.4592000000002,1571.2924000000005,348.0,1571.2925,1.0,1571.2983,7.0,16.0,226.0,1.0,1.0,1.0,0.3,Time
,,S03,1,male,24,anonymized,Serial_Dependence_U,2023.2.3,Win32,60.24096385542697,,,,,,1571.2985,208.0,7.0,1571.2986,208.0,,,,1575.4913,1575.9906,1574.9749000000002,1575.4911000000002,1572.3089999999995,1574.9748,1575.9906,1576.4904,1576.4905,1577.3235,510.0,1577.3235,1.0,1577.3293,7.0,17.0,227.0,4.0,1.0,1.6,0.3,Time
,,S03,1,male,24,anonymized,Serial_Dependence_U,2023.2.3,Win32,60.24096385542697,,,,,,1577.3294999999998,225.0,7.0,1577.3296,225.0,,,,1581.2895,1581.7887,1580.7729,1581.2893,1578.3402,1580.7727,1581.7887,1582.2884,1582.2885,1583.5051,786.0,1583.5051,1.0,1583.511,7.0,18.0,228.0,18.0,1.0,1.4,0.7,Time
,,S03,1,male,24,anonymized,Serial_Dependence_U,2023.2.3,Win32,60.24096385542697,,,,,,1583.5111000000002,321.0,7.0,1583.5112,321.0,,,,1587.4872,1587.9866000000002,1586.9706,1587.4870999999998,1584.5048000000002,1586.9705,1587.9866000000002,1588.4864000000002,1588.4864000000002,1589.2529,340.0,1589.2529999999997,1.0,1589.2587000000003,7.0,19.0,229.0,13.0,1.0,1.4,0.3,Time
,,S03,1,male,24,anonymized,Serial_Dependence_U,2023.2.3,Win32,60.24096385542697,,,,,,1589.2589000000005,135.0,7.0,1589.259,135.0,,,,1593.2352999999998,1593.7346000000002,1592.7188,1593.2352,1590.2529,1592.7187,1593.7346000000002,1594.2345,1594.2345,1594.9845,392.0,1594.9846000000002,1.0,1594.9904,7.0,20.0,230.0,23.0,1.0,1.4,0.3,Time
,,S03,1,male,24,anonymized,Serial_Dependence_U,2023.2.3,Win32,60.24096385542697,,,,,,1594.9906,235.0,7.0,1594.9907000000003,235.0,,,,1598.5834999999995,1599.0827,1598.067,1598.5832999999998,1596.0011,1598.0669000000005,1599.0827,1599.5826000000002,1599.5826000000002,1600.6657999999998,678.0,1600.6659,1.0,1600.6719000000005,7.0,21.0,231.0,21.0,1.0,1.0,0.3,Time
,,S03,1,male,24,anonymized,Serial_Dependence_U,2023.2.3,Win32,60.24096385542697,,,,,,1600.6721000000002,300.0,7.0,1600.6722,300.0,,,,1604.8646,1605.3639000000005,1604.3479000000002,1604.8645,1601.6819999999998,1604.3477000000005,1605.3639000000005,1605.8638,1605.8638,1606.7139000000002,449.0,1606.7141,1.0,1606.7198,7.0,22.0,232.0,14.0,1.0,1.6,0.3,Time
,,S03,1,male,24,anonymized,Serial_Dependence_U,2023.2.3,Win32,60.24096385542697,,,,,,1606.7201,191.0,7.0,1606.7201,191.0,,,,1610.6794,1611.1786000000002,1610.1629000000005,1610.6792,1607.7303000000002,1610.1626,1611.1786000000002,1611.6784000000002,1611.6784000000002,1613.4947000000002,1327.0,1613.4949,2.0,1613.5005999999998,7.0,23.0,233.0,28.0,1.0,1.4,0.7,Time
,,S03,1,male,24,anonymized,Serial_Dependence_U,2023.2.3,Win32,60.24096385542697,,,,,,1613.5007,34.0,7.0,1613.5007999999998,34.0,,,,1617.6602000000005,1618.1594,1617.1437999999998,1617.6601,1614.511,1617.1437,1618.1594,1618.6594,1618.6594999999998,1620.4758000000002,1494.0,1620.476,2.0,1620.482,7.0,24.0,234.0,29.0,1.0,1.6,0.7,Time
,,S03,1,male,24,anonymized,Serial_Dependence_U,2023.2.3,Win32,60.24096385542697,,,,,,1620.4822,168.0,7.0,1620.4822,168.0,,,,1624.2746000000002,1624.7741,1623.7583,1624.2745,1621.4922,1623.7582000000002,1624.7741,1625.2739,1625.2739,1626.9069,1301.0,1626.9070000000002,4.0,1626.9127000000003,7.0,25.0,235.0,22.0,1.0,1.2,0.3,Time
,,S03,1,male,24,anonymized,Serial_Dependence_U,2023.2.3,Win32,60.24096385542697,,,,,,1626.9129000000005,78.0,7.0,1626.913,78.0,,,,1630.2729,1630.7717000000002,1629.7562000000005,1630.2727,1627.9232000000002,1629.7562000000005,1630.7717000000002,1631.2714999999998,1631.2714999999998,1632.7549,1123.0,1632.755,5.0,1632.7609000000002,7.0,26.0,236.0,25.0,1.0,0.8,0.7,Time
,,S03,1,male,24,anonymized,Serial_Dependence_U,2023.2.3,Win32,60.24096385542697,,,,,,1632.761,138.0,7.0,1632.7612,138.0,,,,1636.7538,1637.2529999999997,1636.2372999999998,1636.7537000000002,1633.7714,1636.2372,1637.2529999999997,1637.7529,1637.7529999999997,1639.3692999999998,1213.0,1639.3694,2.0,1639.3752,7.0,27.0,237.0,3.0,1.0,1.4,0.3,Time
,,S03,1,male,24,anonymized,Serial_Dependence_U,2023.2.3,Win32,60.24096385542697,,,,,,1639.3755,93.0,7.0,1639.3755,93.0,,,,1642.9683,1643.4676,1642.4519,1642.9682000000005,1640.3858,1642.4517,1643.4676,1643.9674999999995,1643.9674999999995,1644.7007000000003,386.0,1644.7008,1.0,1644.7064999999998,7.0,28.0,238.0,11.0,1.0,1.0,0.3,Time
,,S03,1,male,24,anonymized,Serial_Dependence_U,2023.2.3,Win32,60.24096385542697,,,,,,1644.7067000000002,199.0,7.0,1644.7068,199.0,,,,1648.8662,1649.3656,1648.35,1648.8661000000002,1645.7174,1648.3499000000002,1649.3656,1649.8655,1649.8655,1652.0151,1799.0,1652.0151,4.0,1652.0209,7.0,29.0,239.0,19.0,1.0,1.6,0.7,Time
,,S03,1,male,24,anonymized,Serial_Dependence_U,2023.2.3,Win32,60.24096385542697,,,,,,1652.0209999999995,129.0,8.0,1664.7496,129.0,s,12.705700000000206,,1668.543,1669.0423,1668.0264000000002,1668.5429,1665.7605,1668.0263,1669.0423,1669.542,1669.5421,1670.2586,297.0,1670.2586,1.0,1670.2642999999998,8.0,0.0,240.0,12.0,1.0,1.2,0.3,Time
,,S03,1,male,24,anonymized,Serial_Dependence_U,2023.2.3,Win32,60.24096385542697,,,,,,1670.2644999999998,10.0,8.0,1670.2652000000005,10.0,,,,1674.4575,1674.9569,1673.9413,1674.4575,1671.2752999999998,1673.9413,1674.9569,1675.4567000000002,1675.4567000000002,1677.3064,1416.0,1677.3065,2.0,1677.3126000000002,8.0,1.0,241.0,4.0,1.0,1.6,0.3,Time
,,S03,1,male,24,anonymized,Serial_Dependence_U,2023.2.3,Win32,60.24096385542697,,,,,,1677.3128000000002,130.0,8.0,1677.3128000000002,130.0,,,,1681.1053000000002,1681.6046,1680.5888,1681.1052,1678.3229,1680.5887000000002,1681.6046,1682.1046,1682.1046,1682.7212,289.0,1682.7212,1.0,1682.727,8.0,2.0,242.0,22.0,1.0,1.2,0.3,Time
,,S03,1,male,24,anonymized,Serial_Dependence_U,2023.2.3,Win32,60.24096385542697,,,,,,1682.7271,138.0,8.0,1682.7272000000005,138.0,,,,1686.0703,1686.5702,1685.5538,1686.0702,1683.7208,1685.5536000000002,1686.5702,1687.0695,1687.0695,1688.8026,1390.0,1688.8026,5.0,1688.8087,8.0,3.0,243.0,5.0,1.0,0.8,0.7,Time
,,S03,1,male,24,anonymized,Serial_Dependence_U,2023.2.3,Win32,60.24096385542697,,,,,,1688.8089,338.0,8.0,1688.8089,338.0,,,,1693.0012000000002,1693.5005999999998,1692.4849,1693.0011,1689.819,1692.4847,1693.5005999999998,1694.0004,1694.0004,1695.8332999999998,1344.0,1695.8334,2.0,1695.8391,8.0,4.0,244.0,24.0,1.0,1.6,0.3,Time
,,S03,1,male,24,anonymized,Serial_Dependence_U,2023.2.3,Win32,60.24096385542697,,,,,,1695.8393,167.0,8.0,1695.8393,167.0,,,,1699.9987,1700.4982,1699.4825999999998,1699.9985,1696.8499000000002,1699.4824,1700.4983000000002,1700.9980999999998,1700.9980999999998,1703.0808000000002,1710.0,1703.081,4.0,1703.0871000000002,8.0,5.0,245.0,29.0,1.0,1.6,0.7,Time
,,S03,1,male,24,anonymized,Serial_Dependence_U,2023.2.3,Win32,60.24096385542697,,,,,,1703.0873,352.0,8.0,1703.0873,352.0,,,,1707.0464000000002,1707.5458,1706.5299999999995,1707.0463,1704.0974,1706.5299999999995,1707.5458,1708.0456,1708.0456,1709.5622000000003,1205.0,1709.5622000000003,2.0,1709.5679999999998,8.0,6.0,246.0,18.0,1.0,1.4,0.7,Time
,,S03,1,male,24,anonymized,Serial_Dependence_U,2023.2.3,Win32,60.24096385542697,,,,,,1709.5682000000002,200.0,8.0,1709.5683,200.0,,,,1713.1610999999998,1713.6602000000005,1712.6446,1713.161,1710.5785999999998,1712.6445,1713.6602000000005,1714.1601,1714.1601,1715.46,867.0,1715.4601000000002,2.0,1715.4659,8.0,7.0,247.0,11.0,1.0,1.0,0.3,Time
,,S03,1,male,24,anonymized,Serial_Dependence_U,2023.2.3,Win32,60.24096385542697,,,,,,1715.466,250.0,8.0,1715.4661,250.0,,,,1719.259,1719.7583,1718.7426,1719.2589000000005,1716.4762999999998,1718.7424999999998,1719.7583,1720.2581,1720.2581,1721.708,1074.0,1721.7082,2.0,1721.714,8.0,8.0,248.0,2.0,1.0,1.2,0.3,Time
,,S03,1,male,24,anonymized,Serial_Dependence_U,2023.2.3,Win32,60.24096385542697,,,,,,1721.7142,54.0,8.0,1721.7142,54.0,,,,1725.107,1725.6063,1724.5902999999998,1725.1069000000002,1722.7244,1724.5902,1725.6063,1726.1061,1726.1061,1727.3557999999998,922.0,1727.3559,4.0,1727.3617,8.0,9.0,249.0,20.0,1.0,0.8,0.3,Time
,,S03,1,male,24,anonymized,Serial_Dependence_U,2023.2.3,Win32,60.24096385542697,,,,,,1727.3619,270.0,8.0,1727.362,270.0,,,,1731.1049000000005,1731.6043,1730.5886,1731.1048,1728.3559,1730.5884,1731.6043,1732.1041,1732.1041,1733.6207,1149.0,1733.6208,3.0,1733.6265,8.0,10.0,250.0,7.0,1.0,1.2,0.7,Time
,,S03,1,male,24,anonymized,Serial_Dependence_U,2023.2.3,Win32,60.24096385542697,,,,,,1733.6267000000005,64.0,8.0,1733.6267000000005,64.0,,,,1737.1859,1737.6853,1736.6695,1737.1858000000002,1734.6371,1736.6693,1737.6853,1738.1853,1738.1853999999998,1739.8017,1208.0,1739.8017,4.0,1739.8074,8.0,11.0,251.0,26.0,1.0,1.0,0.7,Time
,,S03,1,male,24,anonymized,Serial_Dependence_U,2023.2.3,Win32,60.24096385542697,,,,,,1739.8077000000003,324.0,8.0,1739.8077000000003,324.0,,,,1743.4009,1743.9000999999998,1742.8843000000002,1743.4007,1740.8184,1742.8842,1743.9000999999998,1744.3999,1744.3999,1745.6664,867.0,1745.6664999999998,2.0,1745.6723000000002,8.0,12.0,252.0,1.0,1.0,1.0,0.3,Time
,,S03,1,male,24,anonymized,Serial_Dependence_U,2023.2.3,Win32,60.24096385542697,,,,,,1745.6725,353.0,8.0,1745.6726,353.0,,,,1749.0322,1749.5313999999998,1748.5158,1749.0321,1746.6829000000002,1748.5156000000002,1749.5313999999998,1750.0313999999998,1750.0313999999998,1751.5811,1120.0,1751.5811,5.0,1751.5871000000002,8.0,13.0,253.0,25.0,1.0,0.8,0.7,Time
,,S03,1,male,24,anonymized,Serial_Dependence_U,2023.2.3,Win32,60.24096385542697,,,,,,1751.5873,79.0,8.0,1751.5873,79.0,,,,1754.9468000000002,1755.4462000000003,1754.4305,1754.9467,1752.5975,1754.4303,1755.4462000000003,1755.946,1755.946,1757.3957999999998,1090.0,1757.3959,5.0,1757.4018,8.0,14.0,254.0,15.0,1.0,0.8,0.7,Time
,,S03,1,male,24,anonymized,Serial_Dependence_U,2023.2.3,Win32,60.24096385542697,,,,,,1757.402,67.0,8.0,1757.402,67.0,,,,1761.3947000000005,1761.8937,1760.8782,1761.3945,1758.4122000000002,1760.8781,1761.8937,1762.3937999999998,1762.3939,1763.1102999999998,282.0,1763.1104,1.0,1763.1162,8.0,15.0,255.0,3.0,1.0,1.4,0.3,Time
,,S03,1,male,24,anonymized,Serial_Dependence_U,2023.2.3,Win32,60.24096385542697,,,,,,1763.1164,109.0,8.0,1763.1164,109.0,,,,1767.0594999999998,1767.5587,1766.5429,1767.0593,1764.1102999999998,1766.5428000000002,1767.5587,1768.0584,1768.0585,1769.8916,1415.0,1769.8916,3.0,1769.8975,8.0,16.0,256.0,8.0,1.0,1.4,0.7,Time
,,S03,1,male,24,anonymized,Serial_Dependence_U,2023.2.3,Win32,60.24096385542697,,,,,,1769.8976000000002,254.0,8.0,1769.8977,254.0,,,,1773.4739,1773.9732,1772.9575,1773.4737999999998,1770.8912999999998,1772.9572000000005,1773.9732,1774.4729000000002,1774.4729000000002,1775.1563,262.0,1775.1563999999998,1.0,1775.1619999999998,8.0,17.0,257.0,21.0,1.0,1.0,0.3,Time
,,S03,1,male,24,anonymized,Serial_Dependence_U,2023.2.3,Win32,60.24096385542697,,,,,,1775.1622000000002,5.0,8.0,1775.1623,5.0,,,,1779.1553,1779.6545999999998,1778.6388000000002,1779.1552,1776.1729,1778.6387,1779.6545999999998,1780.1542,1780.1542,1781.6374,1064.0,1781.6376,2.0,1781.6434,8.0,18.0,258.0,23.0,1.0,1.4,0.3,Time
,,S03,1,male,24,anonymized,Serial_Dependence_U,2023.2.3,Win32,60.24096385542697,,,,,,1781.6436,206.0,8.0,1781.6436,206.0,,,,1785.8365,1786.3355,1785.3197999999998,1785.8364,1782.654,1785.3195999999998,1786.3355,1786.8354,1786.8355,1787.5689000000002,252.0,1787.569,1.0,1787.5748,8.0,19.0,259.0,14.0,1.0,1.6,0.3,Time
,,S03,1,male,24,anonymized,Serial_Dependence_U,2023.2.3,Win32,60.24096385542697,,,,,,1787.5749999999998,130.0,8.0,1787.5749999999998,130.0,,,,1791.5676,1792.0671000000002,1791.0511,1791.5675,1788.5853000000002,1791.051,1792.0671000000002,1792.5669000000005,1792.5669000000005,1793.5002,598.0,1793.5003000000002,1.0,1793.506,8.0,20.0,260.0,13.0,1.0,1.4,0.3,Time
,,S03,1,male,24,anonymized,Serial_Dependence_U,2023.2.3,Win32,60.24096385542697,,,,,,1793.5062000000005,128.0,8.0,1793.5062000000005,128.0,,,,1797.2659,1797.7651,1796.7494000000002,1797.2658,1794.5166,1796.7492000000002,1797.7651,1798.2649,1798.265,1799.7979,1127.0,1799.7979999999998,2.0,1799.8037,8.0,21.0,261.0,27.0,1.0,1.2,0.7,Time
,,S03,1,male,24,anonymized,Serial_Dependence_U,2023.2.3,Win32,60.24096385542697,,,,,,1799.8038,101.0,8.0,1799.804,101.0,,,,1803.3637000000003,1803.863,1802.8472,1803.3636,1800.8145,1802.8471,1803.863,1804.3628,1804.3628,1805.7461,1095.0,1805.7462,4.0,1805.7519,8.0,22.0,262.0,16.0,1.0,1.0,0.7,Time
,,S03,1,male,24,anonymized,Serial_Dependence_U,2023.2.3,Win32,60.24096385542697,,,,,,1805.752,115.0,8.0,1805.7521,115.0,,,,1809.9115,1810.4108,1809.3949,1809.9114,1806.7624,1809.3949,1810.4108,1810.9106,1810.9106,1812.51,1222.0,1812.51,2.0,1812.5158,8.0,23.0,263.0,19.0,1.0,1.6,0.7,Time
,,S03,1,male,24,anonymized,Serial_Dependence_U,2023.2.3,Win32,60.24096385542697,,,,,,1812.516,330.0,8.0,1812.5161,330.0,,,,1815.9091,1816.4087,1815.3929000000005,1815.9091,1813.5267,1815.3928,1816.4087,1816.9086,1816.9086,1817.8416,560.0,1817.8417,1.0,1817.8475,8.0,24.0,264.0,0.0,1.0,0.8,0.3,Time
,,S03,1,male,24,anonymized,Serial_Dependence_U,2023.2.3,Win32,60.24096385542697,,,,,,1817.8477000000005,243.0,8.0,1817.8477000000005,243.0,,,,1821.8074,1822.3066,1821.2907,1821.8073,1818.8583,1821.2907,1822.3066,1822.8065,1822.8065,1824.2897000000005,1097.0,1824.2898,2.0,1824.2956,8.0,25.0,265.0,28.0,1.0,1.4,0.7,Time
,,S03,1,male,24,anonymized,Serial_Dependence_U,2023.2.3,Win32,60.24096385542697,,,,,,1824.2957,2.0,8.0,1824.2958,2.0,,,,1827.8553,1828.3547000000003,1827.3389,1827.8552,1825.306,1827.3388,1828.3547000000003,1828.8544,1828.8545,1830.4707000000003,1271.0,1830.4707000000003,4.0,1830.4766,8.0,26.0,266.0,6.0,1.0,1.0,0.7,Time
,,S03,1,male,24,anonymized,Serial_Dependence_U,2023.2.3,Win32,60.24096385542697,,,,,,1830.4767,76.0,8.0,1830.4767,76.0,,,,1834.6364,1835.1356,1834.1199,1834.6363,1831.4875,1834.1197,1835.1357000000005,1835.6355,1835.6355,1837.2516,1271.0,1837.2518,2.0,1837.2579,8.0,27.0,267.0,9.0,1.0,1.6,0.7,Time
,,S03,1,male,24,anonymized,Serial_Dependence_U,2023.2.3,Win32,60.24096385542697,,,,,,1837.2581,6.0,8.0,1837.2581,6.0,,,,1840.651,1841.1503,1840.1345,1840.6508,1838.2684,1840.1344,1841.1504,1841.6502,1841.6502,1842.8666,871.0,1842.8668,4.0,1842.8725,8.0,28.0,268.0,10.0,1.0,0.8,0.3,Time
,,S03,1,male,24,anonymized,Serial_Dependence_U,2023.2.3,Win32,60.24096385542697,,,,,,1842.8727,310.0,8.0,1842.8728,310.0,,,,1846.6322,1847.1316,1846.1158,1846.6322,1843.8831,1846.1157000000003,1847.1316,1847.6315,1847.6315,1849.0646,1045.0,1849.0647,2.0,1849.0706,8.0,29.0,269.0,17.0,1.0,1.2,0.7,Time
