Scale_setup.started,Scale_setup.stopped,participant,session,sex,age,date,expName,psychopyVersion,OS,frameRate,Intro.started,Intro.stopped,key_resp_2.keys,key_resp_2.rt,key_resp_2.duration,block.started,direction,Block_id,block.stopped,trial_direction,Block_resp_2.keys,Block_resp_2.rt,Block_resp_2.duration,ITI.started,ITI.stopped,Mask_2.started,Mask_2.stopped,encoding.started,encoding.stopped,Cue.started,Cue.stopped,Response.started,Response.stopped,keyDuration,Feedback_Time.started,FeedbackID_T,Feedback_Time.stopped,trials.thisRepN,trials.thisTrialN,trials.thisN,trials.thisIndex,trials.ran,TimeDur,Coherence1,TrialType
0.0002999999523147,0.0004000000953681,S04,1,男,21,anonymized,Serial_Dependence_U,2023.2.3,Win32,166.66666666666666,,,,,,,,,,,,,,,,,,,,,,,,,,,,,,,,,,,
,,S04,1,男,21,anonymized,Serial_Dependence_U,2023.2.3,Win32,166.66666666666666,11.495200000047678,12.287799999952307,space,0.7734000000953642,,,,,,,,,,,,,,,,,,,,,,,,,,,,,,,
,,S04,1,男,21,anonymized,Serial_Dependence_U,2023.2.3,Win32,166.66666666666666,,,,,,12.291799999952314,104.0,0.0,13.130400000095367,104.0,s,0.8283999998569485,,17.076100000143047,17.572900000095363,16.573999999999995,17.075999999999997,14.136799999952313,16.57390000009536,17.573100000143047,18.07570000004768,18.075799999952316,20.638799999952315,1938.0,20.639,5.0,21.63420000004768,0.0,0.0,0.0,28.0,1.0,1.4,0.7,Time
,,S04,1,男,21,anonymized,Serial_Dependence_U,2023.2.3,Win32,166.66666666666666,,,,,,21.63460000014305,137.0,0.0,21.63610000014305,137.0,,,,24.988900000095366,25.48729999995231,24.473600000143048,24.98879999995231,22.6375,24.473400000095364,25.48729999995231,25.98360000014305,25.98370000004768,27.58890000009536,1146.0,27.588999999999995,5.0,28.58170000004768,0.0,1.0,1.0,15.0,1.0,0.8,0.7,Time
,,S04,1,男,21,anonymized,Serial_Dependence_U,2023.2.3,Win32,166.66666666666666,,,,,,28.581900000095363,200.0,0.0,28.582,200.0,,,,32.15020000004768,32.64710000014304,31.647900000095365,32.14999999999999,29.575200000047683,31.64779999995232,32.647200000047675,33.144200000047675,33.14429999995231,34.43190000009537,889.0,34.43190000009537,2.0,35.43190000009537,0.0,2.0,2.0,21.0,1.0,1.0,0.3,Time
,,S04,1,男,21,anonymized,Serial_Dependence_U,2023.2.3,Win32,166.66666666666666,,,,,,35.43210000014305,270.0,0.0,35.43210000014305,270.0,,,,38.76570000004769,39.26870000004769,38.26479999995232,38.76560000014305,36.43070000004768,38.26470000004768,39.26870000004769,39.766100000143055,39.76620000004769,40.95070000004769,711.0,40.95070000004769,2.0,41.95470000004768,0.0,3.0,3.0,5.0,1.0,0.8,0.7,Time
,,S04,1,男,21,anonymized,Serial_Dependence_U,2023.2.3,Win32,166.66666666666666,,,,,,41.95510000014305,345.0,0.0,41.95520000004768,345.0,,,,45.725,46.22540000009536,45.22179999995231,45.724900000095374,42.9605,45.22170000004769,46.2255,46.722,46.72210000014304,48.16870000004768,1080.0,48.16870000004768,2.0,49.16970000004768,0.0,4.0,4.0,2.0,1.0,1.2,0.3,Time
,,S04,1,男,21,anonymized,Serial_Dependence_U,2023.2.3,Win32,166.66666666666666,,,,,,49.170200000047686,352.0,0.0,49.17029999995232,352.0,,,,53.150000000000006,53.64570000004768,52.64329999995232,53.14990000009537,50.17640000009537,52.643200000047685,53.64570000004768,54.14190000009536,54.14190000009536,56.45310000014305,1957.0,56.45310000014305,5.0,57.449700000047685,0.0,5.0,5.0,13.0,1.0,1.4,0.3,Time
,,S04,1,男,21,anonymized,Serial_Dependence_U,2023.2.3,Win32,166.66666666666666,,,,,,57.44990000009537,60.0,0.0,57.45010000014305,60.0,,,,61.19979999995232,61.70090000009537,60.69170000004769,61.19960000014305,58.45620000004769,60.69140000009537,61.70099999999999,62.197500000000005,62.197500000000005,63.86610000014305,1340.0,63.86620000004768,4.0,64.86520000004768,0.0,6.0,6.0,7.0,1.0,1.2,0.7,Time
,,S04,1,男,21,anonymized,Serial_Dependence_U,2023.2.3,Win32,166.66666666666666,,,,,,64.8655,124.0,0.0,64.86560000014305,124.0,,,,68.61029999995232,69.09929999995232,68.10429999995232,68.61010000014305,65.86429999995232,68.10429999995232,69.09929999995232,69.5955,69.59560000014305,71.57020000004768,1681.0,71.57029999995231,5.0,72.571,0.0,7.0,7.0,27.0,1.0,1.2,0.7,Time
,,S04,1,男,21,anonymized,Serial_Dependence_U,2023.2.3,Win32,166.66666666666666,,,,,,72.57120000004768,87.0,0.0,72.57129999995232,87.0,,,,76.51629999995231,77.01320000004769,76.01160000014305,76.51629999995231,73.579,76.0115,77.01320000004769,77.51440000009536,77.51440000009536,79.57160000014305,1769.0,79.57160000014305,4.0,80.56340000009537,0.0,8.0,8.0,8.0,1.0,1.4,0.7,Time
,,S04,1,男,21,anonymized,Serial_Dependence_U,2023.2.3,Win32,166.66666666666666,,,,,,80.56370000004769,245.0,0.0,80.56390000009537,245.0,,,,84.11379999995232,84.61240000009536,83.60479999995232,84.11379999995232,81.56470000004768,83.60470000004769,84.61240000009536,85.10860000014306,85.10879999995231,86.709,1210.0,86.70910000014305,4.0,87.71170000004768,0.0,9.0,9.0,16.0,1.0,1.0,0.7,Time
,,S04,1,男,21,anonymized,Serial_Dependence_U,2023.2.3,Win32,166.66666666666666,,,,,,87.71220000004769,127.0,0.0,87.71220000004769,127.0,,,,91.88820000004768,92.38460000014304,91.3815,91.88810000014306,88.71610000014306,91.3815,92.38460000014304,92.88729999995232,92.88729999995232,94.64560000014303,1484.0,94.64560000014303,2.0,95.63829999995232,0.0,10.0,10.0,14.0,1.0,1.6,0.3,Time
,,S04,1,男,21,anonymized,Serial_Dependence_U,2023.2.3,Win32,166.66666666666666,,,,,,95.63840000009536,41.0,0.0,95.63840000009536,41.0,,,,99.57920000004768,100.07929999995233,99.07160000014304,99.57920000004768,96.6385,99.07160000014304,100.07940000009536,100.57690000009536,100.57690000009536,102.451,1474.0,102.451,4.0,103.4472999999523,0.0,11.0,11.0,18.0,1.0,1.4,0.7,Time
,,S04,1,男,21,anonymized,Serial_Dependence_U,2023.2.3,Win32,166.66666666666666,,,,,,103.4475,124.0,0.0,103.44760000014304,124.0,,,,107.22360000014304,107.72170000004768,106.721,107.22360000014304,104.45429999995233,106.721,107.72170000004768,108.21960000014305,108.21960000014305,109.09020000004767,558.0,109.09020000004767,1.0,110.08579999995231,0.0,12.0,12.0,22.0,1.0,1.2,0.3,Time
,,S04,1,男,21,anonymized,Serial_Dependence_U,2023.2.3,Win32,166.66666666666666,,,,,,110.0862000000477,189.0,0.0,110.08629999995232,189.0,,,,113.86540000009536,114.36340000009535,113.35760000014304,113.86529999995231,111.09490000009536,113.3575,114.36340000009535,114.8635,114.8635,117.40920000004768,2036.0,117.40920000004768,5.0,118.41220000004768,0.0,13.0,13.0,12.0,1.0,1.2,0.3,Time
,,S04,1,男,21,anonymized,Serial_Dependence_U,2023.2.3,Win32,166.66666666666666,,,,,,118.4125,33.0,0.0,118.41260000014306,33.0,,,,122.58990000009535,123.08820000004768,122.081,122.58990000009535,119.41490000009536,122.08090000009535,123.08829999995233,123.58670000004768,123.5867999999523,124.59070000004768,795.0,124.59070000004768,1.0,125.58760000014304,0.0,14.0,14.0,24.0,1.0,1.6,0.3,Time
,,S04,1,男,21,anonymized,Serial_Dependence_U,2023.2.3,Win32,166.66666666666666,,,,,,125.58779999995232,30.0,0.0,125.58790000009536,30.0,,,,129.1747000000477,129.6775,128.66810000014306,129.17460000014307,126.59479999995231,128.668,129.67760000014306,130.17829999995234,130.17829999995234,131.98190000009538,1412.0,131.98190000009538,5.0,132.98479999995234,0.0,15.0,15.0,1.0,1.0,1.0,0.3,Time
,,S04,1,男,21,anonymized,Serial_Dependence_U,2023.2.3,Win32,166.66666666666666,,,,,,132.985,325.0,0.0,132.98510000014306,325.0,,,,136.3495,136.8485,135.84390000009537,136.3495,133.9792000000477,135.84379999995232,136.8485,137.34929999995234,137.34929999995234,138.62260000014305,843.0,138.6227000000477,4.0,139.6197999999523,0.0,16.0,16.0,20.0,1.0,0.8,0.3,Time
,,S04,1,男,21,anonymized,Serial_Dependence_U,2023.2.3,Win32,166.66666666666666,,,,,,139.62010000014303,69.0,0.0,139.6202000000477,69.0,,,,143.60310000014306,144.10010000014307,143.0969000000954,143.603,140.62760000014308,143.0969000000954,144.10010000014307,144.59829999995233,144.59829999995233,145.98329999995232,967.0,145.98340000009537,1.0,146.98000000000002,0.0,17.0,17.0,3.0,1.0,1.4,0.3,Time
,,S04,1,男,21,anonymized,Serial_Dependence_U,2023.2.3,Win32,166.66666666666666,,,,,,146.9804000000954,98.0,0.0,146.9805,98.0,,,,150.95879999995233,151.45829999995232,150.4504000000954,150.95879999995233,147.98600000000002,150.4504000000954,151.4584000000954,151.95910000014305,151.9592000000477,154.191,1596.0,154.191,4.0,155.18860000014303,0.0,18.0,18.0,23.0,1.0,1.4,0.3,Time
,,S04,1,男,21,anonymized,Serial_Dependence_U,2023.2.3,Win32,166.66666666666666,,,,,,155.18900000000002,298.0,0.0,155.18910000014307,298.0,,,,158.7307000000477,159.2307000000477,158.2264000000954,158.73060000014306,156.1882000000477,158.22629999995232,159.23079999995232,159.73110000014307,159.73110000014307,162.44400000000002,1211.0,162.44400000000002,4.0,163.44060000014306,0.0,19.0,19.0,26.0,1.0,1.0,0.7,Time
,,S04,1,男,21,anonymized,Serial_Dependence_U,2023.2.3,Win32,166.66666666666666,,,,,,163.44110000014305,23.0,0.0,163.4412000000477,23.0,,,,167.5892000000477,168.09029999995232,167.0824000000954,167.58910000014308,164.4445,167.08229999995234,168.09029999995232,168.5909000000954,168.5909000000954,170.78429999995234,1667.0,170.78429999995234,3.0,171.78410000014307,0.0,20.0,20.0,19.0,1.0,1.6,0.7,Time
,,S04,1,男,21,anonymized,Serial_Dependence_U,2023.2.3,Win32,166.66666666666666,,,,,,171.78429999995234,301.0,0.0,171.7844000000954,301.0,,,,175.35740000009537,175.85729999995232,174.852,175.35740000009537,172.7904000000954,174.85190000009538,175.85740000009537,176.35310000014306,176.3532000000477,177.73529999995233,945.0,177.73540000009538,2.0,178.7314000000954,0.0,21.0,21.0,11.0,1.0,1.0,0.3,Time
,,S04,1,男,21,anonymized,Serial_Dependence_U,2023.2.3,Win32,166.66666666666666,,,,,,178.73160000014306,300.0,0.0,178.7317000000477,300.0,,,,182.11550000000005,182.61300000000003,181.6064000000954,182.11540000009535,179.7409000000954,181.60629999995237,182.61300000000003,183.1115,183.11160000014303,184.697,1217.0,184.697,5.0,185.69010000014308,0.0,22.0,22.0,0.0,1.0,0.8,0.3,Time
,,S04,1,男,21,anonymized,Serial_Dependence_U,2023.2.3,Win32,166.66666666666666,,,,,,185.6905,350.0,0.0,185.69060000014304,350.0,,,,189.82360000014307,190.31940000009536,189.31740000009535,189.8235,186.68679999995237,189.31729999995235,190.3195,190.81629999995232,190.8165,192.69710000014305,1445.0,192.69710000014305,2.0,193.689,0.0,23.0,23.0,9.0,1.0,1.6,0.7,Time
,,S04,1,男,21,anonymized,Serial_Dependence_U,2023.2.3,Win32,166.66666666666666,,,,,,193.6895,49.0,0.0,193.6895,49.0,,,,197.8685,198.3682000000477,197.36529999995236,197.8684000000954,194.69679999995236,197.3652000000477,198.3682000000477,198.86810000014307,198.8682000000477,202.2142000000477,1151.0,202.2142000000477,2.0,203.2135,0.0,24.0,24.0,4.0,1.0,1.6,0.3,Time
,,S04,1,男,21,anonymized,Serial_Dependence_U,2023.2.3,Win32,166.66666666666666,,,,,,203.21379999995236,68.0,0.0,203.21390000009535,68.0,,,,206.5507000000477,207.04729999995237,206.0487000000477,206.5507000000477,204.21379999995236,206.0487000000477,207.0474000000954,207.54700000000005,207.54710000014308,209.06629999995232,1084.0,209.06640000009537,5.0,210.069,0.0,25.0,25.0,25.0,1.0,0.8,0.7,Time
,,S04,1,男,21,anonymized,Serial_Dependence_U,2023.2.3,Win32,166.66666666666666,,,,,,210.06940000009536,63.0,0.0,210.0695,63.0,,,,213.61779999995235,214.1137000000477,213.11,213.61779999995235,211.07770000004768,213.11,214.11379999995236,214.61010000014304,214.61010000014304,216.43610000014303,1288.0,216.4362000000477,4.0,217.4395,0.0,26.0,26.0,6.0,1.0,1.0,0.7,Time
,,S04,1,男,21,anonymized,Serial_Dependence_U,2023.2.3,Win32,166.66666666666666,,,,,,217.43990000009535,286.0,0.0,217.44000000000003,286.0,,,,221.5787000000477,222.0765,221.0732000000477,221.57860000014307,218.44000000000003,221.07310000014303,222.07660000014303,222.57910000014303,222.5792000000477,224.66940000009535,1703.0,224.66940000009535,4.0,225.66340000009535,0.0,27.0,27.0,29.0,1.0,1.6,0.7,Time
,,S04,1,男,21,anonymized,Serial_Dependence_U,2023.2.3,Win32,166.66666666666666,,,,,,225.66379999995232,305.0,0.0,225.664,305.0,,,,229.04590000009537,229.54240000009537,228.53729999995232,229.04579999995232,226.67020000004769,228.5372000000477,229.5425,230.04229999995232,230.04240000009537,247.6012000000477,1675.0,247.6012000000477,5.0,248.6035,0.0,28.0,28.0,10.0,1.0,0.8,0.3,Time
,,S04,1,男,21,anonymized,Serial_Dependence_U,2023.2.3,Win32,166.66666666666666,,,,,,248.60379999995237,149.0,0.0,248.60400000000004,149.0,,,,252.3484000000954,252.8487000000477,251.8455,252.3482999999523,249.61390000009536,251.84540000009537,252.8487000000477,253.34729999995236,253.34740000009535,255.39029999995236,1240.0,255.39029999995236,3.0,256.39179999995235,0.0,29.0,29.0,17.0,1.0,1.2,0.7,Time
,,S04,1,男,21,anonymized,Serial_Dependence_U,2023.2.3,Win32,166.66666666666666,,,,,,256.39210000014305,4.0,1.0,274.3332000000477,4.0,s,17.92140000009539,,278.1041000001431,278.60379999995234,277.6014000000954,278.1041000001431,275.3372000000477,277.6014000000954,278.6039000000954,279.0955,279.0955,281.2777999999523,1533.0,281.27790000009537,4.0,281.2822999999524,1.0,0.0,30.0,12.0,1.0,1.2,0.3,Time
,,S04,1,男,21,anonymized,Serial_Dependence_U,2023.2.3,Win32,166.66666666666666,,,,,,281.2824000000954,95.0,1.0,281.283,95.0,,,,285.22700000000003,285.7226000001431,284.7227000000477,285.2269000000954,282.2869000000954,284.7227000000477,285.7227000000477,286.21500000000003,286.21500000000003,288.67810000014305,1921.0,288.67810000014305,5.0,288.6825,1.0,1.0,31.0,28.0,1.0,1.4,0.7,Time
,,S04,1,男,21,anonymized,Serial_Dependence_U,2023.2.3,Win32,166.66666666666666,,,,,,288.6827000000477,190.0,1.0,288.6827000000477,190.0,,,,292.2225,292.7219000000954,291.7155,292.2224000000954,289.6791000001431,291.7155,292.7219000000954,293.2227000000477,293.2227000000477,295.375,1710.0,295.37510000014305,5.0,295.37979999995235,1.0,2.0,32.0,16.0,1.0,1.0,0.7,Time
,,S04,1,男,21,anonymized,Serial_Dependence_U,2023.2.3,Win32,166.66666666666666,,,,,,295.38,351.0,1.0,295.38010000014305,351.0,,,,299.31979999995235,299.8159000000954,298.81510000014305,299.3197000000477,296.3787000000477,298.815,299.81600000000003,300.31729999995235,300.31729999995235,302.40950000000004,1650.0,302.4096000001431,4.0,302.4142000000477,1.0,3.0,33.0,8.0,1.0,1.4,0.7,Time
,,S04,1,男,21,anonymized,Serial_Dependence_U,2023.2.3,Win32,166.66666666666666,,,,,,302.4144000000954,146.0,1.0,302.41450000000003,146.0,,,,306.5592000000477,307.05690000009537,306.05129999995233,306.5591000001431,303.41829999995235,306.0512000000477,307.05690000009537,307.5537000000477,307.5537000000477,310.1394000000954,2200.0,310.1394000000954,5.0,310.14429999995235,1.0,4.0,34.0,29.0,1.0,1.6,0.7,Time
,,S04,1,男,21,anonymized,Serial_Dependence_U,2023.2.3,Win32,166.66666666666666,,,,,,310.1445,0.0,1.0,310.14460000014304,0.0,,,,313.70910000014305,314.20640000009536,313.2051000001431,313.70910000014305,311.1392000000477,313.20500000000004,314.2065,314.7079000000954,314.708,316.47129999995235,473.0,316.47129999995235,1.0,316.4755,1.0,5.0,35.0,1.0,1.0,1.0,0.3,Time
,,S04,1,男,21,anonymized,Serial_Dependence_U,2023.2.3,Win32,166.66666666666666,,,,,,316.4757000000477,29.0,1.0,316.4757999999524,29.0,,,,320.216,320.7119000000954,319.71500000000003,320.216,317.4834000000954,319.71479999995233,320.7119000000954,321.20910000014305,321.2092000000477,323.2677999999524,1583.0,323.2677999999524,5.0,323.2727000000477,1.0,6.0,36.0,7.0,1.0,1.2,0.7,Time
,,S04,1,男,21,anonymized,Serial_Dependence_U,2023.2.3,Win32,166.66666666666666,,,,,,323.2727999999523,94.0,1.0,323.2729000000954,94.0,,,,327.45050000000003,327.9499000000954,326.93940000009536,327.45050000000003,324.2757000000477,326.93940000009536,327.9499000000954,328.4456000001431,328.4457000000477,329.79290000009536,859.0,329.793,1.0,329.79760000014306,1.0,7.0,37.0,14.0,1.0,1.6,0.3,Time
,,S04,1,男,21,anonymized,Serial_Dependence_U,2023.2.3,Win32,166.66666666666666,,,,,,329.7977999999523,54.0,1.0,329.7977999999523,54.0,,,,333.16360000014305,333.6662000000477,332.65879999995235,333.1635,330.7952000000477,332.6587000000477,333.66629999995234,334.1622999999523,334.1622999999523,336.415,1803.0,336.41510000014307,5.0,336.42060000014305,1.0,8.0,38.0,20.0,1.0,0.8,0.3,Time
,,S04,1,男,21,anonymized,Serial_Dependence_U,2023.2.3,Win32,166.66666666666666,,,,,,336.42079999995235,161.0,1.0,336.42079999995235,161.0,,,,340.3997000000477,340.896,339.8955,340.39960000014304,337.43010000014306,339.8952999999524,340.896,341.396,341.396,344.0294000000954,2085.0,344.0294000000954,5.0,344.03429999995234,1.0,9.0,39.0,13.0,1.0,1.4,0.3,Time
,,S04,1,男,21,anonymized,Serial_Dependence_U,2023.2.3,Win32,166.66666666666666,,,,,,344.03450000000004,215.0,1.0,344.03450000000004,215.0,,,,347.367,347.8627999999524,346.8602999999523,347.367,345.0277000000477,346.8602999999523,347.8629000000954,348.3635,348.36360000014304,350.1107000000477,1310.0,350.1107000000477,5.0,350.1152999999524,1.0,10.0,40.0,25.0,1.0,0.8,0.7,Time
,,S04,1,男,21,anonymized,Serial_Dependence_U,2023.2.3,Win32,166.66666666666666,,,,,,350.1155,127.0,1.0,350.11560000014305,127.0,,,,354.29290000009536,354.78950000000003,353.7839000000954,354.2927999999523,351.11990000009536,353.78379999995235,354.78950000000003,355.2889000000954,355.2889000000954,356.47790000009536,620.0,356.478,1.0,356.4821000001431,1.0,11.0,41.0,4.0,1.0,1.6,0.3,Time
,,S04,1,男,21,anonymized,Serial_Dependence_U,2023.2.3,Win32,166.66666666666666,,,,,,356.48240000009537,20.0,1.0,356.48240000009537,20.0,,,,359.8306000001431,360.3262999999523,359.3177000000477,359.8306000001431,357.4822000000477,359.31760000014305,360.3262999999523,360.8276000001431,360.8276000001431,361.8735,644.0,361.8735,2.0,361.87779999995234,1.0,12.0,42.0,15.0,1.0,0.8,0.7,Time
,,S04,1,男,21,anonymized,Serial_Dependence_U,2023.2.3,Win32,166.66666666666666,,,,,,361.878,284.0,1.0,361.878,284.0,,,,366.0167999999524,366.51640000009536,365.5145,366.0167000000477,362.87779999995234,365.5144000000954,366.51640000009536,367.0179000000954,367.018,369.365,1809.0,369.365,4.0,369.3697000000477,1.0,13.0,43.0,9.0,1.0,1.6,0.7,Time
,,S04,1,男,21,anonymized,Serial_Dependence_U,2023.2.3,Win32,166.66666666666666,,,,,,369.36990000009536,227.0,1.0,369.37,227.0,,,,373.34229999995233,373.8416000001431,372.8402000000477,373.3421000001431,370.3742000000477,372.8401000001431,373.8416000001431,374.34179999995234,374.3419000000954,376.1846000001431,1273.0,376.1847000000477,2.0,376.1892000000477,1.0,14.0,44.0,23.0,1.0,1.4,0.3,Time
,,S04,1,男,21,anonymized,Serial_Dependence_U,2023.2.3,Win32,166.66666666666666,,,,,,376.18940000009536,225.0,1.0,376.1895,225.0,,,,379.73490000009537,380.2367999999523,379.228,379.73490000009537,377.196,379.228,380.2369000000954,380.7422000000477,380.7422999999523,390.32840000009537,1615.0,390.32840000009537,5.0,390.3335,1.0,15.0,45.0,26.0,1.0,1.0,0.7,Time
,,S04,1,男,21,anonymized,Serial_Dependence_U,2023.2.3,Win32,166.66666666666666,,,,,,390.3336000001431,348.0,1.0,390.3337000000477,348.0,,,,394.2634000000954,394.7622000000477,393.76260000014304,394.2632999999523,391.3319000000954,393.7625,394.7622000000477,395.25779999995234,395.25779999995234,397.8112000000477,1777.0,397.8112999999523,4.0,397.81640000009537,1.0,16.0,46.0,18.0,1.0,1.4,0.7,Time
,,S04,1,男,21,anonymized,Serial_Dependence_U,2023.2.3,Win32,166.66666666666666,,,,,,397.8166000001431,205.0,1.0,397.8167000000477,205.0,,,,401.1592000000477,401.6586000001431,400.65090000009536,401.1592000000477,398.818,400.6507999999523,401.6586000001431,402.159,402.15910000014304,409.02479999995234,1682.0,409.02479999995234,5.0,409.0294000000954,1.0,17.0,47.0,5.0,1.0,0.8,0.7,Time
,,S04,1,男,21,anonymized,Serial_Dependence_U,2023.2.3,Win32,166.66666666666666,,,,,,409.0296000001431,88.0,1.0,409.0296000001431,88.0,,,,412.3935,412.8932999999523,411.8924000000954,412.39340000009537,410.0267000000477,411.89229999995234,412.89340000009537,413.3899000000954,413.3899000000954,415.0845,1028.0,415.0845,4.0,415.0887999999524,1.0,18.0,48.0,10.0,1.0,0.8,0.3,Time
,,S04,1,男,21,anonymized,Serial_Dependence_U,2023.2.3,Win32,166.66666666666666,,,,,,415.0889000000954,297.0,1.0,415.0891000001431,297.0,,,,418.85040000009536,419.3507999999524,418.34410000014304,418.85040000009536,416.10860000014304,418.34410000014304,419.3507999999524,419.8472000000477,419.8472000000477,421.8847999999524,1517.0,421.8849000000954,4.0,421.8899000000954,1.0,19.0,49.0,17.0,1.0,1.2,0.7,Time
,,S04,1,男,21,anonymized,Serial_Dependence_U,2023.2.3,Win32,166.66666666666666,,,,,,421.89,265.0,1.0,421.8901000001431,265.0,,,,425.4397999999524,425.9399000000954,424.9282000000477,425.4397999999524,422.893,424.9282000000477,425.9399000000954,426.44,426.4401000001431,428.2892000000477,1423.0,428.2892000000477,5.0,428.29360000014304,1.0,20.0,50.0,6.0,1.0,1.0,0.7,Time
,,S04,1,男,21,anonymized,Serial_Dependence_U,2023.2.3,Win32,166.66666666666666,,,,,,428.29379999995234,192.0,1.0,428.29379999995234,192.0,,,,431.8697000000477,432.36740000009536,431.3647000000477,431.8696000001431,429.2989000000954,431.3646000001431,432.3675,432.8679000000954,432.8679000000954,435.6362999999523,2290.0,435.6362999999523,5.0,435.6407000000477,1.0,21.0,51.0,21.0,1.0,1.0,0.3,Time
,,S04,1,男,21,anonymized,Serial_Dependence_U,2023.2.3,Win32,166.66666666666666,,,,,,435.64090000009537,75.0,1.0,435.64090000009537,75.0,,,,439.412,439.90910000014304,438.91,439.4119000000954,436.6495,438.91,439.9092000000477,440.4057000000477,440.4057000000477,441.7636000001431,951.0,441.7636000001431,2.0,441.7679000000954,1.0,22.0,52.0,22.0,1.0,1.2,0.3,Time
,,S04,1,男,21,anonymized,Serial_Dependence_U,2023.2.3,Win32,166.66666666666666,,,,,,441.768,3.0,1.0,441.7681000001431,3.0,,,,445.151,445.6521000001431,444.643,445.15090000009536,442.7755,444.643,445.6521000001431,446.1501000001431,446.1501000001431,448.17379999995234,1473.0,448.1739000000954,5.0,448.17829999995234,1.0,23.0,53.0,0.0,1.0,0.8,0.3,Time
,,S04,1,男,21,anonymized,Serial_Dependence_U,2023.2.3,Win32,166.66666666666666,,,,,,448.1784000000954,338.0,1.0,448.1785,338.0,,,,452.325,452.8262999999523,451.8212999999523,452.3247999999524,449.1812000000477,451.8212000000477,452.8262999999523,453.3236000001431,453.3237000000477,455.1701000001431,1731.0,455.1702000000477,4.0,455.1747000000477,1.0,24.0,54.0,19.0,1.0,1.6,0.7,Time
,,S04,1,男,21,anonymized,Serial_Dependence_U,2023.2.3,Win32,166.66666666666666,,,,,,455.17490000009536,177.0,1.0,455.17490000009536,177.0,,,,458.91,459.4122000000477,458.4076000001431,458.9099000000954,456.172,458.4076000001431,459.4122000000477,459.9092000000477,459.90929999995234,462.41879999995234,1584.0,462.41879999995234,5.0,462.4235,1.0,25.0,55.0,27.0,1.0,1.2,0.7,Time
,,S04,1,男,21,anonymized,Serial_Dependence_U,2023.2.3,Win32,166.66666666666666,,,,,,462.42379999995234,208.0,1.0,462.42379999995234,208.0,,,,465.9932000000477,466.4929000000954,465.4911000001431,465.9932000000477,463.4244000000954,465.491,466.4929000000954,466.9922999999523,466.99240000009536,468.203,954.0,468.2031000001431,3.0,468.208,1.0,26.0,56.0,11.0,1.0,1.0,0.3,Time
,,S04,1,男,21,anonymized,Serial_Dependence_U,2023.2.3,Win32,166.66666666666666,,,,,,468.2082000000477,233.0,1.0,468.2082000000477,233.0,,,,471.9764000000954,472.4699000000954,471.469,471.9762000000477,469.20779999995233,471.469,472.47,472.9681000001431,472.9682000000477,474.8097999999523,1412.0,474.8097999999523,4.0,474.8137999999523,1.0,27.0,57.0,2.0,1.0,1.2,0.3,Time
,,S04,1,男,21,anonymized,Serial_Dependence_U,2023.2.3,Win32,166.66666666666666,,,,,,474.8139000000954,254.0,1.0,474.814,254.0,,,,478.9837000000477,479.4817000000477,478.4784000000954,478.9835,475.815,478.4782999999524,479.4817000000477,479.9776000001431,479.9776000001431,503.150600000143,1151.0,503.1507000000477,2.0,503.1552000000477,1.0,28.0,58.0,24.0,1.0,1.6,0.3,Time
,,S04,1,男,21,anonymized,Serial_Dependence_U,2023.2.3,Win32,166.66666666666666,,,,,,503.1554000000954,204.0,1.0,503.1555,204.0,,,,507.1359000000954,507.6334000000954,506.6232999999523,507.1359000000954,504.1606000001431,506.6232000000477,507.6334000000954,508.13370000004767,508.13370000004767,509.0142999999524,863.0,509.0142999999524,1.0,509.01870000004766,1.0,29.0,59.0,3.0,1.0,1.4,0.3,Time
,,S04,1,男,21,anonymized,Serial_Dependence_U,2023.2.3,Win32,166.66666666666666,,,,,,509.01890000009536,131.0,2.0,510.907,131.0,s,1.8802999999522851,,514.6469999999999,515.1447999999523,514.1462000000477,514.6469000000953,511.9154000000954,514.1461000001431,515.1447999999523,515.644100000143,515.6442000000476,519.4107000000477,2777.0,519.4107000000477,5.0,519.4162000000476,2.0,0.0,60.0,27.0,1.0,1.2,0.7,Time
,,S04,1,男,21,anonymized,Serial_Dependence_U,2023.2.3,Win32,166.66666666666666,,,,,,519.4164000000953,350.0,2.0,519.4172000000476,350.0,,,,523.5654999999999,524.061600000143,523.061600000143,523.5654000000953,520.4289000000953,523.0614999999999,524.061600000143,524.5617999999523,524.5619000000953,526.7334000000953,1766.0,526.7334000000953,4.0,526.7379999999999,2.0,1.0,61.0,9.0,1.0,1.6,0.7,Time
,,S04,1,男,21,anonymized,Serial_Dependence_U,2023.2.3,Win32,166.66666666666666,,,,,,526.738100000143,131.0,2.0,526.7382999999522,131.0,,,,530.525100000143,531.0211000001431,530.0215,530.525,527.7492000000476,530.0215,531.0212000000477,531.5182000000476,531.5182000000476,538.4109000000954,1682.0,538.4109000000954,5.0,538.4152999999523,2.0,2.0,62.0,22.0,1.0,1.2,0.3,Time
,,S04,1,男,21,anonymized,Serial_Dependence_U,2023.2.3,Win32,166.66666666666666,,,,,,538.4156000001431,194.0,2.0,538.4156000001431,194.0,,,,541.9629000000954,542.4557999999523,541.4544999999999,541.9629000000954,539.4192999999523,541.4544999999999,542.4559000000953,542.952600000143,542.952600000143,551.6552999999523,297.0,551.6552999999523,1.0,551.66,2.0,3.0,63.0,26.0,1.0,1.0,0.7,Time
,,S04,1,男,21,anonymized,Serial_Dependence_U,2023.2.3,Win32,166.66666666666666,,,,,,551.6602000000477,353.0,2.0,551.6602000000477,353.0,,,,555.8019000000953,556.300600000143,555.299600000143,555.8017999999523,552.664600000143,555.2994000000954,556.3007000000476,556.802600000143,556.802600000143,570.6714999999999,1576.0,570.6714999999999,3.0,570.6757000000476,2.0,4.0,64.0,19.0,1.0,1.6,0.7,Time
,,S04,1,男,21,anonymized,Serial_Dependence_U,2023.2.3,Win32,166.66666666666666,,,,,,570.6759000000953,288.0,2.0,570.6759999999999,288.0,,,,574.6217999999523,575.118600000143,574.1194999999999,574.6217000000477,571.6837999999523,574.1194999999999,575.118600000143,575.6157000000477,575.6157000000477,577.9799000000953,936.0,577.9799999999999,1.0,577.9842999999523,2.0,5.0,65.0,18.0,1.0,1.4,0.7,Time
,,S04,1,男,21,anonymized,Serial_Dependence_U,2023.2.3,Win32,166.66666666666666,,,,,,577.9844999999999,162.0,2.0,577.9844999999999,162.0,,,,581.5654999999999,582.065600000143,581.0567000000476,581.5654999999999,578.9897999999523,581.056600000143,582.065600000143,582.5662000000476,582.5662999999523,584.9159000000953,53.0,584.9159999999999,1.0,584.9214999999999,2.0,6.0,66.0,1.0,1.0,1.0,0.3,Time
,,S04,1,男,21,anonymized,Serial_Dependence_U,2023.2.3,Win32,166.66666666666666,,,,,,584.9217000000476,64.0,2.0,584.9217999999523,64.0,,,,588.680100000143,589.176100000143,588.1712000000476,588.680100000143,585.9347999999522,588.171100000143,589.1762000000476,589.672100000143,589.672100000143,593.036,1587.0,593.036,5.0,593.0402999999523,2.0,7.0,67.0,17.0,1.0,1.2,0.7,Time
,,S04,1,男,21,anonymized,Serial_Dependence_U,2023.2.3,Win32,166.66666666666666,,,,,,593.0405,303.0,2.0,593.0406000001431,303.0,,,,596.3767999999523,596.8767999999523,595.8712999999523,596.3767000000477,594.0377000000476,595.8712000000477,596.8769000000954,597.377,597.3771000001431,598.8715,1070.0,598.8715,5.0,598.875600000143,2.0,8.0,68.0,5.0,1.0,0.8,0.7,Time
,,S04,1,男,21,anonymized,Serial_Dependence_U,2023.2.3,Win32,166.66666666666666,,,,,,598.8757000000477,227.0,2.0,598.8757999999523,227.0,,,,602.8397999999522,603.3389000000954,602.3387999999522,602.839600000143,599.875600000143,602.3387999999522,603.3389000000954,603.8354999999999,603.835600000143,604.3122999999523,119.0,604.3124000000953,1.0,604.3167999999523,2.0,9.0,69.0,23.0,1.0,1.4,0.3,Time
,,S04,1,男,21,anonymized,Serial_Dependence_U,2023.2.3,Win32,166.66666666666666,,,,,,604.317,149.0,2.0,604.317100000143,149.0,,,,608.0882000000477,608.5892000000476,607.5844000000953,608.0882000000477,605.3162999999523,607.5842999999522,608.5892000000476,609.0892000000476,609.0892000000476,609.9489000000954,89.0,609.949,1.0,609.9539000000954,2.0,10.0,70.0,12.0,1.0,1.2,0.3,Time
,,S04,1,男,21,anonymized,Serial_Dependence_U,2023.2.3,Win32,166.66666666666666,,,,,,609.9542000000476,300.0,2.0,609.9542000000476,300.0,,,,613.4929000000953,613.9897000000476,612.9852999999523,613.4927999999522,610.9539000000954,612.9852000000476,613.9897000000476,614.4904000000953,614.490600000143,615.893100000143,982.0,615.893100000143,3.0,615.8974000000953,2.0,11.0,71.0,16.0,1.0,1.0,0.7,Time
,,S04,1,男,21,anonymized,Serial_Dependence_U,2023.2.3,Win32,166.66666666666666,,,,,,615.897600000143,196.0,2.0,615.8977000000476,196.0,,,,619.4744000000953,619.9699999999999,618.9689999999999,619.4742999999522,616.9087000000476,618.9689999999999,619.970100000143,620.468100000143,620.468100000143,621.836,450.0,621.836100000143,1.0,621.840100000143,2.0,12.0,72.0,21.0,1.0,1.0,0.3,Time
,,S04,1,男,21,anonymized,Serial_Dependence_U,2023.2.3,Win32,166.66666666666666,,,,,,621.8402999999523,135.0,2.0,621.8402999999523,135.0,,,,625.2102000000476,625.709,624.7049999999999,625.2102000000476,622.8407999999523,624.7049000000953,625.709,626.2099999999999,626.2099999999999,627.2829000000953,89.0,627.2829000000953,1.0,627.2869000000953,2.0,13.0,73.0,20.0,1.0,0.8,0.3,Time
,,S04,1,男,21,anonymized,Serial_Dependence_U,2023.2.3,Win32,166.66666666666666,,,,,,627.287100000143,257.0,2.0,627.2872000000476,257.0,,,,631.259600000143,631.7612000000477,630.7554000000953,631.2595,628.289600000143,630.7552999999523,631.7612000000477,632.2574999999999,632.257600000143,632.6329000000953,354.0,632.6329000000953,1.0,632.637,2.0,14.0,74.0,3.0,1.0,1.4,0.3,Time
,,S04,1,男,21,anonymized,Serial_Dependence_U,2023.2.3,Win32,166.66666666666666,,,,,,632.637100000143,267.0,2.0,632.637100000143,267.0,,,,636.615,637.1114000000953,636.1124000000954,636.6149000000953,633.649,636.1124000000954,637.1114000000953,637.6124000000954,637.6125,638.2729000000953,182.0,638.2729000000953,1.0,638.2772000000476,2.0,15.0,75.0,13.0,1.0,1.4,0.3,Time
,,S04,1,男,21,anonymized,Serial_Dependence_U,2023.2.3,Win32,166.66666666666666,,,,,,638.2774000000953,133.0,2.0,638.2774000000953,133.0,,,,642.043600000143,642.5442999999523,641.5432999999523,642.043600000143,639.2794000000953,641.5432000000476,642.5442999999523,643.0449000000954,643.0449000000954,644.4402000000476,1285.0,644.4402999999522,4.0,644.4444000000954,2.0,16.0,76.0,2.0,1.0,1.2,0.3,Time
,,S04,1,男,21,anonymized,Serial_Dependence_U,2023.2.3,Win32,166.66666666666666,,,,,,644.444600000143,161.0,2.0,644.4447000000476,161.0,,,,648.5922000000477,649.0914000000953,648.0899000000953,648.592100000143,645.4492000000477,648.0897999999522,649.0914000000953,649.591600000143,649.591600000143,651.8379000000954,1959.0,651.8379000000954,4.0,651.8424000000954,2.0,17.0,77.0,29.0,1.0,1.6,0.7,Time
,,S04,1,男,21,anonymized,Serial_Dependence_U,2023.2.3,Win32,166.66666666666666,,,,,,651.842600000143,37.0,2.0,651.8427000000477,37.0,,,,655.779100000143,656.2769000000953,655.2779999999999,655.779100000143,652.8444999999999,655.2779000000953,656.2769000000953,656.7752000000477,656.7752000000477,659.3852999999523,1631.0,659.3854000000953,4.0,659.3899000000953,2.0,18.0,78.0,28.0,1.0,1.4,0.7,Time
,,S04,1,男,21,anonymized,Serial_Dependence_U,2023.2.3,Win32,166.66666666666666,,,,,,659.3902000000477,211.0,2.0,659.3902999999523,211.0,,,,662.9404999999999,663.4372000000476,662.4372999999523,662.9404999999999,660.4024000000953,662.4372999999523,663.4372000000476,663.9367000000476,663.9367000000476,665.1952000000476,419.0,665.1952999999522,1.0,665.1995,2.0,19.0,79.0,6.0,1.0,1.0,0.7,Time
,,S04,1,男,21,anonymized,Serial_Dependence_U,2023.2.3,Win32,166.66666666666666,,,,,,665.1999000000953,148.0,2.0,665.1999999999999,148.0,,,,669.385100000143,669.8855,668.876600000143,669.385,666.2129000000954,668.876600000143,669.8855,670.3855,670.3855,702.6772000000476,176.0,702.6772999999523,1.0,702.6819000000953,2.0,20.0,80.0,24.0,1.0,1.6,0.3,Time
,,S04,1,男,21,anonymized,Serial_Dependence_U,2023.2.3,Win32,166.66666666666666,,,,,,702.6822000000476,74.0,2.0,702.6822000000476,74.0,,,,706.8467000000477,707.3457000000476,706.345600000143,706.846600000143,703.6842999999523,706.3454999999999,707.3457000000476,707.846,707.846100000143,715.2757000000477,894.0,715.2757000000477,1.0,715.28,2.0,21.0,81.0,4.0,1.0,1.6,0.3,Time
,,S04,1,男,21,anonymized,Serial_Dependence_U,2023.2.3,Win32,166.66666666666666,,,,,,715.2802000000477,168.0,2.0,715.2802999999523,168.0,,,,718.619100000143,719.118600000143,718.1187000000476,718.619100000143,716.286100000143,718.1187000000476,719.118600000143,719.6142999999523,719.6142999999523,722.1197000000476,326.0,722.1197000000476,1.0,722.1237999999523,2.0,22.0,82.0,25.0,1.0,0.8,0.7,Time
,,S04,1,男,21,anonymized,Serial_Dependence_U,2023.2.3,Win32,166.66666666666666,,,,,,722.1239000000953,240.0,2.0,722.1239999999999,240.0,,,,725.4964000000954,725.9972999999522,724.987100000143,725.4962999999523,723.1222999999522,724.987,725.9972999999522,726.4944999999999,726.494600000143,727.461100000143,487.0,727.461100000143,1.0,727.465100000143,2.0,23.0,83.0,0.0,1.0,0.8,0.3,Time
,,S04,1,男,21,anonymized,Serial_Dependence_U,2023.2.3,Win32,166.66666666666666,,,,,,727.4652999999523,6.0,2.0,727.4652999999523,6.0,,,,731.6362999999523,732.1357999999523,731.1317999999522,731.6362000000477,728.4704999999999,731.131600000143,732.1357999999523,732.6327000000476,732.6327999999522,744.9957000000477,1274.0,744.9957000000477,2.0,745.0007999999523,2.0,24.0,84.0,14.0,1.0,1.6,0.3,Time
,,S04,1,男,21,anonymized,Serial_Dependence_U,2023.2.3,Win32,166.66666666666666,,,,,,745.001,228.0,2.0,745.001100000143,228.0,,,,748.7505,749.2479000000953,748.2482999999522,748.7504000000953,746.006,748.2482000000476,749.2479999999999,749.7447999999523,749.7449000000953,752.020600000143,1828.0,752.020600000143,5.0,752.025,2.0,25.0,85.0,7.0,1.0,1.2,0.7,Time
,,S04,1,男,21,anonymized,Serial_Dependence_U,2023.2.3,Win32,166.66666666666666,,,,,,752.0252000000477,6.0,2.0,752.0252000000477,6.0,,,,755.4047000000477,755.9035,754.9012999999522,755.404600000143,753.0314000000953,754.9012000000477,755.9035,756.4024000000953,756.4024000000953,758.937600000143,2001.0,758.937600000143,5.0,758.9417999999523,2.0,26.0,86.0,10.0,1.0,0.8,0.3,Time
,,S04,1,男,21,anonymized,Serial_Dependence_U,2023.2.3,Win32,166.66666666666666,,,,,,758.9419000000953,232.0,2.0,758.942,232.0,,,,762.2874000000953,762.7859000000954,761.7842999999523,762.2872999999523,759.9439000000954,761.7842999999523,762.786,763.2864999999999,763.286600000143,765.427600000143,1644.0,765.427600000143,5.0,765.4317000000476,2.0,27.0,87.0,15.0,1.0,0.8,0.7,Time
,,S04,1,男,21,anonymized,Serial_Dependence_U,2023.2.3,Win32,166.66666666666666,,,,,,765.4317999999523,112.0,2.0,765.4319000000953,112.0,,,,769.0,769.4964000000954,768.4982999999522,769.0,766.4375,768.4982999999522,769.4964000000954,769.9949000000953,769.995,778.168100000143,854.0,778.1682000000476,2.0,778.172600000143,2.0,28.0,88.0,11.0,1.0,1.0,0.3,Time
,,S04,1,男,21,anonymized,Serial_Dependence_U,2023.2.3,Win32,166.66666666666666,,,,,,778.1727000000476,118.0,2.0,778.1727999999523,118.0,,,,782.1257000000477,782.6267999999523,781.620100000143,782.125600000143,779.1832000000477,781.620100000143,782.6267999999523,783.1267999999523,783.1269000000954,784.6939000000954,555.0,784.6939000000954,1.0,784.698,2.0,29.0,89.0,8.0,1.0,1.4,0.7,Time
,,S04,1,男,21,anonymized,Serial_Dependence_U,2023.2.3,Win32,166.66666666666666,,,,,,784.6982000000477,248.0,3.0,803.1819000000953,248.0,s,18.47199999999998,,806.5247000000477,807.024100000143,806.0222000000476,806.5247000000477,804.186100000143,806.022100000143,807.024100000143,807.5237999999523,807.5239000000953,808.722600000143,835.0,808.7227000000477,3.0,808.7267999999523,3.0,0.0,90.0,15.0,1.0,0.8,0.7,Time
,,S04,1,男,21,anonymized,Serial_Dependence_U,2023.2.3,Win32,166.66666666666666,,,,,,808.727,100.0,3.0,808.727600000143,100.0,,,,812.111,812.609100000143,811.6097999999523,812.1109000000953,809.7417999999523,811.6097999999523,812.609100000143,813.1105,813.110600000143,813.802100000143,100.0,813.802100000143,1.0,813.806100000143,3.0,1.0,91.0,10.0,1.0,0.8,0.3,Time
,,S04,1,男,21,anonymized,Serial_Dependence_U,2023.2.3,Win32,166.66666666666666,,,,,,813.8062999999523,318.0,3.0,813.8064000000953,318.0,,,,817.7707000000477,818.2689000000953,817.2627999999522,817.7707000000477,814.8019999999999,817.262600000143,818.269,818.7634000000953,818.7634000000953,820.643100000143,1602.0,820.643100000143,4.0,820.647100000143,3.0,2.0,92.0,13.0,1.0,1.4,0.3,Time
,,S04,1,男,21,anonymized,Serial_Dependence_U,2023.2.3,Win32,166.66666666666666,,,,,,820.6472999999522,119.0,3.0,820.6472999999522,119.0,,,,824.4237000000477,824.922100000143,823.9209000000953,824.423600000143,821.659100000143,823.9207999999522,824.922100000143,825.4244000000954,825.4244000000954,827.9562000000476,1611.0,827.9562999999523,5.0,827.9615,3.0,3.0,93.0,12.0,1.0,1.2,0.3,Time
,,S04,1,男,21,anonymized,Serial_Dependence_U,2023.2.3,Win32,166.66666666666666,,,,,,827.961600000143,200.0,3.0,827.9617000000476,200.0,,,,831.5139000000953,832.011,831.0052999999523,831.5137999999523,828.9727000000477,831.0052999999523,832.011100000143,832.512,832.512,834.7555,1605.0,834.755600000143,5.0,834.7597999999523,3.0,4.0,94.0,16.0,1.0,1.0,0.7,Time
,,S04,1,男,21,anonymized,Serial_Dependence_U,2023.2.3,Win32,166.66666666666666,,,,,,834.76,144.0,3.0,834.760100000143,144.0,,,,838.5032000000476,839.0042000000476,837.9982000000476,838.5032000000476,835.7629999999999,837.9982000000476,839.0042000000476,839.4997999999523,839.5,841.6222999999522,1720.0,841.6224000000954,5.0,841.6267999999523,3.0,5.0,95.0,17.0,1.0,1.2,0.7,Time
,,S04,1,男,21,anonymized,Serial_Dependence_U,2023.2.3,Win32,166.66666666666666,,,,,,841.627,67.0,3.0,841.627,67.0,,,,845.3772000000477,845.8724000000954,844.8675,845.3772000000477,842.6317999999522,844.8675,845.8724000000954,846.369100000143,846.3692000000476,849.5,1656.0,849.5,5.0,849.504600000143,3.0,6.0,96.0,7.0,1.0,1.2,0.7,Time
,,S04,1,男,21,anonymized,Serial_Dependence_U,2023.2.3,Win32,166.66666666666666,,,,,,849.5047999999523,331.0,3.0,849.5049000000953,331.0,,,,853.0419999999999,853.5332000000476,852.5385,853.0419999999999,850.5032000000476,852.5384000000953,853.5332000000476,854.0282999999523,854.0284000000953,855.746,1167.0,855.746,4.0,855.750600000143,3.0,7.0,97.0,6.0,1.0,1.0,0.7,Time
,,S04,1,男,21,anonymized,Serial_Dependence_U,2023.2.3,Win32,166.66666666666666,,,,,,855.7507999999523,160.0,3.0,855.7507999999523,160.0,,,,859.1377000000476,859.6294000000953,858.6344000000953,859.137600000143,856.7649000000953,858.6342999999523,859.6294000000953,860.123600000143,860.1237000000476,861.3624000000954,543.0,861.3625,1.0,861.366600000143,3.0,8.0,98.0,0.0,1.0,0.8,0.3,Time
,,S04,1,男,21,anonymized,Serial_Dependence_U,2023.2.3,Win32,166.66666666666666,,,,,,861.3667999999523,119.0,3.0,861.3667999999523,119.0,,,,865.3114000000953,865.8095,864.7994000000954,865.3112999999523,862.366600000143,864.7992000000477,865.8096000001431,866.3074000000953,866.3074000000953,868.9647000000476,1811.0,868.9647000000476,4.0,868.969100000143,3.0,9.0,99.0,28.0,1.0,1.4,0.7,Time
,,S04,1,男,21,anonymized,Serial_Dependence_U,2023.2.3,Win32,166.66666666666666,,,,,,868.9692000000476,167.0,3.0,868.9692999999522,167.0,,,,872.516100000143,873.0172000000476,872.0092000000476,872.5157999999523,869.9702999999523,872.0092000000476,873.0172999999522,873.515,873.515100000143,875.8702999999523,1694.0,875.8704000000953,5.0,875.874600000143,3.0,10.0,100.0,26.0,1.0,1.0,0.7,Time
,,S04,1,男,21,anonymized,Serial_Dependence_U,2023.2.3,Win32,166.66666666666666,,,,,,875.8747000000476,35.0,3.0,875.8749000000953,35.0,,,,879.6414000000954,880.1387999999523,879.1347000000476,879.6414000000954,876.873100000143,879.134600000143,880.1387999999523,880.6379000000953,880.6379000000953,881.4167000000476,708.0,881.4167000000476,1.0,881.4207999999522,3.0,11.0,101.0,2.0,1.0,1.2,0.3,Time
,,S04,1,男,21,anonymized,Serial_Dependence_U,2023.2.3,Win32,166.66666666666666,,,,,,881.4209000000953,140.0,3.0,881.4209999999999,140.0,,,,884.7669000000953,885.2632999999523,884.258100000143,884.7669000000953,882.4262999999522,884.2579000000953,885.2632999999523,885.7612999999523,885.7612999999523,886.7624000000953,523.0,886.7624000000953,1.0,886.7667000000476,3.0,12.0,102.0,25.0,1.0,0.8,0.7,Time
,,S04,1,男,21,anonymized,Serial_Dependence_U,2023.2.3,Win32,166.66666666666666,,,,,,886.7667999999522,193.0,3.0,886.7669000000953,193.0,,,,890.9407000000476,891.431600000143,890.435600000143,890.9407000000476,887.7722999999522,890.435600000143,891.4317000000476,891.929600000143,891.9297000000477,895.0327000000476,2454.0,895.0327000000476,5.0,895.0374000000953,3.0,13.0,103.0,24.0,1.0,1.6,0.3,Time
,,S04,1,男,21,anonymized,Serial_Dependence_U,2023.2.3,Win32,166.66666666666666,,,,,,895.037600000143,258.0,3.0,895.0377999999523,258.0,,,,898.4127000000476,898.908600000143,897.9119999999999,898.4127000000476,896.0459000000953,897.9119000000953,898.908600000143,899.406600000143,899.406600000143,901.2847999999524,1660.0,901.2847999999524,5.0,901.2887999999524,3.0,14.0,104.0,20.0,1.0,0.8,0.3,Time
,,S04,1,男,21,anonymized,Serial_Dependence_U,2023.2.3,Win32,166.66666666666666,,,,,,901.289,98.0,3.0,901.289100000143,98.0,,,,905.4262999999522,905.9302999999522,904.9249000000954,905.4262000000476,902.291,904.9247999999524,905.9302999999522,906.4287999999524,906.4287999999524,909.2819000000952,2277.0,909.282,5.0,909.2864000000952,3.0,15.0,105.0,19.0,1.0,1.6,0.7,Time
,,S04,1,男,21,anonymized,Serial_Dependence_U,2023.2.3,Win32,166.66666666666666,,,,,,909.2865,200.0,3.0,909.2865,200.0,,,,913.029100000143,913.528100000143,912.525100000143,913.029,910.2925,912.525100000143,913.528100000143,914.0282000000476,914.0282000000476,916.6502999999524,1720.0,916.6504000000954,5.0,916.654600000143,3.0,16.0,106.0,27.0,1.0,1.2,0.7,Time
,,S04,1,男,21,anonymized,Serial_Dependence_U,2023.2.3,Win32,166.66666666666666,,,,,,916.6547000000476,43.0,3.0,916.6547999999524,43.0,,,,920.4302999999522,920.929100000143,919.9247000000476,920.430100000143,917.662600000143,919.924600000143,920.929100000143,921.4249000000954,921.4249000000954,923.5559000000952,139.0,923.556,1.0,923.5602000000476,3.0,17.0,107.0,22.0,1.0,1.2,0.3,Time
,,S04,1,男,21,anonymized,Serial_Dependence_U,2023.2.3,Win32,166.66666666666666,,,,,,923.5602999999522,302.0,3.0,923.5604000000952,302.0,,,,927.128,927.6244000000952,926.6265,927.1279000000952,924.564,926.6265,927.6244000000952,928.1257999999524,928.1257999999524,930.1182000000476,1640.0,930.1182000000476,5.0,930.1232999999522,3.0,18.0,108.0,21.0,1.0,1.0,0.3,Time
,,S04,1,男,21,anonymized,Serial_Dependence_U,2023.2.3,Win32,166.66666666666666,,,,,,930.1235,31.0,3.0,930.1235,31.0,,,,933.6954000000952,934.1912000000476,933.1894000000954,933.6954000000952,931.1259000000952,933.1892999999524,934.1912000000476,934.6887000000476,934.6887999999524,943.5775,78.0,943.577600000143,1.0,943.5832000000476,3.0,19.0,109.0,11.0,1.0,1.0,0.3,Time
,,S04,1,男,21,anonymized,Serial_Dependence_U,2023.2.3,Win32,166.66666666666666,,,,,,943.5834000000954,169.0,3.0,943.5836000001432,169.0,,,,947.515,948.0135,947.0147000000476,947.515,944.5834000000954,947.014600000143,948.0135,948.510600000143,948.510600000143,950.2782999999524,1699.0,950.2782999999524,4.0,950.282600000143,3.0,20.0,110.0,18.0,1.0,1.4,0.7,Time
,,S04,1,男,21,anonymized,Serial_Dependence_U,2023.2.3,Win32,166.66666666666666,,,,,,950.2827999999524,223.0,3.0,950.2829000000952,223.0,,,,954.2297000000476,954.7282999999522,953.7247000000476,954.2297000000476,951.2894000000952,953.7247000000476,954.7282999999522,955.2242000000476,955.2242000000476,958.002600000143,1749.0,958.002600000143,4.0,958.007,3.0,21.0,111.0,8.0,1.0,1.4,0.7,Time
,,S04,1,男,21,anonymized,Serial_Dependence_U,2023.2.3,Win32,166.66666666666666,,,,,,958.0072000000476,232.0,3.0,958.0072999999522,232.0,,,,962.1472000000476,962.6477000000476,961.640600000143,962.1472000000476,959.009600000143,961.640600000143,962.6477000000476,963.144100000143,963.144100000143,965.390100000143,1351.0,965.390100000143,2.0,965.3961000001432,3.0,22.0,112.0,9.0,1.0,1.6,0.7,Time
,,S04,1,男,21,anonymized,Serial_Dependence_U,2023.2.3,Win32,166.66666666666666,,,,,,965.3964000000954,188.0,3.0,965.3965,188.0,,,,969.5717000000476,970.0707999999524,969.0659000000952,969.571600000143,966.3957999999524,969.0659000000952,970.0707999999524,970.571100000143,970.571100000143,983.347,800.0,983.347,1.0,983.3515,3.0,23.0,113.0,14.0,1.0,1.6,0.3,Time
,,S04,1,男,21,anonymized,Serial_Dependence_U,2023.2.3,Win32,166.66666666666666,,,,,,983.3517000000476,140.0,3.0,983.3517999999524,140.0,,,,986.6977000000476,987.1985,986.1962999999524,986.697600000143,984.3565,986.1962000000476,987.1985,987.6994000000954,987.6995,988.9019000000952,819.0,988.9019000000952,3.0,988.9062999999522,3.0,24.0,114.0,5.0,1.0,0.8,0.7,Time
,,S04,1,男,21,anonymized,Serial_Dependence_U,2023.2.3,Win32,166.66666666666666,,,,,,988.9065,130.0,3.0,988.9065,130.0,,,,993.0527999999524,993.5532999999524,992.552100000143,993.0527999999524,989.915,992.552100000143,993.5534000000952,994.0507999999522,994.0507999999522,995.3961000001432,1154.0,995.3961000001432,2.0,995.4002000000476,3.0,25.0,115.0,29.0,1.0,1.6,0.7,Time
,,S04,1,男,21,anonymized,Serial_Dependence_U,2023.2.3,Win32,166.66666666666666,,,,,,995.4004000000954,270.0,3.0,995.4005,270.0,,,,999.3672000000474,999.8604999999998,998.8622000000476,999.367100000143,996.4015,998.8621000001428,999.860600000143,1000.3587999999522,1000.3587999999522,1003.9422999999522,2969.0,1003.9422999999522,5.0,1003.9469000000952,3.0,26.0,116.0,3.0,1.0,1.4,0.3,Time
,,S04,1,男,21,anonymized,Serial_Dependence_U,2023.2.3,Win32,166.66666666666666,,,,,,1003.9471000001428,99.0,3.0,1003.9471000001428,99.0,,,,1007.5207999999524,1008.0172000000476,1007.0167000000474,1007.5207000000476,1004.9447000000476,1007.0167000000474,1008.0172000000476,1008.5137000000476,1008.5137000000476,1012.2526000001428,1880.0,1012.2526000001428,5.0,1012.2572999999522,3.0,27.0,117.0,1.0,1.0,1.0,0.3,Time
,,S04,1,男,21,anonymized,Serial_Dependence_U,2023.2.3,Win32,166.66666666666666,,,,,,1012.2575,215.0,3.0,1012.2575,215.0,,,,1016.4329999999998,1016.929799999952,1015.9287999999522,1016.4329999999998,1013.2626000001428,1015.9287000000476,1016.929799999952,1017.429,1017.429,1035.7136000001428,569.0,1035.7136000001428,1.0,1035.7182000000475,3.0,28.0,118.0,4.0,1.0,1.6,0.3,Time
,,S04,1,男,21,anonymized,Serial_Dependence_U,2023.2.3,Win32,166.66666666666666,,,,,,1035.7184000000952,127.0,3.0,1035.7185,127.0,,,,1039.6939000000953,1040.189600000143,1039.1879000000952,1039.6937000000476,1036.7267000000477,1039.1879000000952,1040.189600000143,1040.6904000000952,1040.6904000000952,1042.687299999952,1319.0,1042.687299999952,2.0,1042.6912999999522,3.0,29.0,119.0,23.0,1.0,1.4,0.3,Time
,,S04,1,男,21,anonymized,Serial_Dependence_U,2023.2.3,Win32,166.66666666666666,,,,,,1042.6915,166.0,4.0,1056.1577999999522,166.0,s,13.454400000095577,,1059.492100000143,1059.9924000000951,1058.9899999999998,1059.4919000000953,1057.158299999952,1058.9899000000953,1059.9924000000951,1060.4912000000477,1060.4912000000477,1061.7599000000953,825.0,1061.7599000000953,3.0,1061.764,4.0,0.0,120.0,25.0,1.0,0.8,0.7,Time
,,S04,1,男,21,anonymized,Serial_Dependence_U,2023.2.3,Win32,166.66666666666666,,,,,,1061.7642000000476,233.0,4.0,1061.7649000000952,233.0,,,,1065.5414999999998,1066.0404000000951,1065.0352000000476,1065.541400000095,1062.7727000000475,1065.0351000001428,1066.0404000000951,1066.5362000000475,1066.5362000000475,1068.8227000000477,1242.0,1068.8227999999522,3.0,1068.8274000000952,4.0,1.0,121.0,12.0,1.0,1.2,0.3,Time
,,S04,1,男,21,anonymized,Serial_Dependence_U,2023.2.3,Win32,166.66666666666666,,,,,,1068.8276000001429,74.0,4.0,1068.8276000001429,74.0,,,,1072.1894000000952,1072.6867999999522,1071.6866000001428,1072.1892999999525,1069.820100000143,1071.6864999999998,1072.6867999999522,1073.188299999952,1073.188299999952,1074.5972999999522,1024.0,1074.5974000000951,4.0,1074.601600000143,4.0,2.0,122.0,20.0,1.0,0.8,0.3,Time
,,S04,1,男,21,anonymized,Serial_Dependence_U,2023.2.3,Win32,166.66666666666666,,,,,,1074.6017000000477,43.0,4.0,1074.6017999999522,43.0,,,,1078.1784000000953,1078.6746000001428,1077.671900000095,1078.178299999952,1075.6057000000476,1077.671799999952,1078.6746000001428,1079.176299999952,1079.176299999952,1080.505600000143,572.0,1080.505600000143,1.0,1080.5099999999998,4.0,3.0,123.0,21.0,1.0,1.0,0.3,Time
,,S04,1,男,21,anonymized,Serial_Dependence_U,2023.2.3,Win32,166.66666666666666,,,,,,1080.510100000143,260.0,4.0,1080.5102000000477,260.0,,,,1084.6522000000475,1085.1444000000952,1084.1439999999998,1084.6521000001428,1081.5077000000476,1084.1439000000953,1085.1444000000952,1085.6409999999998,1085.6409999999998,1088.5921000001429,1982.0,1088.5921000001429,4.0,1088.5967000000476,4.0,4.0,124.0,19.0,1.0,1.6,0.7,Time
,,S04,1,男,21,anonymized,Serial_Dependence_U,2023.2.3,Win32,166.66666666666666,,,,,,1088.5969000000953,41.0,4.0,1088.5969999999998,41.0,,,,1092.537600000143,1093.0337999999522,1092.0322000000476,1092.5375,1089.5969999999998,1092.0322000000476,1093.0337999999522,1093.5297000000476,1093.5297000000476,1101.3162999999522,1120.0,1101.3162999999522,2.0,1101.3212000000476,4.0,5.0,125.0,8.0,1.0,1.4,0.7,Time
,,S04,1,男,21,anonymized,Serial_Dependence_U,2023.2.3,Win32,166.66666666666666,,,,,,1101.3214000000953,148.0,4.0,1101.3214000000953,148.0,,,,1105.2964000000952,1105.7932000000476,1104.795799999952,1105.2962000000475,1102.327799999952,1104.7957000000474,1105.7932000000476,1106.2897000000476,1106.2897000000476,1113.7537999999522,1105.0,1113.7537999999522,2.0,1113.7584000000952,4.0,6.0,126.0,3.0,1.0,1.4,0.3,Time
,,S04,1,男,21,anonymized,Serial_Dependence_U,2023.2.3,Win32,166.66666666666666,,,,,,1113.758600000143,231.0,4.0,1113.758600000143,231.0,,,,1117.1207999999522,1117.6169000000953,1116.6174000000951,1117.1207000000477,1114.7559000000952,1116.6174000000951,1117.6169000000953,1118.118299999952,1118.118299999952,1119.5114999999998,442.0,1119.5114999999998,1.0,1119.5157999999522,4.0,7.0,127.0,0.0,1.0,0.8,0.3,Time
,,S04,1,男,21,anonymized,Serial_Dependence_U,2023.2.3,Win32,166.66666666666666,,,,,,1119.5159000000951,4.0,4.0,1119.5159999999998,4.0,,,,1123.6839999999995,1124.1835,1123.1774000000953,1123.6839000000953,1120.5157999999522,1123.1774000000953,1124.1835,1124.6794999999995,1124.679600000143,1128.7304000000952,1015.0,1128.7304000000952,1.0,1128.7347000000475,4.0,8.0,128.0,24.0,1.0,1.6,0.3,Time
,,S04,1,男,21,anonymized,Serial_Dependence_U,2023.2.3,Win32,166.66666666666666,,,,,,1128.7349000000952,311.0,4.0,1128.7349000000952,311.0,,,,1132.483,1132.9827999999522,1131.9754999999998,1132.4829000000952,1129.7392999999522,1131.9754999999998,1132.9829000000952,1133.4834999999998,1133.4834999999998,1135.6837999999525,1618.0,1135.6837999999525,5.0,1135.688,4.0,9.0,129.0,7.0,1.0,1.2,0.7,Time
,,S04,1,男,21,anonymized,Serial_Dependence_U,2023.2.3,Win32,166.66666666666666,,,,,,1135.6882000000476,162.0,4.0,1135.688299999952,162.0,,,,1139.2424999999998,1139.7379999999998,1138.7387000000476,1139.2424999999998,1136.7017000000476,1138.738600000143,1139.7379999999998,1140.2392000000475,1140.2392999999522,1142.4782999999522,1749.0,1142.4782999999522,5.0,1142.4826000001428,4.0,10.0,130.0,16.0,1.0,1.0,0.7,Time
,,S04,1,男,21,anonymized,Serial_Dependence_U,2023.2.3,Win32,166.66666666666666,,,,,,1142.4827999999522,53.0,4.0,1142.4827999999522,53.0,,,,1146.261100000143,1146.762100000143,1145.758799999952,1146.261100000143,1143.4902999999522,1145.758799999952,1146.7622000000474,1147.2634999999998,1147.2634999999998,1152.8492000000476,1715.0,1152.8492000000476,5.0,1152.8534000000952,4.0,11.0,131.0,22.0,1.0,1.2,0.3,Time
,,S04,1,男,21,anonymized,Serial_Dependence_U,2023.2.3,Win32,166.66666666666666,,,,,,1152.8535,26.0,4.0,1152.853600000143,26.0,,,,1156.2002999999522,1156.701600000143,1155.6984999999995,1156.2002999999522,1153.8602000000476,1155.6984000000953,1156.701600000143,1157.1992000000475,1157.1992999999522,1161.944299999952,1436.0,1161.944299999952,5.0,1161.948600000143,4.0,12.0,132.0,15.0,1.0,0.8,0.7,Time
,,S04,1,男,21,anonymized,Serial_Dependence_U,2023.2.3,Win32,166.66666666666666,,,,,,1161.948799999952,340.0,4.0,1161.948799999952,340.0,,,,1165.5259000000951,1166.0227999999522,1165.0214000000951,1165.5257000000474,1162.9609000000953,1165.0214000000951,1166.0227999999522,1166.524600000143,1166.524600000143,1169.2934999999998,1223.0,1169.2934999999998,4.0,1169.2979000000953,4.0,13.0,133.0,11.0,1.0,1.0,0.3,Time
,,S04,1,男,21,anonymized,Serial_Dependence_U,2023.2.3,Win32,166.66666666666666,,,,,,1169.2979999999998,60.0,4.0,1169.298100000143,60.0,,,,1173.0344000000953,1173.5352000000476,1172.5322000000476,1173.034299999952,1170.2962000000475,1172.532100000143,1173.5352999999525,1174.0319000000952,1174.0319000000952,1182.6242999999522,1531.0,1182.6242999999522,4.0,1182.629299999952,4.0,14.0,134.0,27.0,1.0,1.2,0.7,Time
,,S04,1,男,21,anonymized,Serial_Dependence_U,2023.2.3,Win32,166.66666666666666,,,,,,1182.629600000143,329.0,4.0,1182.629600000143,329.0,,,,1186.7789000000953,1187.2707999999525,1186.277900000095,1186.778799999952,1183.6404999999995,1186.277900000095,1187.2709000000953,1187.7669999999998,1187.7669999999998,1190.2985,1735.0,1190.2986000001429,4.0,1190.3034000000953,4.0,15.0,135.0,29.0,1.0,1.6,0.7,Time
,,S04,1,男,21,anonymized,Serial_Dependence_U,2023.2.3,Win32,166.66666666666666,,,,,,1190.303600000143,350.0,4.0,1190.303600000143,350.0,,,,1194.243299999952,1194.744100000143,1193.7375,1194.2432000000476,1191.3071000001428,1193.7374000000952,1194.7442000000476,1195.2415,1195.2416000001429,1197.2282999999522,1587.0,1197.2282999999522,4.0,1197.2334000000951,4.0,16.0,136.0,18.0,1.0,1.4,0.7,Time
,,S04,1,男,21,anonymized,Serial_Dependence_U,2023.2.3,Win32,166.66666666666666,,,,,,1197.2334999999998,161.0,4.0,1197.2336000001428,161.0,,,,1201.0027000000475,1201.5037000000475,1200.5024000000951,1201.0027000000475,1198.2362000000476,1200.502299999952,1201.5037000000475,1202.0054000000953,1202.0054999999998,1204.3642999999522,1664.0,1204.3644000000952,5.0,1204.368400000095,4.0,17.0,137.0,2.0,1.0,1.2,0.3,Time
,,S04,1,男,21,anonymized,Serial_Dependence_U,2023.2.3,Win32,166.66666666666666,,,,,,1204.3687000000475,109.0,4.0,1204.3687000000475,109.0,,,,1208.5389999999998,1209.0349000000951,1208.0341000001429,1208.5389000000953,1205.3719000000951,1208.034,1209.0349000000951,1209.5327000000475,1209.5327000000475,1211.8932999999522,1924.0,1211.8932999999522,4.0,1211.898,4.0,18.0,138.0,14.0,1.0,1.6,0.3,Time
,,S04,1,男,21,anonymized,Serial_Dependence_U,2023.2.3,Win32,166.66666666666666,,,,,,1211.898299999952,195.0,4.0,1211.898299999952,195.0,,,,1215.2447000000475,1215.744,1214.7372999999525,1215.2447000000475,1212.9012000000475,1214.7372000000476,1215.744,1216.2427000000475,1216.2427999999522,1218.956600000143,1546.0,1218.956600000143,5.0,1218.960799999952,4.0,19.0,139.0,5.0,1.0,0.8,0.7,Time
,,S04,1,男,21,anonymized,Serial_Dependence_U,2023.2.3,Win32,166.66666666666666,,,,,,1218.9609999999998,184.0,4.0,1218.9609999999998,184.0,,,,1222.542100000143,1223.0384000000952,1222.032,1222.542,1219.9656000001428,1222.0319000000952,1223.0384000000952,1223.5379000000953,1223.5379999999998,1225.2596000001429,1355.0,1225.259799999952,5.0,1225.264100000143,4.0,20.0,140.0,1.0,1.0,1.0,0.3,Time
,,S04,1,男,21,anonymized,Serial_Dependence_U,2023.2.3,Win32,166.66666666666666,,,,,,1225.264299999952,139.0,4.0,1225.264299999952,139.0,,,,1229.0005,1229.4967000000474,1228.499799999952,1229.0005,1226.2681000001428,1228.499799999952,1229.496799999952,1229.9957999999522,1229.9959000000952,1240.0674000000952,1178.0,1240.0674000000952,3.0,1240.0719000000952,4.0,21.0,141.0,17.0,1.0,1.2,0.7,Time
,,S04,1,男,21,anonymized,Serial_Dependence_U,2023.2.3,Win32,166.66666666666666,,,,,,1240.0721000001429,204.0,4.0,1240.0722000000476,204.0,,,,1243.6155,1244.1122000000476,1243.109,1243.6154000000952,1241.071600000143,1243.109,1244.1122999999525,1244.609,1244.609100000143,1249.9504000000952,897.0,1249.9505,2.0,1249.9552000000476,4.0,22.0,142.0,6.0,1.0,1.0,0.7,Time
,,S04,1,男,21,anonymized,Serial_Dependence_U,2023.2.3,Win32,166.66666666666666,,,,,,1249.955299999952,62.0,4.0,1249.955400000095,62.0,,,,1253.5024999999998,1254.003,1252.9947000000475,1253.5024999999998,1250.9577000000477,1252.9947000000475,1254.003100000143,1254.5002999999522,1254.5002999999522,1256.1709999999998,886.0,1256.1709999999998,2.0,1256.175100000143,4.0,23.0,143.0,26.0,1.0,1.0,0.7,Time
,,S04,1,男,21,anonymized,Serial_Dependence_U,2023.2.3,Win32,166.66666666666666,,,,,,1256.1752000000474,116.0,4.0,1256.175299999952,116.0,,,,1259.5385,1260.0377000000476,1259.0359000000951,1259.5385,1257.1742000000474,1259.035799999952,1260.0377000000476,1260.5399999999995,1260.5399999999995,1272.1664999999998,1389.0,1272.1664999999998,5.0,1272.1711000001428,4.0,24.0,144.0,10.0,1.0,0.8,0.3,Time
,,S04,1,男,21,anonymized,Serial_Dependence_U,2023.2.3,Win32,166.66666666666666,,,,,,1272.1712000000475,171.0,4.0,1272.1712000000475,171.0,,,,1276.1492000000476,1276.649299999952,1275.6449999999998,1276.1491000001429,1273.1774999999998,1275.6449999999998,1276.649299999952,1277.147100000143,1277.1472000000476,1280.6757999999522,1892.0,1280.6757999999522,5.0,1280.6804000000952,4.0,25.0,145.0,23.0,1.0,1.4,0.3,Time
,,S04,1,男,21,anonymized,Serial_Dependence_U,2023.2.3,Win32,166.66666666666666,,,,,,1280.680600000143,146.0,4.0,1280.6807000000476,146.0,,,,1284.853900000095,1285.351,1284.3514999999998,1284.853799999952,1281.6852000000474,1284.3514999999998,1285.351,1285.8497000000475,1285.8497999999522,1289.7889000000953,1402.0,1289.7889999999998,2.0,1289.793600000143,4.0,26.0,146.0,4.0,1.0,1.6,0.3,Time
,,S04,1,男,21,anonymized,Serial_Dependence_U,2023.2.3,Win32,166.66666666666666,,,,,,1289.7937999999522,259.0,4.0,1289.7939000000952,259.0,,,,1293.743400000095,1294.2422000000474,1293.236299999952,1293.743299999952,1290.8044999999995,1293.236299999952,1294.2422000000474,1294.743400000095,1294.743400000095,1297.0469999999998,1504.0,1297.0471000001428,4.0,1297.051400000095,4.0,27.0,147.0,28.0,1.0,1.4,0.7,Time
,,S04,1,男,21,anonymized,Serial_Dependence_U,2023.2.3,Win32,166.66666666666666,,,,,,1297.0517000000475,36.0,4.0,1297.0517000000475,36.0,,,,1301.2012000000475,1301.6994000000952,1300.6957000000475,1301.2011000001428,1298.0572999999522,1300.6957000000475,1301.6994000000952,1302.2011000001428,1302.2011000001428,1304.7705,1798.0,1304.7705,4.0,1304.7747999999522,4.0,28.0,148.0,9.0,1.0,1.6,0.7,Time
,,S04,1,男,21,anonymized,Serial_Dependence_U,2023.2.3,Win32,166.66666666666666,,,,,,1304.775,225.0,4.0,1304.7751000001429,225.0,,,,1308.753100000143,1309.250799999952,1308.2487000000476,1308.753,1305.7841000001429,1308.2487000000476,1309.2509000000953,1309.7479999999998,1309.7479999999998,1310.4747000000475,450.0,1310.4747999999522,1.0,1310.4792999999522,4.0,29.0,149.0,13.0,1.0,1.4,0.3,Time
,,S04,1,男,21,anonymized,Serial_Dependence_U,2023.2.3,Win32,166.66666666666666,,,,,,1310.479600000143,349.0,5.0,1355.8116000001428,349.0,s,45.32000000000016,,1359.581299999952,1360.0794000000951,1359.0789000000952,1359.581299999952,1356.8176000001429,1359.0789000000952,1360.0794999999998,1360.577799999952,1360.577799999952,1362.5109000000953,1589.0,1362.5109999999995,5.0,1362.515299999952,5.0,0.0,150.0,2.0,1.0,1.2,0.3,Time
,,S04,1,男,21,anonymized,Serial_Dependence_U,2023.2.3,Win32,166.66666666666666,,,,,,1362.5154999999995,266.0,5.0,1362.5167000000474,266.0,,,,1365.8652000000477,1366.3629000000951,1365.3566000001429,1365.865100000143,1363.5174000000952,1365.3565,1366.3629000000951,1366.8599000000952,1366.8599000000952,1368.2439000000952,721.0,1368.244,2.0,1368.2479999999998,5.0,1.0,151.0,25.0,1.0,0.8,0.7,Time
,,S04,1,男,21,anonymized,Serial_Dependence_U,2023.2.3,Win32,166.66666666666666,,,,,,1368.2482000000475,291.0,5.0,1368.2482999999522,291.0,,,,1371.9914000000952,1372.4889999999998,1371.4857000000477,1371.9912999999522,1369.2517999999525,1371.485600000143,1372.4891000001428,1372.9852000000476,1372.985299999952,1375.584900000095,1509.0,1375.5849999999998,4.0,1375.589,5.0,2.0,152.0,17.0,1.0,1.2,0.7,Time
,,S04,1,男,21,anonymized,Serial_Dependence_U,2023.2.3,Win32,166.66666666666666,,,,,,1375.5892000000476,152.0,5.0,1375.589299999952,152.0,,,,1378.965299999952,1379.464,1378.4567000000477,1378.965299999952,1376.5959000000953,1378.4564999999998,1379.464100000143,1379.961799999952,1379.9619000000953,1382.6987000000474,1464.0,1382.698799999952,5.0,1382.7037000000475,5.0,3.0,153.0,10.0,1.0,0.8,0.3,Time
,,S04,1,男,21,anonymized,Serial_Dependence_U,2023.2.3,Win32,166.66666666666666,,,,,,1382.7039000000952,293.0,5.0,1382.704,293.0,,,,1386.6487000000477,1387.145100000143,1386.1409000000951,1386.648600000143,1383.7091000001428,1386.1407999999522,1387.145100000143,1387.643799999952,1387.6439000000953,1389.9349000000952,1845.0,1389.935,5.0,1389.9394000000952,5.0,4.0,154.0,8.0,1.0,1.4,0.7,Time
,,S04,1,男,21,anonymized,Serial_Dependence_U,2023.2.3,Win32,166.66666666666666,,,,,,1389.939600000143,282.0,5.0,1389.939600000143,282.0,,,,1393.5079999999998,1394.0072999999522,1393.004,1393.507799999952,1390.9389000000951,1393.0037999999522,1394.0074000000952,1394.5042000000476,1394.5042000000476,1397.2709000000953,1234.0,1397.2709000000953,4.0,1397.2761000001428,5.0,5.0,155.0,1.0,1.0,1.0,0.3,Time
,,S04,1,男,21,anonymized,Serial_Dependence_U,2023.2.3,Win32,166.66666666666666,,,,,,1397.2762999999522,223.0,5.0,1397.2764000000952,223.0,,,,1401.438299999952,1401.9352000000474,1400.937299999952,1401.438,1398.276600000143,1400.9372000000476,1401.935299999952,1402.4325,1402.4325,1404.983,1518.0,1404.983100000143,2.0,1404.9875,5.0,6.0,156.0,14.0,1.0,1.6,0.3,Time
,,S04,1,男,21,anonymized,Serial_Dependence_U,2023.2.3,Win32,166.66666666666666,,,,,,1404.987600000143,15.0,5.0,1404.9877000000474,15.0,,,,1408.7271000001429,1409.2299999999998,1408.225,1408.727,1405.9937000000475,1408.225,1409.2299999999998,1409.729600000143,1409.7297000000476,1412.0434999999998,1715.0,1412.0434999999998,5.0,1412.048100000143,5.0,7.0,157.0,27.0,1.0,1.2,0.7,Time
,,S04,1,男,21,anonymized,Serial_Dependence_U,2023.2.3,Win32,166.66666666666666,,,,,,1412.0484000000952,171.0,5.0,1412.0485,171.0,,,,1415.793600000143,1416.2949999999998,1415.2892000000477,1415.793600000143,1413.05,1415.2892000000477,1416.2949999999998,1416.7954000000952,1416.7955,1420.2924999999998,2200.0,1420.2926000001428,5.0,1420.2969999999998,5.0,8.0,158.0,7.0,1.0,1.2,0.7,Time
,,S04,1,男,21,anonymized,Serial_Dependence_U,2023.2.3,Win32,166.66666666666666,,,,,,1420.2972000000475,277.0,5.0,1420.2972000000475,277.0,,,,1424.072299999952,1424.5737000000474,1423.5669000000953,1424.072299999952,1421.298799999952,1423.566799999952,1424.573799999952,1425.0724000000953,1425.0724000000953,1428.826799999952,1674.0,1428.826799999952,5.0,1428.8312000000476,5.0,9.0,159.0,12.0,1.0,1.2,0.3,Time
,,S04,1,男,21,anonymized,Serial_Dependence_U,2023.2.3,Win32,166.66666666666666,,,,,,1428.8314000000953,275.0,5.0,1428.8314000000953,275.0,,,,1432.4012000000475,1432.897400000095,1431.8937000000476,1432.4012000000475,1429.8312000000476,1431.893600000143,1432.8974999999998,1433.397,1433.397,1435.6825,1133.0,1435.6825,4.0,1435.6867999999522,5.0,10.0,160.0,11.0,1.0,1.0,0.3,Time
,,S04,1,男,21,anonymized,Serial_Dependence_U,2023.2.3,Win32,166.66666666666666,,,,,,1435.687,22.0,5.0,1435.687,22.0,,,,1439.624600000143,1440.125799999952,1439.121600000143,1439.624600000143,1436.690900000095,1439.1214999999995,1440.125799999952,1440.6234000000952,1440.6234000000952,1443.1242999999522,1858.0,1443.1242999999522,5.0,1443.1294000000953,5.0,11.0,161.0,28.0,1.0,1.4,0.7,Time
,,S04,1,男,21,anonymized,Serial_Dependence_U,2023.2.3,Win32,166.66666666666666,,,,,,1443.1294999999998,261.0,5.0,1443.129600000143,261.0,,,,1447.0799000000952,1447.5724000000953,1446.5734000000953,1447.0797000000475,1444.131799999952,1446.5734000000953,1447.5724000000953,1448.069299999952,1448.069299999952,1450.171600000143,1552.0,1450.171600000143,4.0,1450.176,5.0,12.0,162.0,18.0,1.0,1.4,0.7,Time
,,S04,1,男,21,anonymized,Serial_Dependence_U,2023.2.3,Win32,166.66666666666666,,,,,,1450.1762000000476,42.0,5.0,1450.1762000000476,42.0,,,,1453.7557999999522,1454.257600000143,1453.2505,1453.7557000000477,1451.1799000000951,1453.2504000000952,1454.2577000000476,1454.752299999952,1454.752299999952,1458.2134000000951,1664.0,1458.2134000000951,5.0,1458.2177000000474,5.0,13.0,163.0,21.0,1.0,1.0,0.3,Time
,,S04,1,男,21,anonymized,Serial_Dependence_U,2023.2.3,Win32,166.66666666666666,,,,,,1458.2179000000951,69.0,5.0,1458.2179000000951,69.0,,,,1462.3629000000951,1462.8604000000953,1461.8527000000474,1462.3629000000951,1459.2157999999522,1461.8527000000474,1462.8604000000953,1463.354799999952,1463.3549000000953,1466.939,2435.0,1466.939,5.0,1466.9434000000952,5.0,14.0,164.0,19.0,1.0,1.6,0.7,Time
,,S04,1,男,21,anonymized,Serial_Dependence_U,2023.2.3,Win32,166.66666666666666,,,,,,1466.9436000001429,145.0,5.0,1466.9436000001429,145.0,,,,1470.325900000095,1470.823,1469.816600000143,1470.325799999952,1467.9537000000475,1469.8165,1470.823,1471.3197000000475,1471.3197999999522,1473.4891000001428,1395.0,1473.4891000001428,5.0,1473.4929000000952,5.0,15.0,165.0,20.0,1.0,0.8,0.3,Time
,,S04,1,男,21,anonymized,Serial_Dependence_U,2023.2.3,Win32,166.66666666666666,,,,,,1473.493100000143,229.0,5.0,1473.4932000000476,229.0,,,,1477.6681000001429,1478.166400000095,1477.1607000000474,1477.668,1474.500100000143,1477.1607000000474,1478.1664999999998,1478.6622999999522,1478.6622999999522,1480.4857999999522,1456.0,1480.4859000000952,2.0,1480.4906000001429,5.0,16.0,166.0,24.0,1.0,1.6,0.3,Time
,,S04,1,男,21,anonymized,Serial_Dependence_U,2023.2.3,Win32,166.66666666666666,,,,,,1480.490799999952,267.0,5.0,1480.490799999952,267.0,,,,1483.8314999999998,1484.3276000001429,1483.3299000000952,1483.8314000000953,1481.4944999999998,1483.3297999999522,1484.3276000001429,1484.825600000143,1484.825600000143,1487.1282000000476,1818.0,1487.1282000000476,5.0,1487.132799999952,5.0,17.0,167.0,15.0,1.0,0.8,0.7,Time
,,S04,1,男,21,anonymized,Serial_Dependence_U,2023.2.3,Win32,166.66666666666666,,,,,,1487.132900000095,192.0,5.0,1487.1331000001428,192.0,,,,1491.108100000143,1491.604600000143,1490.600299999952,1491.108100000143,1488.132600000143,1490.6002000000476,1491.6047000000476,1492.1029999999998,1492.1031000001428,1493.387400000095,923.0,1493.387400000095,1.0,1493.3921000001428,5.0,18.0,168.0,23.0,1.0,1.4,0.3,Time
,,S04,1,男,21,anonymized,Serial_Dependence_U,2023.2.3,Win32,166.66666666666666,,,,,,1493.3922999999522,229.0,5.0,1493.3922999999522,229.0,,,,1496.9454999999998,1497.4425,1496.4415,1496.945400000095,1494.4011000001428,1496.4415,1497.4425,1497.9482999999525,1497.9482999999525,1500.088100000143,1782.0,1500.088100000143,5.0,1500.0921000001429,5.0,19.0,169.0,26.0,1.0,1.0,0.7,Time
,,S04,1,男,21,anonymized,Serial_Dependence_U,2023.2.3,Win32,166.66666666666666,,,,,,1500.092299999952,156.0,5.0,1500.0924000000953,156.0,,,,1503.4337999999525,1503.9305,1502.9321000001428,1503.4337000000476,1501.0975,1502.9321000001428,1503.930600000143,1504.427,1504.427,1506.7447999999522,1917.0,1506.7449000000952,5.0,1506.7492000000475,5.0,20.0,170.0,5.0,1.0,0.8,0.7,Time
,,S04,1,男,21,anonymized,Serial_Dependence_U,2023.2.3,Win32,166.66666666666666,,,,,,1506.7494000000952,235.0,5.0,1506.7495,235.0,,,,1510.7174000000953,1511.2147000000475,1510.2132000000474,1510.717299999952,1507.7424999999998,1510.2132000000474,1511.2147999999522,1511.7147999999522,1511.7149000000952,1512.4444000000951,474.0,1512.4444000000951,1.0,1512.4492999999522,5.0,21.0,171.0,13.0,1.0,1.4,0.3,Time
,,S04,1,男,21,anonymized,Serial_Dependence_U,2023.2.3,Win32,166.66666666666666,,,,,,1512.4495,273.0,5.0,1512.449600000143,273.0,,,,1516.595799999952,1517.0975,1516.090100000143,1516.595799999952,1513.4557000000475,1516.090100000143,1517.0976000001428,1517.5952000000475,1517.5952000000475,1520.3407000000475,2239.0,1520.3407000000475,5.0,1520.3451000001428,5.0,22.0,172.0,29.0,1.0,1.6,0.7,Time
,,S04,1,男,21,anonymized,Serial_Dependence_U,2023.2.3,Win32,166.66666666666666,,,,,,1520.3452999999522,77.0,5.0,1520.3454000000952,77.0,,,,1523.9012999999522,1524.398299999952,1523.3922999999522,1523.9012000000475,1521.3499000000952,1523.3922999999522,1524.398299999952,1524.9,1524.9001000001429,1526.8667000000476,1572.0,1526.8667000000476,5.0,1526.871,5.0,23.0,173.0,6.0,1.0,1.0,0.7,Time
,,S04,1,男,21,anonymized,Serial_Dependence_U,2023.2.3,Win32,166.66666666666666,,,,,,1526.8712000000476,73.0,5.0,1526.8712999999525,73.0,,,,1531.0165,1531.516600000143,1530.5114000000951,1531.0164000000952,1527.8734000000952,1530.5114000000951,1531.5167000000474,1532.0154999999995,1532.0154999999995,1534.8764000000951,2441.0,1534.8764000000951,5.0,1534.8812999999525,5.0,24.0,174.0,9.0,1.0,1.6,0.7,Time
,,S04,1,男,21,anonymized,Serial_Dependence_U,2023.2.3,Win32,166.66666666666666,,,,,,1534.881600000143,203.0,5.0,1534.881600000143,203.0,,,,1538.2607000000476,1538.7579999999998,1537.755299999952,1538.2606000001429,1535.8874999999998,1537.7552000000476,1538.7579999999998,1539.2547000000477,1539.2547000000477,1540.165100000143,552.0,1540.165100000143,1.0,1540.169799999952,5.0,25.0,175.0,0.0,1.0,0.8,0.3,Time
,,S04,1,男,21,anonymized,Serial_Dependence_U,2023.2.3,Win32,166.66666666666666,,,,,,1540.1699999999998,253.0,5.0,1540.1701000001428,253.0,,,,1543.715299999952,1544.2129999999995,1543.2107000000476,1543.7152000000476,1541.1767000000475,1543.2105,1544.2129999999995,1544.7132000000474,1544.7132000000474,1546.467,1444.0,1546.467,5.0,1546.4716000001429,5.0,26.0,176.0,16.0,1.0,1.0,0.7,Time
,,S04,1,男,21,anonymized,Serial_Dependence_U,2023.2.3,Win32,166.66666666666666,,,,,,1546.4719000000953,101.0,5.0,1546.4719999999998,101.0,,,,1550.6562000000474,1551.1501000001429,1550.1489000000952,1550.6562000000474,1547.4769000000952,1550.1489000000952,1551.1501000001429,1551.6476000001428,1551.6477000000475,1552.8897000000477,1164.0,1552.8897999999522,2.0,1552.8942999999522,5.0,27.0,177.0,4.0,1.0,1.6,0.3,Time
,,S04,1,男,21,anonymized,Serial_Dependence_U,2023.2.3,Win32,166.66666666666666,,,,,,1552.8945,318.0,5.0,1552.8945,318.0,,,,1556.6772000000476,1557.1782000000476,1556.1702999999522,1556.6772000000476,1553.9056000001428,1556.1702000000475,1557.178299999952,1557.674100000143,1557.674100000143,1558.9612000000477,935.0,1558.9612000000477,2.0,1558.9657000000475,5.0,28.0,178.0,22.0,1.0,1.2,0.3,Time
,,S04,1,男,21,anonymized,Serial_Dependence_U,2023.2.3,Win32,166.66666666666666,,,,,,1558.9657999999522,151.0,5.0,1558.9657999999522,151.0,,,,1562.9384999999995,1563.430600000143,1562.435100000143,1562.9384999999995,1559.966100000143,1562.435,1563.430600000143,1563.928600000143,1563.9287000000477,1564.7799000000953,841.0,1564.7799000000953,1.0,1564.7841000001429,5.0,29.0,179.0,3.0,1.0,1.4,0.3,Time
,,S04,1,男,21,anonymized,Serial_Dependence_U,2023.2.3,Win32,166.66666666666666,,,,,,1564.784299999952,135.0,6.0,1568.0752000000475,135.0,s,3.279499999999871,,1571.647,1572.147,1571.142600000143,1571.647,1569.0759999999998,1571.1425,1572.147100000143,1572.6404999999995,1572.6404999999995,1573.4194999999995,359.0,1573.419600000143,1.0,1573.4239999999998,6.0,0.0,180.0,11.0,1.0,1.0,0.3,Time
,,S04,1,男,21,anonymized,Serial_Dependence_U,2023.2.3,Win32,166.66666666666666,,,,,,1573.4242000000474,302.0,6.0,1573.425,302.0,,,,1577.199600000143,1577.6932999999522,1576.696299999952,1577.1995,1574.4292000000476,1576.6962000000476,1577.6932999999522,1578.1909999999998,1578.1909999999998,1579.8777999999522,1499.0,1579.8777999999522,4.0,1579.8819000000951,6.0,1.0,181.0,22.0,1.0,1.2,0.3,Time
,,S04,1,男,21,anonymized,Serial_Dependence_U,2023.2.3,Win32,166.66666666666666,,,,,,1579.8821000001428,173.0,6.0,1579.8821000001428,173.0,,,,1584.0574000000952,1584.556600000143,1583.5544999999995,1584.0572000000475,1580.8904999999995,1583.5544999999995,1584.556600000143,1585.0492999999522,1585.0494000000951,1586.112600000143,899.0,1586.112600000143,1.0,1586.1172000000474,6.0,2.0,182.0,24.0,1.0,1.6,0.3,Time
,,S04,1,男,21,anonymized,Serial_Dependence_U,2023.2.3,Win32,166.66666666666666,,,,,,1586.1174000000951,36.0,6.0,1586.1174000000951,36.0,,,,1589.889600000143,1590.392900000095,1589.3857000000476,1589.8894999999998,1587.1187000000475,1589.3857000000476,1590.392900000095,1590.8925,1590.8927000000476,1592.1699000000951,1049.0,1592.1699000000951,2.0,1592.1742000000474,6.0,3.0,183.0,12.0,1.0,1.2,0.3,Time
,,S04,1,男,21,anonymized,Serial_Dependence_U,2023.2.3,Win32,166.66666666666666,,,,,,1592.1744000000951,170.0,6.0,1592.1744000000951,170.0,,,,1595.963299999952,1596.4601000001428,1595.4559000000952,1595.9632000000474,1593.1872000000476,1595.4557999999522,1596.4601000001428,1596.959799999952,1596.959799999952,1599.467799999952,2063.0,1599.4679000000951,5.0,1599.4722999999522,6.0,4.0,184.0,2.0,1.0,1.2,0.3,Time
,,S04,1,男,21,anonymized,Serial_Dependence_U,2023.2.3,Win32,166.66666666666666,,,,,,1599.4725,312.0,6.0,1599.4726000001428,312.0,,,,1603.2102000000475,1603.7084999999995,1602.707299999952,1603.2099999999998,1600.476600000143,1602.7072000000476,1603.7084999999995,1604.2047999999522,1604.2047999999522,1605.4147999999525,904.0,1605.4147999999525,2.0,1605.4192000000476,6.0,5.0,185.0,27.0,1.0,1.2,0.7,Time
,,S04,1,男,21,anonymized,Serial_Dependence_U,2023.2.3,Win32,166.66666666666666,,,,,,1605.4192999999525,308.0,6.0,1605.4194000000953,308.0,,,,1609.3622000000476,1609.8586000001428,1608.859100000143,1609.362,1606.4266000001428,1608.859,1609.8586000001428,1610.3549999999998,1610.3551000001428,1611.7034000000951,1259.0,1611.7034000000951,2.0,1611.7079000000952,6.0,6.0,186.0,8.0,1.0,1.4,0.7,Time
,,S04,1,男,21,anonymized,Serial_Dependence_U,2023.2.3,Win32,166.66666666666666,,,,,,1611.708,284.0,6.0,1611.7081000001428,284.0,,,,1615.6766000001428,1616.1787999999522,1615.1729000000953,1615.6766000001428,1612.7109000000953,1615.1729000000953,1616.1787999999522,1616.6749000000952,1616.675,1621.6537000000476,1529.0,1621.6537000000476,4.0,1621.6582000000476,6.0,7.0,187.0,3.0,1.0,1.4,0.3,Time
,,S04,1,男,21,anonymized,Serial_Dependence_U,2023.2.3,Win32,166.66666666666666,,,,,,1621.658600000143,17.0,6.0,1621.658600000143,17.0,,,,1625.406299999952,1625.9025,1624.902900000095,1625.4062000000474,1622.6677999999522,1624.902799999952,1625.902600000143,1626.4,1626.4,1628.8702000000476,1472.0,1628.8702000000476,4.0,1628.8742999999522,6.0,8.0,188.0,7.0,1.0,1.2,0.7,Time
,,S04,1,男,21,anonymized,Serial_Dependence_U,2023.2.3,Win32,166.66666666666666,,,,,,1628.8744000000952,53.0,6.0,1628.8744000000952,53.0,,,,1632.2547000000477,1632.7469999999998,1631.7482999999522,1632.2547000000477,1629.8757000000476,1631.7482000000475,1632.7469999999998,1633.244299999952,1633.244299999952,1638.3457000000476,902.0,1638.3457000000476,4.0,1638.3504000000953,6.0,9.0,189.0,0.0,1.0,0.8,0.3,Time
,,S04,1,男,21,anonymized,Serial_Dependence_U,2023.2.3,Win32,166.66666666666666,,,,,,1638.3507000000477,224.0,6.0,1638.3507000000477,224.0,,,,1641.697600000143,1642.194299999952,1641.1821000001428,1641.6974000000953,1639.351600000143,1641.1821000001428,1642.1944000000951,1642.690799999952,1642.690900000095,1646.115100000143,1508.0,1646.1152000000477,5.0,1646.12,6.0,10.0,190.0,5.0,1.0,0.8,0.7,Time
,,S04,1,男,21,anonymized,Serial_Dependence_U,2023.2.3,Win32,166.66666666666666,,,,,,1646.120299999952,282.0,6.0,1646.120299999952,282.0,,,,1649.4609999999998,1649.9619999999998,1648.9592000000475,1649.4609000000953,1647.1214000000953,1648.9591000001428,1649.9619999999998,1650.4592000000475,1650.4592000000475,1651.631,815.0,1651.631,3.0,1651.6352999999522,6.0,11.0,191.0,25.0,1.0,0.8,0.7,Time
,,S04,1,男,21,anonymized,Serial_Dependence_U,2023.2.3,Win32,166.66666666666666,,,,,,1651.6354000000952,165.0,6.0,1651.6355,165.0,,,,1655.7767000000476,1656.2747000000477,1655.2719000000952,1655.7767000000476,1652.6401000001429,1655.2719000000952,1656.2747000000477,1656.7741000001429,1656.7741000001429,1659.1597000000477,1937.0,1659.1597000000477,4.0,1659.163799999952,6.0,12.0,192.0,9.0,1.0,1.6,0.7,Time
,,S04,1,男,21,anonymized,Serial_Dependence_U,2023.2.3,Win32,166.66666666666666,,,,,,1659.164100000143,135.0,6.0,1659.164100000143,135.0,,,,1663.1322999999522,1663.6304999999998,1662.6262999999522,1663.1322999999522,1660.161799999952,1662.6262999999522,1663.6304999999998,1664.129600000143,1664.129600000143,1666.3231000001429,1177.0,1666.3231000001429,2.0,1666.328100000143,6.0,13.0,193.0,23.0,1.0,1.4,0.3,Time
,,S04,1,男,21,anonymized,Serial_Dependence_U,2023.2.3,Win32,166.66666666666666,,,,,,1666.3282999999522,296.0,6.0,1666.3284999999998,296.0,,,,1669.7074999999998,1670.2064000000953,1669.1989000000951,1669.7074000000953,1667.334799999952,1669.1989000000951,1670.2064999999998,1670.7084000000953,1670.7084000000953,1673.4354000000951,1826.0,1673.4354000000951,5.0,1673.4395,6.0,14.0,194.0,10.0,1.0,0.8,0.3,Time
,,S04,1,男,21,anonymized,Serial_Dependence_U,2023.2.3,Win32,166.66666666666666,,,,,,1673.4397000000474,171.0,6.0,1673.4397000000474,171.0,,,,1676.9814000000952,1677.4827000000475,1676.4809000000953,1676.9812999999522,1674.4471000001429,1676.480799999952,1677.4827999999522,1677.9836000001428,1677.9837000000475,1680.2062000000476,1366.0,1680.206299999952,5.0,1680.210799999952,6.0,15.0,195.0,26.0,1.0,1.0,0.7,Time
,,S04,1,男,21,anonymized,Serial_Dependence_U,2023.2.3,Win32,166.66666666666666,,,,,,1680.2109999999998,211.0,6.0,1680.211100000143,211.0,,,,1683.7542000000476,1684.2497000000476,1683.2514000000951,1683.754100000143,1681.208600000143,1683.2514000000951,1684.2497000000476,1684.7529000000952,1684.753,1687.4442000000474,1508.0,1687.4442000000474,5.0,1687.4484000000953,6.0,16.0,196.0,16.0,1.0,1.0,0.7,Time
,,S04,1,男,21,anonymized,Serial_Dependence_U,2023.2.3,Win32,166.66666666666666,,,,,,1687.448600000143,286.0,6.0,1687.448600000143,286.0,,,,1691.5949999999998,1692.091600000143,1691.0922000000476,1691.594900000095,1688.456,1691.0921000001429,1692.091600000143,1692.591,1692.591,1694.982100000143,1951.0,1694.982100000143,4.0,1694.986600000143,6.0,17.0,197.0,19.0,1.0,1.6,0.7,Time
,,S04,1,男,21,anonymized,Serial_Dependence_U,2023.2.3,Win32,166.66666666666666,,,,,,1694.9867999999522,231.0,6.0,1694.9869000000951,231.0,,,,1698.5512000000476,1699.0471000001428,1698.0449000000951,1698.5512000000476,1695.9819999999995,1698.044799999952,1699.0472000000475,1699.546799999952,1699.546799999952,1701.131,1034.0,1701.1311000001429,3.0,1701.1352000000477,6.0,18.0,198.0,21.0,1.0,1.0,0.3,Time
,,S04,1,男,21,anonymized,Serial_Dependence_U,2023.2.3,Win32,166.66666666666666,,,,,,1701.1355,163.0,6.0,1701.1355,163.0,,,,1705.3134000000953,1705.8096000001428,1704.8037000000477,1705.313299999952,1702.1319999999998,1704.8037000000477,1705.8096000001428,1706.305900000095,1706.305900000095,1708.1819999999998,1348.0,1708.1821000001428,2.0,1708.1864999999998,6.0,19.0,199.0,14.0,1.0,1.6,0.3,Time
,,S04,1,男,21,anonymized,Serial_Dependence_U,2023.2.3,Win32,166.66666666666666,,,,,,1708.1867999999522,291.0,6.0,1708.1869000000952,291.0,,,,1711.7347000000475,1712.2326000001428,1711.2267999999522,1711.7347000000475,1709.1852000000474,1711.2267000000477,1712.2326000001428,1712.7297000000476,1712.729799999952,1713.714,669.0,1713.714,1.0,1713.7179999999998,6.0,20.0,200.0,6.0,1.0,1.0,0.7,Time
,,S04,1,男,21,anonymized,Serial_Dependence_U,2023.2.3,Win32,166.66666666666666,,,,,,1713.7182000000475,257.0,6.0,1713.7182999999525,257.0,,,,1717.08,1717.576799999952,1716.5772000000477,1717.0799000000952,1714.7164000000953,1716.577100000143,1717.576799999952,1718.0775,1718.0775,1719.0264000000952,896.0,1719.0265,4.0,1719.031,6.0,21.0,201.0,20.0,1.0,0.8,0.3,Time
,,S04,1,男,21,anonymized,Serial_Dependence_U,2023.2.3,Win32,166.66666666666666,,,,,,1719.0312000000474,186.0,6.0,1719.031299999952,186.0,,,,1722.9734000000951,1723.470799999952,1722.4701000001428,1722.9734000000951,1720.0367000000476,1722.4701000001428,1723.4709000000953,1723.9697000000476,1723.969799999952,1725.3229000000952,976.0,1725.3229000000952,1.0,1725.327100000143,6.0,22.0,202.0,28.0,1.0,1.4,0.7,Time
,,S04,1,男,21,anonymized,Serial_Dependence_U,2023.2.3,Win32,166.66666666666666,,,,,,1725.3272999999522,71.0,6.0,1725.3274000000952,71.0,,,,1729.5124999999998,1730.0096000001429,1729.0017999999525,1729.512400000095,1726.3314000000953,1729.0017999999525,1730.0096000001429,1730.5062000000476,1730.5062000000476,1732.3119000000952,1435.0,1732.312,2.0,1732.3165,6.0,23.0,203.0,4.0,1.0,1.6,0.3,Time
,,S04,1,男,21,anonymized,Serial_Dependence_U,2023.2.3,Win32,166.66666666666666,,,,,,1732.316600000143,267.0,6.0,1732.3167000000476,267.0,,,,1736.2794000000952,1736.7799999999995,1735.7727999999522,1736.2794000000952,1733.3117000000475,1735.7727000000475,1736.7799999999995,1737.2802000000474,1737.2802000000474,1739.8017000000475,1670.0,1739.8017000000475,4.0,1739.805600000143,6.0,24.0,204.0,13.0,1.0,1.4,0.3,Time
,,S04,1,男,21,anonymized,Serial_Dependence_U,2023.2.3,Win32,166.66666666666666,,,,,,1739.805900000095,31.0,6.0,1739.805900000095,31.0,,,,1743.1512999999522,1743.6509999999998,1742.6455,1743.1512000000475,1740.810299999952,1742.6454000000952,1743.6509999999998,1744.1511000001428,1744.1511000001428,1749.7897000000476,1476.0,1749.7897000000476,5.0,1749.794,6.0,25.0,205.0,15.0,1.0,0.8,0.7,Time
,,S04,1,男,21,anonymized,Serial_Dependence_U,2023.2.3,Win32,166.66666666666666,,,,,,1749.7942000000476,213.0,6.0,1749.7942000000476,213.0,,,,1753.944299999952,1754.4456000001428,1753.4391000001428,1753.9442000000474,1750.7984000000952,1753.4391000001428,1754.4456000001428,1754.9427000000476,1754.942799999952,1758.0154999999995,2424.0,1758.015600000143,5.0,1758.0199999999998,6.0,26.0,206.0,29.0,1.0,1.6,0.7,Time
,,S04,1,男,21,anonymized,Serial_Dependence_U,2023.2.3,Win32,166.66666666666666,,,,,,1758.020100000143,70.0,6.0,1758.0202000000477,70.0,,,,1761.763400000095,1762.263,1761.2629000000952,1761.763400000095,1759.0217000000475,1761.2629000000952,1762.263,1762.7592999999522,1762.7592999999522,1766.5347999999522,2139.0,1766.5347999999522,5.0,1766.5392999999522,6.0,27.0,207.0,17.0,1.0,1.2,0.7,Time
,,S04,1,男,21,anonymized,Serial_Dependence_U,2023.2.3,Win32,166.66666666666666,,,,,,1766.5394000000952,218.0,6.0,1766.5395,218.0,,,,1770.476299999952,1770.9772000000476,1769.973,1770.4762000000476,1767.540100000143,1769.973,1770.9772000000476,1771.4772999999525,1771.4772999999525,1776.0012000000474,2092.0,1776.0012000000474,5.0,1776.0057999999522,6.0,28.0,208.0,18.0,1.0,1.4,0.7,Time
,,S04,1,男,21,anonymized,Serial_Dependence_U,2023.2.3,Win32,166.66666666666666,,,,,,1776.0061000001429,279.0,6.0,1776.0062000000476,279.0,,,,1779.5862000000477,1780.079299999952,1779.083,1779.586100000143,1777.0114999999998,1779.083,1780.079299999952,1780.5772999999522,1780.5772999999522,1782.2282000000475,1194.0,1782.2282000000475,4.0,1782.2327999999522,6.0,29.0,209.0,1.0,1.0,1.0,0.3,Time
,,S04,1,男,21,anonymized,Serial_Dependence_U,2023.2.3,Win32,166.66666666666666,,,,,,1782.2329000000952,6.0,7.0,1843.7179000000951,6.0,s,61.473900000095455,,1847.2784000000952,1847.7749000000952,1846.7774000000952,1847.2784000000952,1844.714799999952,1846.777299999952,1847.7749000000952,1848.273299999952,1848.2734000000955,1850.2982000000477,1535.0,1850.298299999952,5.0,1850.3025,7.0,0.0,210.0,21.0,1.0,1.0,0.3,Time
,,S04,1,男,21,anonymized,Serial_Dependence_U,2023.2.3,Win32,166.66666666666666,,,,,,1850.3027000000477,355.0,7.0,1850.303299999952,355.0,,,,1853.847100000143,1854.344,1853.337100000143,1853.847,1851.299,1853.337,1854.3441000001428,1854.8406000001428,1854.8407000000475,1856.670799999952,1302.0,1856.670799999952,5.0,1856.6752000000477,7.0,1.0,211.0,6.0,1.0,1.0,0.7,Time
,,S04,1,男,21,anonymized,Serial_Dependence_U,2023.2.3,Win32,166.66666666666666,,,,,,1856.6754000000951,268.0,7.0,1856.6755,268.0,,,,1860.851799999952,1861.3437000000476,1860.342799999952,1860.851799999952,1857.679200000048,1860.3427000000477,1861.3437000000476,1861.841100000143,1861.841200000048,1865.203,1468.0,1865.203,2.0,1865.2077000000477,7.0,2.0,212.0,4.0,1.0,1.6,0.3,Time
,,S04,1,男,21,anonymized,Serial_Dependence_U,2023.2.3,Win32,166.66666666666666,,,,,,1865.2079000000952,90.0,7.0,1865.2079000000952,90.0,,,,1868.5445,1869.043600000143,1868.0435,1868.5444000000955,1866.211,1868.0435,1869.043600000143,1869.542,1869.542,1874.297299999952,1745.0,1874.297299999952,5.0,1874.302,7.0,3.0,213.0,25.0,1.0,0.8,0.7,Time
,,S04,1,男,21,anonymized,Serial_Dependence_U,2023.2.3,Win32,166.66666666666666,,,,,,1874.302100000143,42.0,7.0,1874.302100000143,42.0,,,,1878.269,1878.7647000000477,1877.7649000000952,1878.269,1875.3039000000952,1877.764799999952,1878.7647000000477,1879.2651000001429,1879.265299999952,1882.7865,1014.0,1882.786600000143,2.0,1882.7909000000952,7.0,4.0,214.0,23.0,1.0,1.4,0.3,Time
,,S04,1,男,21,anonymized,Serial_Dependence_U,2023.2.3,Win32,166.66666666666666,,,,,,1882.791100000143,51.0,7.0,1882.791100000143,51.0,,,,1886.726600000143,1887.226799999952,1886.2235,1886.726600000143,1883.7855,1886.2235,1887.226799999952,1887.728799999952,1887.728799999952,1889.753799999952,1356.0,1889.7539000000952,3.0,1889.757900000095,7.0,5.0,215.0,18.0,1.0,1.4,0.7,Time
,,S04,1,男,21,anonymized,Serial_Dependence_U,2023.2.3,Win32,166.66666666666666,,,,,,1889.7581000001428,338.0,7.0,1889.7582000000475,338.0,,,,1893.103700000048,1893.601299999952,1892.5966000001429,1893.103700000048,1890.765799999952,1892.5965,1893.6014000000955,1894.101600000143,1894.1017000000477,1897.229700000048,1336.0,1897.229700000048,5.0,1897.234299999952,7.0,6.0,216.0,15.0,1.0,0.8,0.7,Time
,,S04,1,男,21,anonymized,Serial_Dependence_U,2023.2.3,Win32,166.66666666666666,,,,,,1897.2345,210.0,7.0,1897.2345,210.0,,,,1900.976200000048,1901.473,1900.4674000000955,1900.9761000001429,1898.2326000001428,1900.467299999952,1901.473100000143,1901.969299999952,1901.9694000000952,1906.4769000000952,1853.0,1906.4769000000952,5.0,1906.481299999952,7.0,7.0,217.0,7.0,1.0,1.2,0.7,Time
,,S04,1,男,21,anonymized,Serial_Dependence_U,2023.2.3,Win32,166.66666666666666,,,,,,1906.4815,274.0,7.0,1906.4815,274.0,,,,1910.643,1911.1356000001429,1910.137400000095,1910.6429000000956,1907.4764000000955,1910.137299999952,1911.135700000048,1911.635299999952,1911.6354000000952,1919.4091000001429,1423.0,1919.4091000001429,2.0,1919.4142000000477,7.0,8.0,218.0,14.0,1.0,1.6,0.3,Time
,,S04,1,男,21,anonymized,Serial_Dependence_U,2023.2.3,Win32,166.66666666666666,,,,,,1919.4144000000952,149.0,7.0,1919.4144000000952,149.0,,,,1923.159,1923.6597000000477,1922.6515,1923.158799999952,1920.4205,1922.6515,1923.659799999952,1924.1562000000476,1924.156299999952,1926.581600000143,1739.0,1926.581600000143,5.0,1926.5859000000955,7.0,9.0,219.0,27.0,1.0,1.2,0.7,Time
,,S04,1,男,21,anonymized,Serial_Dependence_U,2023.2.3,Win32,166.66666666666666,,,,,,1926.586,358.0,7.0,1926.586100000143,358.0,,,,1930.5229000000952,1931.022,1930.021100000143,1930.522799999952,1927.588799999952,1930.021,1931.022,1931.5219000000952,1931.522,1935.755200000048,1379.0,1935.755200000048,3.0,1935.759700000048,7.0,10.0,220.0,8.0,1.0,1.4,0.7,Time
,,S04,1,男,21,anonymized,Serial_Dependence_U,2023.2.3,Win32,166.66666666666666,,,,,,1935.7599000000955,82.0,7.0,1935.7599000000955,82.0,,,,1939.732799999952,1940.2295,1939.2299000000955,1939.732799999952,1936.767,1939.2299000000955,1940.229600000143,1940.730700000048,1940.730700000048,1949.7371000001428,1660.0,1949.737200000048,4.0,1949.741700000048,7.0,11.0,221.0,3.0,1.0,1.4,0.3,Time
,,S04,1,男,21,anonymized,Serial_Dependence_U,2023.2.3,Win32,166.66666666666666,,,,,,1949.7417999999525,39.0,7.0,1949.7419000000957,39.0,,,,1953.2899000000957,1953.786700000048,1952.784600000143,1953.2899000000957,1950.7481000001428,1952.7845,1953.786700000048,1954.2889000000955,1954.289,1957.2607999999525,1295.0,1957.2609000000955,4.0,1957.265600000143,7.0,12.0,222.0,26.0,1.0,1.0,0.7,Time
,,S04,1,男,21,anonymized,Serial_Dependence_U,2023.2.3,Win32,166.66666666666666,,,,,,1957.2657000000477,240.0,7.0,1957.265799999952,240.0,,,,1961.0161000001428,1961.505200000048,1960.5005,1961.0161000001428,1958.262400000095,1960.5005,1961.505299999952,1962.0029000000952,1962.003,1964.0587999999525,1406.0,1964.0587999999525,4.0,1964.0631000001429,7.0,13.0,223.0,17.0,1.0,1.2,0.7,Time
,,S04,1,男,21,anonymized,Serial_Dependence_U,2023.2.3,Win32,166.66666666666666,,,,,,1964.063299999952,148.0,7.0,1964.063299999952,148.0,,,,1967.625700000048,1968.1224000000952,1967.123,1967.6256000001429,1965.060100000143,1967.1229000000951,1968.1224000000952,1968.6186000001428,1968.6187000000475,1970.0927000000477,940.0,1970.0927000000477,2.0,1970.097,7.0,14.0,224.0,11.0,1.0,1.0,0.3,Time
,,S04,1,男,21,anonymized,Serial_Dependence_U,2023.2.3,Win32,166.66666666666666,,,,,,1970.0972000000477,337.0,7.0,1970.097299999952,337.0,,,,1973.8762000000477,1974.3725,1973.3705,1973.876100000143,1971.1076000001428,1973.3704000000955,1974.3725,1974.869200000048,1974.869200000048,1976.2637000000475,788.0,1976.2639000000952,1.0,1976.268299999952,7.0,15.0,225.0,12.0,1.0,1.2,0.3,Time
,,S04,1,男,21,anonymized,Serial_Dependence_U,2023.2.3,Win32,166.66666666666666,,,,,,1976.2685,163.0,7.0,1976.2685,163.0,,,,1980.411,1980.9121000001428,1979.8985,1980.411,1977.265799999952,1979.8984000000955,1980.9121000001428,1981.411299999952,1981.411299999952,1983.9374000000955,2066.0,1983.9375,4.0,1983.942,7.0,16.0,226.0,19.0,1.0,1.6,0.7,Time
,,S04,1,男,21,anonymized,Serial_Dependence_U,2023.2.3,Win32,166.66666666666666,,,,,,1983.9422000000477,98.0,7.0,1983.9422000000477,98.0,,,,1987.5192000000477,1988.0189000000955,1987.014200000048,1987.5192000000477,1984.9405,1987.014200000048,1988.0189000000955,1988.5205,1988.5206000001428,1989.7665,780.0,1989.7665,2.0,1989.7706000001428,7.0,17.0,227.0,1.0,1.0,1.0,0.3,Time
,,S04,1,男,21,anonymized,Serial_Dependence_U,2023.2.3,Win32,166.66666666666666,,,,,,1989.770700000048,342.0,7.0,1989.7709000000957,342.0,,,,1993.9187000000477,1994.4129000000955,1993.4146000001429,1993.918600000143,1990.77,1993.4146000001429,1994.413,1994.91,1994.91,1997.3284000000951,1981.0,1997.3285,4.0,1997.3332999999525,7.0,18.0,228.0,29.0,1.0,1.6,0.7,Time
,,S04,1,男,21,anonymized,Serial_Dependence_U,2023.2.3,Win32,166.66666666666666,,,,,,1997.3334000000957,173.0,7.0,1997.3335,173.0,,,,2001.1089000000952,2001.6052000000475,2000.6045,2001.1089000000952,1998.3399000000952,2000.6044000000952,2001.6052000000475,2002.107799999952,2002.107799999952,2003.921,1149.0,2003.921,3.0,2003.925,7.0,19.0,229.0,2.0,1.0,1.2,0.3,Time
,,S04,1,男,21,anonymized,Serial_Dependence_U,2023.2.3,Win32,166.66666666666666,,,,,,2003.9252000000477,118.0,7.0,2003.9252000000477,118.0,,,,2007.3062000000475,2007.805600000143,2006.8017000000475,2007.3061000001428,2004.9379000000952,2006.8015,2007.805700000048,2008.306299999952,2008.3064000000952,2009.1075,744.0,2009.1076000001428,2.0,2009.1117000000477,7.0,20.0,230.0,10.0,1.0,0.8,0.3,Time
,,S04,1,男,21,anonymized,Serial_Dependence_U,2023.2.3,Win32,166.66666666666666,,,,,,2009.1119000000951,128.0,7.0,2009.1119000000951,128.0,,,,2012.663700000048,2013.1621000001428,2012.1609000000951,2012.6636000001429,2010.119299999952,2012.160799999952,2013.1622000000475,2013.663,2013.663100000143,2016.866100000143,1407.0,2016.866100000143,5.0,2016.871,7.0,21.0,231.0,16.0,1.0,1.0,0.7,Time
,,S04,1,男,21,anonymized,Serial_Dependence_U,2023.2.3,Win32,166.66666666666666,,,,,,2016.871200000048,225.0,7.0,2016.871200000048,225.0,,,,2020.8127000000477,2021.310700000048,2020.3039000000952,2020.8127000000477,2017.8694000000955,2020.3039000000952,2021.310700000048,2021.8076000001429,2021.8076000001429,2023.3517000000477,1247.0,2023.3517000000477,2.0,2023.355799999952,7.0,22.0,232.0,28.0,1.0,1.4,0.7,Time
,,S04,1,男,21,anonymized,Serial_Dependence_U,2023.2.3,Win32,166.66666666666666,,,,,,2023.355900000095,244.0,7.0,2023.356,244.0,,,,2026.722700000048,2027.224,2026.218600000143,2026.7226000001428,2024.358299999952,2026.218600000143,2027.224,2027.7202000000475,2027.7202000000475,2030.7449000000952,1367.0,2030.7449000000952,5.0,2030.7492000000475,7.0,23.0,233.0,0.0,1.0,0.8,0.3,Time
,,S04,1,男,21,anonymized,Serial_Dependence_U,2023.2.3,Win32,166.66666666666666,,,,,,2030.7494000000952,229.0,7.0,2030.7495,229.0,,,,2034.125299999952,2034.6216000001427,2033.6237000000476,2034.125200000048,2031.7622000000476,2033.6237000000476,2034.6216000001427,2035.118,2035.118,2036.361700000048,842.0,2036.361700000048,4.0,2036.3665,7.0,24.0,234.0,20.0,1.0,0.8,0.3,Time
,,S04,1,男,21,anonymized,Serial_Dependence_U,2023.2.3,Win32,166.66666666666666,,,,,,2036.366600000143,70.0,7.0,2036.3667000000476,70.0,,,,2040.3366000001429,2040.834700000048,2039.833100000143,2040.3365,2037.3685,2039.833,2040.834700000048,2041.335200000048,2041.335200000048,2043.152400000095,1299.0,2043.152400000095,2.0,2043.1571000001427,7.0,25.0,235.0,13.0,1.0,1.4,0.3,Time
,,S04,1,男,21,anonymized,Serial_Dependence_U,2023.2.3,Win32,166.66666666666666,,,,,,2043.1572000000476,272.0,7.0,2043.157299999952,272.0,,,,2046.9297000000477,2047.4324000000952,2046.425799999952,2046.9296000001427,2044.157299999952,2046.4257000000475,2047.4324000000952,2047.9296000001427,2047.9296000001427,2050.8434000000952,1603.0,2050.8434000000952,5.0,2050.8479000000957,7.0,26.0,236.0,22.0,1.0,1.2,0.3,Time
,,S04,1,男,21,anonymized,Serial_Dependence_U,2023.2.3,Win32,166.66666666666666,,,,,,2050.848100000143,238.0,7.0,2050.848200000048,238.0,,,,2054.995700000048,2055.4894000000954,2054.4902000000475,2054.995600000143,2051.853799999952,2054.4902000000475,2055.4895,2055.986200000048,2055.986200000048,2058.213400000095,1460.0,2058.213400000095,2.0,2058.218100000143,7.0,27.0,237.0,9.0,1.0,1.6,0.7,Time
,,S04,1,男,21,anonymized,Serial_Dependence_U,2023.2.3,Win32,166.66666666666666,,,,,,2058.2184000000952,171.0,7.0,2058.2184000000952,171.0,,,,2061.5592000000474,2062.057100000143,2061.054299999952,2061.5591000001427,2059.2207999999523,2061.054200000048,2062.057100000143,2062.5579000000957,2062.5579000000957,2065.3257999999523,1219.0,2065.3259000000958,5.0,2065.3312000000474,7.0,28.0,238.0,5.0,1.0,0.8,0.7,Time
,,S04,1,男,21,anonymized,Serial_Dependence_U,2023.2.3,Win32,166.66666666666666,,,,,,2065.331299999952,49.0,7.0,2065.331400000095,49.0,,,,2069.5112999999524,2070.009799999952,2069.008600000143,2069.511200000048,2066.338600000143,2069.0085,2070.009799999952,2070.509900000095,2070.51,2080.860400000095,1439.0,2080.860400000095,2.0,2080.865100000143,7.0,29.0,239.0,24.0,1.0,1.6,0.3,Time
,,S04,1,男,21,anonymized,Serial_Dependence_U,2023.2.3,Win32,166.66666666666666,,,,,,2080.8652000000475,160.0,8.0,2082.386799999952,160.0,s,1.5148999998573345,,2086.158799999952,2086.6577000000475,2085.6535,2086.158700000048,2083.3862999999524,2085.653400000095,2086.657799999952,2087.157,2087.157,2089.174799999952,1593.0,2089.174900000095,5.0,2089.179799999952,8.0,0.0,240.0,2.0,1.0,1.2,0.3,Time
,,S04,1,男,21,anonymized,Serial_Dependence_U,2023.2.3,Win32,166.66666666666666,,,,,,2089.18,279.0,8.0,2089.180900000096,279.0,,,,2093.330700000048,2093.828200000048,2092.821600000143,2093.330600000143,2090.184400000095,2092.8215,2093.8282999999524,2094.324100000143,2094.3242000000478,2096.6712000000475,1930.0,2096.671299999952,4.0,2096.675799999952,8.0,1.0,241.0,9.0,1.0,1.6,0.7,Time
,,S04,1,男,21,anonymized,Serial_Dependence_U,2023.2.3,Win32,166.66666666666666,,,,,,2096.676,343.0,8.0,2096.676,343.0,,,,2100.222,2100.717400000095,2099.719799999952,2100.221900000095,2097.6825,2099.719799999952,2100.717400000095,2101.2132000000474,2101.2132000000474,2104.303100000143,1648.0,2104.303200000048,5.0,2104.307100000143,8.0,2.0,242.0,26.0,1.0,1.0,0.7,Time
,,S04,1,男,21,anonymized,Serial_Dependence_U,2023.2.3,Win32,166.66666666666666,,,,,,2104.307299999952,171.0,8.0,2104.307299999952,171.0,,,,2108.2467000000474,2108.743600000143,2107.746299999952,2108.2466000001427,2105.309400000095,2107.746200000048,2108.743600000143,2109.240700000048,2109.2407999999523,2112.380400000095,1527.0,2112.380400000095,4.0,2112.384900000095,8.0,3.0,243.0,8.0,1.0,1.4,0.7,Time
,,S04,1,男,21,anonymized,Serial_Dependence_U,2023.2.3,Win32,166.66666666666666,,,,,,2112.385,304.0,8.0,2112.3851000001428,304.0,,,,2115.745200000048,2116.2385,2115.239200000048,2115.745100000143,2113.400100000143,2115.239100000143,2116.2385,2116.740100000143,2116.740100000143,2118.645100000143,1500.0,2118.645200000048,5.0,2118.65,8.0,4.0,244.0,25.0,1.0,0.8,0.7,Time
,,S04,1,男,21,anonymized,Serial_Dependence_U,2023.2.3,Win32,166.66666666666666,,,,,,2118.650200000048,5.0,8.0,2118.650200000048,5.0,,,,2122.819799999952,2123.316700000048,2122.313100000143,2122.819600000143,2119.6514000000952,2122.313,2123.316700000048,2123.8147999999524,2123.8147999999524,2124.931900000095,791.0,2124.932,1.0,2124.9361000001427,8.0,5.0,245.0,4.0,1.0,1.6,0.3,Time
,,S04,1,男,21,anonymized,Serial_Dependence_U,2023.2.3,Win32,166.66666666666666,,,,,,2124.936299999952,333.0,8.0,2124.936299999952,333.0,,,,2128.307100000143,2128.807299999952,2127.806100000143,2128.307,2125.941700000048,2127.806100000143,2128.807299999952,2129.308600000143,2129.308600000143,2131.036299999952,1239.0,2131.036299999952,5.0,2131.0407000000478,8.0,6.0,246.0,20.0,1.0,0.8,0.3,Time
,,S04,1,男,21,anonymized,Serial_Dependence_U,2023.2.3,Win32,166.66666666666666,,,,,,2131.040900000095,88.0,8.0,2131.041,88.0,,,,2134.974900000095,2135.472,2134.473900000095,2134.974900000095,2132.040200000048,2134.473900000095,2135.472,2135.967900000095,2135.968,2137.922299999952,1595.0,2137.922299999952,4.0,2137.926700000048,8.0,7.0,247.0,18.0,1.0,1.4,0.7,Time
,,S04,1,男,21,anonymized,Serial_Dependence_U,2023.2.3,Win32,166.66666666666666,,,,,,2137.9269000000954,218.0,8.0,2137.927,218.0,,,,2141.701799999952,2142.1976000001428,2141.197299999952,2141.701700000048,2138.9335,2141.197200000048,2142.197799999952,2142.6931000001427,2142.6931000001427,2144.8392999999523,1576.0,2144.839400000096,5.0,2144.8432999999523,8.0,8.0,248.0,22.0,1.0,1.2,0.3,Time
,,S04,1,男,21,anonymized,Serial_Dependence_U,2023.2.3,Win32,166.66666666666666,,,,,,2144.8435,284.0,8.0,2144.843600000143,284.0,,,,2148.783200000048,2149.280400000095,2148.2731000001427,2148.783200000048,2145.840400000095,2148.273,2149.280400000095,2149.7782000000475,2149.7782000000475,2151.6617000000474,1269.0,2151.6617000000474,2.0,2151.665799999952,8.0,9.0,249.0,28.0,1.0,1.4,0.7,Time
,,S04,1,男,21,anonymized,Serial_Dependence_U,2023.2.3,Win32,166.66666666666666,,,,,,2151.666,166.0,8.0,2151.6661000001427,166.0,,,,2155.0377999999523,2155.533600000143,2154.534100000143,2155.037700000048,2152.6706000001427,2154.534,2155.533700000048,2156.040600000143,2156.040600000143,2156.881700000048,803.0,2156.8817999999524,3.0,2156.8857999999523,8.0,10.0,250.0,0.0,1.0,0.8,0.3,Time
,,S04,1,男,21,anonymized,Serial_Dependence_U,2023.2.3,Win32,166.66666666666666,,,,,,2156.886,328.0,8.0,2156.886100000143,328.0,,,,2160.455,2160.9509000000958,2159.952,2160.455,2157.885,2159.951799999952,2160.9509000000958,2161.4485,2161.4485,2162.9316000001427,1034.0,2162.9317000000474,3.0,2162.935600000143,8.0,11.0,251.0,21.0,1.0,1.0,0.3,Time
,,S04,1,男,21,anonymized,Serial_Dependence_U,2023.2.3,Win32,166.66666666666666,,,,,,2162.935799999952,53.0,8.0,2162.935799999952,53.0,,,,2166.921100000143,2167.420299999952,2166.417100000143,2166.921100000143,2163.949400000095,2166.417,2167.420299999952,2167.917100000143,2167.917200000048,2169.9845,1269.0,2169.9845,2.0,2169.988900000096,8.0,12.0,252.0,23.0,1.0,1.4,0.3,Time
,,S04,1,男,21,anonymized,Serial_Dependence_U,2023.2.3,Win32,166.66666666666666,,,,,,2169.989100000143,35.0,8.0,2169.989100000143,35.0,,,,2173.735799999952,2174.2367999999524,2173.2311000001428,2173.7356000001428,2170.9955,2173.2311000001428,2174.2369000000954,2174.733900000095,2174.733900000095,2176.7612999999524,1485.0,2176.7612999999524,4.0,2176.7655,8.0,13.0,253.0,17.0,1.0,1.2,0.7,Time
,,S04,1,男,21,anonymized,Serial_Dependence_U,2023.2.3,Win32,166.66666666666666,,,,,,2176.765600000143,229.0,8.0,2176.765700000048,229.0,,,,2180.310200000048,2180.806799999952,2179.8075,2180.310100000143,2177.7647000000475,2179.8075,2180.806900000095,2181.302299999952,2181.302400000095,2183.052,1200.0,2183.0521000001427,4.0,2183.0565,8.0,14.0,254.0,16.0,1.0,1.0,0.7,Time
