Scale_setup.started,Scale_setup.stopped,participant,session,sex,age,date,expName,psychopyVersion,OS,frameRate,Intro.started,Intro.stopped,key_resp_2.keys,key_resp_2.rt,key_resp_2.duration,block.started,direction,Block_id,block.stopped,trial_direction,Block_resp_2.keys,Block_resp_2.rt,Block_resp_2.duration,ITI.started,ITI.stopped,Mask_2.started,Mask_2.stopped,encoding.started,encoding.stopped,Cue.started,Cue.stopped,Response.started,Response.stopped,keyDuration,Feedback_Time.started,FeedbackID_T,Feedback_Time.stopped,trials.thisRepN,trials.thisTrialN,trials.thisN,trials.thisIndex,trials.ran,TimeDur,Coherence1,TrialType
0.0001999998092649,0.0002999997138957,S05,1,女,20,anonymized,Serial_Dependence_U,2023.2.3,Win32,59.88023952095548,,,,,,,,,,,,,,,,,,,,,,,,,,,,,,,,,,,
,,S05,1,女,20,anonymized,Serial_Dependence_U,2023.2.3,Win32,59.88023952095548,127.88859999990464,361.8695999999046,space,233.96079999971388,,,,,,,,,,,,,,,,,,,,,,,,,,,,,,,
,,S05,1,女,20,anonymized,Serial_Dependence_U,2023.2.3,Win32,59.88023952095548,,,,,,361.8775999999046,133.0,0.0,366.38490000009534,133.0,s,4.48559999990465,,369.9337999997138,370.4331999998092,369.4196999998092,369.9335999999046,367.3867999997138,369.4195999999046,370.4332999997139,370.934,370.9340999999046,382.8974000000953,145.0,382.89759999990457,1.0,383.8967999997138,0.0,0.0,0.0,6.0,1.0,1.0,0.7,Time
,,S05,1,女,20,anonymized,Serial_Dependence_U,2023.2.3,Win32,59.88023952095548,,,,,,383.8972999997139,23.0,0.0,383.8985999999046,23.0,,,,387.4806999998093,387.97840000009535,386.9649000000953,387.4805999999046,384.89890000009535,386.9647999997139,387.9785,388.4780999999046,388.4781999998093,398.12629999971386,125.0,398.1264000000953,1.0,399.1251999998093,0.0,1.0,1.0,11.0,1.0,1.0,0.3,Time
,,S05,1,女,20,anonymized,Serial_Dependence_U,2023.2.3,Win32,59.88023952095548,,,,,,399.1255999999046,356.0,0.0,399.1259000000953,356.0,,,,403.31129999971387,403.8070999999046,402.7944000000953,403.31129999971387,400.1285,402.7942999997138,403.8071999998092,404.307,404.3070999999046,409.3581999998093,166.0,409.3581999998093,1.0,410.35529999971385,0.0,2.0,2.0,24.0,1.0,1.6,0.3,Time
,,S05,1,女,20,anonymized,Serial_Dependence_U,2023.2.3,Win32,59.88023952095548,,,,,,410.3556999998093,248.0,0.0,410.3557999997138,248.0,,,,414.338,414.83759999990457,413.82379999971386,414.3379000000953,411.3576999998092,413.82379999971386,414.83759999990457,415.3375,415.33759999990457,418.5224000000953,200.0,418.5224000000953,1.0,419.5192999997138,0.0,3.0,3.0,23.0,1.0,1.4,0.3,Time
,,S05,1,女,20,anonymized,Serial_Dependence_U,2023.2.3,Win32,59.88023952095548,,,,,,419.5197999997139,148.0,0.0,419.5199000000953,148.0,,,,423.30229999971385,423.8015,422.7879000000953,423.3021999998092,420.5222999997139,422.7879000000953,423.8015,424.302,424.302,427.70329999971386,200.0,427.70329999971386,1.0,428.7001999998092,0.0,4.0,4.0,12.0,1.0,1.2,0.3,Time
,,S05,1,女,20,anonymized,Serial_Dependence_U,2023.2.3,Win32,59.88023952095548,,,,,,428.70059999990457,224.0,0.0,428.7006999998092,224.0,,,,432.26879999971385,432.76579999971386,431.7519000000953,432.2686999998092,429.7191999998092,431.7519000000953,432.766,433.266,433.2660999999046,465.9926999998093,200.0,465.9927999997138,1.0,466.9895,0.0,5.0,5.0,26.0,1.0,1.0,0.7,Time
,,S05,1,女,20,anonymized,Serial_Dependence_U,2023.2.3,Win32,59.88023952095548,,,,,,466.9899000000953,336.0,0.0,466.9900999999046,336.0,,,,470.93929999971385,471.4384000000953,470.4246999998092,470.9391999998092,467.99159999990457,470.4245999999046,471.4385,471.9382999997139,471.9384000000953,475.55409999990457,192.0,475.5544000000953,1.0,476.5535,0.0,6.0,6.0,8.0,1.0,1.4,0.7,Time
,,S05,1,女,20,anonymized,Serial_Dependence_U,2023.2.3,Win32,59.88023952095548,,,,,,476.5539000000953,201.0,0.0,476.554,201.0,,,,480.1384000000953,480.6359000000953,479.6214000000953,480.1381999998092,477.5535,479.6212999997138,480.6359000000953,481.136,481.136,483.935,161.0,483.935,1.0,484.9345,0.0,7.0,7.0,21.0,1.0,1.0,0.3,Time
,,S05,1,女,20,anonymized,Serial_Dependence_U,2023.2.3,Win32,59.88023952095548,,,,,,484.9349000000953,101.0,0.0,484.9350999999046,101.0,,,,488.3039000000954,488.80000000000007,487.803,488.3037999997139,485.93679999971386,487.8029000000954,488.80000000000007,489.3001999998093,489.3001999998093,579.678,167.0,579.678,1.0,580.6745,0.0,8.0,8.0,10.0,1.0,0.8,0.3,Time
,,S05,1,女,20,anonymized,Serial_Dependence_U,2023.2.3,Win32,59.88023952095548,,,,,,580.6749000000954,20.0,0.0,580.6750000000001,20.0,,,,584.2754000000954,584.7732999997139,583.7595,584.2754000000954,581.6941999998093,583.7595,584.7732999997139,585.273,585.2730999999046,585.793,218.0,585.793,1.0,586.789,0.0,9.0,9.0,1.0,1.0,1.0,0.3,Time
,,S05,1,女,20,anonymized,Serial_Dependence_U,2023.2.3,Win32,59.88023952095548,,,,,,586.7894000000954,114.0,0.0,586.7895999999047,114.0,,,,590.1742999997139,590.6714000000953,589.6577999997139,590.1741999998093,587.7920999999046,589.6577999997139,590.6714000000953,591.1716999998093,591.1719000000954,592.9046999998093,235.0,592.9046999998093,1.0,593.904,0.0,10.0,10.0,0.0,1.0,0.8,0.3,Time
,,S05,1,女,20,anonymized,Serial_Dependence_U,2023.2.3,Win32,59.88023952095548,,,,,,593.9045,74.0,0.0,593.9045999999047,74.0,,,,597.9059000000954,598.4027999997139,597.3887999997139,597.9059000000954,594.9230999999046,597.3887999997139,598.403,598.9024000000954,598.9024000000954,600.3547999997139,200.0,600.3549000000954,1.0,601.3517999997139,0.0,11.0,11.0,13.0,1.0,1.4,0.3,Time
,,S05,1,女,20,anonymized,Serial_Dependence_U,2023.2.3,Win32,59.88023952095548,,,,,,601.3522999997139,237.0,0.0,601.3522999997139,237.0,,,,604.7012999997139,605.2007999997139,604.1875,604.7011999998093,602.3540999999046,604.1874000000954,605.2007999997139,605.7011999998093,605.7011999998093,606.5674000000954,227.0,606.5674000000954,1.0,607.5666999998093,0.0,12.0,12.0,5.0,1.0,0.8,0.7,Time
,,S05,1,女,20,anonymized,Serial_Dependence_U,2023.2.3,Win32,59.88023952095548,,,,,,607.5671999998093,308.0,0.0,607.5672999997139,308.0,,,,611.3195000000001,611.8156999998092,610.8015999999046,611.3194000000954,608.57,610.8015999999046,611.8156999998092,612.3154000000953,612.3154000000953,612.9675999999047,216.0,612.9675999999047,1.0,613.9655999999046,0.0,13.0,13.0,7.0,1.0,1.2,0.7,Time
,,S05,1,女,20,anonymized,Serial_Dependence_U,2023.2.3,Win32,59.88023952095548,,,,,,613.966,129.0,0.0,613.9660999999046,129.0,,,,617.9475,618.4474000000954,617.4332999997139,617.9474000000954,614.9666999998093,617.4331999998093,618.4474000000954,618.9469000000954,618.947,619.9801999998093,208.0,619.9802999997139,1.0,620.9796999998093,0.0,14.0,14.0,3.0,1.0,1.4,0.3,Time
,,S05,1,女,20,anonymized,Serial_Dependence_U,2023.2.3,Win32,59.88023952095548,,,,,,620.9801999998093,89.0,0.0,620.9804000000954,89.0,,,,625.1476999998093,625.6449000000954,624.6315999999047,625.1476999998093,621.9986999998093,624.6315000000001,625.6449000000954,626.1451999998093,626.1451999998093,627.563,185.0,627.563,1.0,628.561,0.0,15.0,15.0,9.0,1.0,1.6,0.7,Time
,,S05,1,女,20,anonymized,Serial_Dependence_U,2023.2.3,Win32,59.88023952095548,,,,,,628.5615,195.0,0.0,628.5615,195.0,,,,632.1125000000001,632.6097999997139,631.5959000000954,632.1124000000954,629.5631999998093,631.5959000000954,632.6097999997139,633.1096999998093,633.1097999997139,634.6784000000954,205.0,634.6785,1.0,635.6754000000954,0.0,16.0,16.0,16.0,1.0,1.0,0.7,Time
,,S05,1,女,20,anonymized,Serial_Dependence_U,2023.2.3,Win32,59.88023952095548,,,,,,635.675799999714,276.0,0.0,635.675799999714,276.0,,,,639.0439000000954,639.5409000000953,638.5277999997139,639.0439000000954,636.6945000000001,638.5276999998093,639.541,640.040799999714,640.0409000000953,641.3766999998093,200.0,641.3766999998093,1.0,642.3736999998093,0.0,17.0,17.0,25.0,1.0,0.8,0.7,Time
,,S05,1,女,20,anonymized,Serial_Dependence_U,2023.2.3,Win32,59.88023952095548,,,,,,642.3740999999046,203.0,0.0,642.3741999998093,203.0,,,,646.559,647.0556999998092,646.0565999999046,646.5587999997139,643.3925999999046,646.0564000000954,647.0556999998092,647.5557999997139,647.5559000000953,648.524,216.0,648.5240999999047,1.0,649.5215999999047,0.0,18.0,18.0,14.0,1.0,1.6,0.3,Time
,,S05,1,女,20,anonymized,Serial_Dependence_U,2023.2.3,Win32,59.88023952095548,,,,,,649.5219000000953,255.0,0.0,649.5220999999046,255.0,,,,653.4892999997139,653.9876999998093,652.9725,653.4891999998093,650.5410999999046,652.9725,653.987799999714,654.4869000000954,654.487,662.0877999997139,3750.0,662.0877999997139,5.0,663.0847999997139,0.0,19.0,19.0,28.0,1.0,1.4,0.7,Time
,,S05,1,女,20,anonymized,Serial_Dependence_U,2023.2.3,Win32,59.88023952095548,,,,,,663.0852999997139,244.0,0.0,663.0854000000954,244.0,,,,667.2531999998092,667.7497999997139,666.7505999999047,667.2531999998092,664.0851999998093,666.7505,667.7499000000954,668.2502999997139,668.2504000000954,671.9515999999046,2229.0,671.9515999999046,5.0,672.9484000000954,0.0,20.0,20.0,4.0,1.0,1.6,0.3,Time
,,S05,1,女,20,anonymized,Serial_Dependence_U,2023.2.3,Win32,59.88023952095548,,,,,,672.948799999714,320.0,0.0,672.9490000000001,320.0,,,,676.3310999999046,676.8305999999046,675.8167999997139,676.3310999999046,673.9507999997139,675.8166999998093,676.8305999999046,677.3305999999046,677.3305999999046,680.7162999997139,2900.0,680.7162999997139,5.0,681.7135000000001,0.0,21.0,21.0,20.0,1.0,0.8,0.3,Time
,,S05,1,女,20,anonymized,Serial_Dependence_U,2023.2.3,Win32,59.88023952095548,,,,,,681.7139000000954,332.0,0.0,681.7140999999046,332.0,,,,685.8640999999046,686.3612999997139,685.3484000000954,685.864,682.7152999997139,685.3484000000954,686.3612999997139,686.8611999998093,686.8612999997139,690.4965999999047,3299.0,690.4965999999047,5.0,691.4932999997139,0.0,22.0,22.0,29.0,1.0,1.6,0.7,Time
,,S05,1,女,20,anonymized,Serial_Dependence_U,2023.2.3,Win32,59.88023952095548,,,,,,691.4936999998093,18.0,0.0,691.4937999997139,18.0,,,,695.4425,695.9420999999046,694.9282999997139,695.4424000000954,692.4955,694.9281999998093,695.9421999998093,696.4419000000954,696.4419000000954,697.0944000000953,133.0,697.0944000000953,1.0,698.092,0.0,23.0,23.0,18.0,1.0,1.4,0.7,Time
,,S05,1,女,20,anonymized,Serial_Dependence_U,2023.2.3,Win32,59.88023952095548,,,,,,698.0924000000954,51.0,0.0,698.0925,51.0,,,,701.8430999999047,702.3402999997139,701.3245000000001,701.843,699.0936999998092,701.3245000000001,702.3402999997139,702.8400999999046,702.8400999999046,706.7585,3049.0,706.7585,5.0,707.7560999999047,0.0,24.0,24.0,17.0,1.0,1.2,0.7,Time
,,S05,1,女,20,anonymized,Serial_Dependence_U,2023.2.3,Win32,59.88023952095548,,,,,,707.7565999999047,105.0,0.0,707.7566999998093,105.0,,,,711.49,711.9875999999047,710.9885,711.4899000000954,708.757299999714,710.9884000000953,711.9875999999047,712.487299999714,712.487299999714,716.6391999998093,3399.0,716.6391999998093,5.0,717.6359000000954,0.0,25.0,25.0,27.0,1.0,1.2,0.7,Time
,,S05,1,女,20,anonymized,Serial_Dependence_U,2023.2.3,Win32,59.88023952095548,,,,,,717.6361999998093,114.0,0.0,717.6364000000954,114.0,,,,721.4185999999047,721.9185,720.9042999997139,721.4185999999047,718.6361999998093,720.9041999998093,721.9185999999047,722.418,722.4180999999046,726.4364000000954,3466.0,726.4364000000954,5.0,727.4337999997139,0.0,26.0,26.0,22.0,1.0,1.2,0.3,Time
,,S05,1,女,20,anonymized,Serial_Dependence_U,2023.2.3,Win32,59.88023952095548,,,,,,727.4341999998093,278.0,0.0,727.434299999714,278.0,,,,731.5847999997139,732.0824000000954,731.0826999998093,731.5846999998092,728.4515,731.0825999999047,732.0824000000954,732.5817999997139,732.5819000000954,737.2665999999047,717.0,737.266799999714,1.0,738.2634000000954,0.0,27.0,27.0,19.0,1.0,1.6,0.7,Time
,,S05,1,女,20,anonymized,Serial_Dependence_U,2023.2.3,Win32,59.88023952095548,,,,,,738.2639000000954,181.0,0.0,738.264,181.0,,,,742.0654000000953,742.5624000000954,741.5485,742.065299999714,739.2825,741.5482999997139,742.5625,743.0621999998093,743.0621999998093,747.0470999999046,3366.0,747.0470999999046,5.0,748.0440999999047,0.0,28.0,28.0,2.0,1.0,1.2,0.3,Time
,,S05,1,女,20,anonymized,Serial_Dependence_U,2023.2.3,Win32,59.88023952095548,,,,,,748.0445999999047,326.0,0.0,748.0446999998093,326.0,,,,751.3935999999046,751.8935,750.8791999998093,751.3935,749.0465,750.8791999998093,751.8935,752.3929000000954,752.393,756.2949000000954,3252.0,756.2950000000001,5.0,757.2915,0.0,29.0,29.0,15.0,1.0,0.8,0.7,Time
,,S05,1,女,20,anonymized,Serial_Dependence_U,2023.2.3,Win32,59.88023952095548,,,,,,757.2919000000954,203.0,1.0,767.0265999999046,203.0,s,9.697300000190694,,770.6065999999047,771.1041999998093,770.0905,770.6065999999047,768.0245,770.0905,771.1041999998093,771.6042999997139,771.6044000000954,775.5061999998093,3516.0,775.5062999997139,5.0,775.5105,1.0,0.0,30.0,11.0,1.0,1.0,0.3,Time
,,S05,1,女,20,anonymized,Serial_Dependence_U,2023.2.3,Win32,59.88023952095548,,,,,,775.5105999999047,154.0,1.0,775.5114000000954,154.0,,,,778.8880999999046,779.3851999998093,778.3860999999047,778.8880999999046,776.5220999999046,778.386,779.3852999997139,779.8852999997139,779.8852999997139,783.9870999999047,3632.0,783.9870999999047,5.0,783.9911999998093,1.0,1.0,31.0,0.0,1.0,0.8,0.3,Time
,,S05,1,女,20,anonymized,Serial_Dependence_U,2023.2.3,Win32,59.88023952095548,,,,,,783.9914000000954,322.0,1.0,783.9914000000954,322.0,,,,788.169,788.6661999998092,787.6522999997139,788.169,784.9844000000954,787.6521999998092,788.6662999997139,789.165799999714,789.165799999714,793.0177999997139,3432.0,793.0179000000954,5.0,793.022,1.0,2.0,32.0,4.0,1.0,1.6,0.3,Time
,,S05,1,女,20,anonymized,Serial_Dependence_U,2023.2.3,Win32,59.88023952095548,,,,,,793.0220999999046,242.0,1.0,793.0221999998092,242.0,,,,796.3661999998093,796.8657999997139,795.8491999998092,796.3660999999047,794.0171999998092,795.8490999999046,796.8657999997139,797.3640999999046,797.3641999998093,799.6991999998093,1816.0,799.6991999998093,5.0,799.7035,1.0,3.0,33.0,25.0,1.0,0.8,0.7,Time
,,S05,1,女,20,anonymized,Serial_Dependence_U,2023.2.3,Win32,59.88023952095548,,,,,,799.7035999999047,59.0,1.0,799.7035999999047,59.0,,,,803.4321999998093,803.9289000000954,802.9315999999046,803.4321999998093,800.699299999714,802.9315,803.929,804.4281999998093,804.4282999997139,807.647,2666.0,807.647,5.0,807.6510000000001,1.0,4.0,34.0,17.0,1.0,1.2,0.7,Time
,,S05,1,女,20,anonymized,Serial_Dependence_U,2023.2.3,Win32,59.88023952095548,,,,,,807.6511999998093,35.0,1.0,807.651299999714,35.0,,,,811.2125,811.7095999999046,810.696,811.2125,808.6632999997139,810.6959000000954,811.7095999999046,812.209299999714,812.2094000000953,815.1280999999046,2483.0,815.1282999997139,5.0,815.1324000000953,1.0,5.0,35.0,26.0,1.0,1.0,0.7,Time
,,S05,1,女,20,anonymized,Serial_Dependence_U,2023.2.3,Win32,59.88023952095548,,,,,,815.1325999999046,10.0,1.0,815.1325999999046,10.0,,,,818.8605999999046,819.3572999997139,818.3601999998093,818.8605999999046,816.1275999999046,818.3601999998093,819.3572999997139,819.8570999999047,819.8571999998093,824.6255999999047,4366.0,824.6256999998093,5.0,824.6297999997139,1.0,6.0,36.0,7.0,1.0,1.2,0.7,Time
,,S05,1,女,20,anonymized,Serial_Dependence_U,2023.2.3,Win32,59.88023952095548,,,,,,824.6299000000954,65.0,1.0,824.63,65.0,,,,828.591,829.0884000000954,828.0735999999047,828.591,825.6419000000953,828.0735,829.0884000000954,829.5877999997139,829.5877999997139,833.6397999997139,3496.0,833.6399000000954,5.0,833.644,1.0,7.0,37.0,18.0,1.0,1.4,0.7,Time
,,S05,1,女,20,anonymized,Serial_Dependence_U,2023.2.3,Win32,59.88023952095548,,,,,,833.6440999999046,85.0,1.0,833.6441999998093,85.0,,,,837.6050999999046,838.1020999999047,837.1029000000954,837.605,834.6385,837.102799999714,838.1021999998093,838.6022999997139,838.6022999997139,843.4372999997139,4299.0,843.4372999997139,5.0,843.4414000000954,1.0,8.0,38.0,13.0,1.0,1.4,0.3,Time
,,S05,1,女,20,anonymized,Serial_Dependence_U,2023.2.3,Win32,59.88023952095548,,,,,,843.4415999999046,29.0,1.0,843.4416999998093,29.0,,,,847.0002999997139,847.4994000000954,846.4860999999047,847.0001999998093,844.4364000000954,846.486,847.4995,847.9992999997139,847.9994000000954,851.5679000000954,2966.0,851.5679000000954,5.0,851.5714000000954,1.0,9.0,39.0,6.0,1.0,1.0,0.7,Time
,,S05,1,女,20,anonymized,Serial_Dependence_U,2023.2.3,Win32,59.88023952095548,,,,,,851.5716999998093,62.0,1.0,851.5716999998093,62.0,,,,855.3644000000954,855.8662999997139,854.8500999999046,855.3644000000954,852.582,854.85,855.8664000000954,856.3637999997139,856.3639000000954,861.246,4409.0,861.246,5.0,861.2499000000954,1.0,10.0,40.0,22.0,1.0,1.2,0.3,Time
,,S05,1,女,20,anonymized,Serial_Dependence_U,2023.2.3,Win32,59.88023952095548,,,,,,861.2500999999047,352.0,1.0,861.2501999998093,352.0,,,,865.4307999997139,865.9275,864.9141999998093,865.4306999998092,862.2655999999047,864.9141999998093,865.9275,866.4277999997139,866.4277999997139,870.696,3766.0,870.696,5.0,870.7000999999046,1.0,11.0,41.0,9.0,1.0,1.6,0.7,Time
,,S05,1,女,20,anonymized,Serial_Dependence_U,2023.2.3,Win32,59.88023952095548,,,,,,870.7001999998092,359.0,1.0,870.7002999997139,359.0,,,,874.028,874.5254000000954,873.526299999714,874.028,871.6954000000953,873.5261999998093,874.5254000000954,875.0251999998093,875.0252999997139,878.7104000000954,3132.0,878.7104000000954,5.0,878.7145,1.0,12.0,42.0,5.0,1.0,0.8,0.7,Time
,,S05,1,女,20,anonymized,Serial_Dependence_U,2023.2.3,Win32,59.88023952095548,,,,,,878.7146999998092,4.0,1.0,878.7147999997139,4.0,,,,882.909,883.4061999998092,882.3925999999046,882.9089000000954,879.7246999998093,882.3924000000953,883.4061999998092,883.9059000000954,883.9059000000954,887.6410999999047,3282.0,887.6411999998093,5.0,887.6454000000954,1.0,13.0,43.0,14.0,1.0,1.6,0.3,Time
,,S05,1,女,20,anonymized,Serial_Dependence_U,2023.2.3,Win32,59.88023952095548,,,,,,887.6455999999047,39.0,1.0,887.6455999999047,39.0,,,,891.5736999998093,892.0706999998093,891.0732999997139,891.5736999998093,888.6405999999047,891.0732999997139,892.0706999998093,892.5706999998093,892.5706999998093,896.8057999997139,3799.0,896.8059000000953,5.0,896.8099000000954,1.0,14.0,44.0,8.0,1.0,1.4,0.7,Time
,,S05,1,女,20,anonymized,Serial_Dependence_U,2023.2.3,Win32,59.88023952095548,,,,,,896.8100999999047,290.0,1.0,896.8100999999047,290.0,,,,900.604,901.1011999998092,900.0867999997139,900.604,897.8219000000954,900.0867999997139,901.1011999998092,901.601,901.601,905.353,3350.0,905.3530999999048,5.0,905.357,1.0,15.0,45.0,2.0,1.0,1.2,0.3,Time
,,S05,1,女,20,anonymized,Serial_Dependence_U,2023.2.3,Win32,59.88023952095548,,,,,,905.3571999998092,232.0,1.0,905.357299999714,232.0,,,,909.3350999999046,909.832,908.8185,909.3350999999046,906.352299999714,908.8184000000954,909.832,910.332,910.3320999999048,915.1170999999048,4266.0,915.1170999999048,5.0,915.1211999998092,1.0,16.0,46.0,23.0,1.0,1.4,0.3,Time
,,S05,1,女,20,anonymized,Serial_Dependence_U,2023.2.3,Win32,59.88023952095548,,,,,,915.1214000000954,290.0,1.0,915.1214000000954,290.0,,,,918.699,919.196,918.1830999999048,918.699,916.115799999714,918.1830999999048,919.1960999999046,919.6959000000954,919.6959000000954,922.5810999999046,2433.0,922.5810999999046,5.0,922.5845,1.0,17.0,47.0,21.0,1.0,1.0,0.3,Time
,,S05,1,女,20,anonymized,Serial_Dependence_U,2023.2.3,Win32,59.88023952095548,,,,,,922.5846999998092,72.0,1.0,922.5846999998092,72.0,,,,926.5279000000954,927.0271999998092,926.0135,926.527799999714,923.5805,926.0134000000954,927.0271999998092,927.5271999998092,927.527299999714,931.4296999998091,3366.0,931.4296999998091,5.0,931.4335999999048,1.0,18.0,48.0,28.0,1.0,1.4,0.7,Time
,,S05,1,女,20,anonymized,Serial_Dependence_U,2023.2.3,Win32,59.88023952095548,,,,,,931.433799999714,270.0,1.0,931.433799999714,270.0,,,,935.2114000000954,935.7081999998092,934.694299999714,935.211299999714,932.4285999999048,934.6941999998091,935.7081999998092,936.208299999714,936.208299999714,940.5595999999048,3786.0,940.5596999998093,5.0,940.563799999714,1.0,19.0,49.0,12.0,1.0,1.2,0.3,Time
,,S05,1,女,20,anonymized,Serial_Dependence_U,2023.2.3,Win32,59.88023952095548,,,,,,940.564,230.0,1.0,940.564,230.0,,,,943.906799999714,944.405799999714,943.392,943.9066999998092,941.558299999714,943.3919000000952,944.4059000000954,944.906,944.906,948.591,3217.0,948.5910999999046,5.0,948.5951999998092,1.0,20.0,50.0,15.0,1.0,0.8,0.7,Time
,,S05,1,女,20,anonymized,Serial_Dependence_U,2023.2.3,Win32,59.88023952095548,,,,,,948.5954000000954,12.0,1.0,948.5955,12.0,,,,952.139799999714,952.636799999714,951.6235,952.1396999998092,949.5905999999046,951.6235,952.636799999714,953.1366999998093,953.136799999714,957.8216999998092,4116.0,957.8216999998092,5.0,957.8256999998092,1.0,21.0,51.0,16.0,1.0,1.0,0.7,Time
,,S05,1,女,20,anonymized,Serial_Dependence_U,2023.2.3,Win32,59.88023952095548,,,,,,957.8259000000954,317.0,1.0,957.826,317.0,,,,961.2035999999048,961.701,960.6871999998092,961.2034000000954,958.8189000000954,960.6871999998092,961.701,962.2005999999046,962.2006999998092,966.9694000000952,4416.0,966.9694000000952,5.0,966.9734000000954,1.0,22.0,52.0,10.0,1.0,0.8,0.3,Time
,,S05,1,女,20,anonymized,Serial_Dependence_U,2023.2.3,Win32,59.88023952095548,,,,,,966.9735999999046,25.0,1.0,966.9735999999046,25.0,,,,971.1510999999048,971.6484000000954,970.633799999714,971.151,967.968299999714,970.633799999714,971.6484000000954,972.148299999714,972.148299999714,975.9834000000952,3499.0,975.9835,5.0,975.9875999999048,1.0,23.0,53.0,24.0,1.0,1.6,0.3,Time
,,S05,1,女,20,anonymized,Serial_Dependence_U,2023.2.3,Win32,59.88023952095548,,,,,,975.9876999998093,334.0,1.0,975.9876999998093,334.0,,,,979.5795,980.079,979.065299999714,979.5794000000952,976.9991999998092,979.065299999714,980.079,980.5789000000954,980.5789000000954,984.364299999714,3149.0,984.364299999714,5.0,984.368299999714,1.0,24.0,54.0,1.0,1.0,1.0,0.3,Time
,,S05,1,女,20,anonymized,Serial_Dependence_U,2023.2.3,Win32,59.88023952095548,,,,,,984.3685999999046,11.0,1.0,984.3685999999046,11.0,,,,988.346,988.8435,987.83,988.346,985.3636999998092,987.8299000000952,988.8435,989.3434000000954,989.3434000000954,993.2949000000954,3583.0,993.295,5.0,993.299299999714,1.0,25.0,55.0,3.0,1.0,1.4,0.3,Time
,,S05,1,女,20,anonymized,Serial_Dependence_U,2023.2.3,Win32,59.88023952095548,,,,,,993.2995999999048,183.0,1.0,993.2995999999048,183.0,,,,997.427799999714,997.9246999998094,996.9269000000952,997.4276999998092,994.2955,996.9267999997138,997.9246999998094,998.4241999998092,998.4241999998092,1002.3924000000952,3532.0,1002.3924000000952,5.0,1002.3964000000956,1.0,26.0,56.0,19.0,1.0,1.6,0.7,Time
,,S05,1,女,20,anonymized,Serial_Dependence_U,2023.2.3,Win32,59.88023952095548,,,,,,1002.3966999998094,304.0,1.0,1002.3967999997138,304.0,,,,1005.7751999998094,1006.2719000000952,1005.2580999999046,1005.7751999998094,1003.3922999997138,1005.258,1006.272,1006.7715999999048,1006.7716999998094,1010.2740999999048,2883.0,1010.2740999999048,5.0,1010.2781999998092,1.0,27.0,57.0,20.0,1.0,0.8,0.3,Time
,,S05,1,女,20,anonymized,Serial_Dependence_U,2023.2.3,Win32,59.88023952095548,,,,,,1010.278299999714,356.0,1.0,1010.278299999714,356.0,,,,1014.4055999999048,1014.903,1013.9049000000954,1014.4055999999048,1011.273,1013.9049000000954,1014.903,1015.4025,1015.4025,1019.8709000000952,4030.0,1019.8709000000952,5.0,1019.8749000000954,1.0,28.0,58.0,29.0,1.0,1.6,0.7,Time
,,S05,1,女,20,anonymized,Serial_Dependence_U,2023.2.3,Win32,59.88023952095548,,,,,,1019.8750999999046,137.0,1.0,1019.8750999999046,137.0,,,,1023.619799999714,1024.1165999999048,1023.1030999999048,1023.6196999998092,1020.8706999998092,1023.103,1024.1165999999048,1024.6166999998095,1024.6166999998095,1029.1185,4116.0,1029.1185,5.0,1029.1225999999049,1.0,29.0,59.0,27.0,1.0,1.2,0.7,Time
,,S05,1,女,20,anonymized,Serial_Dependence_U,2023.2.3,Win32,59.88023952095548,,,,,,1029.122799999714,50.0,2.0,1031.9480999999048,50.0,s,2.8039000000951546,,1036.1160000000002,1036.6135000000002,1035.6141999998094,1036.1159000000955,1032.9501999998097,1035.6140999999047,1036.6135000000002,1037.1134000000957,1037.1134000000957,1040.5651999998097,3032.0,1040.565299999714,5.0,1040.569299999714,2.0,0.0,60.0,24.0,1.0,1.6,0.3,Time
,,S05,1,女,20,anonymized,Serial_Dependence_U,2023.2.3,Win32,59.88023952095548,,,,,,1040.5694000000956,195.0,2.0,1040.5700999999049,195.0,,,,1044.1636999998093,1044.6609000000956,1043.6475,1044.1636999998093,1041.579299999714,1043.6475,1044.6609000000956,1045.160799999714,1045.1609000000956,1048.929599999905,3116.0,1048.9296999998094,5.0,1048.9336999998095,2.0,1.0,61.0,11.0,1.0,1.0,0.3,Time
,,S05,1,女,20,anonymized,Serial_Dependence_U,2023.2.3,Win32,59.88023952095548,,,,,,1048.933799999714,73.0,2.0,1048.9339000000955,73.0,,,,1052.679299999714,1053.1751999998094,1052.1615000000002,1052.679299999714,1049.9286999998094,1052.1614000000957,1053.1751999998094,1053.6749000000957,1053.6750000000002,1057.1605000000002,3052.0,1057.160599999905,5.0,1057.1646999998095,2.0,2.0,62.0,17.0,1.0,1.2,0.7,Time
,,S05,1,女,20,anonymized,Serial_Dependence_U,2023.2.3,Win32,59.88023952095548,,,,,,1057.1649000000957,147.0,2.0,1057.1649000000957,147.0,,,,1060.959,1061.456199999809,1060.442799999714,1060.959,1058.1775000000002,1060.4426999998093,1061.456199999809,1061.956199999809,1061.956199999809,1065.991299999714,3566.0,1065.991299999714,5.0,1065.9955000000002,2.0,3.0,63.0,12.0,1.0,1.2,0.3,Time
,,S05,1,女,20,anonymized,Serial_Dependence_U,2023.2.3,Win32,59.88023952095548,,,,,,1065.9955999999047,159.0,2.0,1065.9956999998094,159.0,,,,1069.5725999999047,1070.070299999714,1069.0570000000002,1069.5725000000002,1066.9901999998094,1069.0570000000002,1070.0704000000956,1070.5704000000956,1070.5705,1074.338799999714,3366.0,1074.338799999714,5.0,1074.343,2.0,4.0,64.0,21.0,1.0,1.0,0.3,Time
,,S05,1,女,20,anonymized,Serial_Dependence_U,2023.2.3,Win32,59.88023952095548,,,,,,1074.3430999999048,43.0,2.0,1074.3430999999048,43.0,,,,1077.7210000000002,1078.2180999999048,1077.2045999999048,1077.7209000000955,1075.3385999999048,1077.2045999999048,1078.2180999999048,1078.7186999998094,1078.7186999998094,1081.6370999999049,2533.0,1081.6370999999049,5.0,1081.641,2.0,5.0,65.0,10.0,1.0,0.8,0.3,Time
,,S05,1,女,20,anonymized,Serial_Dependence_U,2023.2.3,Win32,59.88023952095548,,,,,,1081.6411999998095,225.0,2.0,1081.641299999714,225.0,,,,1085.783299999714,1086.2829000000954,1085.2691999998094,1085.7830999999048,1082.6370000000002,1085.2691999998094,1086.2829000000954,1086.7825999999047,1086.7825999999047,1090.2679000000956,3116.0,1090.2679000000956,5.0,1090.2716999998097,2.0,6.0,66.0,9.0,1.0,1.6,0.7,Time
,,S05,1,女,20,anonymized,Serial_Dependence_U,2023.2.3,Win32,59.88023952095548,,,,,,1090.2719000000957,180.0,2.0,1090.2719000000957,180.0,,,,1094.030799999714,1094.530299999714,1093.5165999999049,1094.0306999998097,1091.2839000000954,1093.5165000000002,1094.530299999714,1095.0301999998094,1095.030299999714,1098.2986999998093,2883.0,1098.298799999714,5.0,1098.3029000000954,2.0,7.0,67.0,7.0,1.0,1.2,0.7,Time
,,S05,1,女,20,anonymized,Serial_Dependence_U,2023.2.3,Win32,59.88023952095548,,,,,,1098.303,104.0,2.0,1098.3031999998093,104.0,,,,1102.4476999998094,1102.9445999999048,1101.9314000000954,1102.4476999998094,1099.297799999714,1101.9314000000954,1102.9445999999048,1103.4445,1103.4445,1108.929599999905,4732.0,1108.929799999714,5.0,1108.9339000000955,2.0,8.0,68.0,19.0,1.0,1.6,0.7,Time
,,S05,1,女,20,anonymized,Serial_Dependence_U,2023.2.3,Win32,59.88023952095548,,,,,,1108.934099999905,3.0,2.0,1108.9341999998094,3.0,,,,1113.0780000000002,1113.575699999809,1112.5755999999049,1113.0780000000002,1109.9435,1112.5755999999049,1113.5759000000955,1114.074799999714,1114.0749000000956,1118.0766999998093,3315.0,1118.076799999714,5.0,1118.081,2.0,9.0,69.0,29.0,1.0,1.6,0.7,Time
,,S05,1,女,20,anonymized,Serial_Dependence_U,2023.2.3,Win32,59.88023952095548,,,,,,1118.081199999809,186.0,2.0,1118.081199999809,186.0,,,,1121.8249000000956,1122.3226999998094,1121.308799999714,1121.824799999714,1119.0761999998094,1121.3086999998095,1122.3226999998094,1122.8224000000955,1122.8225000000002,1127.2244000000956,3766.0,1127.2245,5.0,1127.228,2.0,10.0,70.0,27.0,1.0,1.2,0.7,Time
,,S05,1,女,20,anonymized,Serial_Dependence_U,2023.2.3,Win32,59.88023952095548,,,,,,1127.2281999998097,298.0,2.0,1127.228299999714,298.0,,,,1131.2229000000957,1131.719799999714,1130.706199999809,1131.222799999714,1128.2400999999047,1130.706199999809,1131.719799999714,1132.2199000000955,1132.22,1136.4885000000002,3749.0,1136.4885000000002,5.0,1136.4921999998094,2.0,11.0,71.0,23.0,1.0,1.4,0.3,Time
,,S05,1,女,20,anonymized,Serial_Dependence_U,2023.2.3,Win32,59.88023952095548,,,,,,1136.4925,52.0,2.0,1136.4925999999048,52.0,,,,1139.8371999998094,1140.334299999714,1139.3206999998094,1139.8370999999047,1137.4879000000956,1139.3205999999047,1140.334299999714,1140.834,1140.8340999999048,1144.936,3632.0,1144.936,5.0,1144.9396999998094,2.0,12.0,72.0,25.0,1.0,0.8,0.7,Time
,,S05,1,女,20,anonymized,Serial_Dependence_U,2023.2.3,Win32,59.88023952095548,,,,,,1144.939799999714,192.0,2.0,1144.94,192.0,,,,1148.3341999998097,1148.8319000000954,1147.818299999714,1148.3341999998097,1145.9520999999047,1147.8181999998094,1148.832,1149.3316999998094,1149.331799999714,1152.0505999999048,2342.0,1152.0505999999048,5.0,1152.0541999998095,2.0,13.0,73.0,20.0,1.0,0.8,0.3,Time
,,S05,1,女,20,anonymized,Serial_Dependence_U,2023.2.3,Win32,59.88023952095548,,,,,,1152.0545000000002,188.0,2.0,1152.054599999905,188.0,,,,1156.2300999999047,1156.729699999809,1155.7165999999047,1156.23,1153.0499000000957,1155.7165000000002,1156.729699999809,1157.2294000000954,1157.2294000000954,1162.0479000000955,4032.0,1162.0479000000955,5.0,1162.052,2.0,14.0,74.0,4.0,1.0,1.6,0.3,Time
,,S05,1,女,20,anonymized,Serial_Dependence_U,2023.2.3,Win32,59.88023952095548,,,,,,1162.052199999809,161.0,2.0,1162.052199999809,161.0,,,,1165.6131999998097,1166.1104000000955,1165.0965999999048,1165.6130999999048,1163.063799999714,1165.0965999999048,1166.1104000000955,1166.6101999998093,1166.610299999714,1170.3759000000955,3176.0,1170.3760000000002,5.0,1170.3804000000955,2.0,15.0,75.0,26.0,1.0,1.0,0.7,Time
,,S05,1,女,20,anonymized,Serial_Dependence_U,2023.2.3,Win32,59.88023952095548,,,,,,1170.3805999999047,284.0,2.0,1170.3805999999047,284.0,,,,1173.758699999809,1174.257799999714,1173.2451999998093,1173.7585999999048,1171.3780999999049,1173.2451999998093,1174.257799999714,1174.7579000000956,1174.7579000000956,1177.6769000000954,2516.0,1177.6769000000954,5.0,1177.681,2.0,16.0,76.0,0.0,1.0,0.8,0.3,Time
,,S05,1,女,20,anonymized,Serial_Dependence_U,2023.2.3,Win32,59.88023952095548,,,,,,1177.6811999998097,138.0,2.0,1177.6811999998097,138.0,,,,1181.6751999998094,1182.1724000000954,1181.1585999999047,1181.6751999998094,1178.6936999998095,1181.1585000000002,1182.1725,1182.6724000000954,1182.6725,1186.8574000000956,3649.0,1186.8574000000956,5.0,1186.8615000000002,2.0,17.0,77.0,13.0,1.0,1.4,0.3,Time
,,S05,1,女,20,anonymized,Serial_Dependence_U,2023.2.3,Win32,59.88023952095548,,,,,,1186.8616999998094,20.0,2.0,1186.8616999998094,20.0,,,,1190.406299999714,1190.903299999714,1189.8894000000955,1190.406299999714,1187.856799999714,1189.8894000000955,1190.9034000000954,1191.4035,1191.4035999999048,1196.1550000000002,4350.0,1196.1550000000002,5.0,1196.159,2.0,18.0,78.0,6.0,1.0,1.0,0.7,Time
,,S05,1,女,20,anonymized,Serial_Dependence_U,2023.2.3,Win32,59.88023952095548,,,,,,1196.1590999999048,96.0,2.0,1196.1591999998093,96.0,,,,1200.1370000000002,1200.6341999998094,1199.6365,1200.1369000000957,1197.170299999714,1199.6365,1200.6341999998094,1201.133799999714,1201.133799999714,1206.4520000000002,4197.0,1206.4520000000002,5.0,1206.4560999999048,2.0,19.0,79.0,3.0,1.0,1.4,0.3,Time
,,S05,1,女,20,anonymized,Serial_Dependence_U,2023.2.3,Win32,59.88023952095548,,,,,,1206.456199999809,89.0,2.0,1206.456199999809,89.0,,,,1210.415299999714,1210.9144000000956,1209.9005000000002,1210.4151999998094,1207.4674000000955,1209.9005000000002,1210.9144000000956,1211.4145,1211.4145,1215.433299999714,3399.0,1215.433299999714,5.0,1215.4374000000955,2.0,20.0,80.0,18.0,1.0,1.4,0.7,Time
,,S05,1,女,20,anonymized,Serial_Dependence_U,2023.2.3,Win32,59.88023952095548,,,,,,1215.4375000000002,326.0,2.0,1215.4376999998094,326.0,,,,1218.9810999999047,1219.4791999998097,1218.4655999999047,1218.9810000000002,1216.4326999998093,1218.4655,1219.4791999998097,1219.9790999999047,1219.9790999999047,1224.2980000000002,3800.0,1224.2980000000002,5.0,1224.3020999999048,2.0,21.0,81.0,16.0,1.0,1.0,0.7,Time
,,S05,1,女,20,anonymized,Serial_Dependence_U,2023.2.3,Win32,59.88023952095548,,,,,,1224.302299999714,143.0,2.0,1224.3024000000955,143.0,,,,1228.2459000000954,1228.742799999714,1227.7295999999048,1228.2459000000954,1225.2956999998094,1227.7295,1228.742799999714,1229.2425999999048,1229.2426999998097,1233.928,4263.0,1233.928,5.0,1233.9321999998094,2.0,22.0,82.0,28.0,1.0,1.4,0.7,Time
,,S05,1,女,20,anonymized,Serial_Dependence_U,2023.2.3,Win32,59.88023952095548,,,,,,1233.9324000000954,16.0,2.0,1233.9324000000954,16.0,,,,1237.7070999999048,1238.2065000000002,1237.1929000000955,1237.707,1234.927,1237.192799999714,1238.2065999999047,1238.7069000000954,1238.7069000000954,1243.3085,4149.0,1243.3085,5.0,1243.3125999999047,2.0,23.0,83.0,22.0,1.0,1.2,0.3,Time
,,S05,1,女,20,anonymized,Serial_Dependence_U,2023.2.3,Win32,59.88023952095548,,,,,,1243.3126999998094,326.0,2.0,1243.312799999714,326.0,,,,1246.6729000000955,1247.170799999714,1246.1570999999049,1246.6729000000955,1244.3225999999047,1246.1570000000002,1247.170799999714,1247.6705999999049,1247.6706999998094,1251.3395999999047,3149.0,1251.3395999999047,5.0,1251.3436999998094,2.0,24.0,84.0,5.0,1.0,0.8,0.7,Time
,,S05,1,女,20,anonymized,Serial_Dependence_U,2023.2.3,Win32,59.88023952095548,,,,,,1251.3439000000956,55.0,2.0,1251.344,55.0,,,,1255.3049000000956,1255.801799999714,1254.7880999999047,1255.304799999714,1252.3556999998093,1254.7880000000002,1255.801799999714,1256.302199999809,1256.302199999809,1259.720299999714,2965.0,1259.7204000000954,5.0,1259.7245999999047,2.0,25.0,85.0,8.0,1.0,1.4,0.7,Time
,,S05,1,女,20,anonymized,Serial_Dependence_U,2023.2.3,Win32,59.88023952095548,,,,,,1259.724799999714,272.0,2.0,1259.7249000000954,272.0,,,,1263.5000000000002,1263.9995999999048,1262.986,1263.5000000000002,1260.7195999999049,1262.9859000000954,1263.9995999999048,1264.499299999714,1264.499299999714,1268.7680999999047,3666.0,1268.7681999998094,5.0,1268.7721999998091,2.0,26.0,86.0,2.0,1.0,1.2,0.3,Time
,,S05,1,女,20,anonymized,Serial_Dependence_U,2023.2.3,Win32,59.88023952095548,,,,,,1268.772299999714,116.0,2.0,1268.7724000000956,116.0,,,,1272.1334000000954,1272.631,1271.6166999998095,1272.1334000000954,1269.7835999999047,1271.6165999999048,1272.6310999999048,1273.130299999714,1273.1304000000955,1277.0989000000957,3512.0,1277.0989000000957,5.0,1277.1030999999048,2.0,27.0,87.0,15.0,1.0,0.8,0.7,Time
,,S05,1,女,20,anonymized,Serial_Dependence_U,2023.2.3,Win32,59.88023952095548,,,,,,1277.1031999998097,243.0,2.0,1277.1031999998097,243.0,,,,1281.2805999999048,1281.778,1280.7644000000955,1281.2805999999048,1278.098299999714,1280.764299999714,1281.778,1282.278,1282.2780999999047,1286.363,3716.0,1286.363,5.0,1286.367099999905,2.0,28.0,88.0,14.0,1.0,1.6,0.3,Time
,,S05,1,女,20,anonymized,Serial_Dependence_U,2023.2.3,Win32,59.88023952095548,,,,,,1286.367299999714,164.0,2.0,1286.3674000000956,164.0,,,,1289.961299999714,1290.458799999714,1289.4459000000954,1289.961299999714,1287.3775,1289.4459000000954,1290.458799999714,1290.9610999999047,1290.9610999999047,1293.7284000000957,2400.0,1293.7285000000002,5.0,1293.7325,2.0,29.0,89.0,1.0,1.0,1.0,0.3,Time
,,S05,1,女,20,anonymized,Serial_Dependence_U,2023.2.3,Win32,59.88023952095548,,,,,,1293.7326999998097,1.0,3.0,1297.0956999998093,1.0,s,3.333400000095253,,1300.6585000000002,1301.155799999714,1300.1564000000956,1300.6585000000002,1298.093,1300.156299999714,1301.155799999714,1301.6555999999048,1301.6555999999048,1304.2746999998094,2133.0,1304.274799999714,5.0,1304.2785999999048,3.0,0.0,90.0,1.0,1.0,1.0,0.3,Time
,,S05,1,女,20,anonymized,Serial_Dependence_U,2023.2.3,Win32,59.88023952095548,,,,,,1304.2786999998093,353.0,3.0,1304.2795,353.0,,,,1308.2229000000957,1308.7204000000954,1307.706799999714,1308.2229000000957,1305.2720000000002,1307.706799999714,1308.7205,1309.2201999998094,1309.2201999998094,1313.3389000000957,3619.0,1313.3389000000957,5.0,1313.3429000000956,3.0,1.0,91.0,28.0,1.0,1.4,0.7,Time
,,S05,1,女,20,anonymized,Serial_Dependence_U,2023.2.3,Win32,59.88023952095548,,,,,,1313.3430999999048,277.0,3.0,1313.3430999999048,277.0,,,,1316.6725,1317.1680999999048,1316.1706999998094,1316.6724000000954,1314.3381999998094,1316.1706999998094,1317.1680999999048,1317.6676999998094,1317.667799999714,1321.736599999905,3383.0,1321.736599999905,5.0,1321.7405,3.0,2.0,92.0,5.0,1.0,0.8,0.7,Time
,,S05,1,女,20,anonymized,Serial_Dependence_U,2023.2.3,Win32,59.88023952095548,,,,,,1321.740799999714,255.0,3.0,1321.7409000000955,255.0,,,,1325.0676999998093,1325.5655999999049,1324.5665,1325.0676999998093,1322.735799999714,1324.5665,1325.5655999999049,1326.066,1326.066,1329.5841999998097,3066.0,1329.5841999998097,5.0,1329.5885,3.0,3.0,93.0,15.0,1.0,0.8,0.7,Time
,,S05,1,女,20,anonymized,Serial_Dependence_U,2023.2.3,Win32,59.88023952095548,,,,,,1329.5885999999048,6.0,3.0,1329.5886999998097,6.0,,,,1333.7805,1334.2796999998095,1333.2660999999048,1333.7805,1330.6006999998094,1333.266,1334.2796999998095,1334.7795999999048,1334.7795999999048,1338.2650999999048,2979.0,1338.2650999999048,5.0,1338.2694000000954,3.0,4.0,94.0,14.0,1.0,1.6,0.3,Time
,,S05,1,女,20,anonymized,Serial_Dependence_U,2023.2.3,Win32,59.88023952095548,,,,,,1338.2695999999048,92.0,3.0,1338.2696999998093,92.0,,,,1342.011299999714,1342.510799999714,1341.497299999714,1342.0111999998094,1339.2645000000002,1341.497299999714,1342.510799999714,1343.0106999998095,1343.0109000000955,1346.429599999905,2928.0,1346.4296999998094,5.0,1346.4336999998095,3.0,5.0,95.0,17.0,1.0,1.2,0.7,Time
,,S05,1,女,20,anonymized,Serial_Dependence_U,2023.2.3,Win32,59.88023952095548,,,,,,1346.4339000000955,49.0,3.0,1346.4339000000955,49.0,,,,1350.4114000000957,1350.9084000000955,1349.8945999999048,1350.4114000000957,1347.4289000000956,1349.8945,1350.9085000000002,1351.4084000000955,1351.4085000000002,1355.043799999714,3183.0,1355.043799999714,5.0,1355.0479000000955,3.0,6.0,96.0,13.0,1.0,1.4,0.3,Time
,,S05,1,女,20,anonymized,Serial_Dependence_U,2023.2.3,Win32,59.88023952095548,,,,,,1355.0480999999047,46.0,3.0,1355.0480999999047,46.0,,,,1358.4266999998094,1358.9234000000954,1357.9091999998093,1358.4265999999047,1356.0430999999048,1357.9090999999048,1358.9235,1359.4230000000002,1359.4230999999047,1364.2246999998094,4249.0,1364.2246999998094,5.0,1364.228799999714,3.0,7.0,97.0,20.0,1.0,0.8,0.3,Time
,,S05,1,女,20,anonymized,Serial_Dependence_U,2023.2.3,Win32,59.88023952095548,,,,,,1364.229,158.0,3.0,1364.229,158.0,,,,1367.9905,1368.487299999714,1367.4899000000955,1367.9905,1365.2241999998091,1367.489799999714,1368.487299999714,1368.9871999998095,1368.987299999714,1372.472299999714,3049.0,1372.472299999714,5.0,1372.4764000000955,3.0,8.0,98.0,2.0,1.0,1.2,0.3,Time
,,S05,1,女,20,anonymized,Serial_Dependence_U,2023.2.3,Win32,59.88023952095548,,,,,,1372.4766999998094,175.0,3.0,1372.4766999998094,175.0,,,,1376.0351999998095,1376.534799999714,1375.520799999714,1376.035,1373.4865000000002,1375.520799999714,1376.534799999714,1377.0349000000956,1377.0349000000956,1380.1534000000954,2666.0,1380.1534000000954,5.0,1380.1574000000955,3.0,9.0,99.0,26.0,1.0,1.0,0.7,Time
,,S05,1,女,20,anonymized,Serial_Dependence_U,2023.2.3,Win32,59.88023952095548,,,,,,1380.1575999999047,330.0,3.0,1380.1576999998094,330.0,,,,1384.1185999999047,1384.615799999714,1383.617099999905,1384.1185999999047,1381.152699999809,1383.6170000000002,1384.615799999714,1385.1155999999048,1385.1155999999048,1388.6845,3082.0,1388.6845,5.0,1388.6884000000955,3.0,10.0,100.0,23.0,1.0,1.4,0.3,Time
,,S05,1,女,20,anonymized,Serial_Dependence_U,2023.2.3,Win32,59.88023952095548,,,,,,1388.688599999905,127.0,3.0,1388.688599999905,127.0,,,,1392.8325999999047,1393.3299000000954,1392.3164000000954,1392.8325999999047,1389.6841999998094,1392.316299999714,1393.3299000000954,1393.829799999714,1393.829799999714,1397.931699999809,3083.0,1397.931799999714,5.0,1397.9354000000956,3.0,11.0,101.0,29.0,1.0,1.6,0.7,Time
,,S05,1,女,20,anonymized,Serial_Dependence_U,2023.2.3,Win32,59.88023952095548,,,,,,1397.9356999998097,196.0,3.0,1397.9356999998097,196.0,,,,1401.494799999714,1401.9946999998094,1400.9804000000954,1401.4945999999047,1398.948,1400.980299999714,1401.9946999998094,1402.494199999809,1402.494299999714,1407.0291999998094,4132.0,1407.029299999714,5.0,1407.033299999714,3.0,12.0,102.0,6.0,1.0,1.0,0.7,Time
,,S05,1,女,20,anonymized,Serial_Dependence_U,2023.2.3,Win32,59.88023952095548,,,,,,1407.0334000000955,65.0,3.0,1407.0335000000002,65.0,,,,1410.7954000000957,1411.2915,1410.2939000000954,1410.7954000000957,1408.0284000000954,1410.2939000000954,1411.2915999999047,1411.7914000000956,1411.7915,1417.2265000000002,4982.0,1417.2265999999047,5.0,1417.2306999998093,3.0,13.0,103.0,12.0,1.0,1.2,0.3,Time
,,S05,1,女,20,anonymized,Serial_Dependence_U,2023.2.3,Win32,59.88023952095548,,,,,,1417.230799999714,13.0,3.0,1417.2309000000955,13.0,,,,1420.9755000000002,1421.4720000000002,1420.4585000000002,1420.9754000000955,1418.2261999998093,1420.4585000000002,1421.4720000000002,1421.9725,1421.9725,1426.5239000000954,4159.0,1426.5239000000954,5.0,1426.528,3.0,14.0,104.0,7.0,1.0,1.2,0.7,Time
,,S05,1,女,20,anonymized,Serial_Dependence_U,2023.2.3,Win32,59.88023952095548,,,,,,1426.528299999714,73.0,3.0,1426.528299999714,73.0,,,,1429.9036999998093,1430.4031999998094,1429.3891999998093,1429.9036999998093,1427.522299999714,1429.3891999998093,1430.403299999714,1430.9029000000955,1430.9029000000955,1434.9220999999047,3550.0,1434.9221999998094,5.0,1434.9260999999049,3.0,15.0,105.0,10.0,1.0,0.8,0.3,Time
,,S05,1,女,20,anonymized,Serial_Dependence_U,2023.2.3,Win32,59.88023952095548,,,,,,1434.926299999714,337.0,3.0,1434.926299999714,337.0,,,,1438.8699000000954,1439.3671999998094,1438.3535999999049,1438.869799999714,1435.9199000000956,1438.3535000000002,1439.3671999998094,1439.866799999714,1439.8669000000957,1444.802,4466.0,1444.8020999999048,5.0,1444.8060999999047,3.0,16.0,106.0,8.0,1.0,1.4,0.7,Time
,,S05,1,女,20,anonymized,Serial_Dependence_U,2023.2.3,Win32,59.88023952095548,,,,,,1444.806299999714,44.0,3.0,1444.8064000000954,44.0,,,,1448.9510999999047,1449.4474000000955,1448.4350000000002,1448.9510999999047,1445.8005999999048,1448.4349000000957,1449.4474000000955,1449.9475999999047,1449.9476999998094,1454.2994000000956,4032.0,1454.2994000000956,5.0,1454.3035999999047,3.0,17.0,107.0,9.0,1.0,1.6,0.7,Time
,,S05,1,女,20,anonymized,Serial_Dependence_U,2023.2.3,Win32,59.88023952095548,,,,,,1454.3036999998094,197.0,3.0,1454.303799999714,197.0,,,,1458.2809000000957,1458.7781999998094,1457.7645000000002,1458.280799999714,1455.2969000000955,1457.7644000000955,1458.7781999998094,1459.278299999714,1459.278299999714,1464.097099999905,4449.0,1464.0971999998094,5.0,1464.1011999998093,3.0,18.0,108.0,3.0,1.0,1.4,0.3,Time
,,S05,1,女,20,anonymized,Serial_Dependence_U,2023.2.3,Win32,59.88023952095548,,,,,,1464.101299999714,290.0,3.0,1464.1014000000955,290.0,,,,1467.678799999714,1468.1760999999049,1467.1619000000956,1467.6786999998094,1465.095799999714,1467.161799999714,1468.1761999998091,1468.6755,1468.6755999999048,1472.6104000000955,3482.0,1472.6104000000955,5.0,1472.6144000000954,3.0,19.0,109.0,11.0,1.0,1.0,0.3,Time
,,S05,1,女,20,anonymized,Serial_Dependence_U,2023.2.3,Win32,59.88023952095548,,,,,,1472.6145999999048,223.0,3.0,1472.6145999999048,223.0,,,,1475.9765000000002,1476.4731999998094,1475.459,1475.9765000000002,1473.6274000000956,1475.4589000000956,1476.4731999998094,1476.9735999999048,1476.9736999998097,1481.2585999999048,3704.0,1481.2585999999048,5.0,1481.262799999714,3.0,20.0,110.0,25.0,1.0,0.8,0.7,Time
,,S05,1,女,20,anonymized,Serial_Dependence_U,2023.2.3,Win32,59.88023952095548,,,,,,1481.2629000000954,317.0,3.0,1481.263,317.0,,,,1484.8235000000002,1485.3209000000954,1484.3070999999047,1484.8235000000002,1482.257799999714,1484.3070000000002,1485.3209000000954,1485.8205999999047,1485.8205999999047,1489.7395999999048,3566.0,1489.739699999809,5.0,1489.7436999998097,3.0,21.0,111.0,16.0,1.0,1.0,0.7,Time
,,S05,1,女,20,anonymized,Serial_Dependence_U,2023.2.3,Win32,59.88023952095548,,,,,,1489.7439000000954,147.0,3.0,1489.744,147.0,,,,1493.4885999999049,1493.985,1492.9879000000956,1493.4885000000002,1490.7535,1492.987799999714,1493.985,1494.485,1494.4850999999048,1498.7871999998094,3783.0,1498.787299999714,5.0,1498.7919000000954,3.0,22.0,112.0,27.0,1.0,1.2,0.7,Time
,,S05,1,女,20,anonymized,Serial_Dependence_U,2023.2.3,Win32,59.88023952095548,,,,,,1498.792,44.0,3.0,1498.792199999809,44.0,,,,1502.1689000000954,1502.6660999999049,1501.6525,1502.1689000000954,1499.7864000000957,1501.6525,1502.6660999999049,1503.165799999714,1503.1659000000957,1507.584299999714,3616.0,1507.5844000000957,5.0,1507.5885,3.0,23.0,113.0,0.0,1.0,0.8,0.3,Time
,,S05,1,女,20,anonymized,Serial_Dependence_U,2023.2.3,Win32,59.88023952095548,,,,,,1507.5886999998097,22.0,3.0,1507.588799999714,22.0,,,,1511.3665999999048,1511.8635000000002,1510.8490999999049,1511.3665,1508.5844000000957,1510.8489000000957,1511.8635000000002,1512.3635999999049,1512.3636999998091,1517.281799999714,3815.0,1517.2819000000954,5.0,1517.2859000000956,3.0,24.0,114.0,22.0,1.0,1.2,0.3,Time
,,S05,1,女,20,anonymized,Serial_Dependence_U,2023.2.3,Win32,59.88023952095548,,,,,,1517.2860999999048,335.0,3.0,1517.2860999999048,335.0,,,,1521.479799999714,1521.9776999998094,1520.9635999999048,1521.479799999714,1518.2975999999048,1520.9635,1521.977799999714,1522.4776999998094,1522.4776999998094,1527.4469000000954,4447.0,1527.4469000000954,5.0,1527.450799999714,3.0,25.0,115.0,4.0,1.0,1.6,0.3,Time
,,S05,1,女,20,anonymized,Serial_Dependence_U,2023.2.3,Win32,59.88023952095548,,,,,,1527.451,34.0,3.0,1527.451,34.0,,,,1531.0111999998094,1531.5085,1530.510799999714,1531.011099999905,1528.444799999714,1530.5106999998095,1531.5085,1532.0079000000956,1532.008,1536.409599999905,3731.0,1536.409599999905,5.0,1536.4131999998094,3.0,26.0,116.0,21.0,1.0,1.0,0.3,Time
,,S05,1,女,20,anonymized,Serial_Dependence_U,2023.2.3,Win32,59.88023952095548,,,,,,1536.4134000000954,265.0,3.0,1536.4135,265.0,,,,1540.3761999998094,1540.8720999999048,1539.8594000000955,1540.3761999998094,1537.409,1539.8594000000955,1540.8721999998097,1541.3719000000956,1541.372,1547.0066999998094,4582.0,1547.0066999998094,5.0,1547.0101999998094,3.0,27.0,117.0,18.0,1.0,1.4,0.7,Time
,,S05,1,女,20,anonymized,Serial_Dependence_U,2023.2.3,Win32,59.88023952095548,,,,,,1547.010299999714,75.0,3.0,1547.0104000000954,75.0,,,,1551.1881999998093,1551.6855999999048,1550.671799999714,1551.1881999998093,1548.0061999998095,1550.671799999714,1551.6855999999048,1552.185799999714,1552.185799999714,1555.7209000000955,3017.0,1555.7210000000002,5.0,1555.7250999999048,3.0,28.0,118.0,24.0,1.0,1.6,0.3,Time
,,S05,1,女,20,anonymized,Serial_Dependence_U,2023.2.3,Win32,59.88023952095548,,,,,,1555.725199999809,58.0,3.0,1555.725299999714,58.0,,,,1559.8699000000954,1560.3666999998095,1559.352799999714,1559.8699000000954,1556.72,1559.352799999714,1560.3666999998095,1560.8665999999048,1560.8666999998095,1565.0849000000956,3666.0,1565.085,5.0,1565.0890000000002,3.0,29.0,119.0,19.0,1.0,1.6,0.7,Time
,,S05,1,女,20,anonymized,Serial_Dependence_U,2023.2.3,Win32,59.88023952095548,,,,,,1565.0891999998094,114.0,4.0,1824.6631999998092,114.0,s,259.5441999998093,,1828.810799999714,1829.3079000000955,1828.294299999714,1828.810799999714,1825.6615999999049,1828.294299999714,1829.308,1829.808,1829.808,1834.9425,4399.0,1834.9425999999048,5.0,1834.9464000000955,4.0,0.0,120.0,29.0,1.0,1.6,0.7,Time
,,S05,1,女,20,anonymized,Serial_Dependence_U,2023.2.3,Win32,59.88023952095548,,,,,,1834.9465999999047,211.0,4.0,1834.9479000000956,211.0,,,,1838.322799999714,1838.8219000000956,1837.806,1838.3225999999047,1835.941299999714,1837.805900000096,1838.822,1839.3216999998092,1839.3216999998092,1843.2735999999047,3399.0,1843.2735999999047,5.0,1843.2775999999049,4.0,1.0,121.0,10.0,1.0,0.8,0.3,Time
,,S05,1,女,20,anonymized,Serial_Dependence_U,2023.2.3,Win32,59.88023952095548,,,,,,1843.2779000000955,76.0,4.0,1843.2779000000955,76.0,,,,1847.2555,1847.7525999999048,1846.738900000096,1847.2555,1844.271,1846.738900000096,1847.7525999999048,1848.2526999998092,1848.252799999714,1852.2884000000956,3566.0,1852.2884000000956,5.0,1852.2925,4.0,2.0,122.0,3.0,1.0,1.4,0.3,Time
,,S05,1,女,20,anonymized,Serial_Dependence_U,2023.2.3,Win32,59.88023952095548,,,,,,1852.2926999998092,215.0,4.0,1852.292799999714,215.0,,,,1856.4695999999049,1856.9666999998092,1855.952799999714,1856.4695,1853.2875,1855.952799999714,1856.9666999998092,1857.4670999999048,1857.4670999999048,1861.5355,3583.0,1861.5355,5.0,1861.5395999999048,4.0,3.0,123.0,24.0,1.0,1.6,0.3,Time
,,S05,1,女,20,anonymized,Serial_Dependence_U,2023.2.3,Win32,59.88023952095548,,,,,,1861.539799999714,76.0,4.0,1861.539799999714,76.0,,,,1865.3150999999048,1865.8145999999049,1864.800799999714,1865.315,1862.5344000000955,1864.800799999714,1865.8145999999049,1866.3140999999048,1866.3140999999048,1870.6330999999047,3774.0,1870.6330999999047,5.0,1870.6371999998091,4.0,4.0,124.0,22.0,1.0,1.2,0.3,Time
,,S05,1,女,20,anonymized,Serial_Dependence_U,2023.2.3,Win32,59.88023952095548,,,,,,1870.637299999714,77.0,4.0,1870.637400000096,77.0,,,,1874.1976999998092,1874.695,1873.679299999714,1874.1976999998092,1871.646400000096,1873.679299999714,1874.695,1875.1949000000957,1875.1949000000957,1879.1966999998092,3432.0,1879.196799999714,5.0,1879.2009000000955,4.0,5.0,125.0,6.0,1.0,1.0,0.7,Time
,,S05,1,女,20,anonymized,Serial_Dependence_U,2023.2.3,Win32,59.88023952095548,,,,,,1879.2010999999047,144.0,4.0,1879.2010999999047,144.0,,,,1883.3430999999048,1883.8425,1882.8289000000957,1883.343,1880.196199999809,1882.828799999714,1883.842599999905,1884.342599999905,1884.3426999998092,1888.9610999999047,4099.0,1888.9610999999047,5.0,1888.965199999809,4.0,6.0,126.0,19.0,1.0,1.6,0.7,Time
,,S05,1,女,20,anonymized,Serial_Dependence_U,2023.2.3,Win32,59.88023952095548,,,,,,1888.9654000000955,136.0,4.0,1888.9654000000955,136.0,,,,1893.1425,1893.6396999998092,1892.626299999714,1893.1424000000957,1889.960299999714,1892.626299999714,1893.639799999714,1894.1396999998092,1894.1396999998092,1898.3250999999048,3582.0,1898.3250999999048,5.0,1898.3291999998091,4.0,7.0,127.0,4.0,1.0,1.6,0.3,Time
,,S05,1,女,20,anonymized,Serial_Dependence_U,2023.2.3,Win32,59.88023952095548,,,,,,1898.329400000096,242.0,4.0,1898.329400000096,242.0,,,,1901.671299999714,1902.1705999999049,1901.1570999999049,1901.6711999998092,1899.3241999998093,1901.1569000000957,1902.1706999998091,1902.670799999714,1902.670799999714,1906.622799999714,3038.0,1906.622799999714,5.0,1906.6269000000957,4.0,8.0,128.0,15.0,1.0,0.8,0.7,Time
,,S05,1,女,20,anonymized,Serial_Dependence_U,2023.2.3,Win32,59.88023952095548,,,,,,1906.627,358.0,4.0,1906.627,358.0,,,,1910.2041999998091,1910.701799999714,1909.689,1910.2041999998091,1907.6206999998092,1909.689,1910.701799999714,1911.2015,1911.2015999999048,1914.353900000096,2733.0,1914.353900000096,5.0,1914.3580999999049,4.0,9.0,129.0,21.0,1.0,1.0,0.3,Time
,,S05,1,女,20,anonymized,Serial_Dependence_U,2023.2.3,Win32,59.88023952095548,,,,,,1914.3581999998091,160.0,4.0,1914.358299999714,160.0,,,,1917.935799999714,1918.4329000000955,1917.4195,1917.9356999998092,1915.3535999999049,1917.4195,1918.433,1918.933299999714,1918.9334000000956,1922.652,3215.0,1922.652,5.0,1922.6560999999049,4.0,10.0,130.0,1.0,1.0,1.0,0.3,Time
,,S05,1,女,20,anonymized,Serial_Dependence_U,2023.2.3,Win32,59.88023952095548,,,,,,1922.656299999714,225.0,4.0,1922.656400000096,225.0,,,,1926.8325,1927.330299999714,1926.3170999999047,1926.8325,1923.6681999998093,1926.317,1927.330299999714,1927.8300999999049,1927.830199999809,1931.8489000000957,3532.0,1931.8489000000957,5.0,1931.853,4.0,11.0,131.0,9.0,1.0,1.6,0.7,Time
,,S05,1,女,20,anonymized,Serial_Dependence_U,2023.2.3,Win32,59.88023952095548,,,,,,1931.8530999999048,85.0,4.0,1931.8530999999048,85.0,,,,1935.231799999714,1935.728,1934.714400000096,1935.2316999998093,1932.8649000000955,1934.714299999714,1935.728,1936.2290999999047,1936.2290999999047,1939.263299999714,2533.0,1939.263299999714,5.0,1939.2674000000957,4.0,12.0,132.0,5.0,1.0,0.8,0.7,Time
,,S05,1,女,20,anonymized,Serial_Dependence_U,2023.2.3,Win32,59.88023952095548,,,,,,1939.2675999999049,67.0,4.0,1939.267699999809,67.0,,,,1943.2445,1943.742400000096,1942.728900000096,1943.2445,1940.2620999999049,1942.728799999714,1943.742400000096,1944.2425999999048,1944.242799999714,1947.6776999998092,3000.0,1947.6776999998092,5.0,1947.681699999809,4.0,13.0,133.0,23.0,1.0,1.4,0.3,Time
,,S05,1,女,20,anonymized,Serial_Dependence_U,2023.2.3,Win32,59.88023952095548,,,,,,1947.682,281.0,4.0,1947.682,281.0,,,,1951.2575,1951.756799999714,1950.7431999998091,1951.2574000000957,1948.6770999999048,1950.7430999999049,1951.756799999714,1952.256599999905,1952.256599999905,1956.2264000000955,3517.0,1956.2264000000955,5.0,1956.2304000000956,4.0,14.0,134.0,11.0,1.0,1.0,0.3,Time
,,S05,1,女,20,anonymized,Serial_Dependence_U,2023.2.3,Win32,59.88023952095548,,,,,,1956.2305,335.0,4.0,1956.2305999999048,335.0,,,,1959.9739000000957,1960.4715,1959.457299999714,1959.9739000000957,1957.2249000000957,1959.4571999998093,1960.4715,1960.9709000000955,1960.971,1963.973,2596.0,1963.973,5.0,1963.9770999999048,4.0,15.0,135.0,27.0,1.0,1.2,0.7,Time
,,S05,1,女,20,anonymized,Serial_Dependence_U,2023.2.3,Win32,59.88023952095548,,,,,,1963.977299999714,44.0,4.0,1963.9774000000957,44.0,,,,1967.9215999999049,1968.419,1967.405299999714,1967.9215999999049,1964.9726999998093,1967.4051999998092,1968.419,1968.9186999998092,1968.9186999998092,1972.954,3476.0,1972.9540999999049,5.0,1972.9581999998093,4.0,16.0,136.0,18.0,1.0,1.4,0.7,Time
,,S05,1,女,20,anonymized,Serial_Dependence_U,2023.2.3,Win32,59.88023952095548,,,,,,1972.958299999714,94.0,4.0,1972.9584000000957,94.0,,,,1976.7025999999048,1977.199799999714,1976.1855,1976.7025,1973.9535999999048,1976.185400000096,1977.199799999714,1977.699900000096,1977.699900000096,1981.585299999714,3383.0,1981.585299999714,5.0,1981.5890999999049,4.0,17.0,137.0,7.0,1.0,1.2,0.7,Time
,,S05,1,女,20,anonymized,Serial_Dependence_U,2023.2.3,Win32,59.88023952095548,,,,,,1981.589400000096,317.0,4.0,1981.589400000096,317.0,,,,1985.5505999999048,1986.0471999998092,1985.0501999998091,1985.5505,1982.5841999998092,1985.050099999905,1986.0471999998092,1986.547,1986.547,1990.599299999714,3682.0,1990.599299999714,5.0,1990.602799999714,4.0,18.0,138.0,13.0,1.0,1.4,0.3,Time
,,S05,1,女,20,anonymized,Serial_Dependence_U,2023.2.3,Win32,59.88023952095548,,,,,,1990.603,135.0,4.0,1990.6030999999048,135.0,,,,1993.9480999999048,1994.445,1993.4476999998092,1993.9480999999048,1991.6156999998093,1993.4476999998092,1994.4450999999049,1994.944799999714,1994.944799999714,1998.7135999999048,3283.0,1998.7136999998093,5.0,1998.7176999998092,4.0,19.0,139.0,25.0,1.0,0.8,0.7,Time
,,S05,1,女,20,anonymized,Serial_Dependence_U,2023.2.3,Win32,59.88023952095548,,,,,,1998.717900000096,176.0,4.0,1998.718,176.0,,,,2002.0930999999048,2002.5930999999048,2001.5789000000957,2002.0930999999048,1999.7129000000955,2001.5789000000957,2002.5930999999048,2003.0924000000955,2003.0925,2005.595,2074.0,2005.5950999999047,5.0,2005.5989000000957,4.0,20.0,140.0,0.0,1.0,0.8,0.3,Time
,,S05,1,女,20,anonymized,Serial_Dependence_U,2023.2.3,Win32,59.88023952095548,,,,,,2005.599,46.0,4.0,2005.5990999999049,46.0,,,,2009.7765999999049,2010.274,2009.2599000000955,2009.7765999999049,2006.594,2009.2599000000955,2010.274,2010.773799999714,2010.7739000000956,2013.8425,2615.0,2013.8425,5.0,2013.8465999999048,4.0,21.0,141.0,14.0,1.0,1.6,0.3,Time
,,S05,1,女,20,anonymized,Serial_Dependence_U,2023.2.3,Win32,59.88023952095548,,,,,,2013.8466999998093,278.0,4.0,2013.846799999714,278.0,,,,2017.3744000000956,2017.871599999905,2016.8739000000955,2017.374299999714,2014.8416999998092,2016.8739000000955,2017.871599999905,2018.371599999905,2018.371599999905,2022.273199999809,3415.0,2022.273199999809,5.0,2022.2771999998092,4.0,22.0,142.0,16.0,1.0,1.0,0.7,Time
,,S05,1,女,20,anonymized,Serial_Dependence_U,2023.2.3,Win32,59.88023952095548,,,,,,2022.2774000000957,138.0,4.0,2022.2775,138.0,,,,2026.2219000000955,2026.7191999998088,2025.7045999999048,2026.2219000000955,2023.2726999998088,2025.7045,2026.7191999998088,2027.2195,2027.2195,2030.2380999999048,2667.0,2030.2380999999048,5.0,2030.2422999997136,4.0,23.0,143.0,8.0,1.0,1.4,0.7,Time
,,S05,1,女,20,anonymized,Serial_Dependence_U,2023.2.3,Win32,59.88023952095548,,,,,,2030.2425,93.0,4.0,2030.2425999999043,93.0,,,,2033.803199999809,2034.3005999999048,2033.287,2033.803199999809,2031.2540999999044,2033.2869000000956,2034.3005999999048,2034.8001999998091,2034.8001999998091,2037.8689000000952,2650.0,2037.8689000000952,5.0,2037.8729000000951,4.0,24.0,144.0,26.0,1.0,1.0,0.7,Time
,,S05,1,女,20,anonymized,Serial_Dependence_U,2023.2.3,Win32,59.88023952095548,,,,,,2037.8731999998088,186.0,4.0,2037.8731999998088,186.0,,,,2041.6320999999043,2042.1314000000957,2041.1179000000957,2041.632,2038.885199999809,2041.1177999997135,2042.1315,2042.6315999999044,2042.6315999999044,2045.9334000000952,2716.0,2045.9334000000952,5.0,2045.937400000095,4.0,25.0,145.0,17.0,1.0,1.2,0.7,Time
,,S05,1,女,20,anonymized,Serial_Dependence_U,2023.2.3,Win32,59.88023952095548,,,,,,2045.9376999998087,282.0,4.0,2045.9376999998087,282.0,,,,2049.880199999809,2050.379199999809,2049.3651999998087,2049.8800999999044,2046.9315,2049.3651999998087,2050.379199999809,2050.8795,2050.8795999999043,2054.5644999999995,3232.0,2054.5644999999995,5.0,2054.568599999904,4.0,26.0,146.0,28.0,1.0,1.4,0.7,Time
,,S05,1,女,20,anonymized,Serial_Dependence_U,2023.2.3,Win32,59.88023952095548,,,,,,2054.568699999809,225.0,4.0,2054.568799999713,225.0,,,,2057.944199999809,2058.444099999904,2057.4297999997134,2057.944099999904,2055.563900000095,2057.4297999997134,2058.444199999809,2058.943699999809,2058.943699999809,2062.912,3466.0,2062.912,5.0,2062.916199999809,4.0,27.0,147.0,20.0,1.0,0.8,0.3,Time
,,S05,1,女,20,anonymized,Serial_Dependence_U,2023.2.3,Win32,59.88023952095548,,,,,,2062.9165,7.0,4.0,2062.9165,7.0,,,,2066.677299999714,2067.1745,2066.1755999999045,2066.677199999809,2063.9115,2066.1755,2067.1745,2067.6745999999043,2067.6745999999043,2070.493400000095,2483.0,2070.493400000095,5.0,2070.4974999999995,4.0,28.0,148.0,12.0,1.0,1.2,0.3,Time
,,S05,1,女,20,anonymized,Serial_Dependence_U,2023.2.3,Win32,59.88023952095548,,,,,,2070.497699999809,69.0,4.0,2070.4977999997136,69.0,,,,2074.275199999809,2074.7722999997136,2073.758599999904,2074.2750999999043,2071.490900000095,2073.7584999999995,2074.7722999997136,2075.272400000095,2075.272400000095,2078.6576999998088,3033.0,2078.6576999998088,5.0,2078.6617999997134,4.0,29.0,149.0,2.0,1.0,1.2,0.3,Time
,,S05,1,女,20,anonymized,Serial_Dependence_U,2023.2.3,Win32,59.88023952095548,,,,,,2078.662,307.0,5.0,2080.9042999997137,307.0,s,2.219300000190742,,2084.488900000095,2084.986199999809,2083.9725,2084.488900000095,2081.9062999997136,2083.9725,2084.986299999713,2085.485900000095,2085.486,2088.505,2783.0,2088.505,5.0,2088.5090999999043,5.0,0.0,150.0,11.0,1.0,1.0,0.3,Time
,,S05,1,女,20,anonymized,Serial_Dependence_U,2023.2.3,Win32,59.88023952095548,,,,,,2088.509400000095,331.0,5.0,2088.5100999999045,331.0,,,,2092.285099999904,2092.784,2091.770199999809,2092.285,2089.504199999809,2091.770099999904,2092.784,2093.2840999999044,2093.2840999999044,2097.899400000095,4158.0,2097.8994999999995,5.0,2097.903900000095,5.0,1.0,151.0,22.0,1.0,1.2,0.3,Time
,,S05,1,女,20,anonymized,Serial_Dependence_U,2023.2.3,Win32,59.88023952095548,,,,,,2097.904099999904,339.0,5.0,2097.904199999809,339.0,,,,2101.6514000000952,2102.148199999809,2101.1355,2101.651199999809,2098.901199999809,2101.135400000095,2102.148199999809,2102.648,2102.648,2106.799900000095,3483.0,2106.799900000095,5.0,2106.804,5.0,2.0,152.0,7.0,1.0,1.2,0.7,Time
,,S05,1,女,20,anonymized,Serial_Dependence_U,2023.2.3,Win32,59.88023952095548,,,,,,2106.804199999809,89.0,5.0,2106.804199999809,89.0,,,,2110.5652999997137,2111.0625999999043,2110.0481999998087,2110.565199999809,2107.816299999713,2110.0480999999045,2111.0625999999043,2111.561900000095,2111.561900000095,2121.1292999997136,3299.0,2121.1292999997136,5.0,2121.1334999999995,5.0,3.0,153.0,17.0,1.0,1.2,0.7,Time
,,S05,1,女,20,anonymized,Serial_Dependence_U,2023.2.3,Win32,59.88023952095548,,,,,,2121.133599999904,123.0,5.0,2121.133699999809,123.0,,,,2124.911,2125.408199999809,2124.394799999713,2124.910900000095,2122.1277999997137,2124.394799999713,2125.4082999997136,2125.9085999999043,2125.908699999809,2129.61,3080.0,2129.61,5.0,2129.614,5.0,4.0,154.0,12.0,1.0,1.2,0.3,Time
,,S05,1,女,20,anonymized,Serial_Dependence_U,2023.2.3,Win32,59.88023952095548,,,,,,2129.614199999809,136.0,5.0,2129.6142999997137,136.0,,,,2133.175400000095,2133.673,2132.658900000095,2133.1752999997134,2130.6255,2132.658900000095,2133.673,2134.172699999809,2134.172799999714,2137.274599999904,2666.0,2137.274599999904,5.0,2137.278900000095,5.0,5.0,155.0,6.0,1.0,1.0,0.7,Time
,,S05,1,女,20,anonymized,Serial_Dependence_U,2023.2.3,Win32,59.88023952095548,,,,,,2137.279099999904,220.0,5.0,2137.279099999904,220.0,,,,2141.021,2141.5205999999043,2140.5067999997136,2141.020900000095,2138.273900000095,2140.506699999809,2141.520699999809,2142.020099999904,2142.020099999904,2145.289699999809,2733.0,2145.289699999809,5.0,2145.293799999713,5.0,6.0,156.0,27.0,1.0,1.2,0.7,Time
,,S05,1,女,20,anonymized,Serial_Dependence_U,2023.2.3,Win32,59.88023952095548,,,,,,2145.294,33.0,5.0,2145.294099999904,33.0,,,,2149.454400000095,2149.9512999997137,2148.9374999999995,2149.4542999997134,2146.2885,2148.9374999999995,2149.9512999997137,2150.4510999999043,2150.4510999999043,2153.636699999809,2766.0,2153.6367999997137,5.0,2153.6410999999043,5.0,7.0,157.0,29.0,1.0,1.6,0.7,Time
,,S05,1,女,20,anonymized,Serial_Dependence_U,2023.2.3,Win32,59.88023952095548,,,,,,2153.6412999997137,125.0,5.0,2153.6412999997137,125.0,,,,2157.585400000095,2158.084099999904,2157.068699999809,2157.5852999997137,2154.635799999713,2157.068599999904,2158.084099999904,2158.5824999999995,2158.5824999999995,2163.167400000095,3916.0,2163.167400000095,5.0,2163.171299999713,5.0,8.0,158.0,8.0,1.0,1.4,0.7,Time
,,S05,1,女,20,anonymized,Serial_Dependence_U,2023.2.3,Win32,59.88023952095548,,,,,,2163.1714999999995,181.0,5.0,2163.171599999904,181.0,,,,2166.5325,2167.029900000095,2166.0160999999043,2166.5325,2164.182699999809,2166.016,2167.029900000095,2167.5297999997138,2167.5297999997138,2172.781400000095,4449.0,2172.7815,5.0,2172.785,5.0,9.0,159.0,15.0,1.0,0.8,0.7,Time
,,S05,1,女,20,anonymized,Serial_Dependence_U,2023.2.3,Win32,59.88023952095548,,,,,,2172.785199999809,313.0,5.0,2172.785299999713,313.0,,,,2176.7467999997134,2177.244,2176.245900000095,2176.746699999809,2173.7809999999995,2176.2457999997137,2177.244,2177.7435,2177.7435,2181.795900000095,3597.0,2181.795900000095,5.0,2181.8,5.0,10.0,160.0,23.0,1.0,1.4,0.3,Time
,,S05,1,女,20,anonymized,Serial_Dependence_U,2023.2.3,Win32,59.88023952095548,,,,,,2181.800199999809,109.0,5.0,2181.800199999809,109.0,,,,2185.377400000095,2185.875199999809,2184.8589999999995,2185.377400000095,2182.794900000095,2184.858900000095,2185.8752999997137,2186.374400000095,2186.374400000095,2191.610400000095,4516.0,2191.610400000095,5.0,2191.6145,5.0,11.0,161.0,21.0,1.0,1.0,0.3,Time
,,S05,1,女,20,anonymized,Serial_Dependence_U,2023.2.3,Win32,59.88023952095548,,,,,,2191.614699999809,246.0,5.0,2191.614900000095,246.0,,,,2194.958199999809,2195.4555999999043,2194.4420999999043,2194.9580999999043,2192.608799999713,2194.4420999999043,2195.4555999999043,2195.955400000095,2195.955400000095,2199.340400000095,3082.0,2199.3405,5.0,2199.3445,5.0,12.0,162.0,5.0,1.0,0.8,0.7,Time
,,S05,1,女,20,anonymized,Serial_Dependence_U,2023.2.3,Win32,59.88023952095548,,,,,,2199.344699999809,204.0,5.0,2199.3447999997134,204.0,,,,2202.7057999997137,2203.2037999997137,2202.203699999809,2202.705699999809,2200.3400999999044,2202.2035999999043,2203.203900000095,2203.702799999713,2203.702799999713,2207.5385,3366.0,2207.5385999999044,5.0,2207.542699999809,5.0,13.0,163.0,0.0,1.0,0.8,0.3,Time
,,S05,1,女,20,anonymized,Serial_Dependence_U,2023.2.3,Win32,59.88023952095548,,,,,,2207.542900000095,317.0,5.0,2207.542900000095,317.0,,,,2210.918,2211.4177999997137,2210.403900000095,2210.917900000095,2208.536900000095,2210.4037999997136,2211.4177999997137,2211.9172999997136,2211.917400000095,2215.886099999904,3232.0,2215.886099999904,5.0,2215.89,5.0,14.0,164.0,20.0,1.0,0.8,0.3,Time
,,S05,1,女,20,anonymized,Serial_Dependence_U,2023.2.3,Win32,59.88023952095548,,,,,,2215.890199999809,45.0,5.0,2215.890299999713,45.0,,,,2219.865400000095,2220.364900000095,2219.351299999714,2219.865299999713,2216.8851999998087,2219.351199999809,2220.365,2220.864799999714,2220.864799999714,2224.133299999713,3244.0,2224.133400000095,5.0,2224.1375,5.0,15.0,165.0,3.0,1.0,1.4,0.3,Time
,,S05,1,女,20,anonymized,Serial_Dependence_U,2023.2.3,Win32,59.88023952095548,,,,,,2224.1375999999045,45.0,5.0,2224.137699999809,45.0,,,,2228.0979000000957,2228.5959999999995,2227.5965,2228.0979000000957,2225.132199999809,2227.596400000095,2228.5960999999043,2229.095699999809,2229.095699999809,2237.5965999999044,3032.0,2237.596699999809,5.0,2237.600699999809,5.0,16.0,166.0,13.0,1.0,1.4,0.3,Time
,,S05,1,女,20,anonymized,Serial_Dependence_U,2023.2.3,Win32,59.88023952095548,,,,,,2237.600900000095,132.0,5.0,2237.600900000095,132.0,,,,2241.778900000095,2242.2752999997138,2241.2615,2241.7787999997136,2238.5957999997136,2241.2615,2242.2752999997138,2242.7757999997134,2242.7757999997134,2246.044699999809,2617.0,2246.044699999809,5.0,2246.048900000095,5.0,17.0,167.0,4.0,1.0,1.6,0.3,Time
,,S05,1,女,20,anonymized,Serial_Dependence_U,2023.2.3,Win32,59.88023952095548,,,,,,2246.049099999904,337.0,5.0,2246.049099999904,337.0,,,,2250.240799999713,2250.74,2249.726,2250.240699999809,2247.0599999999995,2249.726,2250.74,2251.239900000095,2251.24,2254.991699999809,2907.0,2254.991699999809,5.0,2254.9957999997137,5.0,18.0,168.0,24.0,1.0,1.6,0.3,Time
,,S05,1,女,20,anonymized,Serial_Dependence_U,2023.2.3,Win32,59.88023952095548,,,,,,2254.996,145.0,5.0,2254.9960999999043,145.0,,,,2258.557599999904,2259.0545999999044,2258.056199999809,2258.5575,2255.9915999999043,2258.056199999809,2259.0545999999044,2259.553900000095,2259.553900000095,2263.689599999904,3488.0,2263.689599999904,5.0,2263.6930999999045,5.0,19.0,169.0,1.0,1.0,1.0,0.3,Time
,,S05,1,女,20,anonymized,Serial_Dependence_U,2023.2.3,Win32,59.88023952095548,,,,,,2263.6932999997134,258.0,5.0,2263.693400000095,258.0,,,,2267.2355999999045,2267.7355,2266.7212999997137,2267.2355,2264.689099999904,2266.721199999809,2267.7355,2268.235400000095,2268.235400000095,2272.321099999904,3433.0,2272.321199999809,5.0,2272.325199999809,5.0,20.0,170.0,16.0,1.0,1.0,0.7,Time
,,S05,1,女,20,anonymized,Serial_Dependence_U,2023.2.3,Win32,59.88023952095548,,,,,,2272.325400000095,321.0,5.0,2272.325400000095,321.0,,,,2275.8679999999995,2276.3659999999995,2275.3524999999995,2275.8679999999995,2273.3195,2275.3524000000957,2276.3659999999995,2276.865799999713,2276.865799999713,2298.0795,3874.0,2298.0795,5.0,2298.0835999999044,5.0,21.0,171.0,26.0,1.0,1.0,0.7,Time
,,S05,1,女,20,anonymized,Serial_Dependence_U,2023.2.3,Win32,59.88023952095548,,,,,,2298.0837999997134,333.0,5.0,2298.0837999997134,333.0,,,,2302.0122999997134,2302.508599999904,2301.5105,2302.0122999997134,2299.0782999997136,2301.5105,2302.508599999904,2303.008400000095,2303.0084999999995,2307.327,3614.0,2307.3270999999045,5.0,2307.3310999999044,5.0,22.0,172.0,18.0,1.0,1.4,0.7,Time
,,S05,1,女,20,anonymized,Serial_Dependence_U,2023.2.3,Win32,59.88023952095548,,,,,,2307.331299999714,352.0,5.0,2307.331400000095,352.0,,,,2311.508299999713,2312.0064999999995,2310.992400000095,2311.508299999713,2308.326699999809,2310.992400000095,2312.0064999999995,2312.505900000095,2312.505900000095,2316.674699999809,3583.0,2316.674699999809,5.0,2316.678599999904,5.0,23.0,173.0,14.0,1.0,1.6,0.3,Time
,,S05,1,女,20,anonymized,Serial_Dependence_U,2023.2.3,Win32,59.88023952095548,,,,,,2316.6787999997136,104.0,5.0,2316.6787999997136,104.0,,,,2320.8392999997136,2321.336599999904,2320.322900000095,2320.8392999997136,2317.690199999809,2320.3226999998087,2321.336699999809,2321.836400000095,2321.8365,2326.121699999809,3816.0,2326.1217999997134,5.0,2326.1257999997138,5.0,24.0,174.0,9.0,1.0,1.6,0.7,Time
,,S05,1,女,20,anonymized,Serial_Dependence_U,2023.2.3,Win32,59.88023952095548,,,,,,2326.126,150.0,5.0,2326.126,150.0,,,,2330.0877999997138,2330.584599999904,2329.570400000095,2330.087699999809,2327.1210999999043,2329.5702999997134,2330.584599999904,2331.083900000095,2331.084,2334.7702999997136,3112.0,2334.7702999997136,5.0,2334.774199999809,5.0,25.0,175.0,28.0,1.0,1.4,0.7,Time
,,S05,1,女,20,anonymized,Serial_Dependence_U,2023.2.3,Win32,59.88023952095548,,,,,,2334.774400000095,255.0,5.0,2334.7744999999995,255.0,,,,2338.1179000000952,2338.615699999809,2337.6015999999045,2338.117799999713,2335.7667999997134,2337.6015,2338.615699999809,2339.1155,2339.1155,2342.199900000095,2582.0,2342.199900000095,5.0,2342.203900000095,5.0,26.0,176.0,25.0,1.0,0.8,0.7,Time
,,S05,1,女,20,anonymized,Serial_Dependence_U,2023.2.3,Win32,59.88023952095548,,,,,,2342.2040999999044,109.0,5.0,2342.2040999999044,109.0,,,,2345.965900000095,2346.462900000095,2345.463599999904,2345.965900000095,2343.2000999999045,2345.4635,2346.462900000095,2346.9627999997138,2346.9627999997138,2350.8482999997136,3066.0,2350.8482999997136,5.0,2350.852299999713,5.0,27.0,177.0,2.0,1.0,1.2,0.3,Time
,,S05,1,女,20,anonymized,Serial_Dependence_U,2023.2.3,Win32,59.88023952095548,,,,,,2350.8524999999995,300.0,5.0,2350.852599999904,300.0,,,,2355.0115,2355.511099999904,2354.496699999809,2355.0115,2351.863299999713,2354.4965999999044,2355.511099999904,2356.012199999809,2356.012199999809,2359.7290999999045,3100.0,2359.7290999999045,5.0,2359.7330999999044,5.0,28.0,178.0,19.0,1.0,1.6,0.7,Time
,,S05,1,女,20,anonymized,Serial_Dependence_U,2023.2.3,Win32,59.88023952095548,,,,,,2359.7332999997134,113.0,5.0,2359.733400000095,113.0,,,,2363.128799999713,2363.624900000095,2362.6089999999995,2363.128799999713,2360.742699999809,2362.608900000095,2363.6249999999995,2364.1252999997137,2364.125400000095,2368.0101999998087,3283.0,2368.0102999997134,5.0,2368.014199999809,5.0,29.0,179.0,10.0,1.0,0.8,0.3,Time
,,S05,1,女,20,anonymized,Serial_Dependence_U,2023.2.3,Win32,59.88023952095548,,,,,,2368.014299999714,290.0,6.0,2370.4065,290.0,s,2.3663000001906767,,2374.607400000095,2375.1050999999043,2374.0889000000952,2374.607400000095,2371.425400000095,2374.088799999713,2375.1050999999043,2375.604699999809,2375.604699999809,2379.523299999714,3500.0,2379.523299999714,5.0,2379.527400000095,6.0,0.0,180.0,4.0,1.0,1.6,0.3,Time
,,S05,1,女,20,anonymized,Serial_Dependence_U,2023.2.3,Win32,59.88023952095548,,,,,,2379.5275,116.0,6.0,2379.528299999713,116.0,,,,2383.7029000000957,2384.202400000095,2383.189,2383.702799999713,2380.5235999999045,2383.188900000095,2384.202400000095,2384.7021999998087,2384.702299999713,2389.1041999998088,3882.0,2389.1041999998088,5.0,2389.108199999809,6.0,1.0,181.0,14.0,1.0,1.6,0.3,Time
,,S05,1,女,20,anonymized,Serial_Dependence_U,2023.2.3,Win32,59.88023952095548,,,,,,2389.108400000095,91.0,6.0,2389.1085,91.0,,,,2392.683900000095,2393.1835,2392.1694000000957,2392.6837999997138,2390.103400000095,2392.169199999809,2393.1835999999043,2393.6835,2393.6835,2397.6517999997136,3146.0,2397.6517999997136,5.0,2397.655799999713,6.0,2.0,182.0,11.0,1.0,1.0,0.3,Time
,,S05,1,女,20,anonymized,Serial_Dependence_U,2023.2.3,Win32,59.88023952095548,,,,,,2397.6559999999995,235.0,6.0,2397.656099999904,235.0,,,,2401.033900000095,2401.5309000000952,2400.517199999809,2401.0337999997137,2398.6507999997134,2400.5170999999045,2401.5309999999995,2402.0309000000952,2402.0309000000952,2405.533400000095,2999.0,2405.533400000095,5.0,2405.5374999999995,6.0,3.0,183.0,10.0,1.0,0.8,0.3,Time
,,S05,1,女,20,anonymized,Serial_Dependence_U,2023.2.3,Win32,59.88023952095548,,,,,,2405.537599999904,233.0,6.0,2405.537699999809,233.0,,,,2409.314699999809,2409.8122999997136,2408.798299999713,2409.314699999809,2406.531900000095,2408.7981999998087,2409.812400000095,2410.311900000095,2410.312,2412.9307999997136,2017.0,2412.9307999997136,5.0,2412.934400000095,6.0,4.0,184.0,12.0,1.0,1.2,0.3,Time
,,S05,1,女,20,anonymized,Serial_Dependence_U,2023.2.3,Win32,59.88023952095548,,,,,,2412.934599999904,343.0,6.0,2412.934699999809,343.0,,,,2416.9107999997136,2417.409699999809,2416.396199999809,2416.910699999809,2413.929699999809,2416.396199999809,2417.409699999809,2417.9097999997134,2417.909900000095,2423.8112999997134,3005.0,2423.8112999997134,5.0,2423.815400000095,6.0,5.0,185.0,3.0,1.0,1.4,0.3,Time
,,S05,1,女,20,anonymized,Serial_Dependence_U,2023.2.3,Win32,59.88023952095548,,,,,,2423.8155999999044,80.0,6.0,2423.8155999999044,80.0,,,,2427.609400000095,2428.1069000000957,2427.093199999809,2427.6092999997136,2424.827,2427.093199999809,2428.1069999999995,2428.606599999904,2428.606699999809,2436.341,5099.0,2436.341099999904,5.0,2436.3450999999045,6.0,6.0,186.0,22.0,1.0,1.2,0.3,Time
,,S05,1,女,20,anonymized,Serial_Dependence_U,2023.2.3,Win32,59.88023952095548,,,,,,2436.345299999713,68.0,6.0,2436.345299999713,68.0,,,,2439.922699999809,2440.419900000095,2439.406099999904,2439.922699999809,2437.339900000095,2439.406099999904,2440.419900000095,2440.92,2440.92,2443.889299999714,2267.0,2443.889299999714,5.0,2443.8932999997137,6.0,7.0,187.0,1.0,1.0,1.0,0.3,Time
,,S05,1,女,20,anonymized,Serial_Dependence_U,2023.2.3,Win32,59.88023952095548,,,,,,2443.8935,104.0,6.0,2443.8935,104.0,,,,2448.070400000095,2448.5675999999044,2447.5542999997137,2448.0702999997134,2444.8875999999045,2447.554199999809,2448.5675999999044,2449.0675,2449.0675999999044,2452.853,3230.0,2452.853,5.0,2452.857099999904,6.0,8.0,188.0,24.0,1.0,1.6,0.3,Time
,,S05,1,女,20,anonymized,Serial_Dependence_U,2023.2.3,Win32,59.88023952095548,,,,,,2452.857199999809,216.0,6.0,2452.857400000095,216.0,,,,2456.8015999999043,2457.2985,2456.284900000095,2456.8015999999043,2453.852099999904,2456.2847999997134,2457.2985,2457.7989999999995,2457.7989999999995,2461.133900000095,2716.0,2461.133900000095,5.0,2461.137900000095,6.0,9.0,189.0,8.0,1.0,1.4,0.7,Time
,,S05,1,女,20,anonymized,Serial_Dependence_U,2023.2.3,Win32,59.88023952095548,,,,,,2461.138099999904,266.0,6.0,2461.138199999809,266.0,,,,2464.716,2465.213199999809,2464.199199999809,2464.716,2462.131099999904,2464.1990999999043,2465.2132999997134,2465.712900000095,2465.712900000095,2469.664799999713,3433.0,2469.664799999713,5.0,2469.668400000095,6.0,10.0,190.0,21.0,1.0,1.0,0.3,Time
,,S05,1,女,20,anonymized,Serial_Dependence_U,2023.2.3,Win32,59.88023952095548,,,,,,2469.6685999999045,45.0,6.0,2469.6685999999045,45.0,,,,2473.847,2474.343699999809,2473.3299999999995,2473.847,2470.6817999997133,2473.329900000095,2474.343699999809,2474.8434999999995,2474.843699999809,2479.0790999999044,3808.0,2479.0790999999044,5.0,2479.083199999809,6.0,11.0,191.0,29.0,1.0,1.6,0.7,Time
,,S05,1,女,20,anonymized,Serial_Dependence_U,2023.2.3,Win32,59.88023952095548,,,,,,2479.0832999997137,211.0,6.0,2479.083400000095,211.0,,,,2483.0280999999045,2483.5244999999995,2482.5257999997134,2483.0280999999045,2480.0945999999044,2482.525699999809,2483.5244999999995,2484.025,2484.025,2487.1765,2606.0,2487.1765,5.0,2487.180699999809,6.0,12.0,192.0,28.0,1.0,1.4,0.7,Time
,,S05,1,女,20,anonymized,Serial_Dependence_U,2023.2.3,Win32,59.88023952095548,,,,,,2487.181,172.0,6.0,2487.181,172.0,,,,2491.1584999999995,2491.655599999904,2490.642199999809,2491.1582999997136,2488.176199999809,2490.642199999809,2491.655599999904,2492.155400000095,2492.155400000095,2496.4242999997136,3315.0,2496.4242999997136,5.0,2496.428400000095,6.0,13.0,193.0,23.0,1.0,1.4,0.3,Time
,,S05,1,女,20,anonymized,Serial_Dependence_U,2023.2.3,Win32,59.88023952095548,,,,,,2496.428699999809,35.0,6.0,2496.428699999809,35.0,,,,2499.970299999713,2500.469699999809,2499.456,2499.9701999998088,2497.421,2499.456,2500.469699999809,2500.9695999999044,2500.969699999809,2504.5554999999995,2916.0,2504.5554999999995,5.0,2504.559599999904,6.0,14.0,194.0,6.0,1.0,1.0,0.7,Time
,,S05,1,女,20,anonymized,Serial_Dependence_U,2023.2.3,Win32,59.88023952095548,,,,,,2504.559699999809,136.0,6.0,2504.559799999713,136.0,,,,2508.536699999809,2509.0345,2508.0202999997136,2508.536699999809,2505.554199999809,2508.020199999809,2509.0345,2509.533900000095,2509.5340999999044,2513.7195,3699.0,2513.7195999999044,5.0,2513.7235,6.0,15.0,195.0,13.0,1.0,1.4,0.3,Time
,,S05,1,女,20,anonymized,Serial_Dependence_U,2023.2.3,Win32,59.88023952095548,,,,,,2513.723699999809,38.0,6.0,2513.723699999809,38.0,,,,2517.067699999809,2517.5655999999044,2516.551199999809,2517.0675999999044,2514.7177999997134,2516.551199999809,2517.5655999999044,2518.065199999809,2518.0652999997137,2520.984099999904,2432.0,2520.984099999904,5.0,2520.988299999713,6.0,16.0,196.0,15.0,1.0,0.8,0.7,Time
,,S05,1,女,20,anonymized,Serial_Dependence_U,2023.2.3,Win32,59.88023952095548,,,,,,2520.9884999999995,23.0,6.0,2520.9884999999995,23.0,,,,2524.3820999999043,2524.8795999999043,2523.865599999904,2524.3820999999043,2522.0005999999044,2523.865599999904,2524.8795999999043,2525.3795,2525.3795999999043,2527.799199999809,1990.0,2527.799199999809,5.0,2527.803099999904,6.0,17.0,197.0,20.0,1.0,0.8,0.3,Time
,,S05,1,女,20,anonymized,Serial_Dependence_U,2023.2.3,Win32,59.88023952095548,,,,,,2527.803299999713,322.0,6.0,2527.803299999713,322.0,,,,2531.131199999809,2531.6275999999043,2530.6305,2531.131099999904,2528.7975999999044,2530.630400000095,2531.627699999809,2532.127900000095,2532.127900000095,2534.930199999809,2433.0,2534.930299999713,5.0,2534.933900000095,6.0,18.0,198.0,5.0,1.0,0.8,0.7,Time
,,S05,1,女,20,anonymized,Serial_Dependence_U,2023.2.3,Win32,59.88023952095548,,,,,,2534.934,354.0,6.0,2534.9340999999044,354.0,,,,2538.662299999713,2539.159,2538.1610999999043,2538.662299999713,2535.928599999904,2538.1610999999043,2539.1590999999044,2539.658699999809,2539.658699999809,2542.944699999809,2800.0,2542.9447999997137,5.0,2542.948900000095,6.0,19.0,199.0,27.0,1.0,1.2,0.7,Time
,,S05,1,女,20,anonymized,Serial_Dependence_U,2023.2.3,Win32,59.88023952095548,,,,,,2542.9490999999043,197.0,6.0,2542.9490999999043,197.0,,,,2546.692400000095,2547.1900999999043,2546.177400000095,2546.6922999997137,2543.943699999809,2546.177400000095,2547.190199999809,2547.6897999997136,2547.6897999997136,2550.8087999997138,2616.0,2550.8087999997138,5.0,2550.8127999997137,6.0,20.0,200.0,7.0,1.0,1.2,0.7,Time
,,S05,1,女,20,anonymized,Serial_Dependence_U,2023.2.3,Win32,59.88023952095548,,,,,,2550.813,296.0,6.0,2550.813,296.0,,,,2554.9565999999045,2555.454199999809,2554.440699999809,2554.9565,2551.808400000095,2554.440699999809,2555.4542999997134,2555.954199999809,2555.954199999809,2559.0230999999044,2283.0,2559.023199999809,5.0,2559.0272999997137,6.0,21.0,201.0,19.0,1.0,1.6,0.7,Time
,,S05,1,女,20,anonymized,Serial_Dependence_U,2023.2.3,Win32,59.88023952095548,,,,,,2559.027400000095,161.0,6.0,2559.0275,161.0,,,,2562.805199999809,2563.302199999809,2562.288699999809,2562.805099999904,2560.023400000095,2562.288699999809,2563.302199999809,2563.801900000095,2563.801900000095,2566.704400000095,2283.0,2566.704400000095,5.0,2566.7085,6.0,22.0,202.0,2.0,1.0,1.2,0.3,Time
,,S05,1,女,20,anonymized,Serial_Dependence_U,2023.2.3,Win32,59.88023952095548,,,,,,2566.7087999997134,21.0,6.0,2566.7087999997134,21.0,,,,2570.084599999904,2570.5835,2569.569699999809,2570.0844999999995,2567.7035999999043,2569.5695999999043,2570.5835,2571.083400000095,2571.0835,2573.702599999904,2149.0,2573.702599999904,5.0,2573.706199999809,6.0,23.0,203.0,0.0,1.0,0.8,0.3,Time
,,S05,1,女,20,anonymized,Serial_Dependence_U,2023.2.3,Win32,59.88023952095548,,,,,,2573.706400000095,191.0,6.0,2573.706400000095,191.0,,,,2577.2505999999044,2577.748900000095,2576.734699999809,2577.250400000095,2574.701900000095,2576.7345999999043,2577.748900000095,2578.247900000095,2578.247900000095,2581.3170999999043,2683.0,2581.317199999809,5.0,2581.321199999809,6.0,24.0,204.0,16.0,1.0,1.0,0.7,Time
,,S05,1,女,20,anonymized,Serial_Dependence_U,2023.2.3,Win32,59.88023952095548,,,,,,2581.3212999997136,192.0,6.0,2581.3215,192.0,,,,2585.4819000000957,2585.9790999999045,2584.9655999999045,2585.481799999713,2582.333400000095,2584.9655999999045,2585.9790999999045,2586.4791999998088,2586.479299999713,2590.0979000000957,3079.0,2590.0979000000957,5.0,2590.102099999904,6.0,25.0,205.0,9.0,1.0,1.6,0.7,Time
,,S05,1,女,20,anonymized,Serial_Dependence_U,2023.2.3,Win32,59.88023952095548,,,,,,2590.102299999713,270.0,6.0,2590.102299999713,270.0,,,,2594.046400000095,2594.543299999714,2593.5295999999043,2594.046299999713,2591.096900000095,2593.5295,2594.543400000095,2595.043299999714,2595.043400000095,2598.728699999809,3216.0,2598.728699999809,5.0,2598.7327999997137,6.0,26.0,206.0,18.0,1.0,1.4,0.7,Time
,,S05,1,女,20,anonymized,Serial_Dependence_U,2023.2.3,Win32,59.88023952095548,,,,,,2598.733,73.0,6.0,2598.733,73.0,,,,2602.477199999809,2602.9745999999045,2601.959,2602.477199999809,2599.728,2601.958900000095,2602.9745999999045,2603.474199999809,2603.474199999809,2607.093099999904,2683.0,2607.093299999713,5.0,2607.0972999997134,6.0,27.0,207.0,17.0,1.0,1.2,0.7,Time
,,S05,1,女,20,anonymized,Serial_Dependence_U,2023.2.3,Win32,59.88023952095548,,,,,,2607.097400000095,318.0,6.0,2607.0975,318.0,,,,2610.6410999999043,2611.139,2610.126199999809,2610.6410999999043,2608.092199999809,2610.126199999809,2611.1390999999044,2611.6387999997137,2611.638900000095,2616.790199999809,2157.0,2616.790199999809,5.0,2616.7944000000957,6.0,28.0,208.0,26.0,1.0,1.0,0.7,Time
,,S05,1,女,20,anonymized,Serial_Dependence_U,2023.2.3,Win32,59.88023952095548,,,,,,2616.794599999904,33.0,6.0,2616.7947999997136,33.0,,,,2620.139,2620.636099999904,2619.622299999713,2620.138900000095,2617.789400000095,2619.622199999809,2620.636099999904,2621.136400000095,2621.136400000095,2624.104900000095,2346.0,2624.105,5.0,2624.109099999904,6.0,29.0,209.0,25.0,1.0,0.8,0.7,Time
,,S05,1,女,20,anonymized,Serial_Dependence_U,2023.2.3,Win32,59.88023952095548,,,,,,2624.1092999997136,22.0,7.0,2625.718099999904,22.0,s,1.5932000002862878,,2629.67,2630.1672999997136,2629.153299999713,2629.67,2626.720400000095,2629.1530999999045,2630.167400000095,2630.6665999999045,2630.6666999998088,2634.22,3167.0,2634.2201999998088,5.0,2634.2240999999044,7.0,0.0,210.0,8.0,1.0,1.4,0.7,Time
,,S05,1,女,20,anonymized,Serial_Dependence_U,2023.2.3,Win32,59.88023952095548,,,,,,2634.2242999997134,103.0,7.0,2634.2249999999995,103.0,,,,2638.3675,2638.8645,2637.8502999997136,2638.367400000095,2635.217699999809,2637.8502999997136,2638.8645,2639.3645999999044,2639.3645999999044,2643.416199999809,3410.0,2643.416199999809,5.0,2643.420199999809,7.0,1.0,211.0,29.0,1.0,1.6,0.7,Time
,,S05,1,女,20,anonymized,Serial_Dependence_U,2023.2.3,Win32,59.88023952095548,,,,,,2643.420400000095,179.0,7.0,2643.4205,179.0,,,,2647.563900000095,2648.0635999999045,2647.047900000095,2647.5637999997134,2644.415699999809,2647.047900000095,2648.0635999999045,2648.5616999998088,2648.561799999713,2652.930299999713,3799.0,2652.9304000000952,5.0,2652.934400000095,7.0,2.0,212.0,19.0,1.0,1.6,0.7,Time
,,S05,1,女,20,anonymized,Serial_Dependence_U,2023.2.3,Win32,59.88023952095548,,,,,,2652.934599999904,183.0,7.0,2652.934699999809,183.0,,,,2656.526699999809,2657.0264000000952,2656.012,2656.526599999904,2653.945900000095,2656.012,2657.0264000000952,2657.525699999809,2657.525699999809,2662.627900000095,4449.0,2662.627900000095,5.0,2662.631900000095,7.0,3.0,213.0,21.0,1.0,1.0,0.3,Time
,,S05,1,女,20,anonymized,Serial_Dependence_U,2023.2.3,Win32,59.88023952095548,,,,,,2662.6320999999043,208.0,7.0,2662.6320999999043,208.0,,,,2665.976900000095,2666.4732999997136,2665.4597999997136,2665.9767999997134,2663.626400000095,2665.459699999809,2666.4732999997136,2666.9735,2666.9735,2670.325299999713,2549.0,2670.325299999713,5.0,2670.328699999809,7.0,4.0,214.0,5.0,1.0,0.8,0.7,Time
,,S05,1,女,20,anonymized,Serial_Dependence_U,2023.2.3,Win32,59.88023952095548,,,,,,2670.328900000095,325.0,7.0,2670.3290999999044,325.0,,,,2673.707400000095,2674.204400000095,2673.1910999999045,2673.707400000095,2671.3240999999043,2673.190900000095,2674.204400000095,2674.704400000095,2674.7045,2677.5905,2500.0,2677.5905,5.0,2677.5945999999044,7.0,5.0,215.0,0.0,1.0,0.8,0.3,Time
,,S05,1,女,20,anonymized,Serial_Dependence_U,2023.2.3,Win32,59.88023952095548,,,,,,2677.5947999997134,163.0,7.0,2677.594900000095,163.0,,,,2681.187900000095,2681.686,2680.672199999809,2681.1877999997137,2678.606599999904,2680.672199999809,2681.686,2682.185400000095,2682.1855,2685.2201999998088,2626.0,2685.220299999713,5.0,2685.224400000095,7.0,6.0,216.0,1.0,1.0,1.0,0.3,Time
,,S05,1,女,20,anonymized,Serial_Dependence_U,2023.2.3,Win32,59.88023952095548,,,,,,2685.2245,358.0,7.0,2685.2245999999045,358.0,,,,2689.403,2689.899900000095,2688.8842999997137,2689.402900000095,2686.220599999904,2688.8842999997137,2689.899900000095,2690.399900000095,2690.399900000095,2694.402,3600.0,2694.402,5.0,2694.406199999809,7.0,7.0,217.0,24.0,1.0,1.6,0.3,Time
,,S05,1,女,20,anonymized,Serial_Dependence_U,2023.2.3,Win32,59.88023952095548,,,,,,2694.406400000095,335.0,7.0,2694.4065,335.0,,,,2698.3837999997136,2698.8814999999995,2697.867199999809,2698.3837999997136,2695.4002999997138,2697.8670999999044,2698.881599999904,2699.381099999904,2699.381199999809,2705.065900000095,3766.0,2705.066,5.0,2705.07,7.0,8.0,218.0,13.0,1.0,1.4,0.3,Time
,,S05,1,女,20,anonymized,Serial_Dependence_U,2023.2.3,Win32,59.88023952095548,,,,,,2705.0700999999044,299.0,7.0,2705.070199999809,299.0,,,,2708.4476999998087,2708.9450999999044,2707.931400000095,2708.4476999998087,2706.0650999999043,2707.9312999997137,2708.9450999999044,2709.4445999999043,2709.4445999999043,2714.862900000095,4100.0,2714.863,5.0,2714.867,7.0,9.0,219.0,20.0,1.0,0.8,0.3,Time
,,S05,1,女,20,anonymized,Serial_Dependence_U,2023.2.3,Win32,59.88023952095548,,,,,,2714.8670999999044,288.0,7.0,2714.8672999997134,288.0,,,,2718.4284999999995,2718.925199999809,2717.911699999809,2718.428400000095,2715.8785999999045,2717.9115999999044,2718.925199999809,2719.425199999809,2719.4252999997134,2722.544099999904,2550.0,2722.544099999904,5.0,2722.547799999714,7.0,10.0,220.0,6.0,1.0,1.0,0.7,Time
,,S05,1,女,20,anonymized,Serial_Dependence_U,2023.2.3,Win32,59.88023952095548,,,,,,2722.547799999714,35.0,7.0,2722.548,35.0,,,,2726.323900000095,2726.823199999809,2725.8095,2726.3237999997136,2723.5436999998087,2725.8095,2726.823199999809,2727.322900000095,2727.322900000095,2730.6085,2833.0,2730.6085,5.0,2730.6125,7.0,11.0,221.0,12.0,1.0,1.2,0.3,Time
,,S05,1,女,20,anonymized,Serial_Dependence_U,2023.2.3,Win32,59.88023952095548,,,,,,2730.6127999997134,84.0,7.0,2730.6127999997134,84.0,,,,2734.6069999999995,2735.104,2734.090199999809,2734.6069000000957,2731.624400000095,2734.0900999999044,2735.104,2735.604400000095,2735.6044999999995,2739.7890999999045,3799.0,2739.7890999999045,5.0,2739.793199999809,7.0,12.0,222.0,23.0,1.0,1.4,0.3,Time
,,S05,1,女,20,anonymized,Serial_Dependence_U,2023.2.3,Win32,59.88023952095548,,,,,,2739.793400000095,22.0,7.0,2739.7935,22.0,,,,2743.3710999999043,2743.868099999904,2742.8544999999995,2743.371,2740.788699999809,2742.8544999999995,2743.868199999809,2744.3685999999043,2744.3685999999043,2747.804,2959.0,2747.804,5.0,2747.8079999999995,7.0,13.0,223.0,11.0,1.0,1.0,0.3,Time
,,S05,1,女,20,anonymized,Serial_Dependence_U,2023.2.3,Win32,59.88023952095548,,,,,,2747.808199999809,333.0,7.0,2747.8082999997137,333.0,,,,2751.5830999999043,2752.083199999809,2751.069099999904,2751.583,2748.803,2751.069099999904,2752.0832999997137,2752.582599999904,2752.582699999809,2756.668199999809,3682.0,2756.668199999809,5.0,2756.6717999997136,7.0,14.0,224.0,2.0,1.0,1.2,0.3,Time
,,S05,1,女,20,anonymized,Serial_Dependence_U,2023.2.3,Win32,59.88023952095548,,,,,,2756.672,144.0,7.0,2756.672,144.0,,,,2760.4329999999995,2760.930099999904,2759.917099999904,2760.432900000095,2757.6815,2759.917099999904,2760.930099999904,2761.4304000000952,2761.430599999904,2764.482099999904,2732.0,2764.482099999904,5.0,2764.486199999809,7.0,15.0,225.0,27.0,1.0,1.2,0.7,Time
,,S05,1,女,20,anonymized,Serial_Dependence_U,2023.2.3,Win32,59.88023952095548,,,,,,2764.486400000095,173.0,7.0,2764.486400000095,173.0,,,,2768.678599999904,2769.177900000095,2768.164,2768.6784999999995,2765.4985,2768.164,2769.177900000095,2769.678299999713,2769.678299999713,2773.129900000095,3100.0,2773.13,5.0,2773.1334999999995,7.0,16.0,226.0,4.0,1.0,1.6,0.3,Time
,,S05,1,女,20,anonymized,Serial_Dependence_U,2023.2.3,Win32,59.88023952095548,,,,,,2773.133699999809,347.0,7.0,2773.1337999997136,347.0,,,,2777.2775,2777.775900000095,2776.761699999809,2777.2775,2774.1289999999995,2776.761699999809,2777.775900000095,2778.2757999997134,2778.275900000095,2782.0109000000957,3343.0,2782.0109000000957,5.0,2782.014900000095,7.0,17.0,227.0,9.0,1.0,1.6,0.7,Time
,,S05,1,女,20,anonymized,Serial_Dependence_U,2023.2.3,Win32,59.88023952095548,,,,,,2782.015099999904,131.0,7.0,2782.015199999809,131.0,,,,2785.759,2786.256699999809,2785.242599999904,2785.758900000095,2783.01,2785.242599999904,2786.256699999809,2786.7564000000957,2786.7564999999995,2790.758699999809,3716.0,2790.758699999809,5.0,2790.762699999809,7.0,18.0,228.0,7.0,1.0,1.2,0.7,Time
,,S05,1,女,20,anonymized,Serial_Dependence_U,2023.2.3,Win32,59.88023952095548,,,,,,2790.7629999999995,101.0,7.0,2790.7629999999995,101.0,,,,2794.140099999904,2794.6372999997134,2793.624,2794.14,2791.7584999999995,2793.623900000095,2794.6372999997134,2795.137400000095,2795.137400000095,2798.756299999713,3249.0,2798.756299999713,5.0,2798.7601999998087,7.0,19.0,229.0,10.0,1.0,0.8,0.3,Time
,,S05,1,女,20,anonymized,Serial_Dependence_U,2023.2.3,Win32,59.88023952095548,,,,,,2798.760400000095,14.0,7.0,2798.7605,14.0,,,,2802.538,2803.0357999997136,2802.0212999997134,2802.537900000095,2799.7552999997138,2802.021199999809,2803.0357999997136,2803.535599999904,2803.535599999904,2807.2040999999044,3482.0,2807.2040999999044,5.0,2807.208199999809,7.0,20.0,230.0,22.0,1.0,1.2,0.3,Time
,,S05,1,女,20,anonymized,Serial_Dependence_U,2023.2.3,Win32,59.88023952095548,,,,,,2807.2082999997137,153.0,7.0,2807.2082999997137,153.0,,,,2810.566599999904,2811.066,2810.053599999904,2810.5664999999995,2808.2195999999044,2810.0534999999995,2811.066,2811.5667999997136,2811.5667999997136,2814.3516999998087,2336.0,2814.3516999998087,5.0,2814.355900000095,7.0,21.0,231.0,25.0,1.0,0.8,0.7,Time
,,S05,1,女,20,anonymized,Serial_Dependence_U,2023.2.3,Win32,59.88023952095548,,,,,,2814.3560999999045,338.0,7.0,2814.3560999999045,338.0,,,,2817.697900000095,2818.1975999999045,2817.183900000095,2817.6977999997134,2815.350900000095,2817.183699999809,2818.1975999999045,2818.697900000095,2818.698099999904,2821.5664999999995,2566.0,2821.5664999999995,5.0,2821.5702999997134,7.0,22.0,232.0,15.0,1.0,0.8,0.7,Time
,,S05,1,女,20,anonymized,Serial_Dependence_U,2023.2.3,Win32,59.88023952095548,,,,,,2821.5705,97.0,7.0,2821.5705999999045,97.0,,,,2825.762799999713,2826.262400000095,2825.2482999997137,2825.762799999713,2822.582699999809,2825.2480999999043,2826.2625,2826.7625,2826.7625999999045,2829.9805999999044,2866.0,2829.980699999809,5.0,2829.9847999997137,7.0,23.0,233.0,14.0,1.0,1.6,0.3,Time
,,S05,1,女,20,anonymized,Serial_Dependence_U,2023.2.3,Win32,59.88023952095548,,,,,,2829.985,193.0,7.0,2829.985,193.0,,,,2833.7435,2834.2435,2833.2294999999995,2833.7435,2830.9800999999043,2833.229400000095,2834.2435,2834.743400000095,2834.743400000095,2837.9782999997137,2616.0,2837.978400000095,5.0,2837.9825,7.0,24.0,234.0,17.0,1.0,1.2,0.7,Time
,,S05,1,女,20,anonymized,Serial_Dependence_U,2023.2.3,Win32,59.88023952095548,,,,,,2837.982699999809,162.0,7.0,2837.982699999809,162.0,,,,2841.924400000095,2842.4239999999995,2841.4097999997134,2841.924400000095,2838.977099999904,2841.409699999809,2842.424099999904,2842.9239999999995,2842.924099999904,2846.1257999997138,2749.0,2846.1257999997138,5.0,2846.129900000095,7.0,25.0,235.0,18.0,1.0,1.4,0.7,Time
,,S05,1,女,20,anonymized,Serial_Dependence_U,2023.2.3,Win32,59.88023952095548,,,,,,2846.1300999999044,59.0,7.0,2846.1300999999044,59.0,,,,2850.1085,2850.605,2849.5889999999995,2850.108400000095,2847.1262999997134,2849.5889000000952,2850.605,2851.1052999997137,2851.105400000095,2855.190400000095,3618.0,2855.1905,5.0,2855.1945,7.0,26.0,236.0,3.0,1.0,1.4,0.3,Time
,,S05,1,女,20,anonymized,Serial_Dependence_U,2023.2.3,Win32,59.88023952095548,,,,,,2855.194699999809,74.0,7.0,2855.194699999809,74.0,,,,2858.738699999809,2859.235799999713,2858.222199999809,2858.7384999999995,2856.189900000095,2858.222199999809,2859.235900000095,2859.735799999713,2859.735900000095,2863.3047999997134,3154.0,2863.3047999997134,5.0,2863.3087999997138,7.0,27.0,237.0,26.0,1.0,1.0,0.7,Time
,,S05,1,女,20,anonymized,Serial_Dependence_U,2023.2.3,Win32,59.88023952095548,,,,,,2863.309,157.0,7.0,2863.309,157.0,,,,2867.2527999997137,2867.7500999999043,2866.736699999809,2867.2527999997137,2864.3037999997136,2866.736599999904,2867.7500999999043,2868.250699999809,2868.250699999809,2872.402199999809,3405.0,2872.4022999997137,5.0,2872.406400000095,7.0,28.0,238.0,28.0,1.0,1.4,0.7,Time
,,S05,1,女,20,anonymized,Serial_Dependence_U,2023.2.3,Win32,59.88023952095548,,,,,,2872.4065999999043,22.0,7.0,2872.406699999809,22.0,,,,2875.948599999904,2876.448,2875.434,2875.9484999999995,2873.401299999713,2875.434,2876.448099999904,2876.9476999998087,2876.9477999997134,2881.3499999999995,3816.0,2881.3499999999995,5.0,2881.3541999998088,7.0,29.0,239.0,16.0,1.0,1.0,0.7,Time
,,S05,1,女,20,anonymized,Serial_Dependence_U,2023.2.3,Win32,59.88023952095548,,,,,,2881.354400000095,182.0,8.0,2883.8965,182.0,s,2.5229999999996835,,2887.845699999809,2888.3445,2887.3307999997137,2887.845599999904,2884.8985999999045,2887.330699999809,2888.3445999999044,2888.844900000095,2888.844900000095,2892.362900000095,2732.0,2892.362900000095,5.0,2892.367,8.0,0.0,240.0,28.0,1.0,1.4,0.7,Time
,,S05,1,女,20,anonymized,Serial_Dependence_U,2023.2.3,Win32,59.88023952095548,,,,,,2892.367199999809,93.0,8.0,2892.3679000000952,93.0,,,,2896.5257999997134,2897.0255,2896.012199999809,2896.5257999997134,2893.3625,2896.012199999809,2897.0255,2897.525,2897.5250999999043,2900.9276999998087,2716.0,2900.9276999998087,5.0,2900.9317999997133,8.0,1.0,241.0,9.0,1.0,1.6,0.7,Time
,,S05,1,女,20,anonymized,Serial_Dependence_U,2023.2.3,Win32,59.88023952095548,,,,,,2900.9320999999045,65.0,8.0,2900.9321999998087,65.0,,,,2904.475900000095,2904.973099999904,2903.957,2904.475900000095,2901.9245999999043,2903.957,2904.973199999809,2905.4735,2905.4735999999043,2909.691699999809,3266.0,2909.691699999809,5.0,2909.6956999998088,8.0,2.0,242.0,6.0,1.0,1.0,0.7,Time
,,S05,1,女,20,anonymized,Serial_Dependence_U,2023.2.3,Win32,59.88023952095548,,,,,,2909.695799999713,78.0,8.0,2909.695900000095,78.0,,,,2913.8240999999043,2914.3205,2913.3234999999995,2913.823900000095,2910.6907999997134,2913.3234999999995,2914.3205,2914.820400000095,2914.8205,2918.772099999904,3482.0,2918.772199999809,5.0,2918.776299999713,8.0,3.0,243.0,29.0,1.0,1.6,0.7,Time
,,S05,1,女,20,anonymized,Serial_Dependence_U,2023.2.3,Win32,59.88023952095548,,,,,,2918.7764000000952,250.0,8.0,2918.7764000000952,250.0,,,,2922.9375999999043,2923.4349000000952,2922.4352999997136,2922.9374999999995,2919.771699999809,2922.4352999997136,2923.4349999999995,2923.934799999713,2923.934799999713,2928.503400000095,3783.0,2928.503400000095,5.0,2928.5067999997136,8.0,4.0,244.0,4.0,1.0,1.6,0.3,Time
,,S05,1,女,20,anonymized,Serial_Dependence_U,2023.2.3,Win32,59.88023952095548,,,,,,2928.507,54.0,8.0,2928.507,54.0,,,,2932.268400000095,2932.7654000000957,2931.7497999997136,2932.2682999997137,2929.519,2931.749699999809,2932.7654000000957,2933.265299999713,2933.2654000000957,2937.1007999997137,2783.0,2937.1007999997137,5.0,2937.1047999997136,8.0,5.0,245.0,27.0,1.0,1.2,0.7,Time
,,S05,1,女,20,anonymized,Serial_Dependence_U,2023.2.3,Win32,59.88023952095548,,,,,,2937.104900000095,24.0,8.0,2937.105,24.0,,,,2940.6825,2941.179900000095,2940.1804999999995,2940.682400000095,2938.117400000095,2940.1804000000952,2941.179900000095,2941.68,2941.680099999904,2946.681400000095,4132.0,2946.6815,5.0,2946.6855,8.0,6.0,246.0,21.0,1.0,1.0,0.3,Time
,,S05,1,女,20,anonymized,Serial_Dependence_U,2023.2.3,Win32,59.88023952095548,,,,,,2946.6855999999043,217.0,8.0,2946.685699999809,217.0,,,,2950.0302999997134,2950.5275,2949.513900000095,2950.030199999809,2947.680599999904,2949.513900000095,2950.5275999999044,2951.0267999997136,2951.0267999997136,2960.727199999809,1995.0,2960.727199999809,5.0,2960.731400000095,8.0,7.0,247.0,25.0,1.0,0.8,0.7,Time
,,S05,1,女,20,anonymized,Serial_Dependence_U,2023.2.3,Win32,59.88023952095548,,,,,,2960.7315,166.0,8.0,2960.731599999904,166.0,,,,2964.9090999999044,2965.406199999809,2964.392199999809,2964.909,2961.7265,2964.3920999999045,2965.4062999997136,2965.9059999999995,2965.9059999999995,2969.475400000095,3000.0,2969.475400000095,5.0,2969.479599999904,8.0,8.0,248.0,14.0,1.0,1.6,0.3,Time
,,S05,1,女,20,anonymized,Serial_Dependence_U,2023.2.3,Win32,59.88023952095548,,,,,,2969.4797999997136,103.0,8.0,2969.4797999997136,103.0,,,,2972.8400999999044,2973.3372999997137,2972.323299999713,2972.8400999999044,2970.490599999904,2972.323199999809,2973.3372999997137,2973.837099999904,2973.837199999809,2976.8561999998087,2266.0,2976.856299999713,5.0,2976.8600999999044,8.0,9.0,249.0,15.0,1.0,0.8,0.7,Time
,,S05,1,女,20,anonymized,Serial_Dependence_U,2023.2.3,Win32,59.88023952095548,,,,,,2976.860400000095,252.0,8.0,2976.860400000095,252.0,,,,2980.438199999809,2980.9352999997136,2979.921199999809,2980.438199999809,2977.8555,2979.921199999809,2980.9352999997136,2981.4349999999995,2981.435099999904,2985.404400000095,3574.0,2985.404400000095,5.0,2985.408199999809,8.0,10.0,250.0,1.0,1.0,1.0,0.3,Time
,,S05,1,女,20,anonymized,Serial_Dependence_U,2023.2.3,Win32,59.88023952095548,,,,,,2985.4082999997136,54.0,8.0,2985.408400000095,54.0,,,,2988.9684000000952,2989.466699999809,2988.453099999904,2988.9684000000952,2986.419699999809,2988.4529999999995,2989.466699999809,2989.966199999809,2989.966199999809,2993.384900000095,2782.0,2993.385,5.0,2993.3890999999044,8.0,11.0,251.0,26.0,1.0,1.0,0.7,Time
,,S05,1,女,20,anonymized,Serial_Dependence_U,2023.2.3,Win32,59.88023952095548,,,,,,2993.389299999714,197.0,8.0,2993.389299999714,197.0,,,,2996.783400000095,2997.280599999904,2996.2646999998087,2996.783400000095,2994.4005999999044,2996.2645999999045,2997.280599999904,2997.780699999809,2997.780699999809,3000.5667999997136,2317.0,3000.5667999997136,5.0,3000.570900000095,8.0,12.0,252.0,10.0,1.0,0.8,0.3,Time
,,S05,1,女,20,anonymized,Serial_Dependence_U,2023.2.3,Win32,59.88023952095548,,,,,,3000.5709999999995,195.0,8.0,3000.571099999904,195.0,,,,3004.3479000000957,3004.8450999999045,3003.8315,3004.3479000000957,3001.5655,3003.8315,3004.8450999999045,3005.3450999999045,3005.3450999999045,3009.2139000000952,3466.0,3009.2139000000952,5.0,3009.217900000095,8.0,13.0,253.0,22.0,1.0,1.2,0.3,Time
,,S05,1,女,20,anonymized,Serial_Dependence_U,2023.2.3,Win32,59.88023952095548,,,,,,3009.218099999904,8.0,8.0,3009.218199999809,8.0,,,,3013.393400000095,3013.892599999904,3012.878900000095,3013.393400000095,3010.213,3012.878799999713,3013.892599999904,3014.3927999997136,3014.3927999997136,3019.210699999809,4248.0,3019.210799999714,5.0,3019.2147999997137,8.0,14.0,254.0,24.0,1.0,1.6,0.3,Time
,,S05,1,女,20,anonymized,Serial_Dependence_U,2023.2.3,Win32,59.88023952095548,,,,,,3019.215,128.0,8.0,3019.2150999999044,128.0,,,,3022.591199999809,3023.0900999999044,3022.076400000095,3022.591099999904,3020.210799999714,3022.076400000095,3023.090199999809,3023.59,3023.59,3027.5750999999045,3485.0,3027.5750999999045,5.0,3027.579199999809,8.0,15.0,255.0,20.0,1.0,0.8,0.3,Time
,,S05,1,女,20,anonymized,Serial_Dependence_U,2023.2.3,Win32,59.88023952095548,,,,,,3027.5795,17.0,8.0,3027.5795,17.0,,,,3031.555299999713,3032.054699999809,3031.038199999809,3031.555199999809,3028.574400000095,3031.0380999999043,3032.054699999809,3032.554199999809,3032.554199999809,3036.8226999998087,3732.0,3036.8227999997134,5.0,3036.8262999997137,8.0,16.0,256.0,13.0,1.0,1.4,0.3,Time
