Scale_setup.started,Scale_setup.stopped,participant,expid,session,sex,age,date,expName,psychopyVersion,OS,frameRate,screen_scale_keys.started,screen_scale_keys.stopped,X Scale,Y Scale,rectangel_keys.started,rectangel_keys.stopped,Intro.started,Intro.stopped,key_resp_2.keys,key_resp_2.rt,key_resp_2.duration,block.started,Block_id,block.stopped,Block_resp_2.keys,Block_resp_2.rt,Block_resp_2.duration,ITI.started,ITI.stopped,Mask_2.started,Mask_2.stopped,M2.started,direction,M2.stopped,Cue.started,Cue.stopped,Response.started,Response.stopped,keyDuration,Feedback_Time.started,FeedbackID_T,Feedback_Time.stopped,trials.thisRepN,trials.thisTrialN,trials.thisN,trials.thisIndex,trials.ran,TimeDur,Coherence1,TrialType
0.0003,0.0006,S05,169207,1,Male,29,anonymized,Serial_Dependence_U,2023.2.3,Win32,144.9275362,,,,,,,,,,,,,,,,,,,,,,,,,,,,,,,,,,,,,,,,
,,S05,169207,1,Male,29,anonymized,Serial_Dependence_U,2023.2.3,Win32,144.9275362,0.0018,1.9066,0.05,0.05,1.9067,4.8562,4.8569,6.4518,space,1.5737,,,,,,,,,,,,,,,,,,,,,,,,,,,,,,
,,S05,169207,1,Male,29,anonymized,Serial_Dependence_U,2023.2.3,Win32,144.9275362,,,,,,,,,,,,6.4556,0.0,8.0888,s,1.618,,10.4063,10.9054,9.9,10.4061,9.0941,88.0,9.8999,10.9056,11.405,11.4051,15.762,1096.0,15.7624,5.0,16.7606,0.0,0.0,0.0,15.0,1.0,0.8,0.7,Time
,,S05,169207,1,Male,29,anonymized,Serial_Dependence_U,2023.2.3,Win32,144.9275362,,,,,,,,,,,,16.7609,0.0,16.7627,,,,19.6744,20.1736,19.1679,19.6742,17.7659,158.0,19.1678,20.1736,20.673,20.6731,22.3578,1248.6,22.358,2.0,23.3578,0.0,1.0,1.0,3.0,1.0,1.4,0.3,Time
,,S05,169207,1,Male,29,anonymized,Serial_Dependence_U,2023.2.3,Win32,144.9275362,,,,,,,,,,,,23.3585,0.0,23.3586,,,,26.4728,26.9721,25.9665,26.4727,24.3627,157.0,25.9663,26.9721,27.4716,27.4716,30.1272,2212.3,30.1272,5.0,31.1275,0.0,2.0,2.0,9.0,1.0,1.6,0.7,Time
,,S05,169207,1,Male,29,anonymized,Serial_Dependence_U,2023.2.3,Win32,144.9275362,,,,,,,,,,,,31.1279,0.0,31.1282,,,,34.0415,34.541,33.5349,34.0414,32.1325,5.0,33.5348,34.541,35.04,35.0401,37.2254,1568.5,37.2256,4.0,38.2243,0.0,3.0,3.0,23.0,1.0,1.4,0.3,Time
,,S05,169207,1,Male,29,anonymized,Serial_Dependence_U,2023.2.3,Win32,144.9275362,,,,,,,,,,,,38.2246,0.0,38.2247,,,,40.5415,41.0408,40.0352,40.5415,39.2306,288.0,40.035,41.0409,41.5404,41.5404,42.7127,686.7,42.7129,2.0,43.7117,0.0,4.0,4.0,20.0,1.0,0.8,0.3,Time
,,S05,169207,1,Male,29,anonymized,Serial_Dependence_U,2023.2.3,Win32,144.9275362,,,,,,,,,,,,43.712,0.0,43.7122,,,,46.2293,46.7295,45.724,46.2293,44.718,237.0,45.7238,46.7295,47.229,47.229,48.5393,1033.3,48.5395,3.0,49.539,0.0,5.0,5.0,21.0,1.0,1.0,0.3,Time
,,S05,169207,1,Male,29,anonymized,Serial_Dependence_U,2023.2.3,Win32,144.9275362,,,,,,,,,,,,49.5392,0.0,49.5394,,,,52.0574,52.5567,51.551,52.0573,50.545,235.0,51.5508,52.5567,53.0562,53.0562,54.3117,1005.8,54.3118,3.0,55.3108,0.0,6.0,6.0,16.0,1.0,1.0,0.7,Time
,,S05,169207,1,Male,29,anonymized,Serial_Dependence_U,2023.2.3,Win32,144.9275362,,,,,,,,,,,,55.3111,0.0,55.3112,,,,57.6268,58.1273,57.1216,57.6268,56.317,100.0,57.1216,58.1273,58.6269,58.6269,60.174,1269.8,60.1741,5.0,61.1728,0.0,7.0,7.0,5.0,1.0,0.8,0.7,Time
,,S05,169207,1,Male,29,anonymized,Serial_Dependence_U,2023.2.3,Win32,144.9275362,,,,,,,,,,,,61.1731,0.0,61.1732,,,,63.6912,64.1906,63.1848,63.6911,62.1777,238.0,63.1847,64.1906,64.69,64.69,66.1383,984.3,66.1385,3.0,67.1388,0.0,8.0,8.0,11.0,1.0,1.0,0.3,Time
,,S05,169207,1,Male,29,anonymized,Serial_Dependence_U,2023.2.3,Win32,144.9275362,,,,,,,,,,,,67.1391,0.0,67.1392,,,,70.2539,70.7531,69.7473,70.2538,68.1449,40.0,69.7473,70.7532,71.2526,71.2526,73.2594,1556.4,73.2595,3.0,74.2564,0.0,9.0,9.0,14.0,1.0,1.6,0.3,Time
,,S05,169207,1,Male,29,anonymized,Serial_Dependence_U,2023.2.3,Win32,144.9275362,,,,,,,,,,,,74.2567,0.0,74.2568,,,,76.976,77.4754,76.4697,76.9759,75.2627,307.0,76.4695,77.4754,77.9749,77.975,79.5766,1290.2,79.5768,4.0,80.5764,0.0,10.0,10.0,17.0,1.0,1.2,0.7,Time
,,S05,169207,1,Male,29,anonymized,Serial_Dependence_U,2023.2.3,Win32,144.9275362,,,,,,,,,,,,80.5768,0.0,80.5769,,,,83.2881,83.7882,82.7828,83.2879,81.5814,231.0,82.7827,83.7883,84.2878,84.2879,85.8555,1227.5,85.8556,3.0,86.8544,0.0,11.0,11.0,22.0,1.0,1.2,0.3,Time
,,S05,169207,1,Male,29,anonymized,Serial_Dependence_U,2023.2.3,Win32,144.9275362,,,,,,,,,,,,86.8546,0.0,86.8547,,,,89.3729,89.8721,88.8664,89.3727,87.8607,209.0,88.8663,89.8721,90.3715,90.3715,92.0426,1366.5,92.0427,5.0,93.0426,0.0,12.0,12.0,26.0,1.0,1.0,0.7,Time
,,S05,169207,1,Male,29,anonymized,Serial_Dependence_U,2023.2.3,Win32,144.9275362,,,,,,,,,,,,93.0428,0.0,93.0429,,,,95.3597,95.8591,94.8534,95.3596,94.0486,248.0,94.8532,95.8591,96.3585,96.3585,97.5091,797.0,97.5093,3.0,98.509,0.0,13.0,13.0,25.0,1.0,0.8,0.7,Time
,,S05,169207,1,Male,29,anonymized,Serial_Dependence_U,2023.2.3,Win32,144.9275362,,,,,,,,,,,,98.5093,0.0,98.5094,,,,101.4229,101.9222,100.9166,101.4229,99.5151,300.0,100.9165,101.9222,102.4217,102.4218,104.2625,1446.1,104.2627,3.0,105.259,0.0,14.0,14.0,8.0,1.0,1.4,0.7,Time
,,S05,169207,1,Male,29,anonymized,Serial_Dependence_U,2023.2.3,Win32,144.9275362,,,,,,,,,,,,105.2592,0.0,105.2594,,,,107.9786,108.4779,107.4723,107.9785,106.2652,180.0,107.4722,108.4779,108.9773,108.9774,110.4413,1151.3,110.4416,3.0,111.4403,0.0,15.0,15.0,27.0,1.0,1.2,0.7,Time
,,S05,169207,1,Male,29,anonymized,Serial_Dependence_U,2023.2.3,Win32,144.9275362,,,,,,,,,,,,111.4407,0.0,111.4408,,,,113.7565,114.2569,113.2501,113.7565,112.4464,103.0,113.25,114.2569,114.7563,114.7564,116.0052,819.2,116.0053,3.0,117.004,0.0,16.0,16.0,0.0,1.0,0.8,0.3,Time
,,S05,169207,1,Male,29,anonymized,Serial_Dependence_U,2023.2.3,Win32,144.9275362,,,,,,,,,,,,117.0044,0.0,117.0046,,,,119.3142,119.8134,118.8135,119.3141,118.0087,106.0,118.8134,119.8134,120.3131,120.3131,121.4398,815.3,121.44,3.0,122.4357,0.0,17.0,17.0,10.0,1.0,0.8,0.3,Time
,,S05,169207,1,Male,29,anonymized,Serial_Dependence_U,2023.2.3,Win32,144.9275362,,,,,,,,,,,,122.436,0.0,122.436,,,,124.9473,125.4465,124.4465,124.9472,123.442,145.0,124.4465,125.4465,125.9459,125.946,127.6595,1130.7,127.6596,4.0,128.6585,0.0,18.0,18.0,1.0,1.0,1.0,0.3,Time
,,S05,169207,1,Male,29,anonymized,Serial_Dependence_U,2023.2.3,Win32,144.9275362,,,,,,,,,,,,128.6587,0.0,128.6588,,,,131.7736,132.2727,131.2671,131.7735,129.6646,315.0,131.267,132.2727,132.7723,132.7723,135.1853,1678.4,135.1853,3.0,136.1853,0.0,19.0,19.0,29.0,1.0,1.6,0.7,Time
,,S05,169207,1,Male,29,anonymized,Serial_Dependence_U,2023.2.3,Win32,144.9275362,,,,,,,,,,,,136.1856,0.0,136.1857,,,,139.3005,139.7996,138.794,139.3004,137.1916,106.0,138.7939,139.7996,140.2991,140.2992,142.0805,1400.8,142.0806,2.0,143.0809,0.0,20.0,20.0,24.0,1.0,1.6,0.3,Time
,,S05,169207,1,Male,29,anonymized,Serial_Dependence_U,2023.2.3,Win32,144.9275362,,,,,,,,,,,,143.0812,0.0,143.0813,,,,145.9947,146.494,145.4884,145.9947,144.0872,359.0,145.4883,146.494,146.9935,146.9936,148.6518,1346.0,148.6519,3.0,149.6508,0.0,21.0,21.0,13.0,1.0,1.4,0.3,Time
,,S05,169207,1,Male,29,anonymized,Serial_Dependence_U,2023.2.3,Win32,144.9275362,,,,,,,,,,,,149.6513,0.0,149.6515,,,,152.3708,152.87,151.8642,152.3706,150.6572,174.0,151.8639,152.87,153.3694,153.3695,154.9233,1138.1,154.9236,2.0,155.9218,0.0,22.0,22.0,12.0,1.0,1.2,0.3,Time
,,S05,169207,1,Male,29,anonymized,Serial_Dependence_U,2023.2.3,Win32,144.9275362,,,,,,,,,,,,155.9221,0.0,155.9222,,,,158.8356,159.3349,158.3292,158.8355,156.928,153.0,158.3292,159.3349,159.8344,159.8345,160.2853,22.40000001,160.2854,1.0,161.2843,0.0,23.0,23.0,28.0,1.0,1.4,0.7,Time
,,S05,169207,1,Male,29,anonymized,Serial_Dependence_U,2023.2.3,Win32,144.9275362,,,,,,,,,,,,161.2846,0.0,161.2848,,,,164.004,164.5033,163.4981,164.0039,162.2903,210.0,163.498,164.5033,165.0028,165.0028,166.6668,1144.2,166.6669,3.0,167.6667,0.0,24.0,24.0,7.0,1.0,1.2,0.7,Time
,,S05,169207,1,Male,29,anonymized,Serial_Dependence_U,2023.2.3,Win32,144.9275362,,,,,,,,,,,,167.6671,0.0,167.6672,,,,170.7807,171.2787,170.2754,170.7807,168.6717,114.0,170.2753,171.2788,171.7782,171.7783,173.6545,1388.8,173.6547,2.0,174.6524,0.0,25.0,25.0,19.0,1.0,1.6,0.7,Time
,,S05,169207,1,Male,29,anonymized,Serial_Dependence_U,2023.2.3,Win32,144.9275362,,,,,,,,,,,,174.6527,0.0,174.6528,,,,177.7605,178.2598,177.2596,177.7603,175.6586,312.0,177.2596,178.2598,178.7592,178.7592,180.6477,1389.7,180.6479,2.0,181.6451,0.0,26.0,26.0,4.0,1.0,1.6,0.3,Time
,,S05,169207,1,Male,29,anonymized,Serial_Dependence_U,2023.2.3,Win32,144.9275362,,,,,,,,,,,,181.6454,0.0,181.6455,,,,184.3647,184.8641,183.8584,184.3646,182.6513,126.0,183.8583,184.8641,185.3635,185.3636,187.0089,1131.5,187.0091,2.0,188.0066,0.0,27.0,27.0,2.0,1.0,1.2,0.3,Time
,,S05,169207,1,Male,29,anonymized,Serial_Dependence_U,2023.2.3,Win32,144.9275362,,,,,,,,,,,,188.0069,0.0,188.007,,,,190.9207,191.4199,190.4139,190.9206,189.0128,279.0,190.4138,191.4199,191.9193,191.9194,193.6874,1470.4,193.6876,4.0,194.6872,0.0,28.0,28.0,18.0,1.0,1.4,0.7,Time
,,S05,169207,1,Male,29,anonymized,Serial_Dependence_U,2023.2.3,Win32,144.9275362,,,,,,,,,,,,194.6874,0.0,194.6876,,,,197.1988,197.6981,196.6981,197.1988,195.6935,208.0,196.698,197.6981,198.1976,198.1976,199.5979,915.4,199.598,2.0,200.5979,0.0,29.0,29.0,6.0,1.0,1.0,0.7,Time
,,S05,169207,1,Male,29,anonymized,Serial_Dependence_U,2023.2.3,Win32,144.9275362,,,,,,,,,,,,200.5982,1.0,204.2814,s,3.6669,,206.5988,207.0981,206.0924,206.5987,205.2865,50.0,206.0924,207.0981,207.5975,207.5975,208.5745,727.8,208.5746,2.0,209.5745,1.0,0.0,30.0,5.0,1.0,0.8,0.7,Time
,,S05,169207,1,Male,29,anonymized,Serial_Dependence_U,2023.2.3,Win32,144.9275362,,,,,,,,,,,,209.5748,1.0,209.5765,,,,212.2943,212.7936,211.7879,212.2943,210.5808,345.0,211.7879,212.7936,213.293,213.293,214.7765,1213.6,214.7766,3.0,215.7766,1.0,1.0,31.0,2.0,1.0,1.2,0.3,Time
,,S05,169207,1,Male,29,anonymized,Serial_Dependence_U,2023.2.3,Win32,144.9275362,,,,,,,,,,,,215.7769,1.0,215.777,,,,218.6905,219.1897,218.1841,218.6904,216.7827,218.0,218.184,219.1897,219.6891,219.6891,221.3326,1394.4,221.3327,3.0,222.3323,1.0,2.0,32.0,8.0,1.0,1.4,0.7,Time
,,S05,169207,1,Male,29,anonymized,Serial_Dependence_U,2023.2.3,Win32,144.9275362,,,,,,,,,,,,222.3326,1.0,222.3327,,,,224.8494,225.3476,224.3443,224.8493,223.3372,4.0,224.3442,225.3476,225.8471,225.8472,227.2774,1151.3,227.2775,4.0,228.2775,1.0,3.0,33.0,11.0,1.0,1.0,0.3,Time
,,S05,169207,1,Male,29,anonymized,Serial_Dependence_U,2023.2.3,Win32,144.9275362,,,,,,,,,,,,228.2778,1.0,228.2779,,,,230.997,231.4963,230.4905,230.9968,229.2835,149.0,230.4904,231.4963,231.9958,231.9958,233.6815,1200.4,233.6816,3.0,234.6805,1.0,4.0,34.0,12.0,1.0,1.2,0.3,Time
,,S05,169207,1,Male,29,anonymized,Serial_Dependence_U,2023.2.3,Win32,144.9275362,,,,,,,,,,,,234.6807,1.0,234.6809,,,,237.1989,237.6982,236.6927,237.1987,235.6866,326.0,236.6926,237.6982,238.1976,238.1976,239.599,928.7,239.5991,2.0,240.598,1.0,5.0,35.0,26.0,1.0,1.0,0.7,Time
,,S05,169207,1,Male,29,anonymized,Serial_Dependence_U,2023.2.3,Win32,144.9275362,,,,,,,,,,,,240.5982,1.0,240.5983,,,,243.713,244.2122,243.2066,243.7128,241.6041,129.0,243.2064,244.2123,244.7117,244.7118,246.5985,1623.1,246.5986,3.0,247.5976,1.0,6.0,36.0,4.0,1.0,1.6,0.3,Time
,,S05,169207,1,Male,29,anonymized,Serial_Dependence_U,2023.2.3,Win32,144.9275362,,,,,,,,,,,,247.5979,1.0,247.598,,,,250.3172,250.8165,249.8107,250.3171,248.6037,158.0,249.8107,250.8165,251.316,251.3161,252.7312,1137.4,252.7312,2.0,253.7302,1.0,7.0,37.0,22.0,1.0,1.2,0.3,Time
,,S05,169207,1,Male,29,anonymized,Serial_Dependence_U,2023.2.3,Win32,144.9275362,,,,,,,,,,,,253.7304,1.0,253.7305,,,,256.8389,257.3377,256.3378,256.8388,254.7365,205.0,256.3377,257.3377,257.8372,257.8373,259.7918,1414.1,259.7921,2.0,260.7924,1.0,8.0,38.0,14.0,1.0,1.6,0.3,Time
,,S05,169207,1,Male,29,anonymized,Serial_Dependence_U,2023.2.3,Win32,144.9275362,,,,,,,,,,,,260.7929,1.0,260.7929,,,,263.1098,263.609,262.6023,263.1098,261.7969,353.0,262.6022,263.609,264.1085,264.1086,265.3283,963.4,265.3285,4.0,266.3261,1.0,9.0,39.0,20.0,1.0,0.8,0.3,Time
,,S05,169207,1,Male,29,anonymized,Serial_Dependence_U,2023.2.3,Win32,144.9275362,,,,,,,,,,,,266.3267,1.0,266.3269,,,,268.6445,269.1427,268.1394,268.6445,267.3346,326.0,268.1393,269.1427,269.6422,269.6423,270.6774,741.1,270.6775,2.0,271.6771,1.0,10.0,40.0,10.0,1.0,0.8,0.3,Time
,,S05,169207,1,Male,29,anonymized,Serial_Dependence_U,2023.2.3,Win32,144.9275362,,,,,,,,,,,,271.6774,1.0,271.6776,,,,274.5908,275.0902,274.0846,274.5907,272.6822,218.0,274.0845,275.0902,275.5897,275.5898,277.0742,1296.5,277.0743,2.0,278.0732,1.0,11.0,41.0,23.0,1.0,1.4,0.3,Time
,,S05,169207,1,Male,29,anonymized,Serial_Dependence_U,2023.2.3,Win32,144.9275362,,,,,,,,,,,,278.0736,1.0,278.0737,,,,280.9801,281.4792,280.4792,280.98,279.0782,231.0,280.4791,281.4792,281.9787,281.9788,283.2607,1012.3,283.2608,2.0,284.2611,1.0,12.0,42.0,28.0,1.0,1.4,0.7,Time
,,S05,169207,1,Male,29,anonymized,Serial_Dependence_U,2023.2.3,Win32,144.9275362,,,,,,,,,,,,284.2613,1.0,284.2614,,,,287.175,287.6741,286.6686,287.175,285.2673,279.0,286.6685,287.6741,288.1737,288.1737,289.8109,1387.2,289.8111,3.0,290.8098,1.0,13.0,43.0,13.0,1.0,1.4,0.3,Time
,,S05,169207,1,Male,29,anonymized,Serial_Dependence_U,2023.2.3,Win32,144.9275362,,,,,,,,,,,,290.81,1.0,290.8101,,,,293.1252,293.6264,292.6206,293.1251,291.8159,163.0,292.6205,293.6264,294.1259,294.1259,295.2289,854.4,295.229,4.0,296.2278,1.0,14.0,44.0,25.0,1.0,0.8,0.7,Time
,,S05,169207,1,Male,29,anonymized,Serial_Dependence_U,2023.2.3,Win32,144.9275362,,,,,,,,,,,,296.228,1.0,296.2281,,,,298.7462,299.2455,298.2398,298.7462,297.2339,347.0,298.2397,299.2455,299.7449,299.7451,301.0631,902.2,301.0634,2.0,302.062,1.0,15.0,45.0,16.0,1.0,1.0,0.7,Time
,,S05,169207,1,Male,29,anonymized,Serial_Dependence_U,2023.2.3,Win32,144.9275362,,,,,,,,,,,,302.0624,1.0,302.0624,,,,304.7817,305.281,304.2752,304.7816,303.0682,275.0,304.2751,305.2811,305.7803,305.7803,307.1609,1144.4,307.161,3.0,308.1598,1.0,16.0,46.0,7.0,1.0,1.2,0.7,Time
,,S05,169207,1,Male,29,anonymized,Serial_Dependence_U,2023.2.3,Win32,144.9275362,,,,,,,,,,,,308.1602,1.0,308.1603,,,,311.0671,311.5662,310.5663,311.0671,309.165,79.0,310.5662,311.5662,312.0658,312.0658,313.6454,1254.5,313.6457,2.0,314.6462,1.0,17.0,47.0,3.0,1.0,1.4,0.3,Time
,,S05,169207,1,Male,29,anonymized,Serial_Dependence_U,2023.2.3,Win32,144.9275362,,,,,,,,,,,,314.6464,1.0,314.6466,,,,317.1578,317.657,316.657,317.1577,315.6527,41.0,316.6569,317.657,318.1565,318.1565,319.4053,1005.6,319.4055,3.0,320.4042,1.0,18.0,48.0,21.0,1.0,1.0,0.3,Time
,,S05,169207,1,Male,29,anonymized,Serial_Dependence_U,2023.2.3,Win32,144.9275362,,,,,,,,,,,,320.4045,1.0,320.4046,,,,323.5194,324.0184,323.0128,323.5192,321.4103,265.0,323.0127,324.0184,324.518,324.518,324.9203,62.0,324.9205,1.0,325.9194,1.0,19.0,49.0,9.0,1.0,1.6,0.7,Time
,,S05,169207,1,Male,29,anonymized,Serial_Dependence_U,2023.2.3,Win32,144.9275362,,,,,,,,,,,,325.9196,1.0,325.9197,,,,329.0276,329.5268,328.5214,329.0275,326.9198,21.0,328.5212,329.5269,330.0262,330.0262,331.5933,1247.7,331.5935,2.0,332.593,1.0,20.0,50.0,24.0,1.0,1.6,0.3,Time
,,S05,169207,1,Male,29,anonymized,Serial_Dependence_U,2023.2.3,Win32,144.9275362,,,,,,,,,,,,332.5934,1.0,332.5936,,,,335.1064,335.6039,334.6051,335.1063,333.5992,134.0,334.6051,335.6039,336.1033,336.1035,337.4109,1003.6,337.4112,3.0,338.4064,1.0,21.0,51.0,6.0,1.0,1.0,0.7,Time
,,S05,169207,1,Male,29,anonymized,Serial_Dependence_U,2023.2.3,Win32,144.9275362,,,,,,,,,,,,338.4066,1.0,338.4068,,,,340.7236,341.2228,340.2172,340.7236,339.4125,354.0,340.2171,341.2228,341.7223,341.7224,342.5758,575.6,342.5761,2.0,343.5746,1.0,22.0,52.0,0.0,1.0,0.8,0.3,Time
,,S05,169207,1,Male,29,anonymized,Serial_Dependence_U,2023.2.3,Win32,144.9275362,,,,,,,,,,,,343.5749,1.0,343.575,,,,346.6886,347.1868,346.1834,346.6885,344.5756,179.0,346.1833,347.1868,347.6861,347.6861,349.2414,1283.1,349.2415,2.0,350.2391,1.0,23.0,53.0,29.0,1.0,1.6,0.7,Time
,,S05,169207,1,Male,29,anonymized,Serial_Dependence_U,2023.2.3,Win32,144.9275362,,,,,,,,,,,,350.2394,1.0,350.2396,,,,353.1484,353.6476,352.642,353.1483,351.2393,289.0,352.6419,353.6477,354.1471,354.1471,355.7902,1373.2,355.7904,3.0,356.7901,1.0,24.0,54.0,18.0,1.0,1.4,0.7,Time
,,S05,169207,1,Male,29,anonymized,Serial_Dependence_U,2023.2.3,Win32,144.9275362,,,,,,,,,,,,356.7905,1.0,356.7907,,,,359.3074,359.8056,358.801,359.3073,357.7951,228.0,358.801,359.8056,360.305,360.305,361.6106,970.9,361.6107,3.0,362.6082,1.0,25.0,55.0,1.0,1.0,1.0,0.3,Time
,,S05,169207,1,Male,29,anonymized,Serial_Dependence_U,2023.2.3,Win32,144.9275362,,,,,,,,,,,,362.6084,1.0,362.6086,,,,364.9196,365.4178,364.4131,364.9196,363.6085,137.0,364.4131,365.4179,365.9173,365.9173,366.9591,735.2,366.9592,2.0,367.9591,1.0,26.0,56.0,15.0,1.0,0.8,0.7,Time
,,S05,169207,1,Male,29,anonymized,Serial_Dependence_U,2023.2.3,Win32,144.9275362,,,,,,,,,,,,367.9594,1.0,367.9594,,,,371.0741,371.5734,370.5676,371.0739,368.9651,5.0,370.5675,371.5734,372.0728,372.0729,373.7031,1366.6,373.7033,2.0,374.7021,1.0,27.0,57.0,19.0,1.0,1.6,0.7,Time
,,S05,169207,1,Male,29,anonymized,Serial_Dependence_U,2023.2.3,Win32,144.9275362,,,,,,,,,,,,374.7024,1.0,374.7025,,,,377.4205,377.9187,376.9156,377.4204,375.7082,292.0,376.9155,377.9187,378.4136,378.4136,380.0163,1338.9,380.0165,4.0,381.0152,1.0,28.0,58.0,27.0,1.0,1.2,0.7,Time
,,S05,169207,1,Male,29,anonymized,Serial_Dependence_U,2023.2.3,Win32,144.9275362,,,,,,,,,,,,381.0156,1.0,381.0158,,,,383.7333,384.2314,383.2275,383.7333,382.0204,68.0,383.2273,384.2315,384.731,384.731,386.2586,1297.1,386.2587,4.0,387.2563,1.0,29.0,59.0,17.0,1.0,1.2,0.7,Time
,,S05,169207,1,Male,29,anonymized,Serial_Dependence_U,2023.2.3,Win32,144.9275362,,,,,,,,,,,,387.2565,2.0,388.9441,s,1.6717,,391.2545,391.7538,390.7537,391.2544,389.9503,311.0,390.7537,391.7538,392.2534,392.2534,393.5089,1054.8,393.509,5.0,394.5079,2.0,0.0,60.0,20.0,1.0,0.8,0.3,Time
,,S05,169207,1,Male,29,anonymized,Serial_Dependence_U,2023.2.3,Win32,144.9275362,,,,,,,,,,,,394.5082,2.0,394.5098,,,,397.2275,397.7268,396.7209,397.2274,395.5149,309.0,396.7209,397.7268,398.2263,398.2263,399.6206,1221.4,399.6207,3.0,400.6196,2.0,1.0,61.0,7.0,1.0,1.2,0.7,Time
,,S05,169207,1,Male,29,anonymized,Serial_Dependence_U,2023.2.3,Win32,144.9275362,,,,,,,,,,,,400.6199,2.0,400.62,,,,403.3392,403.8385,402.8327,403.3391,401.6257,135.0,402.8327,403.8385,404.338,404.338,405.5921,1026.0,405.5923,2.0,406.5925,2.0,2.0,62.0,27.0,1.0,1.2,0.7,Time
,,S05,169207,1,Male,29,anonymized,Serial_Dependence_U,2023.2.3,Win32,144.9275362,,,,,,,,,,,,406.5928,2.0,406.5929,,,,409.3122,409.8114,408.8057,409.3121,407.5986,237.0,408.8056,409.8115,410.3109,410.3109,411.2948,960.5,411.2948,2.0,412.2927,2.0,3.0,63.0,12.0,1.0,1.2,0.3,Time
,,S05,169207,1,Male,29,anonymized,Serial_Dependence_U,2023.2.3,Win32,144.9275362,,,,,,,,,,,,412.2929,2.0,412.2931,,,,415.0077,415.5069,414.5014,415.0075,413.2942,315.0,414.5012,415.5069,416.0065,416.0065,417.3756,1120.4,417.3757,2.0,418.3721,2.0,4.0,64.0,17.0,1.0,1.2,0.7,Time
,,S05,169207,1,Male,29,anonymized,Serial_Dependence_U,2023.2.3,Win32,144.9275362,,,,,,,,,,,,418.3724,2.0,418.3725,,,,421.4871,421.9864,420.9807,421.487,419.3781,352.0,420.9805,421.9864,422.4858,422.4859,424.1645,1478.1,424.1647,2.0,425.1635,2.0,5.0,65.0,19.0,1.0,1.6,0.7,Time
,,S05,169207,1,Male,29,anonymized,Serial_Dependence_U,2023.2.3,Win32,144.9275362,,,,,,,,,,,,425.1637,2.0,425.1638,,,,428.0774,428.5768,427.571,428.0774,426.1688,94.0,427.5709,428.5768,429.0762,429.0763,430.7551,1547.1,430.7553,4.0,431.7541,2.0,6.0,66.0,8.0,1.0,1.4,0.7,Time
,,S05,169207,1,Male,29,anonymized,Serial_Dependence_U,2023.2.3,Win32,144.9275362,,,,,,,,,,,,431.7543,2.0,431.7544,,,,434.0712,434.5706,433.5648,434.0711,432.7601,27.0,433.5647,434.5706,435.07,435.07,436.1037,866.3,436.1038,4.0,437.1027,2.0,7.0,67.0,5.0,1.0,0.8,0.7,Time
,,S05,169207,1,Male,29,anonymized,Serial_Dependence_U,2023.2.3,Win32,144.9275362,,,,,,,,,,,,437.1029,2.0,437.1031,,,,440.0165,440.5156,439.5101,440.0164,438.1087,59.0,439.5099,440.5158,441.0153,441.0153,442.4096,1082.1,442.4097,2.0,443.4086,2.0,8.0,68.0,28.0,1.0,1.4,0.7,Time
,,S05,169207,1,Male,29,anonymized,Serial_Dependence_U,2023.2.3,Win32,144.9275362,,,,,,,,,,,,443.4088,2.0,443.4089,,,,446.524,447.0229,446.0175,446.5238,444.4152,170.0,446.0174,447.0229,447.5224,447.5224,449.5334,1699.2,449.5334,4.0,450.5333,2.0,9.0,69.0,4.0,1.0,1.6,0.3,Time
,,S05,169207,1,Male,29,anonymized,Serial_Dependence_U,2023.2.3,Win32,144.9275362,,,,,,,,,,,,450.5337,2.0,450.5338,,,,453.4475,453.9465,452.9411,453.4475,451.5394,32.0,452.9409,453.9466,454.4461,454.4462,455.7781,1207.1,455.7784,2.0,456.7768,2.0,10.0,70.0,13.0,1.0,1.4,0.3,Time
,,S05,169207,1,Male,29,anonymized,Serial_Dependence_U,2023.2.3,Win32,144.9275362,,,,,,,,,,,,456.7773,2.0,456.7774,,,,459.6909,460.1897,459.1845,459.6908,457.7832,179.0,459.1844,460.1897,460.6896,460.6896,461.6457,942.9,461.6458,1.0,462.6458,2.0,11.0,71.0,23.0,1.0,1.4,0.3,Time
,,S05,169207,1,Male,29,anonymized,Serial_Dependence_U,2023.2.3,Win32,144.9275362,,,,,,,,,,,,462.6461,2.0,462.6463,,,,465.163,465.6612,464.6566,465.1629,463.6508,201.0,464.6565,465.6612,466.1607,466.1607,467.494,922.5,467.4941,2.0,468.4939,2.0,12.0,72.0,16.0,1.0,1.0,0.7,Time
,,S05,169207,1,Male,29,anonymized,Serial_Dependence_U,2023.2.3,Win32,144.9275362,,,,,,,,,,,,468.4941,2.0,468.4943,,,,471.0111,471.5116,470.5048,471.011,469.4988,104.0,470.5048,471.5116,472.011,472.011,472.9605,686.3,472.9606,1.0,473.9604,2.0,13.0,73.0,11.0,1.0,1.0,0.3,Time
,,S05,169207,1,Male,29,anonymized,Serial_Dependence_U,2023.2.3,Win32,144.9275362,,,,,,,,,,,,473.9608,2.0,473.9609,,,,476.6794,477.1794,476.1724,476.6793,474.9666,156.0,476.1724,477.1794,477.6788,477.6788,479.1209,1171.5,479.121,3.0,480.1207,2.0,14.0,74.0,22.0,1.0,1.2,0.3,Time
,,S05,169207,1,Male,29,anonymized,Serial_Dependence_U,2023.2.3,Win32,144.9275362,,,,,,,,,,,,480.1211,2.0,480.1212,,,,483.236,483.7351,482.7295,483.2359,481.1256,258.0,482.7294,483.7351,484.2345,484.2345,486.0029,1490.9,486.0032,2.0,487.0024,2.0,15.0,75.0,14.0,1.0,1.6,0.3,Time
,,S05,169207,1,Male,29,anonymized,Serial_Dependence_U,2023.2.3,Win32,144.9275362,,,,,,,,,,,,487.0026,2.0,487.0027,,,,490.1174,490.6166,489.6112,490.1173,488.0084,336.0,489.6111,490.6166,491.1162,491.1162,492.9546,1650.6,492.9547,3.0,493.9535,2.0,16.0,76.0,29.0,1.0,1.6,0.7,Time
,,S05,169207,1,Male,29,anonymized,Serial_Dependence_U,2023.2.3,Win32,144.9275362,,,,,,,,,,,,493.9537,2.0,493.9539,,,,496.472,496.9712,495.9656,496.4719,494.9596,201.0,495.9655,496.9712,497.4707,497.4707,498.6709,985.2,498.671,3.0,499.6698,2.0,17.0,77.0,21.0,1.0,1.0,0.3,Time
,,S05,169207,1,Male,29,anonymized,Serial_Dependence_U,2023.2.3,Win32,144.9275362,,,,,,,,,,,,499.67,2.0,499.6701,,,,501.9871,502.4863,501.4808,501.9869,500.6759,202.0,501.4806,502.4864,502.9858,502.9858,504.5386,1317.8,504.5386,5.0,505.5387,2.0,18.0,78.0,25.0,1.0,0.8,0.7,Time
,,S05,169207,1,Male,29,anonymized,Serial_Dependence_U,2023.2.3,Win32,144.9275362,,,,,,,,,,,,505.539,2.0,505.5391,,,,508.6538,509.153,508.1475,508.6537,506.5449,168.0,508.1474,509.153,509.6525,509.6525,511.0513,1141.9,511.0514,2.0,512.053,2.0,19.0,79.0,9.0,1.0,1.6,0.7,Time
,,S05,169207,1,Male,29,anonymized,Serial_Dependence_U,2023.2.3,Win32,144.9275362,,,,,,,,,,,,512.0533,2.0,512.0534,,,,514.5703,515.0683,514.0638,514.5702,513.058,167.0,514.0638,515.0683,515.5677,515.5677,516.6647,922.3,516.6648,2.0,517.665,2.0,20.0,80.0,26.0,1.0,1.0,0.7,Time
,,S05,169207,1,Male,29,anonymized,Serial_Dependence_U,2023.2.3,Win32,144.9275362,,,,,,,,,,,,517.6653,2.0,517.6654,,,,520.1833,520.6827,519.6769,520.1833,518.6711,169.0,519.6768,520.6827,521.1822,521.1823,522.6378,1240.9,522.638,4.0,523.638,2.0,21.0,81.0,1.0,1.0,1.0,0.3,Time
,,S05,169207,1,Male,29,anonymized,Serial_Dependence_U,2023.2.3,Win32,144.9275362,,,,,,,,,,,,523.6383,2.0,523.6383,,,,526.5518,527.0512,526.0454,526.5517,524.6428,260.0,526.0452,527.0512,527.5506,527.5506,528.8303,1079.4,528.8305,2.0,529.826,2.0,22.0,82.0,3.0,1.0,1.4,0.3,Time
,,S05,169207,1,Male,29,anonymized,Serial_Dependence_U,2023.2.3,Win32,144.9275362,,,,,,,,,,,,529.8263,2.0,529.8264,,,,532.3445,532.8437,531.838,532.3444,530.8322,128.0,531.8379,532.8437,533.3431,533.3432,534.4375,887.3,534.4376,2.0,535.4382,2.0,23.0,83.0,6.0,1.0,1.0,0.7,Time
,,S05,169207,1,Male,29,anonymized,Serial_Dependence_U,2023.2.3,Win32,144.9275362,,,,,,,,,,,,535.4385,2.0,535.4386,,,,538.5532,539.0525,538.0468,538.5531,536.4445,56.0,538.0467,539.0525,539.552,539.5522,539.9481,152.9,539.9481,1.0,540.9465,2.0,24.0,84.0,24.0,1.0,1.6,0.3,Time
,,S05,169207,1,Male,29,anonymized,Serial_Dependence_U,2023.2.3,Win32,144.9275362,,,,,,,,,,,,540.9467,2.0,540.9468,,,,543.2638,543.7629,542.7572,543.2635,541.9526,317.0,542.7571,543.763,544.2625,544.2626,545.5071,1044.5,545.5072,5.0,546.5032,2.0,25.0,85.0,0.0,1.0,0.8,0.3,Time
,,S05,169207,1,Male,29,anonymized,Serial_Dependence_U,2023.2.3,Win32,144.9275362,,,,,,,,,,,,546.5035,2.0,546.5036,,,,549.417,549.9163,548.9105,549.4169,547.5093,35.0,548.9104,549.9163,550.4157,550.4158,551.838,1171.5,551.838,2.0,552.8368,2.0,26.0,86.0,18.0,1.0,1.4,0.7,Time
,,S05,169207,1,Male,29,anonymized,Serial_Dependence_U,2023.2.3,Win32,144.9275362,,,,,,,,,,,,552.8371,2.0,552.8372,,,,555.1471,555.6464,554.6463,555.147,553.8415,192.0,554.6463,555.6464,556.1459,556.1459,557.0963,714.2,557.0964,2.0,558.0953,2.0,27.0,87.0,15.0,1.0,0.8,0.7,Time
,,S05,169207,1,Male,29,anonymized,Serial_Dependence_U,2023.2.3,Win32,144.9275362,,,,,,,,,,,,558.0955,2.0,558.0957,,,,560.8141,561.3121,560.3088,560.8141,559.1014,140.0,560.3088,561.3121,561.8116,561.8117,563.2775,1208.0,563.2777,3.0,564.2764,2.0,28.0,88.0,2.0,1.0,1.2,0.3,Time
,,S05,169207,1,Male,29,anonymized,Serial_Dependence_U,2023.2.3,Win32,144.9275362,,,,,,,,,,,,564.2767,2.0,564.2767,,,,566.5938,567.093,566.0873,566.5937,565.2829,44.0,566.0872,567.093,567.5924,567.5924,568.8649,1008.7,568.8649,4.0,569.8609,2.0,29.0,89.0,10.0,1.0,0.8,0.3,Time
,,S05,169207,1,Male,29,anonymized,Serial_Dependence_U,2023.2.3,Win32,144.9275362,,,,,,,,,,,,569.8613,3.0,571.6021,s,1.7273,,574.5161,575.0151,574.0097,574.516,572.6083,174.0,574.0096,575.0151,575.5147,575.5147,576.8781,1339.7,576.8783,3.0,577.8735,3.0,0.0,90.0,3.0,1.0,1.4,0.3,Time
,,S05,169207,1,Male,29,anonymized,Serial_Dependence_U,2023.2.3,Win32,144.9275362,,,,,,,,,,,,577.8738,3.0,577.875,,,,580.1908,580.69,579.6844,580.1907,578.8796,357.0,579.6843,580.69,581.1895,581.1896,582.081,879.1,582.0811,4.0,583.0764,3.0,1.0,91.0,5.0,1.0,0.8,0.7,Time
,,S05,169207,1,Male,29,anonymized,Serial_Dependence_U,2023.2.3,Win32,144.9275362,,,,,,,,,,,,583.0767,3.0,583.0768,,,,585.9902,586.4895,585.4839,585.9902,584.0825,216.0,585.4838,586.4895,586.989,586.989,588.2128,1202.4,588.2129,2.0,589.209,3.0,2.0,92.0,28.0,1.0,1.4,0.7,Time
,,S05,169207,1,Male,29,anonymized,Serial_Dependence_U,2023.2.3,Win32,144.9275362,,,,,,,,,,,,589.2093,3.0,589.2094,,,,592.1228,592.6221,591.6165,592.1228,590.2151,217.0,591.6164,592.6221,593.1216,593.1217,594.6158,1481.1,594.6159,4.0,595.612,3.0,3.0,93.0,13.0,1.0,1.4,0.3,Time
,,S05,169207,1,Male,29,anonymized,Serial_Dependence_U,2023.2.3,Win32,144.9275362,,,,,,,,,,,,595.6122,3.0,595.6124,,,,598.1304,598.6297,597.6241,598.1304,596.6182,244.0,597.624,598.6297,599.1293,599.1293,600.4319,942.9,600.4321,2.0,601.4324,3.0,4.0,94.0,21.0,1.0,1.0,0.3,Time
,,S05,169207,1,Male,29,anonymized,Serial_Dependence_U,2023.2.3,Win32,144.9275362,,,,,,,,,,,,601.4326,3.0,601.4328,,,,603.744,604.2419,603.2397,603.7439,602.4371,95.0,603.2396,604.242,604.7414,604.7415,605.6976,943.1,605.6977,4.0,606.6977,3.0,5.0,95.0,10.0,1.0,0.8,0.3,Time
,,S05,169207,1,Male,29,anonymized,Serial_Dependence_U,2023.2.3,Win32,144.9275362,,,,,,,,,,,,606.6979,3.0,606.6981,,,,609.8129,610.3121,609.3064,609.8128,607.7028,20.0,609.3063,610.3121,610.8114,610.8114,612.3309,1489.6,612.331,2.0,613.3298,3.0,6.0,96.0,24.0,1.0,1.6,0.3,Time
,,S05,169207,1,Male,29,anonymized,Serial_Dependence_U,2023.2.3,Win32,144.9275362,,,,,,,,,,,,613.3301,3.0,613.3302,,,,616.2436,616.7429,615.7372,616.2435,614.3359,24.0,615.7371,616.7429,617.2424,617.2424,618.5084,1252.7,618.5086,2.0,619.5039,3.0,7.0,97.0,8.0,1.0,1.4,0.7,Time
,,S05,169207,1,Male,29,anonymized,Serial_Dependence_U,2023.2.3,Win32,144.9275362,,,,,,,,,,,,619.5041,3.0,619.5042,,,,622.618,623.1159,622.1117,622.6179,620.51,287.0,622.1116,623.116,623.6154,623.6154,625.0361,1385.1,625.0363,2.0,626.0318,3.0,8.0,98.0,29.0,1.0,1.6,0.7,Time
,,S05,169207,1,Male,29,anonymized,Serial_Dependence_U,2023.2.3,Win32,144.9275362,,,,,,,,,,,,626.0319,3.0,626.032,,,,628.7517,629.2507,628.2502,628.7516,627.0379,108.0,628.2502,629.2507,629.7502,629.7502,630.8308,1068.0,630.8309,2.0,631.8314,3.0,9.0,99.0,27.0,1.0,1.2,0.7,Time
,,S05,169207,1,Male,29,anonymized,Serial_Dependence_U,2023.2.3,Win32,144.9275362,,,,,,,,,,,,631.8317,3.0,631.8318,,,,634.1486,634.6479,633.6422,634.1485,632.8375,240.0,633.6421,634.6479,635.1474,635.1474,636.8543,1366.9,636.8545,5.0,637.8527,3.0,10.0,100.0,0.0,1.0,0.8,0.3,Time
,,S05,169207,1,Male,29,anonymized,Serial_Dependence_U,2023.2.3,Win32,144.9275362,,,,,,,,,,,,637.853,3.0,637.853,,,,640.7668,641.2661,640.2604,640.7668,638.8589,11.0,640.2603,641.2661,641.7655,641.7655,642.9726,1189.3,642.9727,2.0,643.9716,3.0,11.0,101.0,18.0,1.0,1.4,0.7,Time
,,S05,169207,1,Male,29,anonymized,Serial_Dependence_U,2023.2.3,Win32,144.9275362,,,,,,,,,,,,643.9719,3.0,643.972,,,,646.4899,646.9892,645.9836,646.4898,644.9777,7.0,645.9836,646.9892,647.4888,647.4888,648.7444,1240.6,648.7444,4.0,649.7435,3.0,12.0,102.0,11.0,1.0,1.0,0.3,Time
,,S05,169207,1,Male,29,anonymized,Serial_Dependence_U,2023.2.3,Win32,144.9275362,,,,,,,,,,,,649.7437,3.0,649.7439,,,,652.8584,653.3577,652.352,652.8583,650.7495,87.0,652.3518,653.3577,653.8618,653.8618,655.2061,1328.6,655.2062,2.0,656.2021,3.0,13.0,103.0,9.0,1.0,1.6,0.7,Time
,,S05,169207,1,Male,29,anonymized,Serial_Dependence_U,2023.2.3,Win32,144.9275362,,,,,,,,,,,,656.2023,3.0,656.2024,,,,658.7167,659.2126,658.2141,658.7165,657.2082,50.0,658.214,659.2126,659.7122,659.7122,660.7127,987.4,660.7128,3.0,661.7102,3.0,14.0,104.0,1.0,1.0,1.0,0.3,Time
,,S05,169207,1,Male,29,anonymized,Serial_Dependence_U,2023.2.3,Win32,144.9275362,,,,,,,,,,,,661.7105,3.0,661.7106,,,,664.2201,664.7209,663.7184,664.2201,662.7162,13.0,663.7183,664.7209,665.2204,665.2205,666.476,1242.6,666.4762,4.0,667.4752,3.0,15.0,105.0,26.0,1.0,1.0,0.7,Time
,,S05,169207,1,Male,29,anonymized,Serial_Dependence_U,2023.2.3,Win32,144.9275362,,,,,,,,,,,,667.4754,3.0,667.4755,,,,669.9933,670.4926,669.487,669.9933,668.4814,198.0,669.4868,670.4927,670.9922,670.9922,671.9496,916.0,671.9496,2.0,672.9485,3.0,16.0,106.0,6.0,1.0,1.0,0.7,Time
,,S05,169207,1,Male,29,anonymized,Serial_Dependence_U,2023.2.3,Win32,144.9275362,,,,,,,,,,,,672.9488,3.0,672.9489,,,,675.2613,675.7581,674.7593,675.2612,673.9546,341.0,674.7592,675.7582,676.2576,676.2576,677.416,1145.3,677.4162,5.0,678.4151,3.0,17.0,107.0,15.0,1.0,0.8,0.7,Time
,,S05,169207,1,Male,29,anonymized,Serial_Dependence_U,2023.2.3,Win32,144.9275362,,,,,,,,,,,,678.4154,3.0,678.4155,,,,681.5302,682.0293,681.0238,681.5302,679.4172,126.0,681.0237,682.0293,682.5287,682.5288,683.4705,917.0,683.4707,1.0,684.4714,3.0,18.0,108.0,19.0,1.0,1.6,0.7,Time
,,S05,169207,1,Male,29,anonymized,Serial_Dependence_U,2023.2.3,Win32,144.9275362,,,,,,,,,,,,684.4717,3.0,684.4718,,,,687.1908,687.6901,686.6844,687.1907,685.4774,242.0,686.6844,687.6901,688.1897,688.1897,689.133,922.3,689.1331,2.0,690.132,3.0,19.0,109.0,17.0,1.0,1.2,0.7,Time
,,S05,169207,1,Male,29,anonymized,Serial_Dependence_U,2023.2.3,Win32,144.9275362,,,,,,,,,,,,690.1323,3.0,690.1325,,,,692.8448,693.3439,692.3434,692.8448,691.1321,3.0,692.3433,693.3439,693.8436,693.8436,695.1502,1293.4,695.1503,4.0,696.1467,3.0,20.0,110.0,22.0,1.0,1.2,0.3,Time
,,S05,169207,1,Male,29,anonymized,Serial_Dependence_U,2023.2.3,Win32,144.9275362,,,,,,,,,,,,696.147,3.0,696.147,,,,698.6582,699.1574,698.1517,698.658,697.1476,316.0,698.1516,699.1574,699.6569,699.6569,700.6141,922.4,700.6143,2.0,701.6134,3.0,21.0,111.0,16.0,1.0,1.0,0.7,Time
,,S05,169207,1,Male,29,anonymized,Serial_Dependence_U,2023.2.3,Win32,144.9275362,,,,,,,,,,,,701.6137,3.0,701.6139,,,,704.5274,705.0264,704.0207,704.5272,702.6195,267.0,704.0206,705.0264,705.526,705.526,706.6498,1111.3,706.6499,2.0,707.6487,3.0,22.0,112.0,23.0,1.0,1.4,0.3,Time
,,S05,169207,1,Male,29,anonymized,Serial_Dependence_U,2023.2.3,Win32,144.9275362,,,,,,,,,,,,707.649,3.0,707.6492,,,,710.3684,710.8675,709.8617,710.3684,708.6547,265.0,709.8617,710.8675,711.3671,711.3671,712.6782,1296.7,712.6783,4.0,713.6772,3.0,23.0,113.0,7.0,1.0,1.2,0.7,Time
,,S05,169207,1,Male,29,anonymized,Serial_Dependence_U,2023.2.3,Win32,144.9275362,,,,,,,,,,,,713.6775,3.0,713.6776,,,,715.9926,716.4936,715.4879,715.9926,714.6817,271.0,715.4878,716.4936,716.9933,716.9933,717.5204,513.1,717.5205,1.0,718.5193,3.0,24.0,114.0,20.0,1.0,0.8,0.3,Time
,,S05,169207,1,Male,29,anonymized,Serial_Dependence_U,2023.2.3,Win32,144.9275362,,,,,,,,,,,,718.5195,3.0,718.5197,,,,721.6343,722.1337,721.1281,721.6343,719.5246,344.0,721.1279,722.1337,722.6332,722.6332,723.8888,1241.7,723.8888,2.0,724.8878,3.0,25.0,115.0,14.0,1.0,1.6,0.3,Time
,,S05,169207,1,Male,29,anonymized,Serial_Dependence_U,2023.2.3,Win32,144.9275362,,,,,,,,,,,,724.888,3.0,724.8882,,,,727.6065,728.1044,727.1009,727.6065,725.8938,326.0,727.1008,728.1045,728.604,728.6041,730.0066,1393.6,730.0068,4.0,731.0065,3.0,26.0,116.0,2.0,1.0,1.2,0.3,Time
,,S05,169207,1,Male,29,anonymized,Serial_Dependence_U,2023.2.3,Win32,144.9275362,,,,,,,,,,,,731.0069,3.0,731.0071,,,,734.1201,734.6182,733.6143,734.12,732.0115,332.0,733.6141,734.6182,735.1178,735.1178,736.0944,968.4,736.0945,1.0,737.0905,3.0,27.0,117.0,4.0,1.0,1.6,0.3,Time
,,S05,169207,1,Male,29,anonymized,Serial_Dependence_U,2023.2.3,Win32,144.9275362,,,,,,,,,,,,737.0909,3.0,737.0911,,,,739.8023,740.3,739.296,739.8023,738.0955,288.0,739.2959,740.3,740.7997,740.7997,741.9044,1085.3,741.9046,2.0,742.9038,3.0,28.0,118.0,12.0,1.0,1.2,0.3,Time
,,S05,169207,1,Male,29,anonymized,Serial_Dependence_U,2023.2.3,Win32,144.9275362,,,,,,,,,,,,742.904,3.0,742.9041,,,,745.2211,745.7203,744.7147,745.2209,743.91,216.0,744.7146,745.7203,746.2198,746.2198,747.0896,856.9,747.0897,4.0,748.0861,3.0,29.0,119.0,25.0,1.0,0.8,0.7,Time
,,S05,169207,1,Male,29,anonymized,Serial_Dependence_U,2023.2.3,Win32,144.9275362,,,,,,,,,,,,748.0864,4.0,749.6051,s,1.5051,,752.3217,752.8172,751.8184,752.3216,750.6119,52.0,751.8183,752.8173,753.3169,753.3169,754.309,980.4,754.3092,2.0,755.3074,4.0,0.0,120.0,17.0,1.0,1.2,0.7,Time
,,S05,169207,1,Male,29,anonymized,Serial_Dependence_U,2023.2.3,Win32,144.9275362,,,,,,,,,,,,755.3077,4.0,755.3089,,,,757.8259,758.3253,757.3195,757.8258,756.3136,97.0,757.3195,758.3253,758.8249,758.8249,759.6505,817.2,759.6507,2.0,760.6492,4.0,1.0,121.0,11.0,1.0,1.0,0.3,Time
,,S05,169207,1,Male,29,anonymized,Serial_Dependence_U,2023.2.3,Win32,144.9275362,,,,,,,,,,,,760.6494,4.0,760.6496,,,,763.3606,763.859,762.858,763.3605,761.6554,333.0,762.8578,763.859,764.3586,764.3586,765.5539,1165.1,765.5542,3.0,766.553,4.0,2.0,122.0,22.0,1.0,1.2,0.3,Time
,,S05,169207,1,Male,29,anonymized,Serial_Dependence_U,2023.2.3,Win32,144.9275362,,,,,,,,,,,,766.5532,4.0,766.5534,,,,769.2656,769.7647,768.7593,769.2655,767.5547,347.0,768.7591,769.7647,770.2643,770.2643,772.5259,2248.3,772.5263,5.0,773.5248,4.0,3.0,123.0,2.0,1.0,1.2,0.3,Time
,,S05,169207,1,Male,29,anonymized,Serial_Dependence_U,2023.2.3,Win32,144.9275362,,,,,,,,,,,,773.525,4.0,773.5252,,,,776.6398,777.1392,776.1334,776.6398,774.5272,337.0,776.1332,777.1392,777.6387,777.6387,779.2759,1166.6,779.276,2.0,780.2749,4.0,4.0,124.0,14.0,1.0,1.6,0.3,Time
,,S05,169207,1,Male,29,anonymized,Serial_Dependence_U,2023.2.3,Win32,144.9275362,,,,,,,,,,,,780.2751,4.0,780.2752,,,,783.39,783.8891,782.8834,783.3897,781.2809,341.0,782.8832,783.8892,784.3887,784.3887,785.6235,1220.8,785.6236,2.0,786.6223,4.0,5.0,125.0,4.0,1.0,1.6,0.3,Time
,,S05,169207,1,Male,29,anonymized,Serial_Dependence_U,2023.2.3,Win32,144.9275362,,,,,,,,,,,,786.6227,4.0,786.6228,,,,788.9396,789.4388,788.4333,788.9395,787.6286,111.0,788.4331,789.4388,789.9384,789.9384,790.8957,933.4,790.8959,4.0,791.8948,4.0,6.0,126.0,20.0,1.0,0.8,0.3,Time
,,S05,169207,1,Male,29,anonymized,Serial_Dependence_U,2023.2.3,Win32,144.9275362,,,,,,,,,,,,791.895,4.0,791.8952,,,,795.0098,795.5089,794.5031,795.0097,792.9007,305.0,794.5031,795.509,796.0084,796.0085,797.2572,1235.0,797.2572,2.0,798.2562,4.0,7.0,127.0,19.0,1.0,1.6,0.7,Time
,,S05,169207,1,Male,29,anonymized,Serial_Dependence_U,2023.2.3,Win32,144.9275362,,,,,,,,,,,,798.2564,4.0,798.2566,,,,800.5664,801.0657,800.0659,800.5663,799.2624,232.0,800.0659,801.0657,801.5651,801.5652,802.6476,1040.5,802.6477,5.0,803.6464,4.0,8.0,128.0,25.0,1.0,0.8,0.7,Time
,,S05,169207,1,Male,29,anonymized,Serial_Dependence_U,2023.2.3,Win32,144.9275362,,,,,,,,,,,,803.6466,4.0,803.6467,,,,806.1651,806.6641,805.6584,806.1651,804.6525,105.0,805.6583,806.6641,807.1635,807.1635,808.0647,888.5,808.0648,2.0,809.0644,4.0,9.0,129.0,16.0,1.0,1.0,0.7,Time
,,S05,169207,1,Male,29,anonymized,Serial_Dependence_U,2023.2.3,Win32,144.9275362,,,,,,,,,,,,809.0648,4.0,809.0649,,,,811.3807,811.8788,810.874,811.3806,810.0698,28.0,810.874,811.8789,812.3785,812.3786,813.1575,749.7,813.1576,2.0,814.1563,4.0,10.0,130.0,10.0,1.0,0.8,0.3,Time
,,S05,169207,1,Male,29,anonymized,Serial_Dependence_U,2023.2.3,Win32,144.9275362,,,,,,,,,,,,814.1565,4.0,814.1567,,,,817.0692,817.5671,816.563,817.0692,815.1584,3.0,816.563,817.5671,818.0667,818.0667,819.1366,1047.8,819.1367,2.0,820.1342,4.0,11.0,131.0,3.0,1.0,1.4,0.3,Time
,,S05,169207,1,Male,29,anonymized,Serial_Dependence_U,2023.2.3,Win32,144.9275362,,,,,,,,,,,,820.1345,4.0,820.1347,,,,823.0425,823.5402,822.5359,823.0424,821.1345,343.0,822.5358,823.5403,824.0398,824.0398,825.387,1324.3,825.3872,2.0,826.3846,4.0,12.0,132.0,8.0,1.0,1.4,0.7,Time
,,S05,169207,1,Male,29,anonymized,Serial_Dependence_U,2023.2.3,Win32,144.9275362,,,,,,,,,,,,826.3849,4.0,826.385,,,,829.5007,829.9988,828.9946,829.5007,827.39,181.0,828.9945,829.9988,830.4983,830.4983,831.7684,1261.1,831.7685,2.0,832.769,4.0,13.0,133.0,29.0,1.0,1.6,0.7,Time
,,S05,169207,1,Male,29,anonymized,Serial_Dependence_U,2023.2.3,Win32,144.9275362,,,,,,,,,,,,832.7692,4.0,832.7693,,,,835.4855,835.9809,834.9809,835.4854,833.7755,333.0,834.9809,835.9809,836.4805,836.4805,837.7447,1241.6,837.7448,3.0,838.742,4.0,14.0,134.0,7.0,1.0,1.2,0.7,Time
,,S05,169207,1,Male,29,anonymized,Serial_Dependence_U,2023.2.3,Win32,144.9275362,,,,,,,,,,,,838.7423,4.0,838.7424,,,,841.2559,841.7527,840.7526,841.2558,839.7483,120.0,840.7526,841.7527,842.2523,842.2523,842.5351,269.7,842.5352,1.0,843.5357,4.0,15.0,135.0,26.0,1.0,1.0,0.7,Time
,,S05,169207,1,Male,29,anonymized,Serial_Dependence_U,2023.2.3,Win32,144.9275362,,,,,,,,,,,,843.5359,4.0,843.5361,,,,846.2507,846.7477,845.7489,846.2506,844.5419,258.0,845.7488,846.7478,847.2471,847.2471,848.5988,1338.5,848.5989,4.0,849.5989,4.0,16.0,136.0,12.0,1.0,1.2,0.3,Time
,,S05,169207,1,Male,29,anonymized,Serial_Dependence_U,2023.2.3,Win32,144.9275362,,,,,,,,,,,,849.5993,4.0,849.5995,,,,852.5118,853.0098,852.0053,852.5117,850.6047,177.0,852.0052,853.0098,853.5092,853.5092,854.9323,1400.5,854.9325,3.0,855.9325,4.0,17.0,137.0,13.0,1.0,1.4,0.3,Time
,,S05,169207,1,Male,29,anonymized,Serial_Dependence_U,2023.2.3,Win32,144.9275362,,,,,,,,,,,,855.9326,4.0,855.9327,,,,858.444,858.943,857.9392,858.4439,856.9331,255.0,857.9392,858.943,859.4427,859.4427,860.5735,1089.1,860.5737,4.0,861.5726,4.0,18.0,138.0,6.0,1.0,1.0,0.7,Time
,,S05,169207,1,Male,29,anonymized,Serial_Dependence_U,2023.2.3,Win32,144.9275362,,,,,,,,,,,,861.5728,4.0,861.5729,,,,863.8847,864.382,863.3833,863.8846,862.5786,336.0,863.3831,864.3821,864.8815,864.8815,866.0887,1193.2,866.0888,5.0,867.0876,4.0,19.0,139.0,15.0,1.0,0.8,0.7,Time
,,S05,169207,1,Male,29,anonymized,Serial_Dependence_U,2023.2.3,Win32,144.9275362,,,,,,,,,,,,867.0879,4.0,867.088,,,,869.5938,870.0913,869.0929,869.5938,868.0922,276.0,869.0927,870.0913,870.5907,870.5907,871.8465,1221.0,871.8467,4.0,872.8455,4.0,20.0,140.0,21.0,1.0,1.0,0.3,Time
,,S05,169207,1,Male,29,anonymized,Serial_Dependence_U,2023.2.3,Win32,144.9275362,,,,,,,,,,,,872.8458,4.0,872.846,,,,875.5652,876.0644,875.0586,875.5651,873.8516,258.0,875.0586,876.0645,876.5639,876.564,877.7296,1158.4,877.7297,3.0,878.7284,4.0,21.0,141.0,27.0,1.0,1.2,0.7,Time
,,S05,169207,1,Male,29,anonymized,Serial_Dependence_U,2023.2.3,Win32,144.9275362,,,,,,,,,,,,878.7288,4.0,878.7289,,,,881.2467,881.7461,880.7402,881.2467,879.7344,133.0,880.7401,881.7461,882.2454,882.2454,883.2653,995.4,883.2654,3.0,884.2643,4.0,22.0,142.0,1.0,1.0,1.0,0.3,Time
,,S05,169207,1,Male,29,anonymized,Serial_Dependence_U,2023.2.3,Win32,144.9275362,,,,,,,,,,,,884.2647,4.0,884.2647,,,,886.5814,887.0807,886.0751,886.5814,885.2702,104.0,886.0751,887.0808,887.5803,887.5803,888.3364,740.8,888.3365,2.0,889.3355,4.0,23.0,143.0,5.0,1.0,0.8,0.7,Time
,,S05,169207,1,Male,29,anonymized,Serial_Dependence_U,2023.2.3,Win32,144.9275362,,,,,,,,,,,,889.3357,4.0,889.3358,,,,892.2492,892.7485,891.7428,892.2491,890.3417,131.0,891.7427,892.7485,893.2479,893.2479,894.688,1413.7,894.6882,3.0,895.69,4.0,24.0,144.0,23.0,1.0,1.4,0.3,Time
,,S05,169207,1,Male,29,anonymized,Serial_Dependence_U,2023.2.3,Win32,144.9275362,,,,,,,,,,,,895.6902,4.0,895.6902,,,,898.803,899.3044,898.2985,898.803,896.6919,197.0,898.2984,899.3044,899.8037,899.8037,901.2381,1414.3,901.2381,2.0,902.2387,4.0,25.0,145.0,24.0,1.0,1.6,0.3,Time
,,S05,169207,1,Male,29,anonymized,Serial_Dependence_U,2023.2.3,Win32,144.9275362,,,,,,,,,,,,902.239,4.0,902.2391,,,,904.5559,905.0551,904.0496,904.5558,903.2446,266.0,904.0495,905.0551,905.5547,905.5547,906.4496,871.3,906.4498,4.0,907.4487,4.0,26.0,146.0,0.0,1.0,0.8,0.3,Time
,,S05,169207,1,Male,29,anonymized,Serial_Dependence_U,2023.2.3,Win32,144.9275362,,,,,,,,,,,,907.4489,4.0,907.449,,,,910.5636,911.0628,910.0572,910.5634,908.4548,116.0,910.0571,911.0628,911.5621,911.5622,912.8858,1293.2,912.8859,2.0,913.8864,4.0,27.0,147.0,9.0,1.0,1.6,0.7,Time
,,S05,169207,1,Male,29,anonymized,Serial_Dependence_U,2023.2.3,Win32,144.9275362,,,,,,,,,,,,913.8866,4.0,913.8867,,,,916.7985,917.2994,916.2941,916.7984,914.8924,89.0,916.2939,917.2994,917.7989,917.799,919.0447,1232.6,919.0448,2.0,920.0399,4.0,28.0,148.0,28.0,1.0,1.4,0.7,Time
,,S05,169207,1,Male,29,anonymized,Serial_Dependence_U,2023.2.3,Win32,144.9275362,,,,,,,,,,,,920.0404,4.0,920.0405,,,,922.9479,923.4458,922.446,922.9479,921.0427,196.0,922.4459,923.4458,923.9454,923.9455,925.1168,1148.3,925.1169,2.0,926.1145,4.0,29.0,149.0,18.0,1.0,1.4,0.7,Time
,,S05,169207,1,Male,29,anonymized,Serial_Dependence_U,2023.2.3,Win32,144.9275362,,,,,,,,,,,,926.1148,5.0,2263.0855,s,1336.9546,,2266.2075,2266.7066,2265.7009,2266.2075,2264.0968,187.0,2265.7008,2266.7066,2267.206,2267.206,2268.3751,1136.9,2268.3752,2.0,2269.3729,5.0,0.0,150.0,19.0,1.0,1.6,0.7,Time
,,S05,169207,1,Male,29,anonymized,Serial_Dependence_U,2023.2.3,Win32,144.9275362,,,,,,,,,,,,2269.3732,5.0,2269.3749,,,,2271.6841,2272.1832,2271.1776,2271.684,2270.3729,224.0,2271.1775,2272.1832,2272.6828,2272.6828,2273.7518,1040.7,2273.7519,5.0,2274.747,5.0,1.0,151.0,10.0,1.0,0.8,0.3,Time
,,S05,169207,1,Male,29,anonymized,Serial_Dependence_U,2023.2.3,Win32,144.9275362,,,,,,,,,,,,2274.7472,5.0,2274.7473,,,,2277.0642,2277.5634,2276.5579,2277.064,2275.7533,24.0,2276.5579,2277.5634,2278.063,2278.063,2279.0133,936.3,2279.0134,4.0,2280.0123,5.0,2.0,152.0,15.0,1.0,0.8,0.7,Time
,,S05,169207,1,Male,29,anonymized,Serial_Dependence_U,2023.2.3,Win32,144.9275362,,,,,,,,,,,,2280.0126,5.0,2280.0127,,,,2283.1273,2283.6267,2282.6227,2283.1272,2281.019,132.0,2282.6226,2283.6267,2284.1261,2284.1261,2285.5063,1345.5,2285.5065,2.0,2286.5056,5.0,3.0,153.0,24.0,1.0,1.6,0.3,Time
,,S05,169207,1,Male,29,anonymized,Serial_Dependence_U,2023.2.3,Win32,144.9275362,,,,,,,,,,,,2286.5059,5.0,2286.506,,,,2289.0173,2289.5163,2288.5107,2289.0173,2287.5101,187.0,2288.5106,2289.5163,2290.0158,2290.0158,2291.1109,1072.0,2291.111,4.0,2292.1109,5.0,4.0,154.0,21.0,1.0,1.0,0.3,Time
,,S05,169207,1,Male,29,anonymized,Serial_Dependence_U,2023.2.3,Win32,144.9275362,,,,,,,,,,,,2292.1112,5.0,2292.1113,,,,2294.8221,2295.3229,2294.3173,2294.8221,2293.1143,162.0,2294.3172,2295.323,2295.8223,2295.8223,2296.9948,1158.3,2296.9949,3.0,2297.9937,5.0,5.0,155.0,17.0,1.0,1.2,0.7,Time
,,S05,169207,1,Male,29,anonymized,Serial_Dependence_U,2023.2.3,Win32,144.9275362,,,,,,,,,,,,2297.994,5.0,2297.9941,,,,2300.7069,2301.2054,2300.2013,2300.7067,2298.9987,261.0,2300.2011,2301.2054,2301.7051,2301.7051,2302.8273,1090.4,2302.8274,2.0,2303.828,5.0,6.0,156.0,22.0,1.0,1.2,0.3,Time
,,S05,169207,1,Male,29,anonymized,Serial_Dependence_U,2023.2.3,Win32,144.9275362,,,,,,,,,,,,2303.8282,5.0,2303.8282,,,,2306.7419,2307.2411,2306.2355,2306.7416,2304.8341,177.0,2306.2352,2307.2411,2307.7405,2307.7405,2308.694,941.4,2308.6942,1.0,2309.69,5.0,7.0,157.0,28.0,1.0,1.4,0.7,Time
,,S05,169207,1,Male,29,anonymized,Serial_Dependence_U,2023.2.3,Win32,144.9275362,,,,,,,,,,,,2309.6903,5.0,2309.6904,,,,2312.7987,2313.2971,2312.297,2312.7986,2310.696,314.0,2312.297,2313.2972,2313.7967,2313.7967,2314.9468,1124.8,2314.9469,2.0,2315.9474,5.0,8.0,158.0,14.0,1.0,1.6,0.3,Time
,,S05,169207,1,Male,29,anonymized,Serial_Dependence_U,2023.2.3,Win32,144.9275362,,,,,,,,,,,,2315.9477,5.0,2315.9478,,,,2318.6671,2319.1661,2318.1606,2318.667,2316.9535,230.0,2318.1605,2319.1661,2319.6657,2319.6657,2320.7617,1073.6,2320.7618,2.0,2321.7608,5.0,9.0,159.0,12.0,1.0,1.2,0.3,Time
,,S05,169207,1,Male,29,anonymized,Serial_Dependence_U,2023.2.3,Win32,144.9275362,,,,,,,,,,,,2321.761,5.0,2321.7611,,,,2324.0739,2324.5703,2323.5698,2324.0739,2322.7626,1.0,2323.5697,2324.5703,2325.0697,2325.0698,2326.3671,1256.2,2326.3672,5.0,2327.3661,5.0,10.0,160.0,20.0,1.0,0.8,0.3,Time
,,S05,169207,1,Male,29,anonymized,Serial_Dependence_U,2023.2.3,Win32,144.9275362,,,,,,,,,,,,2327.3663,5.0,2327.3664,,,,2330.0787,2330.578,2329.5776,2330.0786,2328.3702,34.0,2329.5776,2330.578,2331.0774,2331.0775,2332.0263,936.2,2332.0265,2.0,2333.0269,5.0,11.0,161.0,7.0,1.0,1.2,0.7,Time
,,S05,169207,1,Male,29,anonymized,Serial_Dependence_U,2023.2.3,Win32,144.9275362,,,,,,,,,,,,2333.0272,5.0,2333.0273,,,,2335.9424,2336.4398,2335.4368,2335.9423,2334.0331,188.0,2335.4367,2336.4398,2336.9393,2336.9393,2338.268,1287.8,2338.2682,2.0,2339.2636,5.0,12.0,162.0,23.0,1.0,1.4,0.3,Time
,,S05,169207,1,Male,29,anonymized,Serial_Dependence_U,2023.2.3,Win32,144.9275362,,,,,,,,,,,,2339.264,5.0,2339.2642,,,,2341.982,2342.4801,2341.476,2341.982,2340.2685,27.0,2341.476,2342.4801,2342.9795,2342.9796,2343.7727,782.9,2343.7728,1.0,2344.7718,5.0,13.0,163.0,27.0,1.0,1.2,0.7,Time
,,S05,169207,1,Male,29,anonymized,Serial_Dependence_U,2023.2.3,Win32,144.9275362,,,,,,,,,,,,2344.7723,5.0,2344.7726,,,,2347.2868,2347.7825,2346.7792,2347.2868,2345.7768,208.0,2346.7791,2347.7825,2348.2819,2348.282,2349.4048,1109.8,2349.4049,4.0,2350.405,5.0,14.0,164.0,16.0,1.0,1.0,0.7,Time
,,S05,169207,1,Male,29,anonymized,Serial_Dependence_U,2023.2.3,Win32,144.9275362,,,,,,,,,,,,2350.4054,5.0,2350.4057,,,,2353.3246,2353.8248,2352.8197,2353.3245,2351.4161,216.0,2352.8196,2353.8248,2354.3243,2354.3243,2355.8235,1487.1,2355.8237,4.0,2356.8216,5.0,15.0,165.0,3.0,1.0,1.4,0.3,Time
,,S05,169207,1,Male,29,anonymized,Serial_Dependence_U,2023.2.3,Win32,144.9275362,,,,,,,,,,,,2356.8218,5.0,2356.822,,,,2359.3319,2359.8302,2358.8277,2359.3319,2357.8266,337.0,2358.8275,2359.8302,2360.3295,2360.3295,2361.3783,1032.8,2361.3784,3.0,2362.3785,5.0,16.0,166.0,6.0,1.0,1.0,0.7,Time
,,S05,169207,1,Male,29,anonymized,Serial_Dependence_U,2023.2.3,Win32,144.9275362,,,,,,,,,,,,2362.3788,5.0,2362.3788,,,,2364.8955,2365.3942,2364.3889,2364.8954,2363.3792,163.0,2364.3888,2365.3942,2365.8934,2365.8936,2366.9914,1068.8,2366.9915,4.0,2367.9909,5.0,17.0,167.0,11.0,1.0,1.0,0.3,Time
,,S05,169207,1,Male,29,anonymized,Serial_Dependence_U,2023.2.3,Win32,144.9275362,,,,,,,,,,,,2367.9912,5.0,2367.9914,,,,2370.3046,2370.8001,2369.8002,2370.3045,2368.9972,99.0,2369.8002,2370.8001,2371.2997,2371.2997,2371.973,660.4,2371.9731,2.0,2372.9716,5.0,18.0,168.0,25.0,1.0,0.8,0.7,Time
,,S05,169207,1,Male,29,anonymized,Serial_Dependence_U,2023.2.3,Win32,144.9275362,,,,,,,,,,,,2372.9719,5.0,2372.9719,,,,2376.0918,2376.5929,2375.5804,2376.0918,2373.9777,134.0,2375.58,2376.5929,2377.0925,2377.0926,2378.3831,1276.0,2378.3832,2.0,2379.3819,5.0,19.0,169.0,9.0,1.0,1.6,0.7,Time
,,S05,169207,1,Male,29,anonymized,Serial_Dependence_U,2023.2.3,Win32,144.9275362,,,,,,,,,,,,2379.3824,5.0,2379.3825,,,,2382.4907,2382.9889,2381.9887,2382.4906,2380.3822,103.0,2381.9887,2382.9889,2383.4883,2383.4883,2384.8582,1327.8,2384.8583,2.0,2385.8542,5.0,20.0,170.0,4.0,1.0,1.6,0.3,Time
,,S05,169207,1,Male,29,anonymized,Serial_Dependence_U,2023.2.3,Win32,144.9275362,,,,,,,,,,,,2385.8546,5.0,2385.8547,,,,2388.1648,2388.6637,2387.6582,2388.1647,2386.8552,319.0,2387.658,2388.6637,2389.1629,2389.163,2389.8291,652.8,2389.8294,2.0,2390.8281,5.0,21.0,171.0,5.0,1.0,0.8,0.7,Time
,,S05,169207,1,Male,29,anonymized,Serial_Dependence_U,2023.2.3,Win32,144.9275362,,,,,,,,,,,,2390.8285,5.0,2390.8286,,,,2393.3395,2393.8389,2392.8348,2393.3395,2391.8314,67.0,2392.8347,2393.8389,2394.3382,2394.3382,2395.5245,1157.6,2395.5246,4.0,2396.5234,5.0,22.0,172.0,1.0,1.0,1.0,0.3,Time
,,S05,169207,1,Male,29,anonymized,Serial_Dependence_U,2023.2.3,Win32,144.9275362,,,,,,,,,,,,2396.5237,5.0,2396.5239,,,,2399.438,2399.9366,2398.9327,2399.4379,2397.5295,88.0,2398.9326,2399.9366,2400.436,2400.4361,2401.6208,1163.6,2401.621,2.0,2402.6214,5.0,23.0,173.0,13.0,1.0,1.4,0.3,Time
,,S05,169207,1,Male,29,anonymized,Serial_Dependence_U,2023.2.3,Win32,144.9275362,,,,,,,,,,,,2402.6217,5.0,2402.6219,,,,2405.341,2405.8404,2404.8348,2405.3409,2403.6274,201.0,2404.8347,2405.8404,2406.3402,2406.3402,2407.6984,1347.3,2407.6984,4.0,2408.6985,5.0,24.0,174.0,2.0,1.0,1.2,0.3,Time
,,S05,169207,1,Male,29,anonymized,Serial_Dependence_U,2023.2.3,Win32,144.9275362,,,,,,,,,,,,2408.6988,5.0,2408.6988,,,,2411.6079,2412.1045,2411.1022,2411.6078,2409.6977,327.0,2411.1021,2412.1045,2412.6041,2412.6041,2413.7003,1064.6,2413.7004,2.0,2414.6992,5.0,25.0,175.0,8.0,1.0,1.4,0.7,Time
,,S05,169207,1,Male,29,anonymized,Serial_Dependence_U,2023.2.3,Win32,144.9275362,,,,,,,,,,,,2414.6996,5.0,2414.6996,,,,2417.6061,2418.1053,2417.1048,2417.6059,2415.704,157.0,2417.1048,2418.1053,2418.6047,2418.6048,2419.0627,443.8,2419.0628,1.0,2420.0617,5.0,26.0,176.0,18.0,1.0,1.4,0.7,Time
,,S05,169207,1,Male,29,anonymized,Serial_Dependence_U,2023.2.3,Win32,144.9275362,,,,,,,,,,,,2420.062,5.0,2420.062,,,,2423.1818,2423.6829,2422.6706,2423.1818,2421.0663,89.0,2422.6705,2423.6829,2424.1823,2424.1824,2425.9893,1794.8,2425.9894,4.0,2426.9851,5.0,27.0,177.0,29.0,1.0,1.6,0.7,Time
,,S05,169207,1,Male,29,anonymized,Serial_Dependence_U,2023.2.3,Win32,144.9275362,,,,,,,,,,,,2426.9854,5.0,2426.9855,,,,2429.5026,2430.0005,2428.9961,2429.5025,2427.9902,332.0,2428.9961,2430.0005,2430.4955,2430.4955,2432.3123,1442.7,2432.3126,5.0,2433.3118,5.0,28.0,178.0,26.0,1.0,1.0,0.7,Time
,,S05,169207,1,Male,29,anonymized,Serial_Dependence_U,2023.2.3,Win32,144.9275362,,,,,,,,,,,,2433.3121,5.0,2433.3122,,,,2435.6292,2436.1283,2435.1218,2435.6291,2434.3178,20.0,2435.1217,2436.1283,2436.6278,2436.6278,2438.3415,1241.8,2438.3416,5.0,2439.3403,5.0,29.0,179.0,0.0,1.0,0.8,0.3,Time
,,S05,169207,1,Male,29,anonymized,Serial_Dependence_U,2023.2.3,Win32,144.9275362,,,,,,,,,,,,2439.3405,6.0,2450.3497,s,10.9952,,2453.0647,2453.5616,2452.5584,2453.0647,2451.3542,152.0,2452.5584,2453.5616,2454.0611,2454.0611,2455.2067,1112.0,2455.2068,2.0,2456.2048,6.0,0.0,180.0,22.0,1.0,1.2,0.3,Time
,,S05,169207,1,Male,29,anonymized,Serial_Dependence_U,2023.2.3,Win32,144.9275362,,,,,,,,,,,,2456.2051,6.0,2456.2063,,,,2458.5173,2459.0141,2458.011,2458.5172,2457.2097,305.0,2458.011,2459.0141,2459.5138,2459.5138,2460.1799,639.7,2460.1801,2.0,2461.1788,6.0,1.0,181.0,15.0,1.0,0.8,0.7,Time
,,S05,169207,1,Male,29,anonymized,Serial_Dependence_U,2023.2.3,Win32,144.9275362,,,,,,,,,,,,2461.1792,6.0,2461.1793,,,,2463.6972,2464.1965,2463.1908,2463.6971,2462.185,212.0,2463.1906,2464.1965,2464.6959,2464.6959,2465.4106,701.6,2465.4108,2.0,2466.4095,6.0,2.0,182.0,26.0,1.0,1.0,0.7,Time
,,S05,169207,1,Male,29,anonymized,Serial_Dependence_U,2023.2.3,Win32,144.9275362,,,,,,,,,,,,2466.4097,6.0,2466.4098,,,,2469.3185,2469.8154,2468.8175,2469.3183,2467.4157,267.0,2468.8174,2469.8154,2470.3149,2470.315,2471.4945,1144.4,2471.4947,2.0,2472.4934,6.0,3.0,183.0,3.0,1.0,1.4,0.3,Time
,,S05,169207,1,Male,29,anonymized,Serial_Dependence_U,2023.2.3,Win32,144.9275362,,,,,,,,,,,,2472.4937,6.0,2472.4938,,,,2475.6068,2476.1077,2475.1033,2475.6068,2473.4995,47.0,2475.1032,2476.1077,2476.6073,2476.6073,2477.8797,1259.7,2477.8797,2.0,2478.8758,6.0,4.0,184.0,9.0,1.0,1.6,0.7,Time
,,S05,169207,1,Male,29,anonymized,Serial_Dependence_U,2023.2.3,Win32,144.9275362,,,,,,,,,,,,2478.8761,6.0,2478.8761,,,,2481.3908,2481.8864,2480.8859,2481.3907,2479.8818,334.0,2480.8859,2481.8865,2482.386,2482.386,2483.5011,1103.3,2483.5012,4.0,2484.5018,6.0,5.0,185.0,16.0,1.0,1.0,0.7,Time
,,S05,169207,1,Male,29,anonymized,Serial_Dependence_U,2023.2.3,Win32,144.9275362,,,,,,,,,,,,2484.5021,6.0,2484.5022,,,,2487.414,2487.9149,2486.9105,2487.414,2485.5079,23.0,2486.9105,2487.9149,2488.4144,2488.4144,2489.8124,1373.5,2489.8125,3.0,2490.808,6.0,6.0,186.0,13.0,1.0,1.4,0.3,Time
,,S05,169207,1,Male,29,anonymized,Serial_Dependence_U,2023.2.3,Win32,144.9275362,,,,,,,,,,,,2490.8088,6.0,2490.809,,,,2493.125,2493.627,2492.6192,2493.125,2491.8131,140.0,2492.619,2493.6271,2494.124,2494.124,2494.7067,554.3,2494.7069,1.0,2495.7055,6.0,7.0,187.0,20.0,1.0,0.8,0.3,Time
,,S05,169207,1,Male,29,anonymized,Serial_Dependence_U,2023.2.3,Win32,144.9275362,,,,,,,,,,,,2495.706,6.0,2495.7061,,,,2498.0229,2498.5219,2497.5166,2498.0228,2496.7119,211.0,2497.5164,2498.5219,2499.0215,2499.0215,2499.9512,910.8,2499.9514,4.0,2500.9499,6.0,8.0,188.0,25.0,1.0,0.8,0.7,Time
,,S05,169207,1,Male,29,anonymized,Serial_Dependence_U,2023.2.3,Win32,144.9275362,,,,,,,,,,,,2500.9502,6.0,2500.9503,,,,2503.6638,2504.1619,2503.1633,2503.6637,2501.9564,62.0,2503.1631,2504.1619,2504.6616,2504.6616,2505.6743,998.9,2505.6745,2.0,2506.6732,6.0,9.0,189.0,17.0,1.0,1.2,0.7,Time
,,S05,169207,1,Male,29,anonymized,Serial_Dependence_U,2023.2.3,Win32,144.9275362,,,,,,,,,,,,2506.6734,6.0,2506.6734,,,,2509.7938,2510.2891,2509.2839,2509.7938,2507.6795,339.0,2509.2837,2510.2891,2510.7871,2510.7871,2511.9253,1125.3,2511.9255,2.0,2512.9237,6.0,10.0,190.0,14.0,1.0,1.6,0.3,Time
,,S05,169207,1,Male,29,anonymized,Serial_Dependence_U,2023.2.3,Win32,144.9275362,,,,,,,,,,,,2512.924,6.0,2512.9241,,,,2515.6434,2516.1425,2515.1369,2515.6433,2513.9302,315.0,2515.1368,2516.1425,2516.642,2516.642,2518.0642,1395.7,2518.0643,4.0,2519.0631,6.0,11.0,191.0,7.0,1.0,1.2,0.7,Time
,,S05,169207,1,Male,29,anonymized,Serial_Dependence_U,2023.2.3,Win32,144.9275362,,,,,,,,,,,,2519.0633,6.0,2519.0634,,,,2521.9802,2522.4762,2521.4739,2521.9801,2520.0694,325.0,2521.4736,2522.4762,2522.9757,2522.9757,2524.2948,1293.8,2524.2949,2.0,2525.2929,6.0,12.0,192.0,28.0,1.0,1.4,0.7,Time
,,S05,169207,1,Male,29,anonymized,Serial_Dependence_U,2023.2.3,Win32,144.9275362,,,,,,,,,,,,2525.2932,6.0,2525.2933,,,,2527.8045,2528.3037,2527.3008,2527.8044,2526.299,69.0,2527.3007,2528.3037,2528.8031,2528.8031,2529.8498,1033.4,2529.8498,3.0,2530.8497,6.0,13.0,193.0,21.0,1.0,1.0,0.3,Time
,,S05,169207,1,Male,29,anonymized,Serial_Dependence_U,2023.2.3,Win32,144.9275362,,,,,,,,,,,,2530.8498,6.0,2530.8499,,,,2533.5625,2534.0615,2533.0559,2533.5624,2531.8497,196.0,2533.0559,2534.0615,2534.561,2534.561,2535.6017,1010.3,2535.6019,2.0,2536.6006,6.0,14.0,194.0,12.0,1.0,1.2,0.3,Time
,,S05,169207,1,Male,29,anonymized,Serial_Dependence_U,2023.2.3,Win32,144.9275362,,,,,,,,,,,,2536.6011,6.0,2536.6012,,,,2539.119,2539.6182,2538.6126,2539.119,2537.6067,212.0,2538.6125,2539.6183,2540.1177,2540.1177,2540.9295,788.2,2540.9296,2.0,2541.9283,6.0,15.0,195.0,1.0,1.0,1.0,0.3,Time
,,S05,169207,1,Male,29,anonymized,Serial_Dependence_U,2023.2.3,Win32,144.9275362,,,,,,,,,,,,2541.9286,6.0,2541.9287,,,,2545.0435,2545.5427,2544.5424,2545.0434,2542.9295,243.0,2544.5423,2545.5428,2546.042,2546.0421,2547.1324,1077.6,2547.1326,1.0,2548.1302,6.0,16.0,196.0,24.0,1.0,1.6,0.3,Time
,,S05,169207,1,Male,29,anonymized,Serial_Dependence_U,2023.2.3,Win32,144.9275362,,,,,,,,,,,,2548.1304,6.0,2548.1307,,,,2550.453,2550.9536,2549.9464,2550.4529,2549.1364,285.0,2549.9463,2550.9536,2551.4536,2551.4536,2552.3057,819.1,2552.3059,3.0,2553.3056,6.0,17.0,197.0,10.0,1.0,0.8,0.3,Time
,,S05,169207,1,Male,29,anonymized,Serial_Dependence_U,2023.2.3,Win32,144.9275362,,,,,,,,,,,,2553.3059,6.0,2553.306,,,,2555.8152,2556.3162,2555.3106,2555.8152,2554.3064,296.0,2555.3105,2556.3163,2556.8157,2556.8157,2557.8634,1031.2,2557.8636,3.0,2558.8623,6.0,18.0,198.0,11.0,1.0,1.0,0.3,Time
,,S05,169207,1,Male,29,anonymized,Serial_Dependence_U,2023.2.3,Win32,144.9275362,,,,,,,,,,,,2558.8628,6.0,2558.8631,,,,2561.9775,2562.4767,2561.4713,2561.9774,2559.8685,87.0,2561.4712,2562.4767,2562.976,2562.976,2564.3982,1404.1,2564.3984,2.0,2565.397,6.0,19.0,199.0,19.0,1.0,1.6,0.7,Time
,,S05,169207,1,Male,29,anonymized,Serial_Dependence_U,2023.2.3,Win32,144.9275362,,,,,,,,,,,,2565.3971,6.0,2565.3972,,,,2568.309,2568.8103,2567.8046,2568.309,2566.4034,12.0,2567.8045,2568.8103,2569.3097,2569.3097,2570.7735,1415.5,2570.7736,3.0,2571.7725,6.0,20.0,200.0,23.0,1.0,1.4,0.3,Time
,,S05,169207,1,Male,29,anonymized,Serial_Dependence_U,2023.2.3,Win32,144.9275362,,,,,,,,,,,,2571.7728,6.0,2571.7729,,,,2574.6892,2575.1855,2574.185,2574.6891,2572.7767,317.0,2574.185,2575.1855,2575.6851,2575.6851,2576.9893,1279.5,2576.9895,2.0,2577.9883,6.0,21.0,201.0,18.0,1.0,1.4,0.7,Time
,,S05,169207,1,Male,29,anonymized,Serial_Dependence_U,2023.2.3,Win32,144.9275362,,,,,,,,,,,,2577.9885,6.0,2577.9886,,,,2580.7009,2581.2,2580.1999,2580.7009,2578.9939,343.0,2580.1999,2581.2,2581.6996,2581.6996,2582.7593,1031.8,2582.7594,2.0,2583.7599,6.0,22.0,202.0,2.0,1.0,1.2,0.3,Time
,,S05,169207,1,Male,29,anonymized,Serial_Dependence_U,2023.2.3,Win32,144.9275362,,,,,,,,,,,,2583.7601,6.0,2583.7602,,,,2586.878,2587.3742,2586.3691,2586.8779,2584.7661,129.0,2586.3688,2587.3743,2587.8737,2587.8738,2589.4201,1523.6,2589.4201,3.0,2590.4199,6.0,23.0,203.0,29.0,1.0,1.6,0.7,Time
,,S05,169207,1,Male,29,anonymized,Serial_Dependence_U,2023.2.3,Win32,144.9275362,,,,,,,,,,,,2590.4201,6.0,2590.4201,,,,2593.5307,2594.027,2593.0284,2593.5305,2591.4242,193.0,2593.0284,2594.0271,2594.5267,2594.5267,2595.9075,1349.0,2595.9078,2.0,2596.9061,6.0,24.0,204.0,4.0,1.0,1.6,0.3,Time
,,S05,169207,1,Male,29,anonymized,Serial_Dependence_U,2023.2.3,Win32,144.9275362,,,,,,,,,,,,2596.9065,6.0,2596.9066,,,,2599.8136,2600.3122,2599.3084,2599.8135,2597.9066,337.0,2599.3082,2600.3122,2600.8117,2600.8118,2602.2132,1366.8,2602.2133,3.0,2603.2121,6.0,25.0,205.0,8.0,1.0,1.4,0.7,Time
,,S05,169207,1,Male,29,anonymized,Serial_Dependence_U,2023.2.3,Win32,144.9275362,,,,,,,,,,,,2603.2123,6.0,2603.2124,,,,2605.5227,2606.0215,2605.0162,2605.5227,2604.2137,146.0,2605.016,2606.0215,2606.5211,2606.5211,2607.637,1082.4,2607.637,5.0,2608.6371,6.0,26.0,206.0,0.0,1.0,0.8,0.3,Time
,,S05,169207,1,Male,29,anonymized,Serial_Dependence_U,2023.2.3,Win32,144.9275362,,,,,,,,,,,,2608.6374,6.0,2608.6375,,,,2611.3499,2611.8491,2610.8464,2611.3498,2609.6431,18.0,2610.8463,2611.8491,2612.3485,2612.3485,2613.2504,887.7,2613.2506,2.0,2614.2497,6.0,27.0,207.0,27.0,1.0,1.2,0.7,Time
,,S05,169207,1,Male,29,anonymized,Serial_Dependence_U,2023.2.3,Win32,144.9275362,,,,,,,,,,,,2614.2504,6.0,2614.2507,,,,2616.5557,2617.0519,2616.0532,2616.5556,2615.2512,288.0,2616.0531,2617.0519,2617.5515,2617.5515,2618.1342,568.0,2618.1345,2.0,2619.133,6.0,28.0,208.0,5.0,1.0,0.8,0.7,Time
,,S05,169207,1,Male,29,anonymized,Serial_Dependence_U,2023.2.3,Win32,144.9275362,,,,,,,,,,,,2619.1334,6.0,2619.1335,,,,2621.6502,2622.1483,2621.1455,2621.6502,2620.1444,21.0,2621.1454,2622.1484,2622.6481,2622.6481,2623.4956,818.0,2623.4957,2.0,2624.4933,6.0,29.0,209.0,6.0,1.0,1.0,0.7,Time
,,S05,169207,1,Male,29,anonymized,Serial_Dependence_U,2023.2.3,Win32,144.9275362,,,,,,,,,,,,2624.4936,7.0,2625.8205,s,1.3108,,2628.1335,2628.6302,2627.6316,2628.1334,2626.8267,107.0,2627.6314,2628.6302,2629.1297,2629.1297,2630.1772,1034.6,2630.1773,4.0,2631.1763,7.0,0.0,210.0,10.0,1.0,0.8,0.3,Time
,,S05,169207,1,Male,29,anonymized,Serial_Dependence_U,2023.2.3,Win32,144.9275362,,,,,,,,,,,,2631.1765,7.0,2631.1775,,,,2633.6881,2634.1869,2633.1828,2633.688,2632.177,312.0,2633.1827,2634.1869,2634.6863,2634.6864,2635.7965,1068.5,2635.7967,4.0,2636.7953,7.0,1.0,211.0,16.0,1.0,1.0,0.7,Time
,,S05,169207,1,Male,29,anonymized,Serial_Dependence_U,2023.2.3,Win32,144.9275362,,,,,,,,,,,,2636.7956,7.0,2636.7957,,,,2639.7078,2640.206,2639.203,2639.7077,2637.8016,345.0,2639.2029,2640.206,2640.7056,2640.7056,2642.0429,1320.6,2642.0429,2.0,2643.0389,7.0,2.0,212.0,13.0,1.0,1.4,0.3,Time
,,S05,169207,1,Male,29,anonymized,Serial_Dependence_U,2023.2.3,Win32,144.9275362,,,,,,,,,,,,2643.0391,7.0,2643.0392,,,,2645.5556,2646.0566,2645.0508,2645.5555,2644.045,204.0,2645.0508,2646.0566,2646.5562,2646.5562,2647.4371,868.0,2647.4372,2.0,2648.4361,7.0,3.0,213.0,21.0,1.0,1.0,0.3,Time
,,S05,169207,1,Male,29,anonymized,Serial_Dependence_U,2023.2.3,Win32,144.9275362,,,,,,,,,,,,2648.4363,7.0,2648.4364,,,,2651.5391,2652.0363,2651.0378,2651.539,2649.437,211.0,2651.0377,2652.0363,2652.5359,2652.5359,2653.839,1272.1,2653.8392,2.0,2654.8367,7.0,4.0,214.0,14.0,1.0,1.6,0.3,Time
,,S05,169207,1,Male,29,anonymized,Serial_Dependence_U,2023.2.3,Win32,144.9275362,,,,,,,,,,,,2654.837,7.0,2654.8371,,,,2657.9408,2658.4399,2657.4401,2657.9407,2655.8377,50.0,2657.44,2658.4399,2658.939,2658.939,2660.5695,1589.3,2660.5696,3.0,2661.5683,7.0,5.0,215.0,24.0,1.0,1.6,0.3,Time
,,S05,169207,1,Male,29,anonymized,Serial_Dependence_U,2023.2.3,Win32,144.9275362,,,,,,,,,,,,2661.5686,7.0,2661.5687,,,,2664.6834,2665.1826,2664.177,2664.6832,2662.5745,225.0,2664.1769,2665.1826,2665.6822,2665.6822,2666.9329,1238.6,2666.933,2.0,2667.93,7.0,6.0,216.0,4.0,1.0,1.6,0.3,Time
,,S05,169207,1,Male,29,anonymized,Serial_Dependence_U,2023.2.3,Win32,144.9275362,,,,,,,,,,,,2667.9307,7.0,2667.9308,,,,2670.6416,2671.1421,2670.1372,2670.6416,2668.9342,130.0,2670.137,2671.1422,2671.6415,2671.6416,2672.7085,1052.9,2672.7086,2.0,2673.7062,7.0,7.0,217.0,7.0,1.0,1.2,0.7,Time
,,S05,169207,1,Male,29,anonymized,Serial_Dependence_U,2023.2.3,Win32,144.9275362,,,,,,,,,,,,2673.7066,7.0,2673.7067,,,,2676.2123,2676.7101,2675.7087,2676.2122,2674.7069,216.0,2675.7086,2676.7101,2677.2095,2677.2095,2678.1681,940.5,2678.1683,2.0,2679.1659,7.0,8.0,218.0,11.0,1.0,1.0,0.3,Time
,,S05,169207,1,Male,29,anonymized,Serial_Dependence_U,2023.2.3,Win32,144.9275362,,,,,,,,,,,,2679.1662,7.0,2679.1663,,,,2681.4716,2681.9707,2680.9706,2681.4716,2680.1675,332.0,2680.9705,2681.9707,2682.4702,2682.4702,2683.3236,829.5,2683.3238,3.0,2684.3227,7.0,9.0,219.0,15.0,1.0,0.8,0.7,Time
,,S05,169207,1,Male,29,anonymized,Serial_Dependence_U,2023.2.3,Win32,144.9275362,,,,,,,,,,,,2684.323,7.0,2684.3232,,,,2686.6386,2687.1371,2686.1322,2686.6386,2685.3279,62.0,2686.1322,2687.1371,2687.6362,2687.6363,2688.5604,908.1,2688.5605,4.0,2689.5603,7.0,10.0,220.0,25.0,1.0,0.8,0.7,Time
,,S05,169207,1,Male,29,anonymized,Serial_Dependence_U,2023.2.3,Win32,144.9275362,,,,,,,,,,,,2689.5606,7.0,2689.5607,,,,2691.8734,2692.3697,2691.3698,2691.8734,2690.5656,196.0,2691.3698,2692.3697,2692.869,2692.8691,2693.4533,550.1,2693.4534,1.0,2694.451,7.0,11.0,221.0,20.0,1.0,0.8,0.3,Time
,,S05,169207,1,Male,29,anonymized,Serial_Dependence_U,2023.2.3,Win32,144.9275362,,,,,,,,,,,,2694.4512,7.0,2694.4514,,,,2697.565,2698.063,2697.0619,2697.565,2695.4572,268.0,2697.0618,2698.0631,2698.5625,2698.5625,2700.1984,1618.5,2700.1985,3.0,2701.1988,7.0,12.0,222.0,9.0,1.0,1.6,0.7,Time
,,S05,169207,1,Male,29,anonymized,Serial_Dependence_U,2023.2.3,Win32,144.9275362,,,,,,,,,,,,2701.1993,7.0,2701.1994,,,,2704.1088,2704.607,2703.6031,2704.1087,2702.1991,56.0,2703.603,2704.607,2705.1065,2705.1065,2706.1807,1053.9,2706.1808,2.0,2707.1809,7.0,13.0,223.0,18.0,1.0,1.4,0.7,Time
,,S05,169207,1,Male,29,anonymized,Serial_Dependence_U,2023.2.3,Win32,144.9275362,,,,,,,,,,,,2707.1811,7.0,2707.1812,,,,2709.6992,2710.1985,2709.1929,2709.6992,2708.1871,254.0,2709.1928,2710.1985,2710.698,2710.698,2712.2312,1124.6,2712.2315,4.0,2713.2303,7.0,14.0,224.0,6.0,1.0,1.0,0.7,Time
,,S05,169207,1,Male,29,anonymized,Serial_Dependence_U,2023.2.3,Win32,144.9275362,,,,,,,,,,,,2713.2307,7.0,2713.231,,,,2715.7407,2716.2407,2715.2353,2715.7406,2714.2322,146.0,2715.2353,2716.2407,2716.7404,2716.7405,2717.8559,1096.4,2717.8559,4.0,2718.8563,7.0,15.0,225.0,1.0,1.0,1.0,0.3,Time
,,S05,169207,1,Male,29,anonymized,Serial_Dependence_U,2023.2.3,Win32,144.9275362,,,,,,,,,,,,2718.8565,7.0,2718.8566,,,,2721.9684,2722.4637,2721.4635,2721.9682,2719.8613,83.0,2721.4634,2722.4637,2722.9678,2722.9678,2724.4428,1438.5,2724.4429,2.0,2725.4397,7.0,16.0,226.0,29.0,1.0,1.6,0.7,Time
,,S05,169207,1,Male,29,anonymized,Serial_Dependence_U,2023.2.3,Win32,144.9275362,,,,,,,,,,,,2725.44,7.0,2725.4402,,,,2728.3522,2728.8507,2727.8493,2728.3522,2726.4446,103.0,2727.8493,2728.8507,2729.35,2729.35,2730.4126,1054.0,2730.4127,2.0,2731.4103,7.0,17.0,227.0,28.0,1.0,1.4,0.7,Time
,,S05,169207,1,Male,29,anonymized,Serial_Dependence_U,2023.2.3,Win32,144.9275362,,,,,,,,,,,,2731.4105,7.0,2731.4107,,,,2734.5257,2735.027,2734.0153,2734.5257,2732.4107,183.0,2734.0152,2735.027,2735.5265,2735.5265,2736.8792,1338.8,2736.8793,2.0,2737.878,7.0,18.0,228.0,19.0,1.0,1.6,0.7,Time
,,S05,169207,1,Male,29,anonymized,Serial_Dependence_U,2023.2.3,Win32,144.9275362,,,,,,,,,,,,2737.8782,7.0,2737.8783,,,,2740.3966,2740.8959,2739.8903,2740.3965,2738.8843,179.0,2739.8902,2740.896,2741.3951,2741.3951,2742.9147,1505.6,2742.9148,5.0,2743.9136,7.0,19.0,229.0,26.0,1.0,1.0,0.7,Time
,,S05,169207,1,Male,29,anonymized,Serial_Dependence_U,2023.2.3,Win32,144.9275362,,,,,,,,,,,,2743.9138,7.0,2743.9139,,,,2746.6262,2747.1253,2746.1235,2746.6261,2744.9197,1.0,2746.1233,2747.1254,2747.625,2747.625,2748.8876,1240.2,2748.8877,3.0,2749.8865,7.0,20.0,230.0,12.0,1.0,1.2,0.3,Time
,,S05,169207,1,Male,29,anonymized,Serial_Dependence_U,2023.2.3,Win32,144.9275362,,,,,,,,,,,,2749.8868,7.0,2749.8869,,,,2752.5991,2753.0984,2752.0944,2752.599,2750.8928,111.0,2752.0943,2753.0984,2753.5979,2753.5979,2754.7566,1138.1,2754.7567,2.0,2755.7555,7.0,21.0,231.0,27.0,1.0,1.2,0.7,Time
,,S05,169207,1,Male,29,anonymized,Serial_Dependence_U,2023.2.3,Win32,144.9275362,,,,,,,,,,,,2755.7558,7.0,2755.7558,,,,2758.6693,2759.1684,2758.1632,2758.6692,2756.7619,129.0,2758.1631,2759.1684,2759.6679,2759.6679,2760.9986,1303.4,2760.9987,2.0,2761.999,7.0,22.0,232.0,23.0,1.0,1.4,0.3,Time
,,S05,169207,1,Male,29,anonymized,Serial_Dependence_U,2023.2.3,Win32,144.9275362,,,,,,,,,,,,2761.9992,7.0,2761.9994,,,,2764.7116,2765.2108,2764.2068,2764.7115,2763.0052,355.0,2764.2066,2765.2108,2765.7104,2765.7105,2766.9937,1263.3,2766.9938,4.0,2767.9928,7.0,23.0,233.0,17.0,1.0,1.2,0.7,Time
,,S05,169207,1,Male,29,anonymized,Serial_Dependence_U,2023.2.3,Win32,144.9275362,,,,,,,,,,,,2767.9931,7.0,2767.9932,,,,2770.7106,2771.2115,2770.206,2770.7106,2768.9989,60.0,2770.2059,2771.2115,2771.7111,2771.7112,2772.7301,1006.7,2772.7303,2.0,2773.7278,7.0,24.0,234.0,2.0,1.0,1.2,0.3,Time
,,S05,169207,1,Male,29,anonymized,Serial_Dependence_U,2023.2.3,Win32,144.9275362,,,,,,,,,,,,2773.7283,7.0,2773.7285,,,,2776.6368,2777.136,2776.1311,2776.6367,2774.7282,163.0,2776.1309,2777.136,2777.6355,2777.6355,2779.1812,1527.3,2779.1813,4.0,2780.1815,7.0,25.0,235.0,3.0,1.0,1.4,0.3,Time
,,S05,169207,1,Male,29,anonymized,Serial_Dependence_U,2023.2.3,Win32,144.9275362,,,,,,,,,,,,2780.1818,7.0,2780.1819,,,,2783.0954,2783.5948,2782.5943,2783.0953,2781.1878,182.0,2782.5942,2783.5948,2784.0941,2784.0942,2785.4493,1343.1,2785.4496,3.0,2786.446,7.0,26.0,236.0,8.0,1.0,1.4,0.7,Time
,,S05,169207,1,Male,29,anonymized,Serial_Dependence_U,2023.2.3,Win32,144.9275362,,,,,,,,,,,,2786.4462,7.0,2786.4464,,,,2789.1515,2789.6508,2788.6489,2789.1514,2787.4468,101.0,2788.6487,2789.6508,2790.1502,2790.1503,2791.1493,973.3,2791.1495,2.0,2792.1483,7.0,27.0,237.0,22.0,1.0,1.2,0.3,Time
,,S05,169207,1,Male,29,anonymized,Serial_Dependence_U,2023.2.3,Win32,144.9275362,,,,,,,,,,,,2792.1486,7.0,2792.1487,,,,2794.4655,2794.9647,2793.9592,2794.4654,2793.1545,254.0,2793.9592,2794.9647,2795.4642,2795.4643,2796.0893,584.7,2796.0895,2.0,2797.0876,7.0,28.0,238.0,0.0,1.0,0.8,0.3,Time
,,S05,169207,1,Male,29,anonymized,Serial_Dependence_U,2023.2.3,Win32,144.9275362,,,,,,,,,,,,2797.0879,7.0,2797.088,,,,2799.405,2799.9042,2798.8985,2799.4049,2798.0937,101.0,2798.8983,2799.9042,2800.4033,2800.4034,2801.1736,729.0,2801.1737,2.0,2802.1724,7.0,29.0,239.0,5.0,1.0,0.8,0.7,Time
,,S05,169207,1,Male,29,anonymized,Serial_Dependence_U,2023.2.3,Win32,144.9275362,,,,,,,,,,,,2802.1727,8.0,2803.4844,s,1.2982,,2805.9981,2806.4945,2805.4949,2805.9981,2804.4888,165.0,2805.4949,2806.4945,2806.994,2806.994,2807.9583,950.2,2807.9585,3.0,2808.9573,8.0,0.0,240.0,26.0,1.0,1.0,0.7,Time
,,S05,169207,1,Male,29,anonymized,Serial_Dependence_U,2023.2.3,Win32,144.9275362,,,,,,,,,,,,2808.9576,8.0,2808.9586,,,,2811.8711,2812.3704,2811.3701,2811.871,2809.9634,132.0,2811.37,2812.3705,2812.8699,2812.87,2813.9954,1112.5,2813.9956,2.0,2814.9924,8.0,1.0,241.0,23.0,1.0,1.4,0.3,Time
,,S05,169207,1,Male,29,anonymized,Serial_Dependence_U,2023.2.3,Win32,144.9275362,,,,,,,,,,,,2814.9927,8.0,2814.9928,,,,2817.9073,2818.4057,2817.4017,2817.9072,2815.997,339.0,2817.4016,2818.4057,2818.9052,2818.9052,2820.4107,1479.4,2820.4108,4.0,2821.4096,8.0,2.0,242.0,18.0,1.0,1.4,0.7,Time
,,S05,169207,1,Male,29,anonymized,Serial_Dependence_U,2023.2.3,Win32,144.9275362,,,,,,,,,,,,2821.4098,8.0,2821.4099,,,,2823.7227,2824.2193,2823.2185,2823.7226,2822.4157,116.0,2823.2185,2824.2193,2824.7187,2824.7187,2825.6068,873.8,2825.607,4.0,2826.6056,8.0,3.0,243.0,5.0,1.0,0.8,0.7,Time
,,S05,169207,1,Male,29,anonymized,Serial_Dependence_U,2023.2.3,Win32,144.9275362,,,,,,,,,,,,2826.6059,8.0,2826.606,,,,2829.725,2830.2201,2829.2196,2829.7249,2827.6119,96.0,2829.2195,2830.2201,2830.7195,2830.7196,2832.0502,1317.1,2832.0503,2.0,2833.0503,8.0,4.0,244.0,24.0,1.0,1.6,0.3,Time
,,S05,169207,1,Male,29,anonymized,Serial_Dependence_U,2023.2.3,Win32,144.9275362,,,,,,,,,,,,2833.0505,8.0,2833.0506,,,,2835.3675,2835.8668,2834.8612,2835.3674,2834.0565,313.0,2834.861,2835.8668,2836.3663,2836.3663,2837.4277,1038.7,2837.4279,4.0,2838.4265,8.0,5.0,245.0,15.0,1.0,0.8,0.7,Time
,,S05,169207,1,Male,29,anonymized,Serial_Dependence_U,2023.2.3,Win32,144.9275362,,,,,,,,,,,,2838.4267,8.0,2838.4268,,,,2840.9323,2841.4304,2840.4318,2840.9322,2839.4313,130.0,2840.4317,2841.4304,2841.9298,2841.9298,2842.9165,957.2,2842.9165,3.0,2843.914,8.0,6.0,246.0,1.0,1.0,1.0,0.3,Time
,,S05,169207,1,Male,29,anonymized,Serial_Dependence_U,2023.2.3,Win32,144.9275362,,,,,,,,,,,,2843.9142,8.0,2843.9143,,,,2846.8352,2847.3343,2846.3289,2846.8351,2844.9222,257.0,2846.3287,2847.3343,2847.8336,2847.8336,2849.4291,1554.2,2849.4293,4.0,2850.4285,8.0,7.0,247.0,13.0,1.0,1.4,0.3,Time
,,S05,169207,1,Male,29,anonymized,Serial_Dependence_U,2023.2.3,Win32,144.9275362,,,,,,,,,,,,2850.4291,8.0,2850.4292,,,,2852.7415,2853.2377,2852.2391,2852.7414,2851.4374,109.0,2852.239,2853.2378,2853.7374,2853.7375,2854.7225,973.4,2854.7227,4.0,2855.7211,8.0,8.0,248.0,0.0,1.0,0.8,0.3,Time
,,S05,169207,1,Male,29,anonymized,Serial_Dependence_U,2023.2.3,Win32,144.9275362,,,,,,,,,,,,2855.7214,8.0,2855.7216,,,,2858.4359,2858.9333,2857.9328,2858.4358,2856.7276,87.0,2857.9327,2858.9333,2859.4327,2859.4328,2860.9241,1477.7,2860.9242,4.0,2861.9231,8.0,9.0,249.0,2.0,1.0,1.2,0.3,Time
,,S05,169207,1,Male,29,anonymized,Serial_Dependence_U,2023.2.3,Win32,144.9275362,,,,,,,,,,,,2861.9235,8.0,2861.9236,,,,2864.8371,2865.3362,2864.3307,2864.837,2862.9243,135.0,2864.3307,2865.3362,2865.836,2865.836,2867.3898,1501.4,2867.39,4.0,2868.3888,8.0,10.0,250.0,8.0,1.0,1.4,0.7,Time
,,S05,169207,1,Male,29,anonymized,Serial_Dependence_U,2023.2.3,Win32,144.9275362,,,,,,,,,,,,2868.389,8.0,2868.3891,,,,2871.5036,2872.0037,2870.9978,2871.5036,2869.3948,123.0,2870.9977,2872.0038,2872.5026,2872.5026,2873.8054,1270.8,2873.8056,2.0,2874.8058,8.0,11.0,251.0,9.0,1.0,1.6,0.7,Time
,,S05,169207,1,Male,29,anonymized,Serial_Dependence_U,2023.2.3,Win32,144.9275362,,,,,,,,,,,,2874.8063,8.0,2874.8064,,,,2877.7194,2878.2191,2877.2131,2877.7193,2875.8064,209.0,2877.213,2878.2192,2878.7185,2878.7186,2880.1877,1455.4,2880.1879,3.0,2881.1878,8.0,12.0,252.0,3.0,1.0,1.4,0.3,Time
,,S05,169207,1,Male,29,anonymized,Serial_Dependence_U,2023.2.3,Win32,144.9275362,,,,,,,,,,,,2881.1881,8.0,2881.1881,,,,2884.306,2884.8046,2883.7996,2884.306,2882.1954,329.0,2883.7996,2884.8047,2885.3046,2885.3047,2886.7134,1378.6,2886.7136,2.0,2887.709,8.0,13.0,253.0,29.0,1.0,1.6,0.7,Time
,,S05,169207,1,Male,29,anonymized,Serial_Dependence_U,2023.2.3,Win32,144.9275362,,,,,,,,,,,,2887.7094,8.0,2887.7096,,,,2890.4285,2890.9279,2889.9223,2890.4285,2888.7154,1.0,2889.9222,2890.9279,2891.4274,2891.4276,2892.8707,1394.5,2892.8709,4.0,2893.8694,8.0,14.0,254.0,17.0,1.0,1.2,0.7,Time
,,S05,169207,1,Male,29,anonymized,Serial_Dependence_U,2023.2.3,Win32,144.9275362,,,,,,,,,,,,2893.8701,8.0,2893.8702,,,,2896.9846,2897.4836,2896.478,2896.9845,2894.8754,187.0,2896.4779,2897.4836,2897.9832,2897.9832,2899.5513,1535.0,2899.5514,3.0,2900.55,8.0,15.0,255.0,19.0,1.0,1.6,0.7,Time
,,S05,169207,1,Male,29,anonymized,Serial_Dependence_U,2023.2.3,Win32,144.9275362,,,,,,,,,,,,2900.5504,8.0,2900.5506,,,,2903.0614,2903.5607,2902.5554,2903.0613,2901.5543,131.0,2902.5552,2903.5607,2904.0607,2904.0608,2905.0387,955.8,2905.0389,3.0,2906.0376,8.0,16.0,256.0,21.0,1.0,1.0,0.3,Time
,,S05,169207,1,Male,29,anonymized,Serial_Dependence_U,2023.2.3,Win32,144.9275362,,,,,,,,,,,,2906.038,8.0,2906.0382,,,,2909.1455,2909.6444,2908.6395,2909.1453,2907.0377,268.0,2908.6394,2909.6444,2910.144,2910.144,2911.422,1247.6,2911.4221,2.0,2912.4196,8.0,17.0,257.0,4.0,1.0,1.6,0.3,Time
,,S05,169207,1,Male,29,anonymized,Serial_Dependence_U,2023.2.3,Win32,144.9275362,,,,,,,,,,,,2912.4198,8.0,2912.42,,,,2914.7328,2915.2316,2914.2263,2914.7328,2913.4247,290.0,2914.2263,2915.2316,2915.731,2915.731,2916.7379,998.4,2916.7381,4.0,2917.7336,8.0,18.0,258.0,20.0,1.0,0.8,0.3,Time
,,S05,169207,1,Male,29,anonymized,Serial_Dependence_U,2023.2.3,Win32,144.9275362,,,,,,,,,,,,2917.7343,8.0,2917.7345,,,,2920.2519,2920.7512,2919.7452,2920.2518,2918.7399,315.0,2919.7452,2920.7512,2921.2506,2921.2506,2922.3191,1052.8,2922.3191,4.0,2923.3179,8.0,19.0,259.0,16.0,1.0,1.0,0.7,Time
,,S05,169207,1,Male,29,anonymized,Serial_Dependence_U,2023.2.3,Win32,144.9275362,,,,,,,,,,,,2923.3183,8.0,2923.3183,,,,2925.6282,2926.1275,2925.1243,2925.6281,2924.3182,87.0,2925.1242,2926.1276,2926.627,2926.627,2927.4855,845.6,2927.4856,4.0,2928.4861,8.0,20.0,260.0,10.0,1.0,0.8,0.3,Time
,,S05,169207,1,Male,29,anonymized,Serial_Dependence_U,2023.2.3,Win32,144.9275362,,,,,,,,,,,,2928.4864,8.0,2928.4865,,,,2931.2023,2931.6981,2930.6977,2931.2022,2929.4868,152.0,2930.6976,2931.6981,2932.1976,2932.1977,2933.3283,1118.5,2933.3285,2.0,2934.3273,8.0,21.0,261.0,12.0,1.0,1.2,0.3,Time
,,S05,169207,1,Male,29,anonymized,Serial_Dependence_U,2023.2.3,Win32,144.9275362,,,,,,,,,,,,2934.3276,8.0,2934.3277,,,,2937.0384,2937.5393,2936.5336,2937.0383,2935.3315,22.0,2936.5335,2937.5393,2938.0388,2938.0388,2939.1734,1121.8,2939.1735,2.0,2940.1686,8.0,22.0,262.0,22.0,1.0,1.2,0.3,Time
,,S05,169207,1,Male,29,anonymized,Serial_Dependence_U,2023.2.3,Win32,144.9275362,,,,,,,,,,,,2940.1691,8.0,2940.1693,,,,2943.0768,2943.5745,2942.576,2943.0767,2941.173,271.0,2942.5758,2943.5745,2944.074,2944.074,2945.4672,1363.3,2945.4673,3.0,2946.4675,8.0,23.0,263.0,28.0,1.0,1.4,0.7,Time
,,S05,169207,1,Male,29,anonymized,Serial_Dependence_U,2023.2.3,Win32,144.9275362,,,,,,,,,,,,2946.4678,8.0,2946.4679,,,,2948.7832,2949.2841,2948.2784,2948.7832,2947.4735,327.0,2948.2783,2949.2841,2949.7839,2949.784,2950.7402,940.4,2950.7404,4.0,2951.74,8.0,24.0,264.0,25.0,1.0,0.8,0.7,Time
,,S05,169207,1,Male,29,anonymized,Serial_Dependence_U,2023.2.3,Win32,144.9275362,,,,,,,,,,,,2951.7404,8.0,2951.7406,,,,2954.8538,2955.3518,2954.3485,2954.8537,2952.745,318.0,2954.3485,2955.3518,2955.8514,2955.8514,2957.2204,1338.6,2957.2206,2.0,2958.2193,8.0,25.0,265.0,14.0,1.0,1.6,0.3,Time
,,S05,169207,1,Male,29,anonymized,Serial_Dependence_U,2023.2.3,Win32,144.9275362,,,,,,,,,,,,2958.2196,8.0,2958.2197,,,,2960.7363,2961.2369,2960.2273,2960.7362,2959.2241,91.0,2960.2273,2961.2369,2961.7364,2961.7365,2962.7866,1037.7,2962.7867,3.0,2963.7827,8.0,26.0,266.0,11.0,1.0,1.0,0.3,Time
,,S05,169207,1,Male,29,anonymized,Serial_Dependence_U,2023.2.3,Win32,144.9275362,,,,,,,,,,,,2963.783,8.0,2963.7831,,,,2966.5042,2967.0021,2965.9961,2966.5041,2964.7892,275.0,2965.9961,2967.0022,2967.5015,2967.5015,2968.6808,1165.1,2968.6809,3.0,2969.6796,8.0,27.0,267.0,27.0,1.0,1.2,0.7,Time
,,S05,169207,1,Male,29,anonymized,Serial_Dependence_U,2023.2.3,Win32,144.9275362,,,,,,,,,,,,2969.6798,8.0,2969.6799,,,,2972.3991,2972.8984,2971.8934,2972.3991,2970.691,182.0,2971.8933,2972.8984,2973.3979,2973.3979,2974.404,991.7,2974.4041,2.0,2975.4029,8.0,28.0,268.0,7.0,1.0,1.2,0.7,Time
,,S05,169207,1,Male,29,anonymized,Serial_Dependence_U,2023.2.3,Win32,144.9275362,,,,,,,,,,,,2975.4032,8.0,2975.4033,,,,2977.9214,2978.4205,2977.415,2977.9213,2976.4141,167.0,2977.4149,2978.4205,2978.92,2978.92,2980.1211,1167.0,2980.1213,4.0,2981.1191,8.0,29.0,269.0,6.0,1.0,1.0,0.7,Time
