Scale_setup.started,Scale_setup.stopped,participant,session,sex,age,date,expName,psychopyVersion,OS,frameRate,Intro.started,Intro.stopped,key_resp_2.keys,key_resp_2.rt,key_resp_2.duration,block.started,direction,Block_id,block.stopped,trial_direction,Block_resp_2.keys,Block_resp_2.rt,Block_resp_2.duration,ITI.started,ITI.stopped,Mask_2.started,Mask_2.stopped,encoding.started,encoding.stopped,Cue.started,Cue.stopped,Response.started,Response.stopped,keyDuration,Feedback_Time.started,FeedbackID_T,Feedback_Time.stopped,trials.thisRepN,trials.thisTrialN,trials.thisN,trials.thisIndex,trials.ran,TimeDur,Coherence1,TrialType
0.0,0.0,S06,1,男,22,anonymized,Serial_Dependence_U,2023.2.3,Win32,89.92805755399449,,,,,,,,,,,,,,,,,,,,,,,,,,,,,,,,,,,
,,S06,1,男,22,anonymized,Serial_Dependence_U,2023.2.3,Win32,89.92805755399449,1.51400000000001,1.8700000000000043,space,0.3309999999999888,,,,,,,,,,,,,,,,,,,,,,,,,,,,,,,
,,S06,1,男,22,anonymized,Serial_Dependence_U,2023.2.3,Win32,89.92805755399449,,,,,,1.874000000000024,17.0,0.0,164.84900000000002,17.0,s,162.94599999999997,,168.82200000000003,169.31500000000003,168.32200000000003,168.82200000000003,165.855,168.32200000000003,169.31500000000003,169.816,169.816,172.16800000000003,1946.0,172.16800000000003,5.0,173.17,0.0,0.0,0.0,13.0,1.0,1.4,0.3,Time
,,S06,1,男,22,anonymized,Serial_Dependence_U,2023.2.3,Win32,89.92805755399449,,,,,,173.172,41.0,0.0,173.17499999999998,41.0,,,,176.92800000000005,177.42600000000002,176.415,176.92800000000005,174.172,176.415,177.42600000000002,177.92600000000002,177.92600000000002,179.561,1325.0,179.561,4.0,180.56000000000003,0.0,1.0,1.0,27.0,1.0,1.2,0.7,Time
,,S06,1,男,22,anonymized,Serial_Dependence_U,2023.2.3,Win32,89.92805755399449,,,,,,180.561,243.0,0.0,180.561,243.0,,,,184.117,184.61500000000004,183.604,184.117,181.561,183.604,184.61500000000004,185.116,185.116,186.686,1269.0,186.686,4.0,187.681,0.0,2.0,2.0,16.0,1.0,1.0,0.7,Time
,,S06,1,男,22,anonymized,Serial_Dependence_U,2023.2.3,Win32,89.92805755399449,,,,,,187.682,242.0,0.0,187.682,242.0,,,,191.462,191.96,190.94700000000003,191.462,188.683,190.94700000000003,191.96,192.46,192.46,193.989,1265.0,193.989,4.0,194.982,0.0,3.0,3.0,2.0,1.0,1.2,0.3,Time
,,S06,1,男,22,anonymized,Serial_Dependence_U,2023.2.3,Win32,89.92805755399449,,,,,,194.98300000000003,341.0,0.0,194.98300000000003,341.0,,,,198.528,199.026,198.023,198.528,195.98300000000003,198.023,199.026,199.526,199.526,201.054,1219.0,201.05500000000004,4.0,202.049,0.0,4.0,4.0,26.0,1.0,1.0,0.7,Time
,,S06,1,男,22,anonymized,Serial_Dependence_U,2023.2.3,Win32,89.92805755399449,,,,,,202.049,240.0,0.0,202.049,240.0,,,,205.838,206.338,205.33400000000003,205.838,203.062,205.33400000000003,206.338,206.837,206.838,208.39400000000003,1385.0,208.39400000000003,4.0,209.393,0.0,5.0,5.0,22.0,1.0,1.2,0.3,Time
,,S06,1,男,22,anonymized,Serial_Dependence_U,2023.2.3,Win32,89.92805755399449,,,,,,209.39400000000003,253.0,0.0,209.39400000000003,253.0,,,,213.328,213.826,212.826,213.328,210.393,212.826,213.826,214.326,214.326,215.66600000000005,1031.0,215.66600000000005,2.0,216.66,0.0,6.0,6.0,8.0,1.0,1.4,0.7,Time
,,S06,1,男,22,anonymized,Serial_Dependence_U,2023.2.3,Win32,89.92805755399449,,,,,,216.66,203.0,0.0,216.66,203.0,,,,220.239,220.737,219.72800000000004,220.239,217.664,219.72800000000004,220.737,221.23800000000003,221.23800000000003,222.768,1229.0,222.768,4.0,223.771,0.0,7.0,7.0,1.0,1.0,1.0,0.3,Time
,,S06,1,男,22,anonymized,Serial_Dependence_U,2023.2.3,Win32,89.92805755399449,,,,,,223.773,41.0,0.0,223.773,41.0,,,,227.95,228.449,227.446,227.95,224.779,227.446,228.449,228.949,228.949,230.38900000000004,1122.0,230.38900000000004,2.0,231.38200000000003,0.0,8.0,8.0,4.0,1.0,1.6,0.3,Time
,,S06,1,男,22,anonymized,Serial_Dependence_U,2023.2.3,Win32,89.92805755399449,,,,,,231.38200000000003,188.0,0.0,231.38200000000003,188.0,,,,235.544,236.037,235.028,235.544,232.385,235.028,236.037,236.538,236.538,238.08900000000003,1256.0,238.08900000000003,2.0,239.082,0.0,9.0,9.0,29.0,1.0,1.6,0.7,Time
,,S06,1,男,22,anonymized,Serial_Dependence_U,2023.2.3,Win32,89.92805755399449,,,,,,239.082,295.0,0.0,239.082,295.0,,,,243.027,243.527,242.526,243.027,240.08400000000003,242.526,243.527,244.027,244.027,245.461,1101.0,245.461,2.0,246.46,0.0,10.0,10.0,28.0,1.0,1.4,0.7,Time
,,S06,1,男,22,anonymized,Serial_Dependence_U,2023.2.3,Win32,89.92805755399449,,,,,,246.46,72.0,0.0,246.46,72.0,,,,250.44000000000003,250.938,249.92300000000003,250.44000000000003,247.461,249.92300000000003,250.938,251.438,251.438,253.15,1347.0,253.15,3.0,254.14900000000003,0.0,11.0,11.0,3.0,1.0,1.4,0.3,Time
,,S06,1,男,22,anonymized,Serial_Dependence_U,2023.2.3,Win32,89.92805755399449,,,,,,254.14900000000003,115.0,0.0,254.14900000000003,115.0,,,,257.509,258.005,256.99800000000005,257.509,255.153,256.99800000000005,258.005,258.505,258.505,259.98400000000004,1163.0,259.98400000000004,5.0,260.982,0.0,12.0,12.0,5.0,1.0,0.8,0.7,Time
,,S06,1,男,22,anonymized,Serial_Dependence_U,2023.2.3,Win32,89.92805755399449,,,,,,260.98300000000006,107.0,0.0,260.98400000000004,107.0,,,,264.35,264.84900000000005,263.837,264.35,261.999,263.836,264.84900000000005,265.34900000000005,265.34900000000005,266.783,1125.0,266.783,5.0,267.78200000000004,0.0,13.0,13.0,25.0,1.0,0.8,0.7,Time
,,S06,1,男,22,anonymized,Serial_Dependence_U,2023.2.3,Win32,89.92805755399449,,,,,,267.78200000000004,244.0,0.0,267.78200000000004,244.0,,,,271.54,272.03700000000003,271.02599999999995,271.54,268.79600000000005,271.02599999999995,272.03700000000003,272.538,272.538,274.057,1153.0,274.057,3.0,275.049,0.0,14.0,14.0,17.0,1.0,1.2,0.7,Time
,,S06,1,男,22,anonymized,Serial_Dependence_U,2023.2.3,Win32,89.92805755399449,,,,,,275.049,203.0,0.0,275.049,203.0,,,,279.206,279.70500000000004,278.70400000000006,279.206,276.06500000000005,278.70400000000006,279.70500000000004,280.20500000000004,280.20500000000004,281.76700000000005,1189.0,281.76700000000005,2.0,282.76,0.0,15.0,15.0,19.0,1.0,1.6,0.7,Time
,,S06,1,男,22,anonymized,Serial_Dependence_U,2023.2.3,Win32,89.92805755399449,,,,,,282.76,143.0,0.0,282.761,143.0,,,,286.355,286.84900000000005,285.838,286.35400000000004,283.76300000000003,285.838,286.84900000000005,287.34900000000005,287.34900000000005,288.672,1082.0,288.672,4.0,289.67100000000005,0.0,16.0,16.0,21.0,1.0,1.0,0.3,Time
,,S06,1,男,22,anonymized,Serial_Dependence_U,2023.2.3,Win32,89.92805755399449,,,,,,289.672,346.0,0.0,289.672,346.0,,,,293.433,293.927,292.92,293.433,290.684,292.919,293.927,294.427,294.427,295.995,1206.0,295.995,3.0,296.994,0.0,17.0,17.0,7.0,1.0,1.2,0.7,Time
,,S06,1,男,22,anonymized,Serial_Dependence_U,2023.2.3,Win32,89.92805755399449,,,,,,296.994,21.0,0.0,296.994,21.0,,,,300.961,301.461,300.45900000000006,300.961,297.995,300.45900000000006,301.461,301.96000000000004,301.96000000000004,303.33000000000004,1124.0,303.33000000000004,2.0,304.327,0.0,18.0,18.0,23.0,1.0,1.4,0.3,Time
,,S06,1,男,22,anonymized,Serial_Dependence_U,2023.2.3,Win32,89.92805755399449,,,,,,304.327,299.0,0.0,304.327,299.0,,,,307.717,308.21500000000003,307.213,307.717,305.34400000000005,307.213,308.21500000000003,308.71500000000003,308.71500000000003,310.087,1093.0,310.087,5.0,311.082,0.0,19.0,19.0,10.0,1.0,0.8,0.3,Time
,,S06,1,男,22,anonymized,Serial_Dependence_U,2023.2.3,Win32,89.92805755399449,,,,,,311.082,9.0,0.0,311.082,9.0,,,,314.46500000000003,314.961,313.95900000000006,314.46500000000003,312.08900000000006,313.95900000000006,314.961,315.46000000000004,315.46000000000004,316.951,1161.0,316.951,5.0,317.949,0.0,20.0,20.0,0.0,1.0,0.8,0.3,Time
,,S06,1,男,22,anonymized,Serial_Dependence_U,2023.2.3,Win32,89.92805755399449,,,,,,317.95000000000005,343.0,0.0,317.95000000000005,343.0,,,,321.744,322.237,321.23,321.744,318.95000000000005,321.22900000000004,322.237,322.73800000000006,322.73800000000006,323.828,861.0,323.828,2.0,324.827,0.0,21.0,21.0,12.0,1.0,1.2,0.3,Time
,,S06,1,男,22,anonymized,Serial_Dependence_U,2023.2.3,Win32,89.92805755399449,,,,,,324.828,237.0,0.0,324.828,237.0,,,,329.006,329.505,328.506,329.006,325.838,328.506,329.505,330.004,330.004,331.616,1337.0,331.616,2.0,332.616,0.0,22.0,22.0,14.0,1.0,1.6,0.3,Time
,,S06,1,男,22,anonymized,Serial_Dependence_U,2023.2.3,Win32,89.92805755399449,,,,,,332.616,141.0,0.0,332.616,141.0,,,,336.203,336.70400000000006,335.703,336.203,333.63300000000004,335.702,336.70400000000006,337.20400000000006,337.20400000000006,338.80499999999995,1279.0,338.8059999999999,4.0,339.80499999999995,0.0,23.0,23.0,11.0,1.0,1.0,0.3,Time
,,S06,1,男,22,anonymized,Serial_Dependence_U,2023.2.3,Win32,89.92805755399449,,,,,,339.80499999999995,246.0,0.0,339.80499999999995,246.0,,,,343.9950000000001,344.49400000000014,343.4760000000001,343.9950000000001,340.8059999999999,343.4760000000001,344.49400000000014,344.99300000000005,344.99300000000005,346.5060000000001,1045.0,346.5060000000001,1.0,347.50400000000013,0.0,24.0,24.0,24.0,1.0,1.6,0.3,Time
,,S06,1,男,22,anonymized,Serial_Dependence_U,2023.2.3,Win32,89.92805755399449,,,,,,347.5050000000001,5.0,0.0,347.5050000000001,5.0,,,,351.67200000000014,352.17200000000014,351.16200000000015,351.67200000000014,348.51700000000005,351.16200000000015,352.17200000000014,352.67200000000014,352.67200000000014,354.37800000000004,1407.0,354.37800000000004,2.0,355.3710000000001,0.0,25.0,25.0,9.0,1.0,1.6,0.7,Time
,,S06,1,男,22,anonymized,Serial_Dependence_U,2023.2.3,Win32,89.92805755399449,,,,,,355.37200000000007,10.0,0.0,355.37300000000005,10.0,,,,358.92200000000014,359.41600000000005,358.4200000000001,358.92200000000014,356.38800000000015,358.4200000000001,359.41600000000005,359.91600000000005,359.91600000000005,361.51700000000005,1307.0,361.51700000000005,5.0,362.5160000000001,0.0,26.0,26.0,6.0,1.0,1.0,0.7,Time
,,S06,1,男,22,anonymized,Serial_Dependence_U,2023.2.3,Win32,89.92805755399449,,,,,,362.51700000000005,158.0,0.0,362.51700000000005,158.0,,,,365.8510000000001,366.3490000000001,365.35000000000014,365.8510000000001,363.5190000000001,365.35000000000014,366.3490000000001,366.8490000000001,366.8490000000001,368.2220000000001,1068.0,368.2220000000001,5.0,369.21500000000015,0.0,27.0,27.0,15.0,1.0,0.8,0.7,Time
,,S06,1,男,22,anonymized,Serial_Dependence_U,2023.2.3,Win32,89.92805755399449,,,,,,369.2160000000001,237.0,0.0,369.2160000000001,237.0,,,,373.16700000000014,373.6600000000001,372.6500000000001,373.16600000000005,370.2170000000001,372.6500000000001,373.6600000000001,374.1600000000001,374.1600000000001,375.5990000000001,1147.0,375.5990000000001,2.0,376.5940000000001,0.0,28.0,28.0,18.0,1.0,1.4,0.7,Time
,,S06,1,男,22,anonymized,Serial_Dependence_U,2023.2.3,Win32,89.92805755399449,,,,,,376.5940000000001,11.0,0.0,376.5940000000001,11.0,,,,379.9820000000001,380.4820000000001,379.4740000000001,379.9820000000001,377.6100000000001,379.47300000000007,380.4820000000001,380.9820000000001,380.9820000000001,381.8670000000001,580.0,381.8670000000001,2.0,382.8610000000001,0.0,29.0,29.0,20.0,1.0,0.8,0.3,Time
,,S06,1,男,22,anonymized,Serial_Dependence_U,2023.2.3,Win32,89.92805755399449,,,,,,382.8610000000001,15.0,1.0,449.1050000000001,15.0,s,66.21900000000005,,452.4670000000001,452.9610000000001,451.9570000000001,452.4670000000001,450.1210000000001,451.9570000000001,452.9610000000001,453.4610000000001,453.4610000000001,454.94600000000014,1135.0,454.9470000000001,5.0,454.9470000000001,1.0,0.0,30.0,25.0,1.0,0.8,0.7,Time
,,S06,1,男,22,anonymized,Serial_Dependence_U,2023.2.3,Win32,89.92805755399449,,,,,,454.9480000000001,170.0,1.0,454.9500000000001,170.0,,,,459.1230000000001,459.6160000000001,458.6070000000001,459.12200000000007,455.9620000000001,458.6070000000001,459.6160000000001,460.1160000000001,460.1160000000001,461.5620000000001,1095.0,461.5620000000001,1.0,461.5630000000001,1.0,1.0,31.0,19.0,1.0,1.6,0.7,Time
,,S06,1,男,22,anonymized,Serial_Dependence_U,2023.2.3,Win32,89.92805755399449,,,,,,461.5630000000001,114.0,1.0,461.5630000000001,114.0,,,,465.1400000000001,465.6390000000001,464.6400000000001,465.1400000000001,462.5620000000001,464.6400000000001,465.6390000000001,466.13800000000015,466.13800000000015,467.7930000000001,1270.0,467.7930000000001,4.0,467.7930000000001,1.0,2.0,32.0,11.0,1.0,1.0,0.3,Time
,,S06,1,男,22,anonymized,Serial_Dependence_U,2023.2.3,Win32,89.92805755399449,,,,,,467.7930000000001,40.0,1.0,467.7930000000001,40.0,,,,471.34500000000014,471.8380000000001,470.8310000000001,471.34500000000014,468.7960000000001,470.8310000000001,471.8380000000001,472.3380000000001,472.3380000000001,473.8550000000001,1131.0,473.8550000000001,4.0,473.8550000000001,1.0,3.0,33.0,6.0,1.0,1.0,0.7,Time
,,S06,1,男,22,anonymized,Serial_Dependence_U,2023.2.3,Win32,89.92805755399449,,,,,,473.8560000000001,185.0,1.0,473.8560000000001,185.0,,,,478.0290000000001,478.527,477.52300000000014,478.0290000000001,474.85300000000007,477.52300000000014,478.527,479.027,479.027,480.82900000000006,1374.0,480.82900000000006,2.0,480.83,1.0,4.0,34.0,14.0,1.0,1.6,0.3,Time
,,S06,1,男,22,anonymized,Serial_Dependence_U,2023.2.3,Win32,89.92805755399449,,,,,,480.83,238.0,1.0,480.83,238.0,,,,484.4290000000001,484.9270000000001,483.92200000000014,484.4290000000001,481.8440000000001,483.9210000000001,484.9270000000001,485.4270000000001,485.4270000000001,486.9280000000001,1215.0,486.9280000000001,4.0,486.93000000000006,1.0,5.0,35.0,21.0,1.0,1.0,0.3,Time
,,S06,1,男,22,anonymized,Serial_Dependence_U,2023.2.3,Win32,89.92805755399449,,,,,,486.931,149.0,1.0,486.931,149.0,,,,490.32100000000014,490.81600000000014,489.806,490.32100000000014,487.94100000000014,489.806,490.81600000000014,491.31600000000014,491.31600000000014,492.7740000000001,1196.0,492.7740000000001,5.0,492.7750000000001,1.0,6.0,36.0,20.0,1.0,0.8,0.3,Time
,,S06,1,男,22,anonymized,Serial_Dependence_U,2023.2.3,Win32,89.92805755399449,,,,,,492.7750000000001,173.0,1.0,492.7750000000001,173.0,,,,496.1230000000001,496.6160000000001,495.62200000000007,496.1230000000001,493.7790000000001,495.62200000000007,496.6160000000001,497.1170000000001,497.1170000000001,498.3670000000001,928.0,498.3670000000001,4.0,498.36800000000005,1.0,7.0,37.0,5.0,1.0,0.8,0.7,Time
,,S06,1,男,22,anonymized,Serial_Dependence_U,2023.2.3,Win32,89.92805755399449,,,,,,498.36800000000005,16.0,1.0,498.36800000000005,16.0,,,,502.35000000000014,502.8490000000001,501.83500000000015,502.35000000000014,499.3730000000001,501.83500000000015,502.8490000000001,503.3490000000001,503.3490000000001,504.9710000000001,1324.0,504.9720000000001,2.0,504.9720000000001,1.0,8.0,38.0,13.0,1.0,1.4,0.3,Time
,,S06,1,男,22,anonymized,Serial_Dependence_U,2023.2.3,Win32,89.92805755399449,,,,,,504.9720000000001,6.0,1.0,504.9720000000001,6.0,,,,508.3560000000001,508.85000000000014,507.83900000000006,508.3560000000001,505.9720000000001,507.83900000000006,508.85000000000014,509.35000000000014,509.35000000000014,510.7550000000001,1109.0,510.7550000000001,5.0,510.7550000000001,1.0,9.0,39.0,0.0,1.0,0.8,0.3,Time
,,S06,1,男,22,anonymized,Serial_Dependence_U,2023.2.3,Win32,89.92805755399449,,,,,,510.7550000000001,190.0,1.0,510.7550000000001,190.0,,,,514.9300000000001,515.4280000000001,514.4230000000001,514.9300000000001,511.7550000000001,514.4220000000001,515.4280000000001,515.9270000000001,515.9270000000001,517.5130000000001,1217.0,517.5130000000001,2.0,517.5130000000001,1.0,10.0,40.0,4.0,1.0,1.6,0.3,Time
,,S06,1,男,22,anonymized,Serial_Dependence_U,2023.2.3,Win32,89.92805755399449,,,,,,517.5140000000001,222.0,1.0,517.5140000000001,222.0,,,,521.1120000000001,521.6050000000001,520.599,521.1120000000001,518.5290000000001,520.599,521.6050000000001,522.1050000000001,522.1050000000001,523.5620000000001,955.0,523.5620000000001,3.0,523.5630000000001,1.0,11.0,41.0,1.0,1.0,1.0,0.3,Time
,,S06,1,男,22,anonymized,Serial_Dependence_U,2023.2.3,Win32,89.92805755399449,,,,,,523.5640000000001,274.0,1.0,523.5640000000001,274.0,,,,527.4990000000001,527.9950000000001,526.9970000000001,527.4990000000001,524.565,526.9960000000001,527.9950000000001,528.4940000000001,528.4940000000001,529.8900000000001,1161.0,529.8900000000001,2.0,529.8910000000001,1.0,12.0,42.0,8.0,1.0,1.4,0.7,Time
,,S06,1,男,22,anonymized,Serial_Dependence_U,2023.2.3,Win32,89.92805755399449,,,,,,529.8910000000001,177.0,1.0,529.8910000000001,177.0,,,,533.6720000000001,534.1720000000001,533.157,533.6720000000001,530.8900000000001,533.1560000000001,534.1720000000001,534.6720000000001,534.6720000000001,536.2920000000001,1328.0,536.2930000000001,4.0,536.2930000000001,1.0,13.0,43.0,12.0,1.0,1.2,0.3,Time
,,S06,1,男,22,anonymized,Serial_Dependence_U,2023.2.3,Win32,89.92805755399449,,,,,,536.2930000000001,95.0,1.0,536.2930000000001,95.0,,,,540.0600000000001,540.5610000000001,539.556,540.0600000000001,537.3110000000001,539.5550000000001,540.5610000000001,541.0610000000001,541.0610000000001,542.4460000000001,1060.0,542.4460000000001,2.0,542.4470000000001,1.0,14.0,44.0,17.0,1.0,1.2,0.7,Time
,,S06,1,男,22,anonymized,Serial_Dependence_U,2023.2.3,Win32,89.92805755399449,,,,,,542.4470000000001,164.0,1.0,542.4470000000001,164.0,,,,545.8290000000001,546.3270000000001,545.3230000000001,545.8290000000001,543.4510000000001,545.3220000000001,546.3270000000001,546.8280000000001,546.8280000000001,548.1510000000001,1136.0,548.1510000000001,5.0,548.1530000000001,1.0,15.0,45.0,10.0,1.0,0.8,0.3,Time
,,S06,1,男,22,anonymized,Serial_Dependence_U,2023.2.3,Win32,89.92805755399449,,,,,,548.1530000000001,287.0,1.0,548.1530000000001,287.0,,,,551.9250000000001,552.4280000000001,551.4180000000001,551.9250000000001,549.1510000000001,551.4170000000001,552.4280000000001,552.9270000000001,552.9270000000001,554.8590000000002,1543.0,554.8590000000002,4.0,554.8600000000001,1.0,16.0,46.0,2.0,1.0,1.2,0.3,Time
,,S06,1,男,22,anonymized,Serial_Dependence_U,2023.2.3,Win32,89.92805755399449,,,,,,554.8600000000001,11.0,1.0,554.8600000000001,11.0,,,,559.0130000000001,559.5050000000001,558.5120000000001,559.0120000000001,555.8670000000001,558.5120000000001,559.5050000000001,560.0050000000001,560.0050000000001,560.7180000000001,496.0,560.7180000000001,1.0,560.7180000000001,1.0,17.0,47.0,9.0,1.0,1.6,0.7,Time
,,S06,1,男,22,anonymized,Serial_Dependence_U,2023.2.3,Win32,89.92805755399449,,,,,,560.7180000000001,315.0,1.0,560.719,315.0,,,,564.6610000000001,565.1610000000001,564.1610000000001,564.6610000000001,561.729,564.1610000000001,565.1610000000001,565.6610000000001,565.6610000000001,566.9610000000001,1135.0,566.9610000000001,2.0,566.9610000000001,1.0,18.0,48.0,18.0,1.0,1.4,0.7,Time
,,S06,1,男,22,anonymized,Serial_Dependence_U,2023.2.3,Win32,89.92805755399449,,,,,,566.9620000000001,299.0,1.0,566.9620000000001,299.0,,,,570.7400000000001,571.238,570.2360000000001,570.7400000000001,567.974,570.2360000000001,571.238,571.7390000000001,571.7390000000001,573.2900000000001,1313.0,573.2900000000001,4.0,573.2900000000001,1.0,19.0,49.0,22.0,1.0,1.2,0.3,Time
,,S06,1,男,22,anonymized,Serial_Dependence_U,2023.2.3,Win32,89.92805755399449,,,,,,573.2900000000001,216.0,1.0,573.2900000000001,216.0,,,,576.8330000000001,577.3270000000001,576.3290000000001,576.8330000000001,574.2920000000001,576.3280000000001,577.3270000000001,577.8270000000001,577.8270000000001,579.4060000000001,1339.0,579.4060000000001,5.0,579.407,1.0,20.0,50.0,16.0,1.0,1.0,0.7,Time
,,S06,1,男,22,anonymized,Serial_Dependence_U,2023.2.3,Win32,89.92805755399449,,,,,,579.4090000000001,113.0,1.0,579.4090000000001,113.0,,,,583.392,583.8940000000001,582.8790000000001,583.392,580.4060000000001,582.878,583.8940000000001,584.3950000000001,584.3950000000001,585.8170000000001,1063.0,585.8170000000001,2.0,585.8180000000001,1.0,21.0,51.0,3.0,1.0,1.4,0.3,Time
,,S06,1,男,22,anonymized,Serial_Dependence_U,2023.2.3,Win32,89.92805755399449,,,,,,585.8180000000001,89.0,1.0,585.8180000000001,89.0,,,,589.7740000000001,590.272,589.2640000000001,589.7740000000001,586.83,589.2640000000001,590.272,590.772,590.772,592.3560000000001,1350.0,592.3560000000001,3.0,592.3570000000001,1.0,22.0,52.0,28.0,1.0,1.4,0.7,Time
,,S06,1,男,22,anonymized,Serial_Dependence_U,2023.2.3,Win32,89.92805755399449,,,,,,592.3570000000001,6.0,1.0,592.3580000000001,6.0,,,,596.5280000000001,597.0280000000001,596.017,596.5280000000001,593.3570000000001,596.017,597.0280000000001,597.5280000000001,597.5280000000001,598.9800000000001,1180.0,598.9800000000001,2.0,598.9810000000001,1.0,23.0,53.0,24.0,1.0,1.6,0.3,Time
,,S06,1,男,22,anonymized,Serial_Dependence_U,2023.2.3,Win32,89.92805755399449,,,,,,598.9810000000001,263.0,1.0,598.9810000000001,263.0,,,,603.1310000000001,603.628,602.6290000000001,603.1310000000001,599.9840000000002,602.6290000000001,603.628,604.1270000000001,604.1270000000001,605.748,1308.0,605.748,2.0,605.7490000000001,1.0,24.0,54.0,29.0,1.0,1.6,0.7,Time
,,S06,1,男,22,anonymized,Serial_Dependence_U,2023.2.3,Win32,89.92805755399449,,,,,,605.7490000000001,80.0,1.0,605.7490000000001,80.0,,,,609.5120000000001,610.0050000000001,608.998,609.5120000000001,606.7630000000001,608.998,610.0050000000001,610.5050000000001,610.5050000000001,612.3550000000001,1410.0,612.3550000000001,4.0,612.3560000000001,1.0,25.0,55.0,7.0,1.0,1.2,0.7,Time
,,S06,1,男,22,anonymized,Serial_Dependence_U,2023.2.3,Win32,89.92805755399449,,,,,,612.3570000000001,130.0,1.0,612.3570000000001,130.0,,,,615.9060000000001,616.4050000000001,615.3840000000001,615.9060000000001,613.3530000000001,615.3840000000001,616.4050000000001,616.9060000000001,616.9060000000001,618.6070000000001,1369.0,618.6070000000001,5.0,618.6080000000001,1.0,26.0,56.0,26.0,1.0,1.0,0.7,Time
,,S06,1,男,22,anonymized,Serial_Dependence_U,2023.2.3,Win32,89.92805755399449,,,,,,618.6090000000002,328.0,1.0,618.6090000000002,328.0,,,,622.6000000000001,623.094,622.0850000000002,622.6000000000001,619.6240000000001,622.0850000000002,623.094,623.594,623.594,625.267,1157.0,625.267,2.0,625.2680000000001,1.0,27.0,57.0,23.0,1.0,1.4,0.3,Time
,,S06,1,男,22,anonymized,Serial_Dependence_U,2023.2.3,Win32,89.92805755399449,,,,,,625.2680000000001,146.0,1.0,625.2680000000001,146.0,,,,629.0090000000001,629.5050000000001,628.498,629.0090000000001,626.2610000000001,628.498,629.5050000000001,630.0050000000001,630.0050000000001,631.7730000000001,1405.0,631.7730000000001,4.0,631.7740000000001,1.0,28.0,58.0,27.0,1.0,1.2,0.7,Time
,,S06,1,男,22,anonymized,Serial_Dependence_U,2023.2.3,Win32,89.92805755399449,,,,,,631.7740000000001,255.0,1.0,631.7740000000001,255.0,,,,635.123,635.6160000000001,634.6210000000001,635.1220000000001,632.7790000000001,634.6210000000001,635.6160000000001,636.1160000000001,636.1160000000001,637.6690000000001,1213.0,637.6690000000001,5.0,637.6700000000001,1.0,29.0,59.0,15.0,1.0,0.8,0.7,Time
,,S06,1,男,22,anonymized,Serial_Dependence_U,2023.2.3,Win32,89.92805755399449,,,,,,637.6700000000001,26.0,2.0,640.695,26.0,s,3.006999999999948,,644.2730000000001,644.772,643.7640000000001,644.2730000000001,641.6990000000001,643.7640000000001,644.772,645.272,645.272,646.9960000000001,1278.0,646.9960000000001,4.0,646.9970000000001,2.0,0.0,60.0,21.0,1.0,1.0,0.3,Time
,,S06,1,男,22,anonymized,Serial_Dependence_U,2023.2.3,Win32,89.92805755399449,,,,,,646.998,194.0,2.0,646.9990000000001,194.0,,,,650.5400000000001,651.0390000000001,650.0350000000001,650.5400000000001,647.9960000000001,650.0350000000001,651.0390000000001,651.5390000000001,651.5390000000001,653.0550000000001,1109.0,653.0550000000001,4.0,653.056,2.0,1.0,61.0,6.0,1.0,1.0,0.7,Time
,,S06,1,男,22,anonymized,Serial_Dependence_U,2023.2.3,Win32,89.92805755399449,,,,,,653.056,41.0,2.0,653.056,41.0,,,,657.2400000000001,657.738,656.724,657.2400000000001,654.0570000000001,656.724,657.738,658.2390000000001,658.2390000000001,659.7450000000001,1177.0,659.7450000000001,2.0,659.7450000000001,2.0,2.0,62.0,24.0,1.0,1.6,0.3,Time
,,S06,1,男,22,anonymized,Serial_Dependence_U,2023.2.3,Win32,89.92805755399449,,,,,,659.7450000000001,183.0,2.0,659.7450000000001,183.0,,,,663.099,663.594,662.5830000000001,663.099,660.7460000000001,662.5830000000001,663.594,664.0950000000001,664.0950000000001,665.6450000000001,1268.0,665.6450000000001,5.0,665.6450000000001,2.0,3.0,63.0,5.0,1.0,0.8,0.7,Time
,,S06,1,男,22,anonymized,Serial_Dependence_U,2023.2.3,Win32,89.92805755399449,,,,,,665.6460000000001,331.0,2.0,665.6460000000001,331.0,,,,669.2350000000001,669.7270000000001,668.7300000000001,669.2350000000001,666.6550000000001,668.7300000000001,669.7270000000001,670.2270000000001,670.2270000000001,671.9370000000001,1480.0,671.9370000000001,5.0,671.9370000000001,2.0,4.0,64.0,11.0,1.0,1.0,0.3,Time
,,S06,1,男,22,anonymized,Serial_Dependence_U,2023.2.3,Win32,89.92805755399449,,,,,,671.9380000000001,90.0,2.0,671.9380000000001,90.0,,,,676.1330000000002,676.6270000000001,675.6220000000001,676.1330000000002,672.9480000000001,675.6220000000001,676.628,677.128,677.128,678.9860000000001,1667.0,678.9860000000001,3.0,678.988,2.0,5.0,65.0,14.0,1.0,1.6,0.3,Time
,,S06,1,男,22,anonymized,Serial_Dependence_U,2023.2.3,Win32,89.92805755399449,,,,,,678.9890000000001,312.0,2.0,678.9890000000001,312.0,,,,682.7650000000001,683.2610000000001,682.2600000000001,682.7650000000001,679.9860000000001,682.2600000000001,683.2610000000001,683.7610000000001,683.7610000000001,685.3950000000001,1409.0,685.3950000000001,4.0,685.3950000000001,2.0,6.0,66.0,22.0,1.0,1.2,0.3,Time
,,S06,1,男,22,anonymized,Serial_Dependence_U,2023.2.3,Win32,89.92805755399449,,,,,,685.3960000000001,106.0,2.0,685.3960000000001,106.0,,,,688.955,689.45,688.4380000000001,688.955,686.3950000000001,688.4380000000001,689.45,689.95,689.95,691.7450000000001,1493.0,691.7450000000001,5.0,691.7460000000001,2.0,7.0,67.0,16.0,1.0,1.0,0.7,Time
,,S06,1,男,22,anonymized,Serial_Dependence_U,2023.2.3,Win32,89.92805755399449,,,,,,691.7460000000001,213.0,2.0,691.7460000000001,213.0,,,,695.69,696.1840000000001,695.1860000000001,695.69,692.7460000000001,695.1860000000001,696.1840000000001,696.6840000000001,696.6840000000001,698.4630000000001,1528.0,698.4630000000001,4.0,698.4630000000001,2.0,8.0,68.0,8.0,1.0,1.4,0.7,Time
,,S06,1,男,22,anonymized,Serial_Dependence_U,2023.2.3,Win32,89.92805755399449,,,,,,698.464,211.0,2.0,698.464,211.0,,,,701.8640000000001,702.3610000000001,701.3520000000001,701.8640000000001,699.479,701.3520000000001,702.3620000000001,702.8610000000001,702.8610000000001,704.3400000000001,1232.0,704.3400000000001,5.0,704.3410000000001,2.0,9.0,69.0,20.0,1.0,0.8,0.3,Time
,,S06,1,男,22,anonymized,Serial_Dependence_U,2023.2.3,Win32,89.92805755399449,,,,,,704.3420000000001,48.0,2.0,704.3420000000001,48.0,,,,708.2830000000001,708.7830000000001,707.7730000000001,708.282,705.3400000000001,707.7730000000001,708.7830000000001,709.2840000000001,709.2840000000001,710.8420000000001,1298.0,710.8420000000001,2.0,710.8420000000001,2.0,10.0,70.0,28.0,1.0,1.4,0.7,Time
,,S06,1,男,22,anonymized,Serial_Dependence_U,2023.2.3,Win32,89.92805755399449,,,,,,710.8420000000001,281.0,2.0,710.8420000000001,281.0,,,,714.2070000000001,714.705,713.6960000000001,714.2070000000001,711.8460000000001,713.6960000000001,714.7060000000001,715.2060000000001,715.2060000000001,716.6790000000001,1257.0,716.6790000000001,5.0,716.6800000000001,2.0,11.0,71.0,25.0,1.0,0.8,0.7,Time
,,S06,1,男,22,anonymized,Serial_Dependence_U,2023.2.3,Win32,89.92805755399449,,,,,,716.6800000000001,100.0,2.0,716.6800000000001,100.0,,,,720.4520000000001,720.9510000000001,719.9430000000001,720.4520000000001,717.6780000000001,719.9430000000001,720.9510000000001,721.4510000000001,721.4510000000001,722.974,1102.0,722.9750000000001,2.0,722.9750000000001,2.0,12.0,72.0,12.0,1.0,1.2,0.3,Time
,,S06,1,男,22,anonymized,Serial_Dependence_U,2023.2.3,Win32,89.92805755399449,,,,,,722.9760000000001,169.0,2.0,722.9760000000001,169.0,,,,727.1320000000001,727.628,726.6190000000001,727.1320000000001,723.9770000000001,726.6190000000001,727.628,728.128,728.128,729.8830000000002,1553.0,729.8830000000002,3.0,729.8830000000002,2.0,13.0,73.0,9.0,1.0,1.6,0.7,Time
,,S06,1,男,22,anonymized,Serial_Dependence_U,2023.2.3,Win32,89.92805755399449,,,,,,729.8830000000002,6.0,2.0,729.8830000000002,6.0,,,,733.8500000000001,734.3510000000001,733.3470000000001,733.8500000000001,730.8850000000001,733.3470000000001,734.3510000000001,734.8500000000001,734.8500000000001,736.4410000000001,1359.0,736.4410000000001,3.0,736.4420000000001,2.0,14.0,74.0,13.0,1.0,1.4,0.3,Time
,,S06,1,男,22,anonymized,Serial_Dependence_U,2023.2.3,Win32,89.92805755399449,,,,,,736.4430000000001,277.0,2.0,736.4430000000001,277.0,,,,739.9920000000001,740.4940000000001,739.479,739.9920000000001,737.4410000000001,739.479,740.4940000000001,740.9950000000001,740.9950000000001,742.5690000000001,1246.0,742.5690000000001,4.0,742.57,2.0,15.0,75.0,26.0,1.0,1.0,0.7,Time
,,S06,1,男,22,anonymized,Serial_Dependence_U,2023.2.3,Win32,89.92805755399449,,,,,,742.57,104.0,2.0,742.57,104.0,,,,746.5520000000001,747.0500000000001,746.046,746.5520000000001,743.5780000000001,746.046,747.0500000000001,747.5500000000001,747.5500000000001,749.363,1516.0,749.3640000000001,4.0,749.3640000000001,2.0,16.0,76.0,23.0,1.0,1.4,0.3,Time
,,S06,1,男,22,anonymized,Serial_Dependence_U,2023.2.3,Win32,89.92805755399449,,,,,,749.3650000000001,132.0,2.0,749.3650000000001,132.0,,,,753.3410000000001,753.839,752.8260000000001,753.3410000000001,750.3620000000001,752.8260000000001,753.839,754.339,754.339,755.969,1301.0,755.969,2.0,755.969,2.0,17.0,77.0,3.0,1.0,1.4,0.3,Time
,,S06,1,男,22,anonymized,Serial_Dependence_U,2023.2.3,Win32,89.92805755399449,,,,,,755.969,85.0,2.0,755.969,85.0,,,,759.5340000000001,760.0280000000001,759.0340000000001,759.5340000000001,756.9680000000001,759.0340000000001,760.0280000000001,760.5280000000001,760.5290000000001,761.6290000000001,972.0,761.6290000000001,3.0,761.6300000000001,2.0,18.0,78.0,1.0,1.0,1.0,0.3,Time
,,S06,1,男,22,anonymized,Serial_Dependence_U,2023.2.3,Win32,89.92805755399449,,,,,,761.6300000000001,295.0,2.0,761.6300000000001,295.0,,,,765.0060000000001,765.5060000000001,764.5020000000001,765.0050000000001,762.6400000000001,764.5020000000001,765.5060000000001,766.0060000000001,766.0060000000001,767.4120000000001,1192.0,767.4120000000001,5.0,767.4130000000001,2.0,19.0,79.0,0.0,1.0,0.8,0.3,Time
,,S06,1,男,22,anonymized,Serial_Dependence_U,2023.2.3,Win32,89.92805755399449,,,,,,767.4130000000001,64.0,2.0,767.4140000000001,64.0,,,,771.1560000000001,771.6500000000001,770.6430000000001,771.1560000000001,768.407,770.6430000000001,771.6500000000001,772.1500000000001,772.1500000000001,773.8280000000001,1344.0,773.8280000000001,4.0,773.8280000000001,2.0,20.0,80.0,17.0,1.0,1.2,0.7,Time
,,S06,1,男,22,anonymized,Serial_Dependence_U,2023.2.3,Win32,89.92805755399449,,,,,,773.8280000000001,2.0,2.0,773.8280000000001,2.0,,,,777.9900000000001,778.4840000000002,777.4770000000001,777.9900000000001,774.8410000000001,777.4770000000001,778.4840000000002,778.9840000000002,778.9840000000002,780.5900000000001,1307.0,780.5910000000001,2.0,780.5910000000001,2.0,21.0,81.0,29.0,1.0,1.6,0.7,Time
,,S06,1,男,22,anonymized,Serial_Dependence_U,2023.2.3,Win32,89.92805755399449,,,,,,780.5910000000001,10.0,2.0,780.5910000000001,10.0,,,,784.7320000000001,785.2280000000001,784.2270000000001,784.7320000000001,781.589,784.2270000000001,785.2280000000001,785.7280000000001,785.7280000000001,787.6300000000001,1527.0,787.6300000000001,3.0,787.6300000000001,2.0,22.0,82.0,19.0,1.0,1.6,0.7,Time
,,S06,1,男,22,anonymized,Serial_Dependence_U,2023.2.3,Win32,89.92805755399449,,,,,,787.6310000000001,173.0,2.0,787.6310000000001,173.0,,,,791.4190000000001,791.9170000000001,790.9130000000001,791.4190000000001,788.6410000000001,790.9130000000001,791.9170000000001,792.4170000000001,792.4170000000001,794.0630000000001,1379.0,794.0630000000001,4.0,794.0640000000001,2.0,23.0,83.0,2.0,1.0,1.2,0.3,Time
,,S06,1,男,22,anonymized,Serial_Dependence_U,2023.2.3,Win32,89.92805755399449,,,,,,794.0640000000001,170.0,2.0,794.0640000000001,170.0,,,,798.2450000000001,798.7390000000001,797.729,798.2450000000001,795.0630000000001,797.729,798.7390000000001,799.2400000000001,799.2400000000001,801.0210000000001,1480.0,801.0210000000001,2.0,801.022,2.0,24.0,84.0,4.0,1.0,1.6,0.3,Time
,,S06,1,男,22,anonymized,Serial_Dependence_U,2023.2.3,Win32,89.92805755399449,,,,,,801.0230000000001,339.0,2.0,801.0230000000001,339.0,,,,804.3600000000001,804.8620000000001,803.8580000000001,804.3600000000001,802.0280000000001,803.8580000000001,804.8620000000001,805.3620000000001,805.3620000000001,807.1860000000001,1518.0,807.1860000000001,5.0,807.1870000000001,2.0,25.0,85.0,15.0,1.0,0.8,0.7,Time
,,S06,1,男,22,anonymized,Serial_Dependence_U,2023.2.3,Win32,89.92805755399449,,,,,,807.1880000000001,171.0,2.0,807.1880000000001,171.0,,,,810.58,811.0730000000001,810.0630000000001,810.5790000000001,808.1970000000001,810.0630000000001,811.0730000000001,811.5730000000001,811.5730000000001,813.2940000000001,1387.0,813.2940000000001,5.0,813.2950000000001,2.0,26.0,86.0,10.0,1.0,0.8,0.3,Time
,,S06,1,男,22,anonymized,Serial_Dependence_U,2023.2.3,Win32,89.92805755399449,,,,,,813.2950000000001,241.0,2.0,813.2950000000001,241.0,,,,817.0440000000001,817.5390000000001,816.527,817.0440000000001,814.2950000000001,816.527,817.5390000000001,818.0400000000001,818.0400000000001,819.9590000000001,1630.0,819.9590000000001,5.0,819.9590000000001,2.0,27.0,87.0,27.0,1.0,1.2,0.7,Time
,,S06,1,男,22,anonymized,Serial_Dependence_U,2023.2.3,Win32,89.92805755399449,,,,,,819.9600000000002,63.0,2.0,819.9600000000002,63.0,,,,823.714,824.2060000000001,823.2020000000001,823.714,820.9710000000001,823.2020000000001,824.2060000000001,824.7060000000001,824.7060000000001,826.4430000000001,1447.0,826.4430000000001,4.0,826.4430000000001,2.0,28.0,88.0,7.0,1.0,1.2,0.7,Time
,,S06,1,男,22,anonymized,Serial_Dependence_U,2023.2.3,Win32,89.92805755399449,,,,,,826.4430000000001,42.0,2.0,826.4430000000001,42.0,,,,830.3850000000001,830.8840000000001,829.8800000000001,830.3850000000001,827.4410000000001,829.8800000000001,830.8840000000001,831.3840000000001,831.3840000000001,833.219,1550.0,833.219,4.0,833.2200000000001,2.0,29.0,89.0,18.0,1.0,1.4,0.7,Time
,,S06,1,男,22,anonymized,Serial_Dependence_U,2023.2.3,Win32,89.92805755399449,,,,,,833.2210000000001,212.0,3.0,1683.608,212.0,s,850.3709999999999,,1687.381,1687.875,1686.881,1687.381,1684.617,1686.881,1687.875,1688.375,1688.375,1690.151,1435.0,1690.151,4.0,1690.152,3.0,0.0,90.0,2.0,1.0,1.2,0.3,Time
,,S06,1,男,22,anonymized,Serial_Dependence_U,2023.2.3,Win32,89.92805755399449,,,,,,1690.153,314.0,3.0,1690.155,314.0,,,,1693.941,1694.442,1693.426,1693.941,1691.157,1693.426,1694.442,1694.942,1694.942,1696.685,1463.0,1696.685,4.0,1696.685,3.0,1.0,91.0,12.0,1.0,1.2,0.3,Time
,,S06,1,男,22,anonymized,Serial_Dependence_U,2023.2.3,Win32,89.92805755399449,,,,,,1696.686,312.0,3.0,1696.686,312.0,,,,1700.872,1701.364,1700.36,1700.872,1697.688,1700.36,1701.364,1701.864,1701.864,1703.477,1367.0,1703.477,2.0,1703.478,3.0,2.0,92.0,24.0,1.0,1.6,0.3,Time
,,S06,1,男,22,anonymized,Serial_Dependence_U,2023.2.3,Win32,89.92805755399449,,,,,,1703.478,165.0,3.0,1703.478,165.0,,,,1707.249,1707.742,1706.735,1707.249,1704.487,1706.735,1707.742,1708.242,1708.242,1709.76,1290.0,1709.76,4.0,1709.76,3.0,3.0,93.0,7.0,1.0,1.2,0.7,Time
,,S06,1,男,22,anonymized,Serial_Dependence_U,2023.2.3,Win32,89.92805755399449,,,,,,1709.76,3.0,3.0,1709.76,3.0,,,,1713.942,1714.442,1713.433,1713.942,1710.754,1713.433,1714.442,1714.942,1714.942,1716.338,1179.0,1716.338,2.0,1716.338,3.0,4.0,94.0,4.0,1.0,1.6,0.3,Time
,,S06,1,男,22,anonymized,Serial_Dependence_U,2023.2.3,Win32,89.92805755399449,,,,,,1716.339,144.0,3.0,1716.339,144.0,,,,1720.304,1720.797,1719.788,1720.304,1717.354,1719.788,1720.797,1721.297,1721.297,1722.822,1244.0,1722.822,2.0,1722.822,3.0,5.0,95.0,28.0,1.0,1.4,0.7,Time
,,S06,1,男,22,anonymized,Serial_Dependence_U,2023.2.3,Win32,89.92805755399449,,,,,,1722.822,28.0,3.0,1722.822,28.0,,,,1726.383,1726.875,1725.869,1726.382,1723.828,1725.869,1726.875,1727.375,1727.375,1728.718,1093.0,1728.718,4.0,1728.719,3.0,6.0,96.0,16.0,1.0,1.0,0.7,Time
,,S06,1,男,22,anonymized,Serial_Dependence_U,2023.2.3,Win32,89.92805755399449,,,,,,1728.72,47.0,3.0,1728.72,47.0,,,,1732.703,1733.197,1732.201,1732.702,1729.736,1732.201,1733.197,1733.697,1733.697,1735.23,1393.0,1735.23,3.0,1735.231,3.0,7.0,97.0,23.0,1.0,1.4,0.3,Time
,,S06,1,男,22,anonymized,Serial_Dependence_U,2023.2.3,Win32,89.92805755399449,,,,,,1735.231,292.0,3.0,1735.231,292.0,,,,1738.596,1739.097,1738.083,1738.596,1736.241,1738.083,1739.097,1739.597,1739.597,1741.086,1192.0,1741.086,5.0,1741.087,3.0,8.0,98.0,25.0,1.0,0.8,0.7,Time
,,S06,1,男,22,anonymized,Serial_Dependence_U,2023.2.3,Win32,89.92805755399449,,,,,,1741.087,314.0,3.0,1741.087,314.0,,,,1745.235,1745.731,1744.732,1745.235,1742.093,1744.732,1745.731,1746.231,1746.231,1747.833,1182.0,1747.833,2.0,1747.833,3.0,9.0,99.0,9.0,1.0,1.6,0.7,Time
,,S06,1,男,22,anonymized,Serial_Dependence_U,2023.2.3,Win32,89.92805755399449,,,,,,1747.834,250.0,3.0,1747.834,250.0,,,,1751.592,1752.086,1751.079,1751.592,1748.836,1751.079,1752.086,1752.587,1752.587,1754.452,1525.0,1754.452,4.0,1754.452,3.0,10.0,100.0,27.0,1.0,1.2,0.7,Time
,,S06,1,男,22,anonymized,Serial_Dependence_U,2023.2.3,Win32,89.92805755399449,,,,,,1754.453,120.0,3.0,1754.453,120.0,,,,1757.866,1758.364,1757.343,1757.866,1755.471,1757.343,1758.364,1758.865,1758.865,1760.195,1187.0,1760.196,5.0,1760.196,3.0,11.0,101.0,0.0,1.0,0.8,0.3,Time
,,S06,1,男,22,anonymized,Serial_Dependence_U,2023.2.3,Win32,89.92805755399449,,,,,,1760.197,302.0,3.0,1760.197,302.0,,,,1763.547,1764.042,1763.032,1763.547,1761.199,1763.032,1764.042,1764.542,1764.542,1766.243,1269.0,1766.244,5.0,1766.245,3.0,12.0,102.0,15.0,1.0,0.8,0.7,Time
,,S06,1,男,22,anonymized,Serial_Dependence_U,2023.2.3,Win32,89.92805755399449,,,,,,1766.245,240.0,3.0,1766.245,240.0,,,,1769.83,1770.331,1769.321,1769.83,1767.247,1769.321,1770.331,1770.831,1770.831,1772.41,1233.0,1772.41,4.0,1772.41,3.0,13.0,103.0,1.0,1.0,1.0,0.3,Time
,,S06,1,男,22,anonymized,Serial_Dependence_U,2023.2.3,Win32,89.92805755399449,,,,,,1772.411,26.0,3.0,1772.411,26.0,,,,1775.765,1776.264,1775.263,1775.765,1773.421,1775.263,1776.264,1776.764,1776.764,1778.414,1294.0,1778.414,5.0,1778.415,3.0,14.0,104.0,5.0,1.0,0.8,0.7,Time
,,S06,1,男,22,anonymized,Serial_Dependence_U,2023.2.3,Win32,89.92805755399449,,,,,,1778.415,65.0,3.0,1778.415,65.0,,,,1782.395,1782.897,1781.894,1782.395,1779.421,1781.893,1782.897,1783.398,1783.398,1784.963,1267.0,1784.963,2.0,1784.964,3.0,15.0,105.0,13.0,1.0,1.4,0.3,Time
,,S06,1,男,22,anonymized,Serial_Dependence_U,2023.2.3,Win32,89.92805755399449,,,,,,1784.964,320.0,3.0,1784.964,320.0,,,,1788.731,1789.231,1788.228,1788.731,1785.967,1788.228,1789.231,1789.731,1789.731,1791.165,1156.0,1791.165,3.0,1791.166,3.0,16.0,106.0,22.0,1.0,1.2,0.3,Time
,,S06,1,男,22,anonymized,Serial_Dependence_U,2023.2.3,Win32,89.92805755399449,,,,,,1791.167,334.0,3.0,1791.167,334.0,,,,1794.745,1795.242,1794.244,1794.745,1792.178,1794.244,1795.242,1795.742,1795.742,1797.281,1180.0,1797.281,4.0,1797.282,3.0,17.0,107.0,11.0,1.0,1.0,0.3,Time
,,S06,1,男,22,anonymized,Serial_Dependence_U,2023.2.3,Win32,89.92805755399449,,,,,,1797.282,165.0,3.0,1797.282,165.0,,,,1800.648,1801.142,1800.146,1800.648,1798.28,1800.146,1801.142,1801.642,1801.642,1803.297,1435.0,1803.297,5.0,1803.298,3.0,18.0,108.0,20.0,1.0,0.8,0.3,Time
,,S06,1,男,22,anonymized,Serial_Dependence_U,2023.2.3,Win32,89.92805755399449,,,,,,1803.298,267.0,3.0,1803.298,267.0,,,,1807.454,1807.953,1806.948,1807.454,1804.304,1806.948,1807.953,1808.454,1808.454,1810.325,1560.0,1810.325,3.0,1810.326,3.0,19.0,109.0,29.0,1.0,1.6,0.7,Time
,,S06,1,男,22,anonymized,Serial_Dependence_U,2023.2.3,Win32,89.92805755399449,,,,,,1810.326,34.0,3.0,1810.326,34.0,,,,1813.908,1814.408,1813.407,1813.907,1811.344,1813.406,1814.408,1814.908,1814.909,1816.2,1094.0,1816.2,4.0,1816.2,3.0,20.0,110.0,21.0,1.0,1.0,0.3,Time
,,S06,1,男,22,anonymized,Serial_Dependence_U,2023.2.3,Win32,89.92805755399449,,,,,,1816.2,331.0,3.0,1816.201,331.0,,,,1820.164,1820.665,1819.662,1820.164,1817.198,1819.662,1820.665,1821.164,1821.164,1822.837,1362.0,1822.837,3.0,1822.838,3.0,21.0,111.0,3.0,1.0,1.4,0.3,Time
,,S06,1,男,22,anonymized,Serial_Dependence_U,2023.2.3,Win32,89.92805755399449,,,,,,1822.839,356.0,3.0,1822.839,356.0,,,,1826.216,1826.709,1825.713,1826.216,1823.842,1825.713,1826.709,1827.209,1827.209,1828.82,1278.0,1828.82,5.0,1828.821,3.0,22.0,112.0,10.0,1.0,0.8,0.3,Time
,,S06,1,男,22,anonymized,Serial_Dependence_U,2023.2.3,Win32,89.92805755399449,,,,,,1828.821,231.0,3.0,1828.822,231.0,,,,1832.97,1833.465,1832.465,1832.97,1829.824,1832.465,1833.465,1833.965,1833.965,1835.555,1316.0,1835.555,2.0,1835.556,3.0,23.0,113.0,19.0,1.0,1.6,0.7,Time
,,S06,1,男,22,anonymized,Serial_Dependence_U,2023.2.3,Win32,89.92805755399449,,,,,,1835.556,158.0,3.0,1835.556,158.0,,,,1839.099,1839.598,1838.593,1839.099,1836.554,1838.593,1839.598,1840.098,1840.098,1841.671,1272.0,1841.671,4.0,1841.671,3.0,24.0,114.0,26.0,1.0,1.0,0.7,Time
,,S06,1,男,22,anonymized,Serial_Dependence_U,2023.2.3,Win32,89.92805755399449,,,,,,1841.671,327.0,3.0,1841.672,327.0,,,,1845.615,1846.109,1845.105,1845.615,1842.671,1845.105,1846.109,1846.609,1846.609,1848.044,1198.0,1848.044,2.0,1848.045,3.0,25.0,115.0,18.0,1.0,1.4,0.7,Time
,,S06,1,男,22,anonymized,Serial_Dependence_U,2023.2.3,Win32,89.92805755399449,,,,,,1848.045,158.0,3.0,1848.045,158.0,,,,1851.994,1852.487,1851.482,1851.993,1849.044,1851.482,1852.487,1852.987,1852.987,1854.605,1298.0,1854.605,2.0,1854.606,3.0,26.0,116.0,8.0,1.0,1.4,0.7,Time
,,S06,1,男,22,anonymized,Serial_Dependence_U,2023.2.3,Win32,89.92805755399449,,,,,,1854.606,213.0,3.0,1854.607,213.0,,,,1858.788,1859.286,1858.288,1858.788,1855.622,1858.288,1859.286,1859.787,1859.787,1861.363,1248.0,1861.363,2.0,1861.364,3.0,27.0,117.0,14.0,1.0,1.6,0.3,Time
,,S06,1,男,22,anonymized,Serial_Dependence_U,2023.2.3,Win32,89.92805755399449,,,,,,1861.364,166.0,3.0,1861.364,166.0,,,,1864.93,1865.431,1864.422,1864.929,1862.382,1864.421,1865.431,1865.931,1865.931,1867.655,1395.0,1867.655,5.0,1867.656,3.0,28.0,118.0,6.0,1.0,1.0,0.7,Time
,,S06,1,男,22,anonymized,Serial_Dependence_U,2023.2.3,Win32,89.92805755399449,,,,,,1867.656,97.0,3.0,1867.657,97.0,,,,1871.402,1871.898,1870.899,1871.402,1868.662,1870.899,1871.898,1872.398,1872.398,1874.008,1313.0,1874.008,4.0,1874.008,3.0,29.0,119.0,17.0,1.0,1.2,0.7,Time
,,S06,1,男,22,anonymized,Serial_Dependence_U,2023.2.3,Win32,89.92805755399449,,,,,,1874.009,304.0,4.0,1913.2770000000005,304.0,s,39.25200000000018,,1916.8490000000004,1917.343,1916.3470000000004,1916.8490000000004,1914.283,1916.3470000000004,1917.343,1917.843,1917.843,1919.611,1333.0,1919.611,5.0,1919.6120000000003,4.0,0.0,120.0,1.0,1.0,1.0,0.3,Time
,,S06,1,男,22,anonymized,Serial_Dependence_U,2023.2.3,Win32,89.92805755399449,,,,,,1919.613,45.0,4.0,1919.615,45.0,,,,1922.9890000000005,1923.4870000000003,1922.4830000000004,1922.9890000000005,1920.6100000000004,1922.4830000000004,1923.4870000000003,1923.9870000000003,1923.9870000000003,1925.4830000000004,1096.0,1925.4830000000004,5.0,1925.4830000000004,4.0,1.0,121.0,10.0,1.0,0.8,0.3,Time
,,S06,1,男,22,anonymized,Serial_Dependence_U,2023.2.3,Win32,89.92805755399449,,,,,,1925.4830000000004,185.0,4.0,1925.484,185.0,,,,1929.669,1930.164,1929.169,1929.669,1926.5,1929.169,1930.164,1930.665,1930.665,1932.352,1359.0,1932.352,2.0,1932.3530000000003,4.0,2.0,122.0,24.0,1.0,1.6,0.3,Time
,,S06,1,男,22,anonymized,Serial_Dependence_U,2023.2.3,Win32,89.92805755399449,,,,,,1932.3530000000003,142.0,4.0,1932.354,142.0,,,,1935.711,1936.209,1935.196,1935.711,1933.3620000000003,1935.196,1936.209,1936.709,1936.709,1938.231,1139.0,1938.231,5.0,1938.232,4.0,3.0,123.0,25.0,1.0,0.8,0.7,Time
,,S06,1,男,22,anonymized,Serial_Dependence_U,2023.2.3,Win32,89.92805755399449,,,,,,1938.232,330.0,4.0,1938.232,330.0,,,,1941.6170000000004,1942.109,1941.115,1941.616,1939.2480000000005,1941.115,1942.109,1942.6100000000004,1942.6100000000004,1944.104,1122.0,1944.104,5.0,1944.104,4.0,4.0,124.0,20.0,1.0,0.8,0.3,Time
,,S06,1,男,22,anonymized,Serial_Dependence_U,2023.2.3,Win32,89.92805755399449,,,,,,1944.105,247.0,4.0,1944.105,247.0,,,,1948.073,1948.5650000000005,1947.573,1948.073,1945.104,1947.573,1948.5650000000005,1949.0650000000005,1949.0650000000005,1950.544,1240.0,1950.544,2.0,1950.546,4.0,5.0,125.0,13.0,1.0,1.4,0.3,Time
,,S06,1,男,22,anonymized,Serial_Dependence_U,2023.2.3,Win32,89.92805755399449,,,,,,1950.546,164.0,4.0,1950.5470000000005,164.0,,,,1954.316,1954.8090000000004,1953.8150000000005,1954.316,1951.544,1953.8150000000005,1954.8090000000004,1955.31,1955.31,1956.8490000000004,1220.0,1956.8490000000004,3.0,1956.8490000000004,4.0,6.0,126.0,12.0,1.0,1.2,0.3,Time
,,S06,1,男,22,anonymized,Serial_Dependence_U,2023.2.3,Win32,89.92805755399449,,,,,,1956.8490000000004,24.0,4.0,1956.8490000000004,24.0,,,,1960.4220000000005,1960.921,1959.9220000000005,1960.4220000000005,1957.845,1959.9220000000005,1960.921,1961.421,1961.421,1963.109,1488.0,1963.109,5.0,1963.1100000000004,4.0,7.0,127.0,21.0,1.0,1.0,0.3,Time
,,S06,1,男,22,anonymized,Serial_Dependence_U,2023.2.3,Win32,89.92805755399449,,,,,,1963.1100000000004,14.0,4.0,1963.1100000000004,14.0,,,,1967.0880000000004,1967.587,1966.578,1967.087,1964.1100000000004,1966.578,1967.587,1968.087,1968.087,1969.611,1264.0,1969.611,2.0,1969.611,4.0,8.0,128.0,23.0,1.0,1.4,0.3,Time
,,S06,1,男,22,anonymized,Serial_Dependence_U,2023.2.3,Win32,89.92805755399449,,,,,,1969.6120000000003,78.0,4.0,1969.6120000000003,78.0,,,,1973.567,1974.0650000000005,1973.066,1973.567,1970.6190000000004,1973.066,1974.0650000000005,1974.564,1974.564,1976.361,1500.0,1976.361,4.0,1976.361,4.0,9.0,129.0,18.0,1.0,1.4,0.7,Time
,,S06,1,男,22,anonymized,Serial_Dependence_U,2023.2.3,Win32,89.92805755399449,,,,,,1976.361,74.0,4.0,1976.361,74.0,,,,1980.3200000000004,1980.821,1979.817,1980.3200000000004,1977.354,1979.817,1980.821,1981.321,1981.321,1983.0830000000003,1506.0,1983.0830000000003,4.0,1983.0830000000003,4.0,10.0,130.0,3.0,1.0,1.4,0.3,Time
,,S06,1,男,22,anonymized,Serial_Dependence_U,2023.2.3,Win32,89.92805755399449,,,,,,1983.084,135.0,4.0,1983.084,135.0,,,,1986.87,1987.365,1986.357,1986.87,1984.0880000000004,1986.357,1987.365,1987.8640000000005,1987.8640000000005,1989.526,1406.0,1989.526,4.0,1989.5270000000005,4.0,11.0,131.0,22.0,1.0,1.2,0.3,Time
,,S06,1,男,22,anonymized,Serial_Dependence_U,2023.2.3,Win32,89.92805755399449,,,,,,1989.5270000000005,64.0,4.0,1989.5270000000005,64.0,,,,1992.9110000000005,1993.4090000000003,1992.4110000000005,1992.9110000000005,1990.5360000000005,1992.4110000000005,1993.41,1993.9090000000003,1993.9090000000003,1995.7260000000003,1474.0,1995.7260000000003,5.0,1995.727,4.0,12.0,132.0,0.0,1.0,0.8,0.3,Time
,,S06,1,男,22,anonymized,Serial_Dependence_U,2023.2.3,Win32,89.92805755399449,,,,,,1995.727,28.0,4.0,1995.727,28.0,,,,1999.26,1999.754,1998.76,1999.26,1996.7260000000003,1998.759,1999.754,2000.254,2000.254,2002.073,1592.0,2002.073,5.0,2002.075,4.0,13.0,133.0,26.0,1.0,1.0,0.7,Time
,,S06,1,男,22,anonymized,Serial_Dependence_U,2023.2.3,Win32,89.92805755399449,,,,,,2002.075,50.0,4.0,2002.075,50.0,,,,2006.234,2006.732,2005.727,2006.234,2003.0940000000005,2005.727,2006.732,2007.231,2007.231,2008.9780000000003,1450.0,2008.9780000000003,2.0,2008.9780000000003,4.0,14.0,134.0,19.0,1.0,1.6,0.7,Time
,,S06,1,男,22,anonymized,Serial_Dependence_U,2023.2.3,Win32,89.92805755399449,,,,,,2008.979,95.0,4.0,2008.979,95.0,,,,2012.921,2013.421,2012.4200000000003,2012.921,2009.9780000000003,2012.419,2013.421,2013.9200000000003,2013.9200000000003,2015.6970000000003,1500.0,2015.6970000000003,4.0,2015.6970000000003,4.0,15.0,135.0,28.0,1.0,1.4,0.7,Time
,,S06,1,男,22,anonymized,Serial_Dependence_U,2023.2.3,Win32,89.92805755399449,,,,,,2015.698,306.0,4.0,2015.698,306.0,,,,2019.461,2019.9540000000004,2018.952,2019.4600000000005,2016.711,2018.951,2019.9540000000004,2020.4540000000004,2020.4540000000004,2022.2420000000004,1561.0,2022.2420000000004,5.0,2022.243,4.0,16.0,136.0,7.0,1.0,1.2,0.7,Time
,,S06,1,男,22,anonymized,Serial_Dependence_U,2023.2.3,Win32,89.92805755399449,,,,,,2022.243,141.0,4.0,2022.243,141.0,,,,2026.037,2026.5320000000004,2025.5230000000004,2026.037,2023.254,2025.522,2026.5320000000004,2027.0320000000004,2027.0320000000004,2028.611,1300.0,2028.611,4.0,2028.6120000000003,4.0,17.0,137.0,2.0,1.0,1.2,0.3,Time
,,S06,1,男,22,anonymized,Serial_Dependence_U,2023.2.3,Win32,89.92805755399449,,,,,,2028.6120000000003,149.0,4.0,2028.613,149.0,,,,2031.9650000000004,2032.4650000000004,2031.4560000000004,2031.9650000000004,2029.6230000000005,2031.4560000000004,2032.4650000000004,2032.9650000000004,2032.9650000000004,2034.4380000000003,1190.0,2034.4380000000003,5.0,2034.439,4.0,18.0,138.0,5.0,1.0,0.8,0.7,Time
,,S06,1,男,22,anonymized,Serial_Dependence_U,2023.2.3,Win32,89.92805755399449,,,,,,2034.439,226.0,4.0,2034.439,226.0,,,,2037.995,2038.4870000000003,2037.4940000000004,2037.995,2035.448,2037.493,2038.4870000000003,2038.9870000000003,2038.9870000000003,2040.5120000000004,1259.0,2040.5120000000004,4.0,2040.5120000000004,4.0,19.0,139.0,16.0,1.0,1.0,0.7,Time
,,S06,1,男,22,anonymized,Serial_Dependence_U,2023.2.3,Win32,89.92805755399449,,,,,,2040.513,181.0,4.0,2040.513,181.0,,,,2044.095,2044.587,2043.5940000000005,2044.095,2041.515,2043.5940000000005,2044.587,2045.087,2045.087,2046.3710000000003,1072.0,2046.3710000000003,4.0,2046.372,4.0,20.0,140.0,11.0,1.0,1.0,0.3,Time
,,S06,1,男,22,anonymized,Serial_Dependence_U,2023.2.3,Win32,89.92805755399449,,,,,,2046.3730000000005,228.0,4.0,2046.374,228.0,,,,2050.323,2050.82,2049.82,2050.323,2047.3890000000004,2049.82,2050.82,2051.321,2051.321,2052.938,1329.0,2052.938,2.0,2052.939,4.0,21.0,141.0,8.0,1.0,1.4,0.7,Time
,,S06,1,男,22,anonymized,Serial_Dependence_U,2023.2.3,Win32,89.92805755399449,,,,,,2052.939,92.0,4.0,2052.939,92.0,,,,2056.478,2056.976,2055.964,2056.478,2053.933,2055.964,2056.976,2057.476,2057.476,2059.038,1278.0,2059.038,4.0,2059.038,4.0,22.0,142.0,6.0,1.0,1.0,0.7,Time
,,S06,1,男,22,anonymized,Serial_Dependence_U,2023.2.3,Win32,89.92805755399449,,,,,,2059.039,120.0,4.0,2059.039,120.0,,,,2063.217,2063.71,2062.71,2063.217,2060.038,2062.71,2063.71,2064.21,2064.21,2064.615,128.0,2064.616,1.0,2064.616,4.0,23.0,143.0,4.0,1.0,1.6,0.3,Time
,,S06,1,男,22,anonymized,Serial_Dependence_U,2023.2.3,Win32,89.92805755399449,,,,,,2064.616,137.0,4.0,2064.616,137.0,,,,2068.362,2068.854,2067.849,2068.362,2065.611,2067.849,2068.854,2069.354,2069.354,2071.182,1554.0,2071.183,4.0,2071.183,4.0,24.0,144.0,17.0,1.0,1.2,0.7,Time
,,S06,1,男,22,anonymized,Serial_Dependence_U,2023.2.3,Win32,89.92805755399449,,,,,,2071.183,137.0,4.0,2071.183,137.0,,,,2074.543,2075.043,2074.03,2074.543,2072.189,2074.03,2075.043,2075.543,2075.543,2077.131,1300.0,2077.131,5.0,2077.132,4.0,25.0,145.0,15.0,1.0,0.8,0.7,Time
,,S06,1,男,22,anonymized,Serial_Dependence_U,2023.2.3,Win32,89.92805755399449,,,,,,2077.133,105.0,4.0,2077.133,105.0,,,,2081.282,2081.776,2080.78,2081.282,2078.145,2080.779,2081.776,2082.276,2082.276,2084.013,1393.0,2084.013,2.0,2084.013,4.0,26.0,146.0,9.0,1.0,1.6,0.7,Time
,,S06,1,男,22,anonymized,Serial_Dependence_U,2023.2.3,Win32,89.92805755399449,,,,,,2084.014,55.0,4.0,2084.014,55.0,,,,2088.197,2088.698,2087.694,2088.197,2085.027,2087.694,2088.699,2089.198,2089.198,2090.727,1191.0,2090.727,2.0,2090.728,4.0,27.0,147.0,14.0,1.0,1.6,0.3,Time
,,S06,1,男,22,anonymized,Serial_Dependence_U,2023.2.3,Win32,89.92805755399449,,,,,,2090.728,121.0,4.0,2090.728,121.0,,,,2094.872,2095.365,2094.365,2094.872,2091.722,2094.365,2095.365,2095.865,2095.865,2097.545,1347.0,2097.545,2.0,2097.546,4.0,28.0,148.0,29.0,1.0,1.6,0.7,Time
,,S06,1,男,22,anonymized,Serial_Dependence_U,2023.2.3,Win32,89.92805755399449,,,,,,2097.546,156.0,4.0,2097.546,156.0,,,,2101.294,2101.787,2100.782,2101.294,2098.55,2100.782,2101.787,2102.287,2102.287,2104.36,1722.0,2104.36,5.0,2104.36,4.0,29.0,149.0,27.0,1.0,1.2,0.7,Time
,,S06,1,男,22,anonymized,Serial_Dependence_U,2023.2.3,Win32,89.92805755399449,,,,,,2104.36,45.0,5.0,2135.299,45.0,s,30.920000000000076,,2139.078,2139.577,2138.575,2139.078,2136.307,2138.574,2139.577,2140.077,2140.077,2141.838,1422.0,2141.838,4.0,2141.839,5.0,0.0,150.0,2.0,1.0,1.2,0.3,Time
,,S06,1,男,22,anonymized,Serial_Dependence_U,2023.2.3,Win32,89.92805755399449,,,,,,2141.84,7.0,5.0,2141.841,7.0,,,,2145.821,2146.321,2145.311,2145.821,2142.844,2145.311,2146.321,2146.821,2146.821,2148.61,1466.0,2148.61,3.0,2148.611,5.0,1.0,151.0,3.0,1.0,1.4,0.3,Time
,,S06,1,男,22,anonymized,Serial_Dependence_U,2023.2.3,Win32,89.92805755399449,,,,,,2148.611,85.0,5.0,2148.611,85.0,,,,2152.004,2152.499,2151.489,2152.004,2149.618,2151.489,2152.499,2152.999,2152.999,2154.52,1235.0,2154.52,5.0,2154.521,5.0,2.0,152.0,10.0,1.0,0.8,0.3,Time
,,S06,1,男,22,anonymized,Serial_Dependence_U,2023.2.3,Win32,89.92805755399449,,,,,,2154.521,339.0,5.0,2154.522,339.0,,,,2158.104,2158.599,2157.589,2158.104,2155.529,2157.589,2158.599,2159.099,2159.099,2160.697,1308.0,2160.698,5.0,2160.698,5.0,3.0,153.0,1.0,1.0,1.0,0.3,Time
,,S06,1,男,22,anonymized,Serial_Dependence_U,2023.2.3,Win32,89.92805755399449,,,,,,2160.698,52.0,5.0,2160.698,52.0,,,,2164.852,2165.354,2164.338,2164.852,2161.706,2164.338,2165.354,2165.854,2165.854,2167.27,1182.0,2167.27,2.0,2167.27,5.0,4.0,154.0,9.0,1.0,1.6,0.7,Time
,,S06,1,男,22,anonymized,Serial_Dependence_U,2023.2.3,Win32,89.92805755399449,,,,,,2167.271,353.0,5.0,2167.271,353.0,,,,2171.01,2171.51,2170.508,2171.01,2168.266,2170.508,2171.51,2172.01,2172.01,2173.728,1441.0,2173.728,4.0,2173.729,5.0,5.0,155.0,27.0,1.0,1.2,0.7,Time
,,S06,1,男,22,anonymized,Serial_Dependence_U,2023.2.3,Win32,89.92805755399449,,,,,,2173.729,29.0,5.0,2173.73,29.0,,,,2177.917,2178.41,2177.405,2177.917,2174.743,2177.405,2178.41,2178.91,2178.91,2180.831,1448.0,2180.831,2.0,2180.831,5.0,6.0,156.0,4.0,1.0,1.6,0.3,Time
,,S06,1,男,22,anonymized,Serial_Dependence_U,2023.2.3,Win32,89.92805755399449,,,,,,2180.831,226.0,5.0,2180.831,226.0,,,,2184.227,2184.721,2183.71,2184.226,2181.847,2183.71,2184.721,2185.221,2185.221,2186.857,1229.0,2186.857,5.0,2186.858,5.0,7.0,157.0,0.0,1.0,0.8,0.3,Time
,,S06,1,男,22,anonymized,Serial_Dependence_U,2023.2.3,Win32,89.92805755399449,,,,,,2186.858,345.0,5.0,2186.858,345.0,,,,2190.411,2190.91,2189.901,2190.411,2187.855,2189.901,2190.91,2191.41,2191.41,2193.023,1247.0,2193.023,4.0,2193.024,5.0,8.0,158.0,26.0,1.0,1.0,0.7,Time
,,S06,1,男,22,anonymized,Serial_Dependence_U,2023.2.3,Win32,89.92805755399449,,,,,,2193.024,331.0,5.0,2193.025,331.0,,,,2196.79,2197.288,2196.267,2196.789,2194.03,2196.267,2197.288,2197.788,2197.788,2199.704,1400.0,2199.705,4.0,2199.705,5.0,9.0,159.0,17.0,1.0,1.2,0.7,Time
,,S06,1,男,22,anonymized,Serial_Dependence_U,2023.2.3,Win32,89.92805755399449,,,,,,2199.705,37.0,5.0,2199.705,37.0,,,,2203.677,2204.177,2203.161,2203.677,2200.716,2203.161,2204.177,2204.676,2204.677,2206.516,1455.0,2206.516,3.0,2206.516,5.0,10.0,160.0,28.0,1.0,1.4,0.7,Time
,,S06,1,男,22,anonymized,Serial_Dependence_U,2023.2.3,Win32,89.92805755399449,,,,,,2206.517,209.0,5.0,2206.517,209.0,,,,2210.695,2211.187,2210.185,2210.695,2207.512,2210.185,2211.187,2211.688,2211.688,2213.49,1428.0,2213.49,2.0,2213.491,5.0,11.0,161.0,24.0,1.0,1.6,0.3,Time
,,S06,1,男,22,anonymized,Serial_Dependence_U,2023.2.3,Win32,89.92805755399449,,,,,,2213.491,62.0,5.0,2213.491,62.0,,,,2217.293,2217.787,2216.778,2217.293,2214.504,2216.778,2217.787,2218.287,2218.287,2219.951,1226.0,2219.951,3.0,2219.951,5.0,12.0,162.0,22.0,1.0,1.2,0.3,Time
,,S06,1,男,22,anonymized,Serial_Dependence_U,2023.2.3,Win32,89.92805755399449,,,,,,2219.952,116.0,5.0,2219.952,116.0,,,,2223.305,2223.799,2222.801,2223.305,2220.952,2222.801,2223.799,2224.298,2224.298,2226.116,1450.0,2226.116,5.0,2226.116,5.0,13.0,163.0,25.0,1.0,0.8,0.7,Time
,,S06,1,男,22,anonymized,Serial_Dependence_U,2023.2.3,Win32,89.92805755399449,,,,,,2226.116,291.0,5.0,2226.118,291.0,,,,2230.077,2230.576,2229.567,2230.077,2227.115,2229.567,2230.576,2231.077,2231.077,2232.821,1399.0,2232.821,3.0,2232.821,5.0,14.0,164.0,18.0,1.0,1.4,0.7,Time
,,S06,1,男,22,anonymized,Serial_Dependence_U,2023.2.3,Win32,89.92805755399449,,,,,,2232.822,306.0,5.0,2232.822,306.0,,,,2236.962,2237.454,2236.461,2236.962,2233.821,2236.461,2237.454,2237.955,2237.955,2239.694,1471.0,2239.694,2.0,2239.695,5.0,15.0,165.0,19.0,1.0,1.6,0.7,Time
,,S06,1,男,22,anonymized,Serial_Dependence_U,2023.2.3,Win32,89.92805755399449,,,,,,2239.695,19.0,5.0,2239.696,19.0,,,,2243.252,2243.744,2242.738,2243.252,2240.705,2242.738,2243.744,2244.244,2244.244,2246.323,1783.0,2246.323,5.0,2246.323,5.0,16.0,166.0,6.0,1.0,1.0,0.7,Time
,,S06,1,男,22,anonymized,Serial_Dependence_U,2023.2.3,Win32,89.92805755399449,,,,,,2246.323,280.0,5.0,2246.323,280.0,,,,2249.901,2250.399,2249.39,2249.9,2247.321,2249.39,2250.399,2250.899,2250.899,2252.821,1593.0,2252.821,5.0,2252.821,5.0,17.0,167.0,21.0,1.0,1.0,0.3,Time
,,S06,1,男,22,anonymized,Serial_Dependence_U,2023.2.3,Win32,89.92805755399449,,,,,,2252.821,182.0,5.0,2252.822,182.0,,,,2256.973,2257.466,2256.468,2256.973,2253.834,2256.467,2257.466,2257.966,2257.966,2259.793,1574.0,2259.793,3.0,2259.794,5.0,18.0,168.0,29.0,1.0,1.6,0.7,Time
,,S06,1,男,22,anonymized,Serial_Dependence_U,2023.2.3,Win32,89.92805755399449,,,,,,2259.794,166.0,5.0,2259.794,166.0,,,,2263.575,2264.077,2263.064,2263.575,2260.792,2263.064,2264.077,2264.577,2264.577,2266.284,1490.0,2266.284,4.0,2266.285,5.0,19.0,169.0,12.0,1.0,1.2,0.3,Time
,,S06,1,男,22,anonymized,Serial_Dependence_U,2023.2.3,Win32,89.92805755399449,,,,,,2266.285,152.0,5.0,2266.285,152.0,,,,2270.256,2270.754,2269.753,2270.256,2267.29,2269.753,2270.754,2271.255,2271.255,2273.231,1560.0,2273.231,4.0,2273.232,5.0,20.0,170.0,13.0,1.0,1.4,0.3,Time
,,S06,1,男,22,anonymized,Serial_Dependence_U,2023.2.3,Win32,89.92805755399449,,,,,,2273.232,347.0,5.0,2273.233,347.0,,,,2277.223,2277.721,2276.716,2277.223,2274.246,2276.716,2277.721,2278.222,2278.222,2279.739,1290.0,2279.739,2.0,2279.74,5.0,21.0,171.0,23.0,1.0,1.4,0.3,Time
,,S06,1,男,22,anonymized,Serial_Dependence_U,2023.2.3,Win32,89.92805755399449,,,,,,2279.74,260.0,5.0,2279.74,260.0,,,,2283.275,2283.777,2282.767,2283.275,2280.737,2282.767,2283.777,2284.277,2284.277,2286.105,1518.0,2286.106,5.0,2286.106,5.0,22.0,172.0,16.0,1.0,1.0,0.7,Time
,,S06,1,男,22,anonymized,Serial_Dependence_U,2023.2.3,Win32,89.92805755399449,,,,,,2286.106,211.0,5.0,2286.106,211.0,,,,2289.449,2289.944,2288.945,2289.449,2287.103,2288.945,2289.944,2290.444,2290.444,2292.194,1473.0,2292.194,5.0,2292.195,5.0,23.0,173.0,5.0,1.0,0.8,0.7,Time
,,S06,1,男,22,anonymized,Serial_Dependence_U,2023.2.3,Win32,89.92805755399449,,,,,,2292.195,187.0,5.0,2292.195,187.0,,,,2295.778,2296.277,2295.26,2295.778,2293.189,2295.26,2296.277,2296.777,2296.777,2298.493,1436.0,2298.493,5.0,2298.494,5.0,24.0,174.0,11.0,1.0,1.0,0.3,Time
,,S06,1,男,22,anonymized,Serial_Dependence_U,2023.2.3,Win32,89.92805755399449,,,,,,2298.494,250.0,5.0,2298.494,250.0,,,,2302.241,2302.744,2301.729,2302.241,2299.49,2301.729,2302.744,2303.244,2303.244,2305.01,1411.0,2305.01,4.0,2305.011,5.0,25.0,175.0,7.0,1.0,1.2,0.7,Time
,,S06,1,男,22,anonymized,Serial_Dependence_U,2023.2.3,Win32,89.92805755399449,,,,,,2305.012,258.0,5.0,2305.013,258.0,,,,2308.387,2308.888,2307.887,2308.387,2306.023,2307.887,2308.888,2309.388,2309.388,2311.238,1582.0,2311.238,5.0,2311.238,5.0,26.0,176.0,20.0,1.0,0.8,0.3,Time
,,S06,1,男,22,anonymized,Serial_Dependence_U,2023.2.3,Win32,89.92805755399449,,,,,,2311.239,242.0,5.0,2311.239,242.0,,,,2315.183,2315.677,2314.668,2315.183,2312.234,2314.668,2315.677,2316.177,2316.177,2317.919,1468.0,2317.919,3.0,2317.919,5.0,27.0,177.0,8.0,1.0,1.4,0.7,Time
,,S06,1,男,22,anonymized,Serial_Dependence_U,2023.2.3,Win32,89.92805755399449,,,,,,2317.919,248.0,5.0,2317.919,248.0,,,,2321.278,2321.777,2320.775,2321.278,2318.931,2320.775,2321.777,2322.277,2322.277,2323.989,1400.0,2323.989,5.0,2323.989,5.0,28.0,178.0,15.0,1.0,0.8,0.7,Time
,,S06,1,男,22,anonymized,Serial_Dependence_U,2023.2.3,Win32,89.92805755399449,,,,,,2323.99,170.0,5.0,2323.991,170.0,,,,2328.186,2328.688,2327.679,2328.186,2325.006,2327.679,2328.688,2329.188,2329.188,2330.767,1313.0,2330.767,2.0,2330.768,5.0,29.0,179.0,14.0,1.0,1.6,0.3,Time
,,S06,1,男,22,anonymized,Serial_Dependence_U,2023.2.3,Win32,89.92805755399449,,,,,,2330.768,165.0,6.0,2333.677,165.0,s,2.88799999999992,,2337.071,2337.566,2336.557,2337.071,2334.683,2336.557,2337.566,2338.066,2338.066,2339.845,1278.0,2339.845,5.0,2339.846,6.0,0.0,180.0,0.0,1.0,0.8,0.3,Time
,,S06,1,男,22,anonymized,Serial_Dependence_U,2023.2.3,Win32,89.92805755399449,,,,,,2339.848,306.0,6.0,2339.849,306.0,,,,2343.825,2344.322,2343.323,2343.824,2340.856,2343.323,2344.322,2344.821,2344.821,2346.299,1223.0,2346.299,2.0,2346.3,6.0,1.0,181.0,3.0,1.0,1.4,0.3,Time
,,S06,1,男,22,anonymized,Serial_Dependence_U,2023.2.3,Win32,89.92805755399449,,,,,,2346.3,147.0,6.0,2346.3,147.0,,,,2350.482,2350.978,2349.967,2350.482,2347.301,2349.967,2350.978,2351.477,2351.477,2353.237,1443.0,2353.238,2.0,2353.238,6.0,2.0,182.0,4.0,1.0,1.6,0.3,Time
,,S06,1,男,22,anonymized,Serial_Dependence_U,2023.2.3,Win32,89.92805755399449,,,,,,2353.238,103.0,6.0,2353.238,103.0,,,,2357.212,2357.711,2356.694,2357.212,2354.245,2356.694,2357.711,2358.211,2358.211,2360.465,1610.0,2360.465,4.0,2360.465,6.0,3.0,183.0,28.0,1.0,1.4,0.7,Time
,,S06,1,男,22,anonymized,Serial_Dependence_U,2023.2.3,Win32,89.92805755399449,,,,,,2360.465,266.0,6.0,2360.465,266.0,,,,2364.25,2364.744,2363.74,2364.25,2361.467,2363.739,2364.744,2365.244,2365.244,2367.011,1493.0,2367.011,4.0,2367.012,6.0,4.0,184.0,2.0,1.0,1.2,0.3,Time
,,S06,1,男,22,anonymized,Serial_Dependence_U,2023.2.3,Win32,89.92805755399449,,,,,,2367.013,257.0,6.0,2367.014,257.0,,,,2370.364,2370.866,2369.853,2370.364,2368.022,2369.853,2370.866,2371.366,2371.366,2373.235,1517.0,2373.235,5.0,2373.236,6.0,5.0,185.0,5.0,1.0,0.8,0.7,Time
,,S06,1,男,22,anonymized,Serial_Dependence_U,2023.2.3,Win32,89.92805755399449,,,,,,2373.236,260.0,6.0,2373.236,260.0,,,,2376.997,2377.499,2376.483,2376.997,2374.246,2376.483,2377.499,2378.0,2378.0,2379.384,1164.0,2379.384,3.0,2379.384,6.0,6.0,186.0,27.0,1.0,1.2,0.7,Time
,,S06,1,男,22,anonymized,Serial_Dependence_U,2023.2.3,Win32,89.92805755399449,,,,,,2379.384,150.0,6.0,2379.384,150.0,,,,2382.934,2383.433,2382.423,2382.934,2380.378,2382.423,2383.433,2383.933,2383.933,2385.538,1273.0,2385.538,4.0,2385.538,6.0,7.0,187.0,26.0,1.0,1.0,0.7,Time
,,S06,1,男,22,anonymized,Serial_Dependence_U,2023.2.3,Win32,89.92805755399449,,,,,,2385.538,179.0,6.0,2385.539,179.0,,,,2389.303,2389.8,2388.79,2389.302,2386.544,2388.79,2389.8,2390.3,2390.3,2391.95,1366.0,2391.95,4.0,2391.95,6.0,8.0,188.0,17.0,1.0,1.2,0.7,Time
,,S06,1,男,22,anonymized,Serial_Dependence_U,2023.2.3,Win32,89.92805755399449,,,,,,2391.951,76.0,6.0,2391.951,76.0,,,,2396.101,2396.6,2395.59,2396.101,2392.949,2395.59,2396.6,2397.1,2397.1,2399.24,1634.0,2399.24,3.0,2399.241,6.0,9.0,189.0,29.0,1.0,1.6,0.7,Time
,,S06,1,男,22,anonymized,Serial_Dependence_U,2023.2.3,Win32,89.92805755399449,,,,,,2399.242,221.0,6.0,2399.242,221.0,,,,2402.801,2403.299,2402.296,2402.801,2400.256,2402.296,2403.299,2403.8,2403.8,2405.667,1550.0,2405.667,5.0,2405.668,6.0,10.0,190.0,16.0,1.0,1.0,0.7,Time
,,S06,1,男,22,anonymized,Serial_Dependence_U,2023.2.3,Win32,89.92805755399449,,,,,,2405.668,270.0,6.0,2405.668,270.0,,,,2409.243,2409.744,2408.733,2409.243,2406.672,2408.733,2409.745,2410.244,2410.244,2411.823,1335.0,2411.823,5.0,2411.824,6.0,11.0,191.0,11.0,1.0,1.0,0.3,Time
,,S06,1,男,22,anonymized,Serial_Dependence_U,2023.2.3,Win32,89.92805755399449,,,,,,2411.824,56.0,6.0,2411.824,56.0,,,,2415.8,2416.299,2415.29,2415.8,2412.822,2415.29,2416.299,2416.8,2416.8,2418.484,1390.0,2418.485,3.0,2418.485,6.0,12.0,192.0,23.0,1.0,1.4,0.3,Time
,,S06,1,男,22,anonymized,Serial_Dependence_U,2023.2.3,Win32,89.92805755399449,,,,,,2418.485,84.0,6.0,2418.485,84.0,,,,2422.625,2423.122,2422.121,2422.625,2419.486,2422.121,2423.122,2423.622,2423.622,2425.351,1512.0,2425.351,2.0,2425.352,6.0,13.0,193.0,9.0,1.0,1.6,0.7,Time
,,S06,1,男,22,anonymized,Serial_Dependence_U,2023.2.3,Win32,89.92805755399449,,,,,,2425.352,136.0,6.0,2425.352,136.0,,,,2428.939,2429.433,2428.421,2428.939,2426.345,2428.421,2429.433,2429.933,2429.933,2431.513,1390.0,2431.513,5.0,2431.514,6.0,14.0,194.0,1.0,1.0,1.0,0.3,Time
,,S06,1,男,22,anonymized,Serial_Dependence_U,2023.2.3,Win32,89.92805755399449,,,,,,2431.515,340.0,6.0,2431.515,340.0,,,,2434.885,2435.377,2434.385,2434.885,2432.517,2434.385,2435.377,2435.877,2435.877,2438.089,1703.0,2438.089,5.0,2438.09,6.0,15.0,195.0,10.0,1.0,0.8,0.3,Time
,,S06,1,男,22,anonymized,Serial_Dependence_U,2023.2.3,Win32,89.92805755399449,,,,,,2438.09,202.0,6.0,2438.09,202.0,,,,2442.027,2442.522,2441.526,2442.027,2439.09,2441.525,2442.522,2443.022,2443.022,2444.86,1436.0,2444.86,3.0,2444.861,6.0,16.0,196.0,18.0,1.0,1.4,0.7,Time
,,S06,1,男,22,anonymized,Serial_Dependence_U,2023.2.3,Win32,89.92805755399449,,,,,,2444.861,137.0,6.0,2444.861,137.0,,,,2449.018,2449.511,2448.517,2449.018,2445.856,2448.517,2449.511,2450.011,2450.011,2451.567,1355.0,2451.568,2.0,2451.568,6.0,17.0,197.0,24.0,1.0,1.6,0.3,Time
,,S06,1,男,22,anonymized,Serial_Dependence_U,2023.2.3,Win32,89.92805755399449,,,,,,2451.568,119.0,6.0,2451.569,119.0,,,,2455.722,2456.221,2455.218,2455.722,2452.579,2455.218,2456.221,2456.722,2456.722,2458.28,1329.0,2458.28,2.0,2458.28,6.0,18.0,198.0,19.0,1.0,1.6,0.7,Time
,,S06,1,男,22,anonymized,Serial_Dependence_U,2023.2.3,Win32,89.92805755399449,,,,,,2458.281,221.0,6.0,2458.281,221.0,,,,2461.635,2462.133,2461.129,2461.635,2459.281,2461.129,2462.133,2462.633,2462.633,2464.446,1486.0,2464.446,5.0,2464.447,6.0,19.0,199.0,15.0,1.0,0.8,0.7,Time
,,S06,1,男,22,anonymized,Serial_Dependence_U,2023.2.3,Win32,89.92805755399449,,,,,,2464.448,143.0,6.0,2464.448,143.0,,,,2468.034,2468.533,2467.524,2468.034,2465.451,2467.524,2468.533,2469.033,2469.033,2470.712,1479.0,2470.712,5.0,2470.713,6.0,20.0,200.0,21.0,1.0,1.0,0.3,Time
,,S06,1,男,22,anonymized,Serial_Dependence_U,2023.2.3,Win32,89.92805755399449,,,,,,2470.713,194.0,6.0,2470.713,194.0,,,,2474.459,2474.955,2473.946,2474.459,2471.712,2473.946,2474.955,2475.455,2475.455,2477.112,1379.0,2477.112,4.0,2477.113,6.0,21.0,201.0,7.0,1.0,1.2,0.7,Time
,,S06,1,男,22,anonymized,Serial_Dependence_U,2023.2.3,Win32,89.92805755399449,,,,,,2477.113,173.0,6.0,2477.113,173.0,,,,2481.1,2481.6,2480.598,2481.099,2478.126,2480.598,2481.6,2482.099,2482.099,2483.904,1517.0,2483.904,4.0,2483.905,6.0,22.0,202.0,13.0,1.0,1.4,0.3,Time
,,S06,1,男,22,anonymized,Serial_Dependence_U,2023.2.3,Win32,89.92805755399449,,,,,,2483.905,287.0,6.0,2483.905,287.0,,,,2488.084,2488.578,2487.569,2488.083,2484.901,2487.569,2488.578,2489.077,2489.077,2490.951,1622.0,2490.951,3.0,2490.952,6.0,23.0,203.0,14.0,1.0,1.6,0.3,Time
,,S06,1,男,22,anonymized,Serial_Dependence_U,2023.2.3,Win32,89.92805755399449,,,,,,2490.952,245.0,6.0,2490.952,245.0,,,,2494.728,2495.222,2494.213,2494.728,2491.946,2494.213,2495.222,2495.722,2495.722,2497.53,1497.0,2497.53,4.0,2497.531,6.0,24.0,204.0,12.0,1.0,1.2,0.3,Time
,,S06,1,男,22,anonymized,Serial_Dependence_U,2023.2.3,Win32,89.92805755399449,,,,,,2497.532,322.0,6.0,2497.532,322.0,,,,2500.93,2501.422,2500.417,2500.93,2498.54,2500.417,2501.422,2501.922,2501.922,2503.693,1496.0,2503.693,5.0,2503.693,6.0,25.0,205.0,20.0,1.0,0.8,0.3,Time
,,S06,1,男,22,anonymized,Serial_Dependence_U,2023.2.3,Win32,89.92805755399449,,,,,,2503.693,84.0,6.0,2503.693,84.0,,,,2507.468,2507.966,2506.959,2507.468,2504.698,2506.959,2507.966,2508.467,2508.467,2510.106,1424.0,2510.106,4.0,2510.106,6.0,26.0,206.0,22.0,1.0,1.2,0.3,Time
,,S06,1,男,22,anonymized,Serial_Dependence_U,2023.2.3,Win32,89.92805755399449,,,,,,2510.106,71.0,6.0,2510.106,71.0,,,,2513.653,2514.156,2513.152,2513.653,2511.11,2513.152,2514.156,2514.655,2514.655,2516.332,1511.0,2516.332,5.0,2516.332,6.0,27.0,207.0,6.0,1.0,1.0,0.7,Time
,,S06,1,男,22,anonymized,Serial_Dependence_U,2023.2.3,Win32,89.92805755399449,,,,,,2516.334,13.0,6.0,2516.334,13.0,,,,2519.707,2520.2,2519.19,2519.707,2517.349,2519.19,2520.2,2520.699,2520.699,2522.356,1429.0,2522.356,5.0,2522.356,6.0,28.0,208.0,25.0,1.0,0.8,0.7,Time
,,S06,1,男,22,anonymized,Serial_Dependence_U,2023.2.3,Win32,89.92805755399449,,,,,,2522.356,189.0,6.0,2522.356,189.0,,,,2526.322,2526.822,2525.808,2526.322,2523.365,2525.808,2526.822,2527.322,2527.322,2529.102,1459.0,2529.102,3.0,2529.103,6.0,29.0,209.0,8.0,1.0,1.4,0.7,Time
,,S06,1,男,22,anonymized,Serial_Dependence_U,2023.2.3,Win32,89.92805755399449,,,,,,2529.104,37.0,7.0,2608.567,37.0,s,79.44799999999987,,2612.135,2612.634,2611.617,2612.135,2609.572,2611.617,2612.634,2613.133,2613.133,2614.873,1366.0,2614.873,5.0,2614.873,7.0,0.0,210.0,6.0,1.0,1.0,0.7,Time
,,S06,1,男,22,anonymized,Serial_Dependence_U,2023.2.3,Win32,89.92805755399449,,,,,,2614.874,343.0,7.0,2614.876,343.0,,,,2618.662,2619.155,2618.151,2618.662,2615.883,2618.15,2619.155,2619.656,2619.656,2621.402,1338.0,2621.402,4.0,2621.403,7.0,1.0,211.0,2.0,1.0,1.2,0.3,Time
,,S06,1,男,22,anonymized,Serial_Dependence_U,2023.2.3,Win32,89.92805755399449,,,,,,2621.403,307.0,7.0,2621.404,307.0,,,,2625.551,2626.044,2625.041,2625.551,2622.401,2625.04,2626.044,2626.544,2626.544,2628.206,1318.0,2628.206,2.0,2628.206,7.0,2.0,212.0,19.0,1.0,1.6,0.7,Time
,,S06,1,男,22,anonymized,Serial_Dependence_U,2023.2.3,Win32,89.92805755399449,,,,,,2628.208,23.0,7.0,2628.208,23.0,,,,2632.38,2632.878,2631.874,2632.38,2629.213,2631.874,2632.878,2633.378,2633.378,2634.924,1296.0,2634.924,2.0,2634.925,7.0,3.0,213.0,4.0,1.0,1.6,0.3,Time
,,S06,1,男,22,anonymized,Serial_Dependence_U,2023.2.3,Win32,89.92805755399449,,,,,,2634.925,207.0,7.0,2634.925,207.0,,,,2638.313,2638.811,2637.796,2638.313,2635.923,2637.796,2638.811,2639.312,2639.312,2640.75,1157.0,2640.75,5.0,2640.75,7.0,4.0,214.0,0.0,1.0,0.8,0.3,Time
,,S06,1,男,22,anonymized,Serial_Dependence_U,2023.2.3,Win32,89.92805755399449,,,,,,2640.75,7.0,7.0,2640.75,7.0,,,,2644.925,2645.422,2644.422,2644.924,2641.749,2644.422,2645.422,2645.922,2645.922,2647.924,1750.0,2647.924,4.0,2647.925,7.0,5.0,215.0,24.0,1.0,1.6,0.3,Time
,,S06,1,男,22,anonymized,Serial_Dependence_U,2023.2.3,Win32,89.92805755399449,,,,,,2647.926,9.0,7.0,2647.926,9.0,,,,2651.884,2652.377,2651.372,2651.884,2648.928,2651.371,2652.377,2652.878,2652.878,2654.32,1190.0,2654.32,2.0,2654.32,7.0,6.0,216.0,18.0,1.0,1.4,0.7,Time
,,S06,1,男,22,anonymized,Serial_Dependence_U,2023.2.3,Win32,89.92805755399449,,,,,,2654.32,75.0,7.0,2654.32,75.0,,,,2658.269,2658.767,2657.759,2658.269,2655.324,2657.759,2658.767,2659.267,2659.267,2661.016,1508.0,2661.016,4.0,2661.017,7.0,7.0,217.0,28.0,1.0,1.4,0.7,Time
,,S06,1,男,22,anonymized,Serial_Dependence_U,2023.2.3,Win32,89.92805755399449,,,,,,2661.018,34.0,7.0,2661.018,34.0,,,,2664.557,2665.056,2664.052,2664.557,2662.017,2664.051,2665.056,2665.556,2665.556,2667.131,1309.0,2667.131,5.0,2667.132,7.0,8.0,218.0,26.0,1.0,1.0,0.7,Time
,,S06,1,男,22,anonymized,Serial_Dependence_U,2023.2.3,Win32,89.92805755399449,,,,,,2667.132,329.0,7.0,2667.132,329.0,,,,2671.119,2671.611,2670.606,2671.119,2668.135,2670.606,2671.611,2672.112,2672.112,2674.195,1706.0,2674.195,4.0,2674.196,7.0,9.0,219.0,23.0,1.0,1.4,0.3,Time
,,S06,1,男,22,anonymized,Serial_Dependence_U,2023.2.3,Win32,89.92805755399449,,,,,,2674.196,158.0,7.0,2674.196,158.0,,,,2677.537,2678.034,2677.033,2677.537,2675.193,2677.033,2678.034,2678.534,2678.534,2680.072,1214.0,2680.072,5.0,2680.073,7.0,10.0,220.0,5.0,1.0,0.8,0.7,Time
,,S06,1,男,22,anonymized,Serial_Dependence_U,2023.2.3,Win32,89.92805755399449,,,,,,2680.073,123.0,7.0,2680.073,123.0,,,,2683.824,2684.322,2683.308,2683.824,2681.075,2683.308,2684.322,2684.822,2684.822,2686.44,1368.0,2686.44,4.0,2686.441,7.0,11.0,221.0,17.0,1.0,1.2,0.7,Time
,,S06,1,男,22,anonymized,Serial_Dependence_U,2023.2.3,Win32,89.92805755399449,,,,,,2686.441,120.0,7.0,2686.441,120.0,,,,2690.007,2690.5,2689.507,2690.007,2687.439,2689.507,2690.5,2691.0,2691.0,2692.606,1415.0,2692.606,5.0,2692.607,7.0,12.0,222.0,21.0,1.0,1.0,0.3,Time
,,S06,1,男,22,anonymized,Serial_Dependence_U,2023.2.3,Win32,89.92805755399449,,,,,,2692.608,283.0,7.0,2692.608,283.0,,,,2696.358,2696.856,2695.846,2696.358,2693.605,2695.846,2696.856,2697.356,2697.356,2698.913,1352.0,2698.913,4.0,2698.914,7.0,13.0,223.0,7.0,1.0,1.2,0.7,Time
,,S06,1,男,22,anonymized,Serial_Dependence_U,2023.2.3,Win32,89.92805755399449,,,,,,2698.914,205.0,7.0,2698.914,205.0,,,,2702.901,2703.4,2702.387,2702.9,2699.912,2702.386,2703.4,2703.9,2703.9,2705.529,1364.0,2705.529,3.0,2705.53,7.0,14.0,224.0,3.0,1.0,1.4,0.3,Time
,,S06,1,男,22,anonymized,Serial_Dependence_U,2023.2.3,Win32,89.92805755399449,,,,,,2705.53,271.0,7.0,2705.53,271.0,,,,2708.88,2709.378,2708.368,2708.88,2706.523,2708.368,2709.378,2709.878,2709.878,2711.604,1437.0,2711.604,5.0,2711.605,7.0,15.0,225.0,15.0,1.0,0.8,0.7,Time
,,S06,1,男,22,anonymized,Serial_Dependence_U,2023.2.3,Win32,89.92805755399449,,,,,,2711.605,258.0,7.0,2711.605,258.0,,,,2715.357,2715.856,2714.838,2715.357,2712.604,2714.838,2715.856,2716.356,2716.356,2718.256,1526.0,2718.256,4.0,2718.256,7.0,16.0,226.0,27.0,1.0,1.2,0.7,Time
,,S06,1,男,22,anonymized,Serial_Dependence_U,2023.2.3,Win32,89.92805755399449,,,,,,2718.257,196.0,7.0,2718.257,196.0,,,,2722.402,2722.901,2721.902,2722.402,2719.266,2721.901,2722.901,2723.401,2723.401,2725.053,1308.0,2725.053,2.0,2725.054,7.0,17.0,227.0,9.0,1.0,1.6,0.7,Time
,,S06,1,男,22,anonymized,Serial_Dependence_U,2023.2.3,Win32,89.92805755399449,,,,,,2725.055,91.0,7.0,2725.055,91.0,,,,2728.6,2729.101,2728.097,2728.599,2726.057,2728.097,2729.101,2729.6,2729.6,2731.346,1362.0,2731.346,5.0,2731.346,7.0,18.0,228.0,16.0,1.0,1.0,0.7,Time
,,S06,1,男,22,anonymized,Serial_Dependence_U,2023.2.3,Win32,89.92805755399449,,,,,,2731.347,209.0,7.0,2731.347,209.0,,,,2734.732,2735.234,2734.224,2734.731,2732.347,2734.224,2735.234,2735.734,2735.734,2737.438,1458.0,2737.438,5.0,2737.439,7.0,19.0,229.0,20.0,1.0,0.8,0.3,Time
,,S06,1,男,22,anonymized,Serial_Dependence_U,2023.2.3,Win32,89.92805755399449,,,,,,2737.439,304.0,7.0,2737.439,304.0,,,,2741.58,2742.078,2741.072,2741.58,2738.438,2741.072,2742.078,2742.578,2742.578,2744.267,1333.0,2744.267,2.0,2744.268,7.0,20.0,230.0,29.0,1.0,1.6,0.7,Time
,,S06,1,男,22,anonymized,Serial_Dependence_U,2023.2.3,Win32,89.92805755399449,,,,,,2744.268,38.0,7.0,2744.268,38.0,,,,2748.054,2748.556,2747.552,2748.054,2745.282,2747.552,2748.556,2749.056,2749.056,2750.727,1271.0,2750.727,4.0,2750.727,7.0,21.0,231.0,22.0,1.0,1.2,0.3,Time
,,S06,1,男,22,anonymized,Serial_Dependence_U,2023.2.3,Win32,89.92805755399449,,,,,,2750.728,192.0,7.0,2750.728,192.0,,,,2754.9,2755.401,2754.397,2754.9,2751.724,2754.397,2755.401,2755.9,2755.9,2757.475,1374.0,2757.475,2.0,2757.476,7.0,22.0,232.0,14.0,1.0,1.6,0.3,Time
,,S06,1,男,22,anonymized,Serial_Dependence_U,2023.2.3,Win32,89.92805755399449,,,,,,2757.476,133.0,7.0,2757.476,133.0,,,,2761.473,2761.967,2760.957,2761.473,2758.489,2760.957,2761.967,2762.467,2762.467,2764.01,1347.0,2764.01,3.0,2764.011,7.0,23.0,233.0,13.0,1.0,1.4,0.3,Time
,,S06,1,男,22,anonymized,Serial_Dependence_U,2023.2.3,Win32,89.92805755399449,,,,,,2764.011,106.0,7.0,2764.011,106.0,,,,2767.367,2767.867,2766.858,2767.367,2765.018,2766.858,2767.867,2768.367,2768.367,2770.086,1341.0,2770.086,5.0,2770.086,7.0,24.0,234.0,25.0,1.0,0.8,0.7,Time
,,S06,1,男,22,anonymized,Serial_Dependence_U,2023.2.3,Win32,89.92805755399449,,,,,,2770.086,305.0,7.0,2770.086,305.0,,,,2773.461,2773.956,2772.957,2773.461,2771.09,2772.957,2773.956,2774.456,2774.456,2776.134,1348.0,2776.134,5.0,2776.135,7.0,25.0,235.0,10.0,1.0,0.8,0.3,Time
,,S06,1,男,22,anonymized,Serial_Dependence_U,2023.2.3,Win32,89.92805755399449,,,,,,2776.135,107.0,7.0,2776.135,107.0,,,,2780.083,2780.578,2779.577,2780.083,2777.134,2779.577,2780.578,2781.078,2781.078,2782.824,1475.0,2782.824,4.0,2782.825,7.0,26.0,236.0,8.0,1.0,1.4,0.7,Time
,,S06,1,男,22,anonymized,Serial_Dependence_U,2023.2.3,Win32,89.92805755399449,,,,,,2782.825,162.0,7.0,2782.825,162.0,,,,2786.417,2786.911,2785.905,2786.417,2783.835,2785.905,2786.911,2787.411,2787.411,2789.141,1366.0,2789.141,5.0,2789.142,7.0,27.0,237.0,11.0,1.0,1.0,0.3,Time
,,S06,1,男,22,anonymized,Serial_Dependence_U,2023.2.3,Win32,89.92805755399449,,,,,,2789.143,95.0,7.0,2789.143,95.0,,,,2792.741,2793.233,2792.227,2792.741,2790.157,2792.226,2793.234,2793.734,2793.734,2795.635,1463.0,2795.635,5.0,2795.636,7.0,28.0,238.0,1.0,1.0,1.0,0.3,Time
,,S06,1,男,22,anonymized,Serial_Dependence_U,2023.2.3,Win32,89.92805755399449,,,,,,2795.636,325.0,7.0,2795.636,325.0,,,,2799.431,2799.923,2798.917,2799.431,2796.649,2798.916,2799.923,2800.423,2800.423,2802.179,1342.0,2802.179,4.0,2802.18,7.0,29.0,239.0,12.0,1.0,1.2,0.3,Time
,,S06,1,男,22,anonymized,Serial_Dependence_U,2023.2.3,Win32,89.92805755399449,,,,,,2802.181,201.0,8.0,2832.312,201.0,s,30.114000000000036,,2836.271,2836.767,2835.761,2836.271,2833.323,2835.761,2836.767,2837.268,2837.268,2839.067,1492.0,2839.067,4.0,2839.068,8.0,0.0,240.0,18.0,1.0,1.4,0.7,Time
,,S06,1,男,22,anonymized,Serial_Dependence_U,2023.2.3,Win32,89.92805755399449,,,,,,2839.07,52.0,8.0,2839.072,52.0,,,,2842.646,2843.145,2842.129,2842.646,2840.084,2842.129,2843.145,2843.645,2843.645,2845.463,1448.0,2845.463,5.0,2845.463,8.0,1.0,241.0,26.0,1.0,1.0,0.7,Time
,,S06,1,男,22,anonymized,Serial_Dependence_U,2023.2.3,Win32,89.92805755399449,,,,,,2845.463,52.0,8.0,2845.463,52.0,,,,2849.618,2850.112,2849.105,2849.618,2846.473,2849.105,2850.112,2850.612,2850.612,2852.424,1482.0,2852.424,2.0,2852.425,8.0,2.0,242.0,29.0,1.0,1.6,0.7,Time
,,S06,1,男,22,anonymized,Serial_Dependence_U,2023.2.3,Win32,89.92805755399449,,,,,,2852.426,182.0,8.0,2852.426,182.0,,,,2856.388,2856.89,2855.887,2856.388,2853.424,2855.887,2856.89,2857.389,2857.389,2857.914,234.0,2857.914,1.0,2857.915,8.0,3.0,243.0,23.0,1.0,1.4,0.3,Time
,,S06,1,男,22,anonymized,Serial_Dependence_U,2023.2.3,Win32,89.92805755399449,,,,,,2857.915,65.0,8.0,2857.915,65.0,,,,2861.914,2862.412,2861.396,2861.913,2858.925,2861.395,2862.412,2862.912,2862.912,2864.73,1367.0,2864.73,3.0,2864.73,8.0,4.0,244.0,3.0,1.0,1.4,0.3,Time
,,S06,1,男,22,anonymized,Serial_Dependence_U,2023.2.3,Win32,89.92805755399449,,,,,,2864.731,156.0,8.0,2864.731,156.0,,,,2868.528,2869.023,2868.016,2868.528,2865.749,2868.016,2869.023,2869.523,2869.524,2871.388,1544.0,2871.388,4.0,2871.389,8.0,5.0,245.0,22.0,1.0,1.2,0.3,Time
,,S06,1,男,22,anonymized,Serial_Dependence_U,2023.2.3,Win32,89.92805755399449,,,,,,2871.389,227.0,8.0,2871.389,227.0,,,,2875.14,2875.634,2874.639,2875.14,2872.391,2874.639,2875.634,2876.134,2876.134,2878.164,1669.0,2878.164,5.0,2878.164,8.0,6.0,246.0,7.0,1.0,1.2,0.7,Time
,,S06,1,男,22,anonymized,Serial_Dependence_U,2023.2.3,Win32,89.92805755399449,,,,,,2878.164,358.0,8.0,2878.164,358.0,,,,2881.747,2882.245,2881.243,2881.746,2879.169,2881.242,2882.245,2882.745,2882.745,2884.658,1483.0,2884.658,5.0,2884.658,8.0,7.0,247.0,11.0,1.0,1.0,0.3,Time
,,S06,1,男,22,anonymized,Serial_Dependence_U,2023.2.3,Win32,89.92805755399449,,,,,,2884.66,310.0,8.0,2884.66,310.0,,,,2888.036,2888.534,2887.534,2888.036,2885.669,2887.534,2888.534,2889.034,2889.034,2890.756,1383.0,2890.756,5.0,2890.757,8.0,8.0,248.0,10.0,1.0,0.8,0.3,Time
,,S06,1,男,22,anonymized,Serial_Dependence_U,2023.2.3,Win32,89.92805755399449,,,,,,2890.757,286.0,8.0,2890.757,286.0,,,,2894.355,2894.856,2893.847,2894.355,2891.771,2893.847,2894.856,2895.356,2895.356,2897.003,1379.0,2897.003,5.0,2897.003,8.0,9.0,249.0,21.0,1.0,1.0,0.3,Time
,,S06,1,男,22,anonymized,Serial_Dependence_U,2023.2.3,Win32,89.92805755399449,,,,,,2897.004,12.0,8.0,2897.004,12.0,,,,2900.568,2901.068,2900.054,2900.568,2898.018,2900.054,2901.068,2901.567,2901.567,2903.396,1555.0,2903.396,5.0,2903.396,8.0,10.0,250.0,6.0,1.0,1.0,0.7,Time
,,S06,1,男,22,anonymized,Serial_Dependence_U,2023.2.3,Win32,89.92805755399449,,,,,,2903.396,171.0,8.0,2903.397,171.0,,,,2907.527,2908.023,2907.025,2907.527,2904.391,2907.025,2908.023,2908.523,2908.523,2910.411,1538.0,2910.411,3.0,2910.411,8.0,11.0,251.0,9.0,1.0,1.6,0.7,Time
,,S06,1,男,22,anonymized,Serial_Dependence_U,2023.2.3,Win32,89.92805755399449,,,,,,2910.411,259.0,8.0,2910.411,259.0,,,,2913.763,2914.257,2913.259,2913.763,2911.419,2913.259,2914.257,2914.757,2914.757,2916.58,1522.0,2916.58,5.0,2916.581,8.0,12.0,252.0,15.0,1.0,0.8,0.7,Time
,,S06,1,男,22,anonymized,Serial_Dependence_U,2023.2.3,Win32,89.92805755399449,,,,,,2916.582,217.0,8.0,2916.582,217.0,,,,2919.933,2920.434,2919.425,2919.933,2917.58,2919.425,2920.434,2920.934,2920.934,2922.739,1522.0,2922.739,5.0,2922.739,8.0,13.0,253.0,25.0,1.0,0.8,0.7,Time
,,S06,1,男,22,anonymized,Serial_Dependence_U,2023.2.3,Win32,89.92805755399449,,,,,,2922.74,65.0,8.0,2922.74,65.0,,,,2926.503,2927.001,2925.991,2926.503,2923.741,2925.991,2927.001,2927.501,2927.501,2929.259,1454.0,2929.259,4.0,2929.26,8.0,14.0,254.0,17.0,1.0,1.2,0.7,Time
,,S06,1,男,22,anonymized,Serial_Dependence_U,2023.2.3,Win32,89.92805755399449,,,,,,2929.26,49.0,8.0,2929.26,49.0,,,,2933.229,2933.724,2932.725,2933.229,2930.262,2932.725,2933.724,2934.223,2934.223,2936.003,1535.0,2936.003,4.0,2936.004,8.0,15.0,255.0,13.0,1.0,1.4,0.3,Time
,,S06,1,男,22,anonymized,Serial_Dependence_U,2023.2.3,Win32,89.92805755399449,,,,,,2936.004,326.0,8.0,2936.004,326.0,,,,2940.152,2940.645,2939.646,2940.152,2937.013,2939.646,2940.645,2941.145,2941.145,2942.774,1343.0,2942.774,2.0,2942.774,8.0,16.0,256.0,19.0,1.0,1.6,0.7,Time
,,S06,1,男,22,anonymized,Serial_Dependence_U,2023.2.3,Win32,89.92805755399449,,,,,,2942.774,271.0,8.0,2942.775,271.0,,,,2946.114,2946.613,2945.603,2946.114,2943.768,2945.603,2946.613,2947.113,2947.113,2948.375,1056.0,2948.375,5.0,2948.376,8.0,17.0,257.0,5.0,1.0,0.8,0.7,Time
,,S06,1,男,22,anonymized,Serial_Dependence_U,2023.2.3,Win32,89.92805755399449,,,,,,2948.377,41.0,8.0,2948.377,41.0,,,,2952.169,2952.668,2951.654,2952.169,2949.386,2951.654,2952.668,2953.167,2953.167,2954.534,1248.0,2954.534,3.0,2954.535,8.0,18.0,258.0,12.0,1.0,1.2,0.3,Time
,,S06,1,男,22,anonymized,Serial_Dependence_U,2023.2.3,Win32,89.92805755399449,,,,,,2954.535,223.0,8.0,2954.536,223.0,,,,2957.911,2958.413,2957.401,2957.911,2955.536,2957.4,2958.413,2958.912,2958.912,2960.463,1398.0,2960.463,5.0,2960.464,8.0,19.0,259.0,0.0,1.0,0.8,0.3,Time
,,S06,1,男,22,anonymized,Serial_Dependence_U,2023.2.3,Win32,89.92805755399449,,,,,,2960.464,216.0,8.0,2960.464,216.0,,,,2964.212,2964.712,2963.698,2964.212,2961.459,2963.697,2964.712,2965.213,2965.213,2966.869,1394.0,2966.869,4.0,2966.869,8.0,20.0,260.0,27.0,1.0,1.2,0.7,Time
,,S06,1,男,22,anonymized,Serial_Dependence_U,2023.2.3,Win32,89.92805755399449,,,,,,2966.87,23.0,8.0,2966.87,23.0,,,,2970.654,2971.146,2970.14,2970.653,2967.874,2970.14,2971.146,2971.645,2971.645,2973.592,1705.0,2973.592,5.0,2973.592,8.0,21.0,261.0,2.0,1.0,1.2,0.3,Time
,,S06,1,男,22,anonymized,Serial_Dependence_U,2023.2.3,Win32,89.92805755399449,,,,,,2973.593,122.0,8.0,2973.593,122.0,,,,2976.969,2977.468,2976.465,2976.969,2974.602,2976.465,2977.468,2977.968,2977.968,2979.511,1220.0,2979.511,5.0,2979.512,8.0,22.0,262.0,20.0,1.0,0.8,0.3,Time
,,S06,1,男,22,anonymized,Serial_Dependence_U,2023.2.3,Win32,89.92805755399449,,,,,,2979.513,151.0,8.0,2979.513,151.0,,,,2983.714,2984.212,2983.197,2983.713,2980.525,2983.197,2984.212,2984.712,2984.712,2986.305,1142.0,2986.305,2.0,2986.306,8.0,23.0,263.0,14.0,1.0,1.6,0.3,Time
,,S06,1,男,22,anonymized,Serial_Dependence_U,2023.2.3,Win32,89.92805755399449,,,,,,2986.306,105.0,8.0,2986.306,105.0,,,,2990.48,2990.979,2989.968,2990.479,2987.303,2989.968,2990.979,2991.478,2991.478,2993.009,1220.0,2993.009,2.0,2993.009,8.0,24.0,264.0,4.0,1.0,1.6,0.3,Time
,,S06,1,男,22,anonymized,Serial_Dependence_U,2023.2.3,Win32,89.92805755399449,,,,,,2993.009,241.0,8.0,2993.009,241.0,,,,2996.562,2997.057,2996.046,2996.562,2994.008,2996.046,2997.057,2997.557,2997.557,2998.825,1090.0,2998.826,4.0,2998.826,8.0,25.0,265.0,16.0,1.0,1.0,0.7,Time
,,S06,1,男,22,anonymized,Serial_Dependence_U,2023.2.3,Win32,89.92805755399449,,,,,,2998.826,72.0,8.0,2998.827,72.0,,,,3003.019,3003.512,3002.514,3003.019,2999.832,3002.514,3003.512,3004.012,3004.012,3005.58,1191.0,3005.58,2.0,3005.581,8.0,26.0,266.0,24.0,1.0,1.6,0.3,Time
,,S06,1,男,22,anonymized,Serial_Dependence_U,2023.2.3,Win32,89.92805755399449,,,,,,3005.581,351.0,8.0,3005.581,351.0,,,,3009.547,3010.047,3009.033,3009.547,3006.593,3009.033,3010.047,3010.545,3010.545,3011.998,1253.0,3011.998,2.0,3011.998,8.0,27.0,267.0,8.0,1.0,1.4,0.7,Time
,,S06,1,男,22,anonymized,Serial_Dependence_U,2023.2.3,Win32,89.92805755399449,,,,,,3011.999,231.0,8.0,3011.999,231.0,,,,3015.58,3016.079,3015.069,3015.58,3013.002,3015.069,3016.079,3016.579,3016.579,3018.019,1202.0,3018.019,4.0,3018.02,8.0,28.0,268.0,1.0,1.0,1.0,0.3,Time
,,S06,1,男,22,anonymized,Serial_Dependence_U,2023.2.3,Win32,89.92805755399449,,,,,,3018.02,15.0,8.0,3018.02,15.0,,,,3021.963,3022.456,3021.456,3021.963,3019.018,3021.456,3022.456,3022.957,3022.957,3024.752,1530.0,3024.752,4.0,3024.752,8.0,29.0,269.0,28.0,1.0,1.4,0.7,Time
