Scale_setup.started,Scale_setup.stopped,participant,expid,session,sex,age,date,expName,psychopyVersion,OS,frameRate,PROLIFIC_PID,STUDY_ID,SESSION_ID,screen_scale_keys.started,screen_scale_keys.stopped,X Scale,Y Scale,rectangel_keys.started,rectangel_keys.stopped,Intro.started,Intro.stopped,key_resp_2.keys,key_resp_2.rt,key_resp_2.duration,block.started,Block_id,block.stopped,Block_resp_2.keys,Block_resp_2.rt,Block_resp_2.duration,ITI.started,ITI.stopped,Mask_2.started,Mask_2.stopped,M2.started,direction,M2.stopped,Cue.started,Cue.stopped,Response.started,Response.stopped,keyDuration,Feedback_Time.started,FeedbackID_T,Feedback_Time.stopped,trials.thisRepN,trials.thisTrialN,trials.thisN,trials.thisIndex,trials.ran,TimeDur,Coherence1,TrialType
0.0005,0.0008,S07,184189,001,Male,27,2025-05-21_03h48.45.882,Serial_Dependence_U,2023.2.3,Win32,60.24096386,67d7d3d51a5476f5196bab78,682cd3dfea4e15896da7c0a6,682d84aee36e76003a321413,,,,,,,,,,,,,,,,,,,,,,,,,,,,,,,,,,,,,,,,
,,S07,184189,001,Male,27,2025-05-21_03h48.45.882,Serial_Dependence_U,2023.2.3,Win32,60.24096386,67d7d3d51a5476f5196bab78,682cd3dfea4e15896da7c0a6,682d84aee36e76003a321413,0.0035,96.2864,0.058,0.0578,96.2866,101.1352,101.1356,121.1116,space,19.923,,,,,,,,,,,,,,,,,,,,,,,,,,,,,,
,,S07,184189,001,Male,27,2025-05-21_03h48.45.882,Serial_Dependence_U,2023.2.3,Win32,60.24096386,67d7d3d51a5476f5196bab78,682cd3dfea4e15896da7c0a6,682d84aee36e76003a321413,,,,,,,,,,,,121.1205,0,124.1773,s,3.0307,,126.5269,127.0263,126.0107,126.5267,125.1946,3,126.0106,127.0266,127.5262,127.5266,133.5414,9999,133.542,0,134.5412,0,0,0,10,1,0.8,0.3,Time
,,S07,184189,001,Male,27,2025-05-21_03h48.45.882,Serial_Dependence_U,2023.2.3,Win32,60.24096386,67d7d3d51a5476f5196bab78,682cd3dfea4e15896da7c0a6,682d84aee36e76003a321413,,,,,,,,,,,,134.542,0,134.5443,,,,137.6786,138.1776,137.1616,137.6784,135.558,133,137.1614,138.1776,138.6771,138.6771,139.4783,767.0999999,139.4784,1,140.4759,0,1,1,24,1,1.6,0.3,Time
,,S07,184189,001,Male,27,2025-05-21_03h48.45.882,Serial_Dependence_U,2023.2.3,Win32,60.24096386,67d7d3d51a5476f5196bab78,682cd3dfea4e15896da7c0a6,682d84aee36e76003a321413,,,,,,,,,,,,140.4764,0,140.4767,,,,143.01,143.5086,142.494,143.0099,141.4775,114,142.4939,143.5087,144.0045,144.0046,148.2419,3923.7,148.2422,5,149.2357,0,2,2,1,1,1,0.3,Time
,,S07,184189,001,Male,27,2025-05-21_03h48.45.882,Serial_Dependence_U,2023.2.3,Win32,60.24096386,67d7d3d51a5476f5196bab78,682cd3dfea4e15896da7c0a6,682d84aee36e76003a321413,,,,,,,,,,,,149.2363,0,149.2366,,,,151.5863,152.09,151.0696,151.5861,150.2558,240,151.0694,152.09,152.5846,152.5847,152.9899,381.3999996,152.9901,1,153.9844,0,3,3,15,1,0.8,0.7,Time
,,S07,184189,001,Male,27,2025-05-21_03h48.45.882,Serial_Dependence_U,2023.2.3,Win32,60.24096386,67d7d3d51a5476f5196bab78,682cd3dfea4e15896da7c0a6,682d84aee36e76003a321413,,,,,,,,,,,,153.9853,0,153.9856,,,,156.306,156.8004,155.8013,156.3059,154.9893,68,155.8011,156.8004,157.3003,157.3004,157.934,298.0999999,157.9344,1,158.9328,0,4,4,0,1,0.8,0.3,Time
,,S07,184189,001,Male,27,2025-05-21_03h48.45.882,Serial_Dependence_U,2023.2.3,Win32,60.24096386,67d7d3d51a5476f5196bab78,682cd3dfea4e15896da7c0a6,682d84aee36e76003a321413,,,,,,,,,,,,158.9336,0,158.934,,,,161.4542,161.9486,160.9536,161.4541,159.9382,295,160.9535,161.9487,162.4484,162.4485,168.4527,9999,168.4529,0,169.447,0,5,5,16,1,1,0.7,Time
,,S07,184189,001,Male,27,2025-05-21_03h48.45.882,Serial_Dependence_U,2023.2.3,Win32,60.24096386,67d7d3d51a5476f5196bab78,682cd3dfea4e15896da7c0a6,682d84aee36e76003a321413,,,,,,,,,,,,169.4481,0,169.4483,,,,172.1798,172.6785,171.6656,172.1795,170.4518,347,171.6654,172.6786,173.1785,173.1787,175.8978,230.1000004,175.898,1,176.8981,0,6,6,22,1,1.2,0.3,Time
,,S07,184189,001,Male,27,2025-05-21_03h48.45.882,Serial_Dependence_U,2023.2.3,Win32,60.24096386,67d7d3d51a5476f5196bab78,682cd3dfea4e15896da7c0a6,682d84aee36e76003a321413,,,,,,,,,,,,176.8987,0,176.8988,,,,180.0273,180.5267,179.5161,180.0271,177.8995,86,179.516,180.5268,181.0267,181.0268,182.0925,670.4000001,182.0927,1,183.0922,0,7,7,29,1,1.6,0.7,Time
,,S07,184189,001,Male,27,2025-05-21_03h48.45.882,Serial_Dependence_U,2023.2.3,Win32,60.24096386,67d7d3d51a5476f5196bab78,682cd3dfea4e15896da7c0a6,682d84aee36e76003a321413,,,,,,,,,,,,183.0931,0,183.0933,,,,186.0416,186.5411,185.5249,186.0414,184.1095,51,185.5247,186.5411,187.0412,187.0414,193.0568,9999,193.0572,0,194.0553,0,8,8,18,1,1.4,0.7,Time
,,S07,184189,001,Male,27,2025-05-21_03h48.45.882,Serial_Dependence_U,2023.2.3,Win32,60.24096386,67d7d3d51a5476f5196bab78,682cd3dfea4e15896da7c0a6,682d84aee36e76003a321413,,,,,,,,,,,,194.0561,0,194.0566,,,,196.7889,197.2876,196.2721,196.7887,195.0604,56,196.2719,197.2877,197.7875,197.7876,199.3371,216.7000003,199.3375,1,200.3407,0,9,9,7,1,1.2,0.7,Time
,,S07,184189,001,Male,27,2025-05-21_03h48.45.882,Serial_Dependence_U,2023.2.3,Win32,60.24096386,67d7d3d51a5476f5196bab78,682cd3dfea4e15896da7c0a6,682d84aee36e76003a321413,,,,,,,,,,,,200.3412,0,200.3412,,,,203.4864,203.9856,202.9701,203.4861,201.3539,318,202.9698,203.9857,204.4853,204.4854,208.4064,1951,208.4066,4,209.4004,0,10,10,4,1,1.6,0.3,Time
,,S07,184189,001,Male,27,2025-05-21_03h48.45.882,Serial_Dependence_U,2023.2.3,Win32,60.24096386,67d7d3d51a5476f5196bab78,682cd3dfea4e15896da7c0a6,682d84aee36e76003a321413,,,,,,,,,,,,209.4015,0,209.4017,,,,211.7383,212.2329,211.2343,211.7382,210.4177,156,211.2341,212.233,212.7332,212.7334,218.7362,9999,218.7364,0,219.7307,0,11,11,5,1,0.8,0.7,Time
,,S07,184189,001,Male,27,2025-05-21_03h48.45.882,Serial_Dependence_U,2023.2.3,Win32,60.24096386,67d7d3d51a5476f5196bab78,682cd3dfea4e15896da7c0a6,682d84aee36e76003a321413,,,,,,,,,,,,219.7315,0,219.7317,,,,222.8808,223.3796,222.3641,222.8805,220.7478,114,222.3637,223.3796,223.8796,223.8798,224.1636,152.2000003,224.164,1,225.1663,0,12,12,9,1,1.6,0.7,Time
,,S07,184189,001,Male,27,2025-05-21_03h48.45.882,Serial_Dependence_U,2023.2.3,Win32,60.24096386,67d7d3d51a5476f5196bab78,682cd3dfea4e15896da7c0a6,682d84aee36e76003a321413,,,,,,,,,,,,225.1667,0,225.1668,,,,227.7119,228.2113,227.2001,227.7117,226.1823,261,227.2,228.2113,228.7108,228.7109,230.2494,1133.3,230.2495,4,231.244,0,13,13,11,1,1,0.3,Time
,,S07,184189,001,Male,27,2025-05-21_03h48.45.882,Serial_Dependence_U,2023.2.3,Win32,60.24096386,67d7d3d51a5476f5196bab78,682cd3dfea4e15896da7c0a6,682d84aee36e76003a321413,,,,,,,,,,,,231.2449,0,231.2452,,,,233.5769,234.076,233.0648,233.5765,232.2609,201,233.0647,234.076,234.576,234.5761,240.5911,9999,240.5915,0,292.6032,0,14,14,20,1,0.8,0.3,Time
,,S07,184189,001,Male,27,2025-05-21_03h48.45.882,Serial_Dependence_U,2023.2.3,Win32,60.24096386,67d7d3d51a5476f5196bab78,682cd3dfea4e15896da7c0a6,682d84aee36e76003a321413,,,,,,,,,,,,292.6036,0,292.6038,,,,294.6577,295.1612,294.1413,294.6576,293.1247,91,294.1411,295.1613,295.6566,295.6567,301.672,9999,301.6722,0,302.6713,0,15,15,26,1,1,0.7,Time
,,S07,184189,001,Male,27,2025-05-21_03h48.45.882,Serial_Dependence_U,2023.2.3,Win32,60.24096386,67d7d3d51a5476f5196bab78,682cd3dfea4e15896da7c0a6,682d84aee36e76003a321413,,,,,,,,,,,,302.6719,0,302.6719,,,,305.8212,306.3205,305.3043,305.821,303.688,17,305.3042,306.3206,306.8198,306.8198,307.9035,1046.8,307.9038,1,308.9027,0,16,16,14,1,1.6,0.3,Time
,,S07,184189,001,Male,27,2025-05-21_03h48.45.882,Serial_Dependence_U,2023.2.3,Win32,60.24096386,67d7d3d51a5476f5196bab78,682cd3dfea4e15896da7c0a6,682d84aee36e76003a321413,,,,,,,,,,,,308.9033,0,308.9035,,,,311.8523,312.3516,311.3358,311.8522,309.92,278,311.3357,312.3516,312.8514,312.8515,313.1517,104,313.152,1,314.1511,0,17,17,8,1,1.4,0.7,Time
,,S07,184189,001,Male,27,2025-05-21_03h48.45.882,Serial_Dependence_U,2023.2.3,Win32,60.24096386,67d7d3d51a5476f5196bab78,682cd3dfea4e15896da7c0a6,682d84aee36e76003a321413,,,,,,,,,,,,314.1517,0,314.1519,,,,317.1004,317.6,316.5841,317.1004,315.1675,84,316.584,317.6,318.1,318.1001,324.1153,9999,324.1154,0,325.1141,0,18,18,28,1,1.4,0.7,Time
,,S07,184189,001,Male,27,2025-05-21_03h48.45.882,Serial_Dependence_U,2023.2.3,Win32,60.24096386,67d7d3d51a5476f5196bab78,682cd3dfea4e15896da7c0a6,682d84aee36e76003a321413,,,,,,,,,,,,325.1146,0,325.1147,,,,327.864,328.3635,327.3477,327.8639,326.1315,143,327.3475,328.3635,328.8632,328.8632,330.063,1185,330.0632,3,331.0627,0,19,19,27,1,1.2,0.7,Time
,,S07,184189,001,Male,27,2025-05-21_03h48.45.882,Serial_Dependence_U,2023.2.3,Win32,60.24096386,67d7d3d51a5476f5196bab78,682cd3dfea4e15896da7c0a6,682d84aee36e76003a321413,,,,,,,,,,,,331.0632,0,331.0634,,,,333.6124,334.1117,333.0959,333.6122,332.0791,277,333.0958,334.1118,334.6117,334.6118,335.8114,1132.2,335.8117,4,336.8108,0,20,20,6,1,1,0.7,Time
,,S07,184189,001,Male,27,2025-05-21_03h48.45.882,Serial_Dependence_U,2023.2.3,Win32,60.24096386,67d7d3d51a5476f5196bab78,682cd3dfea4e15896da7c0a6,682d84aee36e76003a321413,,,,,,,,,,,,336.8112,0,336.8114,,,,339.5603,340.0601,339.0438,339.5603,337.8276,358,339.0437,340.0601,340.5596,340.5596,341.4592,882.9000001,341.4595,2,342.4591,0,21,21,2,1,1.2,0.3,Time
,,S07,184189,001,Male,27,2025-05-21_03h48.45.882,Serial_Dependence_U,2023.2.3,Win32,60.24096386,67d7d3d51a5476f5196bab78,682cd3dfea4e15896da7c0a6,682d84aee36e76003a321413,,,,,,,,,,,,342.4596,0,342.4598,,,,345.4084,345.9076,344.8919,345.4083,343.4757,61,344.8918,345.9077,346.4078,346.408,348.0572,1613,348.0575,4,349.0569,0,22,22,13,1,1.4,0.3,Time
,,S07,184189,001,Male,27,2025-05-21_03h48.45.882,Serial_Dependence_U,2023.2.3,Win32,60.24096386,67d7d3d51a5476f5196bab78,682cd3dfea4e15896da7c0a6,682d84aee36e76003a321413,,,,,,,,,,,,349.0576,0,349.0577,,,,352.0065,352.5055,351.4911,352.0064,350.0738,276,351.4909,352.5056,353.0057,353.0058,355.8715,2829.7,355.8717,5,356.8711,0,23,23,3,1,1.4,0.3,Time
,,S07,184189,001,Male,27,2025-05-21_03h48.45.882,Serial_Dependence_U,2023.2.3,Win32,60.24096386,67d7d3d51a5476f5196bab78,682cd3dfea4e15896da7c0a6,682d84aee36e76003a321413,,,,,,,,,,,,356.8715,0,356.8717,,,,359.8211,360.3197,359.3041,359.821,357.8879,48,359.304,360.3197,360.8201,360.8202,360.8398,0.699999809,360.8401,1,361.8364,0,24,24,23,1,1.4,0.3,Time
,,S07,184189,001,Male,27,2025-05-21_03h48.45.882,Serial_Dependence_U,2023.2.3,Win32,60.24096386,67d7d3d51a5476f5196bab78,682cd3dfea4e15896da7c0a6,682d84aee36e76003a321413,,,,,,,,,,,,361.8369,0,361.8371,,,,364.5856,365.0855,364.0696,364.5855,362.8532,197,364.0695,365.0855,365.5853,365.5854,369.4675,3863.9,369.4678,5,370.4669,0,25,25,12,1,1.2,0.3,Time
,,S07,184189,001,Male,27,2025-05-21_03h48.45.882,Serial_Dependence_U,2023.2.3,Win32,60.24096386,67d7d3d51a5476f5196bab78,682cd3dfea4e15896da7c0a6,682d84aee36e76003a321413,,,,,,,,,,,,370.4676,0,370.4678,,,,373.2163,373.7158,372.7,373.2162,371.4836,147,372.6999,373.7159,374.2157,374.2158,375.0324,473.3999996,375.0327,1,376.0321,0,26,26,17,1,1.2,0.7,Time
,,S07,184189,001,Male,27,2025-05-21_03h48.45.882,Serial_Dependence_U,2023.2.3,Win32,60.24096386,67d7d3d51a5476f5196bab78,682cd3dfea4e15896da7c0a6,682d84aee36e76003a321413,,,,,,,,,,,,376.0326,0,376.0328,,,,379.1813,379.6806,378.6647,379.1812,377.0486,193,378.6646,379.6807,380.1804,380.1805,384.1631,3964.6,384.1634,5,385.1624,0,27,27,19,1,1.6,0.7,Time
,,S07,184189,001,Male,27,2025-05-21_03h48.45.882,Serial_Dependence_U,2023.2.3,Win32,60.24096386,67d7d3d51a5476f5196bab78,682cd3dfea4e15896da7c0a6,682d84aee36e76003a321413,,,,,,,,,,,,385.163,0,385.1632,,,,387.5121,388.0114,386.9958,387.512,386.1789,174,386.9957,388.0115,388.5114,388.5114,392.6935,3506.8,392.6937,5,393.6931,0,28,28,25,1,0.8,0.7,Time
,,S07,184189,001,Male,27,2025-05-21_03h48.45.882,Serial_Dependence_U,2023.2.3,Win32,60.24096386,67d7d3d51a5476f5196bab78,682cd3dfea4e15896da7c0a6,682d84aee36e76003a321413,,,,,,,,,,,,393.6936,0,393.6938,,,,396.2427,400.1164,395.7265,396.2426,394.7099,11,395.7264,400.1164,400.1166,400.1166,400.6743,541.6999998,400.6748,1,401.6743,0,29,29,21,1,1,0.3,Time
,,S07,184189,001,Male,27,2025-05-21_03h48.45.882,Serial_Dependence_U,2023.2.3,Win32,60.24096386,67d7d3d51a5476f5196bab78,682cd3dfea4e15896da7c0a6,682d84aee36e76003a321413,,,,,,,,,,,,401.675,1,404.9726,s,3.2654,,407.7222,408.2217,407.2054,407.722,405.9898,291,407.2053,408.2218,408.7212,408.7213,411.4545,2456.1,411.4548,5,412.4538,1,0,30,27,1,1.2,0.7,Time
,,S07,184189,001,Male,27,2025-05-21_03h48.45.882,Serial_Dependence_U,2023.2.3,Win32,60.24096386,67d7d3d51a5476f5196bab78,682cd3dfea4e15896da7c0a6,682d84aee36e76003a321413,,,,,,,,,,,,412.4544,1,412.4571,,,,414.7911,415.2902,414.2874,414.7909,413.4704,134,414.2873,415.2903,415.7863,415.7865,417.4723,1373,417.4725,5,418.4687,1,1,31,15,1,0.8,0.7,Time
,,S07,184189,001,Male,27,2025-05-21_03h48.45.882,Serial_Dependence_U,2023.2.3,Win32,60.24096386,67d7d3d51a5476f5196bab78,682cd3dfea4e15896da7c0a6,682d84aee36e76003a321413,,,,,,,,,,,,418.4695,1,418.4697,,,,420.9889,421.4843,420.4877,420.9888,419.4857,354,420.4876,421.4843,421.9845,421.9847,424.0837,1632.9,424.0841,5,425.0834,1,2,32,21,1,1,0.3,Time
,,S07,184189,001,Male,27,2025-05-21_03h48.45.882,Serial_Dependence_U,2023.2.3,Win32,60.24096386,67d7d3d51a5476f5196bab78,682cd3dfea4e15896da7c0a6,682d84aee36e76003a321413,,,,,,,,,,,,425.0842,1,425.0844,,,,428.236,428.7361,427.7165,428.2359,426.1004,268,427.7164,428.7361,429.2319,429.2321,430.02,443,430.0202,1,431.0146,1,3,33,14,1,1.6,0.3,Time
,,S07,184189,001,Male,27,2025-05-21_03h48.45.882,Serial_Dependence_U,2023.2.3,Win32,60.24096386,67d7d3d51a5476f5196bab78,682cd3dfea4e15896da7c0a6,682d84aee36e76003a321413,,,,,,,,,,,,431.0151,1,431.0153,,,,433.764,434.2635,433.2479,433.7639,432.0316,348,433.2478,434.2635,434.7635,434.7636,437.3629,2311.4,437.3632,5,438.3623,1,4,34,7,1,1.2,0.7,Time
,,S07,184189,001,Male,27,2025-05-21_03h48.45.882,Serial_Dependence_U,2023.2.3,Win32,60.24096386,67d7d3d51a5476f5196bab78,682cd3dfea4e15896da7c0a6,682d84aee36e76003a321413,,,,,,,,,,,,438.3629,1,438.363,,,,441.312,441.811,440.7957,441.3119,439.3789,92,440.7956,441.8111,442.311,442.311,445.027,2070.4,445.0274,5,446.0263,1,5,35,23,1,1.4,0.3,Time
,,S07,184189,001,Male,27,2025-05-21_03h48.45.882,Serial_Dependence_U,2023.2.3,Win32,60.24096386,67d7d3d51a5476f5196bab78,682cd3dfea4e15896da7c0a6,682d84aee36e76003a321413,,,,,,,,,,,,446.0269,1,446.0271,,,,449.1761,449.6753,448.6597,449.176,447.0435,52,448.6595,449.6753,450.1753,450.1753,453.2746,1666.8,453.2749,3,454.2739,1,6,36,9,1,1.6,0.7,Time
,,S07,184189,001,Male,27,2025-05-21_03h48.45.882,Serial_Dependence_U,2023.2.3,Win32,60.24096386,67d7d3d51a5476f5196bab78,682cd3dfea4e15896da7c0a6,682d84aee36e76003a321413,,,,,,,,,,,,454.2745,1,454.2747,,,,456.8238,457.3232,456.3075,456.8237,455.2909,203,456.3074,457.3233,457.8233,457.8234,460.8552,1855.2,460.8553,5,461.8552,1,7,37,26,1,1,0.7,Time
,,S07,184189,001,Male,27,2025-05-21_03h48.45.882,Serial_Dependence_U,2023.2.3,Win32,60.24096386,67d7d3d51a5476f5196bab78,682cd3dfea4e15896da7c0a6,682d84aee36e76003a321413,,,,,,,,,,,,461.8561,1,461.8562,,,,464.3883,464.8871,463.8719,464.3881,462.859,144,463.8718,464.8872,465.3873,465.3875,471.4028,9999,471.403,0,472.4016,1,8,38,6,1,1,0.7,Time
,,S07,184189,001,Male,27,2025-05-21_03h48.45.882,Serial_Dependence_U,2023.2.3,Win32,60.24096386,67d7d3d51a5476f5196bab78,682cd3dfea4e15896da7c0a6,682d84aee36e76003a321413,,,,,,,,,,,,472.4029,1,472.403,,,,475.3518,475.8552,474.8354,475.3516,473.4189,163,474.8352,475.8552,476.3508,476.3509,478.3701,1341.9,478.3703,3,479.3663,1,9,39,3,1,1.4,0.3,Time
,,S07,184189,001,Male,27,2025-05-21_03h48.45.882,Serial_Dependence_U,2023.2.3,Win32,60.24096386,67d7d3d51a5476f5196bab78,682cd3dfea4e15896da7c0a6,682d84aee36e76003a321413,,,,,,,,,,,,479.3671,1,479.3673,,,,482.1162,482.6156,481.5997,482.1161,480.3836,131,481.5995,482.6158,483.1148,483.1148,485.6816,1583.6,485.6819,5,486.6805,1,10,40,12,1,1.2,0.3,Time
,,S07,184189,001,Male,27,2025-05-21_03h48.45.882,Serial_Dependence_U,2023.2.3,Win32,60.24096386,67d7d3d51a5476f5196bab78,682cd3dfea4e15896da7c0a6,682d84aee36e76003a321413,,,,,,,,,,,,486.6812,1,486.6815,,,,489.4303,489.9295,488.9134,489.4301,487.6975,55,488.9134,489.9296,490.4292,490.4293,496.4446,9999,496.4447,0,497.4443,1,11,41,2,1,1.2,0.3,Time
,,S07,184189,001,Male,27,2025-05-21_03h48.45.882,Serial_Dependence_U,2023.2.3,Win32,60.24096386,67d7d3d51a5476f5196bab78,682cd3dfea4e15896da7c0a6,682d84aee36e76003a321413,,,,,,,,,,,,497.4448,1,497.445,,,,499.7937,500.2929,499.2773,499.7936,498.4606,334,499.2772,500.2929,500.7928,500.793,502.7094,1398.9,502.7097,5,503.7084,1,12,42,25,1,0.8,0.7,Time
,,S07,184189,001,Male,27,2025-05-21_03h48.45.882,Serial_Dependence_U,2023.2.3,Win32,60.24096386,67d7d3d51a5476f5196bab78,682cd3dfea4e15896da7c0a6,682d84aee36e76003a321413,,,,,,,,,,,,503.7091,1,503.7092,,,,506.8581,507.3575,506.3416,506.858,504.7253,297,506.3415,507.3575,507.8574,507.8574,509.3069,1033.5,509.3071,1,510.3064,1,13,43,4,1,1.6,0.3,Time
,,S07,184189,001,Male,27,2025-05-21_03h48.45.882,Serial_Dependence_U,2023.2.3,Win32,60.24096386,67d7d3d51a5476f5196bab78,682cd3dfea4e15896da7c0a6,682d84aee36e76003a321413,,,,,,,,,,,,510.3069,1,510.3072,,,,512.8561,513.3555,512.3397,512.856,511.3238,5,512.3397,513.3556,513.8553,513.8554,516.0216,1738.4,516.0218,5,517.0217,1,14,44,1,1,1,0.3,Time
,,S07,184189,001,Male,27,2025-05-21_03h48.45.882,Serial_Dependence_U,2023.2.3,Win32,60.24096386,67d7d3d51a5476f5196bab78,682cd3dfea4e15896da7c0a6,682d84aee36e76003a321413,,,,,,,,,,,,517.0226,1,517.0231,,,,519.3547,519.8576,518.8418,519.3546,518.0384,54,518.8417,519.8576,520.354,520.3542,522.5201,1757.9,522.5203,5,523.5224,1,15,45,20,1,0.8,0.3,Time
,,S07,184189,001,Male,27,2025-05-21_03h48.45.882,Serial_Dependence_U,2023.2.3,Win32,60.24096386,67d7d3d51a5476f5196bab78,682cd3dfea4e15896da7c0a6,682d84aee36e76003a321413,,,,,,,,,,,,523.5229,1,523.523,,,,526.469,526.9681,525.9527,526.4689,524.5363,119,525.9526,526.9681,527.4718,527.4719,530.7553,2059.6,530.7554,5,531.7499,1,16,46,28,1,1.4,0.7,Time
,,S07,184189,001,Male,27,2025-05-21_03h48.45.882,Serial_Dependence_U,2023.2.3,Win32,60.24096386,67d7d3d51a5476f5196bab78,682cd3dfea4e15896da7c0a6,682d84aee36e76003a321413,,,,,,,,,,,,531.7508,1,531.751,,,,534.7039,535.1985,534.1875,534.7039,532.7666,59,534.1873,535.1985,535.6986,535.6988,538.1651,1258.5,538.1654,2,539.1646,1,17,47,18,1,1.4,0.7,Time
,,S07,184189,001,Male,27,2025-05-21_03h48.45.882,Serial_Dependence_U,2023.2.3,Win32,60.24096386,67d7d3d51a5476f5196bab78,682cd3dfea4e15896da7c0a6,682d84aee36e76003a321413,,,,,,,,,,,,539.1654,1,539.1655,,,,542.3137,542.8128,541.7977,542.3133,540.1815,136,541.7975,542.8128,543.3132,543.3133,544.863,1254.8,544.8634,2,545.8648,1,18,48,24,1,1.6,0.3,Time
,,S07,184189,001,Male,27,2025-05-21_03h48.45.882,Serial_Dependence_U,2023.2.3,Win32,60.24096386,67d7d3d51a5476f5196bab78,682cd3dfea4e15896da7c0a6,682d84aee36e76003a321413,,,,,,,,,,,,545.8652,1,545.8653,,,,548.8122,549.3111,548.2962,548.8121,546.8792,245,548.296,549.3113,549.8111,549.8112,551.9982,1911.1,551.9984,5,552.9932,1,19,49,13,1,1.4,0.3,Time
,,S07,184189,001,Male,27,2025-05-21_03h48.45.882,Serial_Dependence_U,2023.2.3,Win32,60.24096386,67d7d3d51a5476f5196bab78,682cd3dfea4e15896da7c0a6,682d84aee36e76003a321413,,,,,,,,,,,,552.9942,1,552.9943,,,,556.1431,556.642,555.6266,556.143,554.0135,32,555.6265,556.642,557.1457,557.1458,559.0295,1806.5,559.0298,4,560.0283,1,20,50,19,1,1.6,0.7,Time
,,S07,184189,001,Male,27,2025-05-21_03h48.45.882,Serial_Dependence_U,2023.2.3,Win32,60.24096386,67d7d3d51a5476f5196bab78,682cd3dfea4e15896da7c0a6,682d84aee36e76003a321413,,,,,,,,,,,,560.0289,1,560.0291,,,,562.9745,563.4734,562.4578,562.9742,561.0412,191,562.4577,563.4735,563.9732,563.9733,566.8104,1987.2,566.8106,5,567.8056,1,21,51,8,1,1.4,0.7,Time
,,S07,184189,001,Male,27,2025-05-21_03h48.45.882,Serial_Dependence_U,2023.2.3,Win32,60.24096386,67d7d3d51a5476f5196bab78,682cd3dfea4e15896da7c0a6,682d84aee36e76003a321413,,,,,,,,,,,,567.8064,1,567.8069,,,,570.5553,571.0546,570.0385,570.5551,568.8221,285,570.0383,571.0546,571.5544,571.5545,573.7417,1549.8,573.742,4,574.7365,1,22,52,22,1,1.2,0.3,Time
,,S07,184189,001,Male,27,2025-05-21_03h48.45.882,Serial_Dependence_U,2023.2.3,Win32,60.24096386,67d7d3d51a5476f5196bab78,682cd3dfea4e15896da7c0a6,682d84aee36e76003a321413,,,,,,,,,,,,574.7374,1,574.7376,,,,577.0866,577.5859,576.57,577.0865,575.7538,276,576.5699,577.5859,578.0889,578.0889,579.7851,1427.6,579.7856,5,580.7844,1,23,53,0,1,0.8,0.3,Time
,,S07,184189,001,Male,27,2025-05-21_03h48.45.882,Serial_Dependence_U,2023.2.3,Win32,60.24096386,67d7d3d51a5476f5196bab78,682cd3dfea4e15896da7c0a6,682d84aee36e76003a321413,,,,,,,,,,,,580.7853,1,580.7857,,,,583.335,583.8334,582.8178,583.3349,581.8017,111,582.8176,583.8334,584.3332,584.3332,585.8698,1097.1,585.8701,4,586.8694,1,24,54,16,1,1,0.7,Time
,,S07,184189,001,Male,27,2025-05-21_03h48.45.882,Serial_Dependence_U,2023.2.3,Win32,60.24096386,67d7d3d51a5476f5196bab78,682cd3dfea4e15896da7c0a6,682d84aee36e76003a321413,,,,,,,,,,,,586.87,1,586.8701,,,,589.4162,589.9193,588.8997,589.4159,587.8832,155,588.8997,589.9193,590.4149,590.415,591.9145,1174,591.9149,4,592.9187,1,25,55,11,1,1,0.3,Time
,,S07,184189,001,Male,27,2025-05-21_03h48.45.882,Serial_Dependence_U,2023.2.3,Win32,60.24096386,67d7d3d51a5476f5196bab78,682cd3dfea4e15896da7c0a6,682d84aee36e76003a321413,,,,,,,,,,,,592.9191,1,592.9192,,,,595.2643,595.7632,594.7477,595.2641,593.9314,121,594.7476,595.7632,596.2633,596.2634,599.1627,2143.5,599.163,5,600.1619,1,26,56,5,1,0.8,0.7,Time
,,S07,184189,001,Male,27,2025-05-21_03h48.45.882,Serial_Dependence_U,2023.2.3,Win32,60.24096386,67d7d3d51a5476f5196bab78,682cd3dfea4e15896da7c0a6,682d84aee36e76003a321413,,,,,,,,,,,,600.1628,1,600.1629,,,,603.3118,603.8113,602.795,603.3116,601.1825,224,602.7947,603.8114,604.3106,604.3106,606.9815,2410.6,606.9817,5,607.9762,1,27,57,29,1,1.6,0.7,Time
,,S07,184189,001,Male,27,2025-05-21_03h48.45.882,Serial_Dependence_U,2023.2.3,Win32,60.24096386,67d7d3d51a5476f5196bab78,682cd3dfea4e15896da7c0a6,682d84aee36e76003a321413,,,,,,,,,,,,607.9771,1,607.9773,,,,610.7264,611.2287,610.2095,610.7262,608.9933,28,610.2093,611.2287,611.725,611.7252,613.8917,1412.2,613.892,4,614.8906,1,28,58,17,1,1.2,0.7,Time
,,S07,184189,001,Male,27,2025-05-21_03h48.45.882,Serial_Dependence_U,2023.2.3,Win32,60.24096386,67d7d3d51a5476f5196bab78,682cd3dfea4e15896da7c0a6,682d84aee36e76003a321413,,,,,,,,,,,,614.8914,1,614.8916,,,,617.2409,617.7456,616.724,617.2409,615.9076,172,616.7238,617.7456,618.2396,618.2397,619.9066,1395,619.9069,5,620.9055,1,29,59,10,1,0.8,0.3,Time
,,S07,184189,001,Male,27,2025-05-21_03h48.45.882,Serial_Dependence_U,2023.2.3,Win32,60.24096386,67d7d3d51a5476f5196bab78,682cd3dfea4e15896da7c0a6,682d84aee36e76003a321413,,,,,,,,,,,,620.9062,2,623.2723,s,2.3359,,625.8215,626.3207,625.3048,625.8213,624.2887,283,625.3047,626.3208,626.8241,626.8242,629.8032,1764.2,629.8035,5,630.8026,2,0,60,1,1,1,0.3,Time
,,S07,184189,001,Male,27,2025-05-21_03h48.45.882,Serial_Dependence_U,2023.2.3,Win32,60.24096386,67d7d3d51a5476f5196bab78,682cd3dfea4e15896da7c0a6,682d84aee36e76003a321413,,,,,,,,,,,,630.8035,2,630.8053,,,,633.9524,634.4516,633.4355,633.9523,631.8195,127,633.4351,634.4516,634.9537,634.9538,637.501,1775.4,637.5012,4,638.5001,2,1,61,29,1,1.6,0.7,Time
,,S07,184189,001,Male,27,2025-05-21_03h48.45.882,Serial_Dependence_U,2023.2.3,Win32,60.24096386,67d7d3d51a5476f5196bab78,682cd3dfea4e15896da7c0a6,682d84aee36e76003a321413,,,,,,,,,,,,638.5009,2,638.5012,,,,641.2498,641.7489,640.7335,641.2496,639.5168,320,640.7334,641.749,642.2522,642.2523,645.0527,2159.1,645.0529,5,646.0478,2,2,62,17,1,1.2,0.7,Time
,,S07,184189,001,Male,27,2025-05-21_03h48.45.882,Serial_Dependence_U,2023.2.3,Win32,60.24096386,67d7d3d51a5476f5196bab78,682cd3dfea4e15896da7c0a6,682d84aee36e76003a321413,,,,,,,,,,,,646.0489,2,646.0491,,,,648.7976,649.3008,648.2811,648.7975,647.0649,23,648.281,649.3008,649.7965,649.7966,652.4458,1757.3,652.4463,5,653.4453,2,3,63,12,1,1.2,0.3,Time
,,S07,184189,001,Male,27,2025-05-21_03h48.45.882,Serial_Dependence_U,2023.2.3,Win32,60.24096386,67d7d3d51a5476f5196bab78,682cd3dfea4e15896da7c0a6,682d84aee36e76003a321413,,,,,,,,,,,,653.4463,2,653.4464,,,,656.1954,656.6939,655.6787,656.1952,654.4619,21,655.6786,656.694,657.198,657.1981,659.4137,1194.2,659.414,3,660.4101,2,4,64,7,1,1.2,0.7,Time
,,S07,184189,001,Male,27,2025-05-21_03h48.45.882,Serial_Dependence_U,2023.2.3,Win32,60.24096386,67d7d3d51a5476f5196bab78,682cd3dfea4e15896da7c0a6,682d84aee36e76003a321413,,,,,,,,,,,,660.4109,2,660.411,,,,662.7431,663.2427,662.2266,662.743,661.4132,276,662.2265,663.2428,663.7418,663.7418,666.0087,1331.6,666.0089,5,667.0079,2,5,65,0,1,0.8,0.3,Time
,,S07,184189,001,Male,27,2025-05-21_03h48.45.882,Serial_Dependence_U,2023.2.3,Win32,60.24096386,67d7d3d51a5476f5196bab78,682cd3dfea4e15896da7c0a6,682d84aee36e76003a321413,,,,,,,,,,,,667.0087,2,667.0088,,,,669.3578,669.8568,668.8428,669.3577,668.0248,92,668.841,669.8568,670.3567,670.3569,671.8111,1043.5,671.8113,5,672.8061,2,6,66,10,1,0.8,0.3,Time
,,S07,184189,001,Male,27,2025-05-21_03h48.45.882,Serial_Dependence_U,2023.2.3,Win32,60.24096386,67d7d3d51a5476f5196bab78,682cd3dfea4e15896da7c0a6,682d84aee36e76003a321413,,,,,,,,,,,,672.8069,2,672.8071,,,,675.7414,676.2382,675.2395,675.7413,673.8228,191,675.2393,676.2383,676.7418,676.7418,678.6049,1302.3,678.6051,2,679.6035,2,7,67,3,1,1.4,0.3,Time
,,S07,184189,001,Male,27,2025-05-21_03h48.45.882,Serial_Dependence_U,2023.2.3,Win32,60.24096386,67d7d3d51a5476f5196bab78,682cd3dfea4e15896da7c0a6,682d84aee36e76003a321413,,,,,,,,,,,,679.6043,2,679.6045,,,,682.5537,683.053,682.0373,682.5536,680.6217,319,682.037,683.0531,683.5524,683.5526,684.9566,1382.7,684.9568,3,685.952,2,8,68,13,1,1.4,0.3,Time
,,S07,184189,001,Male,27,2025-05-21_03h48.45.882,Serial_Dependence_U,2023.2.3,Win32,60.24096386,67d7d3d51a5476f5196bab78,682cd3dfea4e15896da7c0a6,682d84aee36e76003a321413,,,,,,,,,,,,685.9528,2,685.953,,,,688.5018,689.0009,687.9853,688.5017,686.9693,40,687.9852,689.0009,689.5007,689.5007,691.334,1455.9,691.3342,5,692.3366,2,9,69,26,1,1,0.7,Time
,,S07,184189,001,Male,27,2025-05-21_03h48.45.882,Serial_Dependence_U,2023.2.3,Win32,60.24096386,67d7d3d51a5476f5196bab78,682cd3dfea4e15896da7c0a6,682d84aee36e76003a321413,,,,,,,,,,,,692.337,2,692.3372,,,,694.6834,695.1825,694.1664,694.6833,693.3503,358,694.1662,695.1826,695.682,695.6822,697.6819,1172.5,697.6822,5,698.6816,2,10,70,25,1,0.8,0.7,Time
,,S07,184189,001,Male,27,2025-05-21_03h48.45.882,Serial_Dependence_U,2023.2.3,Win32,60.24096386,67d7d3d51a5476f5196bab78,682cd3dfea4e15896da7c0a6,682d84aee36e76003a321413,,,,,,,,,,,,698.6824,2,698.6826,,,,701.831,702.3298,701.3144,701.8307,699.6982,164,701.3143,702.3299,702.8299,702.83,704.3001,1188.2,704.3002,2,705.2957,2,11,71,9,1,1.6,0.7,Time
,,S07,184189,001,Male,27,2025-05-21_03h48.45.882,Serial_Dependence_U,2023.2.3,Win32,60.24096386,67d7d3d51a5476f5196bab78,682cd3dfea4e15896da7c0a6,682d84aee36e76003a321413,,,,,,,,,,,,705.2964,2,705.2966,,,,708.4291,708.9282,707.9144,708.429,706.2998,187,707.9144,708.9282,709.4281,709.4282,711.5637,1222.6,711.5638,2,712.5607,2,12,72,14,1,1.6,0.3,Time
,,S07,184189,001,Male,27,2025-05-21_03h48.45.882,Serial_Dependence_U,2023.2.3,Win32,60.24096386,67d7d3d51a5476f5196bab78,682cd3dfea4e15896da7c0a6,682d84aee36e76003a321413,,,,,,,,,,,,712.5614,2,712.5616,,,,715.1105,715.6092,714.5938,715.1103,713.5774,155,714.5936,715.6092,716.1093,716.1095,718.6091,1751.1,718.6094,5,719.6079,2,13,73,6,1,1,0.7,Time
,,S07,184189,001,Male,27,2025-05-21_03h48.45.882,Serial_Dependence_U,2023.2.3,Win32,60.24096386,67d7d3d51a5476f5196bab78,682cd3dfea4e15896da7c0a6,682d84aee36e76003a321413,,,,,,,,,,,,719.6089,2,719.6091,,,,722.7408,723.24,722.2248,722.7407,720.6086,72,722.2247,723.24,723.7402,723.7403,726.2731,1624.1,726.2734,3,727.2724,2,14,74,19,1,1.6,0.7,Time
,,S07,184189,001,Male,27,2025-05-21_03h48.45.882,Serial_Dependence_U,2023.2.3,Win32,60.24096386,67d7d3d51a5476f5196bab78,682cd3dfea4e15896da7c0a6,682d84aee36e76003a321413,,,,,,,,,,,,727.2732,2,727.2735,,,,729.8223,730.3212,729.3057,729.8221,728.2896,194,729.3056,730.3213,730.8246,730.8247,732.7542,1185.3,732.7547,4,733.7534,2,15,75,16,1,1,0.7,Time
,,S07,184189,001,Male,27,2025-05-21_03h48.45.882,Serial_Dependence_U,2023.2.3,Win32,60.24096386,67d7d3d51a5476f5196bab78,682cd3dfea4e15896da7c0a6,682d84aee36e76003a321413,,,,,,,,,,,,733.7543,2,733.7548,,,,736.1037,736.603,735.587,736.1036,734.7707,120,735.5867,736.603,737.1021,737.1022,738.3742,883.8000002,738.3744,4,739.3685,2,16,76,5,1,0.8,0.7,Time
,,S07,184189,001,Male,27,2025-05-21_03h48.45.882,Serial_Dependence_U,2023.2.3,Win32,60.24096386,67d7d3d51a5476f5196bab78,682cd3dfea4e15896da7c0a6,682d84aee36e76003a321413,,,,,,,,,,,,739.3694,2,739.3695,,,,742.3017,742.8009,741.7851,742.3016,740.3712,300,741.785,742.8011,743.3003,743.3003,745.2007,1176.4,745.201,2,746.1996,2,17,77,23,1,1.4,0.3,Time
,,S07,184189,001,Male,27,2025-05-21_03h48.45.882,Serial_Dependence_U,2023.2.3,Win32,60.24096386,67d7d3d51a5476f5196bab78,682cd3dfea4e15896da7c0a6,682d84aee36e76003a321413,,,,,,,,,,,,746.2005,2,746.2008,,,,748.5498,749.0489,748.0335,748.5496,747.2169,152,748.0333,749.049,749.5489,749.5491,751.2987,1042.8,751.299,5,752.2976,2,18,78,15,1,0.8,0.7,Time
,,S07,184189,001,Male,27,2025-05-21_03h48.45.882,Serial_Dependence_U,2023.2.3,Win32,60.24096386,67d7d3d51a5476f5196bab78,682cd3dfea4e15896da7c0a6,682d84aee36e76003a321413,,,,,,,,,,,,752.2986,2,752.2987,,,,755.2307,755.7301,754.7143,755.2304,753.301,3,754.7141,755.7301,756.2295,756.2295,757.9466,1507.1,757.9469,4,758.9489,2,19,79,8,1,1.4,0.7,Time
,,S07,184189,001,Male,27,2025-05-21_03h48.45.882,Serial_Dependence_U,2023.2.3,Win32,60.24096386,67d7d3d51a5476f5196bab78,682cd3dfea4e15896da7c0a6,682d84aee36e76003a321413,,,,,,,,,,,,758.9496,2,758.9498,,,,761.4822,761.9783,760.9789,761.4822,759.9623,314,760.9788,761.9784,762.4778,762.4779,764.7606,1461.3,764.761,5,765.7602,2,20,80,21,1,1,0.3,Time
,,S07,184189,001,Male,27,2025-05-21_03h48.45.882,Serial_Dependence_U,2023.2.3,Win32,60.24096386,67d7d3d51a5476f5196bab78,682cd3dfea4e15896da7c0a6,682d84aee36e76003a321413,,,,,,,,,,,,765.7613,2,765.7616,,,,768.5097,769.0092,767.9934,768.5095,766.7774,136,767.9932,769.0093,769.5088,769.5089,771.2418,1348.9,771.2422,4,772.2416,2,21,81,2,1,1.2,0.3,Time
,,S07,184189,001,Male,27,2025-05-21_03h48.45.882,Serial_Dependence_U,2023.2.3,Win32,60.24096386,67d7d3d51a5476f5196bab78,682cd3dfea4e15896da7c0a6,682d84aee36e76003a321413,,,,,,,,,,,,772.2425,2,772.243,,,,775.3914,775.8905,774.8788,775.3912,773.2587,77,774.8786,775.8905,776.3903,776.3904,778.1898,1186.2,778.1902,2,779.1894,2,22,82,24,1,1.6,0.3,Time
,,S07,184189,001,Male,27,2025-05-21_03h48.45.882,Serial_Dependence_U,2023.2.3,Win32,60.24096386,67d7d3d51a5476f5196bab78,682cd3dfea4e15896da7c0a6,682d84aee36e76003a321413,,,,,,,,,,,,779.1902,2,779.1905,,,,781.7394,782.2388,781.2228,781.7394,780.2065,314,781.2227,782.2389,782.7382,782.7382,783.8093,943,783.8095,2,784.804,2,23,83,11,1,1,0.3,Time
,,S07,184189,001,Male,27,2025-05-21_03h48.45.882,Serial_Dependence_U,2023.2.3,Win32,60.24096386,67d7d3d51a5476f5196bab78,682cd3dfea4e15896da7c0a6,682d84aee36e76003a321413,,,,,,,,,,,,784.8048,2,784.805,,,,787.5542,788.0535,787.038,787.554,785.8215,41,787.0378,788.0536,788.5566,788.5567,790.8075,1130.7,790.8077,2,791.8027,2,24,84,22,1,1.2,0.3,Time
,,S07,184189,001,Male,27,2025-05-21_03h48.45.882,Serial_Dependence_U,2023.2.3,Win32,60.24096386,67d7d3d51a5476f5196bab78,682cd3dfea4e15896da7c0a6,682d84aee36e76003a321413,,,,,,,,,,,,791.8034,2,791.8035,,,,794.7396,795.2344,794.2355,794.7395,792.8191,22,794.2354,795.2345,795.7342,795.7343,797.4008,1532.5,797.4012,4,798.4005,2,25,85,18,1,1.4,0.7,Time
,,S07,184189,001,Male,27,2025-05-21_03h48.45.882,Serial_Dependence_U,2023.2.3,Win32,60.24096386,67d7d3d51a5476f5196bab78,682cd3dfea4e15896da7c0a6,682d84aee36e76003a321413,,,,,,,,,,,,798.4014,2,798.4016,,,,801.1499,801.649,800.6334,801.1496,799.4172,158,800.6332,801.6491,802.1528,802.1529,803.6323,1193,803.6325,3,804.6317,2,26,86,27,1,1.2,0.7,Time
,,S07,184189,001,Male,27,2025-05-21_03h48.45.882,Serial_Dependence_U,2023.2.3,Win32,60.24096386,67d7d3d51a5476f5196bab78,682cd3dfea4e15896da7c0a6,682d84aee36e76003a321413,,,,,,,,,,,,804.6326,2,804.6328,,,,807.5813,808.0804,807.0648,807.5812,805.6487,257,807.0647,808.0805,808.5803,808.5804,810.1844,1421,810.1846,3,811.1793,2,27,87,28,1,1.4,0.7,Time
,,S07,184189,001,Male,27,2025-05-21_03h48.45.882,Serial_Dependence_U,2023.2.3,Win32,60.24096386,67d7d3d51a5476f5196bab78,682cd3dfea4e15896da7c0a6,682d84aee36e76003a321413,,,,,,,,,,,,811.1802,2,811.1804,,,,814.3294,814.8284,813.8128,814.3293,812.1967,259,813.8126,814.8286,815.3278,815.328,817.4821,1879.1,817.4822,4,818.4769,2,28,88,4,1,1.6,0.3,Time
,,S07,184189,001,Male,27,2025-05-21_03h48.45.882,Serial_Dependence_U,2023.2.3,Win32,60.24096386,67d7d3d51a5476f5196bab78,682cd3dfea4e15896da7c0a6,682d84aee36e76003a321413,,,,,,,,,,,,818.4777,2,818.4779,,,,820.8275,821.3261,820.3105,820.8273,819.4943,334,820.3104,821.3262,821.8297,821.8298,823.0468,882.9000001,823.047,4,824.0456,2,29,89,20,1,0.8,0.3,Time
,,S07,184189,001,Male,27,2025-05-21_03h48.45.882,Serial_Dependence_U,2023.2.3,Win32,60.24096386,67d7d3d51a5476f5196bab78,682cd3dfea4e15896da7c0a6,682d84aee36e76003a321413,,,,,,,,,,,,824.0461,3,826.4452,s,2.3834,,829.5611,830.0565,829.058,829.561,827.446,180,829.0579,830.0565,830.5566,830.5567,832.361,1479.4,832.3611,2,833.3562,3,0,90,9,1,1.6,0.7,Time
,,S07,184189,001,Male,27,2025-05-21_03h48.45.882,Serial_Dependence_U,2023.2.3,Win32,60.24096386,67d7d3d51a5476f5196bab78,682cd3dfea4e15896da7c0a6,682d84aee36e76003a321413,,,,,,,,,,,,833.3569,3,833.3583,,,,835.8891,836.3882,835.3727,835.889,834.3612,83,835.3725,836.3883,836.8882,836.8883,838.0883,892.1000004,838.0885,2,839.0873,3,1,91,1,1,1,0.3,Time
,,S07,184189,001,Male,27,2025-05-21_03h48.45.882,Serial_Dependence_U,2023.2.3,Win32,60.24096386,67d7d3d51a5476f5196bab78,682cd3dfea4e15896da7c0a6,682d84aee36e76003a321413,,,,,,,,,,,,839.0882,3,839.0884,,,,841.4377,841.9368,840.9208,841.4376,840.1045,217,840.9207,841.9369,842.4363,842.4363,844.3074,1127,844.3076,5,845.3024,3,2,92,15,1,0.8,0.7,Time
,,S07,184189,001,Male,27,2025-05-21_03h48.45.882,Serial_Dependence_U,2023.2.3,Win32,60.24096386,67d7d3d51a5476f5196bab78,682cd3dfea4e15896da7c0a6,682d84aee36e76003a321413,,,,,,,,,,,,845.3032,3,845.3033,,,,848.0391,848.5345,847.5355,848.039,846.319,193,847.5353,848.5345,849.0345,849.0346,851.0509,1076.6,851.0513,2,852.05,3,3,93,7,1,1.2,0.7,Time
,,S07,184189,001,Male,27,2025-05-21_03h48.45.882,Serial_Dependence_U,2023.2.3,Win32,60.24096386,67d7d3d51a5476f5196bab78,682cd3dfea4e15896da7c0a6,682d84aee36e76003a321413,,,,,,,,,,,,852.0509,3,852.0511,,,,855.0002,855.4986,854.4835,855,853.0672,64,854.4832,855.4986,855.999,855.9992,857.6821,1329.4,857.6824,2,858.6812,3,4,94,18,1,1.4,0.7,Time
,,S07,184189,001,Male,27,2025-05-21_03h48.45.882,Serial_Dependence_U,2023.2.3,Win32,60.24096386,67d7d3d51a5476f5196bab78,682cd3dfea4e15896da7c0a6,682d84aee36e76003a321413,,,,,,,,,,,,858.6822,3,858.6823,,,,861.2313,861.7303,860.7144,861.2311,859.6981,110,860.7142,861.7304,862.2301,862.2301,863.4134,990.7000003,863.4138,3,864.4127,3,5,95,11,1,1,0.3,Time
,,S07,184189,001,Male,27,2025-05-21_03h48.45.882,Serial_Dependence_U,2023.2.3,Win32,60.24096386,67d7d3d51a5476f5196bab78,682cd3dfea4e15896da7c0a6,682d84aee36e76003a321413,,,,,,,,,,,,864.4134,3,864.4138,,,,866.7628,867.262,866.2464,866.7626,865.4302,237,866.2463,867.2621,867.762,867.7622,868.9496,664.7999997,868.9498,2,869.9444,3,6,96,5,1,0.8,0.7,Time
,,S07,184189,001,Male,27,2025-05-21_03h48.45.882,Serial_Dependence_U,2023.2.3,Win32,60.24096386,67d7d3d51a5476f5196bab78,682cd3dfea4e15896da7c0a6,682d84aee36e76003a321413,,,,,,,,,,,,869.9453,3,869.9455,,,,873.0942,873.5933,872.5778,873.0941,870.9616,2,872.5777,873.5933,874.0931,874.0933,875.829,1077.8,875.8292,1,876.8257,3,7,97,24,1,1.6,0.3,Time
,,S07,184189,001,Male,27,2025-05-21_03h48.45.882,Serial_Dependence_U,2023.2.3,Win32,60.24096386,67d7d3d51a5476f5196bab78,682cd3dfea4e15896da7c0a6,682d84aee36e76003a321413,,,,,,,,,,,,876.8266,3,876.8269,,,,879.176,879.6744,878.6594,879.1759,877.8428,194,878.6592,879.6745,880.1746,880.1748,881.779,843.9000001,881.7792,4,882.7737,3,8,98,0,1,0.8,0.3,Time
,,S07,184189,001,Male,27,2025-05-21_03h48.45.882,Serial_Dependence_U,2023.2.3,Win32,60.24096386,67d7d3d51a5476f5196bab78,682cd3dfea4e15896da7c0a6,682d84aee36e76003a321413,,,,,,,,,,,,882.7747,3,882.7748,,,,885.7237,886.2227,885.207,885.7235,883.791,94,885.207,886.2229,886.723,886.7232,888.277,1258.4,888.2771,2,889.272,3,9,99,3,1,1.4,0.3,Time
,,S07,184189,001,Male,27,2025-05-21_03h48.45.882,Serial_Dependence_U,2023.2.3,Win32,60.24096386,67d7d3d51a5476f5196bab78,682cd3dfea4e15896da7c0a6,682d84aee36e76003a321413,,,,,,,,,,,,889.273,3,889.2732,,,,892.2234,892.7238,891.7053,892.2233,890.2883,138,891.7052,892.7238,893.2206,893.2207,895.4203,1422.1,895.4206,3,896.4199,3,10,100,28,1,1.4,0.7,Time
,,S07,184189,001,Male,27,2025-05-21_03h48.45.882,Serial_Dependence_U,2023.2.3,Win32,60.24096386,67d7d3d51a5476f5196bab78,682cd3dfea4e15896da7c0a6,682d84aee36e76003a321413,,,,,,,,,,,,896.421,3,896.4211,,,,898.7695,899.2724,898.2527,898.7693,897.4366,210,898.2524,899.2724,899.7684,899.7686,900.856,813.7000003,900.8562,3,901.8511,3,11,101,10,1,0.8,0.3,Time
,,S07,184189,001,Male,27,2025-05-21_03h48.45.882,Serial_Dependence_U,2023.2.3,Win32,60.24096386,67d7d3d51a5476f5196bab78,682cd3dfea4e15896da7c0a6,682d84aee36e76003a321413,,,,,,,,,,,,901.852,3,901.8522,,,,905.001,905.5003,904.4845,905.001,902.8722,316,904.4844,905.5004,905.9999,906,907.8037,1439,907.8038,2,908.7987,3,12,102,29,1,1.6,0.7,Time
,,S07,184189,001,Male,27,2025-05-21_03h48.45.882,Serial_Dependence_U,2023.2.3,Win32,60.24096386,67d7d3d51a5476f5196bab78,682cd3dfea4e15896da7c0a6,682d84aee36e76003a321413,,,,,,,,,,,,908.7994,3,908.7997,,,,911.3485,911.8513,910.8319,911.3483,909.8162,233,910.8317,911.8513,912.3513,912.3513,913.7979,1272.4,913.7983,4,914.7976,3,13,103,6,1,1,0.7,Time
,,S07,184189,001,Male,27,2025-05-21_03h48.45.882,Serial_Dependence_U,2023.2.3,Win32,60.24096386,67d7d3d51a5476f5196bab78,682cd3dfea4e15896da7c0a6,682d84aee36e76003a321413,,,,,,,,,,,,914.7983,3,914.7985,,,,917.5508,918.0459,917.0306,917.5507,915.8143,105,917.0304,918.0459,918.546,918.5461,920.1666,1474.5,920.1667,4,921.162,3,14,104,17,1,1.2,0.7,Time
,,S07,184189,001,Male,27,2025-05-21_03h48.45.882,Serial_Dependence_U,2023.2.3,Win32,60.24096386,67d7d3d51a5476f5196bab78,682cd3dfea4e15896da7c0a6,682d84aee36e76003a321413,,,,,,,,,,,,921.1629,3,921.1632,,,,923.4952,923.9943,922.9826,923.4951,922.1675,306,922.9825,923.9944,924.4944,924.4945,925.0107,179.3000002,925.0112,1,926.0101,3,15,105,20,1,0.8,0.3,Time
,,S07,184189,001,Male,27,2025-05-21_03h48.45.882,Serial_Dependence_U,2023.2.3,Win32,60.24096386,67d7d3d51a5476f5196bab78,682cd3dfea4e15896da7c0a6,682d84aee36e76003a321413,,,,,,,,,,,,926.0106,3,926.0108,,,,928.76,929.2593,928.243,928.7599,927.0273,119,928.2428,929.2593,929.7589,929.7589,931.5918,1032.6,931.592,2,932.5911,3,16,106,22,1,1.2,0.3,Time
,,S07,184189,001,Male,27,2025-05-21_03h48.45.882,Serial_Dependence_U,2023.2.3,Win32,60.24096386,67d7d3d51a5476f5196bab78,682cd3dfea4e15896da7c0a6,682d84aee36e76003a321413,,,,,,,,,,,,932.5917,3,932.5918,,,,935.541,936.0401,935.0242,935.5409,933.6082,124,935.0241,936.0401,936.5404,936.5405,938.1898,996.3999996,938.1899,2,939.1895,3,17,107,13,1,1.4,0.3,Time
,,S07,184189,001,Male,27,2025-05-21_03h48.45.882,Serial_Dependence_U,2023.2.3,Win32,60.24096386,67d7d3d51a5476f5196bab78,682cd3dfea4e15896da7c0a6,682d84aee36e76003a321413,,,,,,,,,,,,939.1901,3,939.1903,,,,941.5392,942.0386,941.0226,941.5391,940.206,202,941.0225,942.0386,942.5382,942.5383,944.021,954.3000002,944.0212,4,945.021,3,18,108,25,1,0.8,0.7,Time
,,S07,184189,001,Male,27,2025-05-21_03h48.45.882,Serial_Dependence_U,2023.2.3,Win32,60.24096386,67d7d3d51a5476f5196bab78,682cd3dfea4e15896da7c0a6,682d84aee36e76003a321413,,,,,,,,,,,,945.0214,3,945.0217,,,,947.7707,948.2697,947.2541,947.7706,946.0377,62,947.2539,948.2698,948.7696,948.7696,950.1532,904.3999996,950.1534,2,951.1521,3,19,109,27,1,1.2,0.7,Time
,,S07,184189,001,Male,27,2025-05-21_03h48.45.882,Serial_Dependence_U,2023.2.3,Win32,60.24096386,67d7d3d51a5476f5196bab78,682cd3dfea4e15896da7c0a6,682d84aee36e76003a321413,,,,,,,,,,,,951.1527,3,951.1529,,,,953.902,954.401,953.3856,953.902,952.1693,14,953.3855,954.401,954.9012,954.9013,956.3176,1048.7,956.3179,2,957.317,3,20,110,12,1,1.2,0.3,Time
,,S07,184189,001,Male,27,2025-05-21_03h48.45.882,Serial_Dependence_U,2023.2.3,Win32,60.24096386,67d7d3d51a5476f5196bab78,682cd3dfea4e15896da7c0a6,682d84aee36e76003a321413,,,,,,,,,,,,957.3175,3,957.3178,,,,960.2665,960.7656,959.75,960.2664,958.3337,180,959.75,960.7657,961.2662,961.2662,962.6321,1040.8,962.6323,2,963.6318,3,21,111,23,1,1.4,0.3,Time
,,S07,184189,001,Male,27,2025-05-21_03h48.45.882,Serial_Dependence_U,2023.2.3,Win32,60.24096386,67d7d3d51a5476f5196bab78,682cd3dfea4e15896da7c0a6,682d84aee36e76003a321413,,,,,,,,,,,,963.6323,3,963.6325,,,,966.5813,967.0807,966.0648,966.5812,964.6485,78,966.0648,967.0808,967.5802,967.5803,969.2969,1095.8,969.2973,2,970.2963,3,22,112,8,1,1.4,0.7,Time
,,S07,184189,001,Male,27,2025-05-21_03h48.45.882,Serial_Dependence_U,2023.2.3,Win32,60.24096386,67d7d3d51a5476f5196bab78,682cd3dfea4e15896da7c0a6,682d84aee36e76003a321413,,,,,,,,,,,,970.2968,3,970.297,,,,973.4457,973.9451,972.9293,973.4456,971.3132,178,972.9291,973.9451,974.4447,974.4448,976.3281,1308.3,976.3284,2,977.3273,3,23,113,19,1,1.6,0.7,Time
,,S07,184189,001,Male,27,2025-05-21_03h48.45.882,Serial_Dependence_U,2023.2.3,Win32,60.24096386,67d7d3d51a5476f5196bab78,682cd3dfea4e15896da7c0a6,682d84aee36e76003a321413,,,,,,,,,,,,977.3276,3,977.3278,,,,980.477,980.9763,979.9609,980.4769,978.3441,97,979.9608,980.9763,981.4761,981.4761,982.7929,1234.3,982.7931,2,983.7922,3,24,114,14,1,1.6,0.3,Time
,,S07,184189,001,Male,27,2025-05-21_03h48.45.882,Serial_Dependence_U,2023.2.3,Win32,60.24096386,67d7d3d51a5476f5196bab78,682cd3dfea4e15896da7c0a6,682d84aee36e76003a321413,,,,,,,,,,,,983.7928,3,983.793,,,,986.9249,987.4243,986.4083,986.9248,984.7929,252,986.4083,987.4243,987.9238,987.9238,989.6069,1284.6,989.6072,2,990.6067,3,25,115,4,1,1.6,0.3,Time
,,S07,184189,001,Male,27,2025-05-21_03h48.45.882,Serial_Dependence_U,2023.2.3,Win32,60.24096386,67d7d3d51a5476f5196bab78,682cd3dfea4e15896da7c0a6,682d84aee36e76003a321413,,,,,,,,,,,,990.6072,3,990.6074,,,,993.1565,993.6556,992.6401,993.1564,991.6235,188,992.64,993.6557,994.1557,994.1558,995.8555,971.0999999,995.8558,3,996.8547,3,26,116,26,1,1,0.7,Time
,,S07,184189,001,Male,27,2025-05-21_03h48.45.882,Serial_Dependence_U,2023.2.3,Win32,60.24096386,67d7d3d51a5476f5196bab78,682cd3dfea4e15896da7c0a6,682d84aee36e76003a321413,,,,,,,,,,,,996.8553,3,996.8554,,,,999.6041,1000.1036,999.0876,999.604,997.8716,74,999.0875,1000.1036,1000.6034,1000.6035,1002.7032,1096.5,1002.7035,2,1003.7024,3,27,117,2,1,1.2,0.3,Time
,,S07,184189,001,Male,27,2025-05-21_03h48.45.882,Serial_Dependence_U,2023.2.3,Win32,60.24096386,67d7d3d51a5476f5196bab78,682cd3dfea4e15896da7c0a6,682d84aee36e76003a321413,,,,,,,,,,,,1003.7032,3,1003.7034,,,,1006.2527,1006.7514,1005.7356,1006.2526,1004.7195,231,1005.7355,1006.7515,1007.2512,1007.2512,1009.1175,1242.5,1009.1179,4,1010.1173,3,28,118,21,1,1,0.3,Time
,,S07,184189,001,Male,27,2025-05-21_03h48.45.882,Serial_Dependence_U,2023.2.3,Win32,60.24096386,67d7d3d51a5476f5196bab78,682cd3dfea4e15896da7c0a6,682d84aee36e76003a321413,,,,,,,,,,,,1010.1179,3,1010.1181,,,,1012.6669,1013.1664,1012.1502,1012.6668,1011.1344,224,1012.1501,1013.1665,1013.6662,1013.6663,1014.7161,718.7999997,1014.7163,2,1015.7154,3,29,119,16,1,1,0.7,Time
,,S07,184189,001,Male,27,2025-05-21_03h48.45.882,Serial_Dependence_U,2023.2.3,Win32,60.24096386,67d7d3d51a5476f5196bab78,682cd3dfea4e15896da7c0a6,682d84aee36e76003a321413,,,,,,,,,,,,1015.7159,4,1017.3317,s,1.5937,,1020.4812,1020.9805,1019.9646,1020.481,1018.3486,339,1019.9646,1020.9805,1021.4801,1021.4802,1023.4299,1393.3,1023.4301,2,1024.4294,4,0,120,29,1,1.6,0.7,Time
,,S07,184189,001,Male,27,2025-05-21_03h48.45.882,Serial_Dependence_U,2023.2.3,Win32,60.24096386,67d7d3d51a5476f5196bab78,682cd3dfea4e15896da7c0a6,682d84aee36e76003a321413,,,,,,,,,,,,1024.43,4,1024.4318,,,,1027.179,1027.6785,1026.6624,1027.1789,1025.4463,263,1026.6622,1027.6785,1028.1786,1028.1786,1030.7111,2097.3,1030.7114,5,1031.7104,4,1,121,17,1,1.2,0.7,Time
,,S07,184189,001,Male,27,2025-05-21_03h48.45.882,Serial_Dependence_U,2023.2.3,Win32,60.24096386,67d7d3d51a5476f5196bab78,682cd3dfea4e15896da7c0a6,682d84aee36e76003a321413,,,,,,,,,,,,1031.711,4,1031.7112,,,,1034.0605,1034.5595,1033.5436,1034.0603,1032.7274,202,1033.5435,1034.5596,1035.0594,1035.0594,1036.676,749.9000001,1036.6763,2,1037.6753,4,2,122,20,1,0.8,0.3,Time
,,S07,184189,001,Male,27,2025-05-21_03h48.45.882,Serial_Dependence_U,2023.2.3,Win32,60.24096386,67d7d3d51a5476f5196bab78,682cd3dfea4e15896da7c0a6,682d84aee36e76003a321413,,,,,,,,,,,,1037.6758,4,1037.676,,,,1040.6248,1041.1242,1040.1083,1040.6247,1038.692,308,1040.1082,1041.1243,1041.624,1041.6241,1043.8903,1475.6,1043.8906,4,1044.8895,4,3,123,18,1,1.4,0.7,Time
,,S07,184189,001,Male,27,2025-05-21_03h48.45.882,Serial_Dependence_U,2023.2.3,Win32,60.24096386,67d7d3d51a5476f5196bab78,682cd3dfea4e15896da7c0a6,682d84aee36e76003a321413,,,,,,,,,,,,1044.8901,4,1044.8902,,,,1047.8225,1048.3219,1047.3064,1047.8225,1045.89,239,1047.3062,1048.322,1048.8219,1048.8219,1050.4882,1396.5,1050.4885,3,1051.4878,4,4,124,28,1,1.4,0.7,Time
,,S07,184189,001,Male,27,2025-05-21_03h48.45.882,Serial_Dependence_U,2023.2.3,Win32,60.24096386,67d7d3d51a5476f5196bab78,682cd3dfea4e15896da7c0a6,682d84aee36e76003a321413,,,,,,,,,,,,1051.4885,4,1051.4885,,,,1054.2373,1054.7366,1053.7206,1054.2371,1052.5048,163,1053.7205,1054.7366,1055.2362,1055.2363,1056.7865,1432.9,1056.7868,4,1057.7856,4,5,125,22,1,1.2,0.3,Time
,,S07,184189,001,Male,27,2025-05-21_03h48.45.882,Serial_Dependence_U,2023.2.3,Win32,60.24096386,67d7d3d51a5476f5196bab78,682cd3dfea4e15896da7c0a6,682d84aee36e76003a321413,,,,,,,,,,,,1057.7861,4,1057.7863,,,,1060.1189,1060.6178,1059.6021,1060.1188,1058.7861,108,1059.6019,1060.6178,1061.1177,1061.1177,1061.5179,102.7999997,1061.5181,1,1062.5174,4,6,126,25,1,0.8,0.7,Time
,,S07,184189,001,Male,27,2025-05-21_03h48.45.882,Serial_Dependence_U,2023.2.3,Win32,60.24096386,67d7d3d51a5476f5196bab78,682cd3dfea4e15896da7c0a6,682d84aee36e76003a321413,,,,,,,,,,,,1062.518,4,1062.5181,,,,1065.2674,1065.7665,1064.7507,1065.2673,1063.5342,199,1064.7506,1065.7666,1066.2666,1066.2667,1068.1995,995.6999998,1068.1998,2,1069.1989,4,7,127,2,1,1.2,0.3,Time
,,S07,184189,001,Male,27,2025-05-21_03h48.45.882,Serial_Dependence_U,2023.2.3,Win32,60.24096386,67d7d3d51a5476f5196bab78,682cd3dfea4e15896da7c0a6,682d84aee36e76003a321413,,,,,,,,,,,,1069.1994,4,1069.1996,,,,1072.1479,1072.6477,1071.632,1072.1477,1070.2157,218,1071.6319,1072.6477,1073.1475,1073.1476,1075.4303,1157.8,1075.4305,2,1076.4299,4,8,128,8,1,1.4,0.7,Time
,,S07,184189,001,Male,27,2025-05-21_03h48.45.882,Serial_Dependence_U,2023.2.3,Win32,60.24096386,67d7d3d51a5476f5196bab78,682cd3dfea4e15896da7c0a6,682d84aee36e76003a321413,,,,,,,,,,,,1076.4304,4,1076.4306,,,,1078.9798,1079.4787,1078.463,1078.9798,1077.4465,31,1078.463,1079.4788,1079.9788,1079.9789,1081.1285,1027.1,1081.1287,3,1082.1283,4,9,129,1,1,1,0.3,Time
,,S07,184189,001,Male,27,2025-05-21_03h48.45.882,Serial_Dependence_U,2023.2.3,Win32,60.24096386,67d7d3d51a5476f5196bab78,682cd3dfea4e15896da7c0a6,682d84aee36e76003a321413,,,,,,,,,,,,1082.1288,4,1082.129,,,,1085.078,1085.5771,1084.5609,1085.0779,1083.1448,359,1084.5608,1085.5771,1086.0771,1086.0771,1087.0934,499.3000002,1087.0936,1,1088.0926,4,10,130,23,1,1.4,0.3,Time
,,S07,184189,001,Male,27,2025-05-21_03h48.45.882,Serial_Dependence_U,2023.2.3,Win32,60.24096386,67d7d3d51a5476f5196bab78,682cd3dfea4e15896da7c0a6,682d84aee36e76003a321413,,,,,,,,,,,,1088.0931,4,1088.0934,,,,1090.8429,1091.3419,1090.3261,1090.8427,1089.1096,27,1090.3259,1091.342,1091.8417,1091.8417,1093.0419,1062.7,1093.0422,2,1094.0407,4,11,131,12,1,1.2,0.3,Time
,,S07,184189,001,Male,27,2025-05-21_03h48.45.882,Serial_Dependence_U,2023.2.3,Win32,60.24096386,67d7d3d51a5476f5196bab78,682cd3dfea4e15896da7c0a6,682d84aee36e76003a321413,,,,,,,,,,,,1094.0413,4,1094.0416,,,,1096.5909,1097.09,1096.0743,1096.5908,1095.0579,346,1096.0742,1097.0901,1097.5898,1097.5898,1099.0563,1116.2,1099.0565,4,1100.0558,4,12,132,26,1,1,0.7,Time
,,S07,184189,001,Male,27,2025-05-21_03h48.45.882,Serial_Dependence_U,2023.2.3,Win32,60.24096386,67d7d3d51a5476f5196bab78,682cd3dfea4e15896da7c0a6,682d84aee36e76003a321413,,,,,,,,,,,,1100.0563,4,1100.0564,,,,1102.4057,1102.9049,1101.8893,1102.4056,1101.0727,340,1101.8892,1102.9049,1103.4048,1103.4049,1104.7047,671.2999997,1104.705,2,1105.7037,4,13,133,0,1,0.8,0.3,Time
,,S07,184189,001,Male,27,2025-05-21_03h48.45.882,Serial_Dependence_U,2023.2.3,Win32,60.24096386,67d7d3d51a5476f5196bab78,682cd3dfea4e15896da7c0a6,682d84aee36e76003a321413,,,,,,,,,,,,1105.7043,4,1105.7047,,,,1108.2538,1108.7531,1107.737,1108.2537,1106.7209,230,1107.737,1108.7532,1109.253,1109.2531,1111.136,1081.9,1111.1363,4,1112.1358,4,14,134,21,1,1,0.3,Time
,,S07,184189,001,Male,27,2025-05-21_03h48.45.882,Serial_Dependence_U,2023.2.3,Win32,60.24096386,67d7d3d51a5476f5196bab78,682cd3dfea4e15896da7c0a6,682d84aee36e76003a321413,,,,,,,,,,,,1112.1367,4,1112.1368,,,,1114.6688,1115.1681,1114.1525,1114.6686,1113.1382,106,1114.1523,1115.1681,1115.6678,1115.6679,1117.3389,814.3000002,1117.3391,2,1118.3339,4,15,135,6,1,1,0.7,Time
,,S07,184189,001,Male,27,2025-05-21_03h48.45.882,Serial_Dependence_U,2023.2.3,Win32,60.24096386,67d7d3d51a5476f5196bab78,682cd3dfea4e15896da7c0a6,682d84aee36e76003a321413,,,,,,,,,,,,1118.3346,4,1118.3348,,,,1121.2835,1121.7825,1120.7667,1121.2833,1119.3504,49,1120.7665,1121.7825,1122.2827,1122.2829,1124.4201,1364.4,1124.4203,3,1125.4146,4,16,136,13,1,1.4,0.3,Time
,,S07,184189,001,Male,27,2025-05-21_03h48.45.882,Serial_Dependence_U,2023.2.3,Win32,60.24096386,67d7d3d51a5476f5196bab78,682cd3dfea4e15896da7c0a6,682d84aee36e76003a321413,,,,,,,,,,,,1125.4155,4,1125.4157,,,,1127.7478,1128.2469,1127.2321,1127.7475,1126.4153,143,1127.232,1128.2469,1128.7472,1128.7473,1130.4341,1080.7,1130.4342,5,1131.4296,4,17,137,15,1,0.8,0.7,Time
,,S07,184189,001,Male,27,2025-05-21_03h48.45.882,Serial_Dependence_U,2023.2.3,Win32,60.24096386,67d7d3d51a5476f5196bab78,682cd3dfea4e15896da7c0a6,682d84aee36e76003a321413,,,,,,,,,,,,1131.4304,4,1131.4306,,,,1134.579,1135.0783,1134.0627,1134.5788,1132.4464,277,1134.0626,1135.0784,1135.5783,1135.5785,1138.3656,1748.1,1138.3658,4,1139.3645,4,18,138,14,1,1.6,0.3,Time
,,S07,184189,001,Male,27,2025-05-21_03h48.45.882,Serial_Dependence_U,2023.2.3,Win32,60.24096386,67d7d3d51a5476f5196bab78,682cd3dfea4e15896da7c0a6,682d84aee36e76003a321413,,,,,,,,,,,,1139.3649,4,1139.3651,,,,1142.2979,1142.7925,1141.7772,1142.2977,1140.363,264,1141.777,1142.7925,1143.2926,1143.2927,1145.3138,1032.7,1145.3141,2,1146.3082,4,19,139,3,1,1.4,0.3,Time
,,S07,184189,001,Male,27,2025-05-21_03h48.45.882,Serial_Dependence_U,2023.2.3,Win32,60.24096386,67d7d3d51a5476f5196bab78,682cd3dfea4e15896da7c0a6,682d84aee36e76003a321413,,,,,,,,,,,,1146.3091,4,1146.3093,,,,1148.6581,1149.1609,1148.1417,1148.6579,1147.3256,340,1148.1414,1149.1609,1149.6572,1149.6573,1151.1404,1032,1151.1407,4,1152.1394,4,20,140,10,1,0.8,0.3,Time
,,S07,184189,001,Male,27,2025-05-21_03h48.45.882,Serial_Dependence_U,2023.2.3,Win32,60.24096386,67d7d3d51a5476f5196bab78,682cd3dfea4e15896da7c0a6,682d84aee36e76003a321413,,,,,,,,,,,,1152.1403,4,1152.1406,,,,1154.8897,1155.3891,1154.3731,1154.8896,1153.157,180,1154.3729,1155.3891,1155.8887,1155.8888,1157.4261,1144.8,1157.4263,3,1158.4211,4,21,141,27,1,1.2,0.7,Time
,,S07,184189,001,Male,27,2025-05-21_03h48.45.882,Serial_Dependence_U,2023.2.3,Win32,60.24096386,67d7d3d51a5476f5196bab78,682cd3dfea4e15896da7c0a6,682d84aee36e76003a321413,,,,,,,,,,,,1158.422,4,1158.4221,,,,1161.5708,1162.07,1161.0547,1161.5707,1159.4385,148,1161.0545,1162.0702,1162.5695,1162.5696,1164.6905,1762,1164.6906,4,1165.6851,4,22,142,19,1,1.6,0.7,Time
,,S07,184189,001,Male,27,2025-05-21_03h48.45.882,Serial_Dependence_U,2023.2.3,Win32,60.24096386,67d7d3d51a5476f5196bab78,682cd3dfea4e15896da7c0a6,682d84aee36e76003a321413,,,,,,,,,,,,1165.6859,4,1165.6862,,,,1168.2355,1168.7348,1167.719,1168.2354,1166.7027,169,1167.7188,1168.7348,1169.2343,1169.2344,1171.055,1375.6,1171.0553,5,1172.0501,4,23,143,11,1,1,0.3,Time
,,S07,184189,001,Male,27,2025-05-21_03h48.45.882,Serial_Dependence_U,2023.2.3,Win32,60.24096386,67d7d3d51a5476f5196bab78,682cd3dfea4e15896da7c0a6,682d84aee36e76003a321413,,,,,,,,,,,,1172.051,4,1172.0512,,,,1174.4003,1174.9034,1173.8837,1174.4001,1173.0673,85,1173.8835,1174.9034,1175.4027,1175.4028,1177.1653,673.5,1177.1657,2,1178.1651,4,24,144,5,1,0.8,0.7,Time
,,S07,184189,001,Male,27,2025-05-21_03h48.45.882,Serial_Dependence_U,2023.2.3,Win32,60.24096386,67d7d3d51a5476f5196bab78,682cd3dfea4e15896da7c0a6,682d84aee36e76003a321413,,,,,,,,,,,,1178.166,4,1178.1661,,,,1180.715,1181.2141,1180.1985,1180.7149,1179.1819,82,1180.1983,1181.2143,1181.7141,1181.7143,1183.4807,972.6000004,1183.4815,3,1184.4796,4,25,145,16,1,1,0.7,Time
,,S07,184189,001,Male,27,2025-05-21_03h48.45.882,Serial_Dependence_U,2023.2.3,Win32,60.24096386,67d7d3d51a5476f5196bab78,682cd3dfea4e15896da7c0a6,682d84aee36e76003a321413,,,,,,,,,,,,1184.4804,4,1184.4807,,,,1187.2296,1187.7283,1186.713,1187.2294,1185.4965,249,1186.7129,1187.7284,1188.2281,1188.2281,1189.9286,1136.3,1189.9288,2,1190.9282,4,26,146,7,1,1.2,0.7,Time
,,S07,184189,001,Male,27,2025-05-21_03h48.45.882,Serial_Dependence_U,2023.2.3,Win32,60.24096386,67d7d3d51a5476f5196bab78,682cd3dfea4e15896da7c0a6,682d84aee36e76003a321413,,,,,,,,,,,,1190.9289,4,1190.929,,,,1194.0776,1194.5767,1193.5608,1194.0774,1191.9443,143,1193.5606,1194.5769,1195.08,1195.08,1196.1594,1035.9,1196.1599,1,1197.1591,4,27,147,4,1,1.6,0.3,Time
,,S07,184189,001,Male,27,2025-05-21_03h48.45.882,Serial_Dependence_U,2023.2.3,Win32,60.24096386,67d7d3d51a5476f5196bab78,682cd3dfea4e15896da7c0a6,682d84aee36e76003a321413,,,,,,,,,,,,1197.1601,4,1197.1603,,,,1200.2928,1200.7911,1199.7758,1200.2926,1198.162,302,1199.7756,1200.7911,1201.2946,1201.2947,1202.8409,1266.5,1202.8412,2,1203.8401,4,28,148,9,1,1.6,0.7,Time
,,S07,184189,001,Male,27,2025-05-21_03h48.45.882,Serial_Dependence_U,2023.2.3,Win32,60.24096386,67d7d3d51a5476f5196bab78,682cd3dfea4e15896da7c0a6,682d84aee36e76003a321413,,,,,,,,,,,,1203.8411,4,1203.8412,,,,1206.99,1207.4892,1206.4728,1206.9898,1204.8574,16,1206.4727,1207.4892,1207.9889,1207.9891,1209.8555,1562,1209.8558,3,1210.8549,4,29,149,24,1,1.6,0.3,Time
,,S07,184189,001,Male,27,2025-05-21_03h48.45.882,Serial_Dependence_U,2023.2.3,Win32,60.24096386,67d7d3d51a5476f5196bab78,682cd3dfea4e15896da7c0a6,682d84aee36e76003a321413,,,,,,,,,,,,1210.8558,5,1212.9212,s,2.0376,,1215.2709,1215.7697,1214.7542,1215.2708,1213.9376,51,1214.7541,1215.7697,1216.2699,1216.2699,1217.7526,1001.8,1217.7531,4,1218.7521,5,0,150,25,1,0.8,0.7,Time
,,S07,184189,001,Male,27,2025-05-21_03h48.45.882,Serial_Dependence_U,2023.2.3,Win32,60.24096386,67d7d3d51a5476f5196bab78,682cd3dfea4e15896da7c0a6,682d84aee36e76003a321413,,,,,,,,,,,,1218.753,5,1218.7546,,,,1221.7021,1222.2031,1221.1857,1221.7019,1219.7695,274,1221.1855,1222.2031,1222.7011,1222.7012,1223.2012,228.7000003,1223.2016,1,1224.2008,5,1,151,18,1,1.4,0.7,Time
,,S07,184189,001,Male,27,2025-05-21_03h48.45.882,Serial_Dependence_U,2023.2.3,Win32,60.24096386,67d7d3d51a5476f5196bab78,682cd3dfea4e15896da7c0a6,682d84aee36e76003a321413,,,,,,,,,,,,1224.2017,5,1224.2018,,,,1226.7338,1227.233,1226.2174,1226.7338,1225.2013,194,1226.2172,1227.2331,1227.7365,1227.7366,1229.8366,1562.1,1229.8368,5,1230.8315,5,2,152,6,1,1,0.7,Time
,,S07,184189,001,Male,27,2025-05-21_03h48.45.882,Serial_Dependence_U,2023.2.3,Win32,60.24096386,67d7d3d51a5476f5196bab78,682cd3dfea4e15896da7c0a6,682d84aee36e76003a321413,,,,,,,,,,,,1230.8322,5,1230.8325,,,,1233.9646,1234.4637,1233.4481,1233.9643,1231.8346,266,1233.4479,1234.4638,1234.9638,1234.9639,1236.4836,1437.4,1236.4838,2,1237.48,5,3,153,14,1,1.6,0.3,Time
,,S07,184189,001,Male,27,2025-05-21_03h48.45.882,Serial_Dependence_U,2023.2.3,Win32,60.24096386,67d7d3d51a5476f5196bab78,682cd3dfea4e15896da7c0a6,682d84aee36e76003a321413,,,,,,,,,,,,1237.4811,5,1237.4813,,,,1240.4297,1240.9287,1239.913,1240.4296,1238.4969,281,1239.9128,1240.9288,1241.4285,1241.4286,1242.6783,564.5999999,1242.6788,1,1243.6775,5,4,154,23,1,1.4,0.3,Time
,,S07,184189,001,Male,27,2025-05-21_03h48.45.882,Serial_Dependence_U,2023.2.3,Win32,60.24096386,67d7d3d51a5476f5196bab78,682cd3dfea4e15896da7c0a6,682d84aee36e76003a321413,,,,,,,,,,,,1243.6784,5,1243.6786,,,,1246.4277,1246.9265,1245.9112,1246.4276,1244.695,103,1245.9111,1246.9266,1247.4267,1247.4267,1249.5138,1234.1,1249.5139,3,1250.5093,5,5,155,27,1,1.2,0.7,Time
,,S07,184189,001,Male,27,2025-05-21_03h48.45.882,Serial_Dependence_U,2023.2.3,Win32,60.24096386,67d7d3d51a5476f5196bab78,682cd3dfea4e15896da7c0a6,682d84aee36e76003a321413,,,,,,,,,,,,1250.5102,5,1250.5104,,,,1253.4594,1253.9614,1252.9423,1253.4594,1251.5261,33,1252.9421,1253.9615,1254.4611,1254.4612,1256.5078,1191.8,1256.5081,2,1257.5067,5,6,156,28,1,1.4,0.7,Time
,,S07,184189,001,Male,27,2025-05-21_03h48.45.882,Serial_Dependence_U,2023.2.3,Win32,60.24096386,67d7d3d51a5476f5196bab78,682cd3dfea4e15896da7c0a6,682d84aee36e76003a321413,,,,,,,,,,,,1257.5076,5,1257.5078,,,,1260.6567,1261.1562,1260.1402,1260.6566,1258.5237,42,1260.14,1261.1563,1261.6555,1261.6556,1263.2097,1499.6,1263.2099,2,1264.2049,5,7,157,29,1,1.6,0.7,Time
,,S07,184189,001,Male,27,2025-05-21_03h48.45.882,Serial_Dependence_U,2023.2.3,Win32,60.24096386,67d7d3d51a5476f5196bab78,682cd3dfea4e15896da7c0a6,682d84aee36e76003a321413,,,,,,,,,,,,1264.2057,5,1264.2059,,,,1267.3546,1267.8532,1266.8382,1267.3543,1265.2223,319,1266.8381,1267.8533,1268.3534,1268.3534,1270.3408,1896.2,1270.3409,4,1271.3364,5,8,158,4,1,1.6,0.3,Time
,,S07,184189,001,Male,27,2025-05-21_03h48.45.882,Serial_Dependence_U,2023.2.3,Win32,60.24096386,67d7d3d51a5476f5196bab78,682cd3dfea4e15896da7c0a6,682d84aee36e76003a321413,,,,,,,,,,,,1271.3371,5,1271.3372,,,,1274.2857,1274.7849,1273.7691,1274.2855,1272.353,311,1273.769,1274.7851,1275.2848,1275.285,1276.9392,1264.3,1276.9394,2,1277.9342,5,9,159,8,1,1.4,0.7,Time
,,S07,184189,001,Male,27,2025-05-21_03h48.45.882,Serial_Dependence_U,2023.2.3,Win32,60.24096386,67d7d3d51a5476f5196bab78,682cd3dfea4e15896da7c0a6,682d84aee36e76003a321413,,,,,,,,,,,,1277.9352,5,1277.9353,,,,1280.6835,1281.186,1280.1673,1280.6834,1278.9509,312,1280.1672,1281.186,1281.6861,1281.6862,1283.2488,1221,1283.2492,3,1284.2486,5,10,160,2,1,1.2,0.3,Time
,,S07,184189,001,Male,27,2025-05-21_03h48.45.882,Serial_Dependence_U,2023.2.3,Win32,60.24096386,67d7d3d51a5476f5196bab78,682cd3dfea4e15896da7c0a6,682d84aee36e76003a321413,,,,,,,,,,,,1284.2494,5,1284.2496,,,,1286.5986,1287.0979,1286.0818,1286.5984,1285.2656,292,1286.0815,1287.098,1287.5974,1287.5975,1289.0972,1083.4,1289.0976,5,1290.0964,5,11,161,10,1,0.8,0.3,Time
,,S07,184189,001,Male,27,2025-05-21_03h48.45.882,Serial_Dependence_U,2023.2.3,Win32,60.24096386,67d7d3d51a5476f5196bab78,682cd3dfea4e15896da7c0a6,682d84aee36e76003a321413,,,,,,,,,,,,1290.097,5,1290.0974,,,,1292.4466,1292.9458,1291.9301,1292.4463,1291.1138,116,1291.93,1292.9459,1293.4456,1293.4458,1294.5169,714.9000001,1294.5172,2,1295.5117,5,12,162,15,1,0.8,0.7,Time
,,S07,184189,001,Male,27,2025-05-21_03h48.45.882,Serial_Dependence_U,2023.2.3,Win32,60.24096386,67d7d3d51a5476f5196bab78,682cd3dfea4e15896da7c0a6,682d84aee36e76003a321413,,,,,,,,,,,,1295.5126,5,1295.513,,,,1298.2616,1298.7604,1297.7452,1298.2614,1296.5291,79,1297.745,1298.7604,1299.2603,1299.2604,1300.3646,929.9000001,1300.3648,2,1301.3638,5,13,163,12,1,1.2,0.3,Time
,,S07,184189,001,Male,27,2025-05-21_03h48.45.882,Serial_Dependence_U,2023.2.3,Win32,60.24096386,67d7d3d51a5476f5196bab78,682cd3dfea4e15896da7c0a6,682d84aee36e76003a321413,,,,,,,,,,,,1301.3644,5,1301.3646,,,,1303.9124,1304.4084,1303.3937,1303.9124,1302.377,318,1303.3934,1304.4085,1304.9082,1304.9084,1306.231,975.5,1306.2313,3,1307.2243,5,14,164,16,1,1,0.7,Time
,,S07,184189,001,Male,27,2025-05-21_03h48.45.882,Serial_Dependence_U,2023.2.3,Win32,60.24096386,67d7d3d51a5476f5196bab78,682cd3dfea4e15896da7c0a6,682d84aee36e76003a321413,,,,,,,,,,,,1307.2251,5,1307.2254,,,,1310.3748,1310.8736,1309.8579,1310.3746,1308.2418,175,1309.8578,1310.8737,1311.373,1311.3731,1312.8109,1251.2,1312.8111,2,1313.8062,5,15,165,19,1,1.6,0.7,Time
,,S07,184189,001,Male,27,2025-05-21_03h48.45.882,Serial_Dependence_U,2023.2.3,Win32,60.24096386,67d7d3d51a5476f5196bab78,682cd3dfea4e15896da7c0a6,682d84aee36e76003a321413,,,,,,,,,,,,1313.8069,5,1313.8072,,,,1316.1558,1316.6552,1315.6418,1316.1555,1314.8231,322,1315.6417,1316.6553,1317.1555,1317.1557,1318.6594,633.9000001,1318.6596,2,1319.6542,5,16,166,20,1,0.8,0.3,Time
,,S07,184189,001,Male,27,2025-05-21_03h48.45.882,Serial_Dependence_U,2023.2.3,Win32,60.24096386,67d7d3d51a5476f5196bab78,682cd3dfea4e15896da7c0a6,682d84aee36e76003a321413,,,,,,,,,,,,1319.655,5,1319.6553,,,,1322.2041,1322.7065,1321.6879,1322.204,1320.6709,35,1321.6877,1322.7065,1323.2026,1323.2027,1324.1742,728.3000002,1324.1744,2,1325.1731,5,17,167,21,1,1,0.3,Time
,,S07,184189,001,Male,27,2025-05-21_03h48.45.882,Serial_Dependence_U,2023.2.3,Win32,60.24096386,67d7d3d51a5476f5196bab78,682cd3dfea4e15896da7c0a6,682d84aee36e76003a321413,,,,,,,,,,,,1325.1737,5,1325.1739,,,,1328.3021,1328.8012,1327.7856,1328.3021,1326.1738,336,1327.7855,1328.8013,1329.3056,1329.3057,1331.101,1348.4,1331.1014,2,1332.1002,5,18,168,24,1,1.6,0.3,Time
,,S07,184189,001,Male,27,2025-05-21_03h48.45.882,Serial_Dependence_U,2023.2.3,Win32,60.24096386,67d7d3d51a5476f5196bab78,682cd3dfea4e15896da7c0a6,682d84aee36e76003a321413,,,,,,,,,,,,1332.1011,5,1332.1013,,,,1335.0497,1335.5491,1334.5337,1335.0495,1333.1173,17,1334.5336,1335.5493,1336.0489,1336.0491,1337.8199,1481.1,1337.8201,4,1338.815,5,19,169,13,1,1.4,0.3,Time
,,S07,184189,001,Male,27,2025-05-21_03h48.45.882,Serial_Dependence_U,2023.2.3,Win32,60.24096386,67d7d3d51a5476f5196bab78,682cd3dfea4e15896da7c0a6,682d84aee36e76003a321413,,,,,,,,,,,,1338.8158,5,1338.8161,,,,1341.5478,1342.0472,1341.0315,1341.5476,1339.824,255,1341.0313,1342.0474,1342.5507,1342.5508,1344.6843,1414.7,1344.6845,4,1345.6797,5,20,170,22,1,1.2,0.3,Time
,,S07,184189,001,Male,27,2025-05-21_03h48.45.882,Serial_Dependence_U,2023.2.3,Win32,60.24096386,67d7d3d51a5476f5196bab78,682cd3dfea4e15896da7c0a6,682d84aee36e76003a321413,,,,,,,,,,,,1345.6808,5,1345.681,,,,1348.4292,1348.9282,1347.9128,1348.4291,1346.6965,172,1347.9126,1348.9284,1349.4283,1349.4284,1350.8614,1313.5,1350.8618,4,1351.8607,5,21,171,17,1,1.2,0.7,Time
,,S07,184189,001,Male,27,2025-05-21_03h48.45.882,Serial_Dependence_U,2023.2.3,Win32,60.24096386,67d7d3d51a5476f5196bab78,682cd3dfea4e15896da7c0a6,682d84aee36e76003a321413,,,,,,,,,,,,1351.8616,5,1351.8618,,,,1354.1943,1354.6933,1353.6775,1354.1941,1352.8615,178,1353.6774,1354.6933,1355.1934,1355.1935,1356.7793,899.9000001,1356.7796,4,1357.7755,5,22,172,5,1,0.8,0.7,Time
,,S07,184189,001,Male,27,2025-05-21_03h48.45.882,Serial_Dependence_U,2023.2.3,Win32,60.24096386,67d7d3d51a5476f5196bab78,682cd3dfea4e15896da7c0a6,682d84aee36e76003a321413,,,,,,,,,,,,1357.7764,5,1357.7765,,,,1360.1092,1360.6076,1359.5949,1360.1089,1358.793,147,1359.5948,1360.6076,1361.1075,1361.1076,1362.4129,933.9000001,1362.4131,4,1363.4111,5,23,173,0,1,0.8,0.3,Time
,,S07,184189,001,Male,27,2025-05-21_03h48.45.882,Serial_Dependence_U,2023.2.3,Win32,60.24096386,67d7d3d51a5476f5196bab78,682cd3dfea4e15896da7c0a6,682d84aee36e76003a321413,,,,,,,,,,,,1363.4119,5,1363.4121,,,,1365.9567,1366.456,1365.4408,1365.9565,1364.4242,131,1365.4406,1366.456,1366.9559,1366.956,1367.4561,159.7999997,1367.4566,1,1368.4555,5,24,174,11,1,1,0.3,Time
,,S07,184189,001,Male,27,2025-05-21_03h48.45.882,Serial_Dependence_U,2023.2.3,Win32,60.24096386,67d7d3d51a5476f5196bab78,682cd3dfea4e15896da7c0a6,682d84aee36e76003a321413,,,,,,,,,,,,1368.4564,5,1368.4565,,,,1370.9926,1371.4879,1370.489,1370.9925,1369.4726,5,1370.4888,1371.488,1371.9877,1371.9878,1373.2709,898.2999997,1373.2713,2,1374.2704,5,25,175,1,1,1,0.3,Time
,,S07,184189,001,Male,27,2025-05-21_03h48.45.882,Serial_Dependence_U,2023.2.3,Win32,60.24096386,67d7d3d51a5476f5196bab78,682cd3dfea4e15896da7c0a6,682d84aee36e76003a321413,,,,,,,,,,,,1374.2713,5,1374.2715,,,,1376.8035,1377.3026,1376.2873,1376.8033,1375.2723,109,1376.287,1377.3026,1377.8022,1377.8023,1379.5859,1340.3,1379.5861,5,1380.5853,5,26,176,26,1,1,0.7,Time
,,S07,184189,001,Male,27,2025-05-21_03h48.45.882,Serial_Dependence_U,2023.2.3,Win32,60.24096386,67d7d3d51a5476f5196bab78,682cd3dfea4e15896da7c0a6,682d84aee36e76003a321413,,,,,,,,,,,,1380.5861,5,1380.5863,,,,1383.3208,1383.821,1382.8186,1383.3206,1381.602,358,1382.8184,1383.821,1384.3208,1384.3209,1386.4534,1172.5,1386.4536,3,1387.4499,5,27,177,7,1,1.2,0.7,Time
,,S07,184189,001,Male,27,2025-05-21_03h48.45.882,Serial_Dependence_U,2023.2.3,Win32,60.24096386,67d7d3d51a5476f5196bab78,682cd3dfea4e15896da7c0a6,682d84aee36e76003a321413,,,,,,,,,,,,1387.4507,5,1387.4509,,,,1390.5828,1391.0819,1390.0661,1390.5826,1388.4543,330,1390.0661,1391.082,1391.5817,1391.5817,1393.5355,1280.9,1393.5358,2,1394.5307,5,28,178,9,1,1.6,0.7,Time
,,S07,184189,001,Male,27,2025-05-21_03h48.45.882,Serial_Dependence_U,2023.2.3,Win32,60.24096386,67d7d3d51a5476f5196bab78,682cd3dfea4e15896da7c0a6,682d84aee36e76003a321413,,,,,,,,,,,,1394.5316,5,1394.5317,,,,1397.4807,1397.98,1396.964,1397.4806,1395.5477,11,1396.9639,1397.98,1398.4792,1398.4793,1400.6289,1266.4,1400.6294,2,1401.6284,5,29,179,3,1,1.4,0.3,Time
,,S07,184189,001,Male,27,2025-05-21_03h48.45.882,Serial_Dependence_U,2023.2.3,Win32,60.24096386,67d7d3d51a5476f5196bab78,682cd3dfea4e15896da7c0a6,682d84aee36e76003a321413,,,,,,,,,,,,1401.6294,6,1403.2978,s,1.6494,,1405.6446,1406.1435,1405.1282,1405.6444,1404.3117,92,1405.1281,1406.1436,1406.6434,1406.6435,1408.4435,1119.3,1408.4439,5,1409.4469,6,0,180,15,1,0.8,0.7,Time
,,S07,184189,001,Male,27,2025-05-21_03h48.45.882,Serial_Dependence_U,2023.2.3,Win32,60.24096386,67d7d3d51a5476f5196bab78,682cd3dfea4e15896da7c0a6,682d84aee36e76003a321413,,,,,,,,,,,,1409.4474,6,1409.4491,,,,1411.9929,1412.4916,1411.476,1411.9928,1410.462,151,1411.4757,1412.4917,1412.9919,1412.9921,1414.6582,901.8000002,1414.6586,2,1415.6575,6,1,181,1,1,1,0.3,Time
,,S07,184189,001,Male,27,2025-05-21_03h48.45.882,Serial_Dependence_U,2023.2.3,Win32,60.24096386,67d7d3d51a5476f5196bab78,682cd3dfea4e15896da7c0a6,682d84aee36e76003a321413,,,,,,,,,,,,1415.6584,6,1415.6586,,,,1418.6077,1419.1065,1418.0914,1418.6075,1416.6746,253,1418.0912,1419.1066,1419.6067,1419.6068,1421.6938,1290.9,1421.694,2,1422.693,6,2,182,23,1,1.4,0.3,Time
,,S07,184189,001,Male,27,2025-05-21_03h48.45.882,Serial_Dependence_U,2023.2.3,Win32,60.24096386,67d7d3d51a5476f5196bab78,682cd3dfea4e15896da7c0a6,682d84aee36e76003a321413,,,,,,,,,,,,1422.6934,6,1422.6936,,,,1425.4385,1425.9375,1424.9218,1425.4383,1423.7059,38,1424.9217,1425.9375,1426.4411,1426.4412,1428.4368,1175.1,1428.4373,3,1429.4364,6,3,183,2,1,1.2,0.3,Time
,,S07,184189,001,Male,27,2025-05-21_03h48.45.882,Serial_Dependence_U,2023.2.3,Win32,60.24096386,67d7d3d51a5476f5196bab78,682cd3dfea4e15896da7c0a6,682d84aee36e76003a321413,,,,,,,,,,,,1429.4375,6,1429.4379,,,,1432.3864,1432.8853,1431.8699,1432.3863,1430.4536,178,1431.8698,1432.8854,1433.3859,1433.3859,1436.1724,1074.6,1436.1726,2,1437.1676,6,4,184,13,1,1.4,0.3,Time
,,S07,184189,001,Male,27,2025-05-21_03h48.45.882,Serial_Dependence_U,2023.2.3,Win32,60.24096386,67d7d3d51a5476f5196bab78,682cd3dfea4e15896da7c0a6,682d84aee36e76003a321413,,,,,,,,,,,,1437.1685,6,1437.1686,,,,1440.3173,1440.816,1439.8004,1440.3172,1438.1845,324,1439.8002,1440.816,1441.3159,1441.316,1443.2662,1282.8,1443.2664,2,1444.2649,6,5,185,9,1,1.6,0.7,Time
,,S07,184189,001,Male,27,2025-05-21_03h48.45.882,Serial_Dependence_U,2023.2.3,Win32,60.24096386,67d7d3d51a5476f5196bab78,682cd3dfea4e15896da7c0a6,682d84aee36e76003a321413,,,,,,,,,,,,1444.2656,6,1444.2659,,,,1447.0152,1447.5145,1446.4985,1447.0149,1445.2822,114,1446.4984,1447.5147,1448.014,1448.0141,1450.152,1414.6,1450.1522,4,1451.1466,6,6,186,22,1,1.2,0.3,Time
,,S07,184189,001,Male,27,2025-05-21_03h48.45.882,Serial_Dependence_U,2023.2.3,Win32,60.24096386,67d7d3d51a5476f5196bab78,682cd3dfea4e15896da7c0a6,682d84aee36e76003a321413,,,,,,,,,,,,1451.1475,6,1451.1476,,,,1453.9002,1454.3951,1453.3797,1453.9002,1452.1636,11,1453.3796,1454.3951,1454.8986,1454.8987,1456.5621,1232,1456.5623,3,1457.5607,6,7,187,17,1,1.2,0.7,Time
,,S07,184189,001,Male,27,2025-05-21_03h48.45.882,Serial_Dependence_U,2023.2.3,Win32,60.24096386,67d7d3d51a5476f5196bab78,682cd3dfea4e15896da7c0a6,682d84aee36e76003a321413,,,,,,,,,,,,1457.5617,6,1457.5619,,,,1459.9108,1460.4101,1459.3945,1459.9106,1458.5784,338,1459.3943,1460.4102,1460.91,1460.9101,1462.227,892.1000004,1462.2274,4,1463.226,6,8,188,0,1,0.8,0.3,Time
,,S07,184189,001,Male,27,2025-05-21_03h48.45.882,Serial_Dependence_U,2023.2.3,Win32,60.24096386,67d7d3d51a5476f5196bab78,682cd3dfea4e15896da7c0a6,682d84aee36e76003a321413,,,,,,,,,,,,1463.2268,6,1463.227,,,,1465.976,1466.4751,1465.4592,1465.976,1464.2431,339,1465.459,1466.4753,1466.975,1466.9751,1467.7456,747.5999999,1467.7458,1,1468.7409,6,9,189,27,1,1.2,0.7,Time
,,S07,184189,001,Male,27,2025-05-21_03h48.45.882,Serial_Dependence_U,2023.2.3,Win32,60.24096386,67d7d3d51a5476f5196bab78,682cd3dfea4e15896da7c0a6,682d84aee36e76003a321413,,,,,,,,,,,,1468.7418,6,1468.742,,,,1471.091,1471.5905,1470.5744,1471.091,1469.7579,217,1470.5742,1471.5906,1472.0898,1472.0898,1473.307,1183.9,1473.3073,5,1474.3061,6,10,190,5,1,0.8,0.7,Time
,,S07,184189,001,Male,27,2025-05-21_03h48.45.882,Serial_Dependence_U,2023.2.3,Win32,60.24096386,67d7d3d51a5476f5196bab78,682cd3dfea4e15896da7c0a6,682d84aee36e76003a321413,,,,,,,,,,,,1474.307,6,1474.3071,,,,1477.4556,1477.9546,1476.9392,1477.4556,1475.323,292,1476.939,1477.9547,1478.4543,1478.4543,1480.1546,1239.8,1480.1549,2,1481.1573,6,11,191,14,1,1.6,0.3,Time
,,S07,184189,001,Male,27,2025-05-21_03h48.45.882,Serial_Dependence_U,2023.2.3,Win32,60.24096386,67d7d3d51a5476f5196bab78,682cd3dfea4e15896da7c0a6,682d84aee36e76003a321413,,,,,,,,,,,,1481.1582,6,1481.1583,,,,1484.2911,1484.7859,1483.7869,1484.291,1482.1708,201,1483.7867,1484.786,1485.2893,1485.2893,1487.0685,1040.2,1487.069,1,1488.0687,6,12,192,4,1,1.6,0.3,Time
,,S07,184189,001,Male,27,2025-05-21_03h48.45.882,Serial_Dependence_U,2023.2.3,Win32,60.24096386,67d7d3d51a5476f5196bab78,682cd3dfea4e15896da7c0a6,682d84aee36e76003a321413,,,,,,,,,,,,1488.0694,6,1488.0696,,,,1490.8182,1491.3172,1490.3014,1490.8181,1489.0853,317,1490.3012,1491.3173,1491.8168,1491.8169,1494.055,1590.1,1494.0552,5,1495.0492,6,13,193,7,1,1.2,0.7,Time
,,S07,184189,001,Male,27,2025-05-21_03h48.45.882,Serial_Dependence_U,2023.2.3,Win32,60.24096386,67d7d3d51a5476f5196bab78,682cd3dfea4e15896da7c0a6,682d84aee36e76003a321413,,,,,,,,,,,,1495.0499,6,1495.0502,,,,1497.5994,1498.0987,1497.0828,1497.5993,1496.0664,199,1497.0824,1498.0988,1498.5984,1498.5986,1500.0818,951,1500.0821,3,1501.0805,6,14,194,16,1,1,0.7,Time
,,S07,184189,001,Male,27,2025-05-21_03h48.45.882,Serial_Dependence_U,2023.2.3,Win32,60.24096386,67d7d3d51a5476f5196bab78,682cd3dfea4e15896da7c0a6,682d84aee36e76003a321413,,,,,,,,,,,,1501.0814,6,1501.0816,,,,1503.4334,1503.9301,1502.9144,1503.4333,1502.098,287,1502.9142,1503.9302,1504.4297,1504.4298,1505.8798,864.8000002,1505.8802,4,1506.879,6,15,195,25,1,0.8,0.7,Time
,,S07,184189,001,Male,27,2025-05-21_03h48.45.882,Serial_Dependence_U,2023.2.3,Win32,60.24096386,67d7d3d51a5476f5196bab78,682cd3dfea4e15896da7c0a6,682d84aee36e76003a321413,,,,,,,,,,,,1506.8799,6,1506.88,,,,1509.8289,1510.3276,1509.3121,1509.8287,1507.8959,175,1509.3119,1510.3277,1510.8278,1510.8278,1512.5155,1409.3,1512.5157,3,1513.5104,6,16,196,18,1,1.4,0.7,Time
,,S07,184189,001,Male,27,2025-05-21_03h48.45.882,Serial_Dependence_U,2023.2.3,Win32,60.24096386,67d7d3d51a5476f5196bab78,682cd3dfea4e15896da7c0a6,682d84aee36e76003a321413,,,,,,,,,,,,1513.5113,6,1513.5114,,,,1516.4602,1516.9589,1515.9454,1516.4601,1514.5274,83,1515.9453,1516.9589,1517.4588,1517.4589,1519.592,1919.3,1519.5925,5,1520.5915,6,17,197,8,1,1.4,0.7,Time
,,S07,184189,001,Male,27,2025-05-21_03h48.45.882,Serial_Dependence_U,2023.2.3,Win32,60.24096386,67d7d3d51a5476f5196bab78,682cd3dfea4e15896da7c0a6,682d84aee36e76003a321413,,,,,,,,,,,,1520.5923,6,1520.5925,,,,1523.1414,1523.6405,1522.6243,1523.1412,1521.6086,68,1522.6242,1523.6406,1524.14,1524.1401,1525.6779,1057.9,1525.678,4,1526.673,6,18,198,21,1,1,0.3,Time
,,S07,184189,001,Male,27,2025-05-21_03h48.45.882,Serial_Dependence_U,2023.2.3,Win32,60.24096386,67d7d3d51a5476f5196bab78,682cd3dfea4e15896da7c0a6,682d84aee36e76003a321413,,,,,,,,,,,,1526.6738,6,1526.6739,,,,1529.8269,1530.3251,1529.3063,1529.8268,1527.6901,266,1529.3062,1530.3251,1530.8217,1530.8219,1531.8424,998.1999998,1531.8425,1,1532.8374,6,19,199,29,1,1.6,0.7,Time
,,S07,184189,001,Male,27,2025-05-21_03h48.45.882,Serial_Dependence_U,2023.2.3,Win32,60.24096386,67d7d3d51a5476f5196bab78,682cd3dfea4e15896da7c0a6,682d84aee36e76003a321413,,,,,,,,,,,,1532.8383,6,1532.8385,,,,1535.5876,1536.0866,1535.0707,1535.5874,1533.8543,259,1535.0705,1536.0867,1536.5869,1536.587,1538.2197,1263.4,1538.22,4,1539.223,6,20,200,12,1,1.2,0.3,Time
,,S07,184189,001,Male,27,2025-05-21_03h48.45.882,Serial_Dependence_U,2023.2.3,Win32,60.24096386,67d7d3d51a5476f5196bab78,682cd3dfea4e15896da7c0a6,682d84aee36e76003a321413,,,,,,,,,,,,1539.2236,6,1539.2238,,,,1542.1686,1542.6717,1541.6523,1542.1683,1540.2359,19,1541.6521,1542.6717,1543.1713,1543.1713,1543.256,65,1543.2563,1,1544.2508,6,21,201,3,1,1.4,0.3,Time
,,S07,184189,001,Male,27,2025-05-21_03h48.45.882,Serial_Dependence_U,2023.2.3,Win32,60.24096386,67d7d3d51a5476f5196bab78,682cd3dfea4e15896da7c0a6,682d84aee36e76003a321413,,,,,,,,,,,,1544.2516,6,1544.2518,,,,1546.6006,1547.0997,1546.0842,1546.6004,1545.2677,45,1546.0841,1547.0998,1547.5997,1547.5998,1549.199,924.8000002,1549.1993,4,1550.1986,6,22,202,20,1,0.8,0.3,Time
,,S07,184189,001,Male,27,2025-05-21_03h48.45.882,Serial_Dependence_U,2023.2.3,Win32,60.24096386,67d7d3d51a5476f5196bab78,682cd3dfea4e15896da7c0a6,682d84aee36e76003a321413,,,,,,,,,,,,1550.1995,6,1550.1997,,,,1553.1489,1553.6479,1552.6321,1553.1487,1551.2157,46,1552.6319,1553.648,1554.1475,1554.1477,1555.5851,1031.1,1555.5854,2,1556.5804,6,23,203,28,1,1.4,0.7,Time
,,S07,184189,001,Male,27,2025-05-21_03h48.45.882,Serial_Dependence_U,2023.2.3,Win32,60.24096386,67d7d3d51a5476f5196bab78,682cd3dfea4e15896da7c0a6,682d84aee36e76003a321413,,,,,,,,,,,,1556.5813,6,1556.5815,,,,1559.7301,1560.2328,1559.2134,1559.73,1557.597,159,1559.2134,1560.2328,1560.7294,1560.7296,1562.2992,1375.3,1562.2994,2,1563.2948,6,24,204,19,1,1.6,0.7,Time
,,S07,184189,001,Male,27,2025-05-21_03h48.45.882,Serial_Dependence_U,2023.2.3,Win32,60.24096386,67d7d3d51a5476f5196bab78,682cd3dfea4e15896da7c0a6,682d84aee36e76003a321413,,,,,,,,,,,,1563.2957,6,1563.2958,,,,1565.8447,1566.347,1565.3283,1565.8446,1564.3119,46,1565.3281,1566.3471,1566.844,1566.8441,1568.2301,957.5,1568.2303,3,1569.2261,6,25,205,6,1,1,0.7,Time
,,S07,184189,001,Male,27,2025-05-21_03h48.45.882,Serial_Dependence_U,2023.2.3,Win32,60.24096386,67d7d3d51a5476f5196bab78,682cd3dfea4e15896da7c0a6,682d84aee36e76003a321413,,,,,,,,,,,,1569.2271,6,1569.2273,,,,1571.7758,1572.2753,1571.2599,1571.7756,1570.2436,309,1571.2596,1572.2754,1572.7751,1572.7752,1574.2126,847.0999999,1574.2128,2,1575.2076,6,26,206,26,1,1,0.7,Time
,,S07,184189,001,Male,27,2025-05-21_03h48.45.882,Serial_Dependence_U,2023.2.3,Win32,60.24096386,67d7d3d51a5476f5196bab78,682cd3dfea4e15896da7c0a6,682d84aee36e76003a321413,,,,,,,,,,,,1575.2085,6,1575.209,,,,1577.5577,1578.0565,1577.0439,1577.5574,1576.2248,150,1577.0437,1578.0565,1578.5564,1578.5564,1580.0559,914.5,1580.0563,4,1581.056,6,27,207,10,1,0.8,0.3,Time
,,S07,184189,001,Male,27,2025-05-21_03h48.45.882,Serial_Dependence_U,2023.2.3,Win32,60.24096386,67d7d3d51a5476f5196bab78,682cd3dfea4e15896da7c0a6,682d84aee36e76003a321413,,,,,,,,,,,,1581.0568,6,1581.057,,,,1583.6059,1584.1045,1583.0894,1583.6057,1582.0735,324,1583.0892,1584.1045,1584.609,1584.6091,1585.6216,925.6999998,1585.6219,2,1586.6209,6,28,208,11,1,1,0.3,Time
,,S07,184189,001,Male,27,2025-05-21_03h48.45.882,Serial_Dependence_U,2023.2.3,Win32,60.24096386,67d7d3d51a5476f5196bab78,682cd3dfea4e15896da7c0a6,682d84aee36e76003a321413,,,,,,,,,,,,1586.6217,6,1586.6219,,,,1589.7706,1590.2695,1589.2543,1589.7706,1587.6379,66,1589.2541,1590.2695,1590.7734,1590.7734,1592.5736,1164.3,1592.5738,2,1593.5684,6,29,209,24,1,1.6,0.3,Time
,,S07,184189,001,Male,27,2025-05-21_03h48.45.882,Serial_Dependence_U,2023.2.3,Win32,60.24096386,67d7d3d51a5476f5196bab78,682cd3dfea4e15896da7c0a6,682d84aee36e76003a321413,,,,,,,,,,,,1593.5692,7,1595.485,s,1.8917,,1598.4347,1598.9375,1597.9177,1598.4345,1596.5018,349,1597.9175,1598.9375,1599.4339,1599.434,1601.3378,1166.3,1601.338,2,1602.3324,7,0,210,3,1,1.4,0.3,Time
,,S07,184189,001,Male,27,2025-05-21_03h48.45.882,Serial_Dependence_U,2023.2.3,Win32,60.24096386,67d7d3d51a5476f5196bab78,682cd3dfea4e15896da7c0a6,682d84aee36e76003a321413,,,,,,,,,,,,1602.3333,7,1602.335,,,,1605.2817,1605.781,1604.7656,1605.2816,1603.354,129,1604.7653,1605.781,1606.2842,1606.2843,1607.8146,1151.4,1607.8151,2,1608.8175,7,1,211,8,1,1.4,0.7,Time
,,S07,184189,001,Male,27,2025-05-21_03h48.45.882,Serial_Dependence_U,2023.2.3,Win32,60.24096386,67d7d3d51a5476f5196bab78,682cd3dfea4e15896da7c0a6,682d84aee36e76003a321413,,,,,,,,,,,,1608.8179,7,1608.8181,,,,1611.1641,1611.6632,1610.6474,1611.1639,1609.8309,313,1610.6471,1611.6633,1612.1627,1612.1628,1613.6827,1094,1613.683,5,1614.6815,7,2,212,10,1,0.8,0.3,Time
,,S07,184189,001,Male,27,2025-05-21_03h48.45.882,Serial_Dependence_U,2023.2.3,Win32,60.24096386,67d7d3d51a5476f5196bab78,682cd3dfea4e15896da7c0a6,682d84aee36e76003a321413,,,,,,,,,,,,1614.6821,7,1614.6822,,,,1617.8286,1618.3276,1617.3121,1617.8284,1615.6959,358,1617.3119,1618.3277,1618.8274,1618.8275,1621.1269,1715.2,1621.1274,4,1622.1267,7,3,213,9,1,1.6,0.7,Time
,,S07,184189,001,Male,27,2025-05-21_03h48.45.882,Serial_Dependence_U,2023.2.3,Win32,60.24096386,67d7d3d51a5476f5196bab78,682cd3dfea4e15896da7c0a6,682d84aee36e76003a321413,,,,,,,,,,,,1622.1276,7,1622.1279,,,,1624.8799,1625.3752,1624.3599,1624.8798,1623.1437,225,1624.3597,1625.3752,1625.875,1625.875,1627.342,588,1627.3423,1,1628.3413,7,4,214,22,1,1.2,0.3,Time
,,S07,184189,001,Male,27,2025-05-21_03h48.45.882,Serial_Dependence_U,2023.2.3,Win32,60.24096386,67d7d3d51a5476f5196bab78,682cd3dfea4e15896da7c0a6,682d84aee36e76003a321413,,,,,,,,,,,,1628.3422,7,1628.3424,,,,1630.8909,1631.3942,1630.3747,1630.8907,1629.3583,266,1630.3746,1631.3942,1631.8901,1631.8902,1633.7063,1109.3,1633.7067,4,1634.7089,7,5,215,16,1,1,0.7,Time
,,S07,184189,001,Male,27,2025-05-21_03h48.45.882,Serial_Dependence_U,2023.2.3,Win32,60.24096386,67d7d3d51a5476f5196bab78,682cd3dfea4e15896da7c0a6,682d84aee36e76003a321413,,,,,,,,,,,,1634.7093,7,1634.7096,,,,1637.6561,1638.155,1637.1388,1637.6559,1635.7231,99,1637.1385,1638.1551,1638.6545,1638.6546,1640.6379,1260.2,1640.6382,2,1641.637,7,6,216,28,1,1.4,0.7,Time
,,S07,184189,001,Male,27,2025-05-21_03h48.45.882,Serial_Dependence_U,2023.2.3,Win32,60.24096386,67d7d3d51a5476f5196bab78,682cd3dfea4e15896da7c0a6,682d84aee36e76003a321413,,,,,,,,,,,,1641.6379,7,1641.6381,,,,1644.5703,1645.0695,1644.0535,1644.5702,1642.6379,221,1644.0535,1645.0696,1645.5687,1645.5688,1647.623,1256.7,1647.6233,2,1648.6178,7,7,217,23,1,1.4,0.3,Time
,,S07,184189,001,Male,27,2025-05-21_03h48.45.882,Serial_Dependence_U,2023.2.3,Win32,60.24096386,67d7d3d51a5476f5196bab78,682cd3dfea4e15896da7c0a6,682d84aee36e76003a321413,,,,,,,,,,,,1648.6188,7,1648.6189,,,,1651.1682,1651.6674,1650.6517,1651.1681,1649.6351,29,1650.6516,1651.6675,1652.1669,1652.167,1654.0885,1190.1,1654.0889,4,1655.083,7,8,218,26,1,1,0.7,Time
,,S07,184189,001,Male,27,2025-05-21_03h48.45.882,Serial_Dependence_U,2023.2.3,Win32,60.24096386,67d7d3d51a5476f5196bab78,682cd3dfea4e15896da7c0a6,682d84aee36e76003a321413,,,,,,,,,,,,1655.0837,7,1655.0839,,,,1657.8324,1658.3319,1657.3159,1657.8321,1656.0999,191,1657.3156,1658.332,1658.8316,1658.8318,1660.6809,1217.9,1660.6813,3,1661.6809,7,9,219,7,1,1.2,0.7,Time
,,S07,184189,001,Male,27,2025-05-21_03h48.45.882,Serial_Dependence_U,2023.2.3,Win32,60.24096386,67d7d3d51a5476f5196bab78,682cd3dfea4e15896da7c0a6,682d84aee36e76003a321413,,,,,,,,,,,,1661.6818,7,1661.6822,,,,1664.8305,1665.3299,1664.3141,1664.8302,1662.6976,219,1664.3139,1665.33,1665.8292,1665.8293,1667.4488,1145.6,1667.449,2,1668.445,7,10,220,24,1,1.6,0.3,Time
,,S07,184189,001,Male,27,2025-05-21_03h48.45.882,Serial_Dependence_U,2023.2.3,Win32,60.24096386,67d7d3d51a5476f5196bab78,682cd3dfea4e15896da7c0a6,682d84aee36e76003a321413,,,,,,,,,,,,1668.4458,7,1668.446,,,,1671.595,1672.0942,1671.0788,1671.5949,1669.4669,321,1671.0786,1672.0943,1672.5942,1672.5943,1674.7136,1413,1674.7137,2,1675.7095,7,11,221,4,1,1.6,0.3,Time
,,S07,184189,001,Male,27,2025-05-21_03h48.45.882,Serial_Dependence_U,2023.2.3,Win32,60.24096386,67d7d3d51a5476f5196bab78,682cd3dfea4e15896da7c0a6,682d84aee36e76003a321413,,,,,,,,,,,,1675.7106,7,1675.7111,,,,1678.0598,1678.5621,1677.5433,1678.0596,1676.7305,348,1677.5431,1678.5622,1679.0586,1679.0587,1680.6129,913.6999998,1680.613,4,1681.6077,7,12,222,20,1,0.8,0.3,Time
,,S07,184189,001,Male,27,2025-05-21_03h48.45.882,Serial_Dependence_U,2023.2.3,Win32,60.24096386,67d7d3d51a5476f5196bab78,682cd3dfea4e15896da7c0a6,682d84aee36e76003a321413,,,,,,,,,,,,1681.6086,7,1681.6089,,,,1684.1414,1684.6405,1683.6282,1684.1413,1682.625,1,1683.6282,1684.6406,1685.1403,1685.1405,1687.2942,1471.9,1687.2943,5,1688.2891,7,13,223,6,1,1,0.7,Time
,,S07,184189,001,Male,27,2025-05-21_03h48.45.882,Serial_Dependence_U,2023.2.3,Win32,60.24096386,67d7d3d51a5476f5196bab78,682cd3dfea4e15896da7c0a6,682d84aee36e76003a321413,,,,,,,,,,,,1688.2899,7,1688.2901,,,,1690.8392,1691.3382,1690.3226,1690.839,1689.3063,302,1690.3225,1691.3383,1691.8385,1691.8387,1693.2214,732.1000004,1693.2217,2,1694.2204,7,14,224,11,1,1,0.3,Time
,,S07,184189,001,Male,27,2025-05-21_03h48.45.882,Serial_Dependence_U,2023.2.3,Win32,60.24096386,67d7d3d51a5476f5196bab78,682cd3dfea4e15896da7c0a6,682d84aee36e76003a321413,,,,,,,,,,,,1694.2215,7,1694.2217,,,,1697.3539,1697.853,1696.8406,1697.3537,1695.2378,212,1696.8406,1697.8531,1698.3526,1698.3526,1700.7049,1582.5,1700.7052,3,1701.7018,7,15,225,19,1,1.6,0.7,Time
,,S07,184189,001,Male,27,2025-05-21_03h48.45.882,Serial_Dependence_U,2023.2.3,Win32,60.24096386,67d7d3d51a5476f5196bab78,682cd3dfea4e15896da7c0a6,682d84aee36e76003a321413,,,,,,,,,,,,1701.7027,7,1701.7028,,,,1704.2517,1704.7507,1703.7353,1704.2514,1702.7187,219,1703.7352,1704.7507,1705.2504,1705.2505,1707.2381,1339.1,1707.2383,5,1708.2332,7,16,226,21,1,1,0.3,Time
,,S07,184189,001,Male,27,2025-05-21_03h48.45.882,Serial_Dependence_U,2023.2.3,Win32,60.24096386,67d7d3d51a5476f5196bab78,682cd3dfea4e15896da7c0a6,682d84aee36e76003a321413,,,,,,,,,,,,1708.234,7,1708.2342,,,,1710.9826,1711.4815,1710.4663,1710.9824,1709.2541,259,1710.4662,1711.4816,1711.9817,1711.9819,1713.8983,1143.1,1713.8986,3,1714.9008,7,17,227,2,1,1.2,0.3,Time
,,S07,184189,001,Male,27,2025-05-21_03h48.45.882,Serial_Dependence_U,2023.2.3,Win32,60.24096386,67d7d3d51a5476f5196bab78,682cd3dfea4e15896da7c0a6,682d84aee36e76003a321413,,,,,,,,,,,,1714.9014,7,1714.9014,,,,1717.6474,1718.1461,1717.1304,1717.6472,1715.9142,141,1717.1302,1718.1461,1718.6507,1718.6508,1720.7005,1231.1,1720.7007,3,1721.6952,7,18,228,27,1,1.2,0.7,Time
,,S07,184189,001,Male,27,2025-05-21_03h48.45.882,Serial_Dependence_U,2023.2.3,Win32,60.24096386,67d7d3d51a5476f5196bab78,682cd3dfea4e15896da7c0a6,682d84aee36e76003a321413,,,,,,,,,,,,1721.6961,7,1721.6964,,,,1724.4286,1724.9279,1723.9125,1724.4284,1722.6962,8,1723.9123,1724.9279,1725.4312,1725.4313,1727.5606,1394.4,1727.561,4,1728.5601,7,19,229,17,1,1.2,0.7,Time
,,S07,184189,001,Male,27,2025-05-21_03h48.45.882,Serial_Dependence_U,2023.2.3,Win32,60.24096386,67d7d3d51a5476f5196bab78,682cd3dfea4e15896da7c0a6,682d84aee36e76003a321413,,,,,,,,,,,,1728.5609,7,1728.5611,,,,1731.7097,1732.2087,1731.193,1731.7095,1729.577,123,1731.1927,1732.2088,1732.7086,1732.7087,1734.7253,1599.2,1734.7256,3,1735.7245,7,20,230,29,1,1.6,0.7,Time
,,S07,184189,001,Male,27,2025-05-21_03h48.45.882,Serial_Dependence_U,2023.2.3,Win32,60.24096386,67d7d3d51a5476f5196bab78,682cd3dfea4e15896da7c0a6,682d84aee36e76003a321413,,,,,,,,,,,,1735.7257,7,1735.7258,,,,1738.6764,1739.1728,1738.1576,1738.6763,1736.7414,336,1738.1575,1739.1728,1739.6731,1739.6732,1741.7274,1404.1,1741.7276,3,1742.7221,7,21,231,13,1,1.4,0.3,Time
,,S07,184189,001,Male,27,2025-05-21_03h48.45.882,Serial_Dependence_U,2023.2.3,Win32,60.24096386,67d7d3d51a5476f5196bab78,682cd3dfea4e15896da7c0a6,682d84aee36e76003a321413,,,,,,,,,,,,1742.723,7,1742.7232,,,,1745.072,1745.5758,1744.5556,1745.0718,1743.7392,193,1744.5555,1745.5758,1746.0712,1746.0713,1747.2255,746.1999998,1747.2257,2,1748.2206,7,22,232,25,1,0.8,0.7,Time
,,S07,184189,001,Male,27,2025-05-21_03h48.45.882,Serial_Dependence_U,2023.2.3,Win32,60.24096386,67d7d3d51a5476f5196bab78,682cd3dfea4e15896da7c0a6,682d84aee36e76003a321413,,,,,,,,,,,,1748.2214,7,1748.2215,,,,1751.3706,1751.8689,1750.8532,1751.3704,1749.2377,42,1750.8531,1751.8689,1752.3688,1752.3688,1753.9858,1199,1753.9862,2,1754.985,7,23,233,14,1,1.6,0.3,Time
,,S07,184189,001,Male,27,2025-05-21_03h48.45.882,Serial_Dependence_U,2023.2.3,Win32,60.24096386,67d7d3d51a5476f5196bab78,682cd3dfea4e15896da7c0a6,682d84aee36e76003a321413,,,,,,,,,,,,1754.9858,7,1754.9859,,,,1757.5349,1758.0337,1757.0187,1757.5347,1756.0021,110,1757.0185,1758.0337,1758.5344,1758.5345,1760.437,1297.2,1760.4372,4,1761.4326,7,24,234,1,1,1,0.3,Time
,,S07,184189,001,Male,27,2025-05-21_03h48.45.882,Serial_Dependence_U,2023.2.3,Win32,60.24096386,67d7d3d51a5476f5196bab78,682cd3dfea4e15896da7c0a6,682d84aee36e76003a321413,,,,,,,,,,,,1761.4336,7,1761.4343,,,,1763.7829,1764.2821,1763.2665,1763.7827,1762.4503,169,1763.2663,1764.2822,1764.782,1764.7821,1766.1322,936.0999999,1766.1325,4,1767.1309,7,25,235,5,1,0.8,0.7,Time
,,S07,184189,001,Male,27,2025-05-21_03h48.45.882,Serial_Dependence_U,2023.2.3,Win32,60.24096386,67d7d3d51a5476f5196bab78,682cd3dfea4e15896da7c0a6,682d84aee36e76003a321413,,,,,,,,,,,,1767.1318,7,1767.132,,,,1769.8811,1770.3797,1769.3683,1769.8809,1768.1479,316,1769.3682,1770.3797,1770.8795,1770.8796,1772.6844,1254.2,1772.6846,3,1773.6795,7,26,236,12,1,1.2,0.3,Time
,,S07,184189,001,Male,27,2025-05-21_03h48.45.882,Serial_Dependence_U,2023.2.3,Win32,60.24096386,67d7d3d51a5476f5196bab78,682cd3dfea4e15896da7c0a6,682d84aee36e76003a321413,,,,,,,,,,,,1773.6803,7,1773.6805,,,,1776.0291,1776.528,1775.5127,1776.029,1774.7,33,1775.5126,1776.5281,1777.028,1777.028,1778.1115,671.4000001,1778.1119,2,1779.1108,7,27,237,0,1,0.8,0.3,Time
,,S07,184189,001,Male,27,2025-05-21_03h48.45.882,Serial_Dependence_U,2023.2.3,Win32,60.24096386,67d7d3d51a5476f5196bab78,682cd3dfea4e15896da7c0a6,682d84aee36e76003a321413,,,,,,,,,,,,1779.1119,7,1779.1121,,,,1782.0312,1782.5264,1781.5143,1782.0311,1780.1134,153,1781.5142,1782.5265,1783.0262,1783.0262,1785.1467,1586.9,1785.147,4,1786.1452,7,28,238,18,1,1.4,0.7,Time
,,S07,184189,001,Male,27,2025-05-21_03h48.45.882,Serial_Dependence_U,2023.2.3,Win32,60.24096386,67d7d3d51a5476f5196bab78,682cd3dfea4e15896da7c0a6,682d84aee36e76003a321413,,,,,,,,,,,,1786.1457,7,1786.1459,,,,1788.4778,1788.9742,1787.9759,1788.4777,1787.1594,267,1787.9756,1788.9744,1789.4738,1789.4739,1790.5408,566.5999999,1790.5413,2,1791.5404,7,29,239,15,1,0.8,0.7,Time
,,S07,184189,001,Male,27,2025-05-21_03h48.45.882,Serial_Dependence_U,2023.2.3,Win32,60.24096386,67d7d3d51a5476f5196bab78,682cd3dfea4e15896da7c0a6,682d84aee36e76003a321413,,,,,,,,,,,,1791.5411,8,1793.6398,s,2.0763,,1795.9896,1796.4889,1795.4727,1795.9895,1794.6568,123,1795.4725,1796.4889,1796.9889,1796.989,1798.6105,925.6999998,1798.6106,4,1799.6043,8,0,240,15,1,0.8,0.7,Time
,,S07,184189,001,Male,27,2025-05-21_03h48.45.882,Serial_Dependence_U,2023.2.3,Win32,60.24096386,67d7d3d51a5476f5196bab78,682cd3dfea4e15896da7c0a6,682d84aee36e76003a321413,,,,,,,,,,,,1799.6052,8,1799.6067,,,,1802.1374,1802.6365,1801.6209,1802.1372,1800.6086,172,1801.6206,1802.6366,1803.1365,1803.1366,1804.8576,1092.7,1804.8578,4,1805.8524,8,1,241,11,1,1,0.3,Time
,,S07,184189,001,Male,27,2025-05-21_03h48.45.882,Serial_Dependence_U,2023.2.3,Win32,60.24096386,67d7d3d51a5476f5196bab78,682cd3dfea4e15896da7c0a6,682d84aee36e76003a321413,,,,,,,,,,,,1805.8534,8,1805.8535,,,,1808.4023,1808.9019,1807.8861,1808.4021,1806.869,73,1807.8859,1808.902,1809.4015,1809.4016,1810.9373,954.9000001,1810.9376,3,1811.9338,8,2,242,6,1,1,0.7,Time
,,S07,184189,001,Male,27,2025-05-21_03h48.45.882,Serial_Dependence_U,2023.2.3,Win32,60.24096386,67d7d3d51a5476f5196bab78,682cd3dfea4e15896da7c0a6,682d84aee36e76003a321413,,,,,,,,,,,,1811.9347,8,1811.9349,,,,1814.2842,1814.7836,1813.7673,1814.2841,1812.9509,305,1813.7672,1814.7837,1815.2824,1815.2825,1816.6322,783.2999997,1816.6327,3,1817.6322,8,3,243,0,1,0.8,0.3,Time
,,S07,184189,001,Male,27,2025-05-21_03h48.45.882,Serial_Dependence_U,2023.2.3,Win32,60.24096386,67d7d3d51a5476f5196bab78,682cd3dfea4e15896da7c0a6,682d84aee36e76003a321413,,,,,,,,,,,,1817.6331,8,1817.6335,,,,1820.3819,1820.8813,1819.8659,1820.3817,1818.6492,284,1819.8658,1820.8814,1821.3812,1821.3813,1823.38,1291.2,1823.3804,4,1824.3799,8,4,244,17,1,1.2,0.7,Time
,,S07,184189,001,Male,27,2025-05-21_03h48.45.882,Serial_Dependence_U,2023.2.3,Win32,60.24096386,67d7d3d51a5476f5196bab78,682cd3dfea4e15896da7c0a6,682d84aee36e76003a321413,,,,,,,,,,,,1824.3809,8,1824.3811,,,,1827.3166,1827.8129,1826.8129,1827.3165,1825.397,120,1826.8126,1827.8129,1828.3122,1828.3123,1830.2977,1328.5,1830.2979,2,1831.2947,8,5,245,8,1,1.4,0.7,Time
,,S07,184189,001,Male,27,2025-05-21_03h48.45.882,Serial_Dependence_U,2023.2.3,Win32,60.24096386,67d7d3d51a5476f5196bab78,682cd3dfea4e15896da7c0a6,682d84aee36e76003a321413,,,,,,,,,,,,1831.2956,8,1831.2958,,,,1833.8483,1834.3435,1833.3283,1833.848,1832.3149,313,1833.3281,1834.3436,1834.8476,1834.8477,1836.3767,919.1000004,1836.3771,2,1837.3762,8,6,246,21,1,1,0.3,Time
,,S07,184189,001,Male,27,2025-05-21_03h48.45.882,Serial_Dependence_U,2023.2.3,Win32,60.24096386,67d7d3d51a5476f5196bab78,682cd3dfea4e15896da7c0a6,682d84aee36e76003a321413,,,,,,,,,,,,1837.377,8,1837.3773,,,,1840.1169,1840.6085,1839.6092,1840.1168,1838.3929,264,1839.6091,1840.6085,1841.1081,1841.1082,1842.9618,1275.6,1842.9619,4,1843.9571,8,7,247,22,1,1.2,0.3,Time
,,S07,184189,001,Male,27,2025-05-21_03h48.45.882,Serial_Dependence_U,2023.2.3,Win32,60.24096386,67d7d3d51a5476f5196bab78,682cd3dfea4e15896da7c0a6,682d84aee36e76003a321413,,,,,,,,,,,,1843.9581,8,1843.9582,,,,1846.7071,1847.2064,1846.1907,1846.7069,1844.9743,326,1846.1906,1847.2065,1847.7062,1847.7063,1849.5555,1332.6,1849.5559,4,1850.5552,8,8,248,7,1,1.2,0.7,Time
,,S07,184189,001,Male,27,2025-05-21_03h48.45.882,Serial_Dependence_U,2023.2.3,Win32,60.24096386,67d7d3d51a5476f5196bab78,682cd3dfea4e15896da7c0a6,682d84aee36e76003a321413,,,,,,,,,,,,1850.5561,8,1850.5563,,,,1853.7047,1854.204,1853.1885,1853.7046,1851.5724,233,1853.1884,1854.2042,1854.7038,1854.7039,1856.6248,1463.7,1856.625,2,1857.623,8,9,249,9,1,1.6,0.7,Time
,,S07,184189,001,Male,27,2025-05-21_03h48.45.882,Serial_Dependence_U,2023.2.3,Win32,60.24096386,67d7d3d51a5476f5196bab78,682cd3dfea4e15896da7c0a6,682d84aee36e76003a321413,,,,,,,,,,,,1857.6236,8,1857.6236,,,,1860.7693,1861.2722,1860.2526,1860.7693,1858.6367,68,1860.2523,1861.2722,1861.7684,1861.7684,1863.8848,1616.8,1863.8852,3,1864.8878,8,10,250,4,1,1.6,0.3,Time
,,S07,184189,001,Male,27,2025-05-21_03h48.45.882,Serial_Dependence_U,2023.2.3,Win32,60.24096386,67d7d3d51a5476f5196bab78,682cd3dfea4e15896da7c0a6,682d84aee36e76003a321413,,,,,,,,,,,,1864.8883,8,1864.8884,,,,1867.8334,1868.333,1867.3173,1867.8332,1865.9012,150,1867.3171,1868.3331,1868.8362,1868.8363,1870.8326,1519.4,1870.833,4,1871.8322,8,11,251,3,1,1.4,0.3,Time
,,S07,184189,001,Male,27,2025-05-21_03h48.45.882,Serial_Dependence_U,2023.2.3,Win32,60.24096386,67d7d3d51a5476f5196bab78,682cd3dfea4e15896da7c0a6,682d84aee36e76003a321413,,,,,,,,,,,,1871.833,8,1871.8332,,,,1874.1656,1874.6642,1873.6484,1874.1655,1872.8362,197,1873.6481,1874.6642,1875.1675,1875.1675,1876.4641,718.9000001,1876.4644,2,1877.4636,8,12,252,5,1,0.8,0.7,Time
,,S07,184189,001,Male,27,2025-05-21_03h48.45.882,Serial_Dependence_U,2023.2.3,Win32,60.24096386,67d7d3d51a5476f5196bab78,682cd3dfea4e15896da7c0a6,682d84aee36e76003a321413,,,,,,,,,,,,1877.4646,8,1877.4647,,,,1879.7837,1880.2792,1879.2802,1879.7836,1878.4658,237,1879.2802,1880.2793,1880.7791,1880.7793,1882.212,815.6999998,1882.2125,3,1883.2116,8,13,253,20,1,0.8,0.3,Time
,,S07,184189,001,Male,27,2025-05-21_03h48.45.882,Serial_Dependence_U,2023.2.3,Win32,60.24096386,67d7d3d51a5476f5196bab78,682cd3dfea4e15896da7c0a6,682d84aee36e76003a321413,,,,,,,,,,,,1883.2124,8,1883.2126,,,,1886.1617,1886.6605,1885.6451,1886.1616,1884.2286,124,1885.6449,1886.6605,1887.1485,1887.1485,1888.7265,1070.1,1888.7269,2,1889.726,8,14,254,23,1,1.4,0.3,Time
,,S07,184189,001,Male,27,2025-05-21_03h48.45.882,Serial_Dependence_U,2023.2.3,Win32,60.24096386,67d7d3d51a5476f5196bab78,682cd3dfea4e15896da7c0a6,682d84aee36e76003a321413,,,,,,,,,,,,1889.7271,8,1889.7272,,,,1892.276,1892.7756,1891.7597,1892.276,1890.7444,264,1891.7595,1892.7757,1893.2751,1893.2752,1895.1625,1241.4,1895.1626,4,1896.1575,8,15,255,16,1,1,0.7,Time
,,S07,184189,001,Male,27,2025-05-21_03h48.45.882,Serial_Dependence_U,2023.2.3,Win32,60.24096386,67d7d3d51a5476f5196bab78,682cd3dfea4e15896da7c0a6,682d84aee36e76003a321413,,,,,,,,,,,,1896.1584,8,1896.1586,,,,1899.1075,1899.6065,1898.5907,1899.1074,1897.1746,213,1898.5904,1899.6065,1900.11,1900.1101,1902.2095,1458.1,1902.2097,3,1903.205,8,16,256,13,1,1.4,0.3,Time
,,S07,184189,001,Male,27,2025-05-21_03h48.45.882,Serial_Dependence_U,2023.2.3,Win32,60.24096386,67d7d3d51a5476f5196bab78,682cd3dfea4e15896da7c0a6,682d84aee36e76003a321413,,,,,,,,,,,,1903.2056,8,1903.2058,,,,1906.3581,1906.854,1905.8389,1906.3581,1904.2219,244,1905.8386,1906.854,1907.354,1907.3541,1909.7082,1864.6,1909.7084,4,1910.7074,8,17,257,24,1,1.6,0.3,Time
,,S07,184189,001,Male,27,2025-05-21_03h48.45.882,Serial_Dependence_U,2023.2.3,Win32,60.24096386,67d7d3d51a5476f5196bab78,682cd3dfea4e15896da7c0a6,682d84aee36e76003a321413,,,,,,,,,,,,1910.7079,8,1910.7081,,,,1913.8527,1914.352,1913.3364,1913.8527,1911.7204,88,1913.3363,1914.3522,1914.8516,1914.8518,1916.8725,1424.8,1916.8728,2,1917.8675,8,18,258,29,1,1.6,0.7,Time
,,S07,184189,001,Male,27,2025-05-21_03h48.45.882,Serial_Dependence_U,2023.2.3,Win32,60.24096386,67d7d3d51a5476f5196bab78,682cd3dfea4e15896da7c0a6,682d84aee36e76003a321413,,,,,,,,,,,,1917.8684,8,1917.8687,,,,1920.8174,1921.3164,1920.3013,1920.8172,1918.8845,339,1920.3009,1921.3165,1921.8162,1921.8162,1923.9868,1216.2,1923.987,2,1924.9816,8,19,259,28,1,1.4,0.7,Time
,,S07,184189,001,Male,27,2025-05-21_03h48.45.882,Serial_Dependence_U,2023.2.3,Win32,60.24096386,67d7d3d51a5476f5196bab78,682cd3dfea4e15896da7c0a6,682d84aee36e76003a321413,,,,,,,,,,,,1924.9824,8,1924.9827,,,,1927.7318,1928.2309,1927.2155,1927.7317,1925.999,248,1927.2154,1928.231,1928.7307,1928.7308,1930.6966,1308.5,1930.6969,4,1931.6965,8,20,260,27,1,1.2,0.7,Time
,,S07,184189,001,Male,27,2025-05-21_03h48.45.882,Serial_Dependence_U,2023.2.3,Win32,60.24096386,67d7d3d51a5476f5196bab78,682cd3dfea4e15896da7c0a6,682d84aee36e76003a321413,,,,,,,,,,,,1931.6975,8,1931.6978,,,,1934.4297,1934.9288,1933.9136,1934.4295,1932.6995,175,1933.9135,1934.929,1935.4166,1935.4166,1937.0785,1184.5,1937.0788,3,1938.0778,8,21,261,12,1,1.2,0.3,Time
,,S07,184189,001,Male,27,2025-05-21_03h48.45.882,Serial_Dependence_U,2023.2.3,Win32,60.24096386,67d7d3d51a5476f5196bab78,682cd3dfea4e15896da7c0a6,682d84aee36e76003a321413,,,,,,,,,,,,1938.0786,8,1938.0787,,,,1941.0275,1941.5265,1940.5113,1941.0272,1939.0949,229,1940.5112,1941.5265,1942.0268,1942.0269,1943.764,1320.5,1943.7642,2,1944.763,8,22,262,18,1,1.4,0.7,Time
,,S07,184189,001,Male,27,2025-05-21_03h48.45.882,Serial_Dependence_U,2023.2.3,Win32,60.24096386,67d7d3d51a5476f5196bab78,682cd3dfea4e15896da7c0a6,682d84aee36e76003a321413,,,,,,,,,,,,1944.7636,8,1944.7637,,,,1947.1092,1947.6083,1946.5926,1947.1091,1945.7762,84,1946.5924,1947.6084,1948.1082,1948.1083,1949.1078,528.4000001,1949.1083,1,1950.1075,8,23,263,10,1,0.8,0.3,Time
,,S07,184189,001,Male,27,2025-05-21_03h48.45.882,Serial_Dependence_U,2023.2.3,Win32,60.24096386,67d7d3d51a5476f5196bab78,682cd3dfea4e15896da7c0a6,682d84aee36e76003a321413,,,,,,,,,,,,1950.1083,8,1950.1086,,,,1952.4577,1952.9568,1951.941,1952.4576,1951.1243,228,1951.9408,1952.9569,1953.4561,1953.4561,1955.1938,1197.4,1955.194,5,1956.189,8,24,264,25,1,0.8,0.7,Time
,,S07,184189,001,Male,27,2025-05-21_03h48.45.882,Serial_Dependence_U,2023.2.3,Win32,60.24096386,67d7d3d51a5476f5196bab78,682cd3dfea4e15896da7c0a6,682d84aee36e76003a321413,,,,,,,,,,,,1956.1903,8,1956.1906,,,,1959.3385,1959.8376,1958.8223,1959.3383,1957.2059,255,1958.8222,1959.8376,1960.3371,1960.3372,1962.2705,1414.8,1962.2711,2,1963.2695,8,25,265,14,1,1.6,0.3,Time
,,S07,184189,001,Male,27,2025-05-21_03h48.45.882,Serial_Dependence_U,2023.2.3,Win32,60.24096386,67d7d3d51a5476f5196bab78,682cd3dfea4e15896da7c0a6,682d84aee36e76003a321413,,,,,,,,,,,,1963.2699,8,1963.2701,,,,1966.0199,1966.5191,1965.503,1966.0198,1964.2871,203,1965.5028,1966.5192,1967.0195,1967.0196,1968.9395,1313.8,1968.9397,4,1969.9348,8,26,266,2,1,1.2,0.3,Time
,,S07,184189,001,Male,27,2025-05-21_03h48.45.882,Serial_Dependence_U,2023.2.3,Win32,60.24096386,67d7d3d51a5476f5196bab78,682cd3dfea4e15896da7c0a6,682d84aee36e76003a321413,,,,,,,,,,,,1969.9357,8,1969.9359,,,,1972.4675,1972.9668,1971.9515,1972.4674,1970.9388,73,1971.9513,1972.967,1973.4668,1973.4669,1975.4335,1250.8,1975.4338,4,1976.4331,8,27,267,1,1,1,0.3,Time
,,S07,184189,001,Male,27,2025-05-21_03h48.45.882,Serial_Dependence_U,2023.2.3,Win32,60.24096386,67d7d3d51a5476f5196bab78,682cd3dfea4e15896da7c0a6,682d84aee36e76003a321413,,,,,,,,,,,,1976.4338,8,1976.4341,,,,1979.5823,1980.0814,1979.0659,1979.5821,1977.4497,323,1979.0657,1980.0814,1980.5816,1980.5818,1982.8021,1662.6,1982.8023,3,1983.7972,8,28,268,19,1,1.6,0.7,Time
,,S07,184189,001,Male,27,2025-05-21_03h48.45.882,Serial_Dependence_U,2023.2.3,Win32,60.24096386,67d7d3d51a5476f5196bab78,682cd3dfea4e15896da7c0a6,682d84aee36e76003a321413,,,,,,,,,,,,1983.7979,8,1983.7981,,,,1986.3466,1986.8459,1985.8305,1986.3463,1984.814,148,1985.8302,1986.8459,1987.3459,1987.346,1988.7959,875.9000001,1988.7963,2,1989.7951,8,29,269,26,1,1,0.7,Time
