Scale_setup.started,Scale_setup.stopped,participant,session,sex,age,date,expName,psychopyVersion,OS,frameRate,Intro.started,Intro.stopped,key_resp_2.keys,key_resp_2.rt,key_resp_2.duration,block.started,direction,Block_id,block.stopped,trial_direction,Block_resp_2.keys,Block_resp_2.rt,Block_resp_2.duration,ITI.started,ITI.stopped,Mask_2.started,Mask_2.stopped,encoding.started,encoding.stopped,Cue.started,Cue.stopped,Response.started,Response.stopped,keyDuration,Feedback_Time.started,FeedbackID_T,Feedback_Time.stopped,trials.thisRepN,trials.thisTrialN,trials.thisN,trials.thisIndex,trials.ran,TimeDur,Coherence1,TrialType
0.0006000001430521,0.0009000000953562,S08,1,女,21,anonymized,Serial_Dependence_U,2023.2.3,Win32,59.88023952096852,,,,,,,,,,,,,,,,,,,,,,,,,,,,,,,,,,,
,,S08,1,女,21,anonymized,Serial_Dependence_U,2023.2.3,Win32,59.88023952096852,190.28710000014303,587.9599000000953,space,397.64570000004767,,,,,,,,,,,,,,,,,,,,,,,,,,,,,,,
,,S08,1,女,21,anonymized,Serial_Dependence_U,2023.2.3,Win32,59.88023952096852,,,,,,587.9784000000953,139.0,0.0,592.8577000000477,139.0,s,4.854400000095325,,596.4245,596.9239000000954,595.908100000143,596.4243000001908,593.875100000143,595.908,596.9241000001431,597.4239000000954,597.4241000001431,624.7409000000954,432.0,624.7411000001431,1.0,625.7402000000477,0.0,0.0,0.0,26.0,1.0,1.0,0.7,Time
,,S08,1,女,21,anonymized,Serial_Dependence_U,2023.2.3,Win32,59.88023952096852,,,,,,625.7408000001907,253.0,0.0,625.7438000001907,253.0,,,,629.324600000143,629.8231000001431,628.8074000000954,629.3244000000954,626.7409000000954,628.8073000001907,629.8231000001431,630.3234000000954,630.3234000000954,632.924,1132.0,632.9242000000477,4.0,633.923100000143,0.0,1.0,1.0,11.0,1.0,1.0,0.3,Time
,,S08,1,女,21,anonymized,Serial_Dependence_U,2023.2.3,Win32,59.88023952096852,,,,,,633.9235,233.0,0.0,633.9237000000477,233.0,,,,637.273600000143,637.7732000000477,636.7569000000954,637.2735,634.9241000001431,636.7569000000954,637.7732000000477,638.2733000001907,638.2734000000953,642.4398000001908,2581.0,642.4399000000953,5.0,643.4395,0.0,2.0,2.0,5.0,1.0,0.8,0.7,Time
,,S08,1,女,21,anonymized,Serial_Dependence_U,2023.2.3,Win32,59.88023952096852,,,,,,643.4398000001908,270.0,0.0,643.4399000000953,270.0,,,,647.023100000143,647.523,646.5067000000477,647.023100000143,644.4402000000476,646.5067000000477,647.523,648.0227000000477,648.0228000001907,651.4063000001908,2866.0,651.4065,5.0,652.406100000143,0.0,3.0,3.0,1.0,1.0,1.0,0.3,Time
,,S08,1,女,21,anonymized,Serial_Dependence_U,2023.2.3,Win32,59.88023952096852,,,,,,652.4065,218.0,0.0,652.4065,218.0,,,,656.3897000000477,656.8892000000477,655.8733000001907,656.3897000000477,653.4065,655.8733000001907,656.8892000000477,657.3892000000477,657.3893000001907,657.839600000143,33.0,657.8397000000476,1.0,658.839100000143,0.0,4.0,4.0,3.0,1.0,1.4,0.3,Time
,,S08,1,女,21,anonymized,Serial_Dependence_U,2023.2.3,Win32,59.88023952096852,,,,,,658.8394000000953,10.0,0.0,658.8395,10.0,,,,662.7733000001907,663.2725,662.2729000000953,662.7733000001907,659.8399000000953,662.2729000000953,663.272600000143,663.7727000000477,663.7728000001907,667.6898000001908,3251.0,667.6899000000953,5.0,668.6894000000954,0.0,5.0,5.0,18.0,1.0,1.4,0.7,Time
,,S08,1,女,21,anonymized,Serial_Dependence_U,2023.2.3,Win32,59.88023952096852,,,,,,668.6896000001431,93.0,0.0,668.6898000001908,93.0,,,,672.6729000000954,673.1725,672.1562000000476,672.6729000000954,669.6895,672.1562000000476,673.172600000143,673.6727000000477,673.6727000000477,678.389600000143,4093.0,678.3897000000477,5.0,679.3889000000954,0.0,6.0,6.0,13.0,1.0,1.4,0.3,Time
,,S08,1,女,21,anonymized,Serial_Dependence_U,2023.2.3,Win32,59.88023952096852,,,,,,679.3892000000477,184.0,0.0,679.3894000000954,184.0,,,,682.7727000000477,683.2724000000953,682.2562000000477,682.7727000000477,680.389600000143,682.2562000000477,683.2725,683.7724000000953,683.7725,689.4557000000477,4151.0,689.4558000001907,5.0,690.455600000143,0.0,7.0,7.0,10.0,1.0,0.8,0.3,Time
,,S08,1,女,21,anonymized,Serial_Dependence_U,2023.2.3,Win32,59.88023952096852,,,,,,690.4559000000953,42.0,0.0,690.4559000000953,42.0,,,,694.239100000143,694.7387000000476,693.7226000001431,694.239100000143,691.456100000143,693.7226000001431,694.7387000000476,695.2388000001907,695.2388000001907,698.9388000001908,3582.0,698.939,5.0,699.9388000001908,0.0,8.0,8.0,22.0,1.0,1.2,0.3,Time
,,S08,1,女,21,anonymized,Serial_Dependence_U,2023.2.3,Win32,59.88023952096852,,,,,,699.9391000001431,66.0,0.0,699.9391000001431,66.0,,,,703.3226000001431,703.822,702.8058000001907,703.3226000001431,700.9393000001908,702.8058000001907,703.822100000143,704.322100000143,704.322100000143,708.2057000000477,3530.0,708.2058000001907,5.0,709.2053000001907,0.0,9.0,9.0,20.0,1.0,0.8,0.3,Time
,,S08,1,女,21,anonymized,Serial_Dependence_U,2023.2.3,Win32,59.88023952096852,,,,,,709.2055,328.0,0.0,709.205600000143,328.0,,,,712.5559000000953,713.0549000000954,712.0389000000954,712.5558000001907,710.2057000000477,712.0389000000954,713.055,713.5552000000476,713.5553000001908,715.9222000000477,2001.0,715.9223000001907,5.0,716.9217000000477,0.0,10.0,10.0,25.0,1.0,0.8,0.7,Time
,,S08,1,女,21,anonymized,Serial_Dependence_U,2023.2.3,Win32,59.88023952096852,,,,,,716.9219000000953,133.0,0.0,716.922100000143,133.0,,,,720.6722000000477,721.171600000143,720.1557000000477,720.672100000143,717.9224000000953,720.1557000000477,721.1717000000477,721.6715,721.671600000143,722.7718000001908,661.0,722.7718000001908,1.0,723.7717000000476,0.0,11.0,11.0,27.0,1.0,1.2,0.7,Time
,,S08,1,女,21,anonymized,Serial_Dependence_U,2023.2.3,Win32,59.88023952096852,,,,,,723.7719000000953,243.0,0.0,723.772,243.0,,,,727.1388000001907,727.6382000000477,726.6222000000477,727.1388000001907,724.7888000001907,726.6222000000477,727.6382000000477,728.1384000000953,728.1384000000953,729.9384000000954,1096.0,729.9385,5.0,730.9384000000954,0.0,12.0,12.0,15.0,1.0,0.8,0.7,Time
,,S08,1,女,21,anonymized,Serial_Dependence_U,2023.2.3,Win32,59.88023952096852,,,,,,730.9386000001431,19.0,0.0,730.9388000001908,19.0,,,,735.0886000001431,735.588,734.5719000000954,735.0885,731.9384000000954,734.5718000001907,735.588,736.0881000001431,736.0882000000477,741.355100000143,2899.0,741.355100000143,5.0,742.3543000001907,0.0,13.0,13.0,9.0,1.0,1.6,0.7,Time
,,S08,1,女,21,anonymized,Serial_Dependence_U,2023.2.3,Win32,59.88023952096852,,,,,,742.354600000143,48.0,0.0,742.3547000000477,48.0,,,,746.122,746.6211000001431,745.6218000001908,746.1219000000954,743.3548000001907,745.6217000000477,746.6211000001431,747.1215,747.1215,753.955,2933.0,753.955,5.0,754.9544000000953,0.0,14.0,14.0,2.0,1.0,1.2,0.3,Time
,,S08,1,女,21,anonymized,Serial_Dependence_U,2023.2.3,Win32,59.88023952096852,,,,,,754.954600000143,177.0,0.0,754.9548000001907,177.0,,,,758.3548000001907,758.854100000143,757.8381000001431,758.3548000001907,755.9714000000954,757.838,758.854100000143,759.3545,759.3545,759.7212000000477,149.0,759.7214000000954,1.0,760.721100000143,0.0,15.0,15.0,0.0,1.0,0.8,0.3,Time
,,S08,1,女,21,anonymized,Serial_Dependence_U,2023.2.3,Win32,59.88023952096852,,,,,,760.7213000001907,91.0,0.0,760.7214000000954,91.0,,,,764.9047000000477,765.4043000001907,764.3885,764.9047000000477,761.7216000001431,764.3884000000953,765.4043000001907,765.9044000000954,765.9044000000954,769.8713000001908,3313.0,769.8714000000954,5.0,770.8708000001907,0.0,16.0,16.0,4.0,1.0,1.6,0.3,Time
,,S08,1,女,21,anonymized,Serial_Dependence_U,2023.2.3,Win32,59.88023952096852,,,,,,770.871,42.0,0.0,770.8711000001431,42.0,,,,774.8544000000953,775.3542000000476,774.3383000001908,774.8544000000953,771.8711000001431,774.3382000000477,775.3542000000476,775.8542000000476,775.8543000001907,776.5212000000477,34.0,776.5213000001908,1.0,777.5208000001908,0.0,17.0,17.0,23.0,1.0,1.4,0.3,Time
,,S08,1,女,21,anonymized,Serial_Dependence_U,2023.2.3,Win32,59.88023952096852,,,,,,777.5212000000477,302.0,0.0,777.5213000001908,302.0,,,,781.0546000001431,781.554,780.5543000001908,781.0545,778.5213000001908,780.5543000001908,781.554,782.0539000000954,782.0539000000954,784.9709000000954,2331.0,784.9709000000954,5.0,785.9707000000477,0.0,18.0,18.0,6.0,1.0,1.0,0.7,Time
,,S08,1,女,21,anonymized,Serial_Dependence_U,2023.2.3,Win32,59.88023952096852,,,,,,785.971,299.0,0.0,785.971100000143,299.0,,,,789.921100000143,790.4205,789.4043000001907,789.921,786.9713000001907,789.4043000001907,790.4205,790.9207000000476,790.9207000000476,793.2544000000954,1213.0,793.2545,2.0,794.253600000143,0.0,19.0,19.0,8.0,1.0,1.4,0.7,Time
,,S08,1,女,21,anonymized,Serial_Dependence_U,2023.2.3,Win32,59.88023952096852,,,,,,794.2539000000953,232.0,0.0,794.254,232.0,,,,797.9877000000477,798.4875,797.4874000000954,797.9876000001431,795.2542000000477,797.4874000000954,798.4876000001431,798.9871000001431,798.9871000001431,800.4373000001907,767.0,800.4374000000954,1.0,801.437100000143,0.0,20.0,20.0,17.0,1.0,1.2,0.7,Time
,,S08,1,女,21,anonymized,Serial_Dependence_U,2023.2.3,Win32,59.88023952096852,,,,,,801.4374000000954,52.0,0.0,801.4375,52.0,,,,805.6209000000954,806.1202000000477,805.1043000001907,805.6209000000954,802.437600000143,805.1043000001907,806.1202000000477,806.6203000001907,806.6204000000954,808.987,1788.0,808.987,4.0,809.987,0.0,21.0,21.0,24.0,1.0,1.6,0.3,Time
,,S08,1,女,21,anonymized,Serial_Dependence_U,2023.2.3,Win32,59.88023952096852,,,,,,809.9872000000477,74.0,0.0,809.9873000001908,74.0,,,,814.1374000000953,814.6366000001431,813.6206000001431,814.1373000001907,810.9873000001908,813.6205,814.6366000001431,815.1369000000954,815.1369000000954,816.5372000000477,645.0,816.5373000001907,1.0,817.5367000000476,0.0,22.0,22.0,19.0,1.0,1.6,0.7,Time
,,S08,1,女,21,anonymized,Serial_Dependence_U,2023.2.3,Win32,59.88023952096852,,,,,,817.537,176.0,0.0,817.537,176.0,,,,821.4871000001431,821.9867000000477,820.9707000000477,821.4871000001431,818.5372000000477,820.970600000143,821.9867000000477,822.4867000000477,822.4868000001908,824.920600000143,1717.0,824.920600000143,4.0,825.9201000001431,0.0,23.0,23.0,28.0,1.0,1.4,0.7,Time
,,S08,1,女,21,anonymized,Serial_Dependence_U,2023.2.3,Win32,59.88023952096852,,,,,,825.9204000000954,44.0,0.0,825.9205,44.0,,,,829.6705,830.1701000001431,829.153600000143,829.6704000000954,826.9202000000477,829.1535,830.1701000001431,830.67,830.6701000001431,832.5868000001907,809.0,832.5869000000954,1.0,833.5862000000477,0.0,24.0,24.0,7.0,1.0,1.2,0.7,Time
,,S08,1,女,21,anonymized,Serial_Dependence_U,2023.2.3,Win32,59.88023952096852,,,,,,833.5863000001907,211.0,0.0,833.5864000000954,211.0,,,,837.1366000001431,837.6363000001908,836.6206000001431,837.1365,834.587,836.6205,837.6364000000954,838.1363000001908,838.1363000001908,840.9201000001431,1411.0,840.9202000000477,5.0,841.9193000001907,0.0,25.0,25.0,16.0,1.0,1.0,0.7,Time
,,S08,1,女,21,anonymized,Serial_Dependence_U,2023.2.3,Win32,59.88023952096852,,,,,,841.9195,123.0,0.0,841.9197000000477,123.0,,,,845.5033000001907,846.002600000143,844.9867000000477,845.5032000000476,842.9204000000954,844.9867000000477,846.0027000000476,846.503100000143,846.503100000143,847.4035,216.0,847.403600000143,1.0,848.402600000143,0.0,26.0,26.0,21.0,1.0,1.0,0.3,Time
,,S08,1,女,21,anonymized,Serial_Dependence_U,2023.2.3,Win32,59.88023952096852,,,,,,848.4029000000953,218.0,0.0,848.4029000000953,218.0,,,,852.5533000001907,853.0525,852.036600000143,852.5533000001907,849.4034000000954,852.036600000143,853.0525,853.553,853.553100000143,855.87,1766.0,855.870100000143,4.0,856.8695,0.0,27.0,27.0,29.0,1.0,1.6,0.7,Time
,,S08,1,女,21,anonymized,Serial_Dependence_U,2023.2.3,Win32,59.88023952096852,,,,,,856.8698000001907,135.0,0.0,856.8698000001907,135.0,,,,861.0529000000954,861.552600000143,860.5365,861.0529000000954,857.87,860.5365,861.552600000143,862.0529000000954,862.0529000000954,864.1695,920.0,864.1696000001431,1.0,865.1693000001907,0.0,28.0,28.0,14.0,1.0,1.6,0.3,Time
,,S08,1,女,21,anonymized,Serial_Dependence_U,2023.2.3,Win32,59.88023952096852,,,,,,865.1696000001431,292.0,0.0,865.1696000001431,292.0,,,,868.9529000000954,869.4527000000477,868.4365,868.9529000000954,866.1696000001431,868.4364000000953,869.4527000000477,869.9527000000477,869.9528000001907,870.936,585.0,870.9362000000477,1.0,871.9359000000953,0.0,29.0,29.0,12.0,1.0,1.2,0.3,Time
,,S08,1,女,21,anonymized,Serial_Dependence_U,2023.2.3,Win32,59.88023952096852,,,,,,871.936100000143,65.0,1.0,910.057600000143,65.0,s,38.09470000004774,,914.0523000001908,914.5518000001908,913.5357000000477,914.0523000001908,911.0688000001908,913.5357000000477,914.5519000000952,915.0519000000952,915.0519000000952,916.985600000143,1385.0,916.9857000000476,3.0,916.9915,1.0,0.0,30.0,3.0,1.0,1.4,0.3,Time
,,S08,1,女,21,anonymized,Serial_Dependence_U,2023.2.3,Win32,59.88023952096852,,,,,,916.9917000000476,148.0,1.0,916.9924000000954,148.0,,,,920.335600000143,920.834600000143,919.8188000001908,920.3355,917.9855,919.8188000001908,920.8347000000476,921.335,921.335100000143,923.218600000143,1096.0,923.218600000143,5.0,923.2244000000952,1.0,1.0,31.0,25.0,1.0,0.8,0.7,Time
,,S08,1,女,21,anonymized,Serial_Dependence_U,2023.2.3,Win32,59.88023952096852,,,,,,923.2245,257.0,1.0,923.224600000143,257.0,,,,926.5688000001908,927.0683000001908,926.052100000143,926.5687000000476,924.2187000000476,926.052,927.0684000000954,927.5681000001432,927.5681000001432,928.9687000000476,917.0,928.9688000001908,4.0,928.9748000001908,1.0,2.0,32.0,5.0,1.0,0.8,0.7,Time
,,S08,1,女,21,anonymized,Serial_Dependence_U,2023.2.3,Win32,59.88023952096852,,,,,,928.975100000143,122.0,1.0,928.975100000143,122.0,,,,932.7188000001908,933.218,932.2019000000954,932.7188000001908,929.9684000000954,932.2018000001908,933.218,933.718100000143,933.7182000000475,935.2018000001908,896.0,935.2019000000954,2.0,935.2077000000476,1.0,3.0,33.0,27.0,1.0,1.2,0.7,Time
,,S08,1,女,21,anonymized,Serial_Dependence_U,2023.2.3,Win32,59.88023952096852,,,,,,935.2079000000952,134.0,1.0,935.2079000000952,134.0,,,,938.5851000001433,939.0847000000476,938.068600000143,938.5851000001433,936.202,938.068600000143,939.0847000000476,939.5848000001909,939.5848000001909,941.168100000143,1168.0,941.1682000000476,5.0,941.1745,1.0,4.0,34.0,0.0,1.0,0.8,0.3,Time
,,S08,1,女,21,anonymized,Serial_Dependence_U,2023.2.3,Win32,59.88023952096852,,,,,,941.1747000000476,148.0,1.0,941.1747000000476,148.0,,,,944.7519000000954,945.2515,944.2352000000476,944.7519000000954,942.1683000001908,944.235100000143,945.2515,945.7511000001432,945.7511000001432,947.2017000000476,951.0,947.2017000000476,3.0,947.2076000001432,1.0,5.0,35.0,11.0,1.0,1.0,0.3,Time
,,S08,1,女,21,anonymized,Serial_Dependence_U,2023.2.3,Win32,59.88023952096852,,,,,,947.2078000001908,52.0,1.0,947.2078000001908,52.0,,,,951.152,951.651100000143,950.6352000000476,951.1519000000956,948.2018000001908,950.6351000001432,951.651100000143,952.151100000143,952.151100000143,953.8181000001432,1299.0,953.8182000000476,2.0,953.8242000000477,1.0,6.0,36.0,8.0,1.0,1.4,0.7,Time
,,S08,1,女,21,anonymized,Serial_Dependence_U,2023.2.3,Win32,59.88023952096852,,,,,,953.8244000000954,347.0,1.0,953.8245,347.0,,,,957.6013000001908,958.1012000000476,957.0849000000954,957.6012000000476,954.8184000000952,957.0849000000954,958.1012000000476,958.6012000000476,958.6013000001908,960.3177000000476,1253.0,960.3177000000476,3.0,960.3243000001906,1.0,7.0,37.0,12.0,1.0,1.2,0.3,Time
,,S08,1,女,21,anonymized,Serial_Dependence_U,2023.2.3,Win32,59.88023952096852,,,,,,960.324600000143,229.0,1.0,960.324600000143,229.0,,,,963.701600000143,964.2008000001908,963.1847000000477,963.7015,961.3183000001908,963.1847000000477,964.2008000001908,964.701,964.701,965.9345,837.0,965.9347000000477,3.0,965.9404000000952,1.0,8.0,38.0,10.0,1.0,0.8,0.3,Time
,,S08,1,女,21,anonymized,Serial_Dependence_U,2023.2.3,Win32,59.88023952096852,,,,,,965.940600000143,115.0,1.0,965.9407000000476,115.0,,,,969.6845,970.1841000001432,969.1682000000476,969.6845,966.9349000000954,969.1682000000476,970.1841000001432,970.6842000000478,970.6843000001908,972.8177000000476,1549.0,972.8177000000476,4.0,972.8243000001906,1.0,9.0,39.0,17.0,1.0,1.2,0.7,Time
,,S08,1,女,21,anonymized,Serial_Dependence_U,2023.2.3,Win32,59.88023952096852,,,,,,972.8245,278.0,1.0,972.824600000143,278.0,,,,976.8013000001908,977.3008000001906,976.2847000000478,976.8013000001908,973.818,976.2846000001432,977.3009000000952,977.8009000000952,977.8009000000952,980.0512000000476,1732.0,980.0512000000476,4.0,980.0572000000476,1.0,10.0,40.0,13.0,1.0,1.4,0.3,Time
,,S08,1,女,21,anonymized,Serial_Dependence_U,2023.2.3,Win32,59.88023952096852,,,,,,980.0574000000952,92.0,1.0,980.0575,92.0,,,,983.801,984.3007000000476,983.2845,983.8009000000952,981.0514000000954,983.2845,984.3007000000476,984.8009000000952,984.8009000000952,986.5177000000476,1266.0,986.5178000001908,4.0,986.5243000001908,1.0,11.0,41.0,7.0,1.0,1.2,0.7,Time
,,S08,1,女,21,anonymized,Serial_Dependence_U,2023.2.3,Win32,59.88023952096852,,,,,,986.5245,171.0,1.0,986.5245,171.0,,,,990.7175,991.217,990.201,990.7175,987.534100000143,990.2009000000954,991.217,991.717,991.717,993.967100000143,1803.0,993.9672000000476,4.0,993.9729000000954,1.0,12.0,42.0,24.0,1.0,1.6,0.3,Time
,,S08,1,女,21,anonymized,Serial_Dependence_U,2023.2.3,Win32,59.88023952096852,,,,,,993.9731000001432,47.0,1.0,993.9732000000478,47.0,,,,998.1506000001432,998.6504000000954,997.6342000000476,998.1506000001432,994.9677000000478,997.6342000000476,998.6504000000954,999.1503000001908,999.1503000001908,1001.567,2089.0,1001.5671000001432,5.0,1001.5733000001908,1.0,13.0,43.0,4.0,1.0,1.6,0.3,Time
,,S08,1,女,21,anonymized,Serial_Dependence_U,2023.2.3,Win32,59.88023952096852,,,,,,1001.5734000000954,110.0,1.0,1001.5735,110.0,,,,1005.3671000001432,1005.8668000001908,1004.8508000001908,1005.3671000001432,1002.5839000000956,1004.8508000001908,1005.8668000001908,1006.3669000000954,1006.367,1006.4339000000954,51.0,1006.434,1.0,1006.441,1.0,14.0,44.0,2.0,1.0,1.2,0.3,Time
,,S08,1,女,21,anonymized,Serial_Dependence_U,2023.2.3,Win32,59.88023952096852,,,,,,1006.4412000000476,183.0,1.0,1006.4413000001908,183.0,,,,1009.8173000001908,1010.316600000143,1009.3008000001906,1009.8173000001908,1007.4341000001432,1009.3007000000476,1010.316600000143,1010.817,1010.817,1013.0173000001906,1777.0,1013.0174000000952,5.0,1013.0237000000476,1.0,15.0,45.0,20.0,1.0,0.8,0.3,Time
,,S08,1,女,21,anonymized,Serial_Dependence_U,2023.2.3,Win32,59.88023952096852,,,,,,1013.024,333.0,1.0,1013.024,333.0,,,,1016.3674000000956,1016.8667000000476,1015.8505,1016.3673000001908,1014.0173000001906,1015.8505,1016.8667000000476,1017.366600000143,1017.366600000143,1019.2002000000476,1504.0,1019.2004000000952,5.0,1019.2064000000954,1.0,16.0,46.0,15.0,1.0,0.8,0.7,Time
,,S08,1,女,21,anonymized,Serial_Dependence_U,2023.2.3,Win32,59.88023952096852,,,,,,1019.2067000000476,355.0,1.0,1019.2067000000476,355.0,,,,1022.7505,1023.25,1022.234,1022.7505,1020.2007000000476,1022.2339000000952,1023.25,1023.7501000001432,1023.7501000001432,1026.0005,1899.0,1026.0006000001429,5.0,1026.0064000000953,1.0,17.0,47.0,16.0,1.0,1.0,0.7,Time
,,S08,1,女,21,anonymized,Serial_Dependence_U,2023.2.3,Win32,59.88023952096852,,,,,,1026.0067000000477,248.0,1.0,1026.0068000001909,248.0,,,,1030.1837000000476,1030.6834000000952,1029.6669000000952,1030.1837000000476,1027.0005,1029.6669000000952,1030.6834000000952,1031.1832000000477,1031.1832000000477,1033.9001000001429,2361.0,1033.9002000000476,5.0,1033.9064000000951,1.0,18.0,48.0,14.0,1.0,1.6,0.3,Time
,,S08,1,女,21,anonymized,Serial_Dependence_U,2023.2.3,Win32,59.88023952096852,,,,,,1033.906600000143,356.0,1.0,1033.906600000143,356.0,,,,1037.4838000001905,1037.983100000143,1036.967,1037.4837000000475,1034.9003000001906,1036.967,1037.983100000143,1038.4832000000476,1038.4832000000476,1040.816600000143,1872.0,1040.8167000000476,5.0,1040.8233000001906,1.0,19.0,49.0,1.0,1.0,1.0,0.3,Time
,,S08,1,女,21,anonymized,Serial_Dependence_U,2023.2.3,Win32,59.88023952096852,,,,,,1040.8234000000953,292.0,1.0,1040.8235,292.0,,,,1044.7669000000951,1045.2663000001903,1044.2503000001907,1044.7669000000951,1041.8168000001906,1044.2503000001907,1045.2663000001903,1045.7659000000951,1045.7659000000951,1048.483100000143,2185.0,1048.483100000143,5.0,1048.4893000001907,1.0,20.0,50.0,18.0,1.0,1.4,0.7,Time
,,S08,1,女,21,anonymized,Serial_Dependence_U,2023.2.3,Win32,59.88023952096852,,,,,,1048.4894000000952,63.0,1.0,1048.4895,63.0,,,,1052.6333000001907,1053.1327000000476,1052.1168000001906,1052.6332000000475,1049.4834000000951,1052.1167000000476,1053.1328000001906,1053.632600000143,1053.6327000000476,1056.3665,2414.0,1056.3666000001429,5.0,1056.372600000143,1.0,21.0,51.0,29.0,1.0,1.6,0.7,Time
,,S08,1,女,21,anonymized,Serial_Dependence_U,2023.2.3,Win32,59.88023952096852,,,,,,1056.3729000000951,46.0,1.0,1056.3729000000951,46.0,,,,1059.9664999999998,1060.466100000143,1059.449600000143,1059.9664999999998,1057.3834000000952,1059.449600000143,1060.466100000143,1060.966100000143,1060.9662000000476,1063.2164000000953,1829.0,1063.216600000143,5.0,1063.2225,1.0,22.0,52.0,21.0,1.0,1.0,0.3,Time
,,S08,1,女,21,anonymized,Serial_Dependence_U,2023.2.3,Win32,59.88023952096852,,,,,,1063.2226000001428,121.0,1.0,1063.2227000000476,121.0,,,,1066.9999999999998,1067.498900000095,1066.4832000000476,1066.9999999999998,1064.2164999999998,1066.483100000143,1067.498900000095,1067.9992000000475,1067.9992000000475,1070.583,2199.0,1070.5831000001428,5.0,1070.590100000143,1.0,23.0,53.0,22.0,1.0,1.2,0.3,Time
,,S08,1,女,21,anonymized,Serial_Dependence_U,2023.2.3,Win32,59.88023952096852,,,,,,1070.5903000001906,39.0,1.0,1070.590400000095,39.0,,,,1074.733100000143,1075.232300000191,1074.2163000001906,1074.733100000143,1071.5831000001428,1074.2163000001906,1075.232300000191,1075.7326000001428,1075.7326000001428,1078.4162000000476,2113.0,1078.4163000001906,5.0,1078.422600000143,1.0,24.0,54.0,9.0,1.0,1.6,0.7,Time
,,S08,1,女,21,anonymized,Serial_Dependence_U,2023.2.3,Win32,59.88023952096852,,,,,,1078.4228000001906,5.0,1.0,1078.4229000000953,5.0,,,,1082.5664000000952,1083.065600000143,1082.0494000000951,1082.5663000001907,1079.4162000000476,1082.049300000191,1083.065600000143,1083.5654000000952,1083.5654000000952,1085.7992000000477,1598.0,1085.799300000191,3.0,1085.8062000000475,1.0,25.0,55.0,19.0,1.0,1.6,0.7,Time
,,S08,1,女,21,anonymized,Serial_Dependence_U,2023.2.3,Win32,59.88023952096852,,,,,,1085.8063000001905,243.0,1.0,1085.8064000000952,243.0,,,,1089.7827000000475,1090.2824999999998,1089.265800000191,1089.7827000000475,1086.799100000143,1089.2657000000477,1090.2824999999998,1090.7822000000476,1090.7823000001906,1092.9993000001907,1817.0,1092.9994000000952,4.0,1093.0061000001429,1.0,26.0,56.0,23.0,1.0,1.4,0.3,Time
,,S08,1,女,21,anonymized,Serial_Dependence_U,2023.2.3,Win32,59.88023952096852,,,,,,1093.0062000000476,3.0,1.0,1093.0063000001903,3.0,,,,1096.5658000001906,1097.0653000001903,1096.0494000000951,1096.5658000001906,1094.0159999999998,1096.049300000191,1097.0653000001903,1097.5654000000952,1097.5654000000952,1099.6156000001429,1635.0,1099.6156000001429,5.0,1099.6221000001428,1.0,27.0,57.0,26.0,1.0,1.0,0.7,Time
,,S08,1,女,21,anonymized,Serial_Dependence_U,2023.2.3,Win32,59.88023952096852,,,,,,1099.6223000001903,330.0,1.0,1099.6224000000952,330.0,,,,1103.565900000095,1104.0649999999998,1103.049,1103.5658000001906,1100.6158000001906,1103.049,1104.0649999999998,1104.5654000000952,1104.5654000000952,1106.6989000000951,1793.0,1106.6989999999998,4.0,1106.705100000143,1.0,28.0,58.0,28.0,1.0,1.4,0.7,Time
,,S08,1,女,21,anonymized,Serial_Dependence_U,2023.2.3,Win32,59.88023952096852,,,,,,1106.7052000000476,185.0,1.0,1106.705400000095,185.0,,,,1110.2657000000477,1110.7651000001429,1109.7489999999998,1110.2657000000477,1107.7154999999998,1109.748900000095,1110.7651000001429,1111.2652000000476,1111.2652000000476,1113.7985,2134.0,1113.7986000001429,5.0,1113.8044000000953,1.0,29.0,59.0,6.0,1.0,1.0,0.7,Time
,,S08,1,女,21,anonymized,Serial_Dependence_U,2023.2.3,Win32,59.88023952096852,,,,,,1113.8045,302.0,2.0,1119.8039000000952,302.0,s,5.982999999999947,,1123.9323000001907,1124.431600000143,1123.4319000000953,1123.9322000000475,1120.799100000143,1123.4319000000953,1124.4317000000476,1124.9313000001905,1124.9313000001905,1127.5988000001903,2350.0,1127.5988000001903,5.0,1127.6049000000953,2.0,0.0,60.0,29.0,1.0,1.6,0.7,Time
,,S08,1,女,21,anonymized,Serial_Dependence_U,2023.2.3,Win32,59.88023952096852,,,,,,1127.605100000143,208.0,2.0,1127.6058000001906,208.0,,,,1131.1822000000475,1131.6817000000476,1130.6654999999998,1131.182100000143,1128.5988000001903,1130.6654999999998,1131.6817000000476,1132.181600000143,1132.1817000000476,1134.2153000001906,1550.0,1134.215400000095,5.0,1134.2212000000477,2.0,1.0,61.0,21.0,1.0,1.0,0.3,Time
,,S08,1,女,21,anonymized,Serial_Dependence_U,2023.2.3,Win32,59.88023952096852,,,,,,1134.2213000001907,294.0,2.0,1134.2214000000952,294.0,,,,1138.3649999999998,1138.8647000000476,1137.8487000000475,1138.3649999999998,1135.2153000001906,1137.8486000001428,1138.8647000000476,1139.3645,1139.3645,1141.7984000000952,2115.0,1141.7985,5.0,1141.8049999999998,2.0,2.0,62.0,19.0,1.0,1.6,0.7,Time
,,S08,1,女,21,anonymized,Serial_Dependence_U,2023.2.3,Win32,59.88023952096852,,,,,,1141.8052000000475,258.0,2.0,1141.8052000000475,258.0,,,,1145.5651000001428,1146.064600000143,1145.048100000143,1145.5649999999998,1142.8151000001428,1145.048100000143,1146.064600000143,1146.5645,1146.564600000143,1148.9149000000953,2000.0,1148.915,5.0,1148.921600000143,2.0,3.0,63.0,27.0,1.0,1.2,0.7,Time
,,S08,1,女,21,anonymized,Serial_Dependence_U,2023.2.3,Win32,59.88023952096852,,,,,,1148.9218000001906,141.0,2.0,1148.921900000095,141.0,,,,1152.8984999999998,1153.3979000000952,1152.3817000000477,1152.8984000000953,1149.915,1152.381600000143,1153.3979000000952,1153.8977000000475,1153.8978000001907,1156.3645,2083.0,1156.364600000143,5.0,1156.3729999999998,2.0,4.0,64.0,3.0,1.0,1.4,0.3,Time
,,S08,1,女,21,anonymized,Serial_Dependence_U,2023.2.3,Win32,59.88023952096852,,,,,,1156.3733000001905,229.0,2.0,1156.3734000000952,229.0,,,,1159.9147000000476,1160.4144000000952,1159.3982000000476,1159.9146000001429,1157.3649000000953,1159.398100000143,1160.4144000000952,1160.9144000000952,1160.9144000000952,1163.447800000191,2111.0,1163.4479000000952,5.0,1163.4536000001428,2.0,5.0,65.0,26.0,1.0,1.0,0.7,Time
,,S08,1,女,21,anonymized,Serial_Dependence_U,2023.2.3,Win32,59.88023952096852,,,,,,1163.4538000001903,174.0,2.0,1163.4539000000952,174.0,,,,1166.9984000000952,1167.4974000000952,1166.4812000000477,1166.9983000001905,1164.4479000000952,1166.4812000000477,1167.4975,1167.997600000143,1167.9977000000476,1170.464600000143,2109.0,1170.4647000000475,5.0,1170.470600000143,2.0,6.0,66.0,6.0,1.0,1.0,0.7,Time
,,S08,1,女,21,anonymized,Serial_Dependence_U,2023.2.3,Win32,59.88023952096852,,,,,,1170.4708000001906,133.0,2.0,1170.4708000001906,133.0,,,,1174.4146000001429,1174.914300000191,1173.898100000143,1174.4146000001429,1171.464600000143,1173.898100000143,1174.914300000191,1175.414,1175.414,1178.397600000143,2572.0,1178.3977000000475,5.0,1178.4037000000476,2.0,7.0,67.0,28.0,1.0,1.4,0.7,Time
,,S08,1,女,21,anonymized,Serial_Dependence_U,2023.2.3,Win32,59.88023952096852,,,,,,1178.4039000000953,9.0,2.0,1178.4039999999998,9.0,,,,1182.1813000001905,1182.6807000000476,1181.6644000000952,1182.1813000001905,1179.3978000001907,1181.664300000191,1182.6808000001906,1183.1808000001906,1183.1808000001906,1186.164300000191,2228.0,1186.1645,5.0,1186.1702000000475,2.0,8.0,68.0,22.0,1.0,1.2,0.3,Time
,,S08,1,女,21,anonymized,Serial_Dependence_U,2023.2.3,Win32,59.88023952096852,,,,,,1186.1704000000952,176.0,2.0,1186.1705,176.0,,,,1190.1311000001429,1190.630600000143,1189.6149000000953,1190.131,1187.1807000000476,1189.6149000000953,1190.630600000143,1191.1307000000477,1191.1307000000477,1191.5307000000475,171.0,1191.5307000000475,1.0,1191.537100000143,2.0,9.0,69.0,18.0,1.0,1.4,0.7,Time
,,S08,1,女,21,anonymized,Serial_Dependence_U,2023.2.3,Win32,59.88023952096852,,,,,,1191.5373000001907,24.0,2.0,1191.5375,24.0,,,,1194.914100000143,1195.4136000001429,1194.3977000000475,1194.914100000143,1192.531,1194.397600000143,1195.4136000001429,1195.9138000001906,1195.9138000001906,1198.4974000000952,1983.0,1198.4975,5.0,1198.5037000000475,2.0,10.0,70.0,10.0,1.0,0.8,0.3,Time
,,S08,1,女,21,anonymized,Serial_Dependence_U,2023.2.3,Win32,59.88023952096852,,,,,,1198.5039000000952,42.0,2.0,1198.5039000000952,42.0,,,,1202.2473000001903,1202.746800000191,1201.7309000000953,1202.2473000001903,1199.4974000000952,1201.7308000001906,1202.746800000191,1203.2471000001428,1203.2471000001428,1205.897400000095,2249.0,1205.897400000095,5.0,1205.9034000000952,2.0,11.0,71.0,7.0,1.0,1.2,0.7,Time
,,S08,1,女,21,anonymized,Serial_Dependence_U,2023.2.3,Win32,59.88023952096852,,,,,,1205.903600000143,136.0,2.0,1205.9037000000476,136.0,,,,1210.0644000000952,1210.5637000000477,1209.5637000000477,1210.0643000001903,1206.897400000095,1209.5637000000477,1210.5637000000477,1211.0635,1211.0635,1214.7807000000475,3384.0,1214.7807000000475,5.0,1214.7868000001906,2.0,12.0,72.0,14.0,1.0,1.6,0.3,Time
,,S08,1,女,21,anonymized,Serial_Dependence_U,2023.2.3,Win32,59.88023952096852,,,,,,1214.786900000095,321.0,2.0,1214.786900000095,321.0,,,,1218.763600000143,1219.2633000001906,1218.2472000000475,1218.7634999999998,1215.7807000000475,1218.2471000001428,1219.263400000095,1219.763600000143,1219.763600000143,1222.296600000143,2240.0,1222.2968000001906,5.0,1222.3027000000477,2.0,13.0,73.0,13.0,1.0,1.4,0.3,Time
,,S08,1,女,21,anonymized,Serial_Dependence_U,2023.2.3,Win32,59.88023952096852,,,,,,1222.3029000000952,53.0,2.0,1222.303,53.0,,,,1226.4805,1226.9799999999998,1225.9638000001903,1226.4805,1223.2969999999998,1225.9638000001903,1226.9799999999998,1227.4799999999998,1227.480100000143,1230.1634000000952,2450.0,1230.1634000000952,5.0,1230.1697000000477,2.0,14.0,74.0,24.0,1.0,1.6,0.3,Time
,,S08,1,女,21,anonymized,Serial_Dependence_U,2023.2.3,Win32,59.88023952096852,,,,,,1230.1699999999998,165.0,2.0,1230.1701000001428,165.0,,,,1233.4969999999998,1233.9964000000953,1232.9967000000477,1233.4969999999998,1231.1637000000476,1232.996600000143,1233.9964000000953,1234.496600000143,1234.496600000143,1236.7465,1873.0,1236.746600000143,5.0,1236.7529000000952,2.0,15.0,75.0,15.0,1.0,0.8,0.7,Time
,,S08,1,女,21,anonymized,Serial_Dependence_U,2023.2.3,Win32,59.88023952096852,,,,,,1236.753100000143,306.0,2.0,1236.753100000143,306.0,,,,1240.53,1241.0297000000476,1240.013600000143,1240.5299000000953,1237.7469999999998,1240.013600000143,1241.0298000001906,1241.5297000000476,1241.5297000000476,1244.1464999999998,2240.0,1244.1466000001428,5.0,1244.1525,2.0,16.0,76.0,2.0,1.0,1.2,0.3,Time
,,S08,1,女,21,anonymized,Serial_Dependence_U,2023.2.3,Win32,59.88023952096852,,,,,,1244.1527000000476,157.0,2.0,1244.1528000001906,157.0,,,,1248.1467000000475,1248.646100000143,1247.6299000000952,1248.1466000001428,1245.1632000000477,1247.6299000000952,1248.646100000143,1249.146100000143,1249.146100000143,1251.8464000000952,2452.0,1251.8464000000952,5.0,1251.8521000001429,2.0,17.0,77.0,23.0,1.0,1.4,0.3,Time
,,S08,1,女,21,anonymized,Serial_Dependence_U,2023.2.3,Win32,59.88023952096852,,,,,,1251.8523000001906,245.0,2.0,1251.8524000000953,245.0,,,,1255.1967000000477,1255.6962000000476,1254.6799000000954,1255.1967000000477,1252.8467000000476,1254.6798000001909,1255.6962000000476,1256.1963000001906,1256.1963000001906,1258.7794000000952,2238.0,1258.7795,5.0,1258.785600000143,2.0,18.0,78.0,5.0,1.0,0.8,0.7,Time
,,S08,1,女,21,anonymized,Serial_Dependence_U,2023.2.3,Win32,59.88023952096852,,,,,,1258.7858000001906,328.0,2.0,1258.7859000000954,328.0,,,,1262.1629000000953,1262.6628000001906,1261.6466000001428,1262.1628000001906,1259.78,1261.6466000001428,1262.6628000001906,1263.1628000001906,1263.1629000000953,1265.0959000000953,1602.0,1265.0959999999998,5.0,1265.1019000000952,2.0,19.0,79.0,20.0,1.0,0.8,0.3,Time
,,S08,1,女,21,anonymized,Serial_Dependence_U,2023.2.3,Win32,59.88023952096852,,,,,,1265.1021000001429,286.0,2.0,1265.1021000001429,286.0,,,,1268.6464999999998,1269.1459000000953,1268.1298000001907,1268.6464000000954,1266.096100000143,1268.1298000001907,1269.1459000000953,1269.646,1269.646,1272.2794000000952,2317.0,1272.2794000000952,5.0,1272.2867000000476,2.0,20.0,80.0,16.0,1.0,1.0,0.7,Time
,,S08,1,女,21,anonymized,Serial_Dependence_U,2023.2.3,Win32,59.88023952096852,,,,,,1272.286900000095,122.0,2.0,1272.2869999999998,122.0,,,,1275.629600000143,1276.129,1275.1131000001428,1275.629600000143,1273.2797000000476,1275.1129999999998,1276.129,1276.6292000000476,1276.6292000000476,1278.2629000000952,1317.0,1278.263,5.0,1278.2687000000476,2.0,21.0,81.0,25.0,1.0,0.8,0.7,Time
,,S08,1,女,21,anonymized,Serial_Dependence_U,2023.2.3,Win32,59.88023952096852,,,,,,1278.2689999999998,331.0,2.0,1278.2689999999998,331.0,,,,1282.0128000001905,1282.512,1281.4962000000476,1282.0128000001905,1279.263100000143,1281.4962000000476,1282.512,1283.0124999999998,1283.0124999999998,1285.3792000000476,2012.0,1285.3793000001906,5.0,1285.385300000191,2.0,22.0,82.0,17.0,1.0,1.2,0.7,Time
,,S08,1,女,21,anonymized,Serial_Dependence_U,2023.2.3,Win32,59.88023952096852,,,,,,1285.3855,123.0,2.0,1285.3856000001429,123.0,,,,1289.1628000001906,1289.6624000000952,1288.646,1289.1628000001906,1286.379600000143,1288.646,1289.6624000000952,1290.162100000143,1290.162100000143,1292.9627000000476,2416.0,1292.9628000001906,5.0,1292.9688000001906,2.0,23.0,83.0,12.0,1.0,1.2,0.3,Time
,,S08,1,女,21,anonymized,Serial_Dependence_U,2023.2.3,Win32,59.88023952096852,,,,,,1292.9689999999998,358.0,2.0,1292.9689999999998,358.0,,,,1296.9293000001906,1297.4287000000477,1296.4127000000476,1296.9292000000476,1293.978900000095,1296.412600000143,1297.4287000000477,1297.9289000000952,1297.929,1300.512400000095,2281.0,1300.5124999999998,5.0,1300.5192000000477,2.0,24.0,84.0,8.0,1.0,1.4,0.7,Time
,,S08,1,女,21,anonymized,Serial_Dependence_U,2023.2.3,Win32,59.88023952096852,,,,,,1300.5194000000952,209.0,2.0,1300.5195,209.0,,,,1303.8955,1304.3954000000952,1303.3789000000952,1303.8955,1301.512600000143,1303.3789000000952,1304.3954000000952,1304.8952000000477,1304.8952000000477,1307.228600000143,2037.0,1307.2287000000476,5.0,1307.235100000143,2.0,25.0,85.0,0.0,1.0,0.8,0.3,Time
,,S08,1,女,21,anonymized,Serial_Dependence_U,2023.2.3,Win32,59.88023952096852,,,,,,1307.2353000001906,234.0,2.0,1307.2354000000953,234.0,,,,1310.812600000143,1311.3118000001907,1310.2958000001906,1310.8124999999998,1308.2292000000475,1310.2957000000476,1311.3118000001907,1311.811600000143,1311.8117000000475,1314.662100000143,2400.0,1314.662100000143,5.0,1314.668600000143,2.0,26.0,86.0,1.0,1.0,1.0,0.3,Time
,,S08,1,女,21,anonymized,Serial_Dependence_U,2023.2.3,Win32,59.88023952096852,,,,,,1314.6687000000477,184.0,2.0,1314.668800000191,184.0,,,,1318.245600000143,1318.7451000001429,1317.729100000143,1318.245600000143,1315.662100000143,1317.729100000143,1318.7452000000476,1319.2451000001429,1319.2451000001429,1321.6122000000476,1949.0,1321.6123000001903,5.0,1321.618,2.0,27.0,87.0,11.0,1.0,1.0,0.3,Time
,,S08,1,女,21,anonymized,Serial_Dependence_U,2023.2.3,Win32,59.88023952096852,,,,,,1321.6182000000476,97.0,2.0,1321.6183000001906,97.0,,,,1325.762100000143,1326.2617000000475,1325.2455,1325.762,1322.612,1325.2454000000953,1326.2617000000475,1326.7617000000475,1326.7617000000475,1329.1287000000475,2049.0,1329.1288000001907,4.0,1329.135,2.0,28.0,88.0,9.0,1.0,1.6,0.7,Time
,,S08,1,女,21,anonymized,Serial_Dependence_U,2023.2.3,Win32,59.88023952096852,,,,,,1329.135100000143,3.0,2.0,1329.1352000000477,3.0,,,,1333.3286000001428,1333.828300000191,1332.812,1333.3286000001428,1330.145,1332.812,1333.828300000191,1334.328300000191,1334.3284000000951,1336.9785,2334.0,1336.978600000143,5.0,1336.9848000001907,2.0,29.0,89.0,4.0,1.0,1.6,0.3,Time
,,S08,1,女,21,anonymized,Serial_Dependence_U,2023.2.3,Win32,59.88023952096852,,,,,,1336.985,338.0,3.0,1399.1166000001429,338.0,s,62.11459999990461,,1403.0772000000477,1403.5769000000953,1402.5604999999998,1403.0772000000477,1400.1274999999998,1402.5604999999998,1403.5769000000953,1404.0768000001906,1404.0768000001906,1406.244,2084.0,1406.244100000143,5.0,1406.2516000001428,3.0,0.0,90.0,28.0,1.0,1.4,0.7,Time
,,S08,1,女,21,anonymized,Serial_Dependence_U,2023.2.3,Win32,59.88023952096852,,,,,,1406.2519000000952,295.0,3.0,1406.2527000000475,295.0,,,,1410.4274999999998,1410.926600000143,1409.910600000143,1410.4274000000953,1407.244,1409.910600000143,1410.926600000143,1411.4269000000952,1411.4269000000952,1415.6273000001906,1817.0,1415.6274999999998,4.0,1415.6334000000952,3.0,1.0,91.0,24.0,1.0,1.6,0.3,Time
,,S08,1,女,21,anonymized,Serial_Dependence_U,2023.2.3,Win32,59.88023952096852,,,,,,1415.633600000143,126.0,3.0,1415.633600000143,126.0,,,,1419.4104000000953,1419.9101000001428,1418.8939000000953,1419.4104000000953,1416.6272000000477,1418.8938000001906,1419.9101000001428,1420.4101000001428,1420.4101000001428,1422.893600000143,2167.0,1422.8937000000476,5.0,1422.9004000000953,3.0,2.0,92.0,12.0,1.0,1.2,0.3,Time
,,S08,1,女,21,anonymized,Serial_Dependence_U,2023.2.3,Win32,59.88023952096852,,,,,,1422.9005,268.0,3.0,1422.900600000143,268.0,,,,1426.4436000001429,1426.9432000000477,1425.927,1426.4435,1423.8937000000476,1425.9269000000952,1426.9432000000477,1427.443300000191,1427.4434000000952,1429.7602000000477,1890.0,1429.760300000191,5.0,1429.7665,3.0,3.0,93.0,16.0,1.0,1.0,0.7,Time
,,S08,1,女,21,anonymized,Serial_Dependence_U,2023.2.3,Win32,59.88023952096852,,,,,,1429.7667000000476,355.0,3.0,1429.7668000001906,355.0,,,,1433.7604000000952,1434.2598000001906,1433.243400000095,1433.760300000191,1430.777100000143,1433.2433000001906,1434.2598000001906,1434.7599000000953,1434.7599000000953,1437.293600000143,2188.0,1437.2937000000477,5.0,1437.2998000001903,3.0,4.0,94.0,3.0,1.0,1.4,0.3,Time
,,S08,1,女,21,anonymized,Serial_Dependence_U,2023.2.3,Win32,59.88023952096852,,,,,,1437.300100000143,58.0,3.0,1437.300100000143,58.0,,,,1440.6768000001907,1441.176,1440.1603000001903,1440.6768000001907,1438.2935,1440.1602000000476,1441.176,1441.6763000001906,1441.6763000001906,1444.0929999999998,2035.0,1444.0931000001428,5.0,1444.0989000000952,3.0,5.0,95.0,20.0,1.0,0.8,0.3,Time
,,S08,1,女,21,anonymized,Serial_Dependence_U,2023.2.3,Win32,59.88023952096852,,,,,,1444.099100000143,17.0,3.0,1444.0992000000476,17.0,,,,1447.8433000001903,1448.342800000191,1447.3268000001906,1447.8433000001903,1445.0937000000476,1447.3268000001906,1448.3429000000951,1448.8429000000951,1448.8429000000951,1451.0932000000475,1917.0,1451.0932000000475,5.0,1451.099,3.0,6.0,96.0,27.0,1.0,1.2,0.7,Time
,,S08,1,女,21,anonymized,Serial_Dependence_U,2023.2.3,Win32,59.88023952096852,,,,,,1451.099100000143,159.0,3.0,1451.0992000000476,159.0,,,,1455.260100000143,1455.7594000000952,1454.7433000001906,1455.260100000143,1452.110100000143,1454.7432000000476,1455.7594000000952,1456.2596000001429,1456.2596000001429,1459.109400000095,2468.0,1459.1094999999998,5.0,1459.116,3.0,7.0,97.0,19.0,1.0,1.6,0.7,Time
,,S08,1,女,21,anonymized,Serial_Dependence_U,2023.2.3,Win32,59.88023952096852,,,,,,1459.1162000000477,100.0,3.0,1459.116300000191,100.0,,,,1462.8929999999998,1463.3928000001906,1462.3762000000477,1462.8929999999998,1460.1098000001907,1462.3762000000477,1463.3928000001906,1463.8928000001906,1463.8928000001906,1466.743100000143,2533.0,1466.7432000000476,5.0,1466.7492000000475,3.0,8.0,98.0,22.0,1.0,1.2,0.3,Time
,,S08,1,女,21,anonymized,Serial_Dependence_U,2023.2.3,Win32,59.88023952096852,,,,,,1466.7494000000952,123.0,3.0,1466.7495,123.0,,,,1470.9263000001906,1471.4259000000952,1470.4097000000477,1470.9262000000476,1467.743100000143,1470.409600000143,1471.4259000000952,1471.9259000000952,1471.926,1481.1927000000476,2149.0,1481.1928000001906,5.0,1481.1992000000475,3.0,9.0,99.0,14.0,1.0,1.6,0.3,Time
,,S08,1,女,21,anonymized,Serial_Dependence_U,2023.2.3,Win32,59.88023952096852,,,,,,1481.1994000000952,107.0,3.0,1481.1995,107.0,,,,1484.5594999999998,1485.059100000143,1484.0429000000952,1484.5594000000951,1482.2093000001903,1484.0427000000475,1485.0592000000477,1485.559,1485.559,1487.9422000000477,2082.0,1487.9424000000952,5.0,1487.948600000143,3.0,10.0,100.0,25.0,1.0,0.8,0.7,Time
,,S08,1,女,21,anonymized,Serial_Dependence_U,2023.2.3,Win32,59.88023952096852,,,,,,1487.9488000001909,165.0,3.0,1487.9489000000951,165.0,,,,1492.092800000191,1492.5922000000476,1491.5763000001907,1492.0927000000477,1488.9428000001906,1491.5763000001907,1492.5923000001906,1493.0924000000953,1493.0924000000953,1495.7592000000477,2413.0,1495.7592000000477,5.0,1495.7655,3.0,11.0,101.0,9.0,1.0,1.6,0.7,Time
,,S08,1,女,21,anonymized,Serial_Dependence_U,2023.2.3,Win32,59.88023952096852,,,,,,1495.7657000000477,125.0,3.0,1495.7657000000477,125.0,,,,1499.1092000000476,1499.6083000001906,1498.5923000001906,1499.1092000000476,1496.7593000001907,1498.5923000001906,1499.6083000001906,1500.1088000001905,1500.1088000001905,1501.8423000001906,1400.0,1501.8424000000953,5.0,1501.8486000001428,3.0,12.0,102.0,15.0,1.0,0.8,0.7,Time
,,S08,1,女,21,anonymized,Serial_Dependence_U,2023.2.3,Win32,59.88023952096852,,,,,,1501.8488000001903,188.0,3.0,1501.849,188.0,,,,1506.025600000143,1506.5253000001906,1505.5092000000477,1506.025600000143,1502.842600000143,1505.509100000143,1506.5253000001906,1507.0251000001429,1507.0251000001429,1509.4087000000477,2069.0,1509.4088000001907,4.0,1509.415,3.0,13.0,103.0,4.0,1.0,1.6,0.3,Time
,,S08,1,女,21,anonymized,Serial_Dependence_U,2023.2.3,Win32,59.88023952096852,,,,,,1509.4152000000477,135.0,3.0,1509.4152000000477,135.0,,,,1513.159,1513.6584999999998,1512.6427000000476,1513.1589000000952,1510.4092000000476,1512.6427000000476,1513.6584999999998,1514.1584999999998,1514.1584999999998,1516.5089999999998,1994.0,1516.509100000143,5.0,1516.515,3.0,14.0,104.0,17.0,1.0,1.2,0.7,Time
,,S08,1,女,21,anonymized,Serial_Dependence_U,2023.2.3,Win32,59.88023952096852,,,,,,1516.5153000001906,140.0,3.0,1516.5153000001906,140.0,,,,1520.0922000000476,1520.5917000000477,1519.5754000000952,1520.0922000000476,1517.5089999999998,1519.5754000000952,1520.5917000000477,1521.091600000143,1521.091600000143,1523.5584000000952,2100.0,1523.5585,5.0,1523.5653000001903,3.0,15.0,105.0,11.0,1.0,1.0,0.3,Time
,,S08,1,女,21,anonymized,Serial_Dependence_U,2023.2.3,Win32,59.88023952096852,,,,,,1523.5655,46.0,3.0,1523.5655,46.0,,,,1527.3253000001905,1527.8247000000476,1526.8085,1527.3253000001905,1524.5752000000475,1526.8085,1527.8247000000476,1528.3247000000476,1528.3247000000476,1530.3417000000477,1734.0,1530.3417000000477,5.0,1530.348100000143,3.0,16.0,106.0,7.0,1.0,1.2,0.7,Time
,,S08,1,女,21,anonymized,Serial_Dependence_U,2023.2.3,Win32,59.88023952096852,,,,,,1530.3483000001906,356.0,3.0,1530.3484000000954,356.0,,,,1534.292,1534.791400000095,1533.7753000001906,1534.2919000000952,1531.3418000001907,1533.7752000000476,1534.7914999999998,1535.2914999999998,1535.2914999999998,1537.6083000001906,1838.0,1537.6084000000951,5.0,1537.6142000000475,3.0,17.0,107.0,18.0,1.0,1.4,0.7,Time
,,S08,1,女,21,anonymized,Serial_Dependence_U,2023.2.3,Win32,59.88023952096852,,,,,,1537.6144000000952,258.0,3.0,1537.6144000000952,258.0,,,,1541.3918000001906,1541.8914000000952,1540.875100000143,1541.3918000001906,1538.6082000000476,1540.8749999999998,1541.8914000000952,1542.391600000143,1542.391600000143,1544.841600000143,2134.0,1544.841600000143,5.0,1544.849100000143,3.0,18.0,108.0,2.0,1.0,1.2,0.3,Time
,,S08,1,女,21,anonymized,Serial_Dependence_U,2023.2.3,Win32,59.88023952096852,,,,,,1544.849400000095,357.0,3.0,1544.849400000095,357.0,,,,1548.7914999999998,1549.2912000000476,1548.2749000000952,1548.791400000095,1545.8417000000477,1548.274800000191,1549.2912000000476,1549.7912000000476,1549.7912000000476,1552.2415,2136.0,1552.2415,5.0,1552.2475,3.0,19.0,109.0,8.0,1.0,1.4,0.7,Time
,,S08,1,女,21,anonymized,Serial_Dependence_U,2023.2.3,Win32,59.88023952096852,,,,,,1552.247600000143,31.0,3.0,1552.2477000000476,31.0,,,,1556.2249000000952,1556.724100000143,1555.7084000000953,1556.2248000001907,1553.2419000000953,1555.7084000000953,1556.724100000143,1557.2244999999998,1557.2244999999998,1559.6413000001903,2057.0,1559.6413000001903,5.0,1559.6472000000476,3.0,20.0,110.0,13.0,1.0,1.4,0.3,Time
,,S08,1,女,21,anonymized,Serial_Dependence_U,2023.2.3,Win32,59.88023952096852,,,,,,1559.6474999999998,251.0,3.0,1559.6474999999998,251.0,,,,1563.1914000000952,1563.691100000143,1562.6749000000952,1563.1913000001907,1560.641600000143,1562.6749000000952,1563.691100000143,1564.191100000143,1564.191100000143,1566.1247000000476,1650.0,1566.1247000000476,5.0,1566.1304000000953,3.0,21.0,111.0,6.0,1.0,1.0,0.7,Time
,,S08,1,女,21,anonymized,Serial_Dependence_U,2023.2.3,Win32,59.88023952096852,,,,,,1566.1307000000477,265.0,3.0,1566.1307000000477,265.0,,,,1569.458,1569.957600000143,1568.957800000191,1569.458,1567.1249999999998,1568.9577000000477,1569.957600000143,1570.4577000000477,1570.4577000000477,1571.6913000001907,852.0,1571.6914000000952,4.0,1571.6971000001429,3.0,22.0,112.0,5.0,1.0,0.8,0.7,Time
,,S08,1,女,21,anonymized,Serial_Dependence_U,2023.2.3,Win32,59.88023952096852,,,,,,1571.6973000001906,220.0,3.0,1571.6974000000953,220.0,,,,1575.2247000000475,1575.724100000143,1574.7243000001906,1575.2247000000475,1572.691100000143,1574.7242000000476,1575.724100000143,1576.224100000143,1576.224100000143,1578.1742000000477,1604.0,1578.1742000000477,5.0,1578.1804000000952,3.0,23.0,113.0,26.0,1.0,1.0,0.7,Time
,,S08,1,女,21,anonymized,Serial_Dependence_U,2023.2.3,Win32,59.88023952096852,,,,,,1578.180600000143,200.0,3.0,1578.180600000143,200.0,,,,1581.5575,1582.0569999999998,1581.041,1581.5575,1579.1745,1581.041,1582.0569999999998,1582.5569999999998,1582.5569999999998,1587.9907000000476,1486.0,1587.9907000000476,5.0,1587.9973000001903,3.0,24.0,114.0,10.0,1.0,0.8,0.3,Time
,,S08,1,女,21,anonymized,Serial_Dependence_U,2023.2.3,Win32,59.88023952096852,,,,,,1587.9975,245.0,3.0,1587.9975,245.0,,,,1591.5742000000475,1592.0739000000951,1591.0577000000476,1591.5741000001428,1588.991100000143,1591.0577000000476,1592.0739000000951,1592.5739999999998,1592.5739999999998,1595.2238000001903,2190.0,1595.2239000000952,5.0,1595.2297000000476,3.0,25.0,115.0,1.0,1.0,1.0,0.3,Time
,,S08,1,女,21,anonymized,Serial_Dependence_U,2023.2.3,Win32,59.88023952096852,,,,,,1595.2299999999998,117.0,3.0,1595.230100000143,117.0,,,,1598.6076000001428,1599.107,1598.091,1598.6076000001428,1596.224,1598.0909000000952,1599.107100000143,1599.6069000000953,1599.6069000000953,1601.8239999999998,1987.0,1601.8241000001428,5.0,1601.830600000143,3.0,26.0,116.0,0.0,1.0,0.8,0.3,Time
,,S08,1,女,21,anonymized,Serial_Dependence_U,2023.2.3,Win32,59.88023952096852,,,,,,1601.8308000001907,233.0,3.0,1601.831,233.0,,,,1605.807100000143,1606.3069000000953,1605.2907000000475,1605.8069999999998,1602.8242000000475,1605.2906000001428,1606.3069000000953,1606.8069000000953,1606.8069000000953,1609.857,2439.0,1609.857100000143,5.0,1609.8633000001903,3.0,27.0,117.0,23.0,1.0,1.4,0.3,Time
,,S08,1,女,21,anonymized,Serial_Dependence_U,2023.2.3,Win32,59.88023952096852,,,,,,1609.8635,186.0,3.0,1609.863600000143,186.0,,,,1613.9907000000476,1614.4906000001429,1613.4905,1613.9906000001429,1610.857300000191,1613.4904000000952,1614.4908000001906,1614.9903000001907,1614.9903000001907,1617.7908000001903,2393.0,1617.7908000001903,5.0,1617.7972000000475,3.0,28.0,118.0,29.0,1.0,1.6,0.7,Time
,,S08,1,女,21,anonymized,Serial_Dependence_U,2023.2.3,Win32,59.88023952096852,,,,,,1617.7974000000952,269.0,3.0,1617.7974000000952,269.0,,,,1621.3738000001906,1621.873100000143,1620.8572000000477,1621.3737000000476,1618.7907000000475,1620.8572000000477,1621.873100000143,1622.3732000000475,1622.3732000000475,1624.5238000001907,1849.0,1624.5239000000952,5.0,1624.53,3.0,29.0,119.0,21.0,1.0,1.0,0.3,Time
,,S08,1,女,21,anonymized,Serial_Dependence_U,2023.2.3,Win32,59.88023952096852,,,,,,1624.530100000143,147.0,4.0,1630.8809000000952,147.0,s,6.3292999999523545,,1634.8621000001428,1635.3567000000476,1634.3462000000477,1634.8621000001428,1631.8794000000953,1634.346100000143,1635.3568000001906,1635.8564000000952,1635.8565,1638.6304000000953,2401.0,1638.6305,5.0,1638.6358000001906,4.0,0.0,120.0,23.0,1.0,1.4,0.3,Time
,,S08,1,女,21,anonymized,Serial_Dependence_U,2023.2.3,Win32,59.88023952096852,,,,,,1638.636100000143,21.0,4.0,1638.6367000000475,21.0,,,,1642.3799000000952,1642.8732000000475,1641.8794999999998,1642.3799000000952,1639.6462000000477,1641.8794999999998,1642.8733000001905,1643.373100000143,1643.373100000143,1646.0802000000476,2384.0,1646.0803000001906,5.0,1646.0858000001906,4.0,1.0,121.0,27.0,1.0,1.2,0.7,Time
,,S08,1,女,21,anonymized,Serial_Dependence_U,2023.2.3,Win32,59.88023952096852,,,,,,1646.086100000143,320.0,4.0,1646.0862000000477,320.0,,,,1650.0628000001907,1650.556100000143,1649.5624000000953,1650.0628000001907,1647.095600000143,1649.5624000000953,1650.5562000000475,1651.0559999999998,1651.056100000143,1653.713100000143,2183.0,1653.7132000000477,5.0,1653.7187000000476,4.0,2.0,122.0,3.0,1.0,1.4,0.3,Time
,,S08,1,女,21,anonymized,Serial_Dependence_U,2023.2.3,Win32,59.88023952096852,,,,,,1653.7188000001906,82.0,4.0,1653.7189000000951,82.0,,,,1657.496,1657.9897000000476,1656.995600000143,1657.496,1654.7294000000952,1656.995600000143,1657.9898000001906,1658.494100000143,1658.4942000000476,1661.046100000143,2166.0,1661.046100000143,5.0,1661.0512000000476,4.0,3.0,123.0,12.0,1.0,1.2,0.3,Time
,,S08,1,女,21,anonymized,Serial_Dependence_U,2023.2.3,Win32,59.88023952096852,,,,,,1661.051400000095,188.0,4.0,1661.0514999999998,188.0,,,,1665.1793000001906,1665.6728000001906,1664.678800000191,1665.1792000000476,1662.0459000000951,1664.678800000191,1665.6728000001906,1666.1723000001907,1666.1723000001907,1669.6301000001429,2884.0,1669.6302000000476,5.0,1669.6357000000476,4.0,4.0,124.0,29.0,1.0,1.6,0.7,Time
,,S08,1,女,21,anonymized,Serial_Dependence_U,2023.2.3,Win32,59.88023952096852,,,,,,1669.636,172.0,4.0,1669.636,172.0,,,,1673.2137000000475,1673.7054999999998,1672.712300000191,1673.2136000001428,1670.6454000000952,1672.712300000191,1673.7054999999998,1674.2058000001907,1674.2059000000952,1676.9965,2450.0,1676.9965,5.0,1677.002,4.0,5.0,125.0,11.0,1.0,1.0,0.3,Time
,,S08,1,女,21,anonymized,Serial_Dependence_U,2023.2.3,Win32,59.88023952096852,,,,,,1677.0022000000477,323.0,4.0,1677.0023000001906,323.0,,,,1680.3789000000952,1680.8728000001906,1679.8733000001905,1680.3789000000952,1678.0069999999998,1679.8732000000475,1680.8729000000951,1681.3723000001903,1681.3723000001903,1683.6798000001909,1818.0,1683.6799000000954,5.0,1683.685100000143,4.0,6.0,126.0,20.0,1.0,0.8,0.3,Time
,,S08,1,女,21,anonymized,Serial_Dependence_U,2023.2.3,Win32,59.88023952096852,,,,,,1683.6853000001906,158.0,4.0,1683.6854999999998,158.0,,,,1687.2453000001906,1687.7389999999998,1686.7285,1687.2452000000476,1684.6903000001903,1686.7284000000952,1687.739100000143,1688.227600000143,1688.2277000000477,1690.9292000000476,2350.0,1690.9293000001906,5.0,1690.9347000000475,4.0,7.0,127.0,26.0,1.0,1.0,0.7,Time
,,S08,1,女,21,anonymized,Serial_Dependence_U,2023.2.3,Win32,59.88023952096852,,,,,,1690.9349000000952,135.0,4.0,1690.935,135.0,,,,1694.7122000000477,1695.205600000143,1694.2119000000953,1694.7122000000477,1691.9435,1694.2118000001906,1695.205600000143,1695.7059000000952,1695.7059000000952,1698.0957000000476,1983.0,1698.0958000001906,5.0,1698.1015,4.0,8.0,128.0,22.0,1.0,1.2,0.3,Time
,,S08,1,女,21,anonymized,Serial_Dependence_U,2023.2.3,Win32,59.88023952096852,,,,,,1698.1017000000477,317.0,4.0,1698.101800000191,317.0,,,,1701.8452000000475,1702.3386000001428,1701.3439999999998,1701.845100000143,1699.1115,1701.3439000000951,1702.3387000000475,1702.8384999999998,1702.8384999999998,1705.3127000000477,2101.0,1705.3128000001907,5.0,1705.3184000000952,4.0,9.0,129.0,17.0,1.0,1.2,0.7,Time
,,S08,1,女,21,anonymized,Serial_Dependence_U,2023.2.3,Win32,59.88023952096852,,,,,,1705.3186000001429,33.0,4.0,1705.3187000000476,33.0,,,,1709.2755,1709.772100000143,1708.7613000001909,1709.2755,1706.328300000191,1708.7612000000477,1709.7723000001906,1710.272,1710.272100000143,1713.4287000000477,2600.0,1713.428800000191,5.0,1713.4354999999998,4.0,10.0,130.0,28.0,1.0,1.4,0.7,Time
,,S08,1,女,21,anonymized,Serial_Dependence_U,2023.2.3,Win32,59.88023952096852,,,,,,1713.4357000000475,103.0,4.0,1713.4358000001905,103.0,,,,1717.212,1717.705,1716.7115,1717.2119000000953,1714.4447000000475,1716.7115,1717.705100000143,1718.205,1718.205100000143,1720.9789999999998,2334.0,1720.9789999999998,5.0,1720.9843000001906,4.0,11.0,131.0,2.0,1.0,1.2,0.3,Time
,,S08,1,女,21,anonymized,Serial_Dependence_U,2023.2.3,Win32,59.88023952096852,,,,,,1720.984400000095,221.0,4.0,1720.9844999999998,221.0,,,,1724.361600000143,1724.8549000000953,1723.8613000001906,1724.361600000143,1721.9948000001907,1723.8613000001906,1724.8549999999998,1725.3554000000952,1725.3555,1727.6292000000476,1818.0,1727.6292000000476,5.0,1727.6346000001429,4.0,12.0,132.0,10.0,1.0,0.8,0.3,Time
,,S08,1,女,21,anonymized,Serial_Dependence_U,2023.2.3,Win32,59.88023952096852,,,,,,1727.6347000000476,126.0,4.0,1727.6347000000476,126.0,,,,1731.828,1732.322,1731.3113000001906,1731.828,1728.6448000001906,1731.3112000000476,1732.3221000001429,1732.8219000000952,1732.8222000000476,1733.328300000191,167.0,1733.328300000191,1.0,1733.3335,4.0,13.0,133.0,24.0,1.0,1.6,0.3,Time
,,S08,1,女,21,anonymized,Serial_Dependence_U,2023.2.3,Win32,59.88023952096852,,,,,,1733.3337000000477,313.0,4.0,1733.3337000000477,313.0,,,,1736.6614000000952,1737.1549000000953,1736.1609999999998,1736.6614000000952,1734.3276000001429,1736.1609000000954,1737.155100000143,1737.6547000000476,1737.6549000000953,1739.8284000000951,1750.0,1739.8284999999998,5.0,1739.8344000000952,4.0,14.0,134.0,5.0,1.0,0.8,0.7,Time
,,S08,1,女,21,anonymized,Serial_Dependence_U,2023.2.3,Win32,59.88023952096852,,,,,,1739.834600000143,349.0,4.0,1739.8347000000476,349.0,,,,1743.4283000001906,1743.9215,1742.9059000000952,1743.4282000000476,1740.8414999999998,1742.9058000001903,1743.921600000143,1744.4209999999998,1744.4209999999998,1746.6946000001428,1950.0,1746.6947000000475,5.0,1746.7008000001906,4.0,15.0,135.0,21.0,1.0,1.0,0.3,Time
,,S08,1,女,21,anonymized,Serial_Dependence_U,2023.2.3,Win32,59.88023952096852,,,,,,1746.7009999999998,190.0,4.0,1746.701100000143,190.0,,,,1750.1112000000476,1750.604600000143,1749.5942000000475,1750.1111000001429,1747.7112000000477,1749.5942000000475,1750.604600000143,1751.1044000000952,1751.1044000000952,1753.428600000143,2017.0,1753.428600000143,5.0,1753.4348000001903,4.0,16.0,136.0,0.0,1.0,0.8,0.3,Time
,,S08,1,女,21,anonymized,Serial_Dependence_U,2023.2.3,Win32,59.88023952096852,,,,,,1753.435,10.0,4.0,1753.435,10.0,,,,1757.394100000143,1757.8873000001906,1756.8765,1757.394100000143,1754.444,1756.8765,1757.887400000095,1758.3902000000476,1758.3902000000476,1761.0441000001429,2350.0,1761.0442000000476,5.0,1761.0496000001428,4.0,17.0,137.0,8.0,1.0,1.4,0.7,Time
,,S08,1,女,21,anonymized,Serial_Dependence_U,2023.2.3,Win32,59.88023952096852,,,,,,1761.0498000001903,108.0,4.0,1761.0498000001903,108.0,,,,1765.227600000143,1765.7212000000477,1764.7109000000953,1765.2274000000953,1762.0443000001906,1764.7109000000953,1765.7213000001907,1766.2212000000477,1766.2213000001907,1769.2108000001906,2617.0,1769.2109000000953,5.0,1769.216100000143,4.0,18.0,138.0,4.0,1.0,1.6,0.3,Time
,,S08,1,女,21,anonymized,Serial_Dependence_U,2023.2.3,Win32,59.88023952096852,,,,,,1769.2163000001906,105.0,4.0,1769.2164000000953,105.0,,,,1772.5612000000476,1773.054,1772.0437000000477,1772.5612000000476,1770.2105,1772.0437000000477,1773.054,1773.5545,1773.5545,1776.8272000000477,2667.0,1776.8274000000952,5.0,1776.832600000143,4.0,19.0,139.0,15.0,1.0,0.8,0.7,Time
,,S08,1,女,21,anonymized,Serial_Dependence_U,2023.2.3,Win32,59.88023952096852,,,,,,1776.832800000191,114.0,4.0,1776.8329000000952,114.0,,,,1780.177100000143,1780.6709000000951,1779.6604000000953,1780.177,1777.8269000000953,1779.6604000000953,1780.6709999999998,1781.1703000001903,1781.1703000001903,1783.694100000143,2167.0,1783.694100000143,5.0,1783.6995,4.0,20.0,140.0,25.0,1.0,0.8,0.7,Time
,,S08,1,女,21,anonymized,Serial_Dependence_U,2023.2.3,Win32,59.88023952096852,,,,,,1783.6997000000476,208.0,4.0,1783.6997000000476,208.0,,,,1787.6939000000953,1788.1873000001906,1787.1772000000476,1787.6938000001903,1784.710100000143,1787.177100000143,1788.1873000001906,1788.6873000001906,1788.6873000001906,1791.6778000001907,2650.0,1791.6778000001907,5.0,1791.683,4.0,21.0,141.0,13.0,1.0,1.4,0.3,Time
,,S08,1,女,21,anonymized,Serial_Dependence_U,2023.2.3,Win32,59.88023952096852,,,,,,1791.6832000000477,77.0,4.0,1791.6832000000477,77.0,,,,1795.8434000000952,1796.3374000000952,1795.3269000000953,1795.8434000000952,1792.6939000000953,1795.3268000001906,1796.3374000000952,1796.8372000000477,1796.8374000000952,1799.8609000000952,2734.0,1799.861,5.0,1799.866300000191,4.0,22.0,142.0,9.0,1.0,1.6,0.7,Time
,,S08,1,女,21,anonymized,Serial_Dependence_U,2023.2.3,Win32,59.88023952096852,,,,,,1799.8664000000952,334.0,4.0,1799.8665,334.0,,,,1803.826700000048,1804.321,1803.3103000001904,1803.826600000143,1800.8769000000952,1803.310200000048,1804.321100000143,1804.8207000000475,1804.8208000001907,1807.860200000048,2667.0,1807.8603000001904,5.0,1807.8656000001429,4.0,23.0,143.0,18.0,1.0,1.4,0.7,Time
,,S08,1,女,21,anonymized,Serial_Dependence_U,2023.2.3,Win32,59.88023952096852,,,,,,1807.865700000048,11.0,4.0,1807.8658000001903,11.0,,,,1812.0269000000956,1812.5204000000952,1811.5265,1812.0269000000956,1808.8597000000475,1811.5264000000952,1812.5204000000952,1813.0202000000477,1813.0204000000952,1816.0108000001903,2684.0,1816.0108000001903,5.0,1816.0161000001428,4.0,24.0,144.0,14.0,1.0,1.6,0.3,Time
,,S08,1,女,21,anonymized,Serial_Dependence_U,2023.2.3,Win32,59.88023952096852,,,,,,1816.0164000000952,232.0,4.0,1816.0164000000952,232.0,,,,1820.1569000000952,1820.6532000000475,1819.642700000048,1820.1568000001903,1817.010100000143,1819.642600000143,1820.6532000000475,1821.1534000000952,1821.1534000000952,1824.428,2967.0,1824.4281000001429,5.0,1824.4332000000477,4.0,25.0,145.0,19.0,1.0,1.6,0.7,Time
,,S08,1,女,21,anonymized,Serial_Dependence_U,2023.2.3,Win32,59.88023952096852,,,,,,1824.4334000000952,85.0,4.0,1824.4335,85.0,,,,1828.1928000001903,1828.693100000143,1827.676100000143,1828.192700000048,1825.4429000000955,1827.676100000143,1828.6932000000477,1829.1864000000955,1829.1865,1831.6435,2100.0,1831.643600000143,5.0,1831.6488000001907,4.0,26.0,146.0,7.0,1.0,1.2,0.7,Time
,,S08,1,女,21,anonymized,Serial_Dependence_U,2023.2.3,Win32,59.88023952096852,,,,,,1831.649,144.0,4.0,1831.6491000001429,144.0,,,,1835.2093000001903,1835.7029000000955,1834.693,1835.2093000001903,1832.6545,1834.693,1835.703,1836.203200000048,1836.203200000048,1838.443700000048,1684.0,1838.4438000001903,5.0,1838.4488000001909,4.0,27.0,147.0,16.0,1.0,1.0,0.7,Time
,,S08,1,女,21,anonymized,Serial_Dependence_U,2023.2.3,Win32,59.88023952096852,,,,,,1838.449,84.0,4.0,1838.4492000000475,84.0,,,,1842.0258000001909,1842.5193000001907,1841.525,1842.0258000001909,1839.4593000001903,1841.525,1842.5194000000952,1843.02,1843.020100000143,1845.776700000048,2434.0,1845.776700000048,5.0,1845.7823000001904,4.0,28.0,148.0,1.0,1.0,1.0,0.3,Time
,,S08,1,女,21,anonymized,Serial_Dependence_U,2023.2.3,Win32,59.88023952096852,,,,,,1845.782600000143,188.0,4.0,1845.782600000143,188.0,,,,1849.326600000143,1849.82,1848.8258000001904,1849.3265,1846.7924000000955,1848.8258000001904,1849.82,1850.32,1850.320100000143,1852.4765,1817.0,1852.4765,5.0,1852.4818000001903,4.0,29.0,149.0,6.0,1.0,1.0,0.7,Time
,,S08,1,女,21,anonymized,Serial_Dependence_U,2023.2.3,Win32,59.88023952096852,,,,,,1852.482,4.0,5.0,1855.253200000048,4.0,s,2.7569999999998345,,1859.204,1859.7028000001903,1858.693,1859.204,1856.2595,1858.693,1859.7028000001903,1860.2029000000955,1860.203,1862.692,2133.0,1862.6922000000477,5.0,1862.6979000000952,5.0,0.0,150.0,18.0,1.0,1.4,0.7,Time
,,S08,1,女,21,anonymized,Serial_Dependence_U,2023.2.3,Win32,59.88023952096852,,,,,,1862.698,233.0,5.0,1862.698600000143,233.0,,,,1866.0423000001904,1866.5361000001428,1865.542100000143,1866.0423000001904,1863.7094000000952,1865.542,1866.5361000001428,1867.036,1867.036,1869.659800000191,2150.0,1869.659800000191,5.0,1869.6654000000956,5.0,1.0,151.0,25.0,1.0,0.8,0.7,Time
,,S08,1,女,21,anonymized,Serial_Dependence_U,2023.2.3,Win32,59.88023952096852,,,,,,1869.6655,98.0,5.0,1869.6656000001428,98.0,,,,1873.6589000000952,1874.152700000048,1873.142100000143,1873.6589000000952,1870.675200000048,1873.142100000143,1874.1528000001904,1874.6529000000955,1874.653,1877.6266000001428,2584.0,1877.6267000000475,5.0,1877.6318000001909,5.0,2.0,152.0,13.0,1.0,1.4,0.3,Time
,,S08,1,女,21,anonymized,Serial_Dependence_U,2023.2.3,Win32,59.88023952096852,,,,,,1877.632,253.0,5.0,1877.632,253.0,,,,1881.809100000143,1882.302600000143,1881.3088000001903,1881.809100000143,1878.6423000001903,1881.3086000001429,1882.3027000000477,1882.8024000000955,1882.8024000000955,1885.8589000000952,2733.0,1885.859,5.0,1885.8643000001907,5.0,3.0,153.0,14.0,1.0,1.6,0.3,Time
,,S08,1,女,21,anonymized,Serial_Dependence_U,2023.2.3,Win32,59.88023952096852,,,,,,1885.8645,322.0,5.0,1885.8645,322.0,,,,1889.8089000000955,1890.3023000001904,1889.2923000001904,1889.8089000000955,1886.858600000143,1889.2923000001904,1890.3024000000955,1890.8023000001904,1890.8024000000955,1893.3249000000956,2233.0,1893.325,5.0,1893.330200000048,5.0,4.0,154.0,28.0,1.0,1.4,0.7,Time
,,S08,1,女,21,anonymized,Serial_Dependence_U,2023.2.3,Win32,59.88023952096852,,,,,,1893.3304000000956,213.0,5.0,1893.3304000000956,213.0,,,,1896.9083000001904,1897.4022000000475,1896.3922000000475,1896.908200000048,1894.3262000000475,1896.3922000000475,1897.4022000000475,1897.9022000000475,1897.9022000000475,1900.309,1916.0,1900.309,5.0,1900.3142000000475,5.0,5.0,155.0,11.0,1.0,1.0,0.3,Time
,,S08,1,女,21,anonymized,Serial_Dependence_U,2023.2.3,Win32,59.88023952096852,,,,,,1900.3143000001903,295.0,5.0,1900.3144000000952,295.0,,,,1904.4583000001903,1904.952700000048,1903.9419000000955,1904.458200000048,1901.3085,1903.9418000001904,1904.9528000001903,1905.451600000143,1905.451600000143,1908.0418000001905,2249.0,1908.0419000000952,5.0,1908.0475,5.0,6.0,156.0,29.0,1.0,1.6,0.7,Time
,,S08,1,女,21,anonymized,Serial_Dependence_U,2023.2.3,Win32,59.88023952096852,,,,,,1908.047600000143,130.0,5.0,1908.047700000048,130.0,,,,1911.591200000048,1912.0853000001907,1911.074600000143,1911.591100000143,1909.0414000000956,1911.074600000143,1912.0854000000952,1912.5849000000956,1912.585,1914.8265,1934.0,1914.8265,5.0,1914.8318000001907,5.0,7.0,157.0,16.0,1.0,1.0,0.7,Time
,,S08,1,女,21,anonymized,Serial_Dependence_U,2023.2.3,Win32,59.88023952096852,,,,,,1914.8319000000952,223.0,5.0,1914.832,223.0,,,,1918.1915,1918.685600000143,1917.6749000000952,1918.1915,1915.8407000000475,1917.6749000000952,1918.685600000143,1919.185200000048,1919.185200000048,1921.458600000143,1901.0,1921.458700000048,5.0,1921.464200000048,5.0,8.0,158.0,5.0,1.0,0.8,0.7,Time
,,S08,1,女,21,anonymized,Serial_Dependence_U,2023.2.3,Win32,59.88023952096852,,,,,,1921.4644000000956,213.0,5.0,1921.4645,213.0,,,,1925.0527000000477,1925.5518000001907,1924.5413000001904,1925.052600000143,1922.475100000143,1924.5413000001904,1925.5518000001907,1926.0519000000952,1926.052,1928.5749000000956,2216.0,1928.575,5.0,1928.580200000048,5.0,9.0,159.0,21.0,1.0,1.0,0.3,Time
,,S08,1,女,21,anonymized,Serial_Dependence_U,2023.2.3,Win32,59.88023952096852,,,,,,1928.5804000000956,229.0,5.0,1928.5805,229.0,,,,1932.3525,1932.8517000000477,1931.842,1932.3525,1929.574600000143,1931.8419000000952,1932.851800000191,1933.351200000048,1933.3513000001903,1936.4253000001904,2666.0,1936.4254000000956,5.0,1936.4308000001904,5.0,10.0,160.0,2.0,1.0,1.2,0.3,Time
,,S08,1,女,21,anonymized,Serial_Dependence_U,2023.2.3,Win32,59.88023952096852,,,,,,1936.431,311.0,5.0,1936.431,311.0,,,,1940.191600000143,1940.6847000000475,1939.691100000143,1940.1915,1937.4244000000951,1939.6909000000956,1940.6848000001903,1941.185200000048,1941.185200000048,1943.658600000143,2283.0,1943.6587000000477,5.0,1943.664300000191,5.0,11.0,161.0,12.0,1.0,1.2,0.3,Time
,,S08,1,女,21,anonymized,Serial_Dependence_U,2023.2.3,Win32,59.88023952096852,,,,,,1943.6645,352.0,5.0,1943.6646000001429,352.0,,,,1947.0576000001429,1947.551,1946.541,1947.0576000001429,1944.674100000143,1946.541,1947.551,1948.051,1948.051,1950.9581000001428,2534.0,1950.9581000001428,5.0,1950.963200000048,5.0,12.0,162.0,10.0,1.0,0.8,0.3,Time
,,S08,1,女,21,anonymized,Serial_Dependence_U,2023.2.3,Win32,59.88023952096852,,,,,,1950.9634000000956,325.0,5.0,1950.9634000000956,325.0,,,,1954.7073000001903,1955.2014000000952,1954.190700000048,1954.707200000048,1951.9575,1954.190700000048,1955.2015,1955.7013000001907,1955.7014000000952,1958.7248000001907,2700.0,1958.7249000000957,5.0,1958.7301000001428,5.0,13.0,163.0,27.0,1.0,1.2,0.7,Time
,,S08,1,女,21,anonymized,Serial_Dependence_U,2023.2.3,Win32,59.88023952096852,,,,,,1958.7303000001905,160.0,5.0,1958.7303000001905,160.0,,,,1962.4738000001903,1962.968,1961.9579000000952,1962.4738000001903,1959.724200000048,1961.9578000001904,1962.968100000143,1963.4679000000956,1963.468,1966.0409000000952,2267.0,1966.0409000000952,5.0,1966.046100000143,5.0,14.0,164.0,7.0,1.0,1.2,0.7,Time
,,S08,1,女,21,anonymized,Serial_Dependence_U,2023.2.3,Win32,59.88023952096852,,,,,,1966.046200000048,221.0,5.0,1966.0464000000957,221.0,,,,1970.2236000001428,1970.718,1969.7075,1970.2236000001428,1967.0406000001428,1969.7073000001908,1970.718100000143,1971.218,1971.218100000143,1974.325100000143,2785.0,1974.325200000048,5.0,1974.3305,5.0,15.0,165.0,24.0,1.0,1.6,0.3,Time
,,S08,1,女,21,anonymized,Serial_Dependence_U,2023.2.3,Win32,59.88023952096852,,,,,,1974.3306000001428,284.0,5.0,1974.3306000001428,284.0,,,,1977.9235,1978.417400000095,1977.4073000001904,1977.9235,1975.337700000048,1977.407200000048,1978.4175,1978.9175,1978.9176000001428,1981.7408000001908,2483.0,1981.740900000095,5.0,1981.7464000000955,5.0,16.0,166.0,1.0,1.0,1.0,0.3,Time
,,S08,1,女,21,anonymized,Serial_Dependence_U,2023.2.3,Win32,59.88023952096852,,,,,,1981.746600000143,292.0,5.0,1981.746600000143,292.0,,,,1985.1405,1985.6338000001908,1984.624,1985.140400000095,1982.7571000001428,1984.6239000000955,1985.6338000001908,1986.1343000001905,1986.1343000001905,1988.8578000001903,2367.0,1988.8578000001903,5.0,1988.8636000001432,5.0,17.0,167.0,0.0,1.0,0.8,0.3,Time
,,S08,1,女,21,anonymized,Serial_Dependence_U,2023.2.3,Win32,59.88023952096852,,,,,,1988.8637000000476,266.0,5.0,1988.8638000001904,266.0,,,,1992.2568000001904,1992.7502000000477,1991.740600000143,1992.2568000001904,1989.8734000000952,1991.740600000143,1992.7502000000477,1993.2505,1993.2505,1995.4246000001428,1799.0,1995.4246000001428,5.0,1995.429700000048,5.0,18.0,168.0,20.0,1.0,0.8,0.3,Time
,,S08,1,女,21,anonymized,Serial_Dependence_U,2023.2.3,Win32,59.88023952096852,,,,,,1995.4299000000956,14.0,5.0,1995.4299000000956,14.0,,,,1999.590100000143,2000.0843000001908,1999.073400000095,1999.59,1996.4404000000952,1999.073200000048,2000.0844000000957,2000.5838000001904,2000.5838000001904,2003.0578000001908,2134.0,2003.0578000001908,5.0,2003.0629000000952,5.0,19.0,169.0,19.0,1.0,1.6,0.7,Time
,,S08,1,女,21,anonymized,Serial_Dependence_U,2023.2.3,Win32,59.88023952096852,,,,,,2003.0631000001429,25.0,5.0,2003.063200000048,25.0,,,,2006.423100000143,2006.9173000001908,2005.907100000143,2006.423100000143,2004.0735,2005.907,2006.9175,2007.4173000001908,2007.417400000095,2009.773700000048,1860.0,2009.7738000001907,5.0,2009.778900000095,5.0,20.0,170.0,15.0,1.0,0.8,0.7,Time
,,S08,1,女,21,anonymized,Serial_Dependence_U,2023.2.3,Win32,59.88023952096852,,,,,,2009.7791000001428,100.0,5.0,2009.7791000001428,100.0,,,,2013.7228000001908,2014.2169000000952,2013.2059000000952,2013.722700000048,2010.7735,2013.2058000001905,2014.217,2014.7167000000477,2014.7168000001905,2015.157700000048,1.0,2015.1578000001907,1.0,2015.162900000095,5.0,21.0,171.0,8.0,1.0,1.4,0.7,Time
,,S08,1,女,21,anonymized,Serial_Dependence_U,2023.2.3,Win32,59.88023952096852,,,,,,2015.1631000001428,3.0,5.0,2015.1631000001428,3.0,,,,2019.155700000048,2019.65,2018.6402000000476,2019.155700000048,2016.173200000048,2018.6402000000476,2019.65,2020.1505,2020.1505,2022.6174000000956,1973.0,2022.617600000143,5.0,2022.623600000143,5.0,22.0,172.0,23.0,1.0,1.4,0.3,Time
,,S08,1,女,21,anonymized,Serial_Dependence_U,2023.2.3,Win32,59.88023952096852,,,,,,2022.6238000001904,175.0,5.0,2022.6239000000955,175.0,,,,2026.5896000001428,2027.0835,2026.089,2026.5895,2023.6227000000476,2026.089,2027.083600000143,2027.583200000048,2027.583200000048,2030.5737000000477,2684.0,2030.5738000001904,5.0,2030.579100000143,5.0,23.0,173.0,3.0,1.0,1.4,0.3,Time
,,S08,1,女,21,anonymized,Serial_Dependence_U,2023.2.3,Win32,59.88023952096852,,,,,,2030.579200000048,277.0,5.0,2030.5793000001904,277.0,,,,2034.372200000048,2034.8663000001904,2033.8564000000956,2034.372100000143,2031.5895,2033.8564000000956,2034.8663000001904,2035.367200000048,2035.3673000001909,2036.1068000001908,434.0,2036.1068000001908,1.0,2036.112,5.0,24.0,174.0,22.0,1.0,1.2,0.3,Time
,,S08,1,女,21,anonymized,Serial_Dependence_U,2023.2.3,Win32,59.88023952096852,,,,,,2036.112200000048,83.0,5.0,2036.1123000001903,83.0,,,,2040.289900000095,2040.7831000001431,2039.7894000000956,2040.2898000001908,2037.1227000000476,2039.7894000000956,2040.7832000000476,2041.2832000000476,2041.2832000000476,2044.6074000000951,2817.0,2044.6075,5.0,2044.6128000001904,5.0,25.0,175.0,4.0,1.0,1.6,0.3,Time
,,S08,1,女,21,anonymized,Serial_Dependence_U,2023.2.3,Win32,59.88023952096852,,,,,,2044.613,248.0,5.0,2044.613,248.0,,,,2048.172600000143,2048.6665000000003,2047.6561000001427,2048.172600000143,2045.6224000000957,2047.656,2048.6666000001437,2049.1665000000003,2049.1665000000003,2052.123800000191,2451.0,2052.1239000000955,5.0,2052.129200000048,5.0,26.0,176.0,26.0,1.0,1.0,0.7,Time
,,S08,1,女,21,anonymized,Serial_Dependence_U,2023.2.3,Win32,59.88023952096852,,,,,,2052.129300000191,286.0,5.0,2052.129300000191,286.0,,,,2055.883700000048,2056.3825,2055.372900000096,2055.883600000144,2053.139200000048,2055.37280000019,2056.382600000143,2056.8830000000003,2056.8830000000003,2059.6234000000954,2434.0,2059.623600000143,5.0,2059.629300000191,5.0,27.0,177.0,17.0,1.0,1.2,0.7,Time
,,S08,1,女,21,anonymized,Serial_Dependence_U,2023.2.3,Win32,59.88023952096852,,,,,,2059.6294000000958,336.0,5.0,2059.6295,336.0,,,,2063.789,2064.282800000191,2063.2728000001907,2063.789,2060.639300000191,2063.272700000048,2064.282900000096,2064.782900000096,2064.782900000096,2067.773,2600.0,2067.773,5.0,2067.778200000048,5.0,28.0,178.0,9.0,1.0,1.6,0.7,Time
,,S08,1,女,21,anonymized,Serial_Dependence_U,2023.2.3,Win32,59.88023952096852,,,,,,2067.778400000096,306.0,5.0,2067.778400000096,306.0,,,,2071.322200000048,2071.8154000000955,2070.8055,2071.322100000143,2068.772200000048,2070.8055,2071.8154000000955,2072.316200000048,2072.316300000191,2075.539800000191,2967.0,2075.539800000191,5.0,2075.545100000143,5.0,29.0,179.0,6.0,1.0,1.0,0.7,Time
,,S08,1,女,21,anonymized,Serial_Dependence_U,2023.2.3,Win32,59.88023952096852,,,,,,2075.545200000048,314.0,6.0,2142.5048000001907,314.0,s,66.94009999990476,,2146.271400000096,2146.764200000048,2145.770700000048,2146.271400000096,2143.504300000191,2145.770600000143,2146.764300000191,2147.264800000191,2147.264900000096,2150.405200000048,2784.0,2150.405300000191,5.0,2150.410600000143,6.0,0.0,180.0,2.0,1.0,1.2,0.3,Time
,,S08,1,女,21,anonymized,Serial_Dependence_U,2023.2.3,Win32,59.88023952096852,,,,,,2150.41080000019,151.0,6.0,2150.411700000048,151.0,,,,2154.0044000000958,2154.497600000143,2153.4880000000003,2154.004300000191,2151.420800000191,2153.4880000000003,2154.497700000048,2154.997400000096,2154.997400000096,2156.838200000048,1534.0,2156.838300000191,5.0,2156.843700000048,6.0,1.0,181.0,11.0,1.0,1.0,0.3,Time
,,S08,1,女,21,anonymized,Serial_Dependence_U,2023.2.3,Win32,59.88023952096852,,,,,,2156.84380000019,278.0,6.0,2156.844,278.0,,,,2161.034600000143,2161.5315,2160.5205,2161.0345,2157.854200000048,2160.5205,2161.5315,2162.030800000191,2162.030900000096,2164.638,2267.0,2164.638,5.0,2164.643200000048,6.0,2.0,182.0,14.0,1.0,1.6,0.3,Time
,,S08,1,女,21,anonymized,Serial_Dependence_U,2023.2.3,Win32,59.88023952096852,,,,,,2164.6434000000954,225.0,6.0,2164.6434000000954,225.0,,,,2168.784700000048,2169.281,2168.270100000143,2168.784600000143,2165.637200000048,2168.27,2169.281,2169.780900000096,2169.781,2172.571300000191,2450.0,2172.571300000191,5.0,2172.577,6.0,3.0,183.0,9.0,1.0,1.6,0.7,Time
,,S08,1,女,21,anonymized,Serial_Dependence_U,2023.2.3,Win32,59.88023952096852,,,,,,2172.577200000048,217.0,6.0,2172.577200000048,217.0,,,,2176.7209000000958,2177.214100000143,2176.220400000096,2176.720800000191,2173.587700000048,2176.220300000191,2177.214100000143,2177.714100000143,2177.714100000143,2180.320900000096,2067.0,2180.321,4.0,2180.3264000000954,6.0,4.0,184.0,29.0,1.0,1.6,0.7,Time
,,S08,1,女,21,anonymized,Serial_Dependence_U,2023.2.3,Win32,59.88023952096852,,,,,,2180.3265,62.0,6.0,2180.3265,62.0,,,,2184.0706000001437,2184.569700000048,2183.554100000143,2184.0705000000003,2181.3206000001437,2183.554,2184.569700000048,2185.0640000000003,2185.0640000000003,2187.188100000143,1817.0,2187.188100000143,5.0,2187.193700000048,6.0,5.0,185.0,7.0,1.0,1.2,0.7,Time
,,S08,1,女,21,anonymized,Serial_Dependence_U,2023.2.3,Win32,59.88023952096852,,,,,,2187.1939000000957,340.0,6.0,2187.194,340.0,,,,2191.187,2191.680900000096,2190.670600000143,2191.187,2188.2038000001908,2190.6705,2191.680900000096,2192.185700000048,2192.185700000048,2194.9868000001907,2416.0,2194.9869000000954,5.0,2194.992,6.0,6.0,186.0,23.0,1.0,1.4,0.3,Time
,,S08,1,女,21,anonymized,Serial_Dependence_U,2023.2.3,Win32,59.88023952096852,,,,,,2194.992200000048,312.0,6.0,2194.992300000191,312.0,,,,2198.336800000191,2198.8305,2197.820400000096,2198.336700000048,2195.9868000001907,2197.820300000191,2198.830600000143,2199.330600000143,2199.330600000143,2201.6376000001437,1951.0,2201.637700000048,5.0,2201.643,6.0,7.0,187.0,25.0,1.0,0.8,0.7,Time
,,S08,1,女,21,anonymized,Serial_Dependence_U,2023.2.3,Win32,59.88023952096852,,,,,,2201.643200000048,112.0,6.0,2201.6433000001907,112.0,,,,2205.803700000048,2206.296600000144,2205.286700000048,2205.803700000048,2202.653600000144,2205.286700000048,2206.296600000144,2206.797100000143,2206.797200000048,2209.204,2367.0,2209.204,5.0,2209.2095,6.0,8.0,188.0,19.0,1.0,1.6,0.7,Time
,,S08,1,女,21,anonymized,Serial_Dependence_U,2023.2.3,Win32,59.88023952096852,,,,,,2209.209700000048,275.0,6.0,2209.209700000048,275.0,,,,2213.403600000144,2213.896800000191,2212.886400000096,2213.4035,2210.2200000000003,2212.8863000001907,2213.896900000096,2214.396900000096,2214.397,2217.7205,2683.0,2217.720600000144,5.0,2217.7258000001907,6.0,9.0,189.0,24.0,1.0,1.6,0.3,Time
,,S08,1,女,21,anonymized,Serial_Dependence_U,2023.2.3,Win32,59.88023952096852,,,,,,2217.7259000000954,246.0,6.0,2217.726,246.0,,,,2221.9029000000955,2222.396700000048,2221.3875000000003,2221.902800000191,2218.719800000191,2221.387400000096,2222.396700000048,2222.8965000000003,2222.8966000001437,2225.646800000191,2403.0,2225.646900000096,5.0,2225.653200000048,6.0,10.0,190.0,4.0,1.0,1.6,0.3,Time
,,S08,1,女,21,anonymized,Serial_Dependence_U,2023.2.3,Win32,59.88023952096852,,,,,,2225.653400000096,246.0,6.0,2225.653400000096,246.0,,,,2229.63,2230.1298000001907,2229.1138000001906,2229.63,2226.647,2229.1138000001906,2230.1298000001907,2230.629700000048,2230.629700000048,2233.213200000048,2220.0,2233.213300000191,5.0,2233.2194000000954,6.0,11.0,191.0,13.0,1.0,1.4,0.3,Time
,,S08,1,女,21,anonymized,Serial_Dependence_U,2023.2.3,Win32,59.88023952096852,,,,,,2233.219700000048,248.0,6.0,2233.219700000048,248.0,,,,2237.1635,2237.663,2236.646700000048,2237.1635,2234.2136000001437,2236.6466000001437,2237.663100000143,2238.162700000048,2238.162700000048,2241.4965,2469.0,2241.496600000143,5.0,2241.502700000048,6.0,12.0,192.0,8.0,1.0,1.4,0.7,Time
,,S08,1,女,21,anonymized,Serial_Dependence_U,2023.2.3,Win32,59.88023952096852,,,,,,2241.5029000000955,80.0,6.0,2241.5029000000955,80.0,,,,2245.280100000143,2245.7795,2244.763600000143,2245.280100000143,2242.496700000048,2244.763600000143,2245.779600000143,2246.2795,2246.279600000143,2248.780100000143,2081.0,2248.780100000143,5.0,2248.786100000143,6.0,13.0,193.0,12.0,1.0,1.2,0.3,Time
,,S08,1,女,21,anonymized,Serial_Dependence_U,2023.2.3,Win32,59.88023952096852,,,,,,2248.7863000001907,198.0,6.0,2248.7863000001907,198.0,,,,2252.3631000001437,2252.862600000143,2251.846800000191,2252.3631000001437,2249.780100000143,2251.846700000048,2252.862700000048,2253.362800000191,2253.362800000191,2256.1295,2416.0,2256.129600000143,5.0,2256.1363000001907,6.0,14.0,194.0,21.0,1.0,1.0,0.3,Time
,,S08,1,女,21,anonymized,Serial_Dependence_U,2023.2.3,Win32,59.88023952096852,,,,,,2256.136400000096,289.0,6.0,2256.1365,289.0,,,,2259.512800000191,2260.012700000048,2258.9964000000955,2259.512800000191,2257.129700000048,2258.9964000000955,2260.012700000048,2260.512400000096,2260.5125000000003,2262.979700000048,2146.0,2262.979800000191,5.0,2262.9869000000954,6.0,15.0,195.0,10.0,1.0,0.8,0.3,Time
,,S08,1,女,21,anonymized,Serial_Dependence_U,2023.2.3,Win32,59.88023952096852,,,,,,2262.987100000143,289.0,6.0,2262.987200000048,289.0,,,,2266.979800000191,2267.479300000191,2266.463200000048,2266.979800000191,2263.9965,2266.463200000048,2267.479400000096,2267.9791000001437,2267.9791000001437,2270.279700000048,1950.0,2270.2799000000955,5.0,2270.285900000096,6.0,16.0,196.0,3.0,1.0,1.4,0.3,Time
,,S08,1,女,21,anonymized,Serial_Dependence_U,2023.2.3,Win32,59.88023952096852,,,,,,2270.286100000143,76.0,6.0,2270.286200000048,76.0,,,,2274.0295,2274.529,2273.513,2274.0295,2271.279700000048,2273.513,2274.529100000143,2275.0289000000957,2275.0289000000957,2277.345700000048,2004.0,2277.345700000048,5.0,2277.3520000000003,6.0,17.0,197.0,17.0,1.0,1.2,0.7,Time
,,S08,1,女,21,anonymized,Serial_Dependence_U,2023.2.3,Win32,59.88023952096852,,,,,,2277.352200000048,114.0,6.0,2277.352200000048,114.0,,,,2280.946,2281.445400000096,2280.429600000143,2280.945900000096,2278.362700000048,2280.4295,2281.445400000096,2281.9456000001437,2281.9456000001437,2284.445700000048,2188.0,2284.445700000048,5.0,2284.4514000000954,6.0,18.0,198.0,1.0,1.0,1.0,0.3,Time
,,S08,1,女,21,anonymized,Serial_Dependence_U,2023.2.3,Win32,59.88023952096852,,,,,,2284.451600000143,184.0,6.0,2284.451600000143,184.0,,,,2288.396,2288.8955,2287.879200000048,2288.396,2285.446,2287.879100000144,2288.8955,2289.395600000143,2289.395600000143,2291.895800000191,2212.0,2291.8959000000955,5.0,2291.901900000096,6.0,19.0,199.0,28.0,1.0,1.4,0.7,Time
,,S08,1,女,21,anonymized,Serial_Dependence_U,2023.2.3,Win32,59.88023952096852,,,,,,2291.902100000143,38.0,6.0,2291.902100000143,38.0,,,,2295.6459000000955,2296.145,2295.129200000048,2295.6459000000955,2292.8959000000955,2295.129100000144,2296.145,2296.6454000000954,2296.6454000000954,2297.528700000048,589.0,2297.528800000191,1.0,2297.534700000048,6.0,20.0,200.0,27.0,1.0,1.2,0.7,Time
,,S08,1,女,21,anonymized,Serial_Dependence_U,2023.2.3,Win32,59.88023952096852,,,,,,2297.534900000096,99.0,6.0,2297.5350000000003,99.0,,,,2301.0795000000003,2301.5785,2300.5625,2301.0795000000003,2298.5293000001907,2300.5625,2301.5785,2302.078600000143,2302.078600000143,2303.978900000096,1549.0,2303.9791000001437,5.0,2303.988200000048,6.0,21.0,201.0,16.0,1.0,1.0,0.7,Time
,,S08,1,女,21,anonymized,Serial_Dependence_U,2023.2.3,Win32,59.88023952096852,,,,,,2303.988400000096,258.0,6.0,2303.9885,258.0,,,,2307.328700000048,2307.828200000048,2306.812200000048,2307.328700000048,2304.978900000096,2306.812100000144,2307.828200000048,2308.3283000001907,2308.3283000001907,2310.745300000191,1986.0,2310.7454000000957,5.0,2310.751900000096,6.0,22.0,202.0,5.0,1.0,0.8,0.7,Time
,,S08,1,女,21,anonymized,Serial_Dependence_U,2023.2.3,Win32,59.88023952096852,,,,,,2310.752,326.0,6.0,2310.752,326.0,,,,2314.695300000191,2315.195100000143,2314.1788000001907,2314.695200000048,2311.7455,2314.1788000001907,2315.195100000143,2315.695,2315.695,2318.762100000143,2597.0,2318.762200000048,5.0,2318.7684000000954,6.0,23.0,203.0,18.0,1.0,1.4,0.7,Time
,,S08,1,女,21,anonymized,Serial_Dependence_U,2023.2.3,Win32,59.88023952096852,,,,,,2318.7685,340.0,6.0,2318.7685,340.0,,,,2322.5453000001908,2323.0448000001907,2322.028700000048,2322.5453000001908,2319.762,2322.028700000048,2323.0448000001907,2323.5448000001907,2323.5448000001907,2325.862,1947.0,2325.862,5.0,2325.86830000019,6.0,24.0,204.0,22.0,1.0,1.2,0.3,Time
,,S08,1,女,21,anonymized,Serial_Dependence_U,2023.2.3,Win32,59.88023952096852,,,,,,2325.8685,233.0,6.0,2325.868600000143,233.0,,,,2329.245100000144,2329.744800000191,2328.7285,2329.245100000144,2326.8619000000954,2328.7285,2329.744800000191,2330.2445,2330.2445,2332.6119000000954,2083.0,2332.612,5.0,2332.617700000048,6.0,25.0,205.0,20.0,1.0,0.8,0.3,Time
,,S08,1,女,21,anonymized,Serial_Dependence_U,2023.2.3,Win32,59.88023952096852,,,,,,2332.617900000096,173.0,6.0,2332.618,173.0,,,,2336.012200000048,2336.5115,2335.495300000191,2336.012100000143,2333.628700000048,2335.495300000191,2336.5115,2337.0115,2337.0115,2339.244800000191,1918.0,2339.244900000096,5.0,2339.250800000191,6.0,26.0,206.0,0.0,1.0,0.8,0.3,Time
,,S08,1,女,21,anonymized,Serial_Dependence_U,2023.2.3,Win32,59.88023952096852,,,,,,2339.2509000000955,24.0,6.0,2339.2509000000955,24.0,,,,2342.795100000143,2343.294700000048,2342.278200000048,2342.795,2340.245200000048,2342.278200000048,2343.294700000048,2343.794700000048,2343.7948000001907,2346.678,2340.0,2346.678,5.0,2346.684100000143,6.0,27.0,207.0,6.0,1.0,1.0,0.7,Time
,,S08,1,女,21,anonymized,Serial_Dependence_U,2023.2.3,Win32,59.88023952096852,,,,,,2346.684300000191,109.0,6.0,2346.684400000096,109.0,,,,2350.0281000001432,2350.527700000048,2349.5118000001908,2350.0279000000955,2347.6785,2349.5118000001908,2350.527800000191,2351.0279000000955,2351.028,2353.594800000191,2116.0,2353.5949000000955,5.0,2353.6008000001907,6.0,28.0,208.0,15.0,1.0,0.8,0.7,Time
,,S08,1,女,21,anonymized,Serial_Dependence_U,2023.2.3,Win32,59.88023952096852,,,,,,2353.601,40.0,6.0,2353.601100000143,40.0,,,,2357.128400000096,2357.627600000143,2356.628100000143,2357.128300000191,2354.5945,2356.628,2357.627600000143,2358.1278000001907,2358.1278000001907,2360.4448000001908,2063.0,2360.4449000000955,5.0,2360.450600000144,6.0,29.0,209.0,26.0,1.0,1.0,0.7,Time
,,S08,1,女,21,anonymized,Serial_Dependence_U,2023.2.3,Win32,59.88023952096852,,,,,,2360.450800000191,316.0,7.0,2363.3998000001907,316.0,s,2.925899999856938,,2366.978100000143,2367.4775,2366.462,2366.978,2364.394600000144,2366.462,2367.4775,2367.977600000143,2367.977600000143,2370.661100000143,2350.0,2370.661200000048,5.0,2370.6674000000958,7.0,0.0,210.0,1.0,1.0,1.0,0.3,Time
,,S08,1,女,21,anonymized,Serial_Dependence_U,2023.2.3,Win32,59.88023952096852,,,,,,2370.667700000048,257.0,7.0,2370.668300000191,257.0,,,,2374.027700000048,2374.5273000001907,2373.511100000143,2374.027600000143,2371.6775,2373.511,2374.5273000001907,2375.0274000000954,2375.0275,2377.410700000048,1993.0,2377.41080000019,5.0,2377.416800000191,7.0,1.0,211.0,25.0,1.0,0.8,0.7,Time
,,S08,1,女,21,anonymized,Serial_Dependence_U,2023.2.3,Win32,59.88023952096852,,,,,,2377.417,212.0,7.0,2377.417100000144,212.0,,,,2380.760800000191,2381.2605000000003,2380.244700000048,2380.760800000191,2378.4113000001907,2380.2446000001432,2381.2605000000003,2381.760700000048,2381.760700000048,2383.928,1727.0,2383.928100000144,5.0,2383.934100000143,7.0,2.0,212.0,5.0,1.0,0.8,0.7,Time
,,S08,1,女,21,anonymized,Serial_Dependence_U,2023.2.3,Win32,59.88023952096852,,,,,,2383.934300000191,281.0,7.0,2383.934300000191,281.0,,,,2387.877600000143,2388.377100000143,2387.361200000048,2387.8775,2384.9275,2387.361200000048,2388.377100000143,2388.87730000019,2388.87730000019,2391.794200000048,2543.0,2391.794200000048,5.0,2391.8,7.0,3.0,213.0,28.0,1.0,1.4,0.7,Time
,,S08,1,女,21,anonymized,Serial_Dependence_U,2023.2.3,Win32,59.88023952096852,,,,,,2391.800100000143,35.0,7.0,2391.800200000048,35.0,,,,2395.344200000048,2395.843700000048,2394.827700000048,2395.344200000048,2392.794300000191,2394.827700000048,2395.843700000048,2396.34380000019,2396.34380000019,2398.494100000143,1766.0,2398.494200000048,5.0,2398.5004000000954,7.0,4.0,214.0,6.0,1.0,1.0,0.7,Time
,,S08,1,女,21,anonymized,Serial_Dependence_U,2023.2.3,Win32,59.88023952096852,,,,,,2398.5005,139.0,7.0,2398.500600000143,139.0,,,,2402.244,2402.743600000143,2401.7274000000957,2402.244,2399.494300000191,2401.7274000000957,2402.743600000143,2403.243700000048,2403.243700000048,2405.877200000048,2350.0,2405.877200000048,5.0,2405.884,7.0,5.0,215.0,7.0,1.0,1.2,0.7,Time
,,S08,1,女,21,anonymized,Serial_Dependence_U,2023.2.3,Win32,59.88023952096852,,,,,,2405.884200000048,98.0,7.0,2405.8843000001907,98.0,,,,2409.62730000019,2410.126700000048,2409.110600000143,2409.62730000019,2406.877400000096,2409.110600000143,2410.126700000048,2410.627100000143,2410.627100000143,2413.2935,2338.0,2413.293600000143,5.0,2413.2994000000954,7.0,6.0,216.0,27.0,1.0,1.2,0.7,Time
,,S08,1,女,21,anonymized,Serial_Dependence_U,2023.2.3,Win32,59.88023952096852,,,,,,2413.299600000143,62.0,7.0,2413.299600000143,62.0,,,,2416.677300000191,2417.176600000143,2416.1604000000957,2416.677200000048,2414.2940000000003,2416.160300000191,2417.176600000143,2417.6768000001907,2417.6768000001907,2419.7439000000954,1716.0,2419.744,5.0,2419.749700000048,7.0,7.0,217.0,0.0,1.0,0.8,0.3,Time
,,S08,1,女,21,anonymized,Serial_Dependence_U,2023.2.3,Win32,59.88023952096852,,,,,,2419.7499000000957,52.0,7.0,2419.75,52.0,,,,2423.7104000000954,2424.21,2423.1939000000957,2423.7103000001907,2420.76,2423.1939000000957,2424.21,2424.71,2424.710100000143,2426.777,2031.0,2426.777,5.0,2426.782800000191,7.0,8.0,218.0,8.0,1.0,1.4,0.7,Time
,,S08,1,女,21,anonymized,Serial_Dependence_U,2023.2.3,Win32,59.88023952096852,,,,,,2426.782900000096,183.0,7.0,2426.783,183.0,,,,2430.343700000048,2430.843200000048,2429.843400000096,2430.343600000143,2427.776900000096,2429.843400000096,2430.843200000048,2431.343300000191,2431.343400000096,2434.1601000001438,2415.0,2434.160300000191,5.0,2434.166400000096,7.0,9.0,219.0,21.0,1.0,1.0,0.3,Time
,,S08,1,女,21,anonymized,Serial_Dependence_U,2023.2.3,Win32,59.88023952096852,,,,,,2434.1665000000003,141.0,7.0,2434.1666000001437,141.0,,,,2438.144100000143,2438.643,2437.626900000096,2438.144,2435.1601000001438,2437.626800000191,2438.643,2439.143200000048,2439.143200000048,2442.193,2535.0,2442.193100000143,5.0,2442.199,7.0,10.0,220.0,13.0,1.0,1.4,0.3,Time
,,S08,1,女,21,anonymized,Serial_Dependence_U,2023.2.3,Win32,59.88023952096852,,,,,,2442.199100000143,325.0,7.0,2442.199200000048,325.0,,,,2445.776700000048,2446.276400000096,2445.259800000191,2445.776600000143,2443.193400000096,2445.259800000191,2446.276400000096,2446.776300000191,2446.776300000191,2448.49330000019,1301.0,2448.493400000096,5.0,2448.4991000001432,7.0,11.0,221.0,11.0,1.0,1.0,0.3,Time
,,S08,1,女,21,anonymized,Serial_Dependence_U,2023.2.3,Win32,59.88023952096852,,,,,,2448.499300000191,38.0,7.0,2448.499300000191,38.0,,,,2452.276600000143,2452.7761000001437,2451.760100000143,2452.2765,2449.4935,2451.760100000143,2452.7761000001437,2453.2761000001437,2453.2761000001437,2455.6265000000003,1627.0,2455.6266000001438,5.0,2455.632600000143,7.0,12.0,222.0,22.0,1.0,1.2,0.3,Time
,,S08,1,女,21,anonymized,Serial_Dependence_U,2023.2.3,Win32,59.88023952096852,,,,,,2455.632800000191,245.0,7.0,2455.632900000096,245.0,,,,2459.409900000096,2459.9095,2458.8934000000954,2459.409700000048,2456.6265000000003,2458.8933000001907,2459.9095,2460.4094000000955,2460.4094000000955,2462.909700000048,1882.0,2462.909900000096,5.0,2462.915600000143,7.0,13.0,223.0,2.0,1.0,1.2,0.3,Time
,,S08,1,女,21,anonymized,Serial_Dependence_U,2023.2.3,Win32,59.88023952096852,,,,,,2462.9158000001908,267.0,7.0,2462.9159000000955,267.0,,,,2466.893100000143,2467.392400000096,2466.376100000143,2466.893,2463.909900000096,2466.376100000143,2467.392400000096,2467.8925,2467.8925,2470.6428000001906,2134.0,2470.642900000096,5.0,2470.648700000048,7.0,14.0,224.0,3.0,1.0,1.4,0.3,Time
,,S08,1,女,21,anonymized,Serial_Dependence_U,2023.2.3,Win32,59.88023952096852,,,,,,2470.648900000096,359.0,7.0,2470.649,359.0,,,,2474.009600000143,2474.508800000191,2473.5094000000954,2474.009600000143,2471.643,2473.5094000000954,2474.508800000191,2475.009200000048,2475.009200000048,2477.492800000191,2099.0,2477.492900000096,5.0,2477.498800000191,7.0,15.0,225.0,10.0,1.0,0.8,0.3,Time
,,S08,1,女,21,anonymized,Serial_Dependence_U,2023.2.3,Win32,59.88023952096852,,,,,,2477.4990000000003,290.0,7.0,2477.4990000000003,290.0,,,,2481.676,2482.1755000000003,2481.159300000191,2481.676,2478.492800000191,2481.159300000191,2482.1756000001437,2482.6755000000003,2482.6756000001437,2486.1929000000955,2963.0,2486.1929000000955,5.0,2486.198700000048,7.0,16.0,226.0,24.0,1.0,1.6,0.3,Time
,,S08,1,女,21,anonymized,Serial_Dependence_U,2023.2.3,Win32,59.88023952096852,,,,,,2486.198900000096,111.0,7.0,2486.199,111.0,,,,2489.742400000096,2490.2419000000955,2489.2258000001907,2489.742400000096,2487.192700000048,2489.2258000001907,2490.242,2490.742400000096,2490.742400000096,2493.625700000048,2383.0,2493.625800000191,5.0,2493.632700000048,7.0,17.0,227.0,26.0,1.0,1.0,0.7,Time
,,S08,1,女,21,anonymized,Serial_Dependence_U,2023.2.3,Win32,59.88023952096852,,,,,,2493.632800000191,297.0,7.0,2493.632900000096,297.0,,,,2497.609300000191,2498.1085000000003,2497.092200000048,2497.609200000048,2494.625800000191,2497.092200000048,2498.1085000000003,2498.608800000191,2498.608800000191,2501.508800000191,2601.0,2501.508800000191,5.0,2501.5155,7.0,18.0,228.0,23.0,1.0,1.4,0.3,Time
,,S08,1,女,21,anonymized,Serial_Dependence_U,2023.2.3,Win32,59.88023952096852,,,,,,2501.515700000048,322.0,7.0,2501.5158000001907,322.0,,,,2505.458800000191,2505.9585,2504.942200000048,2505.458800000191,2502.509200000048,2504.942200000048,2505.9585,2506.4585,2506.4585,2509.292100000144,2319.0,2509.292200000048,5.0,2509.298100000143,7.0,19.0,229.0,18.0,1.0,1.4,0.7,Time
,,S08,1,女,21,anonymized,Serial_Dependence_U,2023.2.3,Win32,59.88023952096852,,,,,,2509.298300000191,201.0,7.0,2509.298400000096,201.0,,,,2513.075600000144,2513.5750000000003,2512.5589000000955,2513.0755,2510.2924000000958,2512.5589000000955,2513.5750000000003,2514.0751000001437,2514.075200000048,2516.392300000191,2073.0,2516.3925,5.0,2516.3986000001432,7.0,20.0,230.0,12.0,1.0,1.2,0.3,Time
,,S08,1,女,21,anonymized,Serial_Dependence_U,2023.2.3,Win32,59.88023952096852,,,,,,2516.398800000191,67.0,7.0,2516.398800000191,67.0,,,,2519.958900000096,2520.458300000191,2519.442200000048,2519.958900000096,2517.408600000143,2519.442100000143,2520.458300000191,2520.958300000191,2520.9584000000955,2523.225200000048,1996.0,2523.225300000191,5.0,2523.231,7.0,21.0,231.0,16.0,1.0,1.0,0.7,Time
,,S08,1,女,21,anonymized,Serial_Dependence_U,2023.2.3,Win32,59.88023952096852,,,,,,2523.231300000191,306.0,7.0,2523.231300000191,306.0,,,,2526.574900000096,2527.074800000191,2526.0589000000955,2526.574900000096,2524.225300000191,2526.0589000000955,2527.074800000191,2527.574800000191,2527.574900000096,2529.941700000048,1828.0,2529.941800000191,5.0,2529.9485,7.0,22.0,232.0,15.0,1.0,0.8,0.7,Time
,,S08,1,女,21,anonymized,Serial_Dependence_U,2023.2.3,Win32,59.88023952096852,,,,,,2529.9488000001907,55.0,7.0,2529.9488000001907,55.0,,,,2534.1253000001907,2534.6245,2533.6086000001437,2534.1253000001907,2530.942200000048,2533.6085000000003,2534.6245,2535.124700000048,2535.124700000048,2537.5584000000954,2134.0,2537.5584000000954,5.0,2537.5645,7.0,23.0,233.0,14.0,1.0,1.6,0.3,Time
,,S08,1,女,21,anonymized,Serial_Dependence_U,2023.2.3,Win32,59.88023952096852,,,,,,2537.564700000048,155.0,7.0,2537.56480000019,155.0,,,,2540.9419000000958,2541.4410000000003,2540.425100000143,2540.9419000000958,2538.558600000143,2540.425,2541.4410000000003,2541.941300000191,2541.941300000191,2543.958,1699.0,2543.958200000048,5.0,2543.963900000096,7.0,24.0,234.0,20.0,1.0,0.8,0.3,Time
,,S08,1,女,21,anonymized,Serial_Dependence_U,2023.2.3,Win32,59.88023952096852,,,,,,2543.964100000143,21.0,7.0,2543.964200000048,21.0,,,,2547.691800000191,2548.1911000001437,2547.191400000096,2547.691800000191,2544.958200000048,2547.191300000191,2548.1911000001437,2548.6915,2548.6915,2551.158200000048,1967.0,2551.158300000191,5.0,2551.164100000143,7.0,25.0,235.0,17.0,1.0,1.2,0.7,Time
,,S08,1,女,21,anonymized,Serial_Dependence_U,2023.2.3,Win32,59.88023952096852,,,,,,2551.164300000191,259.0,7.0,2551.164300000191,259.0,,,,2555.341700000048,2555.841200000048,2554.824800000191,2555.341700000048,2552.1584000000958,2554.824800000191,2555.841200000048,2556.341100000144,2556.341100000144,2557.858100000143,1418.0,2557.858200000048,2.0,2557.866,7.0,26.0,236.0,4.0,1.0,1.6,0.3,Time
,,S08,1,女,21,anonymized,Serial_Dependence_U,2023.2.3,Win32,59.88023952096852,,,,,,2557.866200000048,55.0,7.0,2557.8663000001907,55.0,,,,2562.0081000001437,2562.507800000191,2561.4914000000954,2562.0081000001437,2558.858200000048,2561.4913000001907,2562.507800000191,2563.0073000001908,2563.0073000001908,2565.840900000096,2563.0,2565.841100000144,5.0,2565.847300000191,7.0,27.0,237.0,19.0,1.0,1.6,0.7,Time
,,S08,1,女,21,anonymized,Serial_Dependence_U,2023.2.3,Win32,59.88023952096852,,,,,,2565.847400000096,179.0,7.0,2565.8475000000003,179.0,,,,2569.990800000191,2570.4909000000957,2569.474700000048,2569.990800000191,2566.8414000000957,2569.4746000001437,2570.4909000000957,2570.991,2570.991100000143,2573.7575,2450.0,2573.757700000048,5.0,2573.764200000048,7.0,28.0,238.0,9.0,1.0,1.6,0.7,Time
,,S08,1,女,21,anonymized,Serial_Dependence_U,2023.2.3,Win32,59.88023952096852,,,,,,2573.7644000000955,304.0,7.0,2573.7644000000955,304.0,,,,2577.907900000096,2578.407300000191,2577.3913000001908,2577.907900000096,2574.757900000096,2577.391200000048,2578.4074000000955,2578.907300000191,2578.9074000000955,2581.407700000048,2167.0,2581.407700000048,5.0,2581.413800000191,7.0,29.0,239.0,29.0,1.0,1.6,0.7,Time
,,S08,1,女,21,anonymized,Serial_Dependence_U,2023.2.3,Win32,59.88023952096852,,,,,,2581.414,336.0,8.0,2584.124200000048,336.0,s,2.6944000000953565,,2587.8741000001432,2588.373600000143,2587.3575,2587.8741000001432,2585.124200000048,2587.3575,2588.373600000143,2588.873700000048,2588.873700000048,2591.424200000048,2234.0,2591.4243000001907,5.0,2591.430700000048,8.0,0.0,240.0,27.0,1.0,1.2,0.7,Time
,,S08,1,女,21,anonymized,Serial_Dependence_U,2023.2.3,Win32,59.88023952096852,,,,,,2591.431,273.0,8.0,2591.431700000048,273.0,,,,2595.3741000001432,2595.873600000143,2594.8573000001907,2595.3741000001432,2592.424100000143,2594.8573000001907,2595.873600000143,2596.373700000048,2596.373700000048,2599.123800000191,2250.0,2599.1240000000003,5.0,2599.1311000001438,8.0,1.0,241.0,8.0,1.0,1.4,0.7,Time
,,S08,1,女,21,anonymized,Serial_Dependence_U,2023.2.3,Win32,59.88023952096852,,,,,,2599.131300000191,349.0,8.0,2599.131300000191,349.0,,,,2603.2908000001908,2603.790200000048,2602.790400000096,2603.2908000001908,2600.1240000000003,2602.7903000001907,2603.790200000048,2604.290400000096,2604.290400000096,2607.123700000048,2563.0,2607.123800000191,5.0,2607.129700000048,8.0,2.0,242.0,14.0,1.0,1.6,0.3,Time
,,S08,1,女,21,anonymized,Serial_Dependence_U,2023.2.3,Win32,59.88023952096852,,,,,,2607.1299000000954,1.0,8.0,2607.13,1.0,,,,2610.474100000143,2610.973400000096,2609.957300000191,2610.474100000143,2608.1240000000003,2609.957300000191,2610.973400000096,2611.473100000143,2611.473100000143,2614.0734000000957,2355.0,2614.0735,5.0,2614.079900000096,8.0,3.0,243.0,15.0,1.0,0.8,0.7,Time
,,S08,1,女,21,anonymized,Serial_Dependence_U,2023.2.3,Win32,59.88023952096852,,,,,,2614.080200000048,205.0,8.0,2614.0803000001906,205.0,,,,2618.0571000001432,2618.5565,2617.540600000143,2618.0571000001432,2615.073900000096,2617.540600000143,2618.5565,2619.056600000143,2619.056600000143,2621.456900000096,2126.0,2621.457100000144,5.0,2621.4629000000955,8.0,4.0,244.0,23.0,1.0,1.4,0.3,Time
,,S08,1,女,21,anonymized,Serial_Dependence_U,2023.2.3,Win32,59.88023952096852,,,,,,2621.463200000048,18.0,8.0,2621.463200000048,18.0,,,,2625.040400000096,2625.5399000000957,2624.523900000096,2625.0403000001907,2622.457100000144,2624.523800000191,2625.5399000000957,2626.04,2626.040100000143,2628.7735,2129.0,2628.7736000001432,5.0,2628.7794000000954,8.0,5.0,245.0,11.0,1.0,1.0,0.3,Time
,,S08,1,女,21,anonymized,Serial_Dependence_U,2023.2.3,Win32,59.88023952096852,,,,,,2628.7795,240.0,8.0,2628.7795,240.0,,,,2632.3569000000957,2632.8565000000003,2631.8404000000955,2632.3569000000957,2629.7735,2631.8404000000955,2632.8565000000003,2633.3565000000003,2633.3566000001438,2636.023200000048,2161.0,2636.0235,5.0,2636.0293000001907,8.0,6.0,246.0,21.0,1.0,1.0,0.3,Time
,,S08,1,女,21,anonymized,Serial_Dependence_U,2023.2.3,Win32,59.88023952096852,,,,,,2636.0295,223.0,8.0,2636.0295,223.0,,,,2639.8065,2640.3063000001907,2639.290200000048,2639.8064000000954,2637.023300000191,2639.290200000048,2640.3063000001907,2640.8063000001907,2640.8063000001907,2643.389700000048,2284.0,2643.389800000191,5.0,2643.396,8.0,7.0,247.0,22.0,1.0,1.2,0.3,Time
,,S08,1,女,21,anonymized,Serial_Dependence_U,2023.2.3,Win32,59.88023952096852,,,,,,2643.396200000048,83.0,8.0,2643.396200000048,83.0,,,,2647.173400000096,2647.6729000000955,2646.6568000001907,2647.173400000096,2644.3900000000003,2646.656700000048,2647.6729000000955,2648.173100000143,2648.173100000143,2651.089600000143,2617.0,2651.0898000001907,5.0,2651.095600000144,8.0,8.0,248.0,2.0,1.0,1.2,0.3,Time
,,S08,1,女,21,anonymized,Serial_Dependence_U,2023.2.3,Win32,59.88023952096852,,,,,,2651.095800000191,110.0,8.0,2651.095800000191,110.0,,,,2655.0734000000957,2655.572700000048,2654.556600000143,2655.073300000191,2652.09,2654.556600000143,2655.572700000048,2656.072800000191,2656.072800000191,2658.69,2415.0,2658.69,5.0,2658.696100000144,8.0,9.0,249.0,13.0,1.0,1.4,0.3,Time
,,S08,1,女,21,anonymized,Serial_Dependence_U,2023.2.3,Win32,59.88023952096852,,,,,,2658.696200000048,19.0,8.0,2658.696300000191,19.0,,,,2662.072900000096,2662.572600000143,2661.556700000048,2662.072900000096,2659.689900000096,2661.556700000048,2662.572700000048,2663.072800000191,2663.072800000191,2665.089400000096,1753.0,2665.089400000096,5.0,2665.0955,8.0,10.0,250.0,10.0,1.0,0.8,0.3,Time
,,S08,1,女,21,anonymized,Serial_Dependence_U,2023.2.3,Win32,59.88023952096852,,,,,,2665.095800000191,146.0,8.0,2665.0959000000958,146.0,,,,2668.439600000143,2668.939300000191,2667.9229000000955,2668.439600000143,2666.089700000048,2667.9229000000955,2668.939300000191,2669.438900000096,2669.438900000096,2671.739600000143,1929.0,2671.739600000143,5.0,2671.746,8.0,11.0,251.0,5.0,1.0,0.8,0.7,Time
,,S08,1,女,21,anonymized,Serial_Dependence_U,2023.2.3,Win32,59.88023952096852,,,,,,2671.746200000048,340.0,8.0,2671.746200000048,340.0,,,,2675.089700000048,2675.589200000048,2674.573300000191,2675.089700000048,2672.739600000143,2674.573200000048,2675.589200000048,2676.089200000048,2676.089200000048,2678.056100000143,1665.0,2678.056100000143,5.0,2678.0628000001907,8.0,12.0,252.0,25.0,1.0,0.8,0.7,Time
,,S08,1,女,21,anonymized,Serial_Dependence_U,2023.2.3,Win32,59.88023952096852,,,,,,2678.063,79.0,8.0,2678.063100000143,79.0,,,,2682.189400000096,2682.6890000000003,2681.689200000048,2682.189300000191,2679.056200000048,2681.6891000001438,2682.6890000000003,2683.188700000048,2683.188700000048,2685.988900000096,2349.0,2685.989,5.0,2685.994900000096,8.0,13.0,253.0,9.0,1.0,1.6,0.7,Time
,,S08,1,女,21,anonymized,Serial_Dependence_U,2023.2.3,Win32,59.88023952096852,,,,,,2685.995200000048,2.0,8.0,2685.995200000048,2.0,,,,2689.539400000096,2690.0385,2689.0228000001907,2689.539400000096,2686.9894000000954,2689.022700000048,2690.0385,2690.5389000000955,2690.5389000000955,2693.005900000096,2034.0,2693.0060000000003,5.0,2693.0125000000003,8.0,14.0,254.0,26.0,1.0,1.0,0.7,Time
,,S08,1,女,21,anonymized,Serial_Dependence_U,2023.2.3,Win32,59.88023952096852,,,,,,2693.012700000048,337.0,8.0,2693.012800000191,337.0,,,,2697.189200000048,2697.688600000143,2696.6724000000954,2697.189200000048,2694.005800000191,2696.6724000000954,2697.688600000143,2698.188800000191,2698.188800000191,2701.122400000096,2511.0,2701.1225,5.0,2701.128900000096,8.0,15.0,255.0,24.0,1.0,1.6,0.3,Time
