Scale_setup.started,Scale_setup.stopped,participant,expid,session,sex,age,date,expName,psychopyVersion,OS,frameRate,screen_scale_keys.started,screen_scale_keys.stopped,X Scale,Y Scale,rectangel_keys.started,rectangel_keys.stopped,Intro.started,Intro.stopped,key_resp_2.keys,key_resp_2.rt,key_resp_2.duration,block.started,Block_id,block.stopped,Block_resp_2.keys,Block_resp_2.rt,Block_resp_2.duration,ITI.started,ITI.stopped,Mask_2.started,Mask_2.stopped,M2.started,direction,M2.stopped,Cue.started,Cue.stopped,Response.started,Response.stopped,keyDuration,Feedback_Time.started,FeedbackID_T,Feedback_Time.stopped,trials.thisRepN,trials.thisTrialN,trials.thisN,trials.thisIndex,trials.ran,TimeDur,Coherence1,TrialType
0.0002,0.0003,S08,189058,1,Female,29,anonymized,Serial_Dependence_U,2023.2.3,Win32,59.52380952,,,,,,,,,,,,,,,,,,,,,,,,,,,,,,,,,,,,,,,,
,,S08,189058,1,Female,29,anonymized,Serial_Dependence_U,2023.2.3,Win32,59.52380952,0.0031,1.0205,0.05,0.05,1.0208,1.1704,1.1707,1.3201,space,0.104,,,,,,,,,,,,,,,,,,,,,,,,,,,,,,
,,S08,189058,1,Female,29,anonymized,Serial_Dependence_U,2023.2.3,Win32,59.52380952,,,,,,,,,,,,1.3334,0.0,3.2036,s,1.8499,,5.5564,6.0515,5.0405,5.5563,4.2216,244.0,5.0402,6.0517,6.5516,6.5516,8.4016,555.7,8.4024,1.0,9.4005,0.0,0.0,0.0,25.0,1.0,0.8,0.7,Time
,,S08,189058,1,Female,29,anonymized,Serial_Dependence_U,2023.2.3,Win32,59.52380952,,,,,,,,,,,,9.4011,0.0,9.4056,,,,12.3337,12.8327,11.8169,12.3336,10.4013,312.0,11.8168,12.8328,13.3328,13.3328,13.4329,78.0,13.4331,1.0,14.432,0.0,1.0,1.0,28.0,1.0,1.4,0.7,Time
,,S08,189058,1,Female,29,anonymized,Serial_Dependence_U,2023.2.3,Win32,59.52380952,,,,,,,,,,,,14.4328,0.0,14.433,,,,16.7666,17.2648,16.2523,16.7662,15.4327,245.0,16.2512,17.2649,17.7647,17.7648,19.7141,833.2,19.7142,3.0,20.7133,0.0,2.0,2.0,5.0,1.0,0.8,0.7,Time
,,S08,189058,1,Female,29,anonymized,Serial_Dependence_U,2023.2.3,Win32,59.52380952,,,,,,,,,,,,20.7139,0.0,20.715,,,,23.8628,24.3622,23.3463,23.8627,21.7305,195.0,23.3462,24.3623,24.8617,24.8618,25.0292,150.2,25.0312,1.0,26.0281,0.0,3.0,3.0,24.0,1.0,1.6,0.3,Time
,,S08,189058,1,Female,29,anonymized,Serial_Dependence_U,2023.2.3,Win32,59.52380952,,,,,,,,,,,,26.0285,0.0,26.0291,,,,29.1779,29.6768,28.6617,29.1779,27.0453,300.0,28.6614,29.6768,30.1766,30.1766,31.56,1366.7,31.5606,2.0,32.5595,0.0,4.0,4.0,19.0,1.0,1.6,0.7,Time
,,S08,189058,1,Female,29,anonymized,Serial_Dependence_U,2023.2.3,Win32,59.52380952,,,,,,,,,,,,32.5601,0.0,32.5605,,,,35.509,36.0082,34.9934,35.5089,33.5764,85.0,34.9929,36.0082,36.508,36.5081,38.291,1387.3,38.2916,3.0,39.2905,0.0,5.0,5.0,18.0,1.0,1.4,0.7,Time
,,S08,189058,1,Female,29,anonymized,Serial_Dependence_U,2023.2.3,Win32,59.52380952,,,,,,,,,,,,39.2913,0.0,39.2928,,,,41.6403,42.1395,41.1235,41.6401,40.3076,119.0,41.1235,42.1395,42.6393,42.6393,42.7063,55.10000002,42.7068,1.0,43.7056,0.0,6.0,6.0,15.0,1.0,0.8,0.7,Time
,,S08,189058,1,Female,29,anonymized,Serial_Dependence_U,2023.2.3,Win32,59.52380952,,,,,,,,,,,,43.707,0.0,43.708,,,,46.2552,46.7544,45.7456,46.2551,44.7224,305.0,45.7455,46.7544,47.2542,47.2542,48.371,1076.9,48.3715,4.0,49.3704,0.0,7.0,7.0,6.0,1.0,1.0,0.7,Time
,,S08,189058,1,Female,29,anonymized,Serial_Dependence_U,2023.2.3,Win32,59.52380952,,,,,,,,,,,,49.3709,0.0,49.3718,,,,51.72,52.2193,51.2035,51.7199,50.3875,55.0,51.2034,52.2193,52.7367,52.7368,53.9225,1063.8,53.9235,5.0,54.9197,0.0,8.0,8.0,10.0,1.0,0.8,0.3,Time
,,S08,189058,1,Female,29,anonymized,Serial_Dependence_U,2023.2.3,Win32,59.52380952,,,,,,,,,,,,54.9203,0.0,54.9211,,,,57.518,58.0174,56.9847,57.5179,55.9519,301.0,56.9846,58.0174,58.5172,58.5172,58.951,391.6,58.9512,1.0,59.9501,0.0,9.0,9.0,16.0,1.0,1.0,0.7,Time
,,S08,189058,1,Female,29,anonymized,Serial_Dependence_U,2023.2.3,Win32,59.52380952,,,,,,,,,,,,59.9506,0.0,59.9508,,,,62.5497,63.049,62.0165,62.5496,60.9837,77.0,62.0164,63.049,63.549,63.5491,64.6153,1037.4,64.6155,3.0,65.6148,0.0,10.0,10.0,26.0,1.0,1.0,0.7,Time
,,S08,189058,1,Female,29,anonymized,Serial_Dependence_U,2023.2.3,Win32,59.52380952,,,,,,,,,,,,65.6152,0.0,65.6154,,,,68.2144,68.7138,67.6813,68.2143,66.6484,103.0,67.6812,68.7138,69.2136,69.2136,70.147,905.8,70.1471,2.0,71.1463,0.0,11.0,11.0,21.0,1.0,1.0,0.3,Time
,,S08,189058,1,Female,29,anonymized,Serial_Dependence_U,2023.2.3,Win32,59.52380952,,,,,,,,,,,,71.1468,0.0,71.147,,,,74.1458,74.645,73.6126,74.1457,72.1799,336.0,73.6125,74.645,75.1449,75.145,76.4115,1239.5,76.4119,2.0,77.4109,0.0,12.0,12.0,23.0,1.0,1.4,0.3,Time
,,S08,189058,1,Female,29,anonymized,Serial_Dependence_U,2023.2.3,Win32,59.52380952,,,,,,,,,,,,77.4114,0.0,77.4117,,,,80.2104,80.7096,79.6773,80.2104,78.4443,15.0,79.6773,80.7097,81.2096,81.2098,82.6427,1067.3,82.6429,2.0,83.6421,0.0,13.0,13.0,22.0,1.0,1.2,0.3,Time
,,S08,189058,1,Female,29,anonymized,Serial_Dependence_U,2023.2.3,Win32,59.52380952,,,,,,,,,,,,83.6425,0.0,83.6428,,,,86.6416,87.1409,86.1082,86.6416,84.6755,252.0,86.1081,87.1409,87.6408,87.6408,89.0739,1393.2,89.0741,3.0,90.073,0.0,14.0,14.0,3.0,1.0,1.4,0.3,Time
,,S08,189058,1,Female,29,anonymized,Serial_Dependence_U,2023.2.3,Win32,59.52380952,,,,,,,,,,,,90.0734,0.0,90.0737,,,,92.8727,93.3722,92.3394,92.8727,91.1066,77.0,92.3393,93.3723,93.8719,93.8719,95.3383,1439.7,95.3385,4.0,96.3379,0.0,15.0,15.0,12.0,1.0,1.2,0.3,Time
,,S08,189058,1,Female,29,anonymized,Serial_Dependence_U,2023.2.3,Win32,59.52380952,,,,,,,,,,,,96.3383,0.0,96.3386,,,,99.3373,99.8365,98.8043,99.3372,97.3712,247.0,98.8043,99.8366,100.3366,100.3366,101.5696,1213.6,101.5699,2.0,102.5691,0.0,16.0,16.0,8.0,1.0,1.4,0.7,Time
,,S08,189058,1,Female,29,anonymized,Serial_Dependence_U,2023.2.3,Win32,59.52380952,,,,,,,,,,,,102.5696,0.0,102.5698,,,,104.9687,105.4681,104.4353,104.9686,103.6022,155.0,104.4353,105.4681,105.968,105.9681,107.2011,1080.7,107.2013,5.0,108.2004,0.0,17.0,17.0,20.0,1.0,0.8,0.3,Time
,,S08,189058,1,Female,29,anonymized,Serial_Dependence_U,2023.2.3,Win32,59.52380952,,,,,,,,,,,,108.2008,0.0,108.2011,,,,111.0,111.4991,110.4669,110.9999,109.2338,94.0,110.4668,111.4991,111.9991,111.9991,113.6348,1452.7,113.6359,4.0,114.6315,0.0,18.0,18.0,27.0,1.0,1.2,0.7,Time
,,S08,189058,1,Female,29,anonymized,Serial_Dependence_U,2023.2.3,Win32,59.52380952,,,,,,,,,,,,114.632,0.0,114.6323,,,,117.0313,117.5306,116.4981,117.0312,115.6649,339.0,116.498,117.5306,118.0304,118.0305,119.164,813.7,119.1642,3.0,120.1629,0.0,19.0,19.0,0.0,1.0,0.8,0.3,Time
,,S08,189058,1,Female,29,anonymized,Serial_Dependence_U,2023.2.3,Win32,59.52380952,,,,,,,,,,,,120.1633,0.0,120.1636,,,,122.9627,123.4618,122.4295,122.9626,121.1964,185.0,122.4294,123.4618,123.9618,123.9619,124.5286,540.6,124.5288,1.0,125.5278,0.0,20.0,20.0,17.0,1.0,1.2,0.7,Time
,,S08,189058,1,Female,29,anonymized,Serial_Dependence_U,2023.2.3,Win32,59.52380952,,,,,,,,,,,,125.5282,0.0,125.5284,,,,128.7276,129.2265,128.1942,128.7274,126.5614,356.0,128.1942,129.2265,129.7268,129.7269,130.8598,225.2,130.8599,1.0,131.8591,0.0,21.0,21.0,14.0,1.0,1.6,0.3,Time
,,S08,189058,1,Female,29,anonymized,Serial_Dependence_U,2023.2.3,Win32,59.52380952,,,,,,,,,,,,131.8595,0.0,131.8598,,,,134.6587,135.158,134.1255,134.6586,132.8924,28.0,134.1255,135.158,135.6579,135.6579,137.4908,1255.6,137.4911,3.0,138.49,0.0,22.0,22.0,7.0,1.0,1.2,0.7,Time
,,S08,189058,1,Female,29,anonymized,Serial_Dependence_U,2023.2.3,Win32,59.52380952,,,,,,,,,,,,138.4905,0.0,138.4908,,,,141.0899,141.5891,140.5566,141.0898,139.5237,85.0,140.5566,141.5891,142.089,142.089,143.4221,1299.3,143.4222,4.0,144.4215,0.0,23.0,23.0,1.0,1.0,1.0,0.3,Time
,,S08,189058,1,Female,29,anonymized,Serial_Dependence_U,2023.2.3,Win32,59.52380952,,,,,,,,,,,,144.422,0.0,144.4222,,,,147.6207,148.1203,147.0876,147.6206,145.4551,267.0,147.0876,148.1203,148.6201,148.6202,150.12,1432.7,150.1202,2.0,151.1195,0.0,24.0,24.0,4.0,1.0,1.6,0.3,Time
,,S08,189058,1,Female,29,anonymized,Serial_Dependence_U,2023.2.3,Win32,59.52380952,,,,,,,,,,,,151.12,0.0,151.1203,,,,153.8854,154.3848,153.3522,153.8853,152.12,320.0,153.3521,154.3849,154.8846,154.8847,156.7843,1561.8,156.7844,5.0,157.7836,0.0,25.0,25.0,2.0,1.0,1.2,0.3,Time
,,S08,189058,1,Female,29,anonymized,Serial_Dependence_U,2023.2.3,Win32,59.52380952,,,,,,,,,,,,157.7839,0.0,157.7842,,,,160.783,161.2824,160.25,160.7829,158.8171,3.0,160.25,161.2824,161.7823,161.7824,162.9491,1142.6,162.9494,2.0,163.9482,0.0,26.0,26.0,13.0,1.0,1.4,0.3,Time
,,S08,189058,1,Female,29,anonymized,Serial_Dependence_U,2023.2.3,Win32,59.52380952,,,,,,,,,,,,163.9486,0.0,163.9489,,,,166.5478,167.0474,166.0145,166.5476,164.9818,22.0,166.0144,167.0474,167.547,167.5471,169.2136,1475.8,169.2139,5.0,170.2128,0.0,27.0,27.0,11.0,1.0,1.0,0.3,Time
,,S08,189058,1,Female,29,anonymized,Serial_Dependence_U,2023.2.3,Win32,59.52380952,,,,,,,,,,,,170.2133,0.0,170.2136,,,,173.3826,173.8782,172.8507,173.3826,171.2463,187.0,172.8504,173.8782,174.378,174.378,175.5444,1121.8,175.5446,2.0,176.5441,0.0,28.0,28.0,9.0,1.0,1.6,0.7,Time
,,S08,189058,1,Female,29,anonymized,Serial_Dependence_U,2023.2.3,Win32,59.52380952,,,,,,,,,,,,176.5445,0.0,176.5448,,,,179.7434,180.2427,179.2103,179.7433,177.5774,357.0,179.2102,180.2427,180.7425,180.7426,181.9758,1177.7,181.976,2.0,182.9753,0.0,29.0,29.0,29.0,1.0,1.6,0.7,Time
,,S08,189058,1,Female,29,anonymized,Serial_Dependence_U,2023.2.3,Win32,59.52380952,,,,,,,,,,,,182.9757,1.0,185.1413,s,2.1153,,188.1406,188.6398,187.6073,188.1405,186.1744,132.0,187.6072,188.6398,189.1398,189.1398,191.0393,1500.5,191.0395,4.0,192.0387,1.0,0.0,30.0,13.0,1.0,1.4,0.3,Time
,,S08,189058,1,Female,29,anonymized,Serial_Dependence_U,2023.2.3,Win32,59.52380952,,,,,,,,,,,,192.0392,1.0,192.0415,,,,194.6383,195.1377,194.1052,194.6383,193.0721,150.0,194.1051,195.1378,195.6376,195.6376,197.1374,1022.9,197.1376,3.0,198.1368,1.0,1.0,31.0,26.0,1.0,1.0,0.7,Time
,,S08,189058,1,Female,29,anonymized,Serial_Dependence_U,2023.2.3,Win32,59.52380952,,,,,,,,,,,,198.1372,1.0,198.1374,,,,201.1362,201.6355,200.603,201.136,199.17,177.0,200.6029,201.6355,202.1352,202.1352,203.3351,1177.2,203.3353,2.0,204.3344,1.0,2.0,32.0,3.0,1.0,1.4,0.3,Time
,,S08,189058,1,Female,29,anonymized,Serial_Dependence_U,2023.2.3,Win32,59.52380952,,,,,,,,,,,,204.335,1.0,204.3355,,,,206.9339,207.4337,206.4011,206.9339,205.3682,43.0,206.401,207.4339,207.9333,207.9333,208.8668,891.5,208.8669,2.0,209.8661,1.0,3.0,33.0,21.0,1.0,1.0,0.3,Time
,,S08,189058,1,Female,29,anonymized,Serial_Dependence_U,2023.2.3,Win32,59.52380952,,,,,,,,,,,,209.8666,1.0,209.8669,,,,212.4657,212.9651,211.9324,212.4656,210.8996,294.0,211.9323,212.9651,213.4646,213.4646,214.8982,1312.8,214.8985,5.0,215.8974,1.0,4.0,34.0,1.0,1.0,1.0,0.3,Time
,,S08,189058,1,Female,29,anonymized,Serial_Dependence_U,2023.2.3,Win32,59.52380952,,,,,,,,,,,,215.8978,1.0,215.8981,,,,218.8968,219.3961,218.364,218.8968,216.9309,338.0,218.3639,219.3961,219.8959,219.896,221.3293,1333.7,221.3295,3.0,222.3286,1.0,5.0,35.0,28.0,1.0,1.4,0.7,Time
,,S08,189058,1,Female,29,anonymized,Serial_Dependence_U,2023.2.3,Win32,59.52380952,,,,,,,,,,,,222.3291,1.0,222.3294,,,,225.1281,225.6274,224.5947,225.1279,223.3619,135.0,224.5947,225.6274,226.1272,226.1272,227.6604,1333.2,227.6605,4.0,228.6599,1.0,6.0,36.0,22.0,1.0,1.2,0.3,Time
,,S08,189058,1,Female,29,anonymized,Serial_Dependence_U,2023.2.3,Win32,59.52380952,,,,,,,,,,,,228.6603,1.0,228.6607,,,,231.8592,232.3586,231.3259,231.8591,229.6931,233.0,231.3259,232.3586,232.8612,232.8613,234.0603,1098.2,234.0616,1.0,235.0578,1.0,7.0,37.0,19.0,1.0,1.6,0.7,Time
,,S08,189058,1,Female,29,anonymized,Serial_Dependence_U,2023.2.3,Win32,59.52380952,,,,,,,,,,,,235.0583,1.0,235.0589,,,,237.4573,237.9564,236.9241,237.4572,236.0909,277.0,236.924,237.9564,238.4565,238.4565,239.8561,1263.7,239.8563,5.0,240.8555,1.0,8.0,38.0,15.0,1.0,0.8,0.7,Time
,,S08,189058,1,Female,29,anonymized,Serial_Dependence_U,2023.2.3,Win32,59.52380952,,,,,,,,,,,,240.856,1.0,240.8561,,,,243.6549,244.1544,243.122,243.6548,241.8891,235.0,243.122,244.1545,244.6542,244.6542,246.1876,1448.4,246.1878,4.0,247.1867,1.0,9.0,39.0,12.0,1.0,1.2,0.3,Time
,,S08,189058,1,Female,29,anonymized,Serial_Dependence_U,2023.2.3,Win32,59.52380952,,,,,,,,,,,,247.1872,1.0,247.1874,,,,250.3861,250.8856,249.8531,250.386,248.2201,171.0,249.853,250.8856,251.3854,251.3855,253.2182,1799.9,253.2184,4.0,254.2178,1.0,10.0,40.0,9.0,1.0,1.6,0.7,Time
,,S08,189058,1,Female,29,anonymized,Serial_Dependence_U,2023.2.3,Win32,59.52380952,,,,,,,,,,,,254.2182,1.0,254.2185,,,,257.0174,257.5171,256.4839,257.0173,255.251,243.0,256.4839,257.5171,258.0164,258.0165,259.2829,1226.3,259.283,3.0,260.2825,1.0,11.0,41.0,7.0,1.0,1.2,0.7,Time
,,S08,189058,1,Female,29,anonymized,Serial_Dependence_U,2023.2.3,Win32,59.52380952,,,,,,,,,,,,260.2828,1.0,260.2831,,,,263.2819,263.7812,262.7486,263.2818,261.3159,17.0,262.7486,263.7812,264.281,264.281,265.7807,1458.4,265.7809,3.0,266.7802,1.0,12.0,42.0,8.0,1.0,1.4,0.7,Time
,,S08,189058,1,Female,29,anonymized,Serial_Dependence_U,2023.2.3,Win32,59.52380952,,,,,,,,,,,,266.7806,1.0,266.7809,,,,269.9796,270.4787,269.4462,269.9794,267.8137,189.0,269.4462,270.4788,270.9788,270.9789,272.5452,1519.1,272.5455,2.0,273.5444,1.0,13.0,43.0,29.0,1.0,1.6,0.7,Time
,,S08,189058,1,Female,29,anonymized,Serial_Dependence_U,2023.2.3,Win32,59.52380952,,,,,,,,,,,,273.5448,1.0,273.5451,,,,276.7438,277.2431,276.2111,276.7438,274.578,349.0,276.2109,277.2432,277.7433,277.7433,279.476,1318.2,279.4762,2.0,280.4754,1.0,14.0,44.0,24.0,1.0,1.6,0.3,Time
,,S08,189058,1,Female,29,anonymized,Serial_Dependence_U,2023.2.3,Win32,59.52380952,,,,,,,,,,,,280.4757,1.0,280.476,,,,282.8751,283.3744,282.3421,282.8751,281.5092,297.0,282.3421,283.3745,283.8744,283.8744,285.341,1231.4,285.3411,5.0,286.3403,1.0,15.0,45.0,5.0,1.0,0.8,0.7,Time
,,S08,189058,1,Female,29,anonymized,Serial_Dependence_U,2023.2.3,Win32,59.52380952,,,,,,,,,,,,286.3408,1.0,286.341,,,,289.4902,289.9889,288.9732,289.4902,287.358,262.0,288.9731,289.9889,290.4887,290.4887,291.8885,1381.8,291.889,2.0,292.9077,1.0,16.0,46.0,4.0,1.0,1.6,0.3,Time
,,S08,189058,1,Female,29,anonymized,Serial_Dependence_U,2023.2.3,Win32,59.52380952,,,,,,,,,,,,292.9121,1.0,292.9123,,,,295.2378,295.737,294.7217,295.2377,293.9116,158.0,294.7216,295.7371,296.2369,296.2369,297.1037,848.0,297.1042,4.0,298.1029,1.0,17.0,47.0,0.0,1.0,0.8,0.3,Time
,,S08,189058,1,Female,29,anonymized,Serial_Dependence_U,2023.2.3,Win32,59.52380952,,,,,,,,,,,,298.1033,1.0,298.1039,,,,300.8525,301.3516,300.3361,300.8524,299.1197,319.0,300.3359,301.3517,301.8516,301.8516,302.7514,882.6,302.752,2.0,303.751,1.0,18.0,48.0,2.0,1.0,1.2,0.3,Time
,,S08,189058,1,Female,29,anonymized,Serial_Dependence_U,2023.2.3,Win32,59.52380952,,,,,,,,,,,,303.7515,1.0,303.752,,,,306.3009,306.8001,305.7839,306.3007,304.7677,168.0,305.7838,306.8001,307.2999,307.2999,308.4498,1133.3,308.4503,4.0,309.4491,1.0,19.0,49.0,6.0,1.0,1.0,0.7,Time
,,S08,189058,1,Female,29,anonymized,Serial_Dependence_U,2023.2.3,Win32,59.52380952,,,,,,,,,,,,309.4496,1.0,309.4502,,,,311.7989,312.2981,311.2824,311.7988,310.4659,121.0,311.2823,312.2981,312.7979,312.798,313.8812,1049.0,313.8818,5.0,314.8807,1.0,20.0,50.0,20.0,1.0,0.8,0.3,Time
,,S08,189058,1,Female,29,anonymized,Serial_Dependence_U,2023.2.3,Win32,59.52380952,,,,,,,,,,,,314.8811,1.0,314.8815,,,,317.8301,318.33,317.3136,317.8301,315.8976,78.0,317.3135,318.33,318.8292,318.8293,320.2959,1180.7,320.2963,2.0,321.2951,1.0,21.0,51.0,23.0,1.0,1.4,0.3,Time
,,S08,189058,1,Female,29,anonymized,Serial_Dependence_U,2023.2.3,Win32,59.52380952,,,,,,,,,,,,321.2956,1.0,321.2973,,,,323.6451,324.144,323.1282,323.645,322.3125,251.0,323.1281,324.144,324.6441,324.6442,325.9105,1246.7,325.9111,5.0,326.9097,1.0,22.0,52.0,25.0,1.0,0.8,0.7,Time
,,S08,189058,1,Female,29,anonymized,Serial_Dependence_U,2023.2.3,Win32,59.52380952,,,,,,,,,,,,326.9102,1.0,326.9106,,,,329.4596,329.9586,328.9431,329.4594,327.9268,88.0,328.943,329.9587,330.4587,330.4587,331.6086,1099.2,331.6091,4.0,332.6079,1.0,23.0,53.0,11.0,1.0,1.0,0.3,Time
,,S08,189058,1,Female,29,anonymized,Serial_Dependence_U,2023.2.3,Win32,59.52380952,,,,,,,,,,,,332.6087,1.0,332.6098,,,,334.9577,335.457,334.4411,334.9576,333.6248,212.0,334.4411,335.457,335.9566,335.9566,336.9234,933.9,336.9238,4.0,337.9226,1.0,24.0,54.0,10.0,1.0,0.8,0.3,Time
,,S08,189058,1,Female,29,anonymized,Serial_Dependence_U,2023.2.3,Win32,59.52380952,,,,,,,,,,,,337.9232,1.0,337.9242,,,,340.6733,341.1715,340.1557,340.6732,338.9396,26.0,340.1557,341.1716,341.6713,341.6714,342.6214,914.5,342.622,2.0,343.6208,1.0,25.0,55.0,27.0,1.0,1.2,0.7,Time
,,S08,189058,1,Female,29,anonymized,Serial_Dependence_U,2023.2.3,Win32,59.52380952,,,,,,,,,,,,343.6214,1.0,343.6218,,,,346.5707,347.0697,346.054,346.5704,344.6378,325.0,346.0539,347.0698,347.5694,347.5695,348.7692,1183.4,348.7697,2.0,349.769,1.0,26.0,56.0,18.0,1.0,1.4,0.7,Time
,,S08,189058,1,Female,29,anonymized,Serial_Dependence_U,2023.2.3,Win32,59.52380952,,,,,,,,,,,,349.7698,1.0,349.771,,,,352.9217,353.4378,352.4018,352.9215,350.7859,5.0,352.4016,353.4378,353.9371,353.9373,355.2173,1245.6,355.2176,2.0,356.2166,1.0,27.0,57.0,14.0,1.0,1.6,0.3,Time
,,S08,189058,1,Female,29,anonymized,Serial_Dependence_U,2023.2.3,Win32,59.52380952,,,,,,,,,,,,356.2171,1.0,356.2178,,,,358.7664,359.2655,358.2499,358.7662,357.2336,259.0,358.2498,359.2655,359.7654,359.7654,361.2319,1431.5,361.2324,5.0,362.2313,1.0,28.0,58.0,16.0,1.0,1.0,0.7,Time
,,S08,189058,1,Female,29,anonymized,Serial_Dependence_U,2023.2.3,Win32,59.52380952,,,,,,,,,,,,362.2318,1.0,362.2324,,,,364.9809,365.4805,364.4644,364.9808,363.2479,358.0,364.4643,365.4806,365.9799,365.9799,367.2799,1260.5,367.2803,4.0,368.2791,1.0,29.0,59.0,17.0,1.0,1.2,0.7,Time
,,S08,189058,1,Female,29,anonymized,Serial_Dependence_U,2023.2.3,Win32,59.52380952,,,,,,,,,,,,368.2797,2.0,370.6451,s,2.3409,,373.5947,374.094,373.0782,373.5945,371.662,252.0,373.0781,374.094,374.5937,374.5938,376.1768,1548.1,376.1771,4.0,377.1762,2.0,0.0,60.0,18.0,1.0,1.4,0.7,Time
,,S08,189058,1,Female,29,anonymized,Serial_Dependence_U,2023.2.3,Win32,59.52380952,,,,,,,,,,,,377.1768,2.0,377.1814,,,,380.3261,380.8257,379.8093,380.3259,378.193,215.0,379.8091,380.8258,381.3247,381.3247,382.5415,1200.7,382.542,2.0,383.5408,2.0,1.0,61.0,14.0,1.0,1.6,0.3,Time
,,S08,189058,1,Female,29,anonymized,Serial_Dependence_U,2023.2.3,Win32,59.52380952,,,,,,,,,,,,383.5415,2.0,383.5432,,,,386.4903,386.9895,385.9737,386.4902,384.5576,357.0,385.9737,386.9895,387.4894,387.4894,389.4057,1351.2,389.4063,3.0,390.4052,2.0,2.0,62.0,13.0,1.0,1.4,0.3,Time
,,S08,189058,1,Female,29,anonymized,Serial_Dependence_U,2023.2.3,Win32,59.52380952,,,,,,,,,,,,390.4058,2.0,390.4063,,,,392.7596,393.254,392.2385,392.7596,391.4222,35.0,392.2383,393.254,393.754,393.7541,394.8039,1029.2,394.8044,4.0,395.8032,2.0,3.0,63.0,15.0,1.0,0.8,0.7,Time
,,S08,189058,1,Female,29,anonymized,Serial_Dependence_U,2023.2.3,Win32,59.52380952,,,,,,,,,,,,395.8038,2.0,395.8045,,,,398.5527,399.052,398.0363,398.5526,396.8203,81.0,398.0362,399.052,399.552,399.5521,400.6852,1100.4,400.6857,2.0,401.6844,2.0,4.0,64.0,22.0,1.0,1.2,0.3,Time
,,S08,189058,1,Female,29,anonymized,Serial_Dependence_U,2023.2.3,Win32,59.52380952,,,,,,,,,,,,401.685,2.0,401.6857,,,,404.6341,405.1333,404.1176,404.634,402.7013,193.0,404.1176,405.1333,405.6333,405.6333,407.0665,1415.1,407.067,3.0,408.0661,2.0,5.0,65.0,23.0,1.0,1.4,0.3,Time
,,S08,189058,1,Female,29,anonymized,Serial_Dependence_U,2023.2.3,Win32,59.52380952,,,,,,,,,,,,408.0668,2.0,408.068,,,,411.2154,411.7144,410.6992,411.2152,409.0827,216.0,410.699,411.7144,412.2142,412.2143,413.882,1627.8,413.8842,3.0,414.8801,2.0,6.0,66.0,19.0,1.0,1.6,0.7,Time
,,S08,189058,1,Female,29,anonymized,Serial_Dependence_U,2023.2.3,Win32,59.52380952,,,,,,,,,,,,414.8806,2.0,414.8811,,,,417.4302,417.9292,416.9138,417.43,415.8971,116.0,416.9136,417.9292,418.4294,418.4294,419.479,1033.1,419.4794,3.0,420.4782,2.0,7.0,67.0,6.0,1.0,1.0,0.7,Time
,,S08,189058,1,Female,29,anonymized,Serial_Dependence_U,2023.2.3,Win32,59.52380952,,,,,,,,,,,,420.4789,2.0,420.4797,,,,423.6282,424.1272,423.1114,423.6281,421.4955,177.0,423.1112,424.1273,424.6273,424.6274,425.9444,1248.8,425.9455,2.0,426.9426,2.0,8.0,68.0,29.0,1.0,1.6,0.7,Time
,,S08,189058,1,Female,29,anonymized,Serial_Dependence_U,2023.2.3,Win32,59.52380952,,,,,,,,,,,,426.9433,2.0,426.9439,,,,429.4924,429.9918,428.9759,429.4922,427.9594,14.0,428.9759,429.9918,430.4916,430.4916,431.6082,946.7,431.6087,2.0,432.6075,2.0,9.0,69.0,26.0,1.0,1.0,0.7,Time
,,S08,189058,1,Female,29,anonymized,Serial_Dependence_U,2023.2.3,Win32,59.52380952,,,,,,,,,,,,432.6082,2.0,432.6087,,,,435.1578,435.6562,434.6406,435.1576,433.6244,305.0,434.6405,435.6562,436.1563,436.1563,437.0896,899.6,437.0901,2.0,438.0889,2.0,10.0,70.0,1.0,1.0,1.0,0.3,Time
,,S08,189058,1,Female,29,anonymized,Serial_Dependence_U,2023.2.3,Win32,59.52380952,,,,,,,,,,,,438.0894,2.0,438.0899,,,,441.0386,441.5378,440.522,441.0383,439.106,325.0,440.5219,441.5378,442.0375,442.0377,443.2876,1149.7,443.2881,2.0,444.2868,2.0,11.0,71.0,8.0,1.0,1.4,0.7,Time
,,S08,189058,1,Female,29,anonymized,Serial_Dependence_U,2023.2.3,Win32,59.52380952,,,,,,,,,,,,444.2875,2.0,444.2881,,,,446.8199,447.319,446.3036,446.8198,445.2891,41.0,446.3034,447.319,447.8191,447.8192,449.3021,1162.2,449.3026,4.0,450.3014,2.0,12.0,72.0,21.0,1.0,1.0,0.3,Time
,,S08,189058,1,Female,29,anonymized,Serial_Dependence_U,2023.2.3,Win32,59.52380952,,,,,,,,,,,,450.3019,2.0,450.3026,,,,453.2511,453.7502,452.7347,453.2509,451.3184,283.0,452.7346,453.7502,454.2502,454.2503,455.5168,1248.0,455.5173,2.0,456.516,2.0,13.0,73.0,3.0,1.0,1.4,0.3,Time
,,S08,189058,1,Female,29,anonymized,Serial_Dependence_U,2023.2.3,Win32,59.52380952,,,,,,,,,,,,456.5166,2.0,456.517,,,,459.4659,459.9648,458.9491,459.4655,457.533,211.0,458.9491,459.9648,460.4648,460.4648,461.4646,978.5,461.4651,1.0,462.4638,2.0,14.0,74.0,28.0,1.0,1.4,0.7,Time
,,S08,189058,1,Female,29,anonymized,Serial_Dependence_U,2023.2.3,Win32,59.52380952,,,,,,,,,,,,462.4644,2.0,462.465,,,,464.8138,465.3129,464.2979,464.8137,463.481,28.0,464.2972,465.3129,465.813,465.8131,466.6629,830.9,466.6635,3.0,467.6623,2.0,15.0,75.0,25.0,1.0,0.8,0.7,Time
,,S08,189058,1,Female,29,anonymized,Serial_Dependence_U,2023.2.3,Win32,59.52380952,,,,,,,,,,,,467.6631,2.0,467.6635,,,,469.9955,470.4944,469.4788,469.9954,468.6678,306.0,469.4788,470.4944,470.9943,470.9944,471.6446,633.3,471.6453,2.0,472.6518,2.0,16.0,76.0,0.0,1.0,0.8,0.3,Time
,,S08,189058,1,Female,29,anonymized,Serial_Dependence_U,2023.2.3,Win32,59.52380952,,,,,,,,,,,,472.6531,2.0,472.6535,,,,475.7934,476.2926,475.2769,475.7933,473.666,25.0,475.2768,476.2927,476.7925,476.7925,478.2423,1283.4,478.2428,2.0,479.2415,2.0,17.0,77.0,9.0,1.0,1.6,0.7,Time
,,S08,189058,1,Female,29,anonymized,Serial_Dependence_U,2023.2.3,Win32,59.52380952,,,,,,,,,,,,479.2421,2.0,479.2427,,,,481.9914,482.4905,481.4747,481.9913,480.2594,288.0,481.4745,482.4905,482.9904,482.9904,484.2904,1284.9,484.2908,4.0,485.2897,2.0,18.0,78.0,7.0,1.0,1.2,0.7,Time
,,S08,189058,1,Female,29,anonymized,Serial_Dependence_U,2023.2.3,Win32,59.52380952,,,,,,,,,,,,485.2902,2.0,485.2907,,,,488.0395,488.5385,487.5228,488.0393,486.3064,6.0,487.5227,488.5386,489.0384,489.0384,490.3883,1318.1,490.3885,4.0,491.3877,2.0,19.0,79.0,12.0,1.0,1.2,0.3,Time
,,S08,189058,1,Female,29,anonymized,Serial_Dependence_U,2023.2.3,Win32,59.52380952,,,,,,,,,,,,491.3881,2.0,491.3887,,,,494.5372,495.0362,494.0206,494.537,492.4045,96.0,494.0205,495.0362,495.5362,495.5362,497.0693,1511.8,497.0698,2.0,498.0687,2.0,20.0,80.0,4.0,1.0,1.6,0.3,Time
,,S08,189058,1,Female,29,anonymized,Serial_Dependence_U,2023.2.3,Win32,59.52380952,,,,,,,,,,,,498.0692,2.0,498.0696,,,,500.8184,501.3176,500.3019,500.8183,499.0856,244.0,500.3017,501.3176,501.8174,501.8174,503.2005,1365.9,503.201,4.0,504.1999,2.0,21.0,81.0,2.0,1.0,1.2,0.3,Time
,,S08,189058,1,Female,29,anonymized,Serial_Dependence_U,2023.2.3,Win32,59.52380952,,,,,,,,,,,,504.2005,2.0,504.2011,,,,506.9496,507.4489,506.4337,506.9495,505.217,68.0,506.4332,507.4489,507.9487,507.9488,509.232,1266.0,509.2326,4.0,510.2313,2.0,22.0,82.0,17.0,1.0,1.2,0.7,Time
,,S08,189058,1,Female,29,anonymized,Serial_Dependence_U,2023.2.3,Win32,59.52380952,,,,,,,,,,,,510.2319,2.0,510.2324,,,,513.3808,513.8799,512.8645,513.3806,511.2482,0.0,512.8643,513.88,514.38,514.38,516.1294,1721.6,516.13,4.0,517.1288,2.0,23.0,83.0,24.0,1.0,1.6,0.3,Time
,,S08,189058,1,Female,29,anonymized,Serial_Dependence_U,2023.2.3,Win32,59.52380952,,,,,,,,,,,,517.1294,2.0,517.1301,,,,519.6789,520.178,519.1621,519.6788,518.1457,19.0,519.162,520.178,520.6778,520.6778,522.4273,1416.2,522.4277,5.0,523.4268,2.0,24.0,84.0,11.0,1.0,1.0,0.3,Time
,,S08,189058,1,Female,29,anonymized,Serial_Dependence_U,2023.2.3,Win32,59.52380952,,,,,,,,,,,,523.4272,2.0,523.4277,,,,526.1763,526.6755,525.6598,526.1763,524.4442,277.0,525.6598,526.6756,527.1755,527.1755,527.8254,621.6,527.8258,1.0,528.8249,2.0,25.0,85.0,27.0,1.0,1.2,0.7,Time
,,S08,189058,1,Female,29,anonymized,Serial_Dependence_U,2023.2.3,Win32,59.52380952,,,,,,,,,,,,528.8255,2.0,528.8259,,,,531.3746,531.874,530.8581,531.3745,529.8416,71.0,530.858,531.8741,532.3736,532.3737,533.5739,1160.2,533.5741,4.0,534.5618,2.0,26.0,86.0,16.0,1.0,1.0,0.7,Time
,,S08,189058,1,Female,29,anonymized,Serial_Dependence_U,2023.2.3,Win32,59.52380952,,,,,,,,,,,,534.5644,2.0,534.566,,,,536.9063,537.4052,536.3897,536.9062,535.5732,44.0,536.3895,537.4052,537.9052,537.9052,538.6052,685.2,538.6057,2.0,539.6046,2.0,27.0,87.0,10.0,1.0,0.8,0.3,Time
,,S08,189058,1,Female,29,anonymized,Serial_Dependence_U,2023.2.3,Win32,59.52380952,,,,,,,,,,,,539.6051,2.0,539.6056,,,,541.9545,542.4538,541.438,541.9544,540.6219,208.0,541.4379,542.4538,542.9535,542.9536,543.7202,733.0,543.7208,2.0,544.7195,2.0,28.0,88.0,5.0,1.0,0.8,0.7,Time
,,S08,189058,1,Female,29,anonymized,Serial_Dependence_U,2023.2.3,Win32,59.52380952,,,,,,,,,,,,544.7201,2.0,544.7206,,,,547.0694,547.5687,546.5527,547.0693,545.7367,296.0,546.5526,547.5687,548.0684,548.0685,548.8018,717.0,548.8023,2.0,549.8016,2.0,29.0,89.0,20.0,1.0,0.8,0.3,Time
,,S08,189058,1,Female,29,anonymized,Serial_Dependence_U,2023.2.3,Win32,59.52380952,,,,,,,,,,,,549.8029,3.0,551.6673,s,1.8454,,554.0172,554.5163,553.5005,554.0169,552.6845,336.0,553.5003,554.5163,555.016,555.016,556.1825,944.2,556.183,4.0,557.182,3.0,0.0,90.0,20.0,1.0,0.8,0.3,Time
,,S08,189058,1,Female,29,anonymized,Serial_Dependence_U,2023.2.3,Win32,59.52380952,,,,,,,,,,,,557.1826,3.0,557.1876,,,,559.5326,560.0311,559.0153,559.5323,558.1989,280.0,559.0153,560.0311,560.5309,560.5309,561.7641,813.2,561.7648,3.0,562.7632,3.0,1.0,91.0,5.0,1.0,0.8,0.7,Time
,,S08,189058,1,Female,29,anonymized,Serial_Dependence_U,2023.2.3,Win32,59.52380952,,,,,,,,,,,,562.7642,3.0,562.7654,,,,565.5135,566.0122,564.9972,565.5134,563.7806,140.0,564.997,566.0122,566.5123,566.5124,567.7789,1248.7,567.7793,3.0,568.7779,3.0,2.0,92.0,12.0,1.0,1.2,0.3,Time
,,S08,189058,1,Female,29,anonymized,Serial_Dependence_U,2023.2.3,Win32,59.52380952,,,,,,,,,,,,568.7787,3.0,568.7795,,,,571.5279,572.027,571.0113,571.5278,569.7954,25.0,571.0112,572.027,572.5268,572.5268,573.4768,916.6,573.4773,2.0,574.4762,3.0,3.0,93.0,22.0,1.0,1.2,0.3,Time
,,S08,189058,1,Female,29,anonymized,Serial_Dependence_U,2023.2.3,Win32,59.52380952,,,,,,,,,,,,574.4767,3.0,574.4772,,,,577.2257,577.725,576.7099,577.2256,575.4931,292.0,576.7096,577.725,578.2251,578.2251,584.24,9999.0,584.2402,0.0,585.2392,3.0,4.0,94.0,7.0,1.0,1.2,0.7,Time
,,S08,189058,1,Female,29,anonymized,Serial_Dependence_U,2023.2.3,Win32,59.52380952,,,,,,,,,,,,585.2398,3.0,585.2403,,,,587.7889,588.288,587.2725,587.7889,586.2561,247.0,587.2723,588.2881,588.788,588.7881,594.7897,9999.0,594.7903,0.0,595.7855,3.0,5.0,95.0,6.0,1.0,1.0,0.7,Time
,,S08,189058,1,Female,29,anonymized,Serial_Dependence_U,2023.2.3,Win32,59.52380952,,,,,,,,,,,,595.786,3.0,595.7864,,,,598.7353,599.2345,598.2186,598.7351,596.8028,110.0,598.2185,599.2345,599.7342,599.7342,601.5338,1513.3,601.5345,4.0,602.5334,3.0,6.0,96.0,13.0,1.0,1.4,0.3,Time
,,S08,189058,1,Female,29,anonymized,Serial_Dependence_U,2023.2.3,Win32,59.52380952,,,,,,,,,,,,602.5338,3.0,602.5346,,,,605.0831,605.5823,604.5666,605.0829,603.5505,307.0,604.5665,605.5823,606.0821,606.0821,607.4819,1144.3,607.4822,4.0,608.4814,3.0,7.0,97.0,1.0,1.0,1.0,0.3,Time
,,S08,189058,1,Female,29,anonymized,Serial_Dependence_U,2023.2.3,Win32,59.52380952,,,,,,,,,,,,608.4819,3.0,608.4824,,,,611.031,611.5302,610.5144,611.031,609.4984,24.0,610.5143,611.5302,612.0301,612.0302,613.4967,1365.7,613.4973,5.0,614.4958,3.0,8.0,98.0,11.0,1.0,1.0,0.3,Time
,,S08,189058,1,Female,29,anonymized,Serial_Dependence_U,2023.2.3,Win32,59.52380952,,,,,,,,,,,,614.4968,3.0,614.4978,,,,616.8457,617.345,616.3293,616.8457,615.5129,240.0,616.3292,617.3451,617.8448,617.8448,619.0449,1186.7,619.0455,5.0,620.044,3.0,9.0,99.0,0.0,1.0,0.8,0.3,Time
,,S08,189058,1,Female,29,anonymized,Serial_Dependence_U,2023.2.3,Win32,59.52380952,,,,,,,,,,,,620.0446,3.0,620.045,,,,622.994,623.4927,622.4772,622.9937,621.061,143.0,622.4771,623.4927,623.9927,623.9927,625.3258,1311.9,625.3262,2.0,626.3253,3.0,10.0,100.0,8.0,1.0,1.4,0.7,Time
,,S08,189058,1,Female,29,anonymized,Serial_Dependence_U,2023.2.3,Win32,59.52380952,,,,,,,,,,,,626.3258,3.0,626.3268,,,,629.475,629.9744,628.9587,629.4749,627.3424,177.0,628.9585,629.9744,630.474,630.4741,631.8737,1383.4,631.8743,2.0,632.8731,3.0,11.0,101.0,19.0,1.0,1.6,0.7,Time
,,S08,189058,1,Female,29,anonymized,Serial_Dependence_U,2023.2.3,Win32,59.52380952,,,,,,,,,,,,632.8737,3.0,632.8742,,,,635.2229,635.7221,634.7064,635.2228,633.89,123.0,634.7063,635.7221,636.2219,636.2219,637.9215,1243.7,637.9217,5.0,638.9212,3.0,12.0,102.0,25.0,1.0,0.8,0.7,Time
,,S08,189058,1,Female,29,anonymized,Serial_Dependence_U,2023.2.3,Win32,59.52380952,,,,,,,,,,,,638.9219,3.0,638.9223,,,,642.0704,642.5699,641.5542,642.0703,639.9379,262.0,641.5541,642.57,643.0698,643.0698,644.686,1598.4,644.6866,3.0,645.6853,3.0,13.0,103.0,24.0,1.0,1.6,0.3,Time
,,S08,189058,1,Female,29,anonymized,Serial_Dependence_U,2023.2.3,Win32,59.52380952,,,,,,,,,,,,645.686,3.0,645.6867,,,,648.2353,648.7343,647.7187,648.235,646.7027,298.0,647.7186,648.7343,649.2343,649.2344,650.5507,1082.5,650.551,4.0,651.553,3.0,14.0,104.0,26.0,1.0,1.0,0.7,Time
,,S08,189058,1,Female,29,anonymized,Serial_Dependence_U,2023.2.3,Win32,59.52380952,,,,,,,,,,,,651.5549,3.0,651.5555,,,,654.7,655.1989,654.184,654.6998,652.567,235.0,654.1839,655.199,655.6985,655.6986,656.5489,835.2,656.5494,1.0,657.5481,3.0,15.0,105.0,29.0,1.0,1.6,0.7,Time
,,S08,189058,1,Female,29,anonymized,Serial_Dependence_U,2023.2.3,Win32,59.52380952,,,,,,,,,,,,657.5488,3.0,657.5497,,,,660.6977,661.1968,660.1814,660.6976,658.5649,39.0,660.1813,661.1968,661.6967,661.6968,663.6798,1967.0,663.6804,4.0,664.6791,3.0,16.0,106.0,4.0,1.0,1.6,0.3,Time
,,S08,189058,1,Female,29,anonymized,Serial_Dependence_U,2023.2.3,Win32,59.52380952,,,,,,,,,,,,664.6797,3.0,664.6802,,,,667.6288,668.1279,667.1125,667.6286,665.6963,339.0,667.1125,668.1279,668.6277,668.6277,670.061,1412.6,670.0614,3.0,671.0602,3.0,17.0,107.0,18.0,1.0,1.4,0.7,Time
,,S08,189058,1,Female,29,anonymized,Serial_Dependence_U,2023.2.3,Win32,59.52380952,,,,,,,,,,,,671.061,3.0,671.0626,,,,674.2102,674.7089,673.6933,674.2102,672.0773,187.0,673.6931,674.7089,675.2092,675.2096,676.592,1364.4,676.5924,2.0,677.5912,3.0,18.0,108.0,9.0,1.0,1.6,0.7,Time
,,S08,189058,1,Female,29,anonymized,Serial_Dependence_U,2023.2.3,Win32,59.52380952,,,,,,,,,,,,677.5917,3.0,677.5922,,,,680.1411,680.6405,679.6245,680.141,678.6085,246.0,679.6244,680.6405,681.1402,681.1403,682.5901,1415.6,682.5906,5.0,683.5895,3.0,19.0,109.0,16.0,1.0,1.0,0.7,Time
,,S08,189058,1,Female,29,anonymized,Serial_Dependence_U,2023.2.3,Win32,59.52380952,,,,,,,,,,,,683.5902,3.0,683.5905,,,,685.939,686.4384,685.4228,685.939,684.6064,19.0,685.4226,686.4384,686.9382,686.9382,687.7216,748.7,687.7222,2.0,688.7209,3.0,20.0,110.0,10.0,1.0,0.8,0.3,Time
,,S08,189058,1,Female,29,anonymized,Serial_Dependence_U,2023.2.3,Win32,59.52380952,,,,,,,,,,,,688.7216,3.0,688.7222,,,,691.4708,691.9696,690.954,691.4708,689.7381,291.0,690.9539,691.9697,692.4695,692.4696,693.4531,947.0,693.4533,2.0,694.4523,3.0,21.0,111.0,2.0,1.0,1.2,0.3,Time
,,S08,189058,1,Female,29,anonymized,Serial_Dependence_U,2023.2.3,Win32,59.52380952,,,,,,,,,,,,694.4528,3.0,694.4533,,,,697.4018,697.901,696.8853,697.4018,695.4689,181.0,696.8852,697.901,698.4014,698.4014,699.6509,1199.8,699.6515,2.0,700.6502,3.0,22.0,112.0,28.0,1.0,1.4,0.7,Time
,,S08,189058,1,Female,29,anonymized,Serial_Dependence_U,2023.2.3,Win32,59.52380952,,,,,,,,,,,,700.6507,3.0,700.6512,,,,702.9999,703.4992,702.4833,702.9998,701.6672,113.0,702.4832,703.4992,703.9989,703.9989,705.1158,1104.2,705.1163,5.0,706.1149,3.0,23.0,113.0,15.0,1.0,0.8,0.7,Time
,,S08,189058,1,Female,29,anonymized,Serial_Dependence_U,2023.2.3,Win32,59.52380952,,,,,,,,,,,,706.1155,3.0,706.1165,,,,708.8648,709.3637,708.3482,708.8646,707.1319,334.0,708.348,709.3637,709.8637,709.8638,711.1142,1047.9,711.1152,2.0,712.1129,3.0,24.0,114.0,17.0,1.0,1.2,0.7,Time
,,S08,189058,1,Female,29,anonymized,Serial_Dependence_U,2023.2.3,Win32,59.52380952,,,,,,,,,,,,712.1133,3.0,712.1136,,,,715.086,715.5787,714.569,715.0855,713.1541,157.0,714.5683,715.5787,716.0782,716.0782,717.2953,1181.1,717.2957,2.0,718.2949,3.0,25.0,115.0,23.0,1.0,1.4,0.3,Time
,,S08,189058,1,Female,29,anonymized,Serial_Dependence_U,2023.2.3,Win32,59.52380952,,,,,,,,,,,,718.2966,3.0,718.2973,,,,721.244,721.7433,720.7275,721.2437,719.3113,240.0,720.7273,721.7433,722.2429,722.2429,723.4105,1152.9,723.4115,2.0,724.4088,3.0,26.0,116.0,3.0,1.0,1.4,0.3,Time
,,S08,189058,1,Female,29,anonymized,Serial_Dependence_U,2023.2.3,Win32,59.52380952,,,,,,,,,,,,724.4093,3.0,724.4097,,,,726.9586,727.4577,726.442,726.9584,725.4261,287.0,726.4419,727.4577,727.9574,727.9574,729.4406,1446.4,729.4411,5.0,730.4401,3.0,27.0,117.0,21.0,1.0,1.0,0.3,Time
,,S08,189058,1,Female,29,anonymized,Serial_Dependence_U,2023.2.3,Win32,59.52380952,,,,,,,,,,,,730.4408,3.0,730.4415,,,,733.1897,733.6891,732.6736,733.1896,731.4571,148.0,732.6735,733.6891,734.1893,734.1893,735.4554,1232.5,735.4559,3.0,736.4548,3.0,28.0,118.0,27.0,1.0,1.2,0.7,Time
,,S08,189058,1,Female,29,anonymized,Serial_Dependence_U,2023.2.3,Win32,59.52380952,,,,,,,,,,,,736.4556,3.0,736.4568,,,,739.6041,740.1034,739.0879,739.6039,737.4719,158.0,739.0877,740.1034,740.6031,740.6032,742.1033,1468.2,742.1038,2.0,743.1025,3.0,29.0,119.0,14.0,1.0,1.6,0.3,Time
,,S08,189058,1,Female,29,anonymized,Serial_Dependence_U,2023.2.3,Win32,59.52380952,,,,,,,,,,,,743.103,4.0,744.6355,s,1.4969,,747.7847,748.2839,747.2681,747.7847,745.653,357.0,747.2681,748.2839,748.784,748.784,751.8164,2399.4,751.8168,5.0,752.8158,4.0,0.0,120.0,9.0,1.0,1.6,0.7,Time
,,S08,189058,1,Female,29,anonymized,Serial_Dependence_U,2023.2.3,Win32,59.52380952,,,,,,,,,,,,752.8163,4.0,752.8211,,,,755.7655,756.2646,755.2488,755.7653,753.8327,263.0,755.2486,756.2647,756.7644,756.7644,758.3981,1613.9,758.3993,4.0,759.3977,4.0,1.0,121.0,8.0,1.0,1.4,0.7,Time
,,S08,189058,1,Female,29,anonymized,Serial_Dependence_U,2023.2.3,Win32,59.52380952,,,,,,,,,,,,759.3994,4.0,759.3997,,,,762.5463,763.0455,762.0301,762.5462,760.4137,17.0,762.03,763.0455,763.5454,763.5455,765.6618,2081.2,765.6622,5.0,766.6612,4.0,2.0,122.0,19.0,1.0,1.6,0.7,Time
,,S08,189058,1,Female,29,anonymized,Serial_Dependence_U,2023.2.3,Win32,59.52380952,,,,,,,,,,,,766.6617,4.0,766.6623,,,,769.411,769.9101,768.8945,769.4109,767.6783,13.0,768.8942,769.9102,770.4098,770.4098,771.5934,1149.6,771.595,3.0,772.5924,4.0,3.0,123.0,27.0,1.0,1.2,0.7,Time
,,S08,189058,1,Female,29,anonymized,Serial_Dependence_U,2023.2.3,Win32,59.52380952,,,,,,,,,,,,772.593,4.0,772.5934,,,,775.5253,776.0245,775.0157,775.5252,773.5973,189.0,775.0156,776.0246,776.5244,776.5244,778.2075,1666.3,778.2081,4.0,779.2068,4.0,4.0,124.0,13.0,1.0,1.4,0.3,Time
,,S08,189058,1,Female,29,anonymized,Serial_Dependence_U,2023.2.3,Win32,59.52380952,,,,,,,,,,,,779.2073,4.0,779.2078,,,,782.3569,782.8559,781.8398,782.3566,780.2237,218.0,781.8398,782.8559,783.3555,783.3555,785.3886,1533.4,785.389,3.0,786.3878,4.0,5.0,125.0,24.0,1.0,1.6,0.3,Time
,,S08,189058,1,Female,29,anonymized,Serial_Dependence_U,2023.2.3,Win32,59.52380952,,,,,,,,,,,,786.3882,4.0,786.3888,,,,789.1375,789.6367,788.621,789.1374,787.4048,143.0,788.6209,789.6367,790.1386,790.1389,792.386,1238.6,792.3867,3.0,793.3856,4.0,6.0,126.0,17.0,1.0,1.2,0.7,Time
,,S08,189058,1,Female,29,anonymized,Serial_Dependence_U,2023.2.3,Win32,59.52380952,,,,,,,,,,,,793.3863,4.0,793.3871,,,,795.935,796.4343,795.4187,795.935,794.4023,356.0,795.4186,796.4344,796.9342,796.9343,798.7007,1365.6,798.7013,5.0,799.7,4.0,7.0,127.0,11.0,1.0,1.0,0.3,Time
,,S08,189058,1,Female,29,anonymized,Serial_Dependence_U,2023.2.3,Win32,59.52380952,,,,,,,,,,,,799.7008,4.0,799.7018,,,,802.0498,802.5489,801.5332,802.0496,800.7168,245.0,801.5331,802.5489,803.0488,803.0488,809.0639,9999.0,809.0643,0.0,810.063,4.0,8.0,128.0,10.0,1.0,0.8,0.3,Time
,,S08,189058,1,Female,29,anonymized,Serial_Dependence_U,2023.2.3,Win32,59.52380952,,,,,,,,,,,,810.0636,4.0,810.066,,,,813.0134,813.5119,812.4962,813.0131,811.08,123.0,812.4962,813.5119,814.0118,814.0118,814.3292,287.9,814.3298,1.0,815.3279,4.0,9.0,129.0,3.0,1.0,1.4,0.3,Time
,,S08,189058,1,Female,29,anonymized,Serial_Dependence_U,2023.2.3,Win32,59.52380952,,,,,,,,,,,,815.3287,4.0,815.3297,,,,817.6779,818.177,817.1613,817.6777,816.345,106.0,817.1613,818.177,818.6768,818.6768,820.1599,1095.6,820.1605,5.0,821.1593,4.0,10.0,130.0,20.0,1.0,0.8,0.3,Time
,,S08,189058,1,Female,29,anonymized,Serial_Dependence_U,2023.2.3,Win32,59.52380952,,,,,,,,,,,,821.1599,4.0,821.1605,,,,824.109,824.6085,823.5925,824.1089,822.1761,148.0,823.5924,824.6085,825.1081,825.1081,826.5912,1449.6,826.5916,3.0,827.5905,4.0,11.0,131.0,23.0,1.0,1.4,0.3,Time
,,S08,189058,1,Female,29,anonymized,Serial_Dependence_U,2023.2.3,Win32,59.52380952,,,,,,,,,,,,827.5911,4.0,827.5916,,,,830.3401,830.8394,829.8237,830.34,828.6073,312.0,829.8235,830.8394,831.3392,831.3392,832.6391,1270.6,832.6395,4.0,833.6402,4.0,12.0,132.0,7.0,1.0,1.2,0.7,Time
,,S08,189058,1,Female,29,anonymized,Serial_Dependence_U,2023.2.3,Win32,59.52380952,,,,,,,,,,,,833.6419,4.0,833.6425,,,,836.5718,837.0706,836.0552,836.5716,834.642,31.0,836.055,837.0707,837.5706,837.5707,838.6374,1035.7,838.638,2.0,839.6367,4.0,13.0,133.0,18.0,1.0,1.4,0.7,Time
,,S08,189058,1,Female,29,anonymized,Serial_Dependence_U,2023.2.3,Win32,59.52380952,,,,,,,,,,,,839.6374,4.0,839.6378,,,,842.5864,843.0856,842.0699,842.5863,840.6538,236.0,842.0699,843.0856,843.5854,843.5854,844.8685,1268.1,844.8689,2.0,845.868,4.0,14.0,134.0,28.0,1.0,1.4,0.7,Time
,,S08,189058,1,Female,29,anonymized,Serial_Dependence_U,2023.2.3,Win32,59.52380952,,,,,,,,,,,,845.8686,4.0,845.869,,,,848.6179,849.1168,848.1009,848.6178,846.8847,179.0,848.1008,849.1168,849.6165,849.6166,850.9498,1318.2,850.9504,4.0,851.949,4.0,15.0,135.0,22.0,1.0,1.2,0.3,Time
,,S08,189058,1,Female,29,anonymized,Serial_Dependence_U,2023.2.3,Win32,59.52380952,,,,,,,,,,,,851.9498,4.0,851.9507,,,,854.6991,855.1982,854.1829,854.699,852.9665,300.0,854.1827,855.1982,855.698,855.6981,857.1478,1417.6,857.1483,4.0,858.1472,4.0,16.0,136.0,12.0,1.0,1.2,0.3,Time
,,S08,189058,1,Female,29,anonymized,Serial_Dependence_U,2023.2.3,Win32,59.52380952,,,,,,,,,,,,858.1477,4.0,858.1484,,,,860.4968,860.9962,859.9805,860.4967,859.1642,338.0,859.9804,860.9963,861.496,861.496,862.4792,950.4,862.4798,4.0,863.4787,4.0,17.0,137.0,5.0,1.0,0.8,0.7,Time
,,S08,189058,1,Female,29,anonymized,Serial_Dependence_U,2023.2.3,Win32,59.52380952,,,,,,,,,,,,863.4793,4.0,863.4796,,,,866.6287,867.1274,866.1121,866.6285,864.4957,268.0,866.112,867.1275,867.6275,867.6275,868.8938,1249.2,868.8944,2.0,869.8932,4.0,18.0,138.0,4.0,1.0,1.6,0.3,Time
,,S08,189058,1,Female,29,anonymized,Serial_Dependence_U,2023.2.3,Win32,59.52380952,,,,,,,,,,,,869.8939,4.0,869.8944,,,,872.4264,872.9253,871.91,872.4263,870.8948,35.0,871.9099,872.9253,873.4253,873.4254,874.5919,1146.2,874.5924,4.0,875.5913,4.0,19.0,139.0,6.0,1.0,1.0,0.7,Time
,,S08,189058,1,Female,29,anonymized,Serial_Dependence_U,2023.2.3,Win32,59.52380952,,,,,,,,,,,,875.592,4.0,875.5926,,,,878.3413,878.8401,877.8246,878.3411,876.6083,171.0,877.8245,878.8401,879.34,879.34,880.573,1216.3,880.5735,3.0,881.5726,4.0,20.0,140.0,2.0,1.0,1.2,0.3,Time
,,S08,189058,1,Female,29,anonymized,Serial_Dependence_U,2023.2.3,Win32,59.52380952,,,,,,,,,,,,881.5732,4.0,881.5738,,,,883.9227,884.4217,883.4063,883.9226,882.5898,265.0,883.4062,884.4217,884.9216,884.9217,885.8381,900.0,885.8385,4.0,886.8376,4.0,21.0,141.0,25.0,1.0,0.8,0.7,Time
,,S08,189058,1,Female,29,anonymized,Serial_Dependence_U,2023.2.3,Win32,59.52380952,,,,,,,,,,,,886.8382,4.0,886.8393,,,,889.3873,889.8864,888.8709,889.3872,887.8573,154.0,888.8708,889.8865,890.3863,890.3864,891.2695,850.4,891.27,2.0,892.2688,4.0,22.0,142.0,26.0,1.0,1.0,0.7,Time
,,S08,189058,1,Female,29,anonymized,Serial_Dependence_U,2023.2.3,Win32,59.52380952,,,,,,,,,,,,892.2692,4.0,892.2697,,,,894.8353,895.3341,894.3192,894.8352,893.3028,176.0,894.319,895.3342,895.8343,895.8343,897.0007,1148.3,897.0013,4.0,898.0002,4.0,23.0,143.0,1.0,1.0,1.0,0.3,Time
,,S08,189058,1,Female,29,anonymized,Serial_Dependence_U,2023.2.3,Win32,59.52380952,,,,,,,,,,,,898.0007,4.0,898.0013,,,,900.3499,900.8494,899.8336,900.3499,899.0171,236.0,899.8334,900.8494,901.3489,901.349,902.3322,944.5,902.3327,4.0,903.3317,4.0,24.0,144.0,15.0,1.0,0.8,0.7,Time
,,S08,189058,1,Female,29,anonymized,Serial_Dependence_U,2023.2.3,Win32,59.52380952,,,,,,,,,,,,903.3322,4.0,903.3325,,,,906.4812,906.9805,905.9645,906.4811,904.3486,56.0,905.9645,906.9805,907.4803,907.4803,907.5138,0.399999976,907.5142,1.0,908.5133,4.0,25.0,145.0,14.0,1.0,1.6,0.3,Time
,,S08,189058,1,Female,29,anonymized,Serial_Dependence_U,2023.2.3,Win32,59.52380952,,,,,,,,,,,,908.5138,4.0,908.5144,,,,911.0633,911.5623,910.5468,911.0631,909.5305,310.0,910.5467,911.5623,912.0622,912.0622,913.0454,601.8,913.046,1.0,914.0446,4.0,26.0,146.0,21.0,1.0,1.0,0.3,Time
,,S08,189058,1,Female,29,anonymized,Serial_Dependence_U,2023.2.3,Win32,59.52380952,,,,,,,,,,,,914.0452,4.0,914.046,,,,917.1945,917.6933,916.6777,917.1942,915.0619,289.0,916.6776,917.6933,918.1934,918.1934,919.743,1500.5,919.7436,2.0,920.7423,4.0,27.0,147.0,29.0,1.0,1.6,0.7,Time
,,S08,189058,1,Female,29,anonymized,Serial_Dependence_U,2023.2.3,Win32,59.52380952,,,,,,,,,,,,920.7428,4.0,920.7433,,,,923.0926,923.5914,922.5758,923.0923,921.7595,281.0,922.5757,923.5915,924.0915,924.0915,925.7578,1400.0,925.7582,5.0,926.7571,4.0,28.0,148.0,0.0,1.0,0.8,0.3,Time
,,S08,189058,1,Female,29,anonymized,Serial_Dependence_U,2023.2.3,Win32,59.52380952,,,,,,,,,,,,926.7576,4.0,926.7581,,,,929.3073,929.806,928.7903,929.307,927.7742,57.0,928.7902,929.806,930.3058,930.3058,931.5225,1195.5,931.5229,4.0,932.5218,4.0,29.0,149.0,16.0,1.0,1.0,0.7,Time
,,S08,189058,1,Female,29,anonymized,Serial_Dependence_U,2023.2.3,Win32,59.52380952,,,,,,,,,,,,932.5225,5.0,934.7545,s,2.2083,,937.3041,937.8033,936.7887,937.3039,935.7713,152.0,936.7882,937.8033,938.3032,938.3032,940.4694,2151.3,940.4699,5.0,941.4688,5.0,0.0,150.0,6.0,1.0,1.0,0.7,Time
,,S08,189058,1,Female,29,anonymized,Serial_Dependence_U,2023.2.3,Win32,59.52380952,,,,,,,,,,,,941.4694,5.0,941.4738,,,,944.0184,944.518,943.502,944.0184,942.4858,21.0,943.5019,944.518,945.0178,945.0178,946.4674,1431.9,946.4679,5.0,947.4667,5.0,1.0,151.0,16.0,1.0,1.0,0.7,Time
,,S08,189058,1,Female,29,anonymized,Serial_Dependence_U,2023.2.3,Win32,59.52380952,,,,,,,,,,,,947.4673,5.0,947.4681,,,,950.2163,950.7156,949.7002,950.2162,948.4837,33.0,949.6999,950.7156,951.2156,951.2156,953.5829,2018.1,953.5843,5.0,954.5813,5.0,2.0,152.0,17.0,1.0,1.2,0.7,Time
,,S08,189058,1,Female,29,anonymized,Serial_Dependence_U,2023.2.3,Win32,59.52380952,,,,,,,,,,,,954.5818,5.0,954.582,,,,957.5335,958.0298,957.0141,957.5332,955.5979,193.0,957.014,958.0298,958.5296,958.5297,960.0129,1451.2,960.0133,3.0,961.0122,5.0,3.0,153.0,13.0,1.0,1.4,0.3,Time
,,S08,189058,1,Female,29,anonymized,Serial_Dependence_U,2023.2.3,Win32,59.52380952,,,,,,,,,,,,961.0127,5.0,961.0131,,,,964.1617,964.6611,963.6452,964.1615,962.0291,261.0,963.6451,964.6611,965.1608,965.1609,966.9271,1729.2,966.9277,4.0,967.9265,5.0,4.0,154.0,24.0,1.0,1.6,0.3,Time
,,S08,189058,1,Female,29,anonymized,Serial_Dependence_U,2023.2.3,Win32,59.52380952,,,,,,,,,,,,967.927,5.0,967.9274,,,,970.6761,971.1752,970.1597,970.676,968.9441,32.0,970.1596,971.1753,971.6752,971.6753,974.3414,2634.3,974.342,5.0,975.3407,5.0,5.0,155.0,12.0,1.0,1.2,0.3,Time
,,S08,189058,1,Female,29,anonymized,Serial_Dependence_U,2023.2.3,Win32,59.52380952,,,,,,,,,,,,975.3412,5.0,975.3417,,,,978.2904,978.7896,977.7739,978.2903,976.3575,352.0,977.7738,978.7896,979.2897,979.2898,980.7056,1402.8,980.7059,3.0,981.7051,5.0,6.0,156.0,28.0,1.0,1.4,0.7,Time
,,S08,189058,1,Female,29,anonymized,Serial_Dependence_U,2023.2.3,Win32,59.52380952,,,,,,,,,,,,981.7058,5.0,981.7066,,,,984.2548,984.7542,983.7384,984.2547,982.7221,17.0,983.7383,984.7542,985.2541,985.2542,986.4539,1165.1,986.4544,4.0,987.4534,5.0,7.0,157.0,1.0,1.0,1.0,0.3,Time
,,S08,189058,1,Female,29,anonymized,Serial_Dependence_U,2023.2.3,Win32,59.52380952,,,,,,,,,,,,987.454,5.0,987.4545,,,,990.204,990.7021,989.6867,990.2037,988.4702,144.0,989.6866,990.7021,991.2021,991.2021,992.3352,1113.2,992.3358,2.0,993.3345,5.0,8.0,158.0,27.0,1.0,1.2,0.7,Time
,,S08,189058,1,Female,29,anonymized,Serial_Dependence_U,2023.2.3,Win32,59.52380952,,,,,,,,,,,,993.3352,5.0,993.3358,,,,995.6844,996.1838,995.1678,995.6843,994.3517,347.0,995.1678,996.1838,996.6833,996.6833,997.5833,878.6,997.5836,4.0,998.5828,5.0,9.0,159.0,25.0,1.0,0.8,0.7,Time
,,S08,189058,1,Female,29,anonymized,Serial_Dependence_U,2023.2.3,Win32,59.52380952,,,,,,,,,,,,998.5837,5.0,998.5844,,,,1001.3338,1001.8317,1000.816,1001.3335,999.5997,5.0,1000.8159,1001.8318,1002.3317,1002.3317,1003.4814,1113.7,1003.482,2.0,1004.4808,5.0,10.0,160.0,2.0,1.0,1.2,0.3,Time
,,S08,189058,1,Female,29,anonymized,Serial_Dependence_U,2023.2.3,Win32,59.52380952,,,,,,,,,,,,1004.4816,5.0,1004.4824,,,,1007.6306,1008.1294,1007.1141,1007.6305,1005.4979,3.0,1007.1139,1008.1294,1008.6295,1008.6295,1010.1291,1255.1,1010.1296,2.0,1011.1286,5.0,11.0,161.0,9.0,1.0,1.6,0.7,Time
,,S08,189058,1,Female,29,anonymized,Serial_Dependence_U,2023.2.3,Win32,59.52380952,,,,,,,,,,,,1011.1292,5.0,1011.1296,,,,1013.6675,1014.1609,1013.1513,1013.6668,1012.1453,131.0,1013.1513,1014.1609,1014.6617,1014.6617,1015.8106,1005.4,1015.8109,3.0,1016.8101,5.0,12.0,162.0,21.0,1.0,1.0,0.3,Time
,,S08,189058,1,Female,29,anonymized,Serial_Dependence_U,2023.2.3,Win32,59.52380952,,,,,,,,,,,,1016.8106,5.0,1016.811,,,,1019.36,1019.8591,1018.8435,1019.3598,1017.827,189.0,1018.8432,1019.8591,1020.3589,1020.3591,1021.6586,1278.6,1021.6592,4.0,1022.6581,5.0,13.0,163.0,26.0,1.0,1.0,0.7,Time
,,S08,189058,1,Female,29,anonymized,Serial_Dependence_U,2023.2.3,Win32,59.52380952,,,,,,,,,,,,1022.6585,5.0,1022.6591,,,,1025.6076,1026.107,1025.0911,1025.6076,1023.6751,341.0,1025.0911,1026.107,1026.6068,1026.6068,1027.84,1213.6,1027.8405,2.0,1028.8392,5.0,14.0,164.0,8.0,1.0,1.4,0.7,Time
,,S08,189058,1,Female,29,anonymized,Serial_Dependence_U,2023.2.3,Win32,59.52380952,,,,,,,,,,,,1028.8398,5.0,1028.8409,,,,1031.1892,1031.6884,1030.6724,1031.1891,1029.8563,78.0,1030.6723,1031.6884,1032.1881,1032.1882,1033.1382,915.8,1033.1387,4.0,1034.1375,5.0,15.0,165.0,0.0,1.0,0.8,0.3,Time
,,S08,189058,1,Female,29,anonymized,Serial_Dependence_U,2023.2.3,Win32,59.52380952,,,,,,,,,,,,1034.138,5.0,1034.1385,,,,1036.6873,1037.1865,1036.1708,1036.6872,1035.1543,162.0,1036.1707,1037.1866,1037.6863,1037.6863,1038.9029,1181.0,1038.9035,4.0,1039.9023,5.0,16.0,166.0,11.0,1.0,1.0,0.3,Time
,,S08,189058,1,Female,29,anonymized,Serial_Dependence_U,2023.2.3,Win32,59.52380952,,,,,,,,,,,,1039.9028,5.0,1039.9033,,,,1042.8519,1043.3511,1042.3353,1042.8518,1040.9192,255.0,1042.3352,1043.3511,1043.8509,1043.8509,1044.8341,943.2,1044.8346,1.0,1045.8337,5.0,17.0,167.0,23.0,1.0,1.4,0.3,Time
,,S08,189058,1,Female,29,anonymized,Serial_Dependence_U,2023.2.3,Win32,59.52380952,,,,,,,,,,,,1045.8341,5.0,1045.8346,,,,1048.7665,1049.2657,1048.2505,1048.7664,1046.8356,243.0,1048.2505,1049.2657,1049.7656,1049.7656,1051.0653,1229.2,1051.0656,2.0,1052.0647,5.0,18.0,168.0,18.0,1.0,1.4,0.7,Time
,,S08,189058,1,Female,29,anonymized,Serial_Dependence_U,2023.2.3,Win32,59.52380952,,,,,,,,,,,,1052.0653,5.0,1052.0657,,,,1055.2147,1055.7137,1054.6978,1055.2144,1053.0817,262.0,1054.6977,1055.7137,1056.2133,1056.2133,1057.9136,1611.7,1057.9146,3.0,1058.9125,5.0,19.0,169.0,4.0,1.0,1.6,0.3,Time
,,S08,189058,1,Female,29,anonymized,Serial_Dependence_U,2023.2.3,Win32,59.52380952,,,,,,,,,,,,1058.913,5.0,1058.9137,,,,1061.862,1062.3614,1061.3457,1061.8619,1059.9293,271.0,1061.3455,1062.3614,1062.8611,1062.8611,1064.5776,1696.0,1064.5781,4.0,1065.5768,5.0,20.0,170.0,3.0,1.0,1.4,0.3,Time
,,S08,189058,1,Female,29,anonymized,Serial_Dependence_U,2023.2.3,Win32,59.52380952,,,,,,,,,,,,1065.5772,5.0,1065.578,,,,1068.3265,1068.8257,1067.81,1068.3263,1066.5937,298.0,1067.8099,1068.8257,1069.3258,1069.3258,1070.8753,1502.3,1070.8758,4.0,1071.8746,5.0,21.0,171.0,22.0,1.0,1.2,0.3,Time
,,S08,189058,1,Female,29,anonymized,Serial_Dependence_U,2023.2.3,Win32,59.52380952,,,,,,,,,,,,1071.8752,5.0,1071.8755,,,,1075.0074,1075.5071,1074.4916,1075.0073,1072.8793,213.0,1074.4915,1075.5071,1076.0067,1076.0067,1077.1567,1136.0,1077.1573,2.0,1078.1561,5.0,22.0,172.0,14.0,1.0,1.6,0.3,Time
,,S08,189058,1,Female,29,anonymized,Serial_Dependence_U,2023.2.3,Win32,59.52380952,,,,,,,,,,,,1078.1569,5.0,1078.1577,,,,1081.3057,1081.8045,1080.7892,1081.3055,1079.1729,211.0,1080.7891,1081.8046,1082.3045,1082.3046,1083.7376,1331.6,1083.738,2.0,1084.7369,5.0,23.0,173.0,19.0,1.0,1.6,0.7,Time
,,S08,189058,1,Female,29,anonymized,Serial_Dependence_U,2023.2.3,Win32,59.52380952,,,,,,,,,,,,1084.7375,5.0,1084.738,,,,1087.0873,1087.5861,1086.5706,1087.0871,1085.7546,273.0,1086.5704,1087.5861,1088.086,1088.086,1089.3692,1266.6,1089.3697,5.0,1090.3685,5.0,24.0,174.0,10.0,1.0,0.8,0.3,Time
,,S08,189058,1,Female,29,anonymized,Serial_Dependence_U,2023.2.3,Win32,59.52380952,,,,,,,,,,,,1090.369,5.0,1090.3696,,,,1093.1181,1093.6173,1092.602,1093.118,1091.3853,322.0,1092.6017,1093.6173,1094.1172,1094.1173,1095.2337,1105.9,1095.2342,2.0,1096.2332,5.0,25.0,175.0,7.0,1.0,1.2,0.7,Time
,,S08,189058,1,Female,29,anonymized,Serial_Dependence_U,2023.2.3,Win32,59.52380952,,,,,,,,,,,,1096.2337,5.0,1096.2342,,,,1098.583,1099.0822,1098.0664,1098.583,1097.2509,147.0,1098.0664,1099.0822,1099.5821,1099.5821,1100.6486,1050.6,1100.6489,5.0,1101.6481,5.0,26.0,176.0,15.0,1.0,0.8,0.7,Time
,,S08,189058,1,Female,29,anonymized,Serial_Dependence_U,2023.2.3,Win32,59.52380952,,,,,,,,,,,,1101.6485,5.0,1101.6489,,,,1103.9978,1104.4971,1103.4819,1103.9977,1102.6649,11.0,1103.4818,1104.4971,1104.9969,1104.997,1106.0969,1083.7,1106.0975,5.0,1107.0961,5.0,27.0,177.0,20.0,1.0,0.8,0.3,Time
,,S08,189058,1,Female,29,anonymized,Serial_Dependence_U,2023.2.3,Win32,59.52380952,,,,,,,,,,,,1107.0967,5.0,1107.0972,,,,1110.2459,1110.7449,1109.7293,1110.2458,1108.1131,254.0,1109.7291,1110.7449,1111.2446,1111.2447,1112.3778,1105.1,1112.378,1.0,1113.3771,5.0,28.0,178.0,29.0,1.0,1.6,0.7,Time
,,S08,189058,1,Female,29,anonymized,Serial_Dependence_U,2023.2.3,Win32,59.52380952,,,,,,,,,,,,1113.3777,5.0,1113.3781,,,,1115.7276,1116.2265,1115.212,1115.7275,1114.3944,115.0,1115.2117,1116.2265,1116.7262,1116.7263,1117.8096,1066.8,1117.8102,5.0,1118.8089,5.0,29.0,179.0,5.0,1.0,0.8,0.7,Time
,,S08,189058,1,Female,29,anonymized,Serial_Dependence_U,2023.2.3,Win32,59.52380952,,,,,,,,,,,,1118.8094,6.0,1120.6584,s,1.8272,,1123.6077,1124.1069,1123.0914,1123.6077,1121.6752,5.0,1123.0914,1124.1069,1124.6069,1124.607,1125.957,1318.4,1125.9576,2.0,1126.956,6.0,0.0,180.0,8.0,1.0,1.4,0.7,Time
,,S08,189058,1,Female,29,anonymized,Serial_Dependence_U,2023.2.3,Win32,59.52380952,,,,,,,,,,,,1126.9566,6.0,1126.9615,,,,1129.5068,1130.0051,1128.9903,1129.5064,1127.9731,298.0,1128.9899,1130.0051,1130.505,1130.5051,1131.8548,1319.1,1131.8551,5.0,1132.8436,6.0,1.0,181.0,21.0,1.0,1.0,0.3,Time
,,S08,189058,1,Female,29,anonymized,Serial_Dependence_U,2023.2.3,Win32,59.52380952,,,,,,,,,,,,1132.8451,6.0,1132.8457,,,,1135.5871,1136.0863,1135.0704,1135.5869,1133.8574,148.0,1135.0704,1136.0864,1136.5862,1136.5863,1137.7695,1169.9,1137.7699,3.0,1138.7688,6.0,2.0,182.0,22.0,1.0,1.2,0.3,Time
,,S08,189058,1,Female,29,anonymized,Serial_Dependence_U,2023.2.3,Win32,59.52380952,,,,,,,,,,,,1138.7693,6.0,1138.7697,,,,1141.5191,1142.0177,1141.0028,1141.519,1139.7867,75.0,1141.0025,1142.0178,1142.5173,1142.5173,1143.7509,1218.0,1143.7514,3.0,1144.7499,6.0,3.0,183.0,2.0,1.0,1.2,0.3,Time
,,S08,189058,1,Female,29,anonymized,Serial_Dependence_U,2023.2.3,Win32,59.52380952,,,,,,,,,,,,1144.7507,6.0,1144.7514,,,,1147.8996,1148.3992,1147.3832,1147.8995,1145.767,88.0,1147.3831,1148.3992,1148.8986,1148.8986,1150.4819,1545.8,1150.4825,3.0,1151.4812,6.0,4.0,184.0,29.0,1.0,1.6,0.7,Time
,,S08,189058,1,Female,29,anonymized,Serial_Dependence_U,2023.2.3,Win32,59.52380952,,,,,,,,,,,,1151.482,6.0,1151.4826,,,,1154.231,1154.7303,1153.7145,1154.2309,1152.4984,59.0,1153.7143,1154.7303,1155.23,1155.23,1156.6131,1366.1,1156.6137,4.0,1157.6124,6.0,5.0,185.0,7.0,1.0,1.2,0.7,Time
,,S08,189058,1,Female,29,anonymized,Serial_Dependence_U,2023.2.3,Win32,59.52380952,,,,,,,,,,,,1157.6132,6.0,1157.6139,,,,1159.9623,1160.4612,1159.4456,1159.9622,1158.6298,96.0,1159.4456,1160.4613,1160.9613,1160.9613,1161.9445,962.2,1161.9449,4.0,1162.9438,6.0,6.0,186.0,0.0,1.0,0.8,0.3,Time
,,S08,189058,1,Female,29,anonymized,Serial_Dependence_U,2023.2.3,Win32,59.52380952,,,,,,,,,,,,1162.9448,6.0,1162.9466,,,,1165.8933,1166.3927,1165.3772,1165.8933,1163.961,16.0,1165.3771,1166.3927,1166.8925,1166.8926,1168.1257,1217.4,1168.126,2.0,1169.1251,6.0,7.0,187.0,28.0,1.0,1.4,0.7,Time
,,S08,189058,1,Female,29,anonymized,Serial_Dependence_U,2023.2.3,Win32,59.52380952,,,,,,,,,,,,1169.1257,6.0,1169.1264,,,,1172.0751,1172.5742,1171.5584,1172.075,1170.1424,24.0,1171.5582,1172.5742,1173.0737,1173.0737,1174.6404,1546.3,1174.6409,4.0,1175.6395,6.0,8.0,188.0,13.0,1.0,1.4,0.3,Time
,,S08,189058,1,Female,29,anonymized,Serial_Dependence_U,2023.2.3,Win32,59.52380952,,,,,,,,,,,,1175.6402,6.0,1175.6409,,,,1178.5894,1179.0885,1178.0726,1178.5892,1176.6567,180.0,1178.0726,1179.0886,1179.5882,1179.5882,1181.0546,1432.7,1181.0549,3.0,1182.0541,6.0,9.0,189.0,23.0,1.0,1.4,0.3,Time
,,S08,189058,1,Female,29,anonymized,Serial_Dependence_U,2023.2.3,Win32,59.52380952,,,,,,,,,,,,1182.0546,6.0,1182.0551,,,,1184.6045,1185.103,1184.0876,1184.6041,1183.0714,63.0,1184.0873,1185.103,1185.6029,1185.603,1186.8529,1231.1,1186.8534,4.0,1187.8522,6.0,10.0,190.0,11.0,1.0,1.0,0.3,Time
,,S08,189058,1,Female,29,anonymized,Serial_Dependence_U,2023.2.3,Win32,59.52380952,,,,,,,,,,,,1187.8527,6.0,1187.8531,,,,1191.0017,1191.5007,1190.4853,1191.0017,1188.8693,25.0,1190.4852,1191.5008,1192.0007,1192.0007,1193.7201,1680.7,1193.7205,4.0,1194.722,6.0,11.0,191.0,14.0,1.0,1.6,0.3,Time
,,S08,189058,1,Female,29,anonymized,Serial_Dependence_U,2023.2.3,Win32,59.52380952,,,,,,,,,,,,1194.7225,6.0,1194.7226,,,,1197.4665,1197.9657,1196.9498,1197.4664,1195.7333,319.0,1196.9496,1197.9657,1198.4658,1198.4659,1200.1485,1644.4,1200.1492,5.0,1201.1477,6.0,12.0,192.0,12.0,1.0,1.2,0.3,Time
,,S08,189058,1,Female,29,anonymized,Serial_Dependence_U,2023.2.3,Win32,59.52380952,,,,,,,,,,,,1201.1485,6.0,1201.1489,,,,1203.4977,1203.9967,1202.9811,1203.4975,1202.1651,282.0,1202.9809,1203.9967,1204.4966,1204.4967,1205.4966,976.3,1205.4971,4.0,1206.4959,6.0,13.0,193.0,25.0,1.0,0.8,0.7,Time
,,S08,189058,1,Female,29,anonymized,Serial_Dependence_U,2023.2.3,Win32,59.52380952,,,,,,,,,,,,1206.4964,6.0,1206.4969,,,,1209.4454,1209.9448,1208.929,1209.4453,1207.5131,69.0,1208.9289,1209.9448,1210.4446,1210.4446,1211.8609,1383.1,1211.8611,3.0,1212.8604,6.0,14.0,194.0,18.0,1.0,1.4,0.7,Time
,,S08,189058,1,Female,29,anonymized,Serial_Dependence_U,2023.2.3,Win32,59.52380952,,,,,,,,,,,,1212.8609,6.0,1212.8614,,,,1215.6104,1216.1093,1215.0948,1215.6102,1213.8777,324.0,1215.0944,1216.1094,1216.6092,1216.6093,1218.0755,1436.4,1218.0759,4.0,1219.0748,6.0,15.0,195.0,27.0,1.0,1.2,0.7,Time
,,S08,189058,1,Female,29,anonymized,Serial_Dependence_U,2023.2.3,Win32,59.52380952,,,,,,,,,,,,1219.0753,6.0,1219.0759,,,,1222.2245,1222.7238,1221.708,1222.2245,1220.0919,170.0,1221.708,1222.7238,1223.2236,1223.2236,1225.0732,1814.2,1225.0736,4.0,1226.0725,6.0,16.0,196.0,19.0,1.0,1.6,0.7,Time
,,S08,189058,1,Female,29,anonymized,Serial_Dependence_U,2023.2.3,Win32,59.52380952,,,,,,,,,,,,1226.073,6.0,1226.0735,,,,1228.6224,1229.1216,1228.1058,1228.6224,1227.0896,5.0,1228.1058,1229.1216,1229.6216,1229.6216,1231.1045,1133.3,1231.1052,4.0,1232.104,6.0,17.0,197.0,26.0,1.0,1.0,0.7,Time
,,S08,189058,1,Female,29,anonymized,Serial_Dependence_U,2023.2.3,Win32,59.52380952,,,,,,,,,,,,1232.1045,6.0,1232.1052,,,,1234.4544,1234.953,1233.9384,1234.4538,1233.1208,170.0,1233.9379,1234.953,1235.4528,1235.4528,1236.4194,950.1,1236.4199,4.0,1237.4188,6.0,18.0,198.0,10.0,1.0,0.8,0.3,Time
,,S08,189058,1,Female,29,anonymized,Serial_Dependence_U,2023.2.3,Win32,59.52380952,,,,,,,,,,,,1237.4193,6.0,1237.4198,,,,1240.5683,1241.0675,1240.0517,1240.5683,1238.4358,269.0,1240.0517,1241.0676,1241.5676,1241.5677,1243.0839,1496.7,1243.0845,2.0,1244.083,6.0,19.0,199.0,4.0,1.0,1.6,0.3,Time
,,S08,189058,1,Female,29,anonymized,Serial_Dependence_U,2023.2.3,Win32,59.52380952,,,,,,,,,,,,1244.0835,6.0,1244.0839,,,,1246.8329,1247.3322,1246.3167,1246.8329,1245.1003,235.0,1246.3167,1247.3322,1247.8319,1247.8319,1249.3484,1481.9,1249.3489,4.0,1250.3478,6.0,20.0,200.0,17.0,1.0,1.2,0.7,Time
,,S08,189058,1,Female,29,anonymized,Serial_Dependence_U,2023.2.3,Win32,59.52380952,,,,,,,,,,,,1250.3487,6.0,1250.3493,,,,1252.6903,1253.1848,1252.1809,1252.6902,1251.3652,188.0,1252.1809,1253.1849,1253.6835,1253.6837,1255.013,1185.7,1255.0134,5.0,1256.0131,6.0,21.0,201.0,5.0,1.0,0.8,0.7,Time
,,S08,189058,1,Female,29,anonymized,Serial_Dependence_U,2023.2.3,Win32,59.52380952,,,,,,,,,,,,1256.0137,6.0,1256.014,,,,1258.5622,1259.0615,1258.0459,1258.5621,1257.0295,130.0,1258.0456,1259.0615,1259.5613,1259.5613,1260.6944,1116.4,1260.6949,4.0,1261.6938,6.0,22.0,202.0,6.0,1.0,1.0,0.7,Time
,,S08,189058,1,Female,29,anonymized,Serial_Dependence_U,2023.2.3,Win32,59.52380952,,,,,,,,,,,,1261.6943,6.0,1261.6947,,,,1264.2438,1264.7428,1263.7273,1264.2437,1262.7111,234.0,1263.7272,1264.7429,1265.2425,1265.2425,1266.5093,1243.1,1266.5098,4.0,1267.5086,6.0,23.0,203.0,1.0,1.0,1.0,0.3,Time
,,S08,189058,1,Female,29,anonymized,Serial_Dependence_U,2023.2.3,Win32,59.52380952,,,,,,,,,,,,1267.5091,6.0,1267.5095,,,,1270.6584,1271.1572,1270.1414,1270.6582,1268.5255,300.0,1270.1414,1271.1573,1271.6573,1271.6573,1272.9902,1301.0,1272.9907,2.0,1273.9898,6.0,24.0,204.0,9.0,1.0,1.6,0.7,Time
,,S08,189058,1,Female,29,anonymized,Serial_Dependence_U,2023.2.3,Win32,59.52380952,,,,,,,,,,,,1273.9903,6.0,1273.9907,,,,1276.9399,1277.4385,1276.4231,1276.9397,1275.0068,296.0,1276.4228,1277.4386,1277.9386,1277.9386,1279.2717,1299.7,1279.2722,2.0,1280.2709,6.0,25.0,205.0,3.0,1.0,1.4,0.3,Time
,,S08,189058,1,Female,29,anonymized,Serial_Dependence_U,2023.2.3,Win32,59.52380952,,,,,,,,,,,,1280.2716,6.0,1280.2722,,,,1282.621,1283.1199,1282.1045,1282.6208,1281.2881,112.0,1282.1042,1283.12,1283.6198,1283.6199,1284.6032,952.2,1284.6037,4.0,1285.6025,6.0,26.0,206.0,15.0,1.0,0.8,0.7,Time
,,S08,189058,1,Female,29,anonymized,Serial_Dependence_U,2023.2.3,Win32,59.52380952,,,,,,,,,,,,1285.603,6.0,1285.6035,,,,1287.9528,1288.4514,1287.436,1287.9527,1286.6196,35.0,1287.4357,1288.4514,1288.9513,1288.9513,1289.7348,749.9,1289.7352,2.0,1290.734,6.0,27.0,207.0,20.0,1.0,0.8,0.3,Time
,,S08,189058,1,Female,29,anonymized,Serial_Dependence_U,2023.2.3,Win32,59.52380952,,,,,,,,,,,,1290.7346,6.0,1290.7354,,,,1293.2838,1293.7832,1292.7676,1293.2838,1291.7518,79.0,1292.7674,1293.7832,1294.283,1294.283,1295.4161,1115.4,1295.4166,4.0,1296.4156,6.0,28.0,208.0,16.0,1.0,1.0,0.7,Time
,,S08,189058,1,Female,29,anonymized,Serial_Dependence_U,2023.2.3,Win32,59.52380952,,,,,,,,,,,,1296.4162,6.0,1296.4168,,,,1299.5648,1300.0641,1299.0484,1299.5647,1297.4325,223.0,1299.0482,1300.0641,1300.5641,1300.5641,1301.9806,1397.0,1301.9811,2.0,1302.9799,6.0,29.0,209.0,24.0,1.0,1.6,0.3,Time
,,S08,189058,1,Female,29,anonymized,Serial_Dependence_U,2023.2.3,Win32,59.52380952,,,,,,,,,,,,1302.9805,7.0,1304.5129,s,1.5031,,1307.6624,1308.1617,1307.1459,1307.6623,1305.5298,359.0,1307.1458,1308.1617,1308.6614,1308.6614,1310.1776,1255.0,1310.1778,2.0,1311.1772,7.0,0.0,210.0,24.0,1.0,1.6,0.3,Time
,,S08,189058,1,Female,29,anonymized,Serial_Dependence_U,2023.2.3,Win32,59.52380952,,,,,,,,,,,,1311.1777,7.0,1311.1826,,,,1314.3284,1314.8263,1313.8144,1314.3281,1312.1942,102.0,1313.814,1314.8263,1315.3261,1315.3261,1316.6589,1313.8,1316.6595,2.0,1317.6587,7.0,1.0,211.0,19.0,1.0,1.6,0.7,Time
,,S08,189058,1,Female,29,anonymized,Serial_Dependence_U,2023.2.3,Win32,59.52380952,,,,,,,,,,,,1317.6593,7.0,1317.6599,,,,1320.0085,1320.5078,1319.493,1320.0085,1318.6752,204.0,1319.4929,1320.5078,1321.0071,1321.0072,1321.9406,896.5,1321.9411,4.0,1322.9407,7.0,2.0,212.0,25.0,1.0,0.8,0.7,Time
,,S08,189058,1,Female,29,anonymized,Serial_Dependence_U,2023.2.3,Win32,59.52380952,,,,,,,,,,,,1322.9422,7.0,1322.9425,,,,1326.0898,1326.5888,1325.5736,1326.0896,1323.9572,220.0,1325.5735,1326.5889,1327.0885,1327.0885,1328.155,1037.0,1328.1554,1.0,1329.1544,7.0,3.0,213.0,9.0,1.0,1.6,0.7,Time
,,S08,189058,1,Female,29,anonymized,Serial_Dependence_U,2023.2.3,Win32,59.52380952,,,,,,,,,,,,1329.1552,7.0,1329.1556,,,,1331.9043,1332.4034,1331.3875,1331.9042,1330.1719,195.0,1331.3874,1332.4034,1332.9032,1332.9033,1334.3198,1400.3,1334.3203,4.0,1335.319,7.0,4.0,214.0,17.0,1.0,1.2,0.7,Time
,,S08,189058,1,Female,29,anonymized,Serial_Dependence_U,2023.2.3,Win32,59.52380952,,,,,,,,,,,,1335.3196,7.0,1335.3202,,,,1337.869,1338.368,1337.3524,1337.869,1336.3357,105.0,1337.3522,1338.368,1338.8678,1338.8679,1340.1843,1301.4,1340.1847,5.0,1341.1843,7.0,5.0,215.0,21.0,1.0,1.0,0.3,Time
,,S08,189058,1,Female,29,anonymized,Serial_Dependence_U,2023.2.3,Win32,59.52380952,,,,,,,,,,,,1341.1862,7.0,1341.1865,,,,1343.5338,1344.0327,1343.0172,1343.5338,1342.2005,193.0,1343.0169,1344.0327,1344.5325,1344.5326,1345.3657,818.6,1345.366,3.0,1346.3653,7.0,6.0,216.0,15.0,1.0,0.8,0.7,Time
,,S08,189058,1,Female,29,anonymized,Serial_Dependence_U,2023.2.3,Win32,59.52380952,,,,,,,,,,,,1346.3657,7.0,1346.367,,,,1349.3149,1349.8142,1348.7985,1349.3148,1347.3824,248.0,1348.7984,1349.8142,1350.314,1350.3141,1351.0973,761.8,1351.0977,1.0,1352.0967,7.0,7.0,217.0,3.0,1.0,1.4,0.3,Time
,,S08,189058,1,Female,29,anonymized,Serial_Dependence_U,2023.2.3,Win32,59.52380952,,,,,,,,,,,,1352.0974,7.0,1352.0979,,,,1354.447,1354.9457,1353.93,1354.4467,1353.1136,127.0,1353.9299,1354.9457,1355.4477,1355.4478,1356.5453,1061.5,1356.5457,5.0,1357.5448,7.0,8.0,218.0,0.0,1.0,0.8,0.3,Time
,,S08,189058,1,Female,29,anonymized,Serial_Dependence_U,2023.2.3,Win32,59.52380952,,,,,,,,,,,,1357.5453,7.0,1357.5458,,,,1360.4945,1360.9935,1359.978,1360.4944,1358.5618,324.0,1359.9778,1360.9935,1361.4934,1361.4935,1362.7934,1247.0,1362.794,2.0,1363.7926,7.0,9.0,219.0,8.0,1.0,1.4,0.7,Time
,,S08,189058,1,Female,29,anonymized,Serial_Dependence_U,2023.2.3,Win32,59.52380952,,,,,,,,,,,,1363.7933,7.0,1363.794,,,,1366.5423,1367.0417,1366.0261,1366.5422,1364.8103,280.0,1366.0259,1367.0417,1367.5413,1367.5414,1368.8416,1283.5,1368.842,4.0,1369.8407,7.0,10.0,220.0,27.0,1.0,1.2,0.7,Time
,,S08,189058,1,Female,29,anonymized,Serial_Dependence_U,2023.2.3,Win32,59.52380952,,,,,,,,,,,,1369.8415,7.0,1369.842,,,,1372.3902,1372.8904,1371.8782,1372.3902,1370.8579,224.0,1371.878,1372.8905,1373.3907,1373.3908,1374.8226,1364.7,1374.8229,5.0,1375.8221,7.0,11.0,221.0,11.0,1.0,1.0,0.3,Time
,,S08,189058,1,Female,29,anonymized,Serial_Dependence_U,2023.2.3,Win32,59.52380952,,,,,,,,,,,,1375.8226,7.0,1375.823,,,,1378.7718,1379.2707,1378.255,1378.7717,1376.8395,246.0,1378.2549,1379.2707,1379.7707,1379.7708,1381.0207,1230.9,1381.0212,2.0,1382.02,7.0,12.0,222.0,23.0,1.0,1.4,0.3,Time
,,S08,189058,1,Female,29,anonymized,Serial_Dependence_U,2023.2.3,Win32,59.52380952,,,,,,,,,,,,1382.0204,7.0,1382.021,,,,1384.7697,1385.2687,1384.2535,1384.7695,1383.0371,304.0,1384.2531,1385.2687,1385.7687,1385.7687,1387.1517,1147.0,1387.1521,3.0,1388.1512,7.0,13.0,223.0,22.0,1.0,1.2,0.3,Time
,,S08,189058,1,Female,29,anonymized,Serial_Dependence_U,2023.2.3,Win32,59.52380952,,,,,,,,,,,,1388.1517,7.0,1388.1533,,,,1390.7013,1391.2002,1390.1845,1390.7011,1389.1685,254.0,1390.1843,1391.2003,1391.7,1391.7,1392.7998,1015.7,1392.8005,3.0,1393.7991,7.0,14.0,224.0,1.0,1.0,1.0,0.3,Time
,,S08,189058,1,Female,29,anonymized,Serial_Dependence_U,2023.2.3,Win32,59.52380952,,,,,,,,,,,,1393.7996,7.0,1393.8003,,,,1396.7489,1397.2483,1396.2329,1396.7488,1394.8163,123.0,1396.2326,1397.2483,1397.748,1397.7481,1398.6815,922.9,1398.6818,1.0,1399.6807,7.0,15.0,225.0,28.0,1.0,1.4,0.7,Time
,,S08,189058,1,Female,29,anonymized,Serial_Dependence_U,2023.2.3,Win32,59.52380952,,,,,,,,,,,,1399.6812,7.0,1399.6816,,,,1402.8306,1403.3293,1402.3139,1402.8305,1400.6978,344.0,1402.3138,1403.3293,1403.8293,1403.8294,1405.2458,1399.8,1405.2464,2.0,1406.245,7.0,16.0,226.0,4.0,1.0,1.6,0.3,Time
,,S08,189058,1,Female,29,anonymized,Serial_Dependence_U,2023.2.3,Win32,59.52380952,,,,,,,,,,,,1406.2456,7.0,1406.2461,,,,1408.7951,1409.2941,1408.2785,1408.795,1407.262,309.0,1408.2784,1409.2942,1409.794,1409.7941,1410.5939,783.2,1410.5942,2.0,1411.5933,7.0,17.0,227.0,6.0,1.0,1.0,0.7,Time
,,S08,189058,1,Female,29,anonymized,Serial_Dependence_U,2023.2.3,Win32,59.52380952,,,,,,,,,,,,1411.5938,7.0,1411.5943,,,,1414.543,1415.0422,1414.0264,1414.5429,1412.6105,282.0,1414.0263,1415.0423,1415.542,1415.542,1417.0416,1465.6,1417.0422,3.0,1418.0412,7.0,18.0,228.0,18.0,1.0,1.4,0.7,Time
,,S08,189058,1,Female,29,anonymized,Serial_Dependence_U,2023.2.3,Win32,59.52380952,,,,,,,,,,,,1418.0418,7.0,1418.0424,,,,1420.791,1421.29,1420.2745,1420.7909,1419.0582,170.0,1420.2744,1421.29,1421.7899,1421.7899,1423.3063,1498.1,1423.3068,4.0,1424.3057,7.0,19.0,229.0,7.0,1.0,1.2,0.7,Time
,,S08,189058,1,Female,29,anonymized,Serial_Dependence_U,2023.2.3,Win32,59.52380952,,,,,,,,,,,,1424.3062,7.0,1424.3066,,,,1427.0553,1427.5545,1426.5386,1427.0552,1425.3228,16.0,1426.5385,1427.5545,1428.0543,1428.0543,1429.1876,1117.2,1429.1878,2.0,1430.1869,7.0,20.0,230.0,2.0,1.0,1.2,0.3,Time
,,S08,189058,1,Female,29,anonymized,Serial_Dependence_U,2023.2.3,Win32,59.52380952,,,,,,,,,,,,1430.1875,7.0,1430.1882,,,,1432.5367,1433.037,1432.0202,1432.5366,1431.2042,97.0,1432.0201,1433.037,1433.5368,1433.5368,1435.3522,1764.6,1435.3526,5.0,1436.3517,7.0,21.0,231.0,20.0,1.0,0.8,0.3,Time
,,S08,189058,1,Female,29,anonymized,Serial_Dependence_U,2023.2.3,Win32,59.52380952,,,,,,,,,,,,1436.3524,7.0,1436.3531,,,,1439.5012,1440.0003,1438.9845,1439.501,1437.3687,126.0,1438.9844,1440.0003,1440.5002,1440.5003,1441.8334,1300.2,1441.8338,2.0,1442.8326,7.0,22.0,232.0,29.0,1.0,1.6,0.7,Time
,,S08,189058,1,Female,29,anonymized,Serial_Dependence_U,2023.2.3,Win32,59.52380952,,,,,,,,,,,,1442.8331,7.0,1442.8337,,,,1445.1824,1445.6817,1444.6662,1445.1824,1443.8497,17.0,1444.6662,1445.6818,1446.1816,1446.1817,1447.1316,936.7,1447.1321,4.0,1448.1309,7.0,23.0,233.0,5.0,1.0,0.8,0.7,Time
,,S08,189058,1,Female,29,anonymized,Serial_Dependence_U,2023.2.3,Win32,59.52380952,,,,,,,,,,,,1448.1314,7.0,1448.1318,,,,1450.4806,1450.9801,1449.9659,1450.4806,1449.1479,357.0,1449.9654,1450.9801,1451.4798,1451.4798,1452.3964,884.9,1452.397,4.0,1453.3958,7.0,24.0,234.0,10.0,1.0,0.8,0.3,Time
,,S08,189058,1,Female,29,anonymized,Serial_Dependence_U,2023.2.3,Win32,59.52380952,,,,,,,,,,,,1453.3964,7.0,1453.3969,,,,1456.3452,1456.8447,1455.8289,1456.3452,1454.4135,121.0,1455.8288,1456.8447,1457.3444,1457.3448,1458.6609,1299.2,1458.6633,2.0,1459.6603,7.0,25.0,235.0,13.0,1.0,1.4,0.3,Time
,,S08,189058,1,Female,29,anonymized,Serial_Dependence_U,2023.2.3,Win32,59.52380952,,,,,,,,,,,,1459.6612,7.0,1459.6617,,,,1462.4104,1462.9092,1461.8937,1462.4103,1460.6773,132.0,1461.8935,1462.9092,1463.4092,1463.4092,1464.6256,1199.3,1464.6259,3.0,1465.625,7.0,26.0,236.0,12.0,1.0,1.2,0.3,Time
,,S08,189058,1,Female,29,anonymized,Serial_Dependence_U,2023.2.3,Win32,59.52380952,,,,,,,,,,,,1465.6254,7.0,1465.6259,,,,1468.1767,1468.6743,1467.6583,1468.1762,1466.6422,169.0,1467.6581,1468.6743,1469.1744,1469.1744,1470.3071,1116.7,1470.3076,4.0,1471.3063,7.0,27.0,237.0,26.0,1.0,1.0,0.7,Time
,,S08,189058,1,Female,29,anonymized,Serial_Dependence_U,2023.2.3,Win32,59.52380952,,,,,,,,,,,,1471.3068,7.0,1471.3072,,,,1474.4559,1474.9551,1473.9397,1474.4558,1472.3236,57.0,1473.9395,1474.9551,1475.455,1475.4551,1476.5382,1054.7,1476.5386,1.0,1477.5375,7.0,28.0,238.0,14.0,1.0,1.6,0.3,Time
,,S08,189058,1,Female,29,anonymized,Serial_Dependence_U,2023.2.3,Win32,59.52380952,,,,,,,,,,,,1477.5382,7.0,1477.5387,,,,1480.0875,1480.5868,1479.571,1480.0875,1478.5547,17.0,1479.5708,1480.5868,1481.0866,1481.0867,1482.1696,1072.6,1482.17,4.0,1483.1691,7.0,29.0,239.0,16.0,1.0,1.0,0.7,Time
,,S08,189058,1,Female,29,anonymized,Serial_Dependence_U,2023.2.3,Win32,59.52380952,,,,,,,,,,,,1483.1696,8.0,1485.1186,s,1.9228,,1487.8682,1488.3673,1487.3518,1487.868,1486.1356,305.0,1487.3516,1488.3674,1488.8671,1488.8671,1489.9004,1016.1,1489.9011,2.0,1490.8996,8.0,0.0,240.0,2.0,1.0,1.2,0.3,Time
,,S08,189058,1,Female,29,anonymized,Serial_Dependence_U,2023.2.3,Win32,59.52380952,,,,,,,,,,,,1490.9001,8.0,1490.9044,,,,1493.8295,1494.3224,1493.3213,1493.8292,1491.917,192.0,1493.3209,1494.3225,1494.8163,1494.8166,1496.0554,1209.4,1496.056,2.0,1497.0477,8.0,1.0,241.0,18.0,1.0,1.4,0.7,Time
,,S08,189058,1,Female,29,anonymized,Serial_Dependence_U,2023.2.3,Win32,59.52380952,,,,,,,,,,,,1497.0481,8.0,1497.0485,,,,1500.1975,1500.697,1499.6809,1500.1975,1498.0647,188.0,1499.6807,1500.697,1501.1962,1501.1962,1502.7296,1504.2,1502.7299,2.0,1503.7287,8.0,2.0,242.0,19.0,1.0,1.6,0.7,Time
,,S08,189058,1,Female,29,anonymized,Serial_Dependence_U,2023.2.3,Win32,59.52380952,,,,,,,,,,,,1503.7292,8.0,1503.7307,,,,1506.0786,1506.5777,1505.5632,1506.0785,1504.7457,181.0,1505.5629,1506.5778,1507.0777,1507.0777,1508.294,1200.1,1508.2945,5.0,1509.2936,8.0,3.0,243.0,15.0,1.0,0.8,0.7,Time
,,S08,189058,1,Female,29,anonymized,Serial_Dependence_U,2023.2.3,Win32,59.52380952,,,,,,,,,,,,1509.2942,8.0,1509.2947,,,,1512.2434,1512.7424,1511.7269,1512.2433,1510.3105,83.0,1511.7268,1512.7424,1513.2423,1513.2423,1514.4754,1203.7,1514.4757,2.0,1515.4746,8.0,4.0,244.0,28.0,1.0,1.4,0.7,Time
,,S08,189058,1,Female,29,anonymized,Serial_Dependence_U,2023.2.3,Win32,59.52380952,,,,,,,,,,,,1515.4751,8.0,1515.4757,,,,1517.8248,1518.3238,1517.3081,1517.8247,1516.492,218.0,1517.308,1518.3238,1518.8241,1518.8242,1519.8573,1011.8,1519.8576,4.0,1520.8563,8.0,5.0,245.0,25.0,1.0,0.8,0.7,Time
,,S08,189058,1,Female,29,anonymized,Serial_Dependence_U,2023.2.3,Win32,59.52380952,,,,,,,,,,,,1520.8569,8.0,1520.8574,,,,1523.4063,1523.9052,1522.8898,1523.4062,1521.8738,15.0,1522.8898,1523.9052,1524.4052,1524.4052,1525.6216,1201.5,1525.6221,4.0,1526.6212,8.0,6.0,246.0,21.0,1.0,1.0,0.3,Time
,,S08,189058,1,Female,29,anonymized,Serial_Dependence_U,2023.2.3,Win32,59.52380952,,,,,,,,,,,,1526.6219,8.0,1526.6225,,,,1529.1541,1529.6535,1528.6378,1529.1541,1527.6228,84.0,1528.6377,1529.6536,1530.1535,1530.1535,1531.503,1333.1,1531.5033,5.0,1532.5024,8.0,7.0,247.0,11.0,1.0,1.0,0.3,Time
,,S08,189058,1,Female,29,anonymized,Serial_Dependence_U,2023.2.3,Win32,59.52380952,,,,,,,,,,,,1532.503,8.0,1532.5034,,,,1535.6521,1536.1512,1535.1356,1535.652,1533.5193,129.0,1535.1354,1536.1512,1536.651,1536.6511,1538.3338,1666.2,1538.3341,3.0,1539.3336,8.0,8.0,248.0,9.0,1.0,1.6,0.7,Time
,,S08,189058,1,Female,29,anonymized,Serial_Dependence_U,2023.2.3,Win32,59.52380952,,,,,,,,,,,,1539.3341,8.0,1539.3345,,,,1542.2832,1542.7822,1541.7665,1542.2831,1540.3505,131.0,1541.7664,1542.7823,1543.282,1543.282,1544.482,1164.6,1544.4824,2.0,1545.4813,8.0,9.0,249.0,23.0,1.0,1.4,0.3,Time
,,S08,189058,1,Female,29,anonymized,Serial_Dependence_U,2023.2.3,Win32,59.52380952,,,,,,,,,,,,1545.4822,8.0,1545.4831,,,,1548.2314,1548.7303,1547.7145,1548.2313,1546.4984,21.0,1547.7144,1548.7303,1549.2301,1549.2301,1550.5965,1349.4,1550.5971,4.0,1551.5963,8.0,10.0,250.0,17.0,1.0,1.2,0.7,Time
,,S08,189058,1,Female,29,anonymized,Serial_Dependence_U,2023.2.3,Win32,59.52380952,,,,,,,,,,,,1551.5984,8.0,1551.5988,,,,1554.757,1555.2447,1554.2299,1554.7568,1552.6142,91.0,1554.2296,1555.2448,1555.7446,1555.7446,1557.2277,1447.3,1557.2282,2.0,1558.2271,8.0,11.0,251.0,4.0,1.0,1.6,0.3,Time
,,S08,189058,1,Female,29,anonymized,Serial_Dependence_U,2023.2.3,Win32,59.52380952,,,,,,,,,,,,1558.2276,8.0,1558.228,,,,1561.177,1561.6763,1560.6603,1561.1768,1559.2442,255.0,1560.6602,1561.6763,1562.1755,1562.1756,1563.5756,1364.9,1563.5761,3.0,1564.5748,8.0,12.0,252.0,8.0,1.0,1.4,0.7,Time
,,S08,189058,1,Female,29,anonymized,Serial_Dependence_U,2023.2.3,Win32,59.52380952,,,,,,,,,,,,1564.5754,8.0,1564.5758,,,,1566.9251,1567.4239,1566.4086,1566.925,1565.592,277.0,1566.4082,1567.424,1567.9239,1567.9239,1568.707,771.1,1568.7074,3.0,1569.7065,8.0,13.0,253.0,5.0,1.0,0.8,0.7,Time
,,S08,189058,1,Female,29,anonymized,Serial_Dependence_U,2023.2.3,Win32,59.52380952,,,,,,,,,,,,1569.7071,8.0,1569.7075,,,,1572.6562,1573.1553,1572.1398,1572.6561,1570.7233,28.0,1572.1398,1573.1553,1573.6551,1573.6551,1575.0049,1331.9,1575.0053,3.0,1576.0045,8.0,14.0,254.0,13.0,1.0,1.4,0.3,Time
,,S08,189058,1,Female,29,anonymized,Serial_Dependence_U,2023.2.3,Win32,59.52380952,,,,,,,,,,,,1576.0049,8.0,1576.0054,,,,1578.5543,1579.0534,1578.0378,1578.5541,1577.0215,148.0,1578.0376,1579.0534,1579.553,1579.553,1580.8196,1251.8,1580.8201,4.0,1581.8191,8.0,15.0,255.0,6.0,1.0,1.0,0.7,Time
,,S08,189058,1,Female,29,anonymized,Serial_Dependence_U,2023.2.3,Win32,59.52380952,,,,,,,,,,,,1581.8197,8.0,1581.8206,,,,1584.5524,1585.0512,1584.0355,1584.5523,1582.824,14.0,1584.0354,1585.0512,1585.5512,1585.5512,1586.451,887.3,1586.4516,2.0,1587.4505,8.0,16.0,256.0,27.0,1.0,1.2,0.7,Time
,,S08,189058,1,Female,29,anonymized,Serial_Dependence_U,2023.2.3,Win32,59.52380952,,,,,,,,,,,,1587.451,8.0,1587.4516,,,,1590.6,1591.0994,1590.0836,1590.5999,1588.4676,225.0,1590.0835,1591.0995,1591.5991,1591.5992,1592.9821,1363.9,1592.9826,2.0,1593.9817,8.0,17.0,257.0,14.0,1.0,1.6,0.3,Time
,,S08,189058,1,Female,29,anonymized,Serial_Dependence_U,2023.2.3,Win32,59.52380952,,,,,,,,,,,,1593.9827,8.0,1593.9836,,,,1596.3318,1596.8308,1595.8151,1596.3315,1594.9986,280.0,1595.815,1596.8308,1597.3303,1597.3305,1598.9134,1548.7,1598.9138,5.0,1599.9128,8.0,18.0,258.0,20.0,1.0,0.8,0.3,Time
,,S08,189058,1,Female,29,anonymized,Serial_Dependence_U,2023.2.3,Win32,59.52380952,,,,,,,,,,,,1599.9135,8.0,1599.914,,,,1602.8624,1603.3616,1602.3461,1602.8623,1600.931,118.0,1602.3459,1603.3617,1603.8616,1603.8617,1606.528,2632.4,1606.5284,5.0,1607.5271,8.0,19.0,259.0,3.0,1.0,1.4,0.3,Time
,,S08,189058,1,Female,29,anonymized,Serial_Dependence_U,2023.2.3,Win32,59.52380952,,,,,,,,,,,,1607.528,8.0,1607.529,,,,1610.0769,1610.576,1609.5603,1610.0767,1608.5443,154.0,1609.5603,1610.576,1611.0759,1611.0759,1612.1923,1086.0,1612.1926,4.0,1613.1922,8.0,20.0,260.0,26.0,1.0,1.0,0.7,Time
,,S08,189058,1,Female,29,anonymized,Serial_Dependence_U,2023.2.3,Win32,59.52380952,,,,,,,,,,,,1613.1945,8.0,1613.1949,,,,1615.9415,1616.4407,1615.4249,1615.9413,1614.2091,349.0,1615.4248,1616.4407,1616.9406,1616.9406,1618.0737,1104.7,1618.0741,2.0,1619.0731,8.0,21.0,261.0,7.0,1.0,1.2,0.7,Time
,,S08,189058,1,Female,29,anonymized,Serial_Dependence_U,2023.2.3,Win32,59.52380952,,,,,,,,,,,,1619.0736,8.0,1619.0741,,,,1621.4234,1621.9222,1620.9064,1621.4233,1620.0902,37.0,1620.9063,1621.9222,1622.4221,1622.4222,1623.3219,860.8,1623.3223,4.0,1624.3213,8.0,22.0,262.0,10.0,1.0,0.8,0.3,Time
,,S08,189058,1,Female,29,anonymized,Serial_Dependence_U,2023.2.3,Win32,59.52380952,,,,,,,,,,,,1624.3219,8.0,1624.3222,,,,1627.4709,1627.97,1626.9549,1627.4708,1625.3385,270.0,1626.9547,1627.97,1628.4699,1628.4699,1629.8698,1366.3,1629.8703,2.0,1630.869,8.0,23.0,263.0,24.0,1.0,1.6,0.3,Time
,,S08,189058,1,Female,29,anonymized,Serial_Dependence_U,2023.2.3,Win32,59.52380952,,,,,,,,,,,,1630.8696,8.0,1630.8701,,,,1634.0187,1634.518,1633.5026,1634.0186,1631.8862,203.0,1633.5023,1634.518,1635.0178,1635.0179,1636.1844,1147.1,1636.185,2.0,1637.1837,8.0,24.0,264.0,29.0,1.0,1.6,0.7,Time
,,S08,189058,1,Female,29,anonymized,Serial_Dependence_U,2023.2.3,Win32,59.52380952,,,,,,,,,,,,1637.1842,8.0,1637.1849,,,,1639.9338,1640.4325,1639.4169,1639.9338,1638.2006,4.0,1639.4168,1640.4326,1640.9324,1640.9324,1642.3155,1350.8,1642.3159,4.0,1643.3149,8.0,25.0,265.0,12.0,1.0,1.2,0.3,Time
,,S08,189058,1,Female,29,anonymized,Serial_Dependence_U,2023.2.3,Win32,59.52380952,,,,,,,,,,,,1643.3154,8.0,1643.3159,,,,1645.6706,1646.1641,1645.1483,1645.6706,1644.3318,237.0,1645.1482,1646.1641,1646.6638,1646.6639,1647.9135,1200.1,1647.9138,5.0,1648.9133,8.0,26.0,266.0,0.0,1.0,0.8,0.3,Time
,,S08,189058,1,Female,29,anonymized,Serial_Dependence_U,2023.2.3,Win32,59.52380952,,,,,,,,,,,,1648.914,8.0,1648.9147,,,,1651.4628,1651.9621,1650.9463,1651.4627,1649.9303,344.0,1650.9463,1651.9621,1652.4619,1652.462,1653.8784,1382.4,1653.8788,5.0,1654.8777,8.0,27.0,267.0,16.0,1.0,1.0,0.7,Time
,,S08,189058,1,Female,29,anonymized,Serial_Dependence_U,2023.2.3,Win32,59.52380952,,,,,,,,,,,,1654.8782,8.0,1654.8787,,,,1657.4278,1657.9267,1656.9111,1657.4277,1655.8948,131.0,1656.911,1657.9267,1658.4264,1658.4265,1659.6097,1147.1,1659.6103,4.0,1660.6091,8.0,28.0,268.0,1.0,1.0,1.0,0.3,Time
,,S08,189058,1,Female,29,anonymized,Serial_Dependence_U,2023.2.3,Win32,59.52380952,,,,,,,,,,,,1660.6096,8.0,1660.6102,,,,1663.3588,1663.858,1662.8423,1663.3587,1661.6259,262.0,1662.8422,1663.858,1664.3579,1664.358,1666.0241,1632.5,1666.0247,5.0,1667.0234,8.0,29.0,269.0,22.0,1.0,1.2,0.3,Time
