Scale_setup.started,Scale_setup.stopped,participant,session,sex,age,date,expName,psychopyVersion,OS,frameRate,Intro.started,Intro.stopped,key_resp_2.keys,key_resp_2.rt,key_resp_2.duration,block.started,direction,Block_id,block.stopped,trial_direction,Block_resp_2.keys,Block_resp_2.rt,Block_resp_2.duration,ITI.started,ITI.stopped,Mask_2.started,Mask_2.stopped,encoding.started,encoding.stopped,Cue.started,Cue.stopped,Response.started,Response.stopped,keyDuration,Feedback_Time.started,FeedbackID_T,Feedback_Time.stopped,trials.thisRepN,trials.thisTrialN,trials.thisN,trials.thisIndex,trials.ran,TimeDur,Coherence1,TrialType
0.000100000023842,0.0001999999284745,S09,1,w,28,anonymized,Serial_Dependence_U,2023.2.3,Win32,59.88023952095548,,,,,,,,,,,,,,,,,,,,,,,,,,,,,,,,,,,
,,S09,1,w,28,anonymized,Serial_Dependence_U,2023.2.3,Win32,59.88023952095548,12.306299999952316,44.90069999992848,space,32.56319999992847,,,,,,,,,,,,,,,,,,,,,,,,,,,,,,,
,,S09,1,w,28,anonymized,Serial_Dependence_U,2023.2.3,Win32,59.88023952095548,,,,,,44.909000000000006,105.0,0.0,47.44979999995232,105.0,s,2.5176999999284746,,51.62379999995231,52.1155,51.10769999992847,51.62349999999999,48.45869999992847,51.1075,52.115899999976165,52.604,52.60439999997615,54.9735,149.0,54.974,1.0,55.96629999995231,0.0,0.0,0.0,19.0,1.0,1.6,0.7,Time
,,S09,1,w,28,anonymized,Serial_Dependence_U,2023.2.3,Win32,59.88023952095548,,,,,,55.96779999995232,279.0,0.0,55.97169999992848,279.0,,,,59.53210000002383,60.03119999992848,59.01679999995231,59.53179999995231,56.98260000002384,59.01660000002384,60.03129999995231,60.5315,60.53169999992848,81.66139999997615,119.0,81.66160000002384,1.0,82.661,0.0,1.0,1.0,26.0,1.0,1.0,0.7,Time
,,S09,1,w,28,anonymized,Serial_Dependence_U,2023.2.3,Win32,59.88023952095548,,,,,,82.66199999999999,329.0,0.0,82.66260000002384,329.0,,,,86.46039999997616,86.96029999995231,85.94489999997616,86.46029999995231,83.6785,85.94479999995231,86.96039999997616,87.46039999997616,87.46039999997616,92.49360000002385,184.0,92.49429999995232,1.0,93.492,0.0,2.0,2.0,2.0,1.0,1.2,0.3,Time
,,S09,1,w,28,anonymized,Serial_Dependence_U,2023.2.3,Win32,59.88023952095548,,,,,,93.49219999992847,299.0,0.0,93.49239999997616,299.0,,,,97.07660000002384,97.5752999999523,96.56,97.07639999997616,94.49379999995232,96.55989999997615,97.57539999997616,98.0752999999523,98.07539999997616,100.20860000002384,169.0,100.20869999992848,1.0,101.20779999995231,0.0,3.0,3.0,1.0,1.0,1.0,0.3,Time
,,S09,1,w,28,anonymized,Serial_Dependence_U,2023.2.3,Win32,59.88023952095548,,,,,,101.20810000002383,103.0,0.0,101.20829999995232,103.0,,,,104.97579999995232,105.47360000002384,104.45860000002384,104.97569999992848,102.22589999997616,104.45829999995232,105.47360000002384,105.97410000002384,105.97410000002384,106.80819999992848,177.0,106.80839999997616,1.0,107.8075,0.0,4.0,4.0,27.0,1.0,1.2,0.7,Time
,,S09,1,w,28,anonymized,Serial_Dependence_U,2023.2.3,Win32,59.88023952095548,,,,,,107.80860000002384,276.0,0.0,107.80910000002385,276.0,,,,111.60789999997615,112.10629999995233,111.09110000002384,111.6077999999523,108.82539999997616,111.09089999997616,112.10629999995233,112.60639999997616,112.6065,113.257,172.0,113.25710000002384,1.0,114.25610000002384,0.0,5.0,5.0,22.0,1.0,1.2,0.3,Time
,,S09,1,w,28,anonymized,Serial_Dependence_U,2023.2.3,Win32,59.88023952095548,,,,,,114.25710000002384,71.0,0.0,114.25760000002384,71.0,,,,118.222,118.72169999992848,117.70679999995232,118.22189999997616,115.2725,117.70669999992847,118.72169999992848,119.2215,119.22160000002384,119.82360000002384,161.0,119.82379999995231,1.0,120.82169999992848,0.0,6.0,6.0,8.0,1.0,1.4,0.7,Time
,,S09,1,w,28,anonymized,Serial_Dependence_U,2023.2.3,Win32,59.88023952095548,,,,,,120.82219999992849,181.0,0.0,120.82239999997616,181.0,,,,124.40429999995231,124.90379999995233,123.888,124.4041999999285,121.82160000002384,123.88789999997616,124.904,125.40379999995233,125.40379999995233,133.312,133.0,133.31219999992848,1.0,134.30279999995233,0.0,7.0,7.0,11.0,1.0,1.0,0.3,Time
,,S09,1,w,28,anonymized,Serial_Dependence_U,2023.2.3,Win32,59.88023952095548,,,,,,134.30339999997616,180.0,0.0,134.30360000002386,180.0,,,,138.06060000002384,138.55200000000002,137.54389999997616,138.06039999997617,135.31089999997616,137.5436999999285,138.55210000002384,139.0521999999285,139.0525,148.27610000002386,149.0,148.27610000002386,1.0,149.26810000002385,0.0,8.0,8.0,7.0,1.0,1.2,0.7,Time
,,S09,1,w,28,anonymized,Serial_Dependence_U,2023.2.3,Win32,59.88023952095548,,,,,,149.26929999995232,263.0,0.0,149.27019999992848,263.0,,,,153.4236999999285,153.9161999999285,152.90839999997615,153.4236999999285,150.2746999999285,152.90819999992848,153.9161999999285,154.4161999999285,154.41639999997616,155.92319999992847,167.0,155.92319999992847,1.0,156.9165,0.0,9.0,9.0,29.0,1.0,1.6,0.7,Time
,,S09,1,w,28,anonymized,Serial_Dependence_U,2023.2.3,Win32,59.88023952095548,,,,,,156.91760000002384,150.0,0.0,156.91829999995232,150.0,,,,160.29039999997616,160.78750000000002,159.78879999995232,160.2901999999285,157.92100000000002,159.7886999999285,160.78750000000002,161.28229999995233,161.2825,161.82279999995234,149.0,161.823,1.0,162.81510000002385,0.0,10.0,10.0,0.0,1.0,0.8,0.3,Time
,,S09,1,w,28,anonymized,Serial_Dependence_U,2023.2.3,Win32,59.88023952095548,,,,,,162.81589999997618,168.0,0.0,162.81610000002385,168.0,,,,166.15650000000002,166.64789999997618,165.63939999997618,166.15639999997617,163.80619999992848,165.63929999995233,166.64800000000002,167.1475,167.1475,168.70600000000002,151.0,168.70610000002387,1.0,169.7001999999285,0.0,11.0,11.0,15.0,1.0,0.8,0.7,Time
,,S09,1,w,28,anonymized,Serial_Dependence_U,2023.2.3,Win32,59.88023952095548,,,,,,169.70060000002383,198.0,0.0,169.70060000002383,198.0,,,,173.2535,173.74629999995233,172.73869999992849,173.25329999995233,170.70600000000002,172.73839999997617,173.74629999995233,174.24739999997618,174.24739999997618,175.85529999995234,166.0,175.85539999997616,1.0,176.84660000002384,0.0,12.0,12.0,16.0,1.0,1.0,0.7,Time
,,S09,1,w,28,anonymized,Serial_Dependence_U,2023.2.3,Win32,59.88023952095548,,,,,,176.8475,9.0,0.0,176.848,9.0,,,,180.8205,181.31239999997615,180.3191999999285,180.82039999997616,177.8545,180.31910000002387,181.31239999997615,181.81619999992847,181.81619999992847,183.4205,184.0,183.42069999992847,1.0,184.41229999995232,0.0,13.0,13.0,23.0,1.0,1.4,0.3,Time
,,S09,1,w,28,anonymized,Serial_Dependence_U,2023.2.3,Win32,59.88023952095548,,,,,,184.41329999995236,234.0,0.0,184.4136999999285,234.0,,,,188.56960000002385,189.06160000002384,188.05339999997616,188.56939999997616,185.42,188.0531999999285,189.06160000002384,189.56139999997615,189.5615,191.31939999997616,166.0,191.3195,1.0,192.311,0.0,14.0,14.0,9.0,1.0,1.6,0.7,Time
,,S09,1,w,28,anonymized,Serial_Dependence_U,2023.2.3,Win32,59.88023952095548,,,,,,192.3117999999523,116.0,0.0,192.31210000002383,116.0,,,,195.68539999997617,196.17629999995236,195.16789999997616,195.685,193.319,195.16779999995236,196.17639999997616,196.67639999997616,196.67639999997616,196.98410000002383,179.0,196.98410000002383,1.0,197.9765,0.0,15.0,15.0,25.0,1.0,0.8,0.7,Time
,,S09,1,w,28,anonymized,Serial_Dependence_U,2023.2.3,Win32,59.88023952095548,,,,,,197.97689999997613,22.0,0.0,197.977,22.0,,,,201.96810000002384,202.45939999997617,201.45110000002384,201.96789999997617,198.98460000002385,201.45089999997617,202.45939999997617,202.95910000002385,202.95919999992847,204.11760000002383,150.0,204.11769999992848,1.0,205.10860000002384,0.0,16.0,16.0,13.0,1.0,1.4,0.3,Time
,,S09,1,w,28,anonymized,Serial_Dependence_U,2023.2.3,Win32,59.88023952095548,,,,,,205.109,244.0,0.0,205.10910000002383,244.0,,,,209.26689999997615,209.75789999997616,208.76579999995232,209.26660000002383,206.1001999999285,208.76569999992847,209.75789999997616,210.25819999992848,210.25829999995236,210.867,168.0,210.86710000002384,1.0,211.8655,0.0,17.0,17.0,4.0,1.0,1.6,0.3,Time
,,S09,1,w,28,anonymized,Serial_Dependence_U,2023.2.3,Win32,59.88023952095548,,,,,,211.86619999992848,280.0,0.0,211.86679999995232,280.0,,,,215.23310000002385,215.72939999997615,214.71629999995235,215.23289999997613,212.86410000002385,214.71610000002383,215.72939999997615,216.22360000002385,216.22360000002385,216.8816999999285,183.0,216.88179999995236,1.0,217.87360000002383,0.0,18.0,18.0,5.0,1.0,0.8,0.7,Time
,,S09,1,w,28,anonymized,Serial_Dependence_U,2023.2.3,Win32,59.88023952095548,,,,,,217.8742999999523,329.0,0.0,217.87469999992848,329.0,,,,221.46489999997615,221.9565,220.94729999995232,221.46479999995236,218.88160000002387,220.94719999992847,221.9565,222.45639999997616,222.4565,223.3476999999285,150.0,223.34789999997616,1.0,224.3466999999285,0.0,19.0,19.0,21.0,1.0,1.0,0.3,Time
,,S09,1,w,28,anonymized,Serial_Dependence_U,2023.2.3,Win32,59.88023952095548,,,,,,224.3475,274.0,0.0,224.34810000002383,274.0,,,,228.09719999992848,228.58910000002385,227.57989999997616,228.097,225.3476999999285,227.5796999999285,228.5891999999285,229.08860000002383,229.08869999992848,229.76319999992847,150.0,229.76329999995232,1.0,230.75489999997615,0.0,20.0,20.0,17.0,1.0,1.2,0.7,Time
,,S09,1,w,28,anonymized,Serial_Dependence_U,2023.2.3,Win32,59.88023952095548,,,,,,230.75579999995236,189.0,0.0,230.75629999995232,189.0,,,,234.92939999997617,235.42660000002385,234.4125,234.92919999992847,231.74610000002383,234.41229999995232,235.42669999992847,235.92110000002384,235.9211999999285,237.32910000002383,133.0,237.32919999992848,1.0,238.32060000002383,0.0,21.0,21.0,24.0,1.0,1.6,0.3,Time
,,S09,1,w,28,anonymized,Serial_Dependence_U,2023.2.3,Win32,59.88023952095548,,,,,,238.3215,267.0,0.0,238.32179999995236,267.0,,,,242.5121999999285,243.00929999995236,241.995,242.512,239.32089999997615,241.99489999997616,243.00929999995236,243.50329999995236,243.50329999995236,244.17679999995232,149.0,244.17689999997617,1.0,245.16939999997615,0.0,22.0,22.0,14.0,1.0,1.6,0.3,Time
,,S09,1,w,28,anonymized,Serial_Dependence_U,2023.2.3,Win32,59.88023952095548,,,,,,245.1701000000239,335.0,0.0,245.17060000002385,335.0,,,,248.57710000002385,249.06860000002388,248.05979999995236,248.57679999995236,246.194,248.05969999992848,249.06869999992847,249.575,249.575,250.1938999999761,168.0,250.194,1.0,251.18889999997612,0.0,23.0,23.0,20.0,1.0,0.8,0.3,Time
,,S09,1,w,28,anonymized,Serial_Dependence_U,2023.2.3,Win32,59.88023952095548,,,,,,251.1898999999761,132.0,0.0,251.19019999992847,132.0,,,,255.14239999997616,255.64,254.62510000002385,255.14229999995231,252.193,254.625,255.64,256.1378999999761,256.138,256.7926999999284,132.0,256.79279999995225,1.0,257.78419999992843,0.0,24.0,24.0,28.0,1.0,1.4,0.7,Time
,,S09,1,w,28,anonymized,Serial_Dependence_U,2023.2.3,Win32,59.88023952095548,,,,,,257.7846999999284,130.0,0.0,257.78479999995227,130.0,,,,261.57499999999993,262.0668999999761,261.05839999997613,261.5747999999523,258.7917999999523,261.05819999992843,262.0671000000238,262.5665,262.5666000000238,264.1746000000238,133.0,264.1746999999284,1.0,265.1692999999523,0.0,25.0,25.0,12.0,1.0,1.2,0.3,Time
,,S09,1,w,28,anonymized,Serial_Dependence_U,2023.2.3,Win32,59.88023952095548,,,,,,265.1696999999284,107.0,0.0,265.16979999995226,107.0,,,,268.72399999999993,269.2158999999761,268.2068999999761,268.7238999999761,266.1712999999523,268.2067999999523,269.21599999999995,269.7223999999761,269.7226000000238,270.8406000000238,166.0,270.8406999999284,1.0,271.8318999999761,0.0,26.0,26.0,6.0,1.0,1.0,0.7,Time
,,S09,1,w,28,anonymized,Serial_Dependence_U,2023.2.3,Win32,59.88023952095548,,,,,,271.8327999999523,19.0,0.0,271.8331000000238,19.0,,,,275.8227999999523,276.3146000000238,275.30679999995226,275.8226000000238,272.8395,275.3066000000238,276.31469999992845,276.8148999999761,276.81499999999994,279.2867999999523,115.0,279.28689999997613,1.0,280.28079999995225,0.0,27.0,27.0,3.0,1.0,1.4,0.3,Time
,,S09,1,w,28,anonymized,Serial_Dependence_U,2023.2.3,Win32,59.88023952095548,,,,,,280.2813999999761,298.0,0.0,280.28189999997613,298.0,,,,283.6716000000238,284.16369999992844,283.1548999999761,283.67139999997613,281.2883999999761,283.1546999999284,284.1637999999523,284.66329999995224,284.6633999999761,286.27149999999995,150.0,286.27169999992844,1.0,287.26269999992843,0.0,28.0,28.0,10.0,1.0,0.8,0.3,Time
,,S09,1,w,28,anonymized,Serial_Dependence_U,2023.2.3,Win32,59.88023952095548,,,,,,287.2633999999761,176.0,0.0,287.2636999999284,176.0,,,,291.22069999992846,291.71219999992843,290.70329999995226,291.2205,288.2706000000238,290.703,291.7122999999523,292.2123999999761,292.2125,292.9366999999284,150.0,292.93679999995226,1.0,293.9285,0.0,29.0,29.0,18.0,1.0,1.4,0.7,Time
,,S09,1,w,28,anonymized,Serial_Dependence_U,2023.2.3,Win32,59.88023952095548,,,,,,293.92929999995226,245.0,1.0,320.1148999999761,245.0,s,26.14779999995227,,323.86529999995224,324.3575,323.3488999999761,323.8651000000238,321.11569999992844,323.3486000000238,324.3576999999284,324.8455,324.8456000000238,326.497,150.0,326.4971000000238,1.0,326.5054999999999,1.0,0.0,30.0,7.0,1.0,1.2,0.7,Time
,,S09,1,w,28,anonymized,Serial_Dependence_U,2023.2.3,Win32,59.88023952095548,,,,,,326.5056999999284,81.0,1.0,326.5065,81.0,,,,330.4957999999523,330.989,329.9816000000238,330.4957999999523,327.5153999999761,329.98139999997613,330.98910000002377,331.4956000000238,331.49569999992843,332.997,116.0,332.9971000000238,1.0,333.0056999999284,1.0,1.0,31.0,13.0,1.0,1.4,0.3,Time
,,S09,1,w,28,anonymized,Serial_Dependence_U,2023.2.3,Win32,59.88023952095548,,,,,,333.006,307.0,1.0,333.006,307.0,,,,336.7976000000238,337.28889999997614,336.2806000000238,336.79729999995226,334.01419999992845,336.2803999999761,337.289,337.79389999997613,337.7941000000238,338.64619999992846,133.0,338.64619999992846,1.0,338.6506000000238,1.0,2.0,32.0,12.0,1.0,1.2,0.3,Time
,,S09,1,w,28,anonymized,Serial_Dependence_U,2023.2.3,Win32,59.88023952095548,,,,,,338.65079999995226,205.0,1.0,338.6508999999761,205.0,,,,342.6293999999761,343.1271000000238,342.1128999999761,342.6291999999284,339.64469999992843,342.11279999995224,343.1271000000238,343.6251000000238,343.6251000000238,346.6601000000238,144.0,346.6601000000238,1.0,346.66529999995225,1.0,3.0,33.0,3.0,1.0,1.4,0.3,Time
,,S09,1,w,28,anonymized,Serial_Dependence_U,2023.2.3,Win32,59.88023952095548,,,,,,346.66549999999995,232.0,1.0,346.66549999999995,232.0,,,,350.6101000000238,351.10279999995225,350.095,350.6101000000238,347.66189999997613,350.0947999999523,351.1028999999761,351.60329999995224,351.6033999999761,353.2283999999761,150.0,353.22849999999994,1.0,353.239,1.0,4.0,34.0,28.0,1.0,1.4,0.7,Time
,,S09,1,w,28,anonymized,Serial_Dependence_U,2023.2.3,Win32,59.88023952095548,,,,,,353.2391999999284,155.0,1.0,353.23929999995227,155.0,,,,356.9936000000238,357.48549999999994,356.4776000000238,356.9934999999999,354.2421999999284,356.4775,357.48569999992844,357.98569999992844,357.9857999999523,358.72729999995227,167.0,358.7273999999761,1.0,358.7391999999284,1.0,5.0,35.0,17.0,1.0,1.2,0.7,Time
,,S09,1,w,28,anonymized,Serial_Dependence_U,2023.2.3,Win32,59.88023952095548,,,,,,358.7396000000238,74.0,1.0,358.7396999999284,74.0,,,,362.8926999999284,363.3845,362.3906999999284,362.8923999999761,359.7586999999284,362.3905,363.3846000000238,363.8841000000238,363.8841000000238,366.1927999999523,167.0,366.1928999999761,1.0,366.204,1.0,6.0,36.0,19.0,1.0,1.6,0.7,Time
,,S09,1,w,28,anonymized,Serial_Dependence_U,2023.2.3,Win32,59.88023952095548,,,,,,366.2043999999761,125.0,1.0,366.2045,125.0,,,,369.5919999999999,370.0835,369.0753999999761,369.59189999997614,367.209,369.0752999999523,370.0835,370.58329999995226,370.5833999999761,371.8751000000238,151.0,371.8751999999285,1.0,371.88810000002377,1.0,7.0,37.0,0.0,1.0,0.8,0.3,Time
,,S09,1,w,28,anonymized,Serial_Dependence_U,2023.2.3,Win32,59.88023952095548,,,,,,371.8883999999761,232.0,1.0,371.8885,232.0,,,,375.2583999999761,375.74929999995226,374.7412999999523,375.2581999999284,372.90579999995225,374.74099999999993,375.7493999999761,376.2558999999761,376.256,377.3911999999284,150.0,377.39129999995225,1.0,377.4041999999285,1.0,8.0,38.0,25.0,1.0,0.8,0.7,Time
,,S09,1,w,28,anonymized,Serial_Dependence_U,2023.2.3,Win32,59.88023952095548,,,,,,377.40439999997614,273.0,1.0,377.4046000000238,273.0,,,,380.9738999999761,381.46779999995226,380.4712999999523,380.9737999999523,378.4072999999523,380.4711999999285,381.46779999995226,381.9646999999284,381.9647999999523,382.58939999997614,116.0,382.58949999999993,1.0,382.5986999999285,1.0,9.0,39.0,1.0,1.0,1.0,0.3,Time
,,S09,1,w,28,anonymized,Serial_Dependence_U,2023.2.3,Win32,59.88023952095548,,,,,,382.5988999999761,117.0,1.0,382.59899999999993,117.0,,,,386.3392999999523,386.83079999995226,385.8381999999284,386.3391999999285,383.6066000000238,385.838,386.83079999995226,387.3376999999284,387.3378999999761,387.5061000000238,150.0,387.5061999999284,1.0,387.5166999999285,1.0,10.0,40.0,27.0,1.0,1.2,0.7,Time
,,S09,1,w,28,anonymized,Serial_Dependence_U,2023.2.3,Win32,59.88023952095548,,,,,,387.517,125.0,1.0,387.5171999999285,125.0,,,,390.8728999999761,391.3637999999523,390.3555,390.8726999999285,388.5223999999761,390.35529999995225,391.3638999999761,391.86339999997614,391.8636000000238,392.0056000000238,116.0,392.0056999999284,1.0,392.0171999999285,1.0,11.0,41.0,5.0,1.0,0.8,0.7,Time
,,S09,1,w,28,anonymized,Serial_Dependence_U,2023.2.3,Win32,59.88023952095548,,,,,,392.0173999999761,129.0,1.0,392.0174999999999,129.0,,,,395.3715,395.8627999999522,394.8546000000238,395.3711999999284,393.0217999999523,394.8545,395.8628999999761,396.363,396.363,396.6881000000238,100.0,396.6881000000238,1.0,396.6971999999285,1.0,12.0,42.0,15.0,1.0,0.8,0.7,Time
,,S09,1,w,28,anonymized,Serial_Dependence_U,2023.2.3,Win32,59.88023952095548,,,,,,396.6973999999761,306.0,1.0,396.69749999999993,306.0,,,,400.6541000000238,401.1455,400.13739999997614,400.6538999999761,397.7042999999523,400.1371999999285,401.1455,401.6456000000238,401.6456999999284,402.23729999995226,150.0,402.2375,1.0,402.2477999999523,1.0,13.0,43.0,18.0,1.0,1.4,0.7,Time
,,S09,1,w,28,anonymized,Serial_Dependence_U,2023.2.3,Win32,59.88023952095548,,,,,,402.2481000000238,148.0,1.0,402.2481000000238,148.0,,,,405.63419999992846,406.1276999999285,405.1202999999523,405.6341000000238,403.2531000000238,405.12,406.1276999999285,406.6277999999523,406.6277999999523,407.1841999999284,116.0,407.1841999999284,1.0,407.1902999999523,1.0,14.0,44.0,10.0,1.0,0.8,0.3,Time
,,S09,1,w,28,anonymized,Serial_Dependence_U,2023.2.3,Win32,59.88023952095548,,,,,,407.19049999999993,302.0,1.0,407.19049999999993,302.0,,,,410.5691000000238,411.0641000000238,410.05229999995225,410.5688999999761,408.186,410.0518999999761,411.0641000000238,411.5608999999761,411.56110000002377,412.0025,133.0,412.0026999999285,1.0,412.01310000002377,1.0,15.0,45.0,20.0,1.0,0.8,0.3,Time
,,S09,1,w,28,anonymized,Serial_Dependence_U,2023.2.3,Win32,59.88023952095548,,,,,,412.01329999995227,7.0,1.0,412.0133999999761,7.0,,,,415.9703999999761,416.4601999999284,415.4521000000238,415.9701999999284,413.0181999999284,415.452,416.4601999999284,416.9601999999284,416.9603999999761,417.6186000000238,166.0,417.6186999999284,1.0,417.6296000000238,1.0,16.0,46.0,8.0,1.0,1.4,0.7,Time
,,S09,1,w,28,anonymized,Serial_Dependence_U,2023.2.3,Win32,59.88023952095548,,,,,,417.6298999999761,37.0,1.0,417.6298999999761,37.0,,,,421.78399999999993,422.2767999999523,421.2671999999285,421.7838999999761,418.6336000000238,421.267,422.2767999999523,422.7818999999761,422.7819999999999,423.3673999999761,133.0,423.3676000000238,1.0,423.3775,1.0,17.0,47.0,9.0,1.0,1.6,0.7,Time
,,S09,1,w,28,anonymized,Serial_Dependence_U,2023.2.3,Win32,59.88023952095548,,,,,,423.3777999999523,223.0,1.0,423.3777999999523,223.0,,,,427.533,428.0247999999523,427.0168999999761,427.53279999995226,424.38379999995226,427.0167999999523,428.0247999999523,428.52510000002377,428.52529999995227,428.89879999995225,100.0,428.8988999999761,1.0,428.9091999999284,1.0,18.0,48.0,29.0,1.0,1.6,0.7,Time
,,S09,1,w,28,anonymized,Serial_Dependence_U,2023.2.3,Win32,59.88023952095548,,,,,,428.9093999999761,124.0,1.0,428.9095,124.0,,,,432.4633999999761,432.9576000000238,431.9473999999761,432.4633999999761,429.9162999999523,431.9472999999523,432.9576999999284,433.4566999999285,433.4566999999285,434.2818999999761,163.0,434.2819999999999,1.0,434.2907999999522,1.0,19.0,49.0,26.0,1.0,1.0,0.7,Time
,,S09,1,w,28,anonymized,Serial_Dependence_U,2023.2.3,Win32,59.88023952095548,,,,,,434.291,109.0,1.0,434.291,109.0,,,,438.4813999999761,438.9725,437.9648999999761,438.4811000000238,435.2978999999761,437.9647999999523,438.9726000000238,439.47319999992845,439.47329999995225,439.6302999999523,83.0,439.6302999999523,1.0,439.6415,1.0,20.0,50.0,4.0,1.0,1.6,0.3,Time
,,S09,1,w,28,anonymized,Serial_Dependence_U,2023.2.3,Win32,59.88023952095548,,,,,,439.6416999999285,109.0,1.0,439.6417999999523,109.0,,,,443.2141999999285,443.7058999999761,442.69749999999993,443.214,440.6651000000238,442.6973999999761,443.7058999999761,444.1941000000238,444.19429999995225,445.11269999992845,132.0,445.1127999999522,1.0,445.1186999999284,1.0,21.0,51.0,6.0,1.0,1.0,0.7,Time
,,S09,1,w,28,anonymized,Serial_Dependence_U,2023.2.3,Win32,59.88023952095548,,,,,,445.1188999999761,343.0,1.0,445.119,343.0,,,,449.11029999995225,449.6055,448.5961000000238,449.11019999992845,446.1298999999761,448.5958999999761,449.6055,450.1048999999761,450.1051000000238,452.0298999999761,133.0,452.03,1.0,452.0425,1.0,22.0,52.0,23.0,1.0,1.4,0.3,Time
,,S09,1,w,28,anonymized,Serial_Dependence_U,2023.2.3,Win32,59.88023952095548,,,,,,452.04279999995225,278.0,1.0,452.0428999999761,278.0,,,,456.2286999999285,456.72079999995225,455.7125,456.2286000000238,453.046,455.7125,456.7208999999761,457.2205,457.2205,464.4602999999522,84.0,464.4603999999761,1.0,464.47069999992846,1.0,23.0,53.0,24.0,1.0,1.6,0.3,Time
,,S09,1,w,28,anonymized,Serial_Dependence_U,2023.2.3,Win32,59.88023952095548,,,,,,464.471,32.0,1.0,464.4711000000238,32.0,,,,468.0267999999523,468.51829999995226,467.5105,468.0266000000238,465.4776999999284,467.5102999999523,468.5183999999761,469.0186999999284,469.01879999995225,469.5778999999761,150.0,469.5778999999761,1.0,469.5851000000238,1.0,24.0,54.0,16.0,1.0,1.0,0.7,Time
,,S09,1,w,28,anonymized,Serial_Dependence_U,2023.2.3,Win32,59.88023952095548,,,,,,469.5853999999761,301.0,1.0,469.5855,301.0,,,,473.1597999999522,473.655,472.6583999999761,473.1596999999284,470.5937999999523,472.65819999992846,473.6551000000238,474.1512999999522,474.1513999999761,480.8087999999522,150.0,480.8088999999761,1.0,480.8178999999761,1.0,25.0,55.0,21.0,1.0,1.0,0.3,Time
,,S09,1,w,28,anonymized,Serial_Dependence_U,2023.2.3,Win32,59.88023952095548,,,,,,480.8181999999284,299.0,1.0,480.8182999999523,299.0,,,,484.60779999995225,485.0992999999523,484.0912999999523,484.60779999995225,481.82499999999993,484.0911000000238,485.0992999999523,485.6051000000238,485.6051999999284,485.9906000000238,119.0,485.9906000000238,1.0,485.99729999995225,1.0,26.0,56.0,2.0,1.0,1.2,0.3,Time
,,S09,1,w,28,anonymized,Serial_Dependence_U,2023.2.3,Win32,59.88023952095548,,,,,,485.9973999999761,245.0,1.0,485.9975,245.0,,,,490.1886999999284,490.6876000000238,489.6731000000238,490.1885,487.0073999999761,489.6728999999761,490.6876000000238,491.1827999999523,491.1828999999761,491.64879999995225,109.0,491.6488999999761,1.0,491.6578999999761,1.0,27.0,57.0,14.0,1.0,1.6,0.3,Time
,,S09,1,w,28,anonymized,Serial_Dependence_U,2023.2.3,Win32,59.88023952095548,,,,,,491.6581000000238,16.0,1.0,491.65829999995225,16.0,,,,495.25629999995226,495.74799999999993,494.7396000000238,495.25629999995226,492.67349999999993,494.7393999999761,495.7481000000238,496.2368999999761,496.237,496.77329999995226,150.0,496.7733999999761,1.0,496.78319999992846,1.0,28.0,58.0,11.0,1.0,1.0,0.3,Time
,,S09,1,w,28,anonymized,Serial_Dependence_U,2023.2.3,Win32,59.88023952095548,,,,,,496.7836000000238,64.0,1.0,496.7836999999285,64.0,,,,500.572,501.0636999999284,500.0558999999761,500.57179999995225,497.7891000000238,500.0556999999285,501.06379999995227,501.56299999999993,501.56299999999993,502.0797999999523,135.0,502.0798999999761,1.0,502.0843999999761,1.0,29.0,59.0,22.0,1.0,1.2,0.3,Time
,,S09,1,w,28,anonymized,Serial_Dependence_U,2023.2.3,Win32,59.88023952095548,,,,,,502.0846000000238,74.0,2.0,517.6401000000238,74.0,s,15.516100000023812,,521.8021000000238,522.2936999999284,521.2858999999761,521.8019999999999,518.645,521.2856999999284,522.2936999999284,522.7814999999999,522.7816000000238,523.3521000000238,125.0,523.3522999999523,1.0,523.3618999999761,2.0,0.0,60.0,29.0,1.0,1.6,0.7,Time
,,S09,1,w,28,anonymized,Serial_Dependence_U,2023.2.3,Win32,59.88023952095548,,,,,,523.3621000000238,222.0,2.0,523.3631999999284,222.0,,,,527.3098999999761,527.8131999999284,526.8011999999284,527.3097999999522,524.3672999999523,526.8009999999999,527.8131999999284,528.3098999999761,528.31,528.8011000000238,133.0,528.8011999999284,1.0,528.8096999999284,2.0,1.0,61.0,28.0,1.0,1.4,0.7,Time
,,S09,1,w,28,anonymized,Serial_Dependence_U,2023.2.3,Win32,59.88023952095548,,,,,,528.8098999999761,197.0,2.0,528.8098999999761,197.0,,,,532.5667999999523,533.0621000000237,532.0502999999522,532.5666999999285,529.8161999999285,532.0501999999284,533.0621999999285,533.559,533.559,533.934,133.0,533.9341000000238,1.0,533.9438999999761,2.0,2.0,62.0,17.0,1.0,1.2,0.7,Time
,,S09,1,w,28,anonymized,Serial_Dependence_U,2023.2.3,Win32,59.88023952095548,,,,,,533.9441999999284,26.0,2.0,533.9442999999522,26.0,,,,537.3331999999284,537.8247999999522,536.8164999999999,537.3327999999523,534.9496999999284,536.8162999999523,537.8248999999761,538.3246999999284,538.3248999999761,539.2163999999761,158.0,539.2165,1.0,539.2271000000238,2.0,3.0,63.0,0.0,1.0,0.8,0.3,Time
,,S09,1,w,28,anonymized,Serial_Dependence_U,2023.2.3,Win32,59.88023952095548,,,,,,539.2273999999761,231.0,2.0,539.2275,231.0,,,,542.6155,543.1132999999522,542.0988999999761,542.6152999999523,540.2326000000238,542.0986999999284,543.1133999999761,543.6134999999999,543.6136000000238,544.0997999999523,120.0,544.0998999999761,1.0,544.1138999999761,2.0,4.0,64.0,10.0,1.0,0.8,0.3,Time
,,S09,1,w,28,anonymized,Serial_Dependence_U,2023.2.3,Win32,59.88023952095548,,,,,,544.1141000000238,277.0,2.0,544.1142999999523,277.0,,,,548.0646000000238,548.5564999999999,547.5486999999284,548.0645,545.1151000000237,547.5485,548.5566000000238,549.0601999999284,549.0601999999284,549.6816000000238,118.0,549.6816999999285,1.0,549.692,2.0,5.0,65.0,8.0,1.0,1.4,0.7,Time
,,S09,1,w,28,anonymized,Serial_Dependence_U,2023.2.3,Win32,59.88023952095548,,,,,,549.6922999999523,190.0,2.0,549.6925,190.0,,,,553.2973999999762,553.7947999999523,552.7803999999761,553.2969999999999,550.7058999999762,552.7801999999284,553.7947999999523,554.2887999999523,554.2888999999761,555.1144999999999,150.0,555.1146000000238,1.0,555.1256000000238,2.0,6.0,66.0,21.0,1.0,1.0,0.3,Time
,,S09,1,w,28,anonymized,Serial_Dependence_U,2023.2.3,Win32,59.88023952095548,,,,,,555.126,270.0,2.0,555.126,270.0,,,,559.1131000000238,559.604899999976,558.5965,559.1128999999761,556.1292999999523,558.5965,559.6051000000238,560.1111999999284,560.1112999999523,560.5947999999522,132.0,560.5948999999761,1.0,560.6031000000238,2.0,7.0,67.0,3.0,1.0,1.4,0.3,Time
,,S09,1,w,28,anonymized,Serial_Dependence_U,2023.2.3,Win32,59.88023952095548,,,,,,560.6032999999522,112.0,2.0,560.6033999999761,112.0,,,,564.1801000000238,564.6706999999284,563.6787999999523,564.1798999999761,561.6056000000237,563.6786000000238,564.6707999999522,565.1712999999522,565.1713999999761,567.029,183.0,567.0291000000238,1.0,567.0405,2.0,8.0,68.0,1.0,1.0,1.0,0.3,Time
,,S09,1,w,28,anonymized,Serial_Dependence_U,2023.2.3,Win32,59.88023952095548,,,,,,567.0407999999522,128.0,2.0,567.0408999999761,128.0,,,,571.2111999999285,571.7031000000238,570.6948999999761,571.2108999999762,568.0616000000238,570.6946999999284,571.7031999999284,572.2027999999523,572.2028999999761,575.0108999999761,166.0,575.0108999999761,1.0,575.0195,2.0,9.0,69.0,19.0,1.0,1.6,0.7,Time
,,S09,1,w,28,anonymized,Serial_Dependence_U,2023.2.3,Win32,59.88023952095548,,,,,,575.0197999999523,215.0,2.0,575.0197999999523,215.0,,,,578.6099999999999,579.1016000000238,578.0936999999284,578.6097999999523,576.0268999999761,578.0935,579.1016999999284,579.6015,579.6016999999284,580.1286999999285,167.0,580.1289999999999,1.0,580.1372999999522,2.0,10.0,70.0,11.0,1.0,1.0,0.3,Time
,,S09,1,w,28,anonymized,Serial_Dependence_U,2023.2.3,Win32,59.88023952095548,,,,,,580.1376999999284,67.0,2.0,580.1378999999761,67.0,,,,583.6927999999523,584.1872999999523,583.1761000000238,583.6926000000238,581.1431999999285,583.1759999999999,584.1872999999523,584.6841000000238,584.6842999999523,585.293,133.0,585.2931000000237,1.0,585.2936999999284,2.0,11.0,71.0,6.0,1.0,1.0,0.7,Time
,,S09,1,w,28,anonymized,Serial_Dependence_U,2023.2.3,Win32,59.88023952095548,,,,,,585.2941999999284,243.0,2.0,585.2943999999761,243.0,,,,589.0916999999284,589.5863999999762,588.5752999999522,589.0915,586.3066000000238,588.5751000000238,589.5863999999762,590.0836000000238,590.0836000000238,590.9586999999284,133.0,590.9588999999761,1.0,590.9701000000238,2.0,12.0,72.0,2.0,1.0,1.2,0.3,Time
,,S09,1,w,28,anonymized,Serial_Dependence_U,2023.2.3,Win32,59.88023952095548,,,,,,590.9703999999762,188.0,2.0,590.9704999999999,188.0,,,,594.7563999999761,595.2491999999285,594.2408999999761,594.7561999999284,591.9746000000238,594.2407999999523,595.2492999999523,595.7489999999999,595.7491999999285,596.0077999999522,167.0,596.0079999999999,1.0,596.0192999999523,2.0,13.0,73.0,12.0,1.0,1.2,0.3,Time
,,S09,1,w,28,anonymized,Serial_Dependence_U,2023.2.3,Win32,59.88023952095548,,,,,,596.0195,224.0,2.0,596.0196999999284,224.0,,,,600.0068999999761,600.502,599.4902999999523,600.0066000000238,597.0241000000239,599.4901000000237,600.502,601.0033999999761,601.0033999999761,601.5885,149.0,601.5886999999284,1.0,601.5953999999762,2.0,14.0,74.0,13.0,1.0,1.4,0.3,Time
,,S09,1,w,28,anonymized,Serial_Dependence_U,2023.2.3,Win32,59.88023952095548,,,,,,601.5956000000238,199.0,2.0,601.5956999999285,199.0,,,,604.9561000000238,605.4475,604.4385,604.9559999999999,602.607,604.4382999999523,605.4476000000238,605.9503999999761,605.9503999999761,606.5721999999284,166.0,606.5725,1.0,606.5811999999285,2.0,15.0,75.0,15.0,1.0,0.8,0.7,Time
,,S09,1,w,28,anonymized,Serial_Dependence_U,2023.2.3,Win32,59.88023952095548,,,,,,606.5815,100.0,2.0,606.5816999999284,100.0,,,,610.3387999999522,610.8306000000238,609.8217999999523,610.3386000000238,607.5889999999999,609.8216000000237,610.8306999999285,611.3301999999285,611.3301999999285,611.7887999999523,216.0,611.7888999999761,1.0,611.7998999999761,2.0,16.0,76.0,7.0,1.0,1.2,0.7,Time
,,S09,1,w,28,anonymized,Serial_Dependence_U,2023.2.3,Win32,59.88023952095548,,,,,,611.8001000000238,329.0,2.0,611.8001999999284,329.0,,,,615.3543999999761,615.8526000000238,614.8376999999284,615.3541999999285,612.8027999999523,614.8375,615.8526000000238,616.3531000000238,616.3531000000238,617.4367999999523,149.0,617.4368999999762,1.0,617.4472999999523,2.0,17.0,77.0,26.0,1.0,1.0,0.7,Time
,,S09,1,w,28,anonymized,Serial_Dependence_U,2023.2.3,Win32,59.88023952095548,,,,,,617.4475,156.0,2.0,617.4476000000238,156.0,,,,621.2033999999761,621.6953999999761,620.6871000000237,621.2031000000238,618.4511999999285,620.6867999999523,621.6953999999761,622.2016999999285,622.2017999999523,622.8038999999761,150.0,622.804,1.0,622.8143999999761,2.0,18.0,78.0,27.0,1.0,1.2,0.7,Time
,,S09,1,w,28,anonymized,Serial_Dependence_U,2023.2.3,Win32,59.88023952095548,,,,,,622.8146999999284,243.0,2.0,622.8147999999522,243.0,,,,626.6026999999284,627.1004999999999,626.0859999999999,626.6026000000238,623.8195,626.0857999999523,627.1006999999285,627.5946000000238,627.5948999999761,628.1336999999285,115.0,628.1336999999285,1.0,628.1381000000238,2.0,19.0,79.0,22.0,1.0,1.2,0.3,Time
,,S09,1,w,28,anonymized,Serial_Dependence_U,2023.2.3,Win32,59.88023952095548,,,,,,628.1382999999523,282.0,2.0,628.1383999999761,282.0,,,,631.6853999999761,632.1771000000238,631.1687999999523,631.6851000000238,629.1356999999284,631.1686999999284,632.1771999999285,632.6667999999522,632.6667999999522,632.8848999999761,133.0,632.885,1.0,632.896,2.0,20.0,80.0,16.0,1.0,1.0,0.7,Time
,,S09,1,w,28,anonymized,Serial_Dependence_U,2023.2.3,Win32,59.88023952095548,,,,,,632.8962999999522,175.0,2.0,632.8963999999761,175.0,,,,636.8842999999523,637.3766999999284,636.3681000000238,636.8841999999285,633.9006999999284,636.3679999999999,637.3766999999284,637.8666999999284,637.8667999999523,638.2332999999522,116.0,638.2332999999522,1.0,638.2426000000238,2.0,21.0,81.0,23.0,1.0,1.4,0.3,Time
,,S09,1,w,28,anonymized,Serial_Dependence_U,2023.2.3,Win32,59.88023952095548,,,,,,638.2428999999761,10.0,2.0,638.2429999999999,10.0,,,,642.4337999999523,642.9254999999999,641.9171000000238,642.4335,639.2508999999761,641.9169999999999,642.9254999999999,643.4137999999523,643.4138999999761,646.5002999999523,183.0,646.5005,1.0,646.5011999999284,2.0,22.0,82.0,4.0,1.0,1.6,0.3,Time
,,S09,1,w,28,anonymized,Serial_Dependence_U,2023.2.3,Win32,59.88023952095548,,,,,,646.5016999999284,242.0,2.0,646.5018999999761,242.0,,,,649.8491999999284,650.3406999999285,649.3326999999284,649.8489999999999,647.4994999999999,649.3325,650.3406999999285,650.8309999999999,650.8311000000238,651.8493999999761,132.0,651.8494999999999,1.0,651.8617999999523,2.0,23.0,83.0,5.0,1.0,0.8,0.7,Time
,,S09,1,w,28,anonymized,Serial_Dependence_U,2023.2.3,Win32,59.88023952095548,,,,,,651.8621999999284,93.0,2.0,651.8622999999523,93.0,,,,656.0482999999523,656.5396999999284,655.5316999999284,656.048,652.8656999999284,655.5314999999999,656.5397999999523,657.0401000000238,657.0402999999523,657.5967999999523,167.0,657.597,1.0,657.6053999999762,2.0,24.0,84.0,24.0,1.0,1.6,0.3,Time
,,S09,1,w,28,anonymized,Serial_Dependence_U,2023.2.3,Win32,59.88023952095548,,,,,,657.6061000000238,72.0,2.0,657.6061999999284,72.0,,,,660.9976999999284,661.495,660.4816000000238,660.9975,658.6142999999523,660.4813999999761,661.4951000000237,661.9891999999285,661.9891999999285,662.8646000000238,150.0,662.8646999999285,1.0,662.8755,2.0,25.0,85.0,20.0,1.0,0.8,0.3,Time
,,S09,1,w,28,anonymized,Serial_Dependence_U,2023.2.3,Win32,59.88023952095548,,,,,,662.8756999999284,164.0,2.0,662.8757999999523,164.0,,,,666.2222999999523,666.7217999999523,665.7133999999761,666.2222999999523,663.8734999999999,665.7132999999523,666.7218999999761,667.222,667.2221999999284,667.5608999999761,133.0,667.5608999999761,1.0,667.5652999999522,2.0,26.0,86.0,25.0,1.0,0.8,0.7,Time
,,S09,1,w,28,anonymized,Serial_Dependence_U,2023.2.3,Win32,59.88023952095548,,,,,,667.5654999999999,16.0,2.0,667.5654999999999,16.0,,,,671.7456999999284,672.2376999999284,671.2446000000238,671.7453999999761,668.5786999999284,671.2444999999999,672.2376999999284,672.7266999999284,672.7266999999284,673.5127999999522,283.0,673.5129999999999,1.0,673.5242999999523,2.0,27.0,87.0,14.0,1.0,1.6,0.3,Time
,,S09,1,w,28,anonymized,Serial_Dependence_U,2023.2.3,Win32,59.88023952095548,,,,,,673.5243999999761,238.0,2.0,673.5245,238.0,,,,677.4782999999522,677.9699999999999,676.9617999999523,677.478,674.5288999999761,676.9616999999284,677.9699999999999,678.4701999999285,678.4702999999523,679.0116000000238,133.0,679.0116999999284,1.0,679.0231999999285,2.0,28.0,88.0,18.0,1.0,1.4,0.7,Time
,,S09,1,w,28,anonymized,Serial_Dependence_U,2023.2.3,Win32,59.88023952095548,,,,,,679.0236000000237,61.0,2.0,679.0236000000237,61.0,,,,683.1776000000237,683.6691000000238,682.6611000000238,683.1773999999762,680.0277999999523,682.6608999999761,683.6691999999284,684.1692999999523,684.1693999999761,684.8106999999284,186.0,684.8108999999761,1.0,684.8213999999762,2.0,29.0,89.0,9.0,1.0,1.6,0.7,Time
,,S09,1,w,28,anonymized,Serial_Dependence_U,2023.2.3,Win32,59.88023952095548,,,,,,684.8216999999285,4.0,3.0,702.078,4.0,s,17.22950000000003,,706.0072999999522,706.4989999999999,705.5065,706.0071000000238,703.0746999999284,705.5063999999761,706.4991000000238,706.9986999999285,706.9987999999523,707.2826999999285,125.0,707.2826999999285,1.0,707.2831000000238,3.0,0.0,90.0,28.0,1.0,1.4,0.7,Time
,,S09,1,w,28,anonymized,Serial_Dependence_U,2023.2.3,Win32,59.88023952095548,,,,,,707.2833999999762,258.0,3.0,707.285,258.0,,,,711.2731999999285,711.7703999999761,710.7563999999761,711.2729999999999,708.2907999999522,710.7561999999284,711.7703999999761,712.2653999999761,712.2655,715.6804999999999,137.0,715.6804999999999,1.0,715.6851000000238,3.0,1.0,91.0,23.0,1.0,1.4,0.3,Time
,,S09,1,w,28,anonymized,Serial_Dependence_U,2023.2.3,Win32,59.88023952095548,,,,,,715.6852999999522,208.0,3.0,715.6853999999761,208.0,,,,719.2386000000238,719.7301999999285,718.7225,719.2382999999522,716.6886000000238,718.7222999999523,719.7301999999285,720.2365,720.2365,720.6057999999523,243.0,720.6058999999761,1.0,720.6063999999761,3.0,2.0,92.0,26.0,1.0,1.0,0.7,Time
,,S09,1,w,28,anonymized,Serial_Dependence_U,2023.2.3,Win32,59.88023952095548,,,,,,720.6068999999761,352.0,3.0,720.6071000000238,352.0,,,,724.5878999999761,725.0857999999523,724.0714999999999,724.5877999999523,721.6033999999761,724.0713999999762,725.0857999999523,725.5793999999761,725.5793999999761,726.4546000000238,150.0,726.4546999999284,1.0,726.4646999999285,3.0,3.0,93.0,13.0,1.0,1.4,0.3,Time
,,S09,1,w,28,anonymized,Serial_Dependence_U,2023.2.3,Win32,59.88023952095548,,,,,,726.4651000000238,127.0,3.0,726.4651000000238,127.0,,,,730.246,730.7517999999523,729.7367999999523,730.2457999999523,727.4703999999762,729.7366000000238,730.7518999999761,731.2448999999762,731.245,733.3871999999284,167.0,733.3873999999761,1.0,733.3977999999523,3.0,4.0,94.0,2.0,1.0,1.2,0.3,Time
,,S09,1,w,28,anonymized,Serial_Dependence_U,2023.2.3,Win32,59.88023952095548,,,,,,733.3981000000238,328.0,3.0,733.3981999999285,328.0,,,,737.5859999999999,738.0777999999523,737.0686000000238,737.5857999999523,734.4028999999761,737.0683999999761,738.0777999999523,738.5837999999522,738.5837999999522,739.3528999999761,150.0,739.3528999999761,1.0,739.3639999999999,3.0,5.0,95.0,24.0,1.0,1.6,0.3,Time
,,S09,1,w,28,anonymized,Serial_Dependence_U,2023.2.3,Win32,59.88023952095548,,,,,,739.3642999999523,323.0,3.0,739.3644999999999,323.0,,,,742.7192999999522,743.2106000000238,742.202,742.7191999999284,740.3686000000238,742.2018999999761,743.2106999999285,743.7096999999284,743.7097999999522,746.5366000000238,184.0,746.5366999999284,1.0,746.5456000000238,3.0,6.0,96.0,25.0,1.0,0.8,0.7,Time
,,S09,1,w,28,anonymized,Serial_Dependence_U,2023.2.3,Win32,59.88023952095548,,,,,,746.5459999999999,229.0,3.0,746.5459999999999,229.0,,,,750.1333999999761,750.626,749.6178999999761,750.1331999999285,747.5486000000238,749.6177999999522,750.6261000000238,751.116,751.116,751.6678999999762,133.0,751.6681000000237,1.0,751.6783999999761,3.0,7.0,97.0,21.0,1.0,1.0,0.3,Time
,,S09,1,w,28,anonymized,Serial_Dependence_U,2023.2.3,Win32,59.88023952095548,,,,,,751.6786000000238,70.0,3.0,751.6786999999284,70.0,,,,755.8501999999285,756.3415,755.3335,755.8501000000238,752.7007999999523,755.3331999999284,756.3416000000238,756.8417999999523,756.8418999999761,759.0136000000238,175.0,759.0136000000238,1.0,759.0181999999285,3.0,8.0,98.0,19.0,1.0,1.6,0.7,Time
,,S09,1,w,28,anonymized,Serial_Dependence_U,2023.2.3,Win32,59.88023952095548,,,,,,759.0183999999762,240.0,3.0,759.0183999999762,240.0,,,,762.5991999999284,763.0904999999999,762.0821999999284,762.5989999999999,760.0156999999284,762.082,763.0906000000238,763.591,763.5911999999284,764.5987999999522,149.0,764.5987999999522,1.0,764.6096999999285,3.0,9.0,99.0,1.0,1.0,1.0,0.3,Time
,,S09,1,w,28,anonymized,Serial_Dependence_U,2023.2.3,Win32,59.88023952095548,,,,,,764.6099999999999,305.0,3.0,764.6101000000237,305.0,,,,768.3646000000238,768.8563999999761,767.848,768.3642999999523,765.6147999999523,767.8477999999523,768.8563999999761,769.3562999999523,769.3563999999761,769.8981999999285,150.0,769.8982999999523,1.0,769.9087999999523,3.0,10.0,100.0,27.0,1.0,1.2,0.7,Time
,,S09,1,w,28,anonymized,Serial_Dependence_U,2023.2.3,Win32,59.88023952095548,,,,,,769.9091000000238,249.0,3.0,769.9091999999284,249.0,,,,773.264,773.7551999999284,772.7621999999284,773.2636999999285,770.9303999999761,772.7621000000238,773.7552999999523,774.2548999999761,774.2548999999761,777.6137999999522,166.0,777.6139999999999,1.0,777.6257999999523,3.0,11.0,101.0,15.0,1.0,0.8,0.7,Time
,,S09,1,w,28,anonymized,Serial_Dependence_U,2023.2.3,Win32,59.88023952095548,,,,,,777.626,5.0,3.0,777.6261000000238,5.0,,,,781.4111000000238,781.9041999999284,780.8961999999284,781.4107999999522,778.6265,780.8958999999761,781.9042999999523,782.4041000000238,782.4041999999284,787.462,183.0,787.4621000000238,1.0,787.4743999999761,3.0,12.0,102.0,22.0,1.0,1.2,0.3,Time
,,S09,1,w,28,anonymized,Serial_Dependence_U,2023.2.3,Win32,59.88023952095548,,,,,,787.4746000000238,301.0,3.0,787.4747999999523,301.0,,,,791.6272999999522,792.1193999999762,791.1111000000238,791.6271000000238,788.4781000000238,791.111,792.1193999999762,792.6191999999285,792.6191999999285,793.9446000000238,167.0,793.9447999999522,1.0,793.9556000000238,3.0,13.0,103.0,9.0,1.0,1.6,0.7,Time
,,S09,1,w,28,anonymized,Serial_Dependence_U,2023.2.3,Win32,59.88023952095548,,,,,,793.9557999999523,261.0,3.0,793.9558999999762,261.0,,,,798.1407999999523,798.6348999999761,797.6266000000238,798.1406999999284,794.9599999999999,797.6263999999761,798.6351000000238,799.1348999999761,799.1348999999761,801.8435,200.0,801.8435,1.0,801.8553999999762,3.0,14.0,104.0,4.0,1.0,1.6,0.3,Time
,,S09,1,w,28,anonymized,Serial_Dependence_U,2023.2.3,Win32,59.88023952095548,,,,,,801.8556000000237,258.0,3.0,801.8556999999284,258.0,,,,805.226,805.7228999999761,804.7228999999761,805.2258999999761,802.8591999999285,804.7228999999761,805.7228999999761,806.223,806.2231000000238,806.6595,151.0,806.6596000000238,1.0,806.6696000000238,3.0,15.0,105.0,20.0,1.0,0.8,0.3,Time
,,S09,1,w,28,anonymized,Serial_Dependence_U,2023.2.3,Win32,59.88023952095548,,,,,,806.6701000000238,39.0,3.0,806.6701000000238,39.0,,,,810.2555,810.7501000000238,809.7397999999523,810.2553999999761,807.6754999999999,809.7397999999523,810.7501999999284,811.2497999999523,811.2497999999523,812.3895,183.0,812.3895,1.0,812.3952999999523,3.0,16.0,106.0,11.0,1.0,1.0,0.3,Time
,,S09,1,w,28,anonymized,Serial_Dependence_U,2023.2.3,Win32,59.88023952095548,,,,,,812.3953999999761,305.0,3.0,812.3955,305.0,,,,816.5903999999761,817.0825,816.0736999999284,816.5901999999285,813.4082999999523,816.0733999999761,817.0825,817.5822999999523,817.5822999999523,819.5406000000238,150.0,819.5406999999284,1.0,819.5518999999761,3.0,17.0,107.0,14.0,1.0,1.6,0.3,Time
,,S09,1,w,28,anonymized,Serial_Dependence_U,2023.2.3,Win32,59.88023952095548,,,,,,819.5521999999285,77.0,3.0,819.5522999999523,77.0,,,,822.906,823.3973999999761,822.3882999999523,822.9058999999761,820.5562999999522,822.3881999999285,823.3974999999999,823.9013999999761,823.9016000000238,828.3389999999999,149.0,828.3389999999999,1.0,828.3475,3.0,18.0,108.0,5.0,1.0,0.8,0.7,Time
,,S09,1,w,28,anonymized,Serial_Dependence_U,2023.2.3,Win32,59.88023952095548,,,,,,828.3477999999523,81.0,3.0,828.3477999999523,81.0,,,,831.9048999999761,832.396,831.3883999999761,831.9046999999284,829.3553999999762,831.3881999999285,832.3961000000238,832.8963999999761,832.8963999999761,833.622,150.0,833.6221999999284,1.0,833.6323999999761,3.0,19.0,109.0,16.0,1.0,1.0,0.7,Time
,,S09,1,w,28,anonymized,Serial_Dependence_U,2023.2.3,Win32,59.88023952095548,,,,,,833.6326999999284,185.0,3.0,833.6327999999522,185.0,,,,837.1871000000237,837.6788999999761,836.6706000000238,837.1868999999762,834.6374999999999,836.6703999999761,837.679,838.1786999999284,838.1787999999523,838.3878999999761,168.0,838.3881000000238,1.0,838.4006000000238,3.0,20.0,110.0,6.0,1.0,1.0,0.7,Time
,,S09,1,w,28,anonymized,Serial_Dependence_U,2023.2.3,Win32,59.88023952095548,,,,,,838.4007999999523,63.0,3.0,838.401,63.0,,,,842.1521999999285,842.6447999999523,841.6368999999761,842.1519999999999,839.4038999999761,841.6367999999522,842.6447999999523,843.1492999999523,843.1493999999761,843.7701999999284,116.0,843.7702999999523,1.0,843.7795,3.0,21.0,111.0,7.0,1.0,1.2,0.7,Time
,,S09,1,w,28,anonymized,Serial_Dependence_U,2023.2.3,Win32,59.88023952095548,,,,,,843.7796999999284,35.0,3.0,843.7796999999284,35.0,,,,847.7188999999761,848.2107999999523,847.2176999999284,847.7186999999284,844.7858999999761,847.2176999999284,848.2108999999762,848.7103999999761,848.7103999999761,849.4358999999761,183.0,849.4361000000238,1.0,849.4471999999284,3.0,22.0,112.0,8.0,1.0,1.4,0.7,Time
,,S09,1,w,28,anonymized,Serial_Dependence_U,2023.2.3,Win32,59.88023952095548,,,,,,849.4475,18.0,3.0,849.4475,18.0,,,,853.6181999999284,854.1096000000238,853.102,853.6179999999999,850.466,853.1017999999523,854.1096000000238,854.6096000000238,854.6097999999523,855.3353999999761,166.0,855.3356000000238,1.0,855.3463999999761,3.0,23.0,113.0,29.0,1.0,1.6,0.7,Time
,,S09,1,w,28,anonymized,Serial_Dependence_U,2023.2.3,Win32,59.88023952095548,,,,,,855.3467999999523,89.0,3.0,855.3467999999523,89.0,,,,858.7321000000238,859.2257999999523,858.2172999999523,858.732,856.351,858.217,859.2257999999523,859.7256000000237,859.7256999999285,862.5006999999284,134.0,862.5007999999523,1.0,862.5117999999522,3.0,24.0,114.0,0.0,1.0,0.8,0.3,Time
,,S09,1,w,28,anonymized,Serial_Dependence_U,2023.2.3,Win32,59.88023952095548,,,,,,862.5121000000238,37.0,3.0,862.5121999999284,37.0,,,,866.4663999999761,866.9582999999523,865.9498999999761,866.4661999999284,863.5146999999284,865.9496999999284,866.9582999999523,867.4471000000239,867.4471000000239,867.7498999999762,150.0,867.7501000000238,1.0,867.7595,3.0,25.0,115.0,18.0,1.0,1.4,0.7,Time
,,S09,1,w,28,anonymized,Serial_Dependence_U,2023.2.3,Win32,59.88023952095548,,,,,,867.7598999999761,122.0,3.0,867.76,122.0,,,,871.1491000000239,871.6402999999523,870.6322999999522,871.1487999999523,868.7656999999284,870.632,871.6403999999761,872.1406000000238,872.1406000000238,874.8824999999999,150.0,874.8826000000238,1.0,874.8938999999762,3.0,26.0,116.0,10.0,1.0,0.8,0.3,Time
,,S09,1,w,28,anonymized,Serial_Dependence_U,2023.2.3,Win32,59.88023952095548,,,,,,874.8941000000237,71.0,3.0,874.8941999999284,71.0,,,,878.881,879.3728999999761,878.3644999999999,878.8806999999284,875.8961000000238,878.3642999999523,879.3728999999761,879.8721999999284,879.8722999999522,880.0649999999999,133.0,880.0651000000238,1.0,880.0756000000238,3.0,27.0,117.0,3.0,1.0,1.4,0.3,Time
,,S09,1,w,28,anonymized,Serial_Dependence_U,2023.2.3,Win32,59.88023952095548,,,,,,880.0758999999761,43.0,3.0,880.0759999999999,43.0,,,,883.8301000000238,884.3218999999762,883.3135,883.8298999999761,881.0803999999761,883.3131999999284,884.322,884.8218999999762,884.8218999999762,888.1468999999761,99.0,888.1469999999999,1.0,888.1593999999761,3.0,28.0,118.0,17.0,1.0,1.2,0.7,Time
,,S09,1,w,28,anonymized,Serial_Dependence_U,2023.2.3,Win32,59.88023952095548,,,,,,888.1597999999523,226.0,3.0,888.1598999999761,226.0,,,,891.9447999999522,892.4367999999523,891.4292999999523,891.9446000000238,889.1595,891.4291000000238,892.4367999999523,892.9441000000238,892.9441999999284,893.2961000000238,117.0,893.2961999999284,1.0,893.3086999999284,3.0,29.0,119.0,12.0,1.0,1.2,0.3,Time
,,S09,1,w,28,anonymized,Serial_Dependence_U,2023.2.3,Win32,59.88023952095548,,,,,,893.309,278.0,4.0,966.9491000000238,278.0,s,73.61720000004777,,970.283899999976,970.7807999999524,969.7815,970.2836999999284,967.9495,969.7815,970.780899999976,971.2801000000238,971.2801999999284,972.4996999999285,142.0,972.4996999999285,1.0,972.5072999999522,4.0,0.0,120.0,15.0,1.0,0.8,0.7,Time
,,S09,1,w,28,anonymized,Serial_Dependence_U,2023.2.3,Win32,59.88023952095548,,,,,,972.5076000000238,203.0,4.0,972.508399999976,203.0,,,,976.0668999999762,976.557899999976,975.5496999999284,976.0666000000238,973.5167999999522,975.5496000000238,976.5581000000238,977.0576999999284,977.0577999999524,977.5832999999524,147.0,977.5835,1.0,977.5935,4.0,1.0,121.0,26.0,1.0,1.0,0.7,Time
,,S09,1,w,28,anonymized,Serial_Dependence_U,2023.2.3,Win32,59.88023952095548,,,,,,977.5937999999522,253.0,4.0,977.593899999976,253.0,,,,981.581899999976,982.080399999976,981.0656999999284,981.5816000000236,978.598,981.0655,982.080399999976,982.576,982.5761000000238,983.1483999999762,167.0,983.1485,1.0,983.1592999999524,4.0,2.0,122.0,13.0,1.0,1.4,0.3,Time
,,S09,1,w,28,anonymized,Serial_Dependence_U,2023.2.3,Win32,59.88023952095548,,,,,,983.1596000000238,65.0,4.0,983.1596000000238,65.0,,,,987.307,987.795899999976,986.7982999999524,987.3068999999762,984.1646999999284,986.798100000024,987.796,988.2891000000238,988.2891999999284,988.998399999976,150.0,988.9985,1.0,989.0093999999762,4.0,3.0,123.0,19.0,1.0,1.6,0.7,Time
,,S09,1,w,28,anonymized,Serial_Dependence_U,2023.2.3,Win32,59.88023952095548,,,,,,989.009600000024,353.0,4.0,989.009600000024,353.0,,,,993.1801000000238,993.6726000000236,992.6776999999284,993.18,990.0126000000238,992.6776000000236,993.6726999999285,994.176899999976,994.177,995.1132999999522,133.0,995.113399999976,1.0,995.1242999999524,4.0,4.0,124.0,24.0,1.0,1.6,0.3,Time
,,S09,1,w,28,anonymized,Serial_Dependence_U,2023.2.3,Win32,59.88023952095548,,,,,,995.1245,190.0,4.0,995.1246000000236,190.0,,,,999.1101999999285,999.6045,998.5962999999524,999.11,996.127899999976,998.5958999999762,999.6045,1000.11,1000.1101000000236,1001.030399999976,117.0,1001.030399999976,1.0,1001.038899999976,4.0,5.0,125.0,23.0,1.0,1.4,0.3,Time
,,S09,1,w,28,anonymized,Serial_Dependence_U,2023.2.3,Win32,59.88023952095548,,,,,,1001.0391000000238,117.0,4.0,1001.0392999999524,117.0,,,,1004.5942999999522,1005.087,1004.0772999999524,1004.5941000000238,1002.0432999999524,1004.0772999999524,1005.087,1005.5866999999284,1005.586899999976,1006.643,99.0,1006.6431000000238,1.0,1006.6511000000238,4.0,6.0,126.0,16.0,1.0,1.0,0.7,Time
,,S09,1,w,28,anonymized,Serial_Dependence_U,2023.2.3,Win32,59.88023952095548,,,,,,1006.651399999976,186.0,4.0,1006.6515,186.0,,,,1010.811,1011.3026999999284,1010.2951999999284,1010.8107999999522,1007.6596000000238,1010.2951000000238,1011.3027999999524,1011.8021000000238,1011.8021999999283,1012.4601999999284,134.0,1012.4602999999524,1.0,1012.466899999976,4.0,7.0,127.0,29.0,1.0,1.6,0.7,Time
,,S09,1,w,28,anonymized,Serial_Dependence_U,2023.2.3,Win32,59.88023952095548,,,,,,1012.4671000000238,338.0,4.0,1012.4671000000238,338.0,,,,1016.2602999999524,1016.7517999999524,1015.7436999999284,1016.2601000000238,1013.476899999976,1015.7435,1016.7517999999524,1017.2517999999524,1017.2518999999762,1018.2436999999286,171.0,1018.244,1.0,1018.257100000024,4.0,8.0,128.0,12.0,1.0,1.2,0.3,Time
,,S09,1,w,28,anonymized,Serial_Dependence_U,2023.2.3,Win32,59.88023952095548,,,,,,1018.2572999999524,148.0,4.0,1018.2573999999764,148.0,,,,1021.809,1022.3008999999764,1021.292600000024,1021.8087999999524,1019.2596999999284,1021.2921999999284,1022.3008999999764,1022.8007999999523,1022.8010000000002,1023.6076999999286,168.0,1023.6078999999764,1.0,1023.6173999999762,4.0,9.0,129.0,6.0,1.0,1.0,0.7,Time
,,S09,1,w,28,anonymized,Serial_Dependence_U,2023.2.3,Win32,59.88023952095548,,,,,,1023.617600000024,117.0,4.0,1023.617600000024,117.0,,,,1027.591399999976,1028.0832999999525,1027.075100000024,1027.5912999999523,1024.6422999999525,1027.0748999999762,1028.0833999999763,1028.5836000000238,1028.5836999999285,1029.4088999999765,150.0,1029.409100000024,1.0,1029.420100000024,4.0,10.0,130.0,18.0,1.0,1.4,0.7,Time
,,S09,1,w,28,anonymized,Serial_Dependence_U,2023.2.3,Win32,59.88023952095548,,,,,,1029.4202999999525,239.0,4.0,1029.4203999999763,239.0,,,,1033.2078999999762,1033.7036999999286,1032.690600000024,1033.2076000000238,1030.424600000024,1032.6905000000002,1033.7037999999525,1034.199,1034.199100000024,1034.9578999999762,150.0,1034.958100000024,1.0,1034.969,4.0,11.0,131.0,2.0,1.0,1.2,0.3,Time
,,S09,1,w,28,anonymized,Serial_Dependence_U,2023.2.3,Win32,59.88023952095548,,,,,,1034.9691999999286,204.0,4.0,1034.9692999999525,204.0,,,,1038.7201999999286,1039.2155,1038.2067999999524,1038.72,1035.9736999999286,1038.2065,1039.2155,1039.7151999999285,1039.7152999999523,1040.3985,175.0,1040.398600000024,1.0,1040.407600000024,4.0,12.0,132.0,17.0,1.0,1.2,0.7,Time
,,S09,1,w,28,anonymized,Serial_Dependence_U,2023.2.3,Win32,59.88023952095548,,,,,,1040.4076999999286,135.0,4.0,1040.4077999999524,135.0,,,,1044.1560000000002,1044.647600000024,1043.6391999999285,1044.1557999999525,1041.4057999999525,1043.639100000024,1044.647600000024,1045.1477999999524,1045.1478999999763,1046.2217999999525,199.0,1046.221899999976,1.0,1046.231899999976,4.0,13.0,133.0,27.0,1.0,1.2,0.7,Time
,,S09,1,w,28,anonymized,Serial_Dependence_U,2023.2.3,Win32,59.88023952095548,,,,,,1046.2321000000238,251.0,4.0,1046.2321000000238,251.0,,,,1049.8215,1050.313,1049.305,1049.8215,1047.237,1049.3047999999524,1050.313100000024,1050.8132999999525,1050.8132999999525,1051.9696999999285,183.0,1051.9697999999523,1.0,1051.9743999999762,4.0,14.0,134.0,21.0,1.0,1.0,0.3,Time
,,S09,1,w,28,anonymized,Serial_Dependence_U,2023.2.3,Win32,59.88023952095548,,,,,,1051.9746999999286,245.0,4.0,1051.9748999999763,245.0,,,,1055.9196999999283,1056.4123999999763,1055.403899999976,1055.9195,1052.9707999999523,1055.4036999999284,1056.4125,1056.9122999999524,1056.9123999999763,1058.0042999999523,166.0,1058.0042999999523,1.0,1058.0147999999524,4.0,15.0,135.0,8.0,1.0,1.4,0.7,Time
,,S09,1,w,28,anonymized,Serial_Dependence_U,2023.2.3,Win32,59.88023952095548,,,,,,1058.015100000024,46.0,4.0,1058.0151999999289,46.0,,,,1061.4021999999286,1061.894899999976,1060.886600000024,1061.402,1059.019100000024,1060.8863999999762,1061.895,1062.394,1062.394,1063.0203999999762,167.0,1063.0205,1.0,1063.0313999999762,4.0,16.0,136.0,0.0,1.0,0.8,0.3,Time
,,S09,1,w,28,anonymized,Serial_Dependence_U,2023.2.3,Win32,59.88023952095548,,,,,,1063.0320000000002,77.0,4.0,1063.032100000024,77.0,,,,1067.1856999999286,1067.6772999999523,1066.669100000024,1067.1852999999523,1064.036,1066.669,1067.6773999999762,1068.1826999999284,1068.182899999976,1068.8996000000238,165.0,1068.8996000000238,1.0,1068.9041999999286,4.0,17.0,137.0,9.0,1.0,1.6,0.7,Time
,,S09,1,w,28,anonymized,Serial_Dependence_U,2023.2.3,Win32,59.88023952095548,,,,,,1068.9043999999762,132.0,4.0,1068.9043999999762,132.0,,,,1072.2661999999286,1072.759600000024,1071.7515,1072.266100000024,1069.9181999999284,1071.7512999999524,1072.7596999999284,1073.2597999999523,1073.2597999999523,1074.0328999999765,183.0,1074.0328999999765,1.0,1074.0417999999524,4.0,18.0,138.0,5.0,1.0,0.8,0.7,Time
,,S09,1,w,28,anonymized,Serial_Dependence_U,2023.2.3,Win32,59.88023952095548,,,,,,1074.0421999999285,134.0,4.0,1074.0425,134.0,,,,1077.4006999999283,1077.8927999999523,1076.8842999999524,1077.4005,1075.0508999999763,1076.884,1077.8928999999762,1078.3923999999763,1078.3923999999763,1079.2342999999523,185.0,1079.2343999999762,1.0,1079.2456000000238,4.0,19.0,139.0,25.0,1.0,0.8,0.7,Time
,,S09,1,w,28,anonymized,Serial_Dependence_U,2023.2.3,Win32,59.88023952095548,,,,,,1079.246,56.0,4.0,1079.246100000024,56.0,,,,1082.633100000024,1083.1242999999524,1082.116600000024,1082.6328999999762,1080.2497999999523,1082.1163999999762,1083.1242999999524,1083.6252999999524,1083.6253999999765,1084.1996999999285,150.0,1084.1997999999523,1.0,1084.2001999999286,4.0,20.0,140.0,10.0,1.0,0.8,0.3,Time
,,S09,1,w,28,anonymized,Serial_Dependence_U,2023.2.3,Win32,59.88023952095548,,,,,,1084.200600000024,133.0,4.0,1084.2006999999285,133.0,,,,1088.382100000024,1088.8738999999762,1087.8661999999283,1088.3818999999762,1085.1993999999763,1087.866,1088.8738999999762,1089.3806999999283,1089.3807999999524,1090.1163999999762,133.0,1090.1165,1.0,1090.1278999999763,4.0,21.0,141.0,14.0,1.0,1.6,0.3,Time
,,S09,1,w,28,anonymized,Serial_Dependence_U,2023.2.3,Win32,59.88023952095548,,,,,,1090.1282999999523,298.0,4.0,1090.1282999999523,298.0,,,,1093.715,1094.206600000024,1093.1976000000238,1093.7147999999524,1091.1316999999283,1093.197399999976,1094.2066999999286,1094.7058999999765,1094.706,1095.3818999999762,183.0,1095.382100000024,1.0,1095.3917999999524,4.0,22.0,142.0,1.0,1.0,1.0,0.3,Time
,,S09,1,w,28,anonymized,Serial_Dependence_U,2023.2.3,Win32,59.88023952095548,,,,,,1095.3921999999286,285.0,4.0,1095.3922999999525,285.0,,,,1098.9775,1099.4723999999762,1098.4641999999285,1098.977399999976,1096.3970000000002,1098.464100000024,1099.4723999999762,1099.9726999999286,1099.9727999999525,1100.5311000000238,149.0,1100.5311999999285,1.0,1100.538,4.0,23.0,143.0,11.0,1.0,1.0,0.3,Time
,,S09,1,w,28,anonymized,Serial_Dependence_U,2023.2.3,Win32,59.88023952095548,,,,,,1100.5381999999286,176.0,4.0,1100.5382999999524,176.0,,,,1103.9302999999525,1104.421100000024,1103.413100000024,1103.9301999999286,1101.5467999999523,1103.413,1104.421100000024,1104.9113999999763,1104.9115000000002,1105.9806999999284,183.0,1105.9807999999523,1.0,1105.9911000000238,4.0,24.0,144.0,20.0,1.0,0.8,0.3,Time
,,S09,1,w,28,anonymized,Serial_Dependence_U,2023.2.3,Win32,59.88023952095548,,,,,,1105.9915,139.0,4.0,1105.9915,139.0,,,,1109.7776999999285,1110.2707999999525,1109.2628999999763,1109.777600000024,1106.996100000024,1109.262600000024,1110.2707999999525,1110.7706999999286,1110.7707999999525,1111.4476999999283,213.0,1111.448,1.0,1111.4567999999524,4.0,25.0,145.0,22.0,1.0,1.2,0.3,Time
,,S09,1,w,28,anonymized,Serial_Dependence_U,2023.2.3,Win32,59.88023952095548,,,,,,1111.457100000024,342.0,4.0,1111.4571999999284,342.0,,,,1115.2113999999765,1115.707,1114.6948999999763,1115.211100000024,1112.461,1114.6947999999525,1115.707,1116.2031000000238,1116.2031000000238,1116.894899999976,167.0,1116.895,1.0,1116.9056999999286,4.0,26.0,146.0,7.0,1.0,1.2,0.7,Time
,,S09,1,w,28,anonymized,Serial_Dependence_U,2023.2.3,Win32,59.88023952095548,,,,,,1116.9061000000238,142.0,4.0,1116.9061999999285,142.0,,,,1120.8907999999524,1121.385899999976,1120.377600000024,1120.8906000000238,1117.9111999999286,1120.3773999999762,1121.385899999976,1121.8902999999525,1121.890399999976,1122.3596999999286,149.0,1122.3597999999524,1.0,1122.3671999999283,4.0,27.0,147.0,3.0,1.0,1.4,0.3,Time
,,S09,1,w,28,anonymized,Serial_Dependence_U,2023.2.3,Win32,59.88023952095548,,,,,,1122.3675,259.0,4.0,1122.367600000024,259.0,,,,1126.3267999999523,1126.8181000000238,1125.8098999999763,1126.326600000024,1123.3771000000238,1125.8098999999763,1126.8181000000238,1127.3081999999283,1127.3081999999283,1127.860600000024,151.0,1127.8606999999286,1.0,1127.8731999999286,4.0,28.0,148.0,28.0,1.0,1.4,0.7,Time
,,S09,1,w,28,anonymized,Serial_Dependence_U,2023.2.3,Win32,59.88023952095548,,,,,,1127.8735,196.0,4.0,1127.8735,196.0,,,,1132.0581999999283,1132.550600000024,1131.5422999999523,1132.057899999976,1128.876,1131.542100000024,1132.550600000024,1133.0502999999524,1133.0502999999524,1133.4036999999284,79.0,1133.4037999999523,1.0,1133.4096000000238,4.0,29.0,149.0,4.0,1.0,1.6,0.3,Time
,,S09,1,w,28,anonymized,Serial_Dependence_U,2023.2.3,Win32,59.88023952095548,,,,,,1133.4097999999524,113.0,5.0,1179.4485,113.0,s,46.01120000004767,,1183.0327999999524,1183.5262999999525,1182.5176999999285,1183.032600000024,1180.450600000024,1182.5173999999763,1183.5262999999525,1184.0261999999286,1184.0263999999763,1184.5352999999525,167.0,1184.5353999999763,1.0,1184.5477999999523,5.0,0.0,150.0,1.0,1.0,1.0,0.3,Time
,,S09,1,w,28,anonymized,Serial_Dependence_U,2023.2.3,Win32,59.88023952095548,,,,,,1184.548,8.0,5.0,1184.5486999999284,8.0,,,,1187.9336999999286,1188.4251999999285,1187.4172999999523,1187.9335,1185.5498999999763,1187.417,1188.4251999999285,1188.9251000000238,1188.9251999999285,1189.5843999999763,100.0,1189.5845000000002,1.0,1189.597,5.0,1.0,151.0,0.0,1.0,0.8,0.3,Time
,,S09,1,w,28,anonymized,Serial_Dependence_U,2023.2.3,Win32,59.88023952095548,,,,,,1189.5972999999524,81.0,5.0,1189.5972999999524,81.0,,,,1193.5825,1194.0742999999525,1193.0663999999765,1193.5822999999525,1190.6,1193.0662999999524,1194.0742999999525,1194.5631999999284,1194.5632999999525,1195.4497999999523,150.0,1195.4498999999762,1.0,1195.4601999999286,5.0,2.0,152.0,3.0,1.0,1.4,0.3,Time
,,S09,1,w,28,anonymized,Serial_Dependence_U,2023.2.3,Win32,59.88023952095548,,,,,,1195.4605,183.0,5.0,1195.4605,183.0,,,,1199.0155,1199.507100000024,1198.499,1199.0152999999525,1196.4655,1198.4986999999285,1199.5071999999286,1200.007,1200.007100000024,1201.7158999999765,168.0,1201.716,1.0,1201.7261999999284,5.0,3.0,153.0,6.0,1.0,1.0,0.7,Time
,,S09,1,w,28,anonymized,Serial_Dependence_U,2023.2.3,Win32,59.88023952095548,,,,,,1201.7265,59.0,5.0,1201.7266000000238,59.0,,,,1205.4811999999283,1205.9727999999525,1204.965,1205.4811000000238,1202.7317999999525,1204.9648999999763,1205.973,1206.461600000024,1206.4616999999284,1206.7646000000238,166.0,1206.7646999999286,1.0,1206.7747999999524,5.0,4.0,154.0,27.0,1.0,1.2,0.7,Time
,,S09,1,w,28,anonymized,Serial_Dependence_U,2023.2.3,Win32,59.88023952095548,,,,,,1206.775,74.0,5.0,1206.775100000024,74.0,,,,1210.5301000000238,1211.0222999999523,1210.0137999999524,1210.529899999976,1207.7797999999525,1210.013600000024,1211.0225,1211.5218999999763,1211.5220000000002,1212.0645000000002,150.0,1212.0646000000238,1.0,1212.0747999999523,5.0,5.0,155.0,7.0,1.0,1.2,0.7,Time
,,S09,1,w,28,anonymized,Serial_Dependence_U,2023.2.3,Win32,59.88023952095548,,,,,,1212.075,347.0,5.0,1212.075100000024,347.0,,,,1215.8376999999286,1216.3377999999525,1215.3276999999289,1215.8375,1213.080100000024,1215.3276999999289,1216.3377999999525,1216.837899999976,1216.837899999976,1218.027,133.0,1218.027100000024,1.0,1218.0315,5.0,6.0,156.0,17.0,1.0,1.2,0.7,Time
,,S09,1,w,28,anonymized,Serial_Dependence_U,2023.2.3,Win32,59.88023952095548,,,,,,1218.031600000024,110.0,5.0,1218.0316999999286,110.0,,,,1222.1951999999285,1222.6878999999765,1221.6787999999524,1222.195100000024,1219.0441999999289,1221.6786000000238,1222.688,1223.1871999999285,1223.1873999999762,1223.976399999976,150.0,1223.976399999976,1.0,1223.9815,5.0,7.0,157.0,9.0,1.0,1.6,0.7,Time
,,S09,1,w,28,anonymized,Serial_Dependence_U,2023.2.3,Win32,59.88023952095548,,,,,,1223.9817999999525,16.0,5.0,1223.9817999999525,16.0,,,,1227.3271000000238,1227.8192999999524,1226.8108999999763,1227.326899999976,1224.9767999999524,1226.8106999999286,1227.8192999999524,1228.3193999999762,1228.3195,1230.1451000000238,133.0,1230.1451999999283,1.0,1230.1577999999524,5.0,8.0,158.0,5.0,1.0,0.8,0.7,Time
,,S09,1,w,28,anonymized,Serial_Dependence_U,2023.2.3,Win32,59.88023952095548,,,,,,1230.158100000024,156.0,5.0,1230.1581999999285,156.0,,,,1234.3097999999525,1234.8082999999524,1233.793399999976,1234.3096999999286,1231.1598999999762,1233.7932999999523,1234.8083999999762,1235.3082999999524,1235.3082999999524,1238.1102999999523,151.0,1238.1103999999762,1.0,1238.1216000000238,5.0,9.0,159.0,29.0,1.0,1.6,0.7,Time
,,S09,1,w,28,anonymized,Serial_Dependence_U,2023.2.3,Win32,59.88023952095548,,,,,,1238.1218999999762,182.0,5.0,1238.122,182.0,,,,1242.0752999999524,1242.5671999999286,1241.559,1242.0751999999286,1239.1251999999286,1241.5587999999525,1242.5671999999286,1243.0673999999765,1243.0675,1243.7426999999286,149.0,1243.7430000000002,1.0,1243.7541999999285,5.0,10.0,160.0,18.0,1.0,1.4,0.7,Time
,,S09,1,w,28,anonymized,Serial_Dependence_U,2023.2.3,Win32,59.88023952095548,,,,,,1243.7543999999762,34.0,5.0,1243.7545,34.0,,,,1247.324600000024,1247.822,1246.806100000024,1247.3242999999525,1244.7585,1246.806,1247.822,1248.316,1248.316100000024,1251.275100000024,200.0,1251.2751999999286,1.0,1251.2885,5.0,11.0,161.0,26.0,1.0,1.0,0.7,Time
,,S09,1,w,28,anonymized,Serial_Dependence_U,2023.2.3,Win32,59.88023952095548,,,,,,1251.2887999999523,247.0,5.0,1251.288899999976,247.0,,,,1255.472,1255.9652999999523,1254.957,1255.4717999999525,1252.2903999999762,1254.9566999999286,1255.9653999999762,1256.4646999999286,1256.4646999999286,1257.8403999999762,166.0,1257.8405,1.0,1257.8521999999286,5.0,12.0,162.0,24.0,1.0,1.6,0.3,Time
,,S09,1,w,28,anonymized,Serial_Dependence_U,2023.2.3,Win32,59.88023952095548,,,,,,1257.852399999976,174.0,5.0,1257.8525,174.0,,,,1261.8045,1262.2972999999524,1261.2881999999286,1261.804399999976,1258.8563999999762,1261.288,1262.2973999999765,1262.7875,1262.787600000024,1263.5875,200.0,1263.587600000024,1.0,1263.5956999999285,5.0,13.0,163.0,8.0,1.0,1.4,0.7,Time
,,S09,1,w,28,anonymized,Serial_Dependence_U,2023.2.3,Win32,59.88023952095548,,,,,,1263.5957999999523,9.0,5.0,1263.5958999999762,9.0,,,,1266.9866000000238,1267.4831999999285,1266.4716999999284,1266.986399999976,1264.6041999999286,1266.4712999999524,1267.4832999999524,1267.9847999999524,1267.9848999999765,1268.9386999999283,183.0,1268.9388999999762,1.0,1268.9495000000002,5.0,14.0,164.0,10.0,1.0,0.8,0.3,Time
,,S09,1,w,28,anonymized,Serial_Dependence_U,2023.2.3,Win32,59.88023952095548,,,,,,1268.9496999999285,17.0,5.0,1268.9497999999523,17.0,,,,1272.5375,1273.0286999999284,1272.0201000000238,1272.5372999999524,1269.9545,1272.02,1273.0286999999284,1273.5183999999765,1273.5185,1273.8546999999285,201.0,1273.8548999999762,1.0,1273.8645,5.0,15.0,165.0,11.0,1.0,1.0,0.3,Time
,,S09,1,w,28,anonymized,Serial_Dependence_U,2023.2.3,Win32,59.88023952095548,,,,,,1273.8648999999762,229.0,5.0,1273.8648999999762,229.0,,,,1277.4455,1277.9453999999762,1276.9358999999763,1277.4453999999762,1274.8702999999523,1276.9357999999525,1277.9455,1278.445100000024,1278.445100000024,1280.070600000024,133.0,1280.0706999999286,1.0,1280.080600000024,5.0,16.0,166.0,21.0,1.0,1.0,0.3,Time
,,S09,1,w,28,anonymized,Serial_Dependence_U,2023.2.3,Win32,59.88023952095548,,,,,,1280.0807999999524,120.0,5.0,1280.081,120.0,,,,1284.2692999999524,1284.7656999999283,1283.768100000024,1284.269100000024,1281.103100000024,1283.768,1284.7658999999762,1285.2663999999763,1285.2665000000002,1287.286,166.0,1287.286100000024,1.0,1287.296100000024,5.0,17.0,167.0,4.0,1.0,1.6,0.3,Time
,,S09,1,w,28,anonymized,Serial_Dependence_U,2023.2.3,Win32,59.88023952095548,,,,,,1287.2962999999525,210.0,5.0,1287.2963999999763,210.0,,,,1291.084,1291.5765,1290.5681999999283,1291.0838999999762,1288.2985,1290.5681000000238,1291.5765,1292.0651999999286,1292.0652999999525,1293.7361999999284,139.0,1293.7362999999525,1.0,1293.7471999999286,5.0,18.0,168.0,22.0,1.0,1.2,0.3,Time
,,S09,1,w,28,anonymized,Serial_Dependence_U,2023.2.3,Win32,59.88023952095548,,,,,,1293.7473999999763,237.0,5.0,1293.7473999999763,237.0,,,,1297.9002999999525,1298.3922999999525,1297.384100000024,1297.9,1294.751,1297.384,1298.3922999999525,1298.8922999999525,1298.8923999999763,1301.367,150.0,1301.3671000000238,1.0,1301.3767999999525,5.0,19.0,169.0,19.0,1.0,1.6,0.7,Time
,,S09,1,w,28,anonymized,Serial_Dependence_U,2023.2.3,Win32,59.88023952095548,,,,,,1301.3770000000002,333.0,5.0,1301.3770000000002,333.0,,,,1305.358600000024,1305.8637999999523,1304.8495,1305.3583999999762,1302.382,1304.8493999999762,1305.8637999999523,1306.3622999999525,1306.3623999999763,1308.4136999999284,132.0,1308.4137999999523,1.0,1308.4226999999285,5.0,20.0,170.0,23.0,1.0,1.4,0.3,Time
,,S09,1,w,28,anonymized,Serial_Dependence_U,2023.2.3,Win32,59.88023952095548,,,,,,1308.423100000024,239.0,5.0,1308.4231999999286,239.0,,,,1311.7986999999284,1312.29,1311.2818999999763,1311.7985,1309.447,1311.281600000024,1312.29,1312.7948999999762,1312.7948999999762,1314.1486999999286,133.0,1314.1487999999524,1.0,1314.1586999999286,5.0,21.0,171.0,15.0,1.0,0.8,0.7,Time
,,S09,1,w,28,anonymized,Serial_Dependence_U,2023.2.3,Win32,59.88023952095548,,,,,,1314.159,174.0,5.0,1314.159100000024,174.0,,,,1317.5137999999524,1318.0057999999524,1316.9975000000002,1317.5135,1315.1632999999524,1316.9973999999763,1318.0057999999524,1318.506,1318.506100000024,1320.980600000024,151.0,1320.9806999999284,1.0,1320.991600000024,5.0,22.0,172.0,25.0,1.0,0.8,0.7,Time
,,S09,1,w,28,anonymized,Serial_Dependence_U,2023.2.3,Win32,59.88023952095548,,,,,,1320.991899999976,285.0,5.0,1320.992,285.0,,,,1324.7783999999765,1325.2713999999762,1324.2633999999762,1324.7781999999286,1321.9965,1324.2631999999285,1325.2713999999762,1325.7712999999524,1325.7713999999762,1325.9451999999285,132.0,1325.9451999999285,1.0,1325.9516999999285,5.0,23.0,173.0,2.0,1.0,1.2,0.3,Time
,,S09,1,w,28,anonymized,Serial_Dependence_U,2023.2.3,Win32,59.88023952095548,,,,,,1325.951899999976,346.0,5.0,1325.952,346.0,,,,1329.7458999999762,1330.2373999999763,1329.2288999999762,1329.7456999999283,1326.9625,1329.2286999999285,1330.2373999999763,1330.737100000024,1330.737100000024,1331.1618999999762,116.0,1331.1618999999762,1.0,1331.172100000024,5.0,24.0,174.0,12.0,1.0,1.2,0.3,Time
,,S09,1,w,28,anonymized,Serial_Dependence_U,2023.2.3,Win32,59.88023952095548,,,,,,1331.1722999999524,316.0,5.0,1331.1723999999765,316.0,,,,1335.1601999999286,1335.6523999999763,1334.6445,1335.160100000024,1332.1785,1334.6442999999524,1335.6523999999763,1336.1531999999286,1336.1532999999524,1337.0451999999286,133.0,1337.0453999999763,1.0,1337.055100000024,5.0,25.0,175.0,13.0,1.0,1.4,0.3,Time
,,S09,1,w,28,anonymized,Serial_Dependence_U,2023.2.3,Win32,59.88023952095548,,,,,,1337.0553999999763,3.0,5.0,1337.0553999999763,3.0,,,,1340.4438999999763,1340.935600000024,1339.9276999999286,1340.4436999999286,1338.0606999999286,1339.9275,1340.9356999999286,1341.4352999999523,1341.4353999999762,1342.0442999999525,170.0,1342.044399999976,1.0,1342.057600000024,5.0,26.0,176.0,20.0,1.0,0.8,0.3,Time
,,S09,1,w,28,anonymized,Serial_Dependence_U,2023.2.3,Win32,59.88023952095548,,,,,,1342.0577999999523,334.0,5.0,1342.057899999976,334.0,,,,1346.243100000024,1346.7347999999524,1345.7262999999523,1346.2428999999763,1343.060100000024,1345.726,1346.7347999999524,1347.235100000024,1347.235100000024,1352.8762999999524,150.0,1352.8763999999762,1.0,1352.8862999999524,5.0,27.0,177.0,14.0,1.0,1.6,0.3,Time
,,S09,1,w,28,anonymized,Serial_Dependence_U,2023.2.3,Win32,59.88023952095548,,,,,,1352.8865,290.0,5.0,1352.886600000024,290.0,,,,1356.441100000024,1356.9331000000238,1355.9247999999525,1356.4407999999523,1353.892100000024,1355.9246999999286,1356.9331999999283,1357.4386000000238,1357.4386000000238,1357.8236999999283,133.0,1357.8236999999283,1.0,1357.8281000000238,5.0,28.0,178.0,16.0,1.0,1.0,0.7,Time
,,S09,1,w,28,anonymized,Serial_Dependence_U,2023.2.3,Win32,59.88023952095548,,,,,,1357.8282999999524,322.0,5.0,1357.8283999999762,322.0,,,,1361.773,1362.2655,1361.2575000000002,1361.7728999999763,1358.8217999999524,1361.2573999999763,1362.2655,1362.7651999999289,1362.7651999999289,1366.4072999999523,101.0,1366.4073999999762,1.0,1366.4185,5.0,29.0,179.0,28.0,1.0,1.4,0.7,Time
,,S09,1,w,28,anonymized,Serial_Dependence_U,2023.2.3,Win32,59.88023952095548,,,,,,1366.4187999999524,182.0,6.0,1380.5577999999523,182.0,s,14.110400000095524,,1383.9372999999523,1384.4288999999762,1383.4208999999762,1383.937,1381.554399999976,1383.4206999999285,1384.429,1384.9287999999524,1384.9288999999762,1386.0875,116.0,1386.087600000024,1.0,1386.0971999999283,6.0,0.0,180.0,0.0,1.0,0.8,0.3,Time
,,S09,1,w,28,anonymized,Serial_Dependence_U,2023.2.3,Win32,59.88023952095548,,,,,,1386.0975,1.0,6.0,1386.0985,1.0,,,,1389.8867999999525,1390.3776999999286,1389.3697999999524,1389.886600000024,1387.1038999999762,1389.3696999999286,1390.3776999999286,1390.8673999999762,1390.8673999999762,1391.5367999999523,116.0,1391.5368999999762,1.0,1391.5493999999762,6.0,1.0,181.0,2.0,1.0,1.2,0.3,Time
,,S09,1,w,28,anonymized,Serial_Dependence_U,2023.2.3,Win32,59.88023952095548,,,,,,1391.5496999999286,43.0,6.0,1391.5497999999525,43.0,,,,1395.1352999999524,1395.627600000024,1394.619100000024,1395.1351999999283,1392.545,1394.6188999999763,1395.627600000024,1396.1273999999762,1396.1273999999762,1396.9026999999285,133.0,1396.9027999999523,1.0,1396.910100000024,6.0,2.0,182.0,21.0,1.0,1.0,0.3,Time
,,S09,1,w,28,anonymized,Serial_Dependence_U,2023.2.3,Win32,59.88023952095548,,,,,,1396.9102999999525,295.0,6.0,1396.9102999999525,295.0,,,,1400.901100000024,1401.3933999999765,1400.384899999976,1400.9008999999762,1397.9178999999765,1400.384600000024,1401.3935,1401.8927999999523,1401.8928999999762,1403.202,133.0,1403.2021000000238,1.0,1403.2137999999525,6.0,3.0,183.0,3.0,1.0,1.4,0.3,Time
,,S09,1,w,28,anonymized,Serial_Dependence_U,2023.2.3,Win32,59.88023952095548,,,,,,1403.214100000024,136.0,6.0,1403.2141999999285,136.0,,,,1406.6003999999762,1407.0922999999525,1406.084,1406.6001999999285,1404.2167999999524,1406.0837999999524,1407.092399999976,1407.592,1407.592100000024,1408.750600000024,150.0,1408.7506999999284,1.0,1408.7595,6.0,4.0,184.0,10.0,1.0,0.8,0.3,Time
,,S09,1,w,28,anonymized,Serial_Dependence_U,2023.2.3,Win32,59.88023952095548,,,,,,1408.7596999999284,160.0,6.0,1408.7597999999523,160.0,,,,1412.5162999999525,1413.014399999976,1412.0001000000238,1412.516,1409.7666000000238,1412.0,1413.014399999976,1413.5081999999286,1413.5082999999524,1415.183899999976,150.0,1415.184,1.0,1415.193,6.0,5.0,185.0,27.0,1.0,1.2,0.7,Time
,,S09,1,w,28,anonymized,Serial_Dependence_U,2023.2.3,Win32,59.88023952095548,,,,,,1415.1932999999524,127.0,6.0,1415.1933999999762,127.0,,,,1419.3791999999285,1419.879100000024,1418.8662999999524,1419.379100000024,1416.199,1418.8661000000238,1419.879100000024,1420.3733999999763,1420.3735,1420.6157999999523,100.0,1420.6157999999523,1.0,1420.6273999999762,6.0,6.0,186.0,14.0,1.0,1.6,0.3,Time
,,S09,1,w,28,anonymized,Serial_Dependence_U,2023.2.3,Win32,59.88023952095548,,,,,,1420.6280000000002,260.0,6.0,1420.6281999999285,260.0,,,,1424.6145,1425.1057999999523,1424.097600000024,1424.6143999999765,1421.6312999999525,1424.0975,1425.105899999976,1425.6126000000238,1425.6126999999285,1426.215,134.0,1426.215100000024,1.0,1426.2252999999523,6.0,7.0,187.0,23.0,1.0,1.4,0.3,Time
,,S09,1,w,28,anonymized,Serial_Dependence_U,2023.2.3,Win32,59.88023952095548,,,,,,1426.225600000024,297.0,6.0,1426.2256999999286,297.0,,,,1430.172100000024,1430.6756999999286,1429.6641000000238,1430.172100000024,1427.2305,1429.663899999976,1430.6756999999286,1431.1723999999765,1431.1725,1432.3306999999286,100.0,1432.3307999999524,1.0,1432.341399999976,6.0,8.0,188.0,28.0,1.0,1.4,0.7,Time
,,S09,1,w,28,anonymized,Serial_Dependence_U,2023.2.3,Win32,59.88023952095548,,,,,,1432.3417999999524,274.0,6.0,1432.3418999999762,274.0,,,,1436.2962999999525,1436.7878999999762,1435.7785,1436.296,1433.346100000024,1435.7782999999524,1436.7878999999762,1437.2876999999285,1437.2877999999523,1439.0627999999524,183.0,1439.0628999999765,1.0,1439.0732999999525,6.0,9.0,189.0,8.0,1.0,1.4,0.7,Time
,,S09,1,w,28,anonymized,Serial_Dependence_U,2023.2.3,Win32,59.88023952095548,,,,,,1439.0735,183.0,6.0,1439.0736000000238,183.0,,,,1442.6278999999763,1443.1201999999284,1442.112,1442.6276999999286,1440.0785,1442.1117999999524,1443.1201999999284,1443.62,1443.620100000024,1443.7561999999286,112.0,1443.7561999999286,1.0,1443.760600000024,6.0,10.0,190.0,16.0,1.0,1.0,0.7,Time
,,S09,1,w,28,anonymized,Serial_Dependence_U,2023.2.3,Win32,59.88023952095548,,,,,,1443.7607999999525,120.0,6.0,1443.7607999999525,120.0,,,,1447.3100000000002,1447.8022999999523,1446.794,1447.3098999999763,1444.758600000024,1446.7937999999524,1447.8022999999523,1448.302600000024,1448.302600000024,1449.260899999976,150.0,1449.2611000000238,1.0,1449.271,6.0,11.0,191.0,26.0,1.0,1.0,0.7,Time
,,S09,1,w,28,anonymized,Serial_Dependence_U,2023.2.3,Win32,59.88023952095548,,,,,,1449.2711999999285,319.0,6.0,1449.2712999999524,319.0,,,,1453.4267999999524,1453.9182999999523,1452.91,1453.4266999999286,1450.277,1452.9098999999762,1453.9185,1454.4185,1454.4186000000238,1460.3595,210.0,1460.359600000024,1.0,1460.3716999999283,6.0,12.0,192.0,19.0,1.0,1.6,0.7,Time
,,S09,1,w,28,anonymized,Serial_Dependence_U,2023.2.3,Win32,59.88023952095548,,,,,,1460.372,351.0,6.0,1460.372100000024,351.0,,,,1464.5246999999283,1465.0162999999525,1464.0083999999763,1464.5245,1461.375,1464.0081999999286,1465.0162999999525,1465.5056000000238,1465.5056000000238,1465.6413999999763,115.0,1465.6415000000002,1.0,1465.6506999999283,6.0,13.0,193.0,29.0,1.0,1.6,0.7,Time
,,S09,1,w,28,anonymized,Serial_Dependence_U,2023.2.3,Win32,59.88023952095548,,,,,,1465.6508999999762,247.0,6.0,1465.651,247.0,,,,1469.0002999999524,1469.4991999999286,1468.4912999999524,1469.0001999999286,1466.658,1468.4911999999283,1469.4992999999524,1469.9993999999765,1469.9995,1470.4083999999762,117.0,1470.4085,1.0,1470.418100000024,6.0,14.0,194.0,15.0,1.0,0.8,0.7,Time
,,S09,1,w,28,anonymized,Serial_Dependence_U,2023.2.3,Win32,59.88023952095548,,,,,,1470.418399999976,273.0,6.0,1470.4185,273.0,,,,1474.589600000024,1475.0818999999765,1474.0737999999524,1474.5893999999762,1471.4406999999285,1474.0736999999283,1475.0818999999765,1475.588600000024,1475.5887999999525,1476.0076999999285,133.0,1476.0077999999523,1.0,1476.0183999999765,6.0,15.0,195.0,9.0,1.0,1.6,0.7,Time
,,S09,1,w,28,anonymized,Serial_Dependence_U,2023.2.3,Win32,59.88023952095548,,,,,,1476.018600000024,58.0,6.0,1476.0186999999285,58.0,,,,1480.2062999999523,1480.7013999999765,1479.6893999999763,1480.2061999999285,1477.023100000024,1479.6892999999525,1480.7013999999765,1481.1976000000238,1481.1977999999524,1481.59,117.0,1481.590100000024,1.0,1481.600100000024,6.0,16.0,196.0,4.0,1.0,1.6,0.3,Time
,,S09,1,w,28,anonymized,Serial_Dependence_U,2023.2.3,Win32,59.88023952095548,,,,,,1481.6003999999762,258.0,6.0,1481.6003999999762,258.0,,,,1484.9687999999524,1485.4631000000238,1484.4552999999523,1484.9687999999524,1482.6137999999523,1484.4551999999285,1485.4631999999283,1485.952600000024,1485.9526999999289,1486.5716999999286,116.0,1486.5717999999524,1.0,1486.5812999999523,6.0,17.0,197.0,5.0,1.0,0.8,0.7,Time
,,S09,1,w,28,anonymized,Serial_Dependence_U,2023.2.3,Win32,59.88023952095548,,,,,,1486.5815,108.0,6.0,1486.5815,108.0,,,,1490.336899999976,1490.8296999999286,1489.8207999999524,1490.3366999999284,1487.5885,1489.8205,1490.8296999999286,1491.3291999999285,1491.3292999999524,1491.7963999999763,108.0,1491.7965000000002,1.0,1491.8048999999762,6.0,18.0,198.0,17.0,1.0,1.2,0.7,Time
,,S09,1,w,28,anonymized,Serial_Dependence_U,2023.2.3,Win32,59.88023952095548,,,,,,1491.8051999999286,195.0,6.0,1491.8051999999286,195.0,,,,1495.152600000024,1495.645,1494.6371999999285,1495.1525,1492.7961999999286,1494.637100000024,1495.645,1496.1455,1496.1456999999286,1496.5203999999762,99.0,1496.5203999999762,1.0,1496.5316999999286,6.0,19.0,199.0,25.0,1.0,0.8,0.7,Time
,,S09,1,w,28,anonymized,Serial_Dependence_U,2023.2.3,Win32,59.88023952095548,,,,,,1496.5318999999763,317.0,6.0,1496.5318999999763,317.0,,,,1500.3357999999523,1500.8282999999524,1499.8207999999524,1500.3356999999285,1497.5532999999523,1499.8206999999286,1500.8283999999762,1501.328,1501.3281000000238,1502.4368999999765,151.0,1502.437,1.0,1502.4493999999763,6.0,20.0,200.0,12.0,1.0,1.2,0.3,Time
,,S09,1,w,28,anonymized,Serial_Dependence_U,2023.2.3,Win32,59.88023952095548,,,,,,1502.449600000024,95.0,6.0,1502.4496999999285,95.0,,,,1506.2352999999523,1506.727,1505.717399999976,1506.235100000024,1503.4521000000238,1505.7172999999525,1506.727,1507.232,1507.2321999999283,1508.1858999999763,136.0,1508.1861999999285,1.0,1508.197,6.0,21.0,201.0,22.0,1.0,1.2,0.3,Time
,,S09,1,w,28,anonymized,Serial_Dependence_U,2023.2.3,Win32,59.88023952095548,,,,,,1508.1972999999523,219.0,6.0,1508.197399999976,219.0,,,,1511.7832999999523,1512.2763999999763,1511.2673999999763,1511.783100000024,1509.2012999999524,1511.2671999999286,1512.2763999999763,1512.765,1512.765100000024,1513.5835,149.0,1513.5836000000238,1.0,1513.593,6.0,22.0,202.0,1.0,1.0,1.0,0.3,Time
,,S09,1,w,28,anonymized,Serial_Dependence_U,2023.2.3,Win32,59.88023952095548,,,,,,1513.5932999999525,313.0,6.0,1513.5933999999763,313.0,,,,1517.1832999999524,1517.6755,1516.6665,1517.183,1514.5996999999286,1516.6662999999523,1517.6755,1518.1753999999762,1518.1755,1519.0172999999525,150.0,1519.0173999999763,1.0,1519.026600000024,6.0,23.0,203.0,11.0,1.0,1.0,0.3,Time
,,S09,1,w,28,anonymized,Serial_Dependence_U,2023.2.3,Win32,59.88023952095548,,,,,,1519.0267999999523,202.0,6.0,1519.027,202.0,,,,1522.4157999999525,1522.9111999999286,1521.900100000024,1522.415600000024,1520.0328999999765,1521.8997999999524,1522.9111999999286,1523.4082999999523,1523.4082999999523,1523.9136999999284,130.0,1523.913899999976,1.0,1523.9256999999286,6.0,24.0,204.0,20.0,1.0,0.8,0.3,Time
,,S09,1,w,28,anonymized,Serial_Dependence_U,2023.2.3,Win32,59.88023952095548,,,,,,1523.9258999999763,49.0,6.0,1523.9260000000002,49.0,,,,1527.9153999999762,1528.407100000024,1527.398100000024,1527.9152999999524,1524.9285,1527.398,1528.4071999999285,1528.9070000000002,1528.9070000000002,1529.4493999999763,167.0,1529.4493999999763,1.0,1529.4605,6.0,25.0,205.0,13.0,1.0,1.4,0.3,Time
,,S09,1,w,28,anonymized,Serial_Dependence_U,2023.2.3,Win32,59.88023952095548,,,,,,1529.4607999999523,358.0,6.0,1529.461,358.0,,,,1533.0146000000238,1533.506,1532.498100000024,1533.0142999999523,1530.4647999999524,1532.498,1533.506,1534.0066000000238,1534.0067999999524,1534.4145,100.0,1534.414600000024,1.0,1534.4237999999525,6.0,26.0,206.0,6.0,1.0,1.0,0.7,Time
,,S09,1,w,28,anonymized,Serial_Dependence_U,2023.2.3,Win32,59.88023952095548,,,,,,1534.423899999976,38.0,6.0,1534.424,38.0,,,,1538.1803999999763,1538.6723999999765,1537.664,1538.1801999999286,1535.429399999976,1537.6637999999523,1538.6723999999765,1539.172,1539.172100000024,1539.6642999999524,100.0,1539.6642999999524,1.0,1539.6737999999525,6.0,27.0,207.0,7.0,1.0,1.2,0.7,Time
,,S09,1,w,28,anonymized,Serial_Dependence_U,2023.2.3,Win32,59.88023952095548,,,,,,1539.674,162.0,6.0,1539.6741000000238,162.0,,,,1543.6458999999763,1544.138,1543.129,1543.6456999999286,1540.6967999999524,1543.1288999999765,1544.138,1544.6382999999523,1544.6382999999523,1545.1121999999286,116.0,1545.1122999999525,1.0,1545.1222999999525,6.0,28.0,208.0,18.0,1.0,1.4,0.7,Time
,,S09,1,w,28,anonymized,Serial_Dependence_U,2023.2.3,Win32,59.88023952095548,,,,,,1545.1226999999285,322.0,6.0,1545.1227999999523,322.0,,,,1549.3112999999523,1549.8100000000002,1548.7955000000002,1549.3112999999523,1546.129100000024,1548.7953999999763,1549.810100000024,1550.303100000024,1550.3031999999284,1554.7783999999765,99.0,1554.7783999999765,1.0,1554.7877999999523,6.0,29.0,209.0,24.0,1.0,1.6,0.3,Time
,,S09,1,w,28,anonymized,Serial_Dependence_U,2023.2.3,Win32,59.88023952095548,,,,,,1554.788,348.0,7.0,1565.894100000024,348.0,s,11.085399999976062,,1569.4563999999762,1569.9505,1568.94,1569.4563999999762,1566.8926999999285,1568.94,1569.950600000024,1570.450100000024,1570.4501999999286,1570.6402999999525,133.0,1570.6402999999525,1.0,1570.6452999999524,7.0,0.0,210.0,6.0,1.0,1.0,0.7,Time
,,S09,1,w,28,anonymized,Serial_Dependence_U,2023.2.3,Win32,59.88023952095548,,,,,,1570.6455,49.0,7.0,1570.6461999999285,49.0,,,,1574.408100000024,1574.904899999976,1573.9058999999763,1574.4077999999524,1571.658600000024,1573.9058999999763,1574.904899999976,1575.3995,1575.3995,1575.7247999999524,149.0,1575.7247999999524,1.0,1575.7321000000238,7.0,1.0,211.0,7.0,1.0,1.2,0.7,Time
,,S09,1,w,28,anonymized,Serial_Dependence_U,2023.2.3,Win32,59.88023952095548,,,,,,1575.7323999999762,44.0,7.0,1575.7325,44.0,,,,1579.3243999999763,1579.816,1578.807600000024,1579.3241999999286,1576.7391999999286,1578.807600000024,1579.816,1580.3156999999285,1580.3156999999285,1581.057899999976,116.0,1581.057899999976,1.0,1581.0675,7.0,2.0,212.0,11.0,1.0,1.0,0.3,Time
,,S09,1,w,28,anonymized,Serial_Dependence_U,2023.2.3,Win32,59.88023952095548,,,,,,1581.0677999999525,287.0,7.0,1581.068,287.0,,,,1585.256,1585.7485,1584.740100000024,1585.2558999999762,1582.074,1584.74,1585.7485,1586.2367999999524,1586.2368999999762,1586.7745,117.0,1586.7746000000238,1.0,1586.7851999999286,7.0,3.0,213.0,14.0,1.0,1.6,0.3,Time
,,S09,1,w,28,anonymized,Serial_Dependence_U,2023.2.3,Win32,59.88023952095548,,,,,,1586.7855,167.0,7.0,1586.7856000000238,167.0,,,,1590.5726999999283,1591.069600000024,1590.056,1590.5726000000238,1587.7893999999762,1590.0557999999523,1591.069600000024,1591.5637999999524,1591.5638999999762,1591.8205,116.0,1591.8205,1.0,1591.8252999999524,7.0,4.0,214.0,2.0,1.0,1.2,0.3,Time
,,S09,1,w,28,anonymized,Serial_Dependence_U,2023.2.3,Win32,59.88023952095548,,,,,,1591.8255,165.0,7.0,1591.8255,165.0,,,,1595.1886999999283,1595.6803999999763,1594.6715000000002,1595.1885,1592.836,1594.6713999999763,1595.6805000000002,1596.181100000024,1596.1811999999286,1602.071600000024,152.0,1602.0716999999286,1.0,1602.083,7.0,5.0,215.0,25.0,1.0,0.8,0.7,Time
,,S09,1,w,28,anonymized,Serial_Dependence_U,2023.2.3,Win32,59.88023952095548,,,,,,1602.0831999999286,81.0,7.0,1602.0833999999763,81.0,,,,1605.8673999999762,1606.362,1605.3526999999283,1605.8673999999762,1603.0872999999524,1605.3525,1606.362100000024,1606.8618999999762,1606.8618999999762,1607.6362999999524,116.0,1607.6363999999762,1.0,1607.646,7.0,6.0,216.0,12.0,1.0,1.2,0.3,Time
,,S09,1,w,28,anonymized,Serial_Dependence_U,2023.2.3,Win32,59.88023952095548,,,,,,1607.6461999999285,105.0,7.0,1607.6462999999524,105.0,,,,1611.5692999999524,1612.0608999999763,1611.0681000000238,1611.569,1608.6352999999524,1611.068,1612.0608999999763,1612.5667999999523,1612.5667999999523,1613.5362999999525,133.0,1613.5363999999763,1.0,1613.5472999999524,7.0,7.0,217.0,8.0,1.0,1.4,0.7,Time
,,S09,1,w,28,anonymized,Serial_Dependence_U,2023.2.3,Win32,59.88023952095548,,,,,,1613.5475,289.0,7.0,1613.5475,289.0,,,,1616.9356999999286,1617.4262999999523,1616.418399999976,1616.9355,1614.552100000024,1616.4182999999523,1617.4262999999523,1617.9263999999762,1617.9263999999762,1618.784399999976,151.0,1618.784399999976,1.0,1618.794399999976,7.0,8.0,218.0,10.0,1.0,0.8,0.3,Time
,,S09,1,w,28,anonymized,Serial_Dependence_U,2023.2.3,Win32,59.88023952095548,,,,,,1618.7946999999283,238.0,7.0,1618.7947999999524,238.0,,,,1622.9842999999523,1623.4757999999524,1622.4677999999524,1622.984100000024,1619.7931999999284,1622.4676999999283,1623.4757999999524,1623.9756999999286,1623.9756999999286,1624.1511999999286,117.0,1624.1512999999525,1.0,1624.160100000024,7.0,9.0,219.0,4.0,1.0,1.6,0.3,Time
,,S09,1,w,28,anonymized,Serial_Dependence_U,2023.2.3,Win32,59.88023952095548,,,,,,1624.1603999999763,65.0,7.0,1624.1603999999763,65.0,,,,1628.365100000024,1628.8581000000238,1627.8491999999285,1628.3648999999762,1625.165,1627.849100000024,1628.8581999999285,1629.3581999999285,1629.3581999999285,1630.1508999999762,100.0,1630.151,1.0,1630.1618999999762,7.0,10.0,220.0,24.0,1.0,1.6,0.3,Time
,,S09,1,w,28,anonymized,Serial_Dependence_U,2023.2.3,Win32,59.88023952095548,,,,,,1630.1621999999286,107.0,7.0,1630.1621999999286,107.0,,,,1633.9322999999524,1634.43,1633.4146999999286,1633.9322999999524,1631.1826999999284,1633.4146999999286,1634.43,1634.9242999999524,1634.9245,1636.416600000024,117.0,1636.4167999999524,1.0,1636.4268999999765,7.0,11.0,221.0,17.0,1.0,1.2,0.7,Time
,,S09,1,w,28,anonymized,Serial_Dependence_U,2023.2.3,Win32,59.88023952095548,,,,,,1636.4271999999285,72.0,7.0,1636.4271999999285,72.0,,,,1640.5813999999762,1641.073100000024,1640.0647999999524,1640.5812999999523,1637.4316999999285,1640.0645000000002,1641.073100000024,1641.5785,1641.5785,1642.3962999999524,132.0,1642.3963999999762,1.0,1642.403899999976,7.0,12.0,222.0,9.0,1.0,1.6,0.7,Time
,,S09,1,w,28,anonymized,Serial_Dependence_U,2023.2.3,Win32,59.88023952095548,,,,,,1642.4041999999286,249.0,7.0,1642.4042999999524,249.0,,,,1646.397100000024,1646.8961000000238,1645.8801999999284,1646.3970000000002,1643.414600000024,1645.880100000024,1646.8961000000238,1647.3897999999524,1647.3897999999524,1647.5646000000238,133.0,1647.5646999999285,1.0,1647.5761999999286,7.0,13.0,223.0,3.0,1.0,1.4,0.3,Time
,,S09,1,w,28,anonymized,Serial_Dependence_U,2023.2.3,Win32,59.88023952095548,,,,,,1647.5765,30.0,7.0,1647.5765,30.0,,,,1651.7286999999285,1652.2213999999765,1651.2135,1651.728600000024,1648.5798999999763,1651.2131000000238,1652.2213999999765,1652.721100000024,1652.721100000024,1657.7961999999286,108.0,1657.7961999999286,1.0,1657.807600000024,7.0,14.0,224.0,29.0,1.0,1.6,0.7,Time
,,S09,1,w,28,anonymized,Serial_Dependence_U,2023.2.3,Win32,59.88023952095548,,,,,,1657.8077999999523,219.0,7.0,1657.8077999999523,219.0,,,,1661.405,1661.903,1660.888,1661.405,1658.8118999999765,1660.888,1661.903,1662.4027999999523,1662.4028999999762,1664.5535,110.0,1664.5536000000238,1.0,1664.5627999999524,7.0,15.0,225.0,21.0,1.0,1.0,0.3,Time
,,S09,1,w,28,anonymized,Serial_Dependence_U,2023.2.3,Win32,59.88023952095548,,,,,,1664.563,54.0,7.0,1664.563,54.0,,,,1668.137100000024,1668.635899999976,1667.620100000024,1668.1370000000002,1665.5546000000238,1667.6198999999765,1668.636,1669.1357999999525,1669.135899999976,1669.669399999976,133.0,1669.6695,1.0,1669.6782999999523,7.0,16.0,226.0,1.0,1.0,1.0,0.3,Time
,,S09,1,w,28,anonymized,Serial_Dependence_U,2023.2.3,Win32,59.88023952095548,,,,,,1669.6785,39.0,7.0,1669.6786000000238,39.0,,,,1673.653,1674.152100000024,1673.1367999999525,1673.6528999999762,1670.6697999999524,1673.1366999999286,1674.1521999999286,1674.652,1674.6521999999286,1675.4688999999762,122.0,1675.4688999999762,1.0,1675.4767999999524,7.0,17.0,227.0,13.0,1.0,1.4,0.3,Time
,,S09,1,w,28,anonymized,Serial_Dependence_U,2023.2.3,Win32,59.88023952095548,,,,,,1675.477,33.0,7.0,1675.477100000024,33.0,,,,1678.835,1679.3343999999763,1678.3187999999525,1678.8348999999762,1676.485600000024,1678.318600000024,1679.3343999999763,1679.834100000024,1679.8341999999286,1685.3005,117.0,1685.3006999999286,1.0,1685.3113999999762,7.0,18.0,228.0,5.0,1.0,0.8,0.7,Time
,,S09,1,w,28,anonymized,Serial_Dependence_U,2023.2.3,Win32,59.88023952095548,,,,,,1685.311600000024,77.0,7.0,1685.311600000024,77.0,,,,1688.6843999999762,1689.1822999999524,1688.1836999999286,1688.6842999999524,1686.3173999999765,1688.1835,1689.182600000024,1689.682,1689.682100000024,1689.950100000024,111.0,1689.950100000024,1.0,1689.959100000024,7.0,19.0,229.0,0.0,1.0,0.8,0.3,Time
,,S09,1,w,28,anonymized,Serial_Dependence_U,2023.2.3,Win32,59.88023952095548,,,,,,1689.9591999999286,160.0,7.0,1689.9591999999286,160.0,,,,1693.4831000000238,1693.9821999999283,1692.9821999999283,1693.4828999999763,1690.9501999999286,1692.9821999999283,1693.9822999999524,1694.4817999999525,1694.4817999999525,1695.9658999999765,119.0,1695.966,1.0,1695.9762999999523,7.0,20.0,230.0,16.0,1.0,1.0,0.7,Time
,,S09,1,w,28,anonymized,Serial_Dependence_U,2023.2.3,Win32,59.88023952095548,,,,,,1695.9765,359.0,7.0,1695.9765,359.0,,,,1699.914600000024,1700.4143999999762,1699.398600000024,1699.914600000024,1696.9658999999765,1699.3985,1700.4143999999762,1700.9143999999762,1700.9145,1701.1156999999284,118.0,1701.1157999999523,1.0,1701.125600000024,7.0,21.0,231.0,18.0,1.0,1.4,0.7,Time
,,S09,1,w,28,anonymized,Serial_Dependence_U,2023.2.3,Win32,59.88023952095548,,,,,,1701.1257999999525,66.0,7.0,1701.1257999999525,66.0,,,,1704.4652999999523,1704.9642999999523,1703.9486999999283,1704.4651999999285,1702.1152999999524,1703.9486000000238,1704.9642999999523,1705.4638999999763,1705.4640000000002,1706.6135000000002,132.0,1706.6136999999285,1.0,1706.6236999999285,7.0,22.0,232.0,15.0,1.0,0.8,0.7,Time
,,S09,1,w,28,anonymized,Serial_Dependence_U,2023.2.3,Win32,59.88023952095548,,,,,,1706.624,330.0,7.0,1706.624,330.0,,,,1710.413600000024,1710.9128999999762,1709.8972999999523,1710.4135,1707.6312999999525,1709.8971999999285,1710.9128999999762,1711.4127999999523,1711.4128999999762,1712.2632999999523,132.0,1712.2633999999762,1.0,1712.272100000024,7.0,23.0,233.0,22.0,1.0,1.2,0.3,Time
,,S09,1,w,28,anonymized,Serial_Dependence_U,2023.2.3,Win32,59.88023952095548,,,,,,1712.2722999999523,291.0,7.0,1712.2723999999762,291.0,,,,1715.8127999999524,1716.3121999999285,1715.2963999999763,1715.8126000000238,1713.2635,1715.2963999999763,1716.3123999999762,1716.8118999999765,1716.812,1717.1786999999283,123.0,1717.1788999999762,1.0,1717.1881999999284,7.0,24.0,234.0,26.0,1.0,1.0,0.7,Time
,,S09,1,w,28,anonymized,Serial_Dependence_U,2023.2.3,Win32,59.88023952095548,,,,,,1717.188399999976,179.0,7.0,1717.1885,179.0,,,,1721.1451999999283,1721.6446999999284,1720.6287999999524,1721.1451000000238,1718.1955,1720.6287999999524,1721.644899999976,1722.144,1722.144100000024,1722.6116000000238,150.0,1722.6116999999283,1.0,1722.6226999999285,7.0,25.0,235.0,28.0,1.0,1.4,0.7,Time
,,S09,1,w,28,anonymized,Serial_Dependence_U,2023.2.3,Win32,59.88023952095548,,,,,,1722.6228999999762,115.0,7.0,1722.623,115.0,,,,1726.0103999999762,1726.5111000000238,1725.4957999999524,1726.0102999999524,1723.6280000000002,1725.4956999999283,1726.5111000000238,1727.0102999999524,1727.0102999999524,1730.1597999999524,3135.0,1730.16,5.0,1730.169,7.0,26.0,236.0,20.0,1.0,0.8,0.3,Time
,,S09,1,w,28,anonymized,Serial_Dependence_U,2023.2.3,Win32,59.88023952095548,,,,,,1730.1691999999289,183.0,7.0,1730.1692999999525,183.0,,,,1733.927,1734.4266999999286,1733.4105,1733.9267999999524,1731.1761999999285,1733.4103999999763,1734.4267999999524,1734.9255,1734.925600000024,1735.5095,138.0,1735.509600000024,1.0,1735.5191999999286,7.0,27.0,237.0,27.0,1.0,1.2,0.7,Time
,,S09,1,w,28,anonymized,Serial_Dependence_U,2023.2.3,Win32,59.88023952095548,,,,,,1735.5193999999765,45.0,7.0,1735.5195,45.0,,,,1739.5097999999523,1740.0086999999285,1738.9925,1739.5096999999284,1736.5265000000002,1738.9925,1740.0087999999523,1740.508,1740.5081999999286,1743.025399999976,211.0,1743.0255,1.0,1743.036100000024,7.0,28.0,238.0,23.0,1.0,1.4,0.3,Time
,,S09,1,w,28,anonymized,Serial_Dependence_U,2023.2.3,Win32,59.88023952095548,,,,,,1743.0362999999525,264.0,7.0,1743.0362999999525,264.0,,,,1747.158100000024,1747.6570000000002,1746.6571999999285,1747.158,1744.0251999999286,1746.657100000024,1747.6570000000002,1748.157100000024,1748.1571999999285,1751.356899999976,166.0,1751.3571000000238,1.0,1751.3676999999286,7.0,29.0,239.0,19.0,1.0,1.6,0.7,Time
,,S09,1,w,28,anonymized,Serial_Dependence_U,2023.2.3,Win32,59.88023952095548,,,,,,1751.3678999999763,14.0,8.0,1754.4396000000238,14.0,s,3.0563999999760654,,1758.4233999999765,1758.9225,1757.9061999999285,1758.4232999999524,1755.44,1757.9061000000238,1758.9225,1759.4221999999286,1759.4222999999524,1764.4212999999525,174.0,1764.4212999999525,1.0,1764.4315,8.0,0.0,240.0,23.0,1.0,1.4,0.3,Time
,,S09,1,w,28,anonymized,Serial_Dependence_U,2023.2.3,Win32,59.88023952095548,,,,,,1764.4316999999285,276.0,8.0,1764.4323999999765,276.0,,,,1768.1715000000002,1768.6705000000002,1767.655600000024,1768.1713999999763,1765.422,1767.6555,1768.6706000000238,1769.1706999999285,1769.1708999999762,1770.5873999999762,181.0,1770.5875,1.0,1770.5961999999286,8.0,1.0,241.0,27.0,1.0,1.2,0.7,Time
,,S09,1,w,28,anonymized,Serial_Dependence_U,2023.2.3,Win32,59.88023952095548,,,,,,1770.5965,348.0,8.0,1770.5965,348.0,,,,1774.3876999999286,1774.8855,1773.871,1774.3875,1771.6047999999523,1773.8708999999762,1774.8855,1775.3861000000238,1775.3861999999283,1776.653,202.0,1776.653100000024,1.0,1776.6652999999524,8.0,2.0,242.0,12.0,1.0,1.2,0.3,Time
,,S09,1,w,28,anonymized,Serial_Dependence_U,2023.2.3,Win32,59.88023952095548,,,,,,1776.665600000024,357.0,8.0,1776.6656999999286,357.0,,,,1780.2531999999285,1780.7517999999525,1779.7517999999525,1780.253100000024,1777.6861999999285,1779.7517999999525,1780.7518999999763,1781.2518999999763,1781.2520000000002,1785.1852999999523,134.0,1785.1853999999762,1.0,1785.1967999999524,8.0,3.0,243.0,21.0,1.0,1.0,0.3,Time
,,S09,1,w,28,anonymized,Serial_Dependence_U,2023.2.3,Win32,59.88023952095548,,,,,,1785.197100000024,15.0,8.0,1785.1971999999284,15.0,,,,1788.750899999976,1789.2506999999284,1788.2352999999523,1788.750899999976,1786.2017999999523,1788.2351999999285,1789.2506999999284,1789.7501000000238,1789.7501999999286,1790.018100000024,166.0,1790.0181999999286,1.0,1790.03,8.0,4.0,244.0,6.0,1.0,1.0,0.7,Time
,,S09,1,w,28,anonymized,Serial_Dependence_U,2023.2.3,Win32,59.88023952095548,,,,,,1790.0301999999283,39.0,8.0,1790.0301999999283,39.0,,,,1793.385,1793.8838999999762,1792.8836999999285,1793.384899999976,1791.0511999999285,1792.8836999999285,1793.884,1794.3831999999286,1794.3833999999763,1794.9671999999289,128.0,1794.9671999999289,1.0,1794.9776000000238,8.0,5.0,245.0,5.0,1.0,0.8,0.7,Time
,,S09,1,w,28,anonymized,Serial_Dependence_U,2023.2.3,Win32,59.88023952095548,,,,,,1794.9777999999524,178.0,8.0,1794.9778999999762,178.0,,,,1798.932600000024,1799.4326999999284,1798.417100000024,1798.932600000024,1795.9840000000002,1798.4167999999524,1799.4326999999284,1799.9331999999283,1799.9331999999283,1800.4831000000238,131.0,1800.4831000000238,1.0,1800.4926999999286,8.0,6.0,246.0,8.0,1.0,1.4,0.7,Time
,,S09,1,w,28,anonymized,Serial_Dependence_U,2023.2.3,Win32,59.88023952095548,,,,,,1800.4928999999763,222.0,8.0,1800.4930000000002,222.0,,,,1804.449899999976,1804.9476999999283,1803.932600000024,1804.4497999999523,1801.4997999999523,1803.9323999999765,1804.9477999999524,1805.4475,1805.4475,1806.0317999999525,128.0,1806.0317999999525,1.0,1806.0396999999289,8.0,7.0,247.0,18.0,1.0,1.4,0.7,Time
,,S09,1,w,28,anonymized,Serial_Dependence_U,2023.2.3,Win32,59.88023952095548,,,,,,1806.039899999976,1.0,8.0,1806.039899999976,1.0,,,,1810.231899999976,1810.7307999999523,1809.7157999999524,1810.2317999999525,1807.047600000024,1809.7156999999288,1810.7307999999523,1811.2306999999284,1811.2307999999523,1812.8298999999763,117.0,1812.83,1.0,1812.8366999999284,8.0,8.0,248.0,24.0,1.0,1.6,0.3,Time
,,S09,1,w,28,anonymized,Serial_Dependence_U,2023.2.3,Win32,59.88023952095548,,,,,,1812.836899999976,281.0,8.0,1812.837,281.0,,,,1816.414100000024,1816.913,1815.8976999999288,1816.414,1813.8301999999285,1815.897600000024,1816.9131999999288,1817.413,1817.413100000024,1819.0301999999283,130.0,1819.0302999999524,1.0,1819.039600000024,8.0,9.0,249.0,11.0,1.0,1.0,0.3,Time
,,S09,1,w,28,anonymized,Serial_Dependence_U,2023.2.3,Win32,59.88023952095548,,,,,,1819.0396999999289,50.0,8.0,1819.0397999999525,50.0,,,,1822.9961999999289,1823.494600000024,1822.48,1822.996100000024,1820.047,1822.479899999976,1823.494600000024,1823.9946999999288,1823.9946999999288,1824.462600000024,118.0,1824.4627999999525,1.0,1824.4711999999288,8.0,10.0,250.0,28.0,1.0,1.4,0.7,Time
,,S09,1,w,28,anonymized,Serial_Dependence_U,2023.2.3,Win32,59.88023952095548,,,,,,1824.4713999999765,169.0,8.0,1824.4713999999765,169.0,,,,1827.845600000024,1828.3452999999524,1827.329600000024,1827.8455,1825.463100000024,1827.3292999999524,1828.3453999999765,1828.8446999999285,1828.845,1829.4116999999285,133.0,1829.4117999999523,1.0,1829.4213999999763,8.0,11.0,251.0,10.0,1.0,0.8,0.3,Time
,,S09,1,w,28,anonymized,Serial_Dependence_U,2023.2.3,Win32,59.88023952095548,,,,,,1829.4215,84.0,8.0,1829.421600000024,84.0,,,,1832.7783999999765,1833.2772999999524,1832.2617999999525,1832.7782999999524,1830.4286999999283,1832.261600000024,1833.2772999999524,1833.7773999999763,1833.777600000024,1834.6942999999524,135.0,1834.6942999999524,1.0,1834.704100000024,8.0,12.0,252.0,25.0,1.0,0.8,0.7,Time
,,S09,1,w,28,anonymized,Serial_Dependence_U,2023.2.3,Win32,59.88023952095548,,,,,,1834.7041999999285,300.0,8.0,1834.7042999999524,300.0,,,,1838.8941999999288,1839.3931999999288,1838.3775,1838.894,1835.7111999999288,1838.3772999999524,1839.3931999999288,1839.8932999999524,1839.8935,1840.3598999999765,133.0,1840.36,1.0,1840.3692999999523,8.0,13.0,253.0,14.0,1.0,1.6,0.3,Time
,,S09,1,w,28,anonymized,Serial_Dependence_U,2023.2.3,Win32,59.88023952095548,,,,,,1840.3695,20.0,8.0,1840.369600000024,20.0,,,,1844.5596999999289,1845.0596999999289,1844.0431999999284,1844.5595,1841.3768999999763,1844.0431999999284,1845.0596999999289,1845.558399999976,1845.5585,1846.041399999976,116.0,1846.041399999976,1.0,1846.045899999976,8.0,14.0,254.0,4.0,1.0,1.6,0.3,Time
,,S09,1,w,28,anonymized,Serial_Dependence_U,2023.2.3,Win32,59.88023952095548,,,,,,1846.0461999999288,100.0,8.0,1846.0461999999288,100.0,,,,1849.8256999999285,1850.324600000024,1849.309100000024,1849.8255,1847.0431999999284,1849.308899999976,1850.324600000024,1850.8251999999288,1850.8251999999288,1851.6416999999285,166.0,1851.6416999999285,1.0,1851.652899999976,8.0,15.0,255.0,22.0,1.0,1.2,0.3,Time
,,S09,1,w,28,anonymized,Serial_Dependence_U,2023.2.3,Win32,59.88023952095548,,,,,,1851.653100000024,135.0,8.0,1851.6531999999288,135.0,,,,1855.2083999999763,1855.707,1854.6926999999284,1855.2082999999525,1852.6586999999288,1854.6923999999765,1855.707,1856.2065,1856.2065,1856.708,133.0,1856.708,1.0,1856.7167999999524,8.0,16.0,256.0,16.0,1.0,1.0,0.7,Time
,,S09,1,w,28,anonymized,Serial_Dependence_U,2023.2.3,Win32,59.88023952095548,,,,,,1856.717,297.0,8.0,1856.717100000024,297.0,,,,1860.290100000024,1860.789600000024,1859.7745,1860.290100000024,1857.708,1859.7745,1860.7896999999289,1861.288899999976,1861.289,1862.822399999976,198.0,1862.822399999976,1.0,1862.828600000024,8.0,17.0,257.0,1.0,1.0,1.0,0.3,Time
