Scale_setup.started,Scale_setup.stopped,participant,session,sex,age,date,expName,psychopyVersion,OS,frameRate,Intro.started,Intro.stopped,key_resp_2.keys,key_resp_2.rt,key_resp_2.duration,block.started,direction,Block_id,block.stopped,trial_direction,Block_resp_2.keys,Block_resp_2.rt,Block_resp_2.duration,ITI.started,ITI.stopped,Mask_2.started,Mask_2.stopped,encoding.started,encoding.stopped,Cue.started,Cue.stopped,Response.started,Response.stopped,keyDuration,Feedback_Time.started,FeedbackID_T,Feedback_Time.stopped,trials.thisRepN,trials.thisTrialN,trials.thisN,trials.thisIndex,trials.ran,TimeDur,Coherence1,TrialType
0.000200000047684,0.0004000000953681,S12,1,male,24,anonymized,Serial_Dependence_U,2023.2.3,Win32,60.60606060606061,,,,,,,,,,,,,,,,,,,,,,,,,,,,,,,,,,,
,,S12,1,male,24,anonymized,Serial_Dependence_U,2023.2.3,Win32,60.60606060606061,82.50479999995231,198.0884000000954,space,115.54650000000002,,,,,,,,,,,,,,,,,,,,,,,,,,,,,,,
,,S12,1,male,24,anonymized,Serial_Dependence_U,2023.2.3,Win32,60.60606060606061,,,,,,198.09579999995236,95.0,0.0,200.4712000000477,95.0,s,2.348999999999989,,204.07079999995236,204.5705,203.5545,204.07079999995236,201.4884000000954,203.5544000000954,204.57060000014303,205.0705,205.07079999995236,207.05379999995236,915.0,207.05410000014308,2.0,208.0535,0.0,0.0,0.0,11.0,1.0,1.0,0.3,Time
,,S12,1,male,24,anonymized,Serial_Dependence_U,2023.2.3,Win32,60.60606060606061,,,,,,208.05390000009535,283.0,0.0,208.05540000009535,283.0,,,,211.81979999995235,212.31940000009536,211.312,211.8197000000477,209.0789000000954,211.3119000000954,212.31940000009536,212.82660000014303,212.82660000014303,214.41179999995236,1183.0,214.41179999995236,3.0,215.40240000009535,0.0,1.0,1.0,17.0,1.0,1.2,0.7,Time
,,S12,1,male,24,anonymized,Serial_Dependence_U,2023.2.3,Win32,60.60606060606061,,,,,,215.40279999995235,112.0,0.0,215.403,112.0,,,,219.18560000014307,219.69229999995235,218.6777000000477,219.1855,216.41110000014308,218.6775,219.69240000009535,220.18500000000003,220.18500000000003,222.01060000014309,983.0,222.01060000014309,2.0,223.00129999995235,0.0,2.0,2.0,12.0,1.0,1.2,0.3,Time
,,S12,1,male,24,anonymized,Serial_Dependence_U,2023.2.3,Win32,60.60606060606061,,,,,,223.0017000000477,105.0,0.0,223.002,105.0,,,,226.9677000000477,227.45790000009535,226.4599000000954,226.96760000014308,224.0102000000477,226.45979999995237,227.45800000000003,227.95060000014308,227.95060000014308,230.85960000014308,2533.0,230.85960000014308,5.0,231.85,0.0,3.0,3.0,18.0,1.0,1.4,0.7,Time
,,S12,1,male,24,anonymized,Serial_Dependence_U,2023.2.3,Win32,60.60606060606061,,,,,,231.85029999995237,117.0,0.0,231.85060000014303,117.0,,,,236.0164000000954,236.5067000000477,235.50860000014308,236.01629999995237,232.87560000014307,235.50850000000003,236.5067000000477,236.99929999995237,236.9994000000954,239.449,2054.0,239.44910000014303,4.0,240.4489000000954,0.0,4.0,4.0,19.0,1.0,1.6,0.7,Time
,,S12,1,male,24,anonymized,Serial_Dependence_U,2023.2.3,Win32,60.60606060606061,,,,,,240.44929999995236,313.0,0.0,240.44950000000003,313.0,,,,244.61529999995236,245.1149000000954,244.0987000000477,244.6152000000477,241.46560000014307,244.09860000014308,245.115,245.6147000000477,245.61479999995237,248.8477999999523,2794.0,248.8477999999523,5.0,249.85279999995228,0.0,5.0,5.0,29.0,1.0,1.6,0.7,Time
,,S12,1,male,24,anonymized,Serial_Dependence_U,2023.2.3,Win32,60.60606060606061,,,,,,249.85310000014303,351.0,0.0,249.85329999995236,351.0,,,,254.03940000009536,254.5302000000477,253.51929999995232,254.0392999999523,250.85640000009536,253.51910000014303,254.5302999999523,255.0207000000477,255.0207999999523,257.32240000009534,1800.0,257.32240000009534,4.0,258.313,0.0,6.0,6.0,14.0,1.0,1.6,0.3,Time
,,S12,1,male,24,anonymized,Serial_Dependence_U,2023.2.3,Win32,60.60606060606061,,,,,,258.3134000000953,311.0,0.0,258.313600000143,311.0,,,,262.1049000000953,262.60290000009536,261.58820000004766,262.1049000000953,259.3219000000953,261.58820000004766,262.60299999999995,263.095600000143,263.09570000004766,266.28779999995226,2699.0,266.2879000000953,5.0,267.27840000009536,0.0,7.0,7.0,22.0,1.0,1.2,0.3,Time
,,S12,1,male,24,anonymized,Serial_Dependence_U,2023.2.3,Win32,60.60606060606061,,,,,,267.2787999999523,52.0,0.0,267.27890000009535,52.0,,,,270.861600000143,271.36120000004763,270.35370000004764,270.861600000143,268.2872000000477,270.353600000143,271.36120000004763,271.86110000014304,271.86110000014304,273.80340000009534,1500.0,273.80340000009534,5.0,274.794,0.0,8.0,8.0,1.0,1.0,1.0,0.3,Time
,,S12,1,male,24,anonymized,Serial_Dependence_U,2023.2.3,Win32,60.60606060606061,,,,,,274.7944000000953,258.0,0.0,274.7945,258.0,,,,278.1525,278.6434000000953,277.6272999999523,278.1524000000953,275.7949000000953,277.62720000004765,278.6435,279.1435,279.143600000143,281.63560000014303,1950.0,281.63560000014303,5.0,282.6262000000477,0.0,9.0,9.0,5.0,1.0,0.8,0.7,Time
,,S12,1,male,24,anonymized,Serial_Dependence_U,2023.2.3,Win32,60.60606060606061,,,,,,282.626600000143,214.0,0.0,282.62670000004766,214.0,,,,286.3847999999523,286.87560000014304,285.868100000143,286.38470000004764,283.6352999999523,285.868100000143,286.87570000004763,287.3827999999523,287.38290000009533,288.90120000004765,1166.0,288.90120000004765,3.0,289.89190000009535,0.0,10.0,10.0,27.0,1.0,1.2,0.7,Time
,,S12,1,male,24,anonymized,Serial_Dependence_U,2023.2.3,Win32,60.60606060606061,,,,,,289.8922999999523,154.0,0.0,289.89240000009534,154.0,,,,293.841600000143,294.3317999999523,293.3339000000953,293.841600000143,290.90070000004766,293.3337999999523,294.3317999999523,294.824600000143,294.824600000143,296.68360000014303,1366.0,296.68360000014303,3.0,297.674100000143,0.0,11.0,11.0,8.0,1.0,1.4,0.7,Time
,,S12,1,male,24,anonymized,Serial_Dependence_U,2023.2.3,Win32,60.60606060606061,,,,,,297.674600000143,296.0,0.0,297.67470000004766,296.0,,,,301.6327999999523,302.1235,301.116,301.63260000014304,298.6745,301.116,302.1235,302.6235,302.623600000143,304.38270000004763,1400.0,304.3827999999523,3.0,305.373,0.0,12.0,12.0,28.0,1.0,1.4,0.7,Time
,,S12,1,male,24,anonymized,Serial_Dependence_U,2023.2.3,Win32,60.60606060606061,,,,,,305.3735,58.0,0.0,305.373600000143,58.0,,,,309.1727999999523,309.6725,308.665,309.17270000004766,306.3985,308.6649000000953,309.6725,310.17229999995226,310.1724000000953,312.1812000000476,1693.0,312.1812999999523,5.0,313.17729999995225,0.0,13.0,13.0,2.0,1.0,1.2,0.3,Time
,,S12,1,male,24,anonymized,Serial_Dependence_U,2023.2.3,Win32,60.60606060606061,,,,,,313.17770000004765,299.0,0.0,313.1779000000953,299.0,,,,317.197100000143,317.688,316.68049999999994,317.197100000143,314.19760000014304,316.68040000009535,317.688,318.18790000009534,318.188,319.78029999995226,1233.0,319.78029999995226,2.0,320.77079999995226,0.0,14.0,14.0,13.0,1.0,1.4,0.3,Time
,,S12,1,male,24,anonymized,Serial_Dependence_U,2023.2.3,Win32,60.60606060606061,,,,,,320.77120000004766,96.0,0.0,320.7712999999523,96.0,,,,324.77079999995226,325.2704000000953,324.26270000004763,324.77070000004767,321.7965,324.26260000014304,325.2705,325.7702000000476,325.7702999999523,327.3792999999523,1193.0,327.3792999999523,2.0,328.3697999999523,0.0,15.0,15.0,3.0,1.0,1.4,0.3,Time
,,S12,1,male,24,anonymized,Serial_Dependence_U,2023.2.3,Win32,60.60606060606061,,,,,,328.36999999999995,248.0,0.0,328.37020000004765,248.0,,,,331.761600000143,332.252600000143,331.24520000004765,331.7615,329.3787000000477,331.245100000143,332.252600000143,332.7412999999523,332.7414000000953,333.96170000004764,833.0,333.96170000004764,3.0,334.95220000004764,0.0,16.0,16.0,0.0,1.0,0.8,0.3,Time
,,S12,1,male,24,anonymized,Serial_Dependence_U,2023.2.3,Win32,60.60606060606061,,,,,,334.95260000014304,130.0,0.0,334.9527000000476,130.0,,,,338.5607999999523,339.0517000000477,338.0407999999523,338.56070000004763,335.97770000004766,338.040600000143,339.0517000000477,339.542100000143,339.542100000143,340.994100000143,1053.0,340.99420000004767,4.0,341.984600000143,0.0,17.0,17.0,21.0,1.0,1.0,0.3,Time
,,S12,1,male,24,anonymized,Serial_Dependence_U,2023.2.3,Win32,60.60606060606061,,,,,,341.985100000143,202.0,0.0,341.9852999999523,202.0,,,,345.351100000143,345.85070000004765,344.84340000009536,345.351100000143,343.0014000000953,344.84340000009536,345.85070000004765,346.3392999999523,346.340100000143,347.77670000004764,1067.0,347.7767999999523,5.0,348.76699999999994,0.0,18.0,18.0,15.0,1.0,0.8,0.7,Time
,,S12,1,male,24,anonymized,Serial_Dependence_U,2023.2.3,Win32,60.60606060606061,,,,,,348.7672999999523,21.0,0.0,348.7675,21.0,,,,352.97549999999995,353.4662999999523,352.4587999999523,352.9754000000953,349.7927999999523,352.4587999999523,353.46640000009535,353.9567999999523,353.95690000009535,355.6495,1402.0,355.6495,2.0,356.649100000143,0.0,19.0,19.0,24.0,1.0,1.6,0.3,Time
,,S12,1,male,24,anonymized,Serial_Dependence_U,2023.2.3,Win32,60.60606060606061,,,,,,356.6495,301.0,0.0,356.6497999999523,301.0,,,,360.049100000143,360.54860000014304,359.5325,360.049,357.666100000143,359.5325,360.5487000000476,361.0485,361.04860000014304,362.382,1048.0,362.3822000000477,5.0,363.3815,0.0,20.0,20.0,10.0,1.0,0.8,0.3,Time
,,S12,1,male,24,anonymized,Serial_Dependence_U,2023.2.3,Win32,60.60606060606061,,,,,,363.38190000009536,108.0,0.0,363.382,108.0,,,,367.39,367.8882000000477,366.8735,367.38990000009534,364.3984000000953,366.8735,367.88829999995227,368.3809000000953,368.3809000000953,370.3234000000953,1633.0,370.3234000000953,4.0,371.3139000000953,0.0,21.0,21.0,23.0,1.0,1.4,0.3,Time
,,S12,1,male,24,anonymized,Serial_Dependence_U,2023.2.3,Win32,60.60606060606061,,,,,,371.3144000000953,299.0,0.0,371.3147000000477,299.0,,,,374.88040000009534,375.37990000009535,374.3725,374.88040000009534,372.3392000000477,374.3725,375.37990000009535,375.88,375.88,377.7557000000476,1433.0,377.7557000000476,5.0,378.7462000000476,0.0,22.0,22.0,26.0,1.0,1.0,0.7,Time
,,S12,1,male,24,anonymized,Serial_Dependence_U,2023.2.3,Win32,60.60606060606061,,,,,,378.746600000143,60.0,0.0,378.74670000004767,60.0,,,,382.304600000143,382.795600000143,381.788100000143,382.3045,379.75490000009535,381.788,382.795600000143,383.286,383.286,385.77120000004766,1450.0,385.77120000004766,5.0,386.761600000143,0.0,23.0,23.0,16.0,1.0,1.0,0.7,Time
,,S12,1,male,24,anonymized,Serial_Dependence_U,2023.2.3,Win32,60.60606060606061,,,,,,386.762,168.0,0.0,386.762100000143,168.0,,,,390.1542999999523,390.7182999999523,389.653600000143,390.1542999999523,387.7872000000477,389.653600000143,390.7182999999523,391.1612999999523,391.16140000009534,393.186600000143,1433.0,393.18670000004767,5.0,394.1774000000953,0.0,24.0,24.0,20.0,1.0,0.8,0.3,Time
,,S12,1,male,24,anonymized,Serial_Dependence_U,2023.2.3,Win32,60.60606060606061,,,,,,394.178100000143,312.0,0.0,394.1782999999523,312.0,,,,398.352600000143,398.84340000009536,397.835600000143,398.3525,395.2034000000953,397.835600000143,398.84340000009536,399.34320000004766,399.34320000004766,401.1689000000953,1316.0,401.169,2.0,402.1595,0.0,25.0,25.0,9.0,1.0,1.6,0.7,Time
,,S12,1,male,24,anonymized,Serial_Dependence_U,2023.2.3,Win32,60.60606060606061,,,,,,402.1599000000953,251.0,0.0,402.160100000143,251.0,,,,405.92590000009534,406.425600000143,405.418,405.92590000009534,403.1852000000477,405.41790000009536,406.425600000143,406.9255,406.9255,408.5347000000476,1217.0,408.5347000000476,3.0,409.525100000143,0.0,26.0,26.0,7.0,1.0,1.2,0.7,Time
,,S12,1,male,24,anonymized,Serial_Dependence_U,2023.2.3,Win32,60.60606060606061,,,,,,409.5255,236.0,0.0,409.525600000143,236.0,,,,413.717,414.2077999999523,413.2005,413.71690000009534,410.534,413.2005,414.2079000000953,414.7077999999523,414.7077999999523,416.20010000014304,1117.0,416.2002000000476,1.0,417.1907999999523,0.0,27.0,27.0,4.0,1.0,1.6,0.3,Time
,,S12,1,male,24,anonymized,Serial_Dependence_U,2023.2.3,Win32,60.60606060606061,,,,,,417.19129999995226,167.0,0.0,417.1914000000953,167.0,,,,420.7572999999523,421.2567999999523,420.2494000000953,420.7572000000477,418.2162000000477,420.24929999995226,421.2567999999523,421.764100000143,421.7642000000477,423.3992999999523,1250.0,423.3992999999523,4.0,424.3897000000477,0.0,28.0,28.0,6.0,1.0,1.0,0.7,Time
,,S12,1,male,24,anonymized,Serial_Dependence_U,2023.2.3,Win32,60.60606060606061,,,,,,424.39,8.0,0.0,424.3902000000476,8.0,,,,427.7484000000953,428.2392000000477,427.2317999999523,427.7482000000476,425.39870000004765,427.2317000000476,428.2392000000477,428.733100000143,428.7332000000477,430.74810000014304,1620.0,430.7482000000476,5.0,431.73860000014304,0.0,29.0,29.0,25.0,1.0,0.8,0.7,Time
,,S12,1,male,24,anonymized,Serial_Dependence_U,2023.2.3,Win32,60.60606060606061,,,,,,431.739,208.0,1.0,438.62110000014303,208.0,s,6.851899999856926,,441.97970000004767,442.4705,441.46320000004766,441.979600000143,439.6289000000953,441.46320000004766,442.470600000143,442.9705,442.9705,444.346100000143,1317.0,444.3462000000477,5.0,444.34660000014304,1.0,0.0,30.0,25.0,1.0,0.8,0.7,Time
,,S12,1,male,24,anonymized,Serial_Dependence_U,2023.2.3,Win32,60.60606060606061,,,,,,444.347,286.0,1.0,444.348100000143,286.0,,,,448.30340000009534,448.80290000009535,447.79540000009536,448.3032999999523,445.3625,447.7952999999523,448.803,449.30290000009535,449.30290000009535,450.92860000014304,1250.0,450.9287000000476,2.0,450.9289000000953,1.0,1.0,31.0,18.0,1.0,1.4,0.7,Time
,,S12,1,male,24,anonymized,Serial_Dependence_U,2023.2.3,Win32,60.60606060606061,,,,,,450.929100000143,293.0,1.0,450.92929999995226,293.0,,,,455.1025,455.602,454.5945,455.1024000000953,451.9282000000477,454.5944000000953,455.602,456.1019000000953,456.102,457.461,1100.0,457.461100000143,1.0,457.4612999999523,1.0,2.0,32.0,14.0,1.0,1.6,0.3,Time
,,S12,1,male,24,anonymized,Serial_Dependence_U,2023.2.3,Win32,60.60606060606061,,,,,,457.461600000143,58.0,1.0,457.461600000143,58.0,,,,461.4514000000953,461.951100000143,460.943600000143,461.4514000000953,458.468600000143,460.943600000143,461.95120000004766,462.451100000143,462.451100000143,464.343600000143,1450.0,464.3437000000477,3.0,464.344,1.0,3.0,33.0,3.0,1.0,1.4,0.3,Time
,,S12,1,male,24,anonymized,Serial_Dependence_U,2023.2.3,Win32,60.60606060606061,,,,,,464.3444000000953,97.0,1.0,464.3445,97.0,,,,467.726,468.2167999999523,467.2095,467.72590000009535,465.343100000143,467.20940000009534,468.21690000009534,468.71690000009534,468.71690000009534,470.79270000004766,1616.0,470.79270000004766,5.0,470.793100000143,1.0,4.0,34.0,20.0,1.0,0.8,0.3,Time
,,S12,1,male,24,anonymized,Serial_Dependence_U,2023.2.3,Win32,60.60606060606061,,,,,,470.79340000009535,216.0,1.0,470.793600000143,216.0,,,,474.575,475.066,474.05860000014303,474.575,471.79220000004767,474.0585,475.066,475.5659000000953,475.5659000000953,477.825,1817.0,477.82510000014304,5.0,477.8252999999523,1.0,5.0,35.0,12.0,1.0,1.2,0.3,Time
,,S12,1,male,24,anonymized,Serial_Dependence_U,2023.2.3,Win32,60.60606060606061,,,,,,477.825600000143,220.0,1.0,477.8259000000953,220.0,,,,481.2242999999523,481.715100000143,480.7079000000953,481.2242000000476,478.841100000143,480.7077999999523,481.715100000143,482.215,482.215,483.7905,1083.0,483.790600000143,5.0,483.7907999999523,1.0,6.0,36.0,0.0,1.0,0.8,0.3,Time
,,S12,1,male,24,anonymized,Serial_Dependence_U,2023.2.3,Win32,60.60606060606061,,,,,,483.791100000143,163.0,1.0,483.7912999999523,163.0,,,,487.331100000143,487.83079999995226,486.8232999999522,487.331100000143,484.79029999995225,486.8232999999522,487.83079999995226,488.33070000004767,488.33079999995226,491.1895,2066.0,491.189600000143,5.0,491.1897999999523,1.0,7.0,37.0,26.0,1.0,1.0,0.7,Time
,,S12,1,male,24,anonymized,Serial_Dependence_U,2023.2.3,Win32,60.60606060606061,,,,,,491.190100000143,352.0,1.0,491.190100000143,352.0,,,,494.7634000000953,495.263100000143,494.25560000014303,494.7634000000953,492.18920000004766,494.2555,495.263100000143,495.763100000143,495.763100000143,499.15570000004766,2008.0,499.1557999999523,5.0,499.156,1.0,8.0,38.0,21.0,1.0,1.0,0.3,Time
,,S12,1,male,24,anonymized,Serial_Dependence_U,2023.2.3,Win32,60.60606060606061,,,,,,499.1562999999523,337.0,1.0,499.1565,337.0,,,,502.72910000014303,503.2286000001431,502.2212000000477,502.7289999999999,500.1547000000476,502.221100000143,503.2287000000477,503.7359000000953,503.7359000000953,507.0377000000476,1495.0,507.0377999999523,5.0,507.038100000143,1.0,9.0,39.0,1.0,1.0,1.0,0.3,Time
,,S12,1,male,24,anonymized,Serial_Dependence_U,2023.2.3,Win32,60.60606060606061,,,,,,507.0382999999523,214.0,1.0,507.0385,214.0,,,,511.2365,511.7275,510.7199000000953,511.2364000000954,508.053600000143,510.7199000000953,511.7275,512.2274000000954,512.2274000000954,514.3362999999523,1500.0,514.3362999999523,2.0,514.336600000143,1.0,10.0,40.0,24.0,1.0,1.6,0.3,Time
,,S12,1,male,24,anonymized,Serial_Dependence_U,2023.2.3,Win32,60.60606060606061,,,,,,514.3369000000953,23.0,1.0,514.3369000000953,23.0,,,,518.4934000000953,518.993100000143,517.9857000000477,518.4934000000953,515.3527999999523,517.985600000143,518.993100000143,519.4929999999999,519.493100000143,521.652100000143,1793.0,521.652100000143,4.0,521.6524000000953,1.0,11.0,41.0,9.0,1.0,1.6,0.7,Time
,,S12,1,male,24,anonymized,Serial_Dependence_U,2023.2.3,Win32,60.60606060606061,,,,,,521.6527000000476,289.0,1.0,521.6527999999523,289.0,,,,525.226100000143,525.716,524.7181000001431,525.2259000000953,522.6517000000476,524.718,525.716100000143,526.2087999999522,526.2087999999522,527.7512000000477,1166.0,527.7512000000477,4.0,527.7516000001431,1.0,12.0,42.0,11.0,1.0,1.0,0.3,Time
,,S12,1,male,24,anonymized,Serial_Dependence_U,2023.2.3,Win32,60.60606060606061,,,,,,527.7517999999523,35.0,1.0,527.7519000000954,35.0,,,,531.300600000143,531.7989000000954,530.7837999999523,531.3004999999999,528.7507999999523,530.7837999999523,531.7989000000954,532.2912000000476,532.2912000000476,534.280100000143,1900.0,534.2802000000477,5.0,534.2802999999523,1.0,13.0,43.0,6.0,1.0,1.0,0.7,Time
,,S12,1,male,24,anonymized,Serial_Dependence_U,2023.2.3,Win32,60.60606060606061,,,,,,534.2805,266.0,1.0,534.2807000000477,266.0,,,,538.0327000000476,538.531,537.5162000000477,538.0327000000476,535.283,537.5162000000477,538.531,539.0237000000476,539.0237000000476,541.0327000000476,1467.0,541.0327000000476,4.0,541.0329000000953,1.0,14.0,44.0,17.0,1.0,1.2,0.7,Time
,,S12,1,male,24,anonymized,Serial_Dependence_U,2023.2.3,Win32,60.60606060606061,,,,,,541.033100000143,67.0,1.0,541.0332999999523,67.0,,,,545.1732000000477,545.6727000000476,544.6652999999523,545.173100000143,542.0322999999523,544.6652000000477,545.6727000000476,546.1727000000476,546.1727000000476,549.331600000143,2783.0,549.331600000143,5.0,549.3317999999523,1.0,15.0,45.0,19.0,1.0,1.6,0.7,Time
,,S12,1,male,24,anonymized,Serial_Dependence_U,2023.2.3,Win32,60.60606060606061,,,,,,549.332100000143,216.0,1.0,549.3322000000477,216.0,,,,552.714100000143,553.2049999999999,552.1975,552.7139999999999,550.331100000143,552.1975,553.2049999999999,553.6954999999999,553.6954999999999,555.3974999999999,1383.0,555.3974999999999,5.0,555.3977000000476,1.0,16.0,46.0,10.0,1.0,0.8,0.3,Time
,,S12,1,male,24,anonymized,Serial_Dependence_U,2023.2.3,Win32,60.60606060606061,,,,,,555.398100000143,14.0,1.0,555.3982999999523,14.0,,,,558.943100000143,559.4375,558.4299000000954,558.943100000143,556.3935,558.4299000000954,559.4375,559.944600000143,559.9447000000476,562.4797000000476,2216.0,562.4797000000476,5.0,562.4799000000953,1.0,17.0,47.0,16.0,1.0,1.0,0.7,Time
,,S12,1,male,24,anonymized,Serial_Dependence_U,2023.2.3,Win32,60.60606060606061,,,,,,562.4802000000476,70.0,1.0,562.4802999999523,70.0,,,,566.2804000000954,566.7697000000477,565.7624000000953,566.2802000000477,563.4959000000953,565.7624000000953,566.7697000000477,567.2697999999523,567.2697999999523,569.7455,2150.0,569.745600000143,5.0,569.7457999999523,1.0,18.0,48.0,22.0,1.0,1.2,0.3,Time
,,S12,1,male,24,anonymized,Serial_Dependence_U,2023.2.3,Win32,60.60606060606061,,,,,,569.7462000000477,79.0,1.0,569.7462999999523,79.0,,,,573.0944999999999,573.5927999999523,572.578,573.0944000000953,570.7447999999523,572.5777999999523,573.5927999999523,574.0854999999999,574.0854999999999,576.0577000000477,1623.0,576.0577000000477,5.0,576.0579000000953,1.0,19.0,49.0,5.0,1.0,0.8,0.7,Time
,,S12,1,male,24,anonymized,Serial_Dependence_U,2023.2.3,Win32,60.60606060606061,,,,,,576.0582000000477,261.0,1.0,576.0582999999523,261.0,,,,580.0269999999999,580.5177999999523,579.5102999999523,580.0269999999999,577.0774000000953,579.5102000000477,580.5179000000953,581.0082999999523,581.0082999999523,584.6267000000477,2227.0,584.6267999999523,5.0,584.6271000001431,1.0,20.0,50.0,8.0,1.0,1.4,0.7,Time
,,S12,1,male,24,anonymized,Serial_Dependence_U,2023.2.3,Win32,60.60606060606061,,,,,,584.6272999999522,320.0,1.0,584.6274000000953,320.0,,,,588.5759000000953,589.066600000143,588.059100000143,588.5757999999523,585.626100000143,588.059,589.066600000143,589.5665,589.5665,592.1424999999999,2233.0,592.1424999999999,5.0,592.1427999999523,1.0,21.0,51.0,28.0,1.0,1.4,0.7,Time
,,S12,1,male,24,anonymized,Serial_Dependence_U,2023.2.3,Win32,60.60606060606061,,,,,,592.1432000000476,285.0,1.0,592.1432999999523,285.0,,,,595.9492000000477,596.4489000000954,595.4419000000953,595.9492000000477,593.1584000000953,595.4417000000476,596.4489000000954,596.9377000000477,596.9377000000477,599.7745,2333.0,599.774600000143,5.0,599.7749000000954,1.0,22.0,52.0,2.0,1.0,1.2,0.3,Time
,,S12,1,male,24,anonymized,Serial_Dependence_U,2023.2.3,Win32,60.60606060606061,,,,,,599.7752000000477,77.0,1.0,599.7754000000954,77.0,,,,603.5402999999523,604.0312000000476,603.0237999999523,603.5402000000477,600.7907000000477,603.0237999999523,604.0312000000476,604.5382999999523,604.5382999999523,606.3069000000953,1433.0,606.307,4.0,606.3072999999523,1.0,23.0,53.0,27.0,1.0,1.2,0.7,Time
,,S12,1,male,24,anonymized,Serial_Dependence_U,2023.2.3,Win32,60.60606060606061,,,,,,606.307600000143,295.0,1.0,606.3077000000477,295.0,,,,610.506,611.0042000000476,609.9894000000953,610.5059000000954,607.3232000000477,609.9892999999523,611.0042999999523,611.504100000143,611.504100000143,613.8722999999522,2350.0,613.8724000000954,5.0,613.8727000000476,1.0,24.0,54.0,4.0,1.0,1.6,0.3,Time
,,S12,1,male,24,anonymized,Serial_Dependence_U,2023.2.3,Win32,60.60606060606061,,,,,,613.8729999999999,77.0,1.0,613.873100000143,77.0,,,,617.6219000000954,618.1125,617.105100000143,617.6217000000477,614.872,617.1049000000953,618.1126000001431,618.6125,618.6125,621.0385,2066.0,621.038600000143,5.0,621.0387999999523,1.0,25.0,55.0,7.0,1.0,1.2,0.7,Time
,,S12,1,male,24,anonymized,Serial_Dependence_U,2023.2.3,Win32,60.60606060606061,,,,,,621.039100000143,120.0,1.0,621.0392000000477,120.0,,,,625.2041000001431,625.6947999999522,624.6787000000477,625.204,622.037600000143,624.678600000143,625.6949000000953,626.1947999999522,626.1949000000953,628.7542000000476,2084.0,628.7542999999523,5.0,628.754600000143,1.0,26.0,56.0,29.0,1.0,1.6,0.7,Time
,,S12,1,male,24,anonymized,Serial_Dependence_U,2023.2.3,Win32,60.60606060606061,,,,,,628.7549000000953,208.0,1.0,628.755100000143,208.0,,,,632.7197000000476,633.2142999999522,632.2162999999523,632.7194999999999,629.7532999999523,632.2162999999523,633.2142999999522,633.7104000000953,633.7104000000953,636.9024999999999,2709.0,636.902600000143,5.0,636.9027999999523,1.0,27.0,57.0,13.0,1.0,1.4,0.3,Time
,,S12,1,male,24,anonymized,Serial_Dependence_U,2023.2.3,Win32,60.60606060606061,,,,,,636.903100000143,328.0,1.0,636.903100000143,328.0,,,,640.8762999999523,641.376,640.3684000000953,640.8762999999523,637.9022000000476,640.3682999999522,641.376,641.8832000000476,641.8832000000476,644.6349000000953,2409.0,644.6349000000953,5.0,644.6352000000477,1.0,28.0,58.0,23.0,1.0,1.4,0.3,Time
,,S12,1,male,24,anonymized,Serial_Dependence_U,2023.2.3,Win32,60.60606060606061,,,,,,644.6355,244.0,1.0,644.635600000143,244.0,,,,647.9921000001431,648.4917000000477,647.4842000000476,647.9919000000954,645.6344000000953,647.484100000143,648.4917999999523,648.991600000143,648.991600000143,651.6672999999523,2216.0,651.6675,5.0,651.6677000000476,1.0,29.0,59.0,15.0,1.0,0.8,0.7,Time
,,S12,1,male,24,anonymized,Serial_Dependence_U,2023.2.3,Win32,60.60606060606061,,,,,,651.6679000000953,88.0,2.0,658.8402000000476,88.0,s,7.148000000000025,,663.032100000143,663.53,662.5067000000477,663.0319999999999,659.8455,662.5067000000477,663.530100000143,664.0302999999523,664.0302999999523,666.3822000000476,2017.0,666.3822999999522,4.0,666.3824999999999,2.0,0.0,60.0,14.0,1.0,1.6,0.3,Time
,,S12,1,male,24,anonymized,Serial_Dependence_U,2023.2.3,Win32,60.60606060606061,,,,,,666.3827999999522,172.0,2.0,666.3839000000953,172.0,,,,670.5389000000953,671.0385,670.031100000143,670.5387999999523,667.398100000143,670.031100000143,671.038600000143,671.5385,671.5385,675.014,3016.0,675.014100000143,5.0,675.0142999999523,2.0,1.0,61.0,9.0,1.0,1.6,0.7,Time
,,S12,1,male,24,anonymized,Serial_Dependence_U,2023.2.3,Win32,60.60606060606061,,,,,,675.0147000000477,256.0,2.0,675.0147999999523,256.0,,,,679.0044000000953,679.5037999999523,678.4965,679.0042999999523,676.0302000000477,678.4965,679.5039000000953,680.0037999999523,680.0039000000953,682.829600000143,2393.0,682.829600000143,5.0,682.8299000000953,2.0,2.0,62.0,23.0,1.0,1.4,0.3,Time
,,S12,1,male,24,anonymized,Serial_Dependence_U,2023.2.3,Win32,60.60606060606061,,,,,,682.8302000000476,356.0,2.0,682.8302999999523,356.0,,,,687.0252000000477,687.5267999999522,686.512,687.025,683.8457999999523,686.5119000000954,687.5269000000953,688.0194000000953,688.0194000000953,691.5784000000954,2400.0,691.5784000000954,5.0,691.5787000000477,2.0,3.0,63.0,4.0,1.0,1.6,0.3,Time
,,S12,1,male,24,anonymized,Serial_Dependence_U,2023.2.3,Win32,60.60606060606061,,,,,,691.5789000000954,312.0,2.0,691.579,312.0,,,,695.1607999999522,695.6572000000476,694.6442999999523,695.1607999999522,692.5779000000954,694.6442000000477,695.6572000000476,696.151600000143,696.1517000000476,699.4772999999523,2816.0,699.4774000000954,5.0,699.4776000001431,2.0,4.0,64.0,21.0,1.0,1.0,0.3,Time
,,S12,1,male,24,anonymized,Serial_Dependence_U,2023.2.3,Win32,60.60606060606061,,,,,,699.4779000000954,264.0,2.0,699.478,264.0,,,,703.067600000143,703.574600000143,702.5599000000954,703.067600000143,700.4932999999522,702.5597999999522,703.574600000143,704.067100000143,704.067100000143,705.926100000143,1566.0,705.9262000000476,5.0,705.9264000000953,2.0,5.0,65.0,1.0,1.0,1.0,0.3,Time
,,S12,1,male,24,anonymized,Serial_Dependence_U,2023.2.3,Win32,60.60606060606061,,,,,,705.926600000143,145.0,2.0,705.9267999999523,145.0,,,,710.1087000000476,710.599600000143,709.592600000143,710.108600000143,706.9257999999522,709.5925,710.599600000143,711.099600000143,711.099600000143,713.2754000000954,1750.0,713.2754000000954,4.0,713.2757999999523,2.0,6.0,66.0,24.0,1.0,1.6,0.3,Time
,,S12,1,male,24,anonymized,Serial_Dependence_U,2023.2.3,Win32,60.60606060606061,,,,,,713.276,264.0,2.0,713.2761000001431,264.0,,,,717.4409999999999,717.9319000000953,716.9244000000954,717.4409000000953,714.2914999999999,716.9242999999523,717.9319000000953,718.435600000143,718.435600000143,722.140600000143,3332.0,722.140600000143,5.0,722.1407999999523,2.0,7.0,67.0,29.0,1.0,1.6,0.7,Time
,,S12,1,male,24,anonymized,Serial_Dependence_U,2023.2.3,Win32,60.60606060606061,,,,,,722.1411000001431,162.0,2.0,722.1412000000477,162.0,,,,725.5409000000953,726.0307999999523,725.0232999999523,725.5402999999523,723.1567999999522,725.0232000000476,726.0307999999523,726.5307000000477,726.5307000000477,729.423,2433.0,729.423100000143,5.0,729.4232000000477,2.0,8.0,68.0,0.0,1.0,0.8,0.3,Time
,,S12,1,male,24,anonymized,Serial_Dependence_U,2023.2.3,Win32,60.60606060606061,,,,,,729.423600000143,33.0,2.0,729.423600000143,33.0,,,,732.9632999999523,733.4632000000477,732.4554999999999,732.9632999999523,730.422600000143,732.4554999999999,733.4632999999523,733.963,733.963,734.622600000143,217.0,734.6227000000476,1.0,734.6229000000953,2.0,9.0,69.0,16.0,1.0,1.0,0.7,Time
,,S12,1,male,24,anonymized,Serial_Dependence_U,2023.2.3,Win32,60.60606060606061,,,,,,734.6232000000476,25.0,2.0,734.6234000000953,25.0,,,,738.4047999999523,738.8957000000477,737.8882000000476,738.4047000000477,735.621600000143,737.888100000143,738.8957000000477,739.3957000000477,739.3957999999523,742.3712999999523,2426.0,742.3712999999523,5.0,742.371600000143,2.0,10.0,70.0,22.0,1.0,1.2,0.3,Time
,,S12,1,male,24,anonymized,Serial_Dependence_U,2023.2.3,Win32,60.60606060606061,,,,,,742.3719000000954,7.0,2.0,742.372,7.0,,,,746.1782999999523,746.6684000000953,745.6705,746.178100000143,743.387600000143,745.6704000000954,746.6684000000953,747.161100000143,747.161100000143,749.6277999999522,2091.0,749.6279000000953,5.0,749.6282000000476,2.0,11.0,71.0,2.0,1.0,1.2,0.3,Time
,,S12,1,male,24,anonymized,Serial_Dependence_U,2023.2.3,Win32,60.60606060606061,,,,,,749.6284000000953,106.0,2.0,749.628600000143,106.0,,,,753.1942000000477,753.6935,752.6772999999523,753.1942000000477,750.6442000000477,752.6772999999523,753.6935,754.1935,754.193600000143,756.976600000143,2394.0,756.9767000000477,5.0,756.9769000000954,2.0,12.0,72.0,6.0,1.0,1.0,0.7,Time
,,S12,1,male,24,anonymized,Serial_Dependence_U,2023.2.3,Win32,60.60606060606061,,,,,,756.9772000000477,297.0,2.0,756.9772999999523,297.0,,,,760.943,761.4424000000953,760.4262000000476,760.9427999999523,757.9932000000476,760.4262000000476,761.4425,761.9422999999523,761.9424000000953,764.675600000143,2367.0,764.6757000000476,5.0,764.6759000000953,2.0,13.0,73.0,28.0,1.0,1.4,0.7,Time
,,S12,1,male,24,anonymized,Serial_Dependence_U,2023.2.3,Win32,60.60606060606061,,,,,,764.6762000000476,25.0,2.0,764.6762999999523,25.0,,,,768.2252000000476,768.7247999999523,767.7087999999522,768.2252000000476,765.675600000143,767.7087000000477,768.7247999999523,769.224600000143,769.2247000000476,771.4579000000954,1948.0,771.4579000000954,5.0,771.4582000000477,2.0,14.0,74.0,26.0,1.0,1.0,0.7,Time
,,S12,1,male,24,anonymized,Serial_Dependence_U,2023.2.3,Win32,60.60606060606061,,,,,,771.4585,211.0,2.0,771.4587000000477,211.0,,,,775.257600000143,775.757100000143,774.7409000000953,775.2574999999999,772.4744999999999,774.7407999999523,775.7572000000476,776.257100000143,776.257100000143,777.757100000143,1000.0,777.757100000143,2.0,777.7574999999999,2.0,15.0,75.0,12.0,1.0,1.2,0.3,Time
,,S12,1,male,24,anonymized,Serial_Dependence_U,2023.2.3,Win32,60.60606060606061,,,,,,777.7577999999522,3.0,2.0,777.7579000000953,3.0,,,,781.3567000000477,781.8562999999523,780.8402999999523,781.3567000000477,778.773600000143,780.8402000000476,781.8562999999523,782.3562000000477,782.3562999999523,784.6729000000953,1966.0,784.673,5.0,784.673100000143,2.0,16.0,76.0,11.0,1.0,1.0,0.3,Time
,,S12,1,male,24,anonymized,Serial_Dependence_U,2023.2.3,Win32,60.60606060606061,,,,,,784.6734000000953,162.0,2.0,784.673600000143,162.0,,,,788.8389999999999,789.3386000001431,788.3224000000953,788.8389000000954,785.6894000000954,788.3224000000953,789.3386000001431,789.8384000000954,789.8385,791.855100000143,1666.0,791.8552000000476,3.0,791.8554000000953,2.0,17.0,77.0,19.0,1.0,1.6,0.7,Time
,,S12,1,male,24,anonymized,Serial_Dependence_U,2023.2.3,Win32,60.60606060606061,,,,,,791.8557000000477,317.0,2.0,791.8557999999523,317.0,,,,795.8544999999999,796.3542999999523,795.3382000000477,795.8544999999999,792.871600000143,795.3381000001431,796.3542999999523,796.8542000000476,796.8542000000476,799.1374000000953,1950.0,799.1374000000953,5.0,799.1377000000476,2.0,18.0,78.0,3.0,1.0,1.4,0.3,Time
,,S12,1,male,24,anonymized,Serial_Dependence_U,2023.2.3,Win32,60.60606060606061,,,,,,799.1379000000953,182.0,2.0,799.1379999999999,182.0,,,,802.503600000143,803.0032999999523,801.987100000143,802.503600000143,800.154100000143,801.987100000143,803.0034000000953,803.5032000000476,803.5032999999523,805.4532999999523,1605.0,805.4534000000954,5.0,805.4537000000477,2.0,19.0,79.0,25.0,1.0,0.8,0.7,Time
,,S12,1,male,24,anonymized,Serial_Dependence_U,2023.2.3,Win32,60.60606060606061,,,,,,805.454,11.0,2.0,805.4541000001431,11.0,,,,809.4527000000477,809.9524000000953,808.936100000143,809.452600000143,806.4697999999523,808.936100000143,809.9524000000953,810.4522000000477,810.4522999999523,813.3687000000476,2453.0,813.3687000000476,5.0,813.3689999999999,2.0,20.0,80.0,13.0,1.0,1.4,0.3,Time
,,S12,1,male,24,anonymized,Serial_Dependence_U,2023.2.3,Win32,60.60606060606061,,,,,,813.3692000000476,222.0,2.0,813.3694000000953,222.0,,,,816.7682999999523,817.2679999999999,816.2519000000954,816.7682999999523,814.3855,816.2517999999523,817.2679999999999,817.7679000000953,817.7679999999999,820.3177999999523,1803.0,820.3177999999523,5.0,820.318,2.0,21.0,81.0,10.0,1.0,0.8,0.3,Time
,,S12,1,male,24,anonymized,Serial_Dependence_U,2023.2.3,Win32,60.60606060606061,,,,,,820.3182999999523,5.0,2.0,820.3184000000954,5.0,,,,823.7174000000954,824.217,823.2009000000953,823.7172999999523,821.334600000143,823.2007999999523,824.217,824.7169000000953,824.717,827.0169000000953,1920.0,827.0169000000953,5.0,827.0172000000476,2.0,22.0,82.0,20.0,1.0,0.8,0.3,Time
,,S12,1,male,24,anonymized,Serial_Dependence_U,2023.2.3,Win32,60.60606060606061,,,,,,827.0174999999999,173.0,2.0,827.0177000000476,173.0,,,,830.783,831.2827000000476,830.2666000001431,830.783,828.0332999999523,830.2665,831.2827000000476,831.782600000143,831.7827000000476,834.4157999999522,2085.0,834.4159000000953,5.0,834.416100000143,2.0,23.0,83.0,17.0,1.0,1.2,0.7,Time
,,S12,1,male,24,anonymized,Serial_Dependence_U,2023.2.3,Win32,60.60606060606061,,,,,,834.4164999999999,173.0,2.0,834.416600000143,173.0,,,,837.7819999999999,838.281600000143,837.2655,837.7819000000953,835.4324000000953,837.2654000000954,838.281600000143,838.781600000143,838.781600000143,840.8982000000476,1565.0,840.8982000000476,5.0,840.8984000000953,2.0,24.0,84.0,5.0,1.0,0.8,0.7,Time
,,S12,1,male,24,anonymized,Serial_Dependence_U,2023.2.3,Win32,60.60606060606061,,,,,,840.8987000000476,133.0,2.0,840.8987999999523,133.0,,,,844.864600000143,845.3639999999999,844.3479000000954,844.8645,841.9147000000477,844.3479000000954,845.3639999999999,845.8639999999999,845.8639999999999,848.130600000143,1912.0,848.1307000000477,5.0,848.1309000000954,2.0,25.0,85.0,18.0,1.0,1.4,0.7,Time
,,S12,1,male,24,anonymized,Serial_Dependence_U,2023.2.3,Win32,60.60606060606061,,,,,,848.1312000000477,155.0,2.0,848.1312999999523,155.0,,,,852.096600000143,852.5964000000953,851.5802999999523,852.096600000143,849.147100000143,851.5802000000476,852.5964000000953,853.0962999999523,853.0962999999523,855.2462999999523,1750.0,855.2462999999523,4.0,855.2465,2.0,26.0,86.0,8.0,1.0,1.4,0.7,Time
,,S12,1,male,24,anonymized,Serial_Dependence_U,2023.2.3,Win32,60.60606060606061,,,,,,855.2467999999523,219.0,2.0,855.2469000000954,219.0,,,,858.6126000001431,859.112100000143,858.0959000000953,858.6125,856.2627999999523,858.0959000000953,859.112100000143,859.612,859.612100000143,862.4119000000953,2400.0,862.4119999999999,5.0,862.4122000000476,2.0,27.0,87.0,15.0,1.0,0.8,0.7,Time
,,S12,1,male,24,anonymized,Serial_Dependence_U,2023.2.3,Win32,60.60606060606061,,,,,,862.412600000143,163.0,2.0,862.4127000000476,163.0,,,,866.1782000000477,866.6777999999523,865.6614999999999,866.178100000143,863.428600000143,865.6614999999999,866.6779000000953,867.177600000143,867.177600000143,869.7942999999523,2063.0,869.7942999999523,5.0,869.7945,2.0,28.0,88.0,7.0,1.0,1.2,0.7,Time
,,S12,1,male,24,anonymized,Serial_Dependence_U,2023.2.3,Win32,60.60606060606061,,,,,,869.7947000000477,44.0,2.0,869.7949000000954,44.0,,,,873.5604000000953,874.0599000000954,873.0437999999523,873.5602999999522,870.8107000000476,873.0437999999523,874.06,874.560100000143,874.560100000143,877.0097000000477,2117.0,877.0097999999523,5.0,877.010100000143,2.0,29.0,89.0,27.0,1.0,1.2,0.7,Time
,,S12,1,male,24,anonymized,Serial_Dependence_U,2023.2.3,Win32,60.60606060606061,,,,,,877.0104000000954,180.0,3.0,879.026,180.0,s,2.0,,882.7927000000476,883.2919999999999,882.2759000000954,882.792600000143,880.0427000000476,882.2759000000954,883.2919999999999,883.7919999999999,883.7919999999999,886.1752000000477,1933.0,886.1752000000477,5.0,886.1754999999999,3.0,0.0,90.0,7.0,1.0,1.2,0.7,Time
,,S12,1,male,24,anonymized,Serial_Dependence_U,2023.2.3,Win32,60.60606060606061,,,,,,886.1757000000476,222.0,3.0,886.1767000000476,222.0,,,,890.1747000000477,890.6744000000954,889.6582999999523,890.174600000143,887.1919000000953,889.6582999999523,890.6745,891.1742999999523,891.1742999999523,891.807600000143,152.0,891.8077000000477,1.0,891.8077999999523,3.0,1.0,91.0,13.0,1.0,1.4,0.3,Time
,,S12,1,male,24,anonymized,Serial_Dependence_U,2023.2.3,Win32,60.60606060606061,,,,,,891.808100000143,235.0,3.0,891.8082000000477,235.0,,,,895.207600000143,895.707,894.6907999999523,895.2075,892.8242999999522,894.6907000000476,895.707,896.207,896.207,898.2567999999522,1555.0,898.2569000000954,5.0,898.257,3.0,2.0,92.0,10.0,1.0,0.8,0.3,Time
,,S12,1,male,24,anonymized,Serial_Dependence_U,2023.2.3,Win32,60.60606060606061,,,,,,898.2574000000953,242.0,3.0,898.2574000000953,242.0,,,,902.2064000000952,902.706100000143,901.6899000000952,902.2062999999524,899.2567999999522,901.6899000000952,902.706100000143,903.2059000000952,903.206,905.839100000143,1965.0,905.839100000143,5.0,905.8394000000952,3.0,3.0,93.0,18.0,1.0,1.4,0.7,Time
,,S12,1,male,24,anonymized,Serial_Dependence_U,2023.2.3,Win32,60.60606060606061,,,,,,905.839600000143,63.0,3.0,905.8397000000476,63.0,,,,909.6387000000476,910.1382999999524,909.1221000001432,909.638600000143,906.8557999999524,909.122,910.1382999999524,910.6382999999524,910.6382999999524,913.1214000000954,2083.0,913.1214000000954,5.0,913.121600000143,3.0,4.0,94.0,22.0,1.0,1.2,0.3,Time
,,S12,1,male,24,anonymized,Serial_Dependence_U,2023.2.3,Win32,60.60606060606061,,,,,,913.122,159.0,3.0,913.1221000001432,159.0,,,,917.1209000000952,917.6207000000476,916.6045,917.1207999999524,914.138,916.6045,917.6207000000476,918.120600000143,918.120600000143,920.837100000143,2350.0,920.8372000000476,5.0,920.8375,3.0,5.0,95.0,23.0,1.0,1.4,0.3,Time
,,S12,1,male,24,anonymized,Serial_Dependence_U,2023.2.3,Win32,60.60606060606061,,,,,,920.8377000000476,116.0,3.0,920.8377999999524,116.0,,,,924.2367999999524,924.7362000000476,923.720100000143,924.2367000000476,921.8537000000476,923.72,924.7362999999524,925.2362000000476,925.2362999999524,926.569600000143,983.0,926.569600000143,4.0,926.5699000000952,3.0,6.0,96.0,0.0,1.0,0.8,0.3,Time
,,S12,1,male,24,anonymized,Serial_Dependence_U,2023.2.3,Win32,60.60606060606061,,,,,,926.5702999999522,236.0,3.0,926.5704000000952,236.0,,,,930.3357000000476,930.8354000000952,929.8192000000475,930.3357000000476,927.5862999999524,929.8192000000475,930.8354000000952,931.3352000000476,931.3352999999524,934.285100000143,2533.0,934.2852000000476,5.0,934.2854000000954,3.0,7.0,97.0,27.0,1.0,1.2,0.7,Time
,,S12,1,male,24,anonymized,Serial_Dependence_U,2023.2.3,Win32,60.60606060606061,,,,,,934.2857000000477,272.0,3.0,934.2859000000954,272.0,,,,937.8847000000476,938.3844000000952,937.368100000143,937.884600000143,935.3017000000476,937.368100000143,938.3845,938.8842999999524,938.8842999999524,941.467600000143,2067.0,941.4677000000476,5.0,941.4679000000954,3.0,8.0,98.0,11.0,1.0,1.0,0.3,Time
,,S12,1,male,24,anonymized,Serial_Dependence_U,2023.2.3,Win32,60.60606060606061,,,,,,941.4682000000475,252.0,3.0,941.4684000000954,252.0,,,,945.4337999999524,945.9332000000476,944.917100000143,945.4337000000476,942.4842000000476,944.917,945.9332000000476,946.4332999999524,946.4334000000952,948.633100000143,1816.0,948.633100000143,4.0,948.6332999999524,3.0,9.0,99.0,8.0,1.0,1.4,0.7,Time
,,S12,1,male,24,anonymized,Serial_Dependence_U,2023.2.3,Win32,60.60606060606061,,,,,,948.633600000143,98.0,3.0,948.6337999999524,98.0,,,,952.7994000000954,953.2989000000954,952.2827999999524,952.7994000000954,949.6497999999524,952.2827000000476,953.299,953.7987999999524,953.7987999999524,956.6152000000476,2405.0,956.6152999999524,5.0,956.615600000143,3.0,10.0,100.0,9.0,1.0,1.6,0.7,Time
,,S12,1,male,24,anonymized,Serial_Dependence_U,2023.2.3,Win32,60.60606060606061,,,,,,956.6157999999524,236.0,3.0,956.6159000000952,236.0,,,,960.5815,961.0812000000476,960.0649000000952,960.5814000000952,957.632,960.0649000000952,961.0812000000476,961.581100000143,961.581100000143,965.5735,2400.0,965.5735,5.0,965.5739000000954,3.0,11.0,101.0,28.0,1.0,1.4,0.7,Time
,,S12,1,male,24,anonymized,Serial_Dependence_U,2023.2.3,Win32,60.60606060606061,,,,,,965.5742000000477,251.0,3.0,965.5742999999522,251.0,,,,969.147,969.6539000000952,968.639100000143,969.1469000000952,966.5727999999524,968.639,969.6539000000952,970.1467000000476,970.1467000000476,974.2387999999524,1996.0,974.2387999999524,5.0,974.239100000143,3.0,12.0,102.0,1.0,1.0,1.0,0.3,Time
,,S12,1,male,24,anonymized,Serial_Dependence_U,2023.2.3,Win32,60.60606060606061,,,,,,974.2394000000952,308.0,3.0,974.2394000000952,308.0,,,,978.4377000000476,978.9287000000476,977.9212000000476,978.4377000000476,975.2547999999524,977.921100000143,978.9287000000476,979.4287000000476,979.4287000000476,981.9045,2067.0,981.9045,4.0,981.9047999999524,3.0,13.0,103.0,24.0,1.0,1.6,0.3,Time
,,S12,1,male,24,anonymized,Serial_Dependence_U,2023.2.3,Win32,60.60606060606061,,,,,,981.905,142.0,3.0,981.9052000000476,142.0,,,,985.4534000000954,985.9444000000954,984.9369000000952,985.4532999999524,982.9002000000476,984.9367999999524,985.9444000000954,986.4442999999522,986.4442999999522,989.3202000000476,2483.0,989.3202000000476,5.0,989.3204000000952,3.0,14.0,104.0,6.0,1.0,1.0,0.7,Time
,,S12,1,male,24,anonymized,Serial_Dependence_U,2023.2.3,Win32,60.60606060606061,,,,,,989.320600000143,179.0,3.0,989.3207000000476,179.0,,,,993.5187999999524,994.0137000000476,993.0025,993.5187999999524,990.336,993.0022999999522,994.0137000000476,994.5097999999524,994.5099000000952,997.1687999999524,2283.0,997.1689000000952,5.0,997.169,3.0,15.0,105.0,14.0,1.0,1.6,0.3,Time
,,S12,1,male,24,anonymized,Serial_Dependence_U,2023.2.3,Win32,60.60606060606061,,,,,,997.1692999999524,229.0,3.0,997.1694000000954,229.0,,,,1000.7512000000476,1001.2422000000475,1000.2347999999524,1000.7512000000476,998.1685,1000.2347999999524,1001.2422999999524,1001.7492999999524,1001.7492999999524,1003.7677000000476,1650.0,1003.7679000000952,5.0,1003.768100000143,3.0,16.0,106.0,21.0,1.0,1.0,0.3,Time
,,S12,1,male,24,anonymized,Serial_Dependence_U,2023.2.3,Win32,60.60606060606061,,,,,,1003.7682999999524,192.0,3.0,1003.7684000000952,192.0,,,,1007.325100000143,1007.824600000143,1006.817,1007.325,1004.7842999999524,1006.8169000000952,1007.824600000143,1008.3247000000476,1008.3247000000476,1010.4172999999524,1660.0,1010.4172999999524,5.0,1010.4175,3.0,17.0,107.0,16.0,1.0,1.0,0.7,Time
,,S12,1,male,24,anonymized,Serial_Dependence_U,2023.2.3,Win32,60.60606060606061,,,,,,1010.418,49.0,3.0,1010.418100000143,49.0,,,,1014.5572000000476,1015.0569000000954,1014.049600000143,1014.5572000000476,1011.413,1014.0495,1015.0569000000954,1015.5569000000954,1015.5569000000954,1017.682600000143,1683.0,1017.6827000000476,4.0,1017.683,3.0,18.0,108.0,19.0,1.0,1.6,0.7,Time
,,S12,1,male,24,anonymized,Serial_Dependence_U,2023.2.3,Win32,60.60606060606061,,,,,,1017.6832000000476,103.0,3.0,1017.6834000000952,103.0,,,,1021.6562999999522,1022.1632000000476,1021.1485,1021.6562000000478,1018.6737999999524,1021.1484000000954,1022.1632000000476,1022.656,1022.656,1024.9317999999523,1883.0,1024.9319000000955,5.0,1024.9322000000475,3.0,19.0,109.0,3.0,1.0,1.4,0.3,Time
,,S12,1,male,24,anonymized,Serial_Dependence_U,2023.2.3,Win32,60.60606060606061,,,,,,1024.9325,205.0,3.0,1024.9325,205.0,,,,1029.0972999999524,1029.5882999999524,1028.581,1029.0972000000477,1025.939,1028.5807999999524,1029.5884000000954,1030.0882000000477,1030.0882000000477,1033.1137999999523,2550.0,1033.1139000000956,5.0,1033.114100000143,3.0,20.0,110.0,29.0,1.0,1.6,0.7,Time
,,S12,1,male,24,anonymized,Serial_Dependence_U,2023.2.3,Win32,60.60606060606061,,,,,,1033.1142999999524,151.0,3.0,1033.1144000000954,151.0,,,,1036.6796000001432,1037.1705000000002,1036.163,1036.6795000000002,1034.13,1036.163,1037.1705000000002,1037.6705000000002,1037.670700000048,1039.9797999999523,1950.0,1039.9799000000955,5.0,1039.9801000001432,3.0,21.0,111.0,26.0,1.0,1.0,0.7,Time
,,S12,1,male,24,anonymized,Serial_Dependence_U,2023.2.3,Win32,60.60606060606061,,,,,,1039.9802999999524,42.0,3.0,1039.9805,42.0,,,,1043.7532999999523,1044.2527999999525,1043.2452999999523,1043.7531000001431,1040.978900000095,1043.2452999999523,1044.2529000000957,1044.7529000000957,1044.7530000000002,1047.0787999999525,1900.0,1047.0787999999525,5.0,1047.0791000001432,3.0,22.0,112.0,2.0,1.0,1.2,0.3,Time
,,S12,1,male,24,anonymized,Serial_Dependence_U,2023.2.3,Win32,60.60606060606061,,,,,,1047.0792999999524,153.0,3.0,1047.0792999999524,153.0,,,,1050.8444000000954,1051.3352000000475,1050.3277000000478,1050.8444000000954,1048.0946000001431,1050.3277000000478,1051.3352000000475,1051.8424000000955,1051.8425,1054.077600000143,1850.0,1054.077600000143,5.0,1054.0777999999525,3.0,23.0,113.0,17.0,1.0,1.2,0.7,Time
,,S12,1,male,24,anonymized,Serial_Dependence_U,2023.2.3,Win32,60.60606060606061,,,,,,1054.078,38.0,3.0,1054.0782000000477,38.0,,,,1058.2679000000956,1058.7675000000002,1057.7602000000477,1058.2679000000956,1055.0936000001432,1057.7601000001432,1058.7676000001431,1059.2675000000002,1059.2675000000002,1061.677,2066.0,1061.677,4.0,1061.6772999999523,3.0,24.0,114.0,4.0,1.0,1.6,0.3,Time
,,S12,1,male,24,anonymized,Serial_Dependence_U,2023.2.3,Win32,60.60606060606061,,,,,,1061.6775,66.0,3.0,1061.6776000001432,66.0,,,,1065.4555,1065.9497999999523,1064.9424000000954,1065.4554000000956,1062.6759000000957,1064.9422999999524,1065.9497999999523,1066.457,1066.457,1068.9592999999525,2226.0,1068.9594000000957,5.0,1068.959700000048,3.0,25.0,115.0,12.0,1.0,1.2,0.3,Time
,,S12,1,male,24,anonymized,Serial_Dependence_U,2023.2.3,Win32,60.60606060606061,,,,,,1068.9599000000956,56.0,3.0,1068.960100000143,56.0,,,,1072.3252999999524,1072.8155000000002,1071.808,1072.3252000000475,1069.975,1071.808,1072.8155000000002,1073.3156000001431,1073.3156000001431,1076.3577000000478,2716.0,1076.3577999999525,5.0,1076.3579000000957,3.0,26.0,116.0,25.0,1.0,0.8,0.7,Time
,,S12,1,male,24,anonymized,Serial_Dependence_U,2023.2.3,Win32,60.60606060606061,,,,,,1076.358200000048,237.0,3.0,1076.3582999999524,237.0,,,,1079.723600000143,1080.214400000095,1079.207100000143,1079.723600000143,1077.3737000000478,1079.207100000143,1080.214600000143,1080.7145,1080.7145,1082.4404000000957,1417.0,1082.4404000000957,5.0,1082.440700000048,3.0,27.0,117.0,15.0,1.0,0.8,0.7,Time
,,S12,1,male,24,anonymized,Serial_Dependence_U,2023.2.3,Win32,60.60606060606061,,,,,,1082.4409000000956,183.0,3.0,1082.441,183.0,,,,1085.8139000000954,1086.3136000001432,1085.3062000000475,1085.8139000000954,1083.4567999999524,1085.306100000143,1086.3136000001432,1086.8136000001432,1086.8136000001432,1088.9396000001432,1749.0,1088.9396000001432,5.0,1088.940100000143,3.0,28.0,118.0,5.0,1.0,0.8,0.7,Time
,,S12,1,male,24,anonymized,Serial_Dependence_U,2023.2.3,Win32,60.60606060606061,,,,,,1088.9406000001431,169.0,3.0,1088.9407999999523,169.0,,,,1092.313100000143,1092.820200000048,1091.8054000000957,1092.313,1089.9387999999524,1091.8052999999525,1092.820200000048,1093.3200000000002,1093.3200000000002,1096.072,2160.0,1096.072,5.0,1096.0722000000478,3.0,29.0,119.0,20.0,1.0,0.8,0.3,Time
,,S12,1,male,24,anonymized,Serial_Dependence_U,2023.2.3,Win32,60.60606060606061,,,,,,1096.0725,88.0,4.0,1100.161700000048,88.0,s,4.065799999952333,,1104.1554000000954,1104.6444000000954,1103.6369000000957,1104.1552000000477,1101.1706000001432,1103.6367999999525,1104.6445,1105.1442999999524,1105.1442999999524,1107.7367999999524,2567.0,1107.7367999999524,5.0,1107.737100000143,4.0,0.0,120.0,13.0,1.0,1.4,0.3,Time
,,S12,1,male,24,anonymized,Serial_Dependence_U,2023.2.3,Win32,60.60606060606061,,,,,,1107.7374000000957,3.0,4.0,1107.7384000000957,3.0,,,,1111.9271000001431,1112.4267000000475,1111.419100000143,1111.927,1108.7442000000478,1111.419100000143,1112.4267999999524,1112.9339000000955,1112.9339000000955,1116.1696000001432,2750.0,1116.1696000001432,5.0,1116.1697999999524,4.0,1.0,121.0,14.0,1.0,1.6,0.3,Time
,,S12,1,male,24,anonymized,Serial_Dependence_U,2023.2.3,Win32,60.60606060606061,,,,,,1116.170100000143,322.0,4.0,1116.1702000000478,322.0,,,,1120.1514000000957,1120.6492999999523,1119.6347000000478,1120.1512999999525,1117.1685,1119.6345,1120.6494000000955,1121.1494000000955,1121.1494000000955,1124.584700000048,2983.0,1124.584700000048,5.0,1124.5849000000956,4.0,2.0,122.0,3.0,1.0,1.4,0.3,Time
,,S12,1,male,24,anonymized,Serial_Dependence_U,2023.2.3,Win32,60.60606060606061,,,,,,1124.5852000000475,167.0,4.0,1124.5852999999524,167.0,,,,1127.9834000000951,1128.4744000000956,1127.4669000000954,1127.9834000000951,1125.6005,1127.4667999999524,1128.4744000000956,1128.9744000000956,1128.9744000000956,1131.3001000001432,1833.0,1131.3002000000477,5.0,1131.3004000000954,4.0,3.0,123.0,20.0,1.0,0.8,0.3,Time
,,S12,1,male,24,anonymized,Serial_Dependence_U,2023.2.3,Win32,60.60606060606061,,,,,,1131.3007000000478,147.0,4.0,1131.3007999999525,147.0,,,,1135.053,1135.5569000000955,1134.5327999999524,1135.0529000000954,1132.299600000143,1134.5327000000475,1135.5569000000955,1136.0567000000478,1136.0567000000478,1138.999100000143,2383.0,1138.999100000143,5.0,1138.9994000000954,4.0,4.0,124.0,7.0,1.0,1.2,0.7,Time
,,S12,1,male,24,anonymized,Serial_Dependence_U,2023.2.3,Win32,60.60606060606061,,,,,,1138.9997999999523,63.0,4.0,1139.0001000001432,63.0,,,,1142.7892999999524,1143.2889000000955,1142.2727999999524,1142.7892000000477,1140.0065000000002,1142.2727000000475,1143.289,1143.7887999999523,1143.7889000000955,1145.972600000143,1839.0,1145.9727000000478,5.0,1145.9729000000957,4.0,5.0,125.0,22.0,1.0,1.2,0.3,Time
,,S12,1,male,24,anonymized,Serial_Dependence_U,2023.2.3,Win32,60.60606060606061,,,,,,1145.9732000000477,169.0,4.0,1145.9734000000954,169.0,,,,1149.9550000000002,1150.454600000143,1149.4385,1149.9549000000954,1146.9722999999524,1149.4385,1150.454600000143,1150.954600000143,1150.954600000143,1154.0714000000955,2766.0,1154.0714000000955,5.0,1154.0717000000477,4.0,6.0,126.0,23.0,1.0,1.4,0.3,Time
,,S12,1,male,24,anonymized,Serial_Dependence_U,2023.2.3,Win32,60.60606060606061,,,,,,1154.072,63.0,4.0,1154.072100000143,63.0,,,,1157.4707000000478,1157.9702999999524,1156.9541000001432,1157.4706000001431,1155.087600000143,1156.9540000000002,1157.9702999999524,1158.4702000000475,1158.4702000000475,1160.5701000001432,1734.0,1160.5701000001432,5.0,1160.5705,4.0,7.0,127.0,10.0,1.0,0.8,0.3,Time
,,S12,1,male,24,anonymized,Serial_Dependence_U,2023.2.3,Win32,60.60606060606061,,,,,,1160.5707999999524,176.0,4.0,1160.5709000000954,176.0,,,,1164.3696000001432,1164.8696000001432,1163.853100000143,1164.3696000001432,1161.586600000143,1163.853,1164.8696000001432,1165.3692000000478,1165.3692000000478,1168.1692000000478,2200.0,1168.1692000000478,5.0,1168.1695,4.0,8.0,128.0,2.0,1.0,1.2,0.3,Time
,,S12,1,male,24,anonymized,Serial_Dependence_U,2023.2.3,Win32,60.60606060606061,,,,,,1168.1697000000477,251.0,4.0,1168.1697999999524,251.0,,,,1172.1352000000477,1172.6349000000955,1171.6187000000475,1172.1352000000477,1169.185600000143,1171.618600000143,1172.6349000000955,1173.1347999999523,1173.1347999999523,1176.184600000143,2766.0,1176.1847000000478,5.0,1176.1849000000957,4.0,9.0,129.0,28.0,1.0,1.4,0.7,Time
,,S12,1,male,24,anonymized,Serial_Dependence_U,2023.2.3,Win32,60.60606060606061,,,,,,1176.185200000048,99.0,4.0,1176.1852999999523,99.0,,,,1179.9842999999523,1180.4837999999525,1179.4676000001432,1179.9842000000478,1177.2011000001432,1179.4675,1180.4837999999525,1180.9837000000475,1180.9837000000475,1183.6335,2266.0,1183.6335,5.0,1183.6337999999523,4.0,10.0,130.0,12.0,1.0,1.2,0.3,Time
,,S12,1,male,24,anonymized,Serial_Dependence_U,2023.2.3,Win32,60.60606060606061,,,,,,1183.6341000001432,311.0,4.0,1183.6342000000477,311.0,,,,1187.0332000000478,1187.5327999999524,1186.5165000000002,1187.0332000000478,1184.650100000143,1186.5164000000957,1187.5327999999524,1188.0327000000475,1188.0327000000475,1191.3490000000002,2983.0,1191.3491000001432,5.0,1191.3492999999523,4.0,11.0,131.0,0.0,1.0,0.8,0.3,Time
,,S12,1,male,24,anonymized,Serial_Dependence_U,2023.2.3,Win32,60.60606060606061,,,,,,1191.3497000000475,208.0,4.0,1191.3497000000475,208.0,,,,1195.1154000000954,1195.615,1194.5989000000957,1195.1154000000954,1192.3657999999523,1194.5987999999525,1195.6151000001432,1196.1149000000955,1196.1149000000955,1199.2482999999525,2795.0,1199.2482999999525,5.0,1199.2485,4.0,12.0,132.0,17.0,1.0,1.2,0.7,Time
,,S12,1,male,24,anonymized,Serial_Dependence_U,2023.2.3,Win32,60.60606060606061,,,,,,1199.2487999999523,116.0,4.0,1199.2489000000955,116.0,,,,1202.8142999999525,1203.314,1202.2979000000955,1202.8142000000478,1200.2646000001432,1202.2977999999523,1203.314,1203.8139000000954,1203.8139000000954,1207.1304000000955,2981.0,1207.1305,5.0,1207.1306000001432,4.0,13.0,133.0,16.0,1.0,1.0,0.7,Time
,,S12,1,male,24,anonymized,Serial_Dependence_U,2023.2.3,Win32,60.60606060606061,,,,,,1207.1309000000954,297.0,4.0,1207.131,297.0,,,,1211.0964000000954,1211.596,1210.5797999999525,1211.0964000000954,1208.1467999999525,1210.5797000000478,1211.5961000001432,1212.096,1212.096,1215.3959000000957,3002.0,1215.3960000000002,5.0,1215.3962999999524,4.0,14.0,134.0,8.0,1.0,1.4,0.7,Time
,,S12,1,male,24,anonymized,Serial_Dependence_U,2023.2.3,Win32,60.60606060606061,,,,,,1215.396600000143,221.0,4.0,1215.3969000000957,221.0,,,,1219.162,1219.661700000048,1218.6454000000954,1219.1619000000956,1216.4122999999524,1218.6454000000954,1219.661700000048,1220.1615000000002,1220.1615000000002,1223.5779000000955,3033.0,1223.578,5.0,1223.5782000000477,4.0,15.0,135.0,27.0,1.0,1.2,0.7,Time
,,S12,1,male,24,anonymized,Serial_Dependence_U,2023.2.3,Win32,60.60606060606061,,,,,,1223.5785,208.0,4.0,1223.578600000143,208.0,,,,1227.1444000000954,1227.6437999999523,1226.6277000000478,1227.1442000000477,1224.5946000001431,1226.627600000143,1227.6437999999523,1228.1437000000478,1228.1437000000478,1231.243600000143,2750.0,1231.243600000143,5.0,1231.244,4.0,16.0,136.0,6.0,1.0,1.0,0.7,Time
,,S12,1,male,24,anonymized,Serial_Dependence_U,2023.2.3,Win32,60.60606060606061,,,,,,1231.2442999999523,25.0,4.0,1231.2445,25.0,,,,1235.2097999999523,1235.7094000000957,1234.6932999999524,1235.2097999999523,1232.2602999999524,1234.6932000000477,1235.7094000000957,1236.2094000000957,1236.2094000000957,1239.3757000000478,2831.0,1239.3757000000478,5.0,1239.376,4.0,17.0,137.0,18.0,1.0,1.4,0.7,Time
,,S12,1,male,24,anonymized,Serial_Dependence_U,2023.2.3,Win32,60.60606060606061,,,,,,1239.3762999999524,313.0,4.0,1239.3764000000954,313.0,,,,1242.9755,1243.4749000000954,1242.4587000000477,1242.9754000000955,1240.3925000000002,1242.4586000001432,1243.475,1243.9747999999524,1243.9749000000954,1245.9082999999523,1612.0,1245.9084000000955,5.0,1245.9087000000477,4.0,18.0,138.0,21.0,1.0,1.0,0.3,Time
,,S12,1,male,24,anonymized,Serial_Dependence_U,2023.2.3,Win32,60.60606060606061,,,,,,1245.909100000143,110.0,4.0,1245.9092000000478,110.0,,,,1249.2746000001432,1249.774,1248.757900000095,1249.2745,1246.9247000000478,1248.7577999999523,1249.774,1250.274,1250.274,1252.490600000143,1866.0,1252.4907000000478,5.0,1252.4909000000955,4.0,19.0,139.0,5.0,1.0,0.8,0.7,Time
,,S12,1,male,24,anonymized,Serial_Dependence_U,2023.2.3,Win32,60.60606060606061,,,,,,1252.4912000000477,151.0,4.0,1252.4912999999524,151.0,,,,1256.0567999999523,1256.5564000000954,1255.5402000000477,1256.0567999999523,1253.507100000143,1255.5401000001432,1256.5564000000954,1257.0562999999524,1257.0564000000954,1259.6062999999524,2167.0,1259.6064000000954,5.0,1259.6067000000478,4.0,20.0,140.0,26.0,1.0,1.0,0.7,Time
,,S12,1,male,24,anonymized,Serial_Dependence_U,2023.2.3,Win32,60.60606060606061,,,,,,1259.6071000001432,186.0,4.0,1259.6072999999524,186.0,,,,1263.7557999999524,1264.2555,1263.239100000143,1263.7557999999524,1260.6069000000955,1263.239100000143,1264.2555,1264.7552999999525,1264.7554000000955,1267.705200000048,2617.0,1267.705200000048,5.0,1267.705600000143,4.0,21.0,141.0,29.0,1.0,1.6,0.7,Time
,,S12,1,male,24,anonymized,Serial_Dependence_U,2023.2.3,Win32,60.60606060606061,,,,,,1267.7059000000954,132.0,4.0,1267.7061000001431,132.0,,,,1271.9047999999525,1272.4042999999524,1271.3881000001431,1271.904600000143,1268.721600000143,1271.388,1272.4042999999524,1272.9041000001432,1272.9041000001432,1275.0042000000478,1800.0,1275.0042000000478,4.0,1275.0045,4.0,22.0,142.0,24.0,1.0,1.6,0.3,Time
,,S12,1,male,24,anonymized,Serial_Dependence_U,2023.2.3,Win32,60.60606060606061,,,,,,1275.0047999999524,235.0,4.0,1275.0049000000954,235.0,,,,1279.1702999999525,1279.6699000000954,1278.6537000000478,1279.1702000000478,1276.0205,1278.6536000001431,1279.6699000000954,1280.1697999999524,1280.1697999999524,1282.9196000001432,2384.0,1282.9196000001432,5.0,1282.9199000000954,4.0,23.0,143.0,19.0,1.0,1.6,0.7,Time
,,S12,1,male,24,anonymized,Serial_Dependence_U,2023.2.3,Win32,60.60606060606061,,,,,,1282.9202000000478,96.0,4.0,1282.9202999999525,96.0,,,,1286.5025,1287.0022000000477,1285.986100000143,1286.5025,1283.9197000000477,1285.986,1287.0022000000477,1287.5021000001432,1287.5021000001432,1290.4017999999523,2516.0,1290.401900000095,5.0,1290.402,4.0,24.0,144.0,1.0,1.0,1.0,0.3,Time
,,S12,1,male,24,anonymized,Serial_Dependence_U,2023.2.3,Win32,60.60606060606061,,,,,,1290.4022999999524,285.0,4.0,1290.4025,285.0,,,,1294.5682000000477,1295.0677999999525,1294.0514000000956,1294.5681000001432,1291.4185,1294.0514000000956,1295.0677999999525,1295.5677000000478,1295.5677000000478,1298.2007999999523,2300.0,1298.2009000000955,5.0,1298.2011000001432,4.0,25.0,145.0,9.0,1.0,1.6,0.7,Time
,,S12,1,male,24,anonymized,Serial_Dependence_U,2023.2.3,Win32,60.60606060606061,,,,,,1298.2015,54.0,4.0,1298.2016000001431,54.0,,,,1301.5671000001432,1302.0667000000478,1301.0505,1301.5671000001432,1299.2174000000955,1301.0505,1302.0667000000478,1302.5666000001431,1302.5667000000478,1305.2165,2098.0,1305.2165,5.0,1305.2167000000477,4.0,26.0,146.0,15.0,1.0,0.8,0.7,Time
,,S12,1,male,24,anonymized,Serial_Dependence_U,2023.2.3,Win32,60.60606060606061,,,,,,1305.217,63.0,4.0,1305.217100000143,63.0,,,,1308.816100000143,1309.315700000048,1308.299600000143,1308.816,1306.2334000000951,1308.299600000143,1309.3157999999523,1309.8156000001431,1309.8156000001431,1312.165600000143,1634.0,1312.165600000143,5.0,1312.1657999999525,4.0,27.0,147.0,11.0,1.0,1.0,0.3,Time
,,S12,1,male,24,anonymized,Serial_Dependence_U,2023.2.3,Win32,60.60606060606061,,,,,,1312.1661000001432,89.0,4.0,1312.166200000048,89.0,,,,1316.3652999999524,1316.8646000001431,1315.8485,1316.3652000000477,1313.1821000001432,1315.8484000000954,1316.8646000001431,1317.3647000000478,1317.3647000000478,1319.8144000000957,2065.0,1319.8145000000002,4.0,1319.8147000000477,4.0,28.0,148.0,4.0,1.0,1.6,0.3,Time
,,S12,1,male,24,anonymized,Serial_Dependence_U,2023.2.3,Win32,60.60606060606061,,,,,,1319.8149000000951,89.0,4.0,1319.815100000143,89.0,,,,1323.180700000048,1323.6802999999525,1322.6642000000477,1323.180700000048,1320.831,1322.6642000000477,1323.6804000000957,1324.1802999999525,1324.1802999999525,1326.3137999999524,1737.0,1326.3137999999524,5.0,1326.314100000143,4.0,29.0,149.0,25.0,1.0,0.8,0.7,Time
,,S12,1,male,24,anonymized,Serial_Dependence_U,2023.2.3,Win32,60.60606060606061,,,,,,1326.3144000000957,163.0,5.0,1328.0965,163.0,s,1.7580000000000382,,1331.6637000000478,1332.1702000000478,1331.1555,1331.6634000000954,1329.1132999999525,1331.1552999999524,1332.1702000000478,1332.6624000000954,1332.6625,1335.2717999999525,2300.0,1335.2717999999525,5.0,1335.2720000000002,5.0,0.0,150.0,16.0,1.0,1.0,0.7,Time
,,S12,1,male,24,anonymized,Serial_Dependence_U,2023.2.3,Win32,60.60606060606061,,,,,,1335.2724000000956,191.0,5.0,1335.2736000001432,191.0,,,,1339.0537999999524,1339.5447000000477,1338.5374000000954,1339.0537999999524,1336.2712999999524,1338.5372999999524,1339.5447999999524,1340.0447000000477,1340.0447999999524,1343.2372999999525,2800.0,1343.2372999999525,5.0,1343.2376000001432,5.0,1.0,151.0,22.0,1.0,1.2,0.3,Time
,,S12,1,male,24,anonymized,Serial_Dependence_U,2023.2.3,Win32,60.60606060606061,,,,,,1343.2379000000954,334.0,5.0,1343.238,334.0,,,,1347.4027000000478,1347.8936000001431,1346.8862000000477,1347.4027000000478,1344.2532999999523,1346.8861000001432,1347.8937000000478,1348.3937000000478,1348.3937999999523,1351.3532000000478,2643.0,1351.3532999999525,5.0,1351.3534000000957,5.0,2.0,152.0,29.0,1.0,1.6,0.7,Time
,,S12,1,male,24,anonymized,Serial_Dependence_U,2023.2.3,Win32,60.60606060606061,,,,,,1351.3537999999523,190.0,5.0,1351.353900000095,190.0,,,,1354.901700000048,1355.3926000001431,1354.3851000001432,1354.9016000001432,1352.352100000143,1354.385,1355.3926000001431,1355.8925000000002,1355.8926000001431,1359.2015,2950.0,1359.2016000001431,5.0,1359.2022000000477,5.0,3.0,153.0,26.0,1.0,1.0,0.7,Time
,,S12,1,male,24,anonymized,Serial_Dependence_U,2023.2.3,Win32,60.60606060606061,,,,,,1359.2025,113.0,5.0,1359.202600000143,113.0,,,,1363.4006000001432,1363.8914000000957,1362.884,1363.4004000000955,1360.2176000001432,1362.8837999999523,1363.8915000000002,1364.3986000001432,1364.3986000001432,1367.6169000000957,2766.0,1367.6169000000957,5.0,1367.6171000001432,5.0,4.0,154.0,14.0,1.0,1.6,0.3,Time
,,S12,1,male,24,anonymized,Serial_Dependence_U,2023.2.3,Win32,60.60606060606061,,,,,,1367.6172999999524,168.0,5.0,1367.6174000000954,168.0,,,,1370.9994000000954,1371.4904000000954,1370.496100000143,1370.9992999999524,1368.633100000143,1370.496,1371.4904000000954,1371.9904000000954,1371.9905,1374.5662999999524,2216.0,1374.5662999999524,5.0,1374.5669000000955,5.0,5.0,155.0,0.0,1.0,0.8,0.3,Time
,,S12,1,male,24,anonymized,Serial_Dependence_U,2023.2.3,Win32,60.60606060606061,,,,,,1374.5672000000477,72.0,5.0,1374.5674000000954,72.0,,,,1378.7319000000955,1379.222600000143,1378.215,1378.7317999999525,1375.582100000143,1378.2149000000954,1379.222600000143,1379.7225,1379.722600000143,1382.781600000143,2633.0,1382.781600000143,5.0,1382.7819000000954,5.0,6.0,156.0,9.0,1.0,1.6,0.7,Time
,,S12,1,male,24,anonymized,Serial_Dependence_U,2023.2.3,Win32,60.60606060606061,,,,,,1382.782200000048,115.0,5.0,1382.7822999999523,115.0,,,,1386.580600000143,1387.0716000001432,1386.0642000000478,1386.580600000143,1383.7977000000478,1386.064100000143,1387.0716000001432,1387.5714000000955,1387.5715,1390.9974000000957,2003.0,1390.9975000000002,5.0,1390.997700000048,5.0,7.0,157.0,12.0,1.0,1.2,0.3,Time
,,S12,1,male,24,anonymized,Serial_Dependence_U,2023.2.3,Win32,60.60606060606061,,,,,,1390.9979000000951,134.0,5.0,1390.998,134.0,,,,1394.363100000143,1394.8537999999523,1393.8462999999524,1394.363,1392.0131000001431,1393.8462999999524,1394.853900000095,1395.353900000095,1395.353900000095,1397.5962000000477,1866.0,1397.5962999999524,5.0,1397.5965,5.0,8.0,158.0,5.0,1.0,0.8,0.7,Time
,,S12,1,male,24,anonymized,Serial_Dependence_U,2023.2.3,Win32,60.60606060606061,,,,,,1397.5969000000955,248.0,5.0,1397.5969000000955,248.0,,,,1401.5452999999525,1402.036,1401.0286000001431,1401.5452000000478,1398.5955,1401.0284000000954,1402.036100000143,1402.536,1402.536,1404.9287000000477,2050.0,1404.9287000000477,5.0,1404.9294000000957,5.0,9.0,159.0,8.0,1.0,1.4,0.7,Time
,,S12,1,male,24,anonymized,Serial_Dependence_U,2023.2.3,Win32,60.60606060606061,,,,,,1404.9297000000477,320.0,5.0,1404.9297000000477,320.0,,,,1408.8775,1409.368400000095,1408.361,1408.8775,1405.9277999999524,1408.3609000000954,1409.368400000095,1409.8682999999523,1409.868400000095,1413.5447999999524,3250.0,1413.5447999999524,5.0,1413.545100000143,5.0,10.0,160.0,18.0,1.0,1.4,0.7,Time
,,S12,1,male,24,anonymized,Serial_Dependence_U,2023.2.3,Win32,60.60606060606061,,,,,,1413.5452999999525,139.0,5.0,1413.5455000000002,139.0,,,,1417.2842000000478,1417.7839000000954,1416.7764000000957,1417.2842000000478,1414.5434000000955,1416.7762000000478,1417.784,1418.2744000000955,1418.2744000000955,1421.0762000000475,2416.0,1421.0762999999524,5.0,1421.0765,5.0,11.0,161.0,17.0,1.0,1.2,0.7,Time
,,S12,1,male,24,anonymized,Serial_Dependence_U,2023.2.3,Win32,60.60606060606061,,,,,,1421.0767999999523,82.0,5.0,1421.0767999999523,82.0,,,,1425.0499000000957,1425.5495,1424.5419000000954,1425.0497999999525,1422.0757000000478,1424.5419000000954,1425.5495,1426.0495,1426.0495,1429.1417000000476,2733.0,1429.1417999999524,5.0,1429.142,5.0,12.0,162.0,23.0,1.0,1.4,0.3,Time
,,S12,1,male,24,anonymized,Serial_Dependence_U,2023.2.3,Win32,60.60606060606061,,,,,,1429.1422999999525,76.0,5.0,1429.1424000000954,76.0,,,,1433.1072999999524,1433.5984000000954,1432.5907999999524,1433.1072000000477,1430.1577000000475,1432.5907999999524,1433.5984000000954,1434.0982000000477,1434.0982000000477,1437.5737999999524,2950.0,1437.5739000000954,5.0,1437.5742000000478,5.0,13.0,163.0,28.0,1.0,1.4,0.7,Time
,,S12,1,male,24,anonymized,Serial_Dependence_U,2023.2.3,Win32,60.60606060606061,,,,,,1437.5744000000957,214.0,5.0,1437.5745000000002,214.0,,,,1441.7475000000002,1442.247100000143,1441.2397000000478,1441.7475000000002,1438.5735,1441.2396000001431,1442.247100000143,1442.7377000000477,1442.7377999999524,1445.622700000048,2528.0,1445.6227999999523,5.0,1445.623,5.0,14.0,164.0,4.0,1.0,1.6,0.3,Time
,,S12,1,male,24,anonymized,Serial_Dependence_U,2023.2.3,Win32,60.60606060606061,,,,,,1445.6232000000475,147.0,5.0,1445.6234000000954,147.0,,,,1449.613100000143,1450.1126000001432,1449.1054000000954,1449.613100000143,1446.6387999999524,1449.1054000000954,1450.1126000001432,1450.6125000000002,1450.6127000000477,1453.4717999999525,2300.0,1453.4719000000955,5.0,1453.4722999999524,5.0,15.0,165.0,3.0,1.0,1.4,0.3,Time
,,S12,1,male,24,anonymized,Serial_Dependence_U,2023.2.3,Win32,60.60606060606061,,,,,,1453.4727000000478,50.0,5.0,1453.4727000000478,50.0,,,,1457.0619000000954,1457.5689000000957,1456.554100000143,1457.0619000000954,1454.4876000001432,1456.554100000143,1457.5689000000957,1458.061600000143,1458.061600000143,1460.4876000001432,1950.0,1460.4877000000477,5.0,1460.488,5.0,16.0,166.0,21.0,1.0,1.0,0.3,Time
,,S12,1,male,24,anonymized,Serial_Dependence_U,2023.2.3,Win32,60.60606060606061,,,,,,1460.4882999999525,230.0,5.0,1460.4885000000002,230.0,,,,1464.4776000001432,1464.9772000000478,1463.97,1464.4776000001432,1461.5035,1463.97,1464.9772999999525,1465.4772999999525,1465.4772999999525,1467.2531000001431,1333.0,1467.2531000001431,3.0,1467.2534000000956,5.0,17.0,167.0,13.0,1.0,1.4,0.3,Time
,,S12,1,male,24,anonymized,Serial_Dependence_U,2023.2.3,Win32,60.60606060606061,,,,,,1467.2537000000475,143.0,5.0,1467.2539000000954,143.0,,,,1470.6355,1471.1337000000478,1470.1189000000954,1470.6355,1468.252600000143,1470.1187999999524,1471.1337000000478,1471.6262999999524,1471.6264000000954,1473.6689000000954,1592.0,1473.6689000000954,5.0,1473.6692999999525,5.0,18.0,168.0,10.0,1.0,0.8,0.3,Time
,,S12,1,male,24,anonymized,Serial_Dependence_U,2023.2.3,Win32,60.60606060606061,,,,,,1473.6696000001432,352.0,5.0,1473.6697000000477,352.0,,,,1477.452,1477.9421000001432,1476.934600000143,1477.4519000000955,1474.6684000000955,1476.9345,1477.9421000001432,1478.4327000000478,1478.4327999999523,1480.7845,1950.0,1480.7846000001432,5.0,1480.7847999999524,5.0,19.0,169.0,2.0,1.0,1.2,0.3,Time
,,S12,1,male,24,anonymized,Serial_Dependence_U,2023.2.3,Win32,60.60606060606061,,,,,,1480.785100000143,255.0,5.0,1480.7852999999525,255.0,,,,1484.9335,1485.4244000000954,1484.4171000001431,1484.9334000000954,1481.7839000000954,1484.4169000000954,1485.4245,1485.9242999999524,1485.9244000000954,1488.9502999999524,2717.0,1488.9502999999524,5.0,1488.9505,5.0,20.0,170.0,19.0,1.0,1.6,0.7,Time
,,S12,1,male,24,anonymized,Serial_Dependence_U,2023.2.3,Win32,60.60606060606061,,,,,,1488.9507999999523,247.0,5.0,1488.9509000000955,247.0,,,,1492.349200000048,1492.84,1491.8327999999524,1492.3491000001432,1489.9662999999523,1491.8326000001432,1492.84,1493.3472000000477,1493.3472000000477,1495.066,1217.0,1495.066100000143,5.0,1495.0662999999524,5.0,21.0,171.0,20.0,1.0,0.8,0.3,Time
,,S12,1,male,24,anonymized,Serial_Dependence_U,2023.2.3,Win32,60.60606060606061,,,,,,1495.0667000000478,277.0,5.0,1495.0667000000478,277.0,,,,1499.2647999999524,1499.7557000000477,1498.7482000000475,1499.2647999999524,1496.0819000000954,1498.748100000143,1499.7557999999524,1500.2629000000954,1500.2629000000954,1502.2817000000475,1633.0,1502.2817000000475,3.0,1502.2820000000002,5.0,22.0,172.0,24.0,1.0,1.6,0.3,Time
,,S12,1,male,24,anonymized,Serial_Dependence_U,2023.2.3,Win32,60.60606060606061,,,,,,1502.2822999999523,208.0,5.0,1502.2824000000955,208.0,,,,1506.014,1506.5047999999524,1505.5105,1506.0139000000954,1503.2774000000954,1505.5104000000954,1506.5047999999524,1507.0046000001432,1507.0046000001432,1509.231,1849.0,1509.231,5.0,1509.2317999999525,5.0,23.0,173.0,27.0,1.0,1.2,0.7,Time
,,S12,1,male,24,anonymized,Serial_Dependence_U,2023.2.3,Win32,60.60606060606061,,,,,,1509.2321000001432,150.0,5.0,1509.2322000000477,150.0,,,,1512.9709000000955,1513.4705,1512.4635,1512.9707999999523,1510.2299000000955,1512.4635,1513.4706000001431,1513.9704000000954,1513.9705,1516.3967000000478,2000.0,1516.3967000000478,5.0,1516.3969000000957,5.0,24.0,174.0,7.0,1.0,1.2,0.7,Time
,,S12,1,male,24,anonymized,Serial_Dependence_U,2023.2.3,Win32,60.60606060606061,,,,,,1516.397200000048,162.0,5.0,1516.3972999999523,162.0,,,,1519.9365,1520.4434000000954,1519.4285,1519.9364000000955,1517.3869000000957,1519.4285,1520.4434000000954,1520.9361000001431,1520.9361000001431,1522.8787000000475,1617.0,1522.8787000000475,5.0,1522.879,5.0,25.0,175.0,6.0,1.0,1.0,0.7,Time
,,S12,1,male,24,anonymized,Serial_Dependence_U,2023.2.3,Win32,60.60606060606061,,,,,,1522.8792000000478,48.0,5.0,1522.8792999999523,48.0,,,,1526.469100000143,1526.9686000001432,1525.9612000000477,1526.469,1523.895,1525.9611000001432,1526.9686000001432,1527.4685000000002,1527.4685000000002,1529.4615,1626.0,1529.461600000143,5.0,1529.4617999999523,5.0,26.0,176.0,11.0,1.0,1.0,0.3,Time
,,S12,1,male,24,anonymized,Serial_Dependence_U,2023.2.3,Win32,60.60606060606061,,,,,,1529.4621000001432,115.0,5.0,1529.4622000000477,115.0,,,,1533.0514000000956,1533.5417999999524,1532.5437000000477,1533.0512999999523,1530.4772000000478,1532.5436000001432,1533.5417999999524,1534.0344000000955,1534.0344000000955,1536.1602000000478,1787.0,1536.1602999999525,5.0,1536.1606000001432,5.0,27.0,177.0,1.0,1.0,1.0,0.3,Time
,,S12,1,male,24,anonymized,Serial_Dependence_U,2023.2.3,Win32,60.60606060606061,,,,,,1536.1609000000954,120.0,5.0,1536.1609000000954,120.0,,,,1539.5004000000954,1540.0001000001432,1538.992600000143,1539.5004000000954,1537.1595,1538.992600000143,1540.0002000000477,1540.5,1540.5,1542.2092000000478,1200.0,1542.2092999999525,5.0,1542.2096000001432,5.0,28.0,178.0,15.0,1.0,0.8,0.7,Time
,,S12,1,male,24,anonymized,Serial_Dependence_U,2023.2.3,Win32,60.60606060606061,,,,,,1542.2097999999523,337.0,5.0,1542.21,337.0,,,,1545.5916000001432,1546.0825,1545.075,1545.5915,1543.2252000000478,1545.075,1546.0825,1546.5825,1546.5826000001432,1548.4921000001432,1583.0,1548.4922000000477,5.0,1548.4925,5.0,29.0,179.0,25.0,1.0,0.8,0.7,Time
,,S12,1,male,24,anonymized,Serial_Dependence_U,2023.2.3,Win32,60.60606060606061,,,,,,1548.4929000000957,108.0,6.0,1550.2487999999523,108.0,s,1.7331000001431676,,1554.007100000143,1554.5052999999525,1553.4907000000478,1554.007,1551.2575000000002,1553.490600000143,1554.5052999999525,1554.998,1554.998,1557.6071000001432,2266.0,1557.6072000000477,5.0,1557.6074000000954,6.0,0.0,180.0,27.0,1.0,1.2,0.7,Time
,,S12,1,male,24,anonymized,Serial_Dependence_U,2023.2.3,Win32,60.60606060606061,,,,,,1557.6077000000478,310.0,6.0,1557.608600000143,310.0,,,,1561.7976000001431,1562.2875,1561.2895,1561.7975,1558.6232000000475,1561.2895,1562.2876000001431,1562.7802999999524,1562.7802999999524,1565.3726000001432,2199.0,1565.3726000001432,5.0,1565.3727999999523,6.0,1.0,181.0,14.0,1.0,1.6,0.3,Time
,,S12,1,male,24,anonymized,Serial_Dependence_U,2023.2.3,Win32,60.60606060606061,,,,,,1565.373100000143,210.0,6.0,1565.3732000000475,210.0,,,,1568.9297000000477,1569.4292999999525,1568.4219000000955,1568.9297000000477,1566.3889000000954,1568.4217999999523,1569.4292999999525,1569.9365,1569.9365,1572.2884000000954,1926.0,1572.2884000000954,5.0,1572.288600000143,6.0,2.0,182.0,26.0,1.0,1.0,0.7,Time
,,S12,1,male,24,anonymized,Serial_Dependence_U,2023.2.3,Win32,60.60606060606061,,,,,,1572.2889000000955,210.0,6.0,1572.2891000001432,210.0,,,,1575.6875,1576.1785,1575.1709000000951,1575.6875,1573.2879000000955,1575.170700000048,1576.1785,1576.6782999999523,1576.6782999999523,1579.0707999999524,2016.0,1579.0707999999524,5.0,1579.071,6.0,3.0,183.0,0.0,1.0,0.8,0.3,Time
,,S12,1,male,24,anonymized,Serial_Dependence_U,2023.2.3,Win32,60.60606060606061,,,,,,1579.0717000000477,80.0,6.0,1579.0717000000477,80.0,,,,1582.4697999999523,1582.9607999999523,1581.949700000048,1582.4697999999523,1580.0867999999523,1581.9496000001432,1582.9609000000955,1583.4607000000478,1583.4607000000478,1586.5197999999525,2550.0,1586.52,5.0,1586.5202000000477,6.0,4.0,184.0,20.0,1.0,0.8,0.3,Time
,,S12,1,male,24,anonymized,Serial_Dependence_U,2023.2.3,Win32,60.60606060606061,,,,,,1586.5204000000954,238.0,6.0,1586.5205,238.0,,,,1590.7019000000955,1591.1929000000955,1590.1852999999523,1590.7019000000955,1587.5357999999524,1590.1852999999523,1591.1929000000955,1591.6929000000955,1591.6929000000955,1594.7687000000478,2760.0,1594.7687000000478,5.0,1594.7691000001432,6.0,5.0,185.0,9.0,1.0,1.6,0.7,Time
,,S12,1,male,24,anonymized,Serial_Dependence_U,2023.2.3,Win32,60.60606060606061,,,,,,1594.7692999999524,15.0,6.0,1594.7694000000954,15.0,,,,1598.3659000000955,1598.858600000143,1597.8512999999523,1598.3657999999523,1595.7846000001432,1597.8512000000478,1598.858600000143,1599.3584000000951,1599.3584000000951,1601.817600000143,2000.0,1601.817600000143,5.0,1601.8177999999525,6.0,6.0,186.0,21.0,1.0,1.0,0.3,Time
,,S12,1,male,24,anonymized,Serial_Dependence_U,2023.2.3,Win32,60.60606060606061,,,,,,1601.8181000001432,69.0,6.0,1601.8182000000477,69.0,,,,1605.2166000001432,1605.7075,1604.7,1605.2166000001432,1602.8336000001432,1604.7,1605.7076000001432,1606.2075,1606.2075,1608.6336000001431,2083.0,1608.6337000000478,5.0,1608.6337999999523,6.0,7.0,187.0,10.0,1.0,0.8,0.3,Time
,,S12,1,male,24,anonymized,Serial_Dependence_U,2023.2.3,Win32,60.60606060606061,,,,,,1608.634,111.0,6.0,1608.6342000000477,111.0,,,,1612.7789000000955,1613.2731000001431,1612.2657000000477,1612.7787999999523,1609.6295,1612.2656000001432,1613.2732000000478,1613.7731000001431,1613.7731000001431,1616.2156000001432,2126.0,1616.2157000000475,5.0,1616.216,6.0,8.0,188.0,29.0,1.0,1.6,0.7,Time
,,S12,1,male,24,anonymized,Serial_Dependence_U,2023.2.3,Win32,60.60606060606061,,,,,,1616.2162000000478,186.0,6.0,1616.2164000000955,186.0,,,,1619.9777999999524,1620.4794000000954,1619.4647000000475,1619.9777999999524,1617.2282999999525,1619.464600000143,1620.4794000000954,1620.9721000001432,1620.9721000001432,1623.1814000000954,1700.0,1623.1814000000954,5.0,1623.1817000000478,6.0,9.0,189.0,17.0,1.0,1.2,0.7,Time
,,S12,1,male,24,anonymized,Serial_Dependence_U,2023.2.3,Win32,60.60606060606061,,,,,,1623.182,337.0,6.0,1623.1822000000475,337.0,,,,1627.1806000001432,1627.6712000000475,1626.6637999999523,1627.1805000000002,1624.1804000000957,1626.6637000000478,1627.6712000000475,1628.171100000143,1628.171100000143,1631.1967999999524,2533.0,1631.1967999999524,5.0,1631.197100000143,6.0,10.0,190.0,3.0,1.0,1.4,0.3,Time
,,S12,1,male,24,anonymized,Serial_Dependence_U,2023.2.3,Win32,60.60606060606061,,,,,,1631.1972999999523,0.0,6.0,1631.1975,0.0,,,,1634.7705,1635.2702000000477,1634.2627000000475,1634.7704000000954,1632.1962999999523,1634.2627000000475,1635.2702000000477,1635.7772999999524,1635.7772999999524,1638.0967999999525,2001.0,1638.0967999999525,5.0,1638.097,6.0,11.0,191.0,1.0,1.0,1.0,0.3,Time
,,S12,1,male,24,anonymized,Serial_Dependence_U,2023.2.3,Win32,60.60606060606061,,,,,,1638.0972999999524,16.0,6.0,1638.0974000000954,16.0,,,,1641.4614000000954,1641.9564000000955,1640.9450000000002,1641.4614000000954,1639.095100000143,1640.9449000000957,1641.9565,1642.4524000000954,1642.4524000000954,1645.6949000000957,2893.0,1645.6950000000002,5.0,1645.6951000001432,6.0,12.0,192.0,25.0,1.0,0.8,0.7,Time
,,S12,1,male,24,anonymized,Serial_Dependence_U,2023.2.3,Win32,60.60606060606061,,,,,,1645.695400000095,281.0,6.0,1645.6955,281.0,,,,1649.2685,1649.768,1648.7607999999525,1649.2684000000954,1646.6941000001432,1648.760600000143,1649.768100000143,1650.2585,1650.2586000001431,1652.661,2033.0,1652.661,5.0,1652.6614000000957,6.0,13.0,193.0,11.0,1.0,1.0,0.3,Time
,,S12,1,male,24,anonymized,Serial_Dependence_U,2023.2.3,Win32,60.60606060606061,,,,,,1652.6617999999523,346.0,6.0,1652.662100000143,346.0,,,,1656.4007000000477,1656.8909000000954,1655.8927999999523,1656.4007000000477,1653.6599000000954,1655.892700000048,1656.8909000000954,1657.387400000095,1657.3875,1660.0265000000002,2217.0,1660.0265000000002,5.0,1660.0267999999523,6.0,14.0,194.0,7.0,1.0,1.2,0.7,Time
,,S12,1,male,24,anonymized,Serial_Dependence_U,2023.2.3,Win32,60.60606060606061,,,,,,1660.027,138.0,6.0,1660.027100000143,138.0,,,,1663.9665,1664.466,1663.4587999999524,1663.9665,1661.0255,1663.4587999999524,1664.466,1664.9659000000954,1664.966,1667.9084000000955,2550.0,1667.9085,5.0,1667.9087999999524,6.0,15.0,195.0,28.0,1.0,1.4,0.7,Time
,,S12,1,male,24,anonymized,Serial_Dependence_U,2023.2.3,Win32,60.60606060606061,,,,,,1667.909100000143,342.0,6.0,1667.9092999999525,342.0,,,,1671.2419000000957,1671.731600000143,1670.741,1671.2417000000478,1668.9077999999524,1670.7407999999523,1671.731600000143,1672.231600000143,1672.231600000143,1675.3074000000954,2770.0,1675.307600000143,5.0,1675.3077999999523,6.0,16.0,196.0,5.0,1.0,0.8,0.7,Time
,,S12,1,male,24,anonymized,Serial_Dependence_U,2023.2.3,Win32,60.60606060606061,,,,,,1675.308,219.0,6.0,1675.3082999999524,219.0,,,,1679.4896000001431,1679.9805,1678.9730000000002,1679.4895,1676.3067000000478,1678.9729000000957,1679.9805,1680.4804000000954,1680.4805,1683.8232999999525,3042.0,1683.8234000000955,5.0,1683.8236000001432,6.0,17.0,197.0,24.0,1.0,1.6,0.3,Time
,,S12,1,male,24,anonymized,Serial_Dependence_U,2023.2.3,Win32,60.60606060606061,,,,,,1683.8239000000954,104.0,6.0,1683.824,104.0,,,,1688.0199000000955,1688.5127000000475,1687.5052000000478,1688.0199000000955,1684.8390000000002,1687.505100000143,1688.5127000000475,1689.0127000000475,1689.0127000000475,1691.8381000001432,2450.0,1691.8382000000477,5.0,1691.8382999999524,6.0,18.0,198.0,4.0,1.0,1.6,0.3,Time
,,S12,1,male,24,anonymized,Serial_Dependence_U,2023.2.3,Win32,60.60606060606061,,,,,,1691.838600000143,138.0,6.0,1691.8387999999525,138.0,,,,1695.3789000000954,1695.878200000048,1694.8707999999524,1695.3787999999524,1692.837600000143,1694.8707000000477,1695.8782999999523,1696.378200000048,1696.3782999999523,1698.9874000000957,2300.0,1698.9874000000957,5.0,1698.9877999999524,6.0,19.0,199.0,6.0,1.0,1.0,0.7,Time
,,S12,1,male,24,anonymized,Serial_Dependence_U,2023.2.3,Win32,60.60606060606061,,,,,,1698.988100000143,246.0,6.0,1698.9882000000478,246.0,,,,1702.8032000000478,1703.2939000000954,1702.2865000000002,1702.803100000143,1700.0035,1702.2865000000002,1703.2939000000954,1703.7844000000955,1703.7844000000955,1705.7699000000955,1633.0,1705.77,5.0,1705.7704000000954,6.0,20.0,200.0,2.0,1.0,1.2,0.3,Time
,,S12,1,male,24,anonymized,Serial_Dependence_U,2023.2.3,Win32,60.60606060606061,,,,,,1705.770600000143,102.0,6.0,1705.7707999999525,102.0,,,,1709.7104000000954,1710.2002000000475,1709.2022000000477,1709.7102999999524,1706.7604000000954,1709.202,1710.2002000000475,1710.6929000000955,1710.6929000000955,1713.5687000000478,2516.0,1713.5687000000478,5.0,1713.5690000000002,6.0,21.0,201.0,18.0,1.0,1.4,0.7,Time
,,S12,1,male,24,anonymized,Serial_Dependence_U,2023.2.3,Win32,60.60606060606061,,,,,,1713.5692999999524,177.0,6.0,1713.5695,177.0,,,,1717.3422999999525,1717.8417000000477,1716.834700000048,1717.3422999999525,1714.5681000001432,1716.8346000001432,1717.8417999999524,1718.3322999999525,1718.3324000000955,1721.6012000000478,2883.0,1721.6012000000478,5.0,1721.6014000000955,6.0,22.0,202.0,22.0,1.0,1.2,0.3,Time
,,S12,1,male,24,anonymized,Serial_Dependence_U,2023.2.3,Win32,60.60606060606061,,,,,,1721.6017000000477,242.0,6.0,1721.6017999999524,242.0,,,,1725.3997000000477,1725.8981000001431,1724.8834000000954,1725.3996000001432,1722.6169000000957,1724.8832999999524,1725.8981000001431,1726.3906000001432,1726.3906000001432,1730.35,2950.0,1730.3501000001431,5.0,1730.3502999999523,6.0,23.0,203.0,12.0,1.0,1.2,0.3,Time
,,S12,1,male,24,anonymized,Serial_Dependence_U,2023.2.3,Win32,60.60606060606061,,,,,,1730.3507000000477,253.0,6.0,1730.351,253.0,,,,1733.8899000000954,1734.3967000000478,1733.382,1733.8899000000954,1731.3490000000002,1733.3819000000954,1734.3969000000957,1734.8967999999525,1734.8967999999525,1737.582,2316.0,1737.582100000143,5.0,1737.5825,6.0,24.0,204.0,16.0,1.0,1.0,0.7,Time
,,S12,1,male,24,anonymized,Serial_Dependence_U,2023.2.3,Win32,60.60606060606061,,,,,,1737.5827000000477,318.0,6.0,1737.5829000000954,318.0,,,,1741.572100000143,1742.0717000000477,1741.0642999999525,1741.572100000143,1738.5980000000002,1741.0642999999525,1742.0717000000477,1742.5790000000002,1742.5790000000002,1745.3474000000954,2366.0,1745.3474000000954,5.0,1745.3477000000478,6.0,25.0,205.0,13.0,1.0,1.4,0.3,Time
,,S12,1,male,24,anonymized,Serial_Dependence_U,2023.2.3,Win32,60.60606060606061,,,,,,1745.3480000000002,144.0,6.0,1745.3481000001432,144.0,,,,1748.6877999999524,1749.1874000000955,1748.1797999999524,1748.6877999999524,1746.3469000000955,1748.1797999999524,1749.1875,1749.6874000000955,1749.6874000000955,1752.1135000000002,1953.0,1752.1135000000002,5.0,1752.1142999999524,6.0,26.0,206.0,15.0,1.0,0.8,0.7,Time
,,S12,1,male,24,anonymized,Serial_Dependence_U,2023.2.3,Win32,60.60606060606061,,,,,,1752.1146000001431,306.0,6.0,1752.1147999999523,306.0,,,,1756.2789000000955,1756.7697999999525,1755.762200000048,1756.2787999999523,1753.1291000001431,1755.762200000048,1756.7697999999525,1757.269600000143,1757.269600000143,1759.9624000000954,2267.0,1759.9625,5.0,1759.9627999999525,6.0,27.0,207.0,19.0,1.0,1.6,0.7,Time
,,S12,1,male,24,anonymized,Serial_Dependence_U,2023.2.3,Win32,60.60606060606061,,,,,,1759.963,93.0,6.0,1759.9632999999524,93.0,,,,1763.9612000000477,1764.4519000000955,1763.4447000000478,1763.9611000001432,1760.978100000143,1763.4447000000478,1764.4519000000955,1764.9519000000955,1764.952,1766.978,1533.0,1766.978100000143,4.0,1766.9782999999525,6.0,28.0,208.0,23.0,1.0,1.4,0.3,Time
,,S12,1,male,24,anonymized,Serial_Dependence_U,2023.2.3,Win32,60.60606060606061,,,,,,1766.9785000000002,222.0,6.0,1766.978700000048,222.0,,,,1770.9435,1771.4342999999524,1770.427,1770.9435,1767.9939000000954,1770.4267999999524,1771.4342999999524,1771.938100000143,1771.938100000143,1774.743400000095,2341.0,1774.7435,5.0,1774.7437999999524,6.0,29.0,209.0,8.0,1.0,1.4,0.7,Time
,,S12,1,male,24,anonymized,Serial_Dependence_U,2023.2.3,Win32,60.60606060606061,,,,,,1774.744,133.0,7.0,1776.267100000143,133.0,s,1.499600000142891,,1780.2667999999524,1780.757,1779.757100000143,1780.2667999999524,1777.2927000000475,1779.757,1780.757,1781.2497000000478,1781.2497000000478,1784.3425,2683.0,1784.3425,5.0,1784.3427999999524,7.0,0.0,210.0,3.0,1.0,1.4,0.3,Time
,,S12,1,male,24,anonymized,Serial_Dependence_U,2023.2.3,Win32,60.60606060606061,,,,,,1784.343100000143,249.0,7.0,1784.3444000000954,249.0,,,,1788.0914000000955,1788.5819000000954,1787.5744000000957,1788.0912999999523,1785.3412999999523,1787.5744000000957,1788.582,1789.0819000000954,1789.082,1792.1247000000478,2716.0,1792.1247000000478,5.0,1792.1251000001432,7.0,1.0,211.0,7.0,1.0,1.2,0.7,Time
,,S12,1,male,24,anonymized,Serial_Dependence_U,2023.2.3,Win32,60.60606060606061,,,,,,1792.1254000000954,167.0,7.0,1792.1257000000478,167.0,,,,1795.8979000000954,1796.397600000143,1795.39,1795.8977999999524,1793.1236000001431,1795.39,1796.397600000143,1796.888,1796.888,1800.156600000143,2800.0,1800.156600000143,5.0,1800.1567999999525,7.0,2.0,212.0,2.0,1.0,1.2,0.3,Time
,,S12,1,male,24,anonymized,Serial_Dependence_U,2023.2.3,Win32,60.60606060606061,,,,,,1800.1571000001431,31.0,7.0,1800.157200000048,31.0,,,,1803.496700000048,1804.003600000143,1802.988900000096,1803.4966000001432,1801.1525,1802.9887999999523,1804.003700000048,1804.503700000048,1804.503700000048,1807.988900000096,3026.0,1807.988900000096,5.0,1807.9894000000957,7.0,3.0,213.0,5.0,1.0,0.8,0.7,Time
,,S12,1,male,24,anonymized,Serial_Dependence_U,2023.2.3,Win32,60.60606060606061,,,,,,1807.989700000048,138.0,7.0,1807.9899000000955,138.0,,,,1811.9789000000956,1812.4786000001432,1811.471200000048,1811.9789000000956,1809.0049000000956,1811.471,1812.4786000001432,1812.9786000001432,1812.9786000001432,1816.521200000048,3120.0,1816.5212999999524,5.0,1816.5219000000957,7.0,4.0,214.0,13.0,1.0,1.4,0.3,Time
,,S12,1,male,24,anonymized,Serial_Dependence_U,2023.2.3,Win32,60.60606060606061,,,,,,1816.522200000048,304.0,7.0,1816.5222999999523,304.0,,,,1820.3036000001432,1820.794,1819.7866000001432,1820.3035,1817.520200000048,1819.7865,1820.794100000143,1821.2977999999523,1821.2979000000955,1824.5864000000956,2909.0,1824.5865,5.0,1824.586700000048,7.0,5.0,215.0,22.0,1.0,1.2,0.3,Time
,,S12,1,male,24,anonymized,Serial_Dependence_U,2023.2.3,Win32,60.60606060606061,,,,,,1824.587,295.0,7.0,1824.587200000048,295.0,,,,1828.1599000000956,1828.6596000001432,1827.6522999999524,1828.1599000000956,1825.5857999999523,1827.6522999999524,1828.6596000001432,1829.166700000048,1829.1667999999524,1831.902100000143,2316.0,1831.902100000143,5.0,1831.9024000000957,7.0,6.0,216.0,1.0,1.0,1.0,0.3,Time
,,S12,1,male,24,anonymized,Serial_Dependence_U,2023.2.3,Win32,60.60606060606061,,,,,,1831.902700000048,195.0,7.0,1831.9027999999523,195.0,,,,1835.2589000000955,1835.752700000048,1834.751200000048,1835.2587999999523,1832.918,1834.7511000001432,1835.752700000048,1836.2419000000957,1836.2419000000957,1839.1344000000956,2416.0,1839.1345,5.0,1839.134700000048,7.0,7.0,217.0,15.0,1.0,0.8,0.7,Time
,,S12,1,male,24,anonymized,Serial_Dependence_U,2023.2.3,Win32,60.60606060606061,,,,,,1839.135,45.0,7.0,1839.1352999999524,45.0,,,,1842.6914000000957,1843.190900000096,1842.183600000143,1842.6914000000957,1840.1502999999525,1842.183600000143,1843.191,1843.690900000096,1843.690900000096,1846.8171000001432,2750.0,1846.817200000048,5.0,1846.8175,7.0,8.0,218.0,16.0,1.0,1.0,0.7,Time
,,S12,1,male,24,anonymized,Serial_Dependence_U,2023.2.3,Win32,60.60606060606061,,,,,,1846.817700000048,109.0,7.0,1846.818,109.0,,,,1850.2324000000956,1850.7232999999524,1849.716,1850.2322999999524,1847.832700000048,1849.716,1850.7232999999524,1851.223200000048,1851.223200000048,1851.632700000048,17.0,1851.632700000048,1.0,1851.633,7.0,9.0,219.0,20.0,1.0,0.8,0.3,Time
,,S12,1,male,24,anonymized,Serial_Dependence_U,2023.2.3,Win32,60.60606060606061,,,,,,1851.6334000000957,230.0,7.0,1851.6335,230.0,,,,1854.9984000000957,1855.489200000048,1854.482,1854.9984000000957,1852.6486000001432,1854.482,1855.489200000048,1855.989200000048,1855.989200000048,1858.5315,1933.0,1858.5315,5.0,1858.5317999999525,7.0,10.0,220.0,25.0,1.0,0.8,0.7,Time
,,S12,1,male,24,anonymized,Serial_Dependence_U,2023.2.3,Win32,60.60606060606061,,,,,,1858.5321000001431,277.0,7.0,1858.5321000001431,277.0,,,,1862.672,1863.1715,1862.164600000143,1862.672,1859.531200000048,1862.1645,1863.1715,1863.6716000001431,1863.6716000001431,1864.0815,1.0,1864.0815,1.0,1864.0817999999524,7.0,11.0,221.0,19.0,1.0,1.6,0.7,Time
,,S12,1,male,24,anonymized,Serial_Dependence_U,2023.2.3,Win32,60.60606060606061,,,,,,1864.0819000000956,143.0,7.0,1864.082100000143,143.0,,,,1867.654700000048,1868.154200000048,1867.1467999999525,1867.654700000048,1865.0767999999523,1867.146600000143,1868.154200000048,1868.654,1868.654,1871.814100000143,2283.0,1871.814100000143,5.0,1871.8144000000957,7.0,12.0,222.0,11.0,1.0,1.0,0.3,Time
,,S12,1,male,24,anonymized,Serial_Dependence_U,2023.2.3,Win32,60.60606060606061,,,,,,1871.8149000000956,128.0,7.0,1871.8152999999525,128.0,,,,1875.353700000048,1875.853,1874.8459000000955,1875.3536000001432,1872.8127999999524,1874.845700000048,1875.853100000143,1876.360200000048,1876.360200000048,1878.7629000000957,1900.0,1878.763,5.0,1878.7632999999523,7.0,13.0,223.0,26.0,1.0,1.0,0.7,Time
,,S12,1,male,24,anonymized,Serial_Dependence_U,2023.2.3,Win32,60.60606060606061,,,,,,1878.763700000048,184.0,7.0,1878.7637999999524,184.0,,,,1882.907700000048,1883.4019000000956,1882.3945,1882.9075,1879.7615,1882.3945,1883.4019000000956,1883.8924000000957,1883.8925,1886.961,2666.0,1886.961,5.0,1886.961200000048,7.0,14.0,224.0,29.0,1.0,1.6,0.7,Time
,,S12,1,male,24,anonymized,Serial_Dependence_U,2023.2.3,Win32,60.60606060606061,,,,,,1886.9615,38.0,7.0,1886.961700000048,38.0,,,,1890.3605,1890.8509000000956,1889.8436000001432,1890.3604000000955,1887.977,1889.8435,1890.851,1891.354700000048,1891.3547999999523,1893.8767999999525,2116.0,1893.8767999999525,5.0,1893.8771000001432,7.0,15.0,225.0,10.0,1.0,0.8,0.3,Time
,,S12,1,male,24,anonymized,Serial_Dependence_U,2023.2.3,Win32,60.60606060606061,,,,,,1893.8774000000956,234.0,7.0,1893.8775,234.0,,,,1897.417,1897.916700000048,1896.9092999999525,1897.4169000000957,1894.874200000048,1896.909200000048,1897.916700000048,1898.416600000143,1898.416600000143,1901.375600000143,2533.0,1901.375700000048,5.0,1901.3759000000955,7.0,16.0,226.0,6.0,1.0,1.0,0.7,Time
,,S12,1,male,24,anonymized,Serial_Dependence_U,2023.2.3,Win32,60.60606060606061,,,,,,1901.376200000048,72.0,7.0,1901.3764000000956,72.0,,,,1904.9747999999524,1905.4656000001432,1904.458,1904.974700000048,1902.391700000048,1904.4579000000956,1905.4656000001432,1905.9655,1905.9655,1909.174600000143,2750.0,1909.174700000048,5.0,1909.1749000000957,7.0,17.0,227.0,21.0,1.0,1.0,0.3,Time
,,S12,1,male,24,anonymized,Serial_Dependence_U,2023.2.3,Win32,60.60606060606061,,,,,,1909.175200000048,83.0,7.0,1909.1752999999524,83.0,,,,1913.173600000143,1913.6644000000956,1912.6567999999525,1913.1734000000956,1910.1906000001431,1912.6567999999525,1913.6644000000956,1914.1642999999524,1914.1644000000956,1916.657200000048,2093.0,1916.6574000000955,5.0,1916.6575,7.0,18.0,228.0,23.0,1.0,1.4,0.3,Time
,,S12,1,male,24,anonymized,Serial_Dependence_U,2023.2.3,Win32,60.60606060606061,,,,,,1916.6577999999524,286.0,7.0,1916.6579000000957,286.0,,,,1920.8391000001432,1921.3301000001431,1920.3225,1920.839,1917.6561000001432,1920.3224000000955,1921.3301000001431,1921.8301000001431,1921.8301000001431,1924.5059000000956,2183.0,1924.506,5.0,1924.5062999999525,7.0,19.0,229.0,24.0,1.0,1.6,0.3,Time
,,S12,1,male,24,anonymized,Serial_Dependence_U,2023.2.3,Win32,60.60606060606061,,,,,,1924.5066000001432,45.0,7.0,1924.5067999999524,45.0,,,,1928.468100000143,1928.962200000048,1927.9547999999525,1928.468,1925.5219000000957,1927.954700000048,1928.9622999999524,1929.462200000048,1929.462200000048,1932.2712999999524,2416.0,1932.2712999999524,5.0,1932.271700000048,7.0,20.0,230.0,8.0,1.0,1.4,0.7,Time
,,S12,1,male,24,anonymized,Serial_Dependence_U,2023.2.3,Win32,60.60606060606061,,,,,,1932.272,58.0,7.0,1932.2722999999523,58.0,,,,1936.4202999999525,1936.911200000048,1935.9036000001431,1936.420200000048,1933.270700000048,1935.9035,1936.911200000048,1937.4184000000955,1937.4185,1939.7202999999524,1816.0,1939.7204000000957,4.0,1939.720700000048,7.0,21.0,231.0,9.0,1.0,1.6,0.7,Time
,,S12,1,male,24,anonymized,Serial_Dependence_U,2023.2.3,Win32,60.60606060606061,,,,,,1939.721,268.0,7.0,1939.7211000001432,268.0,,,,1943.9105,1944.410100000143,1943.4027999999523,1943.9105,1940.7365,1943.4026000001431,1944.410100000143,1944.91,1944.910100000143,1948.369,2750.0,1948.3691000001431,5.0,1948.3692999999523,7.0,22.0,232.0,4.0,1.0,1.6,0.3,Time
,,S12,1,male,24,anonymized,Serial_Dependence_U,2023.2.3,Win32,60.60606060606061,,,,,,1948.369700000048,86.0,7.0,1948.3697999999524,86.0,,,,1952.1181000001432,1952.609,1951.6015,1952.118,1949.3647999999523,1951.6014000000955,1952.609,1953.1087999999525,1953.1089000000957,1956.018200000048,2300.0,1956.018200000048,5.0,1956.0184000000957,7.0,23.0,233.0,27.0,1.0,1.2,0.7,Time
,,S12,1,male,24,anonymized,Serial_Dependence_U,2023.2.3,Win32,60.60606060606061,,,,,,1956.0187999999523,184.0,7.0,1956.0189000000955,184.0,,,,1959.3916000001432,1959.891200000048,1958.883700000048,1959.3915,1957.0172999999525,1958.8836000001431,1959.891200000048,1960.381700000048,1960.381700000048,1963.2004000000957,2383.0,1963.2005,5.0,1963.200700000048,7.0,24.0,234.0,0.0,1.0,0.8,0.3,Time
,,S12,1,male,24,anonymized,Serial_Dependence_U,2023.2.3,Win32,60.60606060606061,,,,,,1963.2009000000955,341.0,7.0,1963.2011000001432,341.0,,,,1967.1492999999523,1967.640200000048,1966.6292999999523,1967.149200000048,1964.1961000001431,1966.629200000048,1967.640200000048,1968.1306000001432,1968.1306000001432,1971.0825,2466.0,1971.0825,5.0,1971.0827999999524,7.0,25.0,235.0,28.0,1.0,1.4,0.7,Time
,,S12,1,male,24,anonymized,Serial_Dependence_U,2023.2.3,Win32,60.60606060606061,,,,,,1971.083200000048,226.0,7.0,1971.0832999999525,226.0,,,,1974.872700000048,1975.3725,1974.3649000000955,1974.872700000048,1972.0899000000957,1974.3647999999523,1975.3725,1975.8725,1975.8725,1979.265,2770.0,1979.265,5.0,1979.265200000048,7.0,26.0,236.0,12.0,1.0,1.2,0.3,Time
,,S12,1,male,24,anonymized,Serial_Dependence_U,2023.2.3,Win32,60.60606060606061,,,,,,1979.2654000000955,232.0,7.0,1979.2656000001432,232.0,,,,1983.0384000000956,1983.538,1982.530600000143,1983.0384000000956,1980.2809000000957,1982.5305,1983.5381000001432,1984.038,1984.038,1987.5469000000955,2916.0,1987.5469000000955,5.0,1987.5472999999524,7.0,27.0,237.0,17.0,1.0,1.2,0.7,Time
,,S12,1,male,24,anonymized,Serial_Dependence_U,2023.2.3,Win32,60.60606060606061,,,,,,1987.5475,297.0,7.0,1987.547700000048,297.0,,,,1991.7142999999523,1992.2035,1991.2125,1991.7141000001432,1988.546100000143,1991.2125,1992.2035,1992.7034000000956,1992.7034000000956,1996.012600000143,2776.0,1996.012700000048,5.0,1996.0131000001431,7.0,28.0,238.0,14.0,1.0,1.6,0.3,Time
,,S12,1,male,24,anonymized,Serial_Dependence_U,2023.2.3,Win32,60.60606060606061,,,,,,1996.0134000000955,207.0,7.0,1996.0135,207.0,,,,1999.978,2000.469,1999.4615,1999.978,1997.0284000000956,1999.4614000000956,2000.469,2000.9689000000956,2000.9689000000956,2003.9796000001431,2534.0,2003.9796000001431,5.0,2003.9799000000955,7.0,29.0,239.0,18.0,1.0,1.4,0.7,Time
,,S12,1,male,24,anonymized,Serial_Dependence_U,2023.2.3,Win32,60.60606060606061,,,,,,2003.9804000000956,250.0,8.0,2014.2837999999524,250.0,s,10.287799999952313,,2018.4667999999524,2018.9734000000956,2017.9587999999524,2018.466700000048,2015.2926000001432,2017.958700000048,2018.9735,2019.466200000048,2019.4662999999523,2023.9425,2617.0,2023.9425,5.0,2023.942700000048,8.0,0.0,240.0,24.0,1.0,1.6,0.3,Time
,,S12,1,male,24,anonymized,Serial_Dependence_U,2023.2.3,Win32,60.60606060606061,,,,,,2023.9429000000955,210.0,8.0,2023.9441000001432,210.0,,,,2027.691,2028.189,2027.1742999999524,2027.6907999999523,2024.9412999999524,2027.174200000048,2028.189,2028.6816000001431,2028.681700000048,2031.891,2792.0,2031.891,5.0,2031.8912999999525,8.0,1.0,241.0,7.0,1.0,1.2,0.7,Time
,,S12,1,male,24,anonymized,Serial_Dependence_U,2023.2.3,Win32,60.60606060606061,,,,,,2031.8916000001432,25.0,8.0,2031.8917999999524,25.0,,,,2035.4399000000956,2035.9306000001432,2034.923200000048,2035.4397999999524,2032.89,2034.9231000001432,2035.9306000001432,2036.421100000143,2036.421100000143,2036.841,1.0,2036.841,1.0,2036.8412999999523,8.0,2.0,242.0,6.0,1.0,1.0,0.7,Time
,,S12,1,male,24,anonymized,Serial_Dependence_U,2023.2.3,Win32,60.60606060606061,,,,,,2036.8415,345.0,8.0,2036.841700000048,345.0,,,,2040.1892999999527,2040.679900000096,2039.6725,2040.189200000048,2037.8395000000005,2039.672400000096,2040.6800000000003,2041.179900000096,2041.179900000096,2043.973400000096,2384.0,2043.973400000096,5.0,2043.973700000048,8.0,3.0,243.0,25.0,1.0,0.8,0.7,Time
,,S12,1,male,24,anonymized,Serial_Dependence_U,2023.2.3,Win32,60.60606060606061,,,,,,2043.974,311.0,8.0,2043.974200000048,311.0,,,,2047.554900000096,2048.045700000048,2047.038400000096,2047.5547999999528,2044.9717999999525,2047.0382999999524,2048.045700000048,2048.5455,2048.5455,2050.4550000000004,1533.0,2050.4550000000004,5.0,2050.455299999953,8.0,4.0,244.0,1.0,1.0,1.0,0.3,Time
,,S12,1,male,24,anonymized,Serial_Dependence_U,2023.2.3,Win32,60.60606060606061,,,,,,2050.4555000000005,171.0,8.0,2050.455700000048,171.0,,,,2053.9950000000003,2054.4946000001432,2053.487,2053.994900000096,2051.454,2053.487,2054.4946000001432,2054.9946000001432,2054.994700000048,2057.304,1916.0,2057.304,5.0,2057.304200000048,8.0,5.0,245.0,16.0,1.0,1.0,0.7,Time
,,S12,1,male,24,anonymized,Serial_Dependence_U,2023.2.3,Win32,60.60606060606061,,,,,,2057.3045,192.0,8.0,2057.304700000048,192.0,,,,2061.460600000143,2061.9602999999524,2060.952900000096,2061.460600000143,2058.303100000144,2060.952900000096,2061.9602999999524,2062.460200000048,2062.460200000048,2065.0365,2160.0,2065.0365,5.0,2065.036700000048,8.0,6.0,246.0,9.0,1.0,1.6,0.7,Time
,,S12,1,male,24,anonymized,Serial_Dependence_U,2023.2.3,Win32,60.60606060606061,,,,,,2065.036900000096,92.0,8.0,2065.0370000000003,92.0,,,,2069.0182999999524,2069.511299999953,2068.501900000096,2069.0182999999524,2066.052100000144,2068.5017999999527,2069.511299999953,2070.0091000001435,2070.009200000048,2072.6522999999524,2150.0,2072.652400000096,5.0,2072.652600000143,8.0,7.0,247.0,8.0,1.0,1.4,0.7,Time
,,S12,1,male,24,anonymized,Serial_Dependence_U,2023.2.3,Win32,60.60606060606061,,,,,,2072.653,319.0,8.0,2072.653200000048,319.0,,,,2076.0009000000955,2076.4916000001435,2075.4840000000004,2076.0007999999525,2073.6511000001437,2075.4840000000004,2076.4916000001435,2076.9952999999527,2076.995400000096,2079.117400000096,1617.0,2079.117400000096,5.0,2079.1177999999527,8.0,8.0,248.0,15.0,1.0,0.8,0.7,Time
,,S12,1,male,24,anonymized,Serial_Dependence_U,2023.2.3,Win32,60.60606060606061,,,,,,2079.118400000096,80.0,8.0,2079.118700000048,80.0,,,,2083.0665000000004,2083.561100000143,2082.55,2083.066400000096,2080.1167999999525,2082.5497999999525,2083.561100000143,2084.057200000048,2084.057200000048,2086.5505000000003,2034.0,2086.5505000000003,5.0,2086.550700000048,8.0,9.0,249.0,18.0,1.0,1.4,0.7,Time
,,S12,1,male,24,anonymized,Serial_Dependence_U,2023.2.3,Win32,60.60606060606061,,,,,,2086.5510000000004,358.0,8.0,2086.5511000001434,358.0,,,,2090.723200000048,2091.2282999999525,2090.2154000000955,2090.7231000001434,2087.562200000048,2090.215200000048,2091.2282999999525,2091.722900000096,2091.722900000096,2094.4652999999525,2430.0,2094.4652999999525,5.0,2094.4656000001432,8.0,10.0,250.0,19.0,1.0,1.6,0.7,Time
,,S12,1,male,24,anonymized,Serial_Dependence_U,2023.2.3,Win32,60.60606060606061,,,,,,2094.465900000096,168.0,8.0,2094.4660000000003,168.0,,,,2098.014200000048,2098.505100000144,2097.497700000048,2098.014200000048,2095.461,2097.4976000001434,2098.505200000048,2099.012400000096,2099.012400000096,2101.5144000000955,2086.0,2101.5145,5.0,2101.514700000048,8.0,11.0,251.0,26.0,1.0,1.0,0.7,Time
,,S12,1,male,24,anonymized,Serial_Dependence_U,2023.2.3,Win32,60.60606060606061,,,,,,2101.514900000096,175.0,8.0,2101.515100000144,175.0,,,,2105.5045000000005,2106.004100000144,2104.996700000048,2105.504400000096,2102.530400000096,2104.996700000048,2106.004100000144,2106.504100000144,2106.504100000144,2109.9130000000005,2944.0,2109.9130000000005,5.0,2109.9132999999524,8.0,12.0,252.0,23.0,1.0,1.4,0.3,Time
,,S12,1,male,24,anonymized,Serial_Dependence_U,2023.2.3,Win32,60.60606060606061,,,,,,2109.9135,286.0,8.0,2109.9137999999525,286.0,,,,2113.870200000048,2114.369700000048,2113.3621000001435,2113.870100000144,2110.929,2113.3621000001435,2114.369700000048,2114.8696000001432,2114.869700000048,2118.0130000000004,2760.0,2118.0130000000004,5.0,2118.013200000048,8.0,13.0,253.0,28.0,1.0,1.4,0.7,Time
,,S12,1,male,24,anonymized,Serial_Dependence_U,2023.2.3,Win32,60.60606060606061,,,,,,2118.0135000000005,212.0,8.0,2118.013700000048,212.0,,,,2122.1775,2122.6684000000955,2121.6741000001434,2122.1775,2119.011400000096,2121.6740000000004,2122.6685,2123.1684000000955,2123.1684000000955,2126.4111000001435,2749.0,2126.4111000001435,5.0,2126.4114000000955,8.0,14.0,254.0,14.0,1.0,1.6,0.3,Time
