Scale_setup.started,Scale_setup.stopped,participant,expid,session,sex,age,date,expName,psychopyVersion,OS,frameRate,PROLIFIC_PID,STUDY_ID,SESSION_ID,screen_scale_keys.started,screen_scale_keys.stopped,X Scale,Y Scale,rectangel_keys.started,rectangel_keys.stopped,Intro.started,Intro.stopped,key_resp_2.keys,key_resp_2.rt,key_resp_2.duration,block.started,Block_id,block.stopped,Block_resp_2.keys,Block_resp_2.rt,Block_resp_2.duration,ITI.started,ITI.stopped,Mask_2.started,Mask_2.stopped,M2.started,direction,M2.stopped,Cue.started,Cue.stopped,Response.started,Response.stopped,keyDuration,Feedback_Time.started,FeedbackID_T,Feedback_Time.stopped,trials.thisRepN,trials.thisTrialN,trials.thisN,trials.thisIndex,trials.ran,TimeDur,Coherence1,TrialType
0.0005,0.001,S12,372056,001,Male,25,2025-05-21_02h48.24.782,Serial_Dependence_U,2023.2.3,Win32,60.24096386,6769cc78e79f747dda9c7b8f,682cd3dfea4e15896da7c0a6,682d85156f0cae38cb521714,,,,,,,,,,,,,,,,,,,,,,,,,,,,,,,,,,,,,,,,
,,S12,372056,001,Male,25,2025-05-21_02h48.24.782,Serial_Dependence_U,2023.2.3,Win32,60.24096386,6769cc78e79f747dda9c7b8f,682cd3dfea4e15896da7c0a6,682d85156f0cae38cb521714,0.0044,16.9065,0.0502,0.0504,16.9074,21.7212,21.7224,46.8882,space,25.1002,,,,,,,,,,,,,,,,,,,,,,,,,,,,,,
,,S12,372056,001,Male,25,2025-05-21_02h48.24.782,Serial_Dependence_U,2023.2.3,Win32,60.24096386,6769cc78e79f747dda9c7b8f,682cd3dfea4e15896da7c0a6,682d85156f0cae38cb521714,,,,,,,,,,,,46.903,0,50.8501,s,3.9073,,53.3989,53.896,52.8832,53.3986,51.868,15,52.883,53.8962,54.3959,54.3975,56.4288,1631.6,56.4302,5,57.4256,0,0,0,11,1,1,0.3,Time
,,S12,372056,001,Male,25,2025-05-21_02h48.24.782,Serial_Dependence_U,2023.2.3,Win32,60.24096386,6769cc78e79f747dda9c7b8f,682cd3dfea4e15896da7c0a6,682d85156f0cae38cb521714,,,,,,,,,,,,57.428,0,57.4319,,,,60.374,60.8714,59.8583,60.3735,58.4431,63,59.8581,60.8715,61.3713,61.3715,67.3831,9999,67.3835,0,68.3798,0,1,1,3,1,1.4,0.3,Time
,,S12,372056,001,Male,25,2025-05-21_02h48.24.782,Serial_Dependence_U,2023.2.3,Win32,60.24096386,6769cc78e79f747dda9c7b8f,682cd3dfea4e15896da7c0a6,682d85156f0cae38cb521714,,,,,,,,,,,,68.3823,0,68.3829,,,,70.7291,71.2262,70.213,70.7289,69.3972,163,70.2127,71.2264,71.7257,71.7259,77.7375,9999,77.738,0,78.7349,0,2,2,25,1,0.8,0.7,Time
,,S12,372056,001,Male,25,2025-05-21_02h48.24.782,Serial_Dependence_U,2023.2.3,Win32,60.24096386,6769cc78e79f747dda9c7b8f,682cd3dfea4e15896da7c0a6,682d85156f0cae38cb521714,,,,,,,,,,,,78.7378,0,78.739,,,,81.087,81.5813,80.5681,81.0852,79.7526,15,80.5674,81.5814,82.0827,82.0829,87.6438,5114.9,87.6449,5,88.6401,0,3,3,10,1,0.8,0.3,Time
,,S12,372056,001,Male,25,2025-05-21_02h48.24.782,Serial_Dependence_U,2023.2.3,Win32,60.24096386,6769cc78e79f747dda9c7b8f,682cd3dfea4e15896da7c0a6,682d85156f0cae38cb521714,,,,,,,,,,,,88.642,0,88.6433,,,,91.7882,92.2856,91.272,91.7879,89.6573,322,91.2718,92.2856,92.7852,92.7853,97.2482,4444,97.2492,5,98.2458,0,4,4,4,1,1.6,0.3,Time
,,S12,372056,001,Male,25,2025-05-21_02h48.24.782,Serial_Dependence_U,2023.2.3,Win32,60.24096386,6769cc78e79f747dda9c7b8f,682cd3dfea4e15896da7c0a6,682d85156f0cae38cb521714,,,,,,,,,,,,98.2479,0,98.2485,,,,100.596,101.0923,100.0795,100.5955,99.2629,70,100.0784,101.0924,101.5918,101.592,102.5086,899,102.5096,4,103.5065,0,5,5,15,1,0.8,0.7,Time
,,S12,372056,001,Male,25,2025-05-21_02h48.24.782,Serial_Dependence_U,2023.2.3,Win32,60.24096386,6769cc78e79f747dda9c7b8f,682cd3dfea4e15896da7c0a6,682d85156f0cae38cb521714,,,,,,,,,,,,103.509,0,103.5103,,,,106.0551,106.5526,105.5391,106.055,104.5237,143,105.5389,106.553,107.052,107.052,107.7363,666.4,107.7366,1,108.7337,0,6,6,26,1,1,0.7,Time
,,S12,372056,001,Male,25,2025-05-21_02h48.24.782,Serial_Dependence_U,2023.2.3,Win32,60.24096386,6769cc78e79f747dda9c7b8f,682cd3dfea4e15896da7c0a6,682d85156f0cae38cb521714,,,,,,,,,,,,108.7363,0,108.7375,,,,111.8819,112.3796,111.366,111.8818,109.751,297,111.3658,112.3797,112.8802,112.8804,115.4608,2553,115.4613,5,116.4578,0,7,7,29,1,1.6,0.7,Time
,,S12,372056,001,Male,25,2025-05-21_02h48.24.782,Serial_Dependence_U,2023.2.3,Win32,60.24096386,6769cc78e79f747dda9c7b8f,682cd3dfea4e15896da7c0a6,682d85156f0cae38cb521714,,,,,,,,,,,,116.4596,0,116.4605,,,,119.2067,119.7041,118.6908,119.2066,117.4761,32,118.6906,119.7041,120.2034,120.2036,121.203,981,121.2044,2,122.2023,0,8,8,2,1,1.2,0.3,Time
,,S12,372056,001,Male,25,2025-05-21_02h48.24.782,Serial_Dependence_U,2023.2.3,Win32,60.24096386,6769cc78e79f747dda9c7b8f,682cd3dfea4e15896da7c0a6,682d85156f0cae38cb521714,,,,,,,,,,,,122.2037,0,122.2043,,,,124.5504,125.0481,124.0372,124.5503,123.2187,181,124.0341,125.0482,125.5476,125.5477,130.2104,4623,130.2112,5,131.2077,0,9,9,0,1,0.8,0.3,Time
,,S12,372056,001,Male,25,2025-05-21_02h48.24.782,Serial_Dependence_U,2023.2.3,Win32,60.24096386,6769cc78e79f747dda9c7b8f,682cd3dfea4e15896da7c0a6,682d85156f0cae38cb521714,,,,,,,,,,,,131.2091,0,131.2095,,,,133.7571,134.2542,133.2431,133.7566,132.2255,269,133.2403,134.2543,134.7539,134.754,136.0367,1263.9,136.0376,4,137.0344,0,10,10,21,1,1,0.3,Time
,,S12,372056,001,Male,25,2025-05-21_02h48.24.782,Serial_Dependence_U,2023.2.3,Win32,60.24096386,6769cc78e79f747dda9c7b8f,682cd3dfea4e15896da7c0a6,682d85156f0cae38cb521714,,,,,,,,,,,,137.0364,0,137.0372,,,,140.1834,140.6824,139.6665,140.1828,138.0517,82,139.6663,140.6825,141.1804,141.1805,143.0953,1893,143.0962,4,144.0929,0,11,11,19,1,1.6,0.7,Time
,,S12,372056,001,Male,25,2025-05-21_02h48.24.782,Serial_Dependence_U,2023.2.3,Win32,60.24096386,6769cc78e79f747dda9c7b8f,682cd3dfea4e15896da7c0a6,682d85156f0cae38cb521714,,,,,,,,,,,,144.0943,0,144.0949,,,,147.0419,147.5391,146.5259,147.0415,145.1104,77,146.5254,147.5392,148.0385,148.0385,149.8545,1795,149.8553,4,150.8528,0,12,12,8,1,1.4,0.7,Time
,,S12,372056,001,Male,25,2025-05-21_02h48.24.782,Serial_Dependence_U,2023.2.3,Win32,60.24096386,6769cc78e79f747dda9c7b8f,682cd3dfea4e15896da7c0a6,682d85156f0cae38cb521714,,,,,,,,,,,,150.8548,0,150.8557,,,,153.4009,153.8984,152.8853,153.4008,151.8697,106,152.8849,153.8985,154.3979,154.3979,157.4459,2778.1,157.4468,5,158.4433,0,13,13,1,1,1,0.3,Time
,,S12,372056,001,Male,25,2025-05-21_02h48.24.782,Serial_Dependence_U,2023.2.3,Win32,60.24096386,6769cc78e79f747dda9c7b8f,682cd3dfea4e15896da7c0a6,682d85156f0cae38cb521714,,,,,,,,,,,,158.4446,0,158.4453,,,,161.592,162.0899,161.0757,161.5915,159.4621,225,161.0752,162.09,162.5895,162.5897,164.4378,1551.6,164.4389,3,165.4351,0,14,14,24,1,1.6,0.3,Time
,,S12,372056,001,Male,25,2025-05-21_02h48.24.782,Serial_Dependence_U,2023.2.3,Win32,60.24096386,6769cc78e79f747dda9c7b8f,682cd3dfea4e15896da7c0a6,682d85156f0cae38cb521714,,,,,,,,,,,,165.4366,0,165.4373,,,,168.1843,168.6825,167.6682,168.184,166.4525,88,167.6677,168.6826,169.1816,169.1816,170.7472,1281.9,170.7482,4,171.7447,0,15,15,17,1,1.2,0.7,Time
,,S12,372056,001,Male,25,2025-05-21_02h48.24.782,Serial_Dependence_U,2023.2.3,Win32,60.24096386,6769cc78e79f747dda9c7b8f,682cd3dfea4e15896da7c0a6,682d85156f0cae38cb521714,,,,,,,,,,,,171.746,0,171.7473,,,,174.4934,174.9919,173.9772,174.4933,172.762,32,173.9771,174.9919,175.4914,175.4915,176.7403,1223.5,176.7413,3,177.7379,0,16,16,12,1,1.2,0.3,Time
,,S12,372056,001,Male,25,2025-05-21_02h48.24.782,Serial_Dependence_U,2023.2.3,Win32,60.24096386,6769cc78e79f747dda9c7b8f,682cd3dfea4e15896da7c0a6,682d85156f0cae38cb521714,,,,,,,,,,,,177.7391,0,177.7395,,,,180.8863,181.384,180.37,180.8859,178.7553,346,180.3697,181.3841,181.8836,181.8837,183.5828,1448.1,183.5838,2,184.5811,0,17,17,9,1,1.6,0.7,Time
,,S12,372056,001,Male,25,2025-05-21_02h48.24.782,Serial_Dependence_U,2023.2.3,Win32,60.24096386,6769cc78e79f747dda9c7b8f,682cd3dfea4e15896da7c0a6,682d85156f0cae38cb521714,,,,,,,,,,,,184.5833,0,184.5841,,,,187.1291,187.6266,186.6129,187.1286,185.5973,67,186.6128,187.6267,188.1269,188.1271,189.2594,898.6,189.2598,2,190.2577,0,18,18,16,1,1,0.7,Time
,,S12,372056,001,Male,25,2025-05-21_02h48.24.782,Serial_Dependence_U,2023.2.3,Win32,60.24096386,6769cc78e79f747dda9c7b8f,682cd3dfea4e15896da7c0a6,682d85156f0cae38cb521714,,,,,,,,,,,,190.2594,0,190.2603,,,,193.2056,193.7029,192.6895,193.205,191.274,194,192.6891,193.703,194.2035,194.2036,195.9848,1498.1,195.9858,4,196.9835,0,19,19,23,1,1.4,0.3,Time
,,S12,372056,001,Male,25,2025-05-21_02h48.24.782,Serial_Dependence_U,2023.2.3,Win32,60.24096386,6769cc78e79f747dda9c7b8f,682cd3dfea4e15896da7c0a6,682d85156f0cae38cb521714,,,,,,,,,,,,196.9855,0,196.9865,,,,199.7311,200.2287,199.2159,199.731,198.0007,353,199.2152,200.2288,200.7282,200.7283,201.9781,1180.4,201.979,3,202.9756,0,20,20,22,1,1.2,0.3,Time
,,S12,372056,001,Male,25,2025-05-21_02h48.24.782,Serial_Dependence_U,2023.2.3,Win32,60.24096386,6769cc78e79f747dda9c7b8f,682cd3dfea4e15896da7c0a6,682d85156f0cae38cb521714,,,,,,,,,,,,202.9769,0,202.9774,,,,205.925,206.4217,205.4079,205.9245,203.9937,337,205.4077,206.4218,206.9213,206.9215,208.3042,1101.6,208.3053,2,209.3028,0,21,21,13,1,1.4,0.3,Time
,,S12,372056,001,Male,25,2025-05-21_02h48.24.782,Serial_Dependence_U,2023.2.3,Win32,60.24096386,6769cc78e79f747dda9c7b8f,682cd3dfea4e15896da7c0a6,682d85156f0cae38cb521714,,,,,,,,,,,,209.305,0,209.3059,,,,212.4508,212.9487,211.9346,212.4505,210.3192,263,211.934,212.9488,213.4478,213.4481,214.9472,1216.8,214.9483,2,215.944,0,22,22,14,1,1.6,0.3,Time
,,S12,372056,001,Male,25,2025-05-21_02h48.24.782,Serial_Dependence_U,2023.2.3,Win32,60.24096386,6769cc78e79f747dda9c7b8f,682cd3dfea4e15896da7c0a6,682d85156f0cae38cb521714,,,,,,,,,,,,215.9454,0,215.9459,,,,218.2938,218.7909,217.7772,218.2932,216.9618,141,217.777,218.7909,219.2911,219.2913,219.9742,657.9,219.975,2,220.9728,0,23,23,5,1,0.8,0.7,Time
,,S12,372056,001,Male,25,2025-05-21_02h48.24.782,Serial_Dependence_U,2023.2.3,Win32,60.24096386,6769cc78e79f747dda9c7b8f,682cd3dfea4e15896da7c0a6,682d85156f0cae38cb521714,,,,,,,,,,,,220.9749,0,220.9756,,,,223.3214,223.8183,222.8052,223.3209,221.9894,64,222.8047,223.8185,224.319,224.3191,225.2015,466,225.2025,1,226.1998,0,24,24,20,1,0.8,0.3,Time
,,S12,372056,001,Male,25,2025-05-21_02h48.24.782,Serial_Dependence_U,2023.2.3,Win32,60.24096386,6769cc78e79f747dda9c7b8f,682cd3dfea4e15896da7c0a6,682d85156f0cae38cb521714,,,,,,,,,,,,226.2016,0,226.2027,,,,228.748,229.2455,228.2322,228.7478,227.2169,177,228.2316,229.2456,229.7458,229.7459,230.6952,815.6,230.6961,2,231.6927,0,25,25,6,1,1,0.7,Time
,,S12,372056,001,Male,25,2025-05-21_02h48.24.782,Serial_Dependence_U,2023.2.3,Win32,60.24096386,6769cc78e79f747dda9c7b8f,682cd3dfea4e15896da7c0a6,682d85156f0cae38cb521714,,,,,,,,,,,,231.6944,0,231.695,,,,234.6413,235.1388,234.1256,234.641,232.7111,177,234.1251,235.1389,235.6389,235.6391,236.9552,932.2,236.956,1,237.952,0,26,26,28,1,1.4,0.7,Time
,,S12,372056,001,Male,25,2025-05-21_02h48.24.782,Serial_Dependence_U,2023.2.3,Win32,60.24096386,6769cc78e79f747dda9c7b8f,682cd3dfea4e15896da7c0a6,682d85156f0cae38cb521714,,,,,,,,,,,,237.9538,0,237.9546,,,,240.7011,241.199,240.185,240.701,238.9698,327,240.1848,241.1991,241.698,241.698,242.7806,799.5,242.782,1,243.7792,0,27,27,7,1,1.2,0.7,Time
,,S12,372056,001,Male,25,2025-05-21_02h48.24.782,Serial_Dependence_U,2023.2.3,Win32,60.24096386,6769cc78e79f747dda9c7b8f,682cd3dfea4e15896da7c0a6,682d85156f0cae38cb521714,,,,,,,,,,,,243.7817,0,243.7826,,,,246.7275,247.2253,246.2115,246.7274,244.7963,340,246.2113,247.2253,247.7246,247.7248,248.9413,965.9,248.9417,1,249.9389,0,28,28,18,1,1.4,0.7,Time
,,S12,372056,001,Male,25,2025-05-21_02h48.24.782,Serial_Dependence_U,2023.2.3,Win32,60.24096386,6769cc78e79f747dda9c7b8f,682cd3dfea4e15896da7c0a6,682d85156f0cae38cb521714,,,,,,,,,,,,249.9413,0,249.9418,,,,252.6873,253.1847,252.1713,252.6872,250.9559,174,252.1711,253.1847,253.684,253.6842,254.8181,932.6,254.8184,2,255.8152,0,29,29,27,1,1.2,0.7,Time
,,S12,372056,001,Male,25,2025-05-21_02h48.24.782,Serial_Dependence_U,2023.2.3,Win32,60.24096386,6769cc78e79f747dda9c7b8f,682cd3dfea4e15896da7c0a6,682d85156f0cae38cb521714,,,,,,,,,,,,255.8169,1,310.0378,s,54.1939,,313.1848,313.6826,312.6688,313.1847,311.054,223,312.6686,313.6827,314.1815,314.1816,315.5157,1080.7,315.5162,1,316.5123,1,0,30,19,1,1.6,0.7,Time
,,S12,372056,001,Male,25,2025-05-21_02h48.24.782,Serial_Dependence_U,2023.2.3,Win32,60.24096386,6769cc78e79f747dda9c7b8f,682cd3dfea4e15896da7c0a6,682d85156f0cae38cb521714,,,,,,,,,,,,316.5138,1,316.5178,,,,319.0619,319.5597,318.5454,319.0614,317.5302,322,318.5449,319.5598,320.0583,320.0584,321.2417,866.5,321.2426,2,322.2398,1,1,31,26,1,1,0.7,Time
,,S12,372056,001,Male,25,2025-05-21_02h48.24.782,Serial_Dependence_U,2023.2.3,Win32,60.24096386,6769cc78e79f747dda9c7b8f,682cd3dfea4e15896da7c0a6,682d85156f0cae38cb521714,,,,,,,,,,,,322.2417,1,322.2429,,,,324.5883,325.0859,324.0724,324.5881,323.2568,328,324.072,325.086,325.5854,325.5854,326.4025,466.1,326.4034,1,327.3999,1,2,32,15,1,0.8,0.7,Time
,,S12,372056,001,Male,25,2025-05-21_02h48.24.782,Serial_Dependence_U,2023.2.3,Win32,60.24096386,6769cc78e79f747dda9c7b8f,682cd3dfea4e15896da7c0a6,682d85156f0cae38cb521714,,,,,,,,,,,,327.4012,1,327.4017,,,,329.7494,330.2467,329.2333,329.7488,328.4172,97,329.2328,330.2468,330.7461,330.7462,331.7297,732.4,331.7306,2,332.7274,1,3,33,10,1,0.8,0.3,Time
,,S12,372056,001,Male,25,2025-05-21_02h48.24.782,Serial_Dependence_U,2023.2.3,Win32,60.24096386,6769cc78e79f747dda9c7b8f,682cd3dfea4e15896da7c0a6,682d85156f0cae38cb521714,,,,,,,,,,,,332.7299,1,332.7309,,,,335.4759,335.9731,334.9601,335.4757,333.7446,89,334.9599,335.9732,336.4734,336.4735,337.3399,843.1,337.3407,2,338.3374,1,4,34,2,1,1.2,0.3,Time
,,S12,372056,001,Male,25,2025-05-21_02h48.24.782,Serial_Dependence_U,2023.2.3,Win32,60.24096386,6769cc78e79f747dda9c7b8f,682cd3dfea4e15896da7c0a6,682d85156f0cae38cb521714,,,,,,,,,,,,338.3388,1,338.3394,,,,341.2862,341.7834,340.7698,341.2857,339.3551,313,340.7696,341.7835,342.2839,342.2839,343.1499,749.6,343.1509,1,344.148,1,5,35,28,1,1.4,0.7,Time
,,S12,372056,001,Male,25,2025-05-21_02h48.24.782,Serial_Dependence_U,2023.2.3,Win32,60.24096386,6769cc78e79f747dda9c7b8f,682cd3dfea4e15896da7c0a6,682d85156f0cae38cb521714,,,,,,,,,,,,344.1498,1,344.1508,,,,347.2961,347.7931,346.7801,347.2959,345.1652,93,346.7797,347.7932,348.2936,348.2938,349.1425,779.8,349.1437,1,350.1411,1,6,36,24,1,1.6,0.3,Time
,,S12,372056,001,Male,25,2025-05-21_02h48.24.782,Serial_Dependence_U,2023.2.3,Win32,60.24096386,6769cc78e79f747dda9c7b8f,682cd3dfea4e15896da7c0a6,682d85156f0cae38cb521714,,,,,,,,,,,,350.1435,1,350.1445,,,,352.6896,353.1875,352.1735,352.6895,351.1581,52,352.1734,353.1876,353.687,353.6871,354.7533,1018.7,354.754,3,355.7507,1,7,37,1,1,1,0.3,Time
,,S12,372056,001,Male,25,2025-05-21_02h48.24.782,Serial_Dependence_U,2023.2.3,Win32,60.24096386,6769cc78e79f747dda9c7b8f,682cd3dfea4e15896da7c0a6,682d85156f0cae38cb521714,,,,,,,,,,,,355.7528,1,355.7535,,,,358.4995,358.9969,357.9836,358.4995,356.7682,96,357.9834,358.997,359.4969,359.4971,360.3304,785.7,360.3309,1,361.3282,1,8,38,27,1,1.2,0.7,Time
,,S12,372056,001,Male,25,2025-05-21_02h48.24.782,Serial_Dependence_U,2023.2.3,Win32,60.24096386,6769cc78e79f747dda9c7b8f,682cd3dfea4e15896da7c0a6,682d85156f0cae38cb521714,,,,,,,,,,,,361.3308,1,361.3322,,,,363.8768,364.3745,363.3621,363.8766,362.3454,334,363.3605,364.3746,364.8735,364.8735,365.7575,821.5,365.758,2,366.7547,1,9,39,16,1,1,0.7,Time
,,S12,372056,001,Male,25,2025-05-21_02h48.24.782,Serial_Dependence_U,2023.2.3,Win32,60.24096386,6769cc78e79f747dda9c7b8f,682cd3dfea4e15896da7c0a6,682d85156f0cae38cb521714,,,,,,,,,,,,366.7564,1,366.7573,,,,369.1041,369.6014,368.5881,369.1039,367.7725,16,368.5879,369.6015,370.1008,370.1009,370.7353,615.1,370.7356,2,371.7329,1,10,40,20,1,0.8,0.3,Time
,,S12,372056,001,Male,25,2025-05-21_02h48.24.782,Serial_Dependence_U,2023.2.3,Win32,60.24096386,6769cc78e79f747dda9c7b8f,682cd3dfea4e15896da7c0a6,682d85156f0cae38cb521714,,,,,,,,,,,,371.7354,1,371.7363,,,,374.2816,374.7793,373.7655,374.2814,372.7501,307,373.7653,374.7794,375.2789,375.2791,375.5464,242.6,375.5468,1,376.5438,1,11,41,6,1,1,0.7,Time
,,S12,372056,001,Male,25,2025-05-21_02h48.24.782,Serial_Dependence_U,2023.2.3,Win32,60.24096386,6769cc78e79f747dda9c7b8f,682cd3dfea4e15896da7c0a6,682d85156f0cae38cb521714,,,,,,,,,,,,376.5463,1,376.5472,,,,379.0934,379.59,378.5772,379.093,377.561,248,378.5768,379.5901,380.0895,380.0895,381.09,716.4,381.0904,2,382.0872,1,12,42,11,1,1,0.3,Time
,,S12,372056,001,Male,25,2025-05-21_02h48.24.782,Serial_Dependence_U,2023.2.3,Win32,60.24096386,6769cc78e79f747dda9c7b8f,682cd3dfea4e15896da7c0a6,682d85156f0cae38cb521714,,,,,,,,,,,,382.0893,1,382.09,,,,385.2356,385.7332,384.7195,385.2354,383.1053,284,384.7193,385.7332,386.2332,386.2333,387.1328,652.1,387.1338,1,388.131,1,13,43,14,1,1.6,0.3,Time
,,S12,372056,001,Male,25,2025-05-21_02h48.24.782,Serial_Dependence_U,2023.2.3,Win32,60.24096386,6769cc78e79f747dda9c7b8f,682cd3dfea4e15896da7c0a6,682d85156f0cae38cb521714,,,,,,,,,,,,388.1331,1,388.1341,,,,391.279,391.7761,390.7627,391.2785,389.1483,237,390.7625,391.7762,392.2757,392.2758,393.4924,999.8,393.4933,1,394.4897,1,14,44,29,1,1.6,0.7,Time
,,S12,372056,001,Male,25,2025-05-21_02h48.24.782,Serial_Dependence_U,2023.2.3,Win32,60.24096386,6769cc78e79f747dda9c7b8f,682cd3dfea4e15896da7c0a6,682d85156f0cae38cb521714,,,,,,,,,,,,394.4911,1,394.4915,,,,397.2385,397.7369,396.7223,397.2383,395.508,122,396.7221,397.737,398.2363,398.2365,399.3526,815.2,399.3537,1,400.3508,1,15,45,17,1,1.2,0.7,Time
,,S12,372056,001,Male,25,2025-05-21_02h48.24.782,Serial_Dependence_U,2023.2.3,Win32,60.24096386,6769cc78e79f747dda9c7b8f,682cd3dfea4e15896da7c0a6,682d85156f0cae38cb521714,,,,,,,,,,,,400.3526,1,400.3537,,,,403.4984,403.9965,402.9819,403.4979,401.3674,41,402.9817,403.9965,404.496,404.4961,405.8779,1048.9,405.8788,1,406.8768,1,16,46,4,1,1.6,0.3,Time
,,S12,372056,001,Male,25,2025-05-21_02h48.24.782,Serial_Dependence_U,2023.2.3,Win32,60.24096386,6769cc78e79f747dda9c7b8f,682cd3dfea4e15896da7c0a6,682d85156f0cae38cb521714,,,,,,,,,,,,406.8789,1,406.8799,,,,409.8245,410.3217,409.3083,409.824,407.8938,86,409.3078,410.3218,410.8212,410.8213,411.9211,682.7,411.922,1,412.9187,1,17,47,13,1,1.4,0.3,Time
,,S12,372056,001,Male,25,2025-05-21_02h48.24.782,Serial_Dependence_U,2023.2.3,Win32,60.24096386,6769cc78e79f747dda9c7b8f,682cd3dfea4e15896da7c0a6,682d85156f0cae38cb521714,,,,,,,,,,,,412.92,1,412.9204,,,,415.8672,416.3648,415.3514,415.867,413.9364,277,415.3509,416.3649,416.8643,416.8644,417.8144,682.2,417.8153,1,418.8119,1,18,48,18,1,1.4,0.7,Time
,,S12,372056,001,Male,25,2025-05-21_02h48.24.782,Serial_Dependence_U,2023.2.3,Win32,60.24096386,6769cc78e79f747dda9c7b8f,682cd3dfea4e15896da7c0a6,682d85156f0cae38cb521714,,,,,,,,,,,,418.8135,1,418.814,,,,421.5611,422.0581,421.0449,421.5605,419.8296,47,421.0446,422.0583,422.5579,422.558,424.3071,1350,424.3081,4,425.3047,1,19,49,22,1,1.2,0.3,Time
,,S12,372056,001,Male,25,2025-05-21_02h48.24.782,Serial_Dependence_U,2023.2.3,Win32,60.24096386,6769cc78e79f747dda9c7b8f,682cd3dfea4e15896da7c0a6,682d85156f0cae38cb521714,,,,,,,,,,,,425.3059,1,425.3063,,,,428.0536,428.5507,427.5373,428.0532,426.3224,323,427.537,428.5508,429.0503,429.0504,429.9338,499.6,429.9347,1,430.9313,1,20,50,7,1,1.2,0.7,Time
,,S12,372056,001,Male,25,2025-05-21_02h48.24.782,Serial_Dependence_U,2023.2.3,Win32,60.24096386,6769cc78e79f747dda9c7b8f,682cd3dfea4e15896da7c0a6,682d85156f0cae38cb521714,,,,,,,,,,,,430.9328,1,430.9335,,,,433.2807,433.7781,432.7648,433.2805,431.9492,327,432.7644,433.7781,434.2776,434.2777,435.0779,783.2,435.0788,3,436.0758,1,21,51,25,1,0.8,0.7,Time
,,S12,372056,001,Male,25,2025-05-21_02h48.24.782,Serial_Dependence_U,2023.2.3,Win32,60.24096386,6769cc78e79f747dda9c7b8f,682cd3dfea4e15896da7c0a6,682d85156f0cae38cb521714,,,,,,,,,,,,436.0783,1,436.0793,,,,438.4248,438.9222,437.9087,438.4247,437.0932,21,437.9085,438.9222,439.4224,439.4226,440.1726,701.1,440.1729,2,441.1703,1,22,52,0,1,0.8,0.3,Time
,,S12,372056,001,Male,25,2025-05-21_02h48.24.782,Serial_Dependence_U,2023.2.3,Win32,60.24096386,6769cc78e79f747dda9c7b8f,682cd3dfea4e15896da7c0a6,682d85156f0cae38cb521714,,,,,,,,,,,,441.1727,1,441.1738,,,,443.7188,444.2165,443.2027,443.7187,442.1873,104,443.2025,444.2166,444.7155,444.7155,445.8002,715.5,445.8005,2,446.7964,1,23,53,21,1,1,0.3,Time
,,S12,372056,001,Male,25,2025-05-21_02h48.24.782,Serial_Dependence_U,2023.2.3,Win32,60.24096386,6769cc78e79f747dda9c7b8f,682cd3dfea4e15896da7c0a6,682d85156f0cae38cb521714,,,,,,,,,,,,446.7982,1,446.7989,,,,449.7453,450.243,449.2293,449.7451,447.8141,359,449.229,450.243,450.7424,450.7425,451.5096,719.6,451.5099,1,452.507,1,24,54,3,1,1.4,0.3,Time
,,S12,372056,001,Male,25,2025-05-21_02h48.24.782,Serial_Dependence_U,2023.2.3,Win32,60.24096386,6769cc78e79f747dda9c7b8f,682cd3dfea4e15896da7c0a6,682d85156f0cae38cb521714,,,,,,,,,,,,452.5099,1,452.511,,,,454.8561,455.3541,454.3399,454.8559,453.5243,219,454.3398,455.3544,455.8528,455.8529,456.6037,598.7,456.6041,2,457.6013,1,25,55,5,1,0.8,0.7,Time
,,S12,372056,001,Male,25,2025-05-21_02h48.24.782,Serial_Dependence_U,2023.2.3,Win32,60.24096386,6769cc78e79f747dda9c7b8f,682cd3dfea4e15896da7c0a6,682d85156f0cae38cb521714,,,,,,,,,,,,457.6038,1,457.6049,,,,460.7493,461.2472,460.2331,460.7491,458.6184,32,460.233,461.2473,461.7462,461.7463,463.0287,965.3,463.03,1,464.0266,1,26,56,9,1,1.6,0.7,Time
,,S12,372056,001,Male,25,2025-05-21_02h48.24.782,Serial_Dependence_U,2023.2.3,Win32,60.24096386,6769cc78e79f747dda9c7b8f,682cd3dfea4e15896da7c0a6,682d85156f0cae38cb521714,,,,,,,,,,,,464.0284,1,464.0292,,,,466.7757,467.2733,466.2607,466.7756,465.0446,24,466.2595,467.2733,467.7729,467.773,468.6733,857.1,468.6737,2,469.6707,1,27,57,12,1,1.2,0.3,Time
,,S12,372056,001,Male,25,2025-05-21_02h48.24.782,Serial_Dependence_U,2023.2.3,Win32,60.24096386,6769cc78e79f747dda9c7b8f,682cd3dfea4e15896da7c0a6,682d85156f0cae38cb521714,,,,,,,,,,,,469.6732,1,469.6743,,,,472.619,473.1163,472.103,472.6189,470.6879,92,472.1028,473.1164,473.6158,473.6159,474.4998,665.5,474.5002,1,475.4976,1,28,58,23,1,1.4,0.3,Time
,,S12,372056,001,Male,25,2025-05-21_02h48.24.782,Serial_Dependence_U,2023.2.3,Win32,60.24096386,6769cc78e79f747dda9c7b8f,682cd3dfea4e15896da7c0a6,682d85156f0cae38cb521714,,,,,,,,,,,,475.4998,1,475.5008,,,,478.4457,478.943,477.9295,478.4456,476.5146,67,477.9294,478.9431,479.4424,479.4424,480.4098,949.2,480.4102,1,481.4074,1,29,59,8,1,1.4,0.7,Time
,,S12,372056,001,Male,25,2025-05-21_02h48.24.782,Serial_Dependence_U,2023.2.3,Win32,60.24096386,6769cc78e79f747dda9c7b8f,682cd3dfea4e15896da7c0a6,682d85156f0cae38cb521714,,,,,,,,,,,,481.4101,2,515.6845,s,34.2409,,518.8329,519.3306,518.3167,518.8328,516.702,59,518.3166,519.3308,519.8298,519.8299,520.5139,663.2,520.5142,1,521.5115,2,0,60,4,1,1.6,0.3,Time
,,S12,372056,001,Male,25,2025-05-21_02h48.24.782,Serial_Dependence_U,2023.2.3,Win32,60.24096386,6769cc78e79f747dda9c7b8f,682cd3dfea4e15896da7c0a6,682d85156f0cae38cb521714,,,,,,,,,,,,521.5139,2,521.5183,,,,524.0607,524.5574,523.5441,524.0602,522.5291,302,523.5439,524.5575,525.0574,525.0575,526.2567,915.6,526.2576,2,527.2543,2,1,61,16,1,1,0.7,Time
,,S12,372056,001,Male,25,2025-05-21_02h48.24.782,Serial_Dependence_U,2023.2.3,Win32,60.24096386,6769cc78e79f747dda9c7b8f,682cd3dfea4e15896da7c0a6,682d85156f0cae38cb521714,,,,,,,,,,,,527.2566,2,527.2573,,,,530.4029,530.9004,529.8869,530.4028,528.2721,357,529.8867,530.9004,531.3997,531.3997,533.0495,1609.7,533.05,3,534.0471,2,2,62,24,1,1.6,0.3,Time
,,S12,372056,001,Male,25,2025-05-21_02h48.24.782,Serial_Dependence_U,2023.2.3,Win32,60.24096386,6769cc78e79f747dda9c7b8f,682cd3dfea4e15896da7c0a6,682d85156f0cae38cb521714,,,,,,,,,,,,534.0501,2,534.0509,,,,536.5958,537.0935,536.0797,536.5957,535.0642,348,536.0796,537.0935,537.5924,537.5925,539.1594,1232,539.1597,4,540.1564,2,3,63,1,1,1,0.3,Time
,,S12,372056,001,Male,25,2025-05-21_02h48.24.782,Serial_Dependence_U,2023.2.3,Win32,60.24096386,6769cc78e79f747dda9c7b8f,682cd3dfea4e15896da7c0a6,682d85156f0cae38cb521714,,,,,,,,,,,,540.1587,2,540.1598,,,,543.1051,543.6023,542.5888,543.1049,541.1739,39,542.5887,543.6025,544.102,544.1021,545.0366,752.1,545.0374,1,546.0328,2,4,64,28,1,1.4,0.7,Time
,,S12,372056,001,Male,25,2025-05-21_02h48.24.782,Serial_Dependence_U,2023.2.3,Win32,60.24096386,6769cc78e79f747dda9c7b8f,682cd3dfea4e15896da7c0a6,682d85156f0cae38cb521714,,,,,,,,,,,,546.0346,2,546.0354,,,,549.1814,549.679,548.6653,549.1812,547.0505,131,548.6651,549.6791,550.1787,550.1788,551.4605,866.2,551.4623,1,552.4588,2,5,65,14,1,1.6,0.3,Time
,,S12,372056,001,Male,25,2025-05-21_02h48.24.782,Serial_Dependence_U,2023.2.3,Win32,60.24096386,6769cc78e79f747dda9c7b8f,682cd3dfea4e15896da7c0a6,682d85156f0cae38cb521714,,,,,,,,,,,,552.4606,2,552.4613,,,,555.2079,555.7052,554.6917,555.2077,553.4764,249,554.6915,555.7053,556.2048,556.2048,557.3384,911.9,557.3388,2,558.3361,2,6,66,2,1,1.2,0.3,Time
,,S12,372056,001,Male,25,2025-05-21_02h48.24.782,Serial_Dependence_U,2023.2.3,Win32,60.24096386,6769cc78e79f747dda9c7b8f,682cd3dfea4e15896da7c0a6,682d85156f0cae38cb521714,,,,,,,,,,,,558.3386,2,558.3398,,,,560.685,561.1822,560.1688,560.6849,559.3532,184,560.1687,561.1822,561.6816,561.6816,562.3659,613.3,562.3663,2,563.363,2,7,67,20,1,0.8,0.3,Time
,,S12,372056,001,Male,25,2025-05-21_02h48.24.782,Serial_Dependence_U,2023.2.3,Win32,60.24096386,6769cc78e79f747dda9c7b8f,682cd3dfea4e15896da7c0a6,682d85156f0cae38cb521714,,,,,,,,,,,,563.3647,2,563.3655,,,,566.5116,567.0092,565.9955,566.5115,564.381,288,565.9954,567.0093,567.5086,567.5087,568.5924,799.6,568.5927,1,569.5893,2,8,68,19,1,1.6,0.7,Time
,,S12,372056,001,Male,25,2025-05-21_02h48.24.782,Serial_Dependence_U,2023.2.3,Win32,60.24096386,6769cc78e79f747dda9c7b8f,682cd3dfea4e15896da7c0a6,682d85156f0cae38cb521714,,,,,,,,,,,,569.5914,2,569.5921,,,,572.1384,572.6358,571.6237,572.1382,570.607,216,571.6223,572.6358,573.1357,573.1359,573.886,624.8,573.8865,1,574.8833,2,9,69,21,1,1,0.3,Time
,,S12,372056,001,Male,25,2025-05-21_02h48.24.782,Serial_Dependence_U,2023.2.3,Win32,60.24096386,6769cc78e79f747dda9c7b8f,682cd3dfea4e15896da7c0a6,682d85156f0cae38cb521714,,,,,,,,,,,,574.885,2,574.8858,,,,577.6322,578.1295,577.116,577.6321,575.9063,53,577.1159,578.1295,578.6295,578.6297,579.4287,570.7,579.4301,1,580.4274,2,10,70,12,1,1.2,0.3,Time
,,S12,372056,001,Male,25,2025-05-21_02h48.24.782,Serial_Dependence_U,2023.2.3,Win32,60.24096386,6769cc78e79f747dda9c7b8f,682cd3dfea4e15896da7c0a6,682d85156f0cae38cb521714,,,,,,,,,,,,580.4294,2,580.4307,,,,583.1759,583.6731,582.6598,583.1756,581.4446,243,582.6597,583.6731,584.1731,584.1731,584.8569,666.4,584.8573,1,585.8545,2,11,71,22,1,1.2,0.3,Time
,,S12,372056,001,Male,25,2025-05-21_02h48.24.782,Serial_Dependence_U,2023.2.3,Win32,60.24096386,6769cc78e79f747dda9c7b8f,682cd3dfea4e15896da7c0a6,682d85156f0cae38cb521714,,,,,,,,,,,,585.8568,2,585.858,,,,588.8028,589.3007,588.2867,588.8026,586.8717,127,588.2865,589.3008,589.7997,589.7998,590.4173,598.7,590.4175,1,591.4143,2,12,72,13,1,1.4,0.3,Time
,,S12,372056,001,Male,25,2025-05-21_02h48.24.782,Serial_Dependence_U,2023.2.3,Win32,60.24096386,6769cc78e79f747dda9c7b8f,682cd3dfea4e15896da7c0a6,682d85156f0cae38cb521714,,,,,,,,,,,,591.4164,2,591.417,,,,594.1631,594.6606,593.6471,594.1631,592.4319,268,593.647,594.6608,595.1605,595.1606,596.0606,857.8,596.0611,2,597.0584,2,13,73,27,1,1.2,0.7,Time
,,S12,372056,001,Male,25,2025-05-21_02h48.24.782,Serial_Dependence_U,2023.2.3,Win32,60.24096386,6769cc78e79f747dda9c7b8f,682cd3dfea4e15896da7c0a6,682d85156f0cae38cb521714,,,,,,,,,,,,597.0609,2,597.0617,,,,599.4074,599.905,598.8912,599.4072,598.0756,154,598.891,599.905,600.4045,600.4046,601.2871,837.4,601.2884,3,602.2876,2,14,74,25,1,0.8,0.7,Time
,,S12,372056,001,Male,25,2025-05-21_02h48.24.782,Serial_Dependence_U,2023.2.3,Win32,60.24096386,6769cc78e79f747dda9c7b8f,682cd3dfea4e15896da7c0a6,682d85156f0cae38cb521714,,,,,,,,,,,,602.2887,2,602.2897,,,,604.6347,605.1323,604.1185,604.6345,603.3029,273,604.1183,605.1324,605.6315,605.6315,606.8639,1034.7,606.8652,4,607.8626,2,15,75,10,1,0.8,0.3,Time
,,S12,372056,001,Male,25,2025-05-21_02h48.24.782,Serial_Dependence_U,2023.2.3,Win32,60.24096386,6769cc78e79f747dda9c7b8f,682cd3dfea4e15896da7c0a6,682d85156f0cae38cb521714,,,,,,,,,,,,607.8648,2,607.8659,,,,610.8109,611.3081,610.2948,610.8107,608.8798,183,610.2947,611.3082,611.8082,611.8083,612.8582,865.8,612.8585,1,613.8553,2,16,76,23,1,1.4,0.3,Time
,,S12,372056,001,Male,25,2025-05-21_02h48.24.782,Serial_Dependence_U,2023.2.3,Win32,60.24096386,6769cc78e79f747dda9c7b8f,682cd3dfea4e15896da7c0a6,682d85156f0cae38cb521714,,,,,,,,,,,,613.8571,2,613.8578,,,,616.8041,617.3013,616.2878,616.804,614.873,64,616.2877,617.3014,617.8012,617.8014,618.585,740.2,618.5853,1,619.5827,2,17,77,3,1,1.4,0.3,Time
,,S12,372056,001,Male,25,2025-05-21_02h48.24.782,Serial_Dependence_U,2023.2.3,Win32,60.24096386,6769cc78e79f747dda9c7b8f,682cd3dfea4e15896da7c0a6,682d85156f0cae38cb521714,,,,,,,,,,,,619.5849,2,619.5859,,,,622.7306,623.2279,622.2146,622.7305,620.5997,99,622.2143,623.2279,623.7274,623.7275,624.7934,1049.9,624.7949,1,625.7916,2,18,78,9,1,1.6,0.7,Time
,,S12,372056,001,Male,25,2025-05-21_02h48.24.782,Serial_Dependence_U,2023.2.3,Win32,60.24096386,6769cc78e79f747dda9c7b8f,682cd3dfea4e15896da7c0a6,682d85156f0cae38cb521714,,,,,,,,,,,,625.7933,2,625.7939,,,,628.9402,629.4378,628.4241,628.94,626.8094,150,628.424,629.4379,629.9373,629.9374,631.0873,1105.6,631.0877,1,632.0846,2,19,79,29,1,1.6,0.7,Time
,,S12,372056,001,Male,25,2025-05-21_02h48.24.782,Serial_Dependence_U,2023.2.3,Win32,60.24096386,6769cc78e79f747dda9c7b8f,682cd3dfea4e15896da7c0a6,682d85156f0cae38cb521714,,,,,,,,,,,,632.0865,2,632.0873,,,,634.8335,635.3306,634.3172,634.8332,633.1021,44,634.3171,635.3307,635.8302,635.8305,637.2298,1380,637.2307,4,638.2275,2,20,80,17,1,1.2,0.7,Time
,,S12,372056,001,Male,25,2025-05-21_02h48.24.782,Serial_Dependence_U,2023.2.3,Win32,60.24096386,6769cc78e79f747dda9c7b8f,682cd3dfea4e15896da7c0a6,682d85156f0cae38cb521714,,,,,,,,,,,,638.2295,2,638.2303,,,,640.7766,641.2739,640.2604,640.7764,639.2451,102,640.2603,641.2739,641.7737,641.7738,643.3067,1279.2,643.3071,4,644.3041,2,21,81,26,1,1,0.7,Time
,,S12,372056,001,Male,25,2025-05-21_02h48.24.782,Serial_Dependence_U,2023.2.3,Win32,60.24096386,6769cc78e79f747dda9c7b8f,682cd3dfea4e15896da7c0a6,682d85156f0cae38cb521714,,,,,,,,,,,,644.3066,2,644.3074,,,,646.6532,647.1509,646.1372,646.6531,645.3214,144,646.137,647.151,647.6499,647.65,649.1501,1265.3,649.1504,5,650.1471,2,22,82,15,1,0.8,0.7,Time
,,S12,372056,001,Male,25,2025-05-21_02h48.24.782,Serial_Dependence_U,2023.2.3,Win32,60.24096386,6769cc78e79f747dda9c7b8f,682cd3dfea4e15896da7c0a6,682d85156f0cae38cb521714,,,,,,,,,,,,650.1488,2,650.1499,,,,652.8964,653.3934,652.38,652.8964,651.1648,211,652.3799,653.3934,653.8935,653.8936,654.8091,892.5,654.8104,2,655.8075,2,23,83,7,1,1.2,0.7,Time
,,S12,372056,001,Male,25,2025-05-21_02h48.24.782,Serial_Dependence_U,2023.2.3,Win32,60.24096386,6769cc78e79f747dda9c7b8f,682cd3dfea4e15896da7c0a6,682d85156f0cae38cb521714,,,,,,,,,,,,655.8097,2,655.8103,,,,658.756,659.2538,658.2399,658.7558,656.825,61,658.2397,659.2539,659.7531,659.7532,660.9698,1178.1,660.9702,2,661.9676,2,24,84,18,1,1.4,0.7,Time
,,S12,372056,001,Male,25,2025-05-21_02h48.24.782,Serial_Dependence_U,2023.2.3,Win32,60.24096386,6769cc78e79f747dda9c7b8f,682cd3dfea4e15896da7c0a6,682d85156f0cae38cb521714,,,,,,,,,,,,661.9702,2,661.9712,,,,664.5162,665.0138,664.0002,664.5161,662.9846,314,663.9999,665.0139,665.5127,665.5128,666.5466,976,666.5471,3,667.5443,2,25,85,6,1,1,0.7,Time
,,S12,372056,001,Male,25,2025-05-21_02h48.24.782,Serial_Dependence_U,2023.2.3,Win32,60.24096386,6769cc78e79f747dda9c7b8f,682cd3dfea4e15896da7c0a6,682d85156f0cae38cb521714,,,,,,,,,,,,667.5467,2,667.548,,,,670.4926,670.9899,669.9765,670.4925,668.5615,283,669.9763,670.9899,671.4894,671.4894,672.7563,901.8,672.7567,1,673.7538,2,26,86,8,1,1.4,0.7,Time
,,S12,372056,001,Male,25,2025-05-21_02h48.24.782,Serial_Dependence_U,2023.2.3,Win32,60.24096386,6769cc78e79f747dda9c7b8f,682cd3dfea4e15896da7c0a6,682d85156f0cae38cb521714,,,,,,,,,,,,673.7563,2,673.7574,,,,676.3025,676.8007,675.7864,676.3024,674.771,153,675.7863,676.8008,677.2993,677.2994,678.2666,733,678.267,2,679.2637,2,27,87,11,1,1,0.3,Time
,,S12,372056,001,Male,25,2025-05-21_02h48.24.782,Serial_Dependence_U,2023.2.3,Win32,60.24096386,6769cc78e79f747dda9c7b8f,682cd3dfea4e15896da7c0a6,682d85156f0cae38cb521714,,,,,,,,,,,,679.2656,2,679.2662,,,,681.6132,682.1105,681.0984,681.613,680.2813,77,681.0969,682.1105,682.61,682.6101,683.1443,516,683.1447,1,684.1422,2,28,88,0,1,0.8,0.3,Time
,,S12,372056,001,Male,25,2025-05-21_02h48.24.782,Serial_Dependence_U,2023.2.3,Win32,60.24096386,6769cc78e79f747dda9c7b8f,682cd3dfea4e15896da7c0a6,682d85156f0cae38cb521714,,,,,,,,,,,,684.1444,2,684.1453,,,,686.491,686.9882,685.9779,686.4908,685.1591,242,685.9771,686.9882,687.4878,687.4878,688.2392,715.9,688.2395,2,689.2362,2,29,89,5,1,0.8,0.7,Time
,,S12,372056,001,Male,25,2025-05-21_02h48.24.782,Serial_Dependence_U,2023.2.3,Win32,60.24096386,6769cc78e79f747dda9c7b8f,682cd3dfea4e15896da7c0a6,682d85156f0cae38cb521714,,,,,,,,,,,,689.2385,3,706.1499,s,16.8849,,708.499,708.9971,707.983,708.4989,707.1686,211,707.9829,708.9973,709.497,709.4972,710.5802,1059.1,710.5806,5,711.5767,3,0,90,20,1,0.8,0.3,Time
,,S12,372056,001,Male,25,2025-05-21_02h48.24.782,Serial_Dependence_U,2023.2.3,Win32,60.24096386,6769cc78e79f747dda9c7b8f,682cd3dfea4e15896da7c0a6,682d85156f0cae38cb521714,,,,,,,,,,,,711.5784,3,711.5819,,,,714.3257,714.823,713.8098,714.3257,712.5945,131,713.8097,714.823,715.323,715.3231,716.19,700.6,716.1904,1,717.1877,3,1,91,2,1,1.2,0.3,Time
,,S12,372056,001,Male,25,2025-05-21_02h48.24.782,Serial_Dependence_U,2023.2.3,Win32,60.24096386,6769cc78e79f747dda9c7b8f,682cd3dfea4e15896da7c0a6,682d85156f0cae38cb521714,,,,,,,,,,,,717.1909,3,717.1922,,,,719.7362,720.2335,719.2201,719.7361,718.2047,112,719.22,720.2335,720.7329,720.7329,721.5163,746.3,721.5178,2,722.5143,3,2,92,26,1,1,0.7,Time
,,S12,372056,001,Male,25,2025-05-21_02h48.24.782,Serial_Dependence_U,2023.2.3,Win32,60.24096386,6769cc78e79f747dda9c7b8f,682cd3dfea4e15896da7c0a6,682d85156f0cae38cb521714,,,,,,,,,,,,722.516,3,722.5166,,,,725.6628,726.1609,725.1466,725.6626,723.5319,258,725.1465,726.161,726.6604,726.6604,727.7598,814.7,727.7606,1,728.7574,3,3,93,24,1,1.6,0.3,Time
,,S12,372056,001,Male,25,2025-05-21_02h48.24.782,Serial_Dependence_U,2023.2.3,Win32,60.24096386,6769cc78e79f747dda9c7b8f,682cd3dfea4e15896da7c0a6,682d85156f0cae38cb521714,,,,,,,,,,,,728.7587,3,728.759,,,,731.307,731.8047,730.7901,731.3066,729.775,345,730.79,731.8047,732.3042,732.3044,733.9359,1366.8,733.9369,5,734.9335,3,4,94,6,1,1,0.7,Time
,,S12,372056,001,Male,25,2025-05-21_02h48.24.782,Serial_Dependence_U,2023.2.3,Win32,60.24096386,6769cc78e79f747dda9c7b8f,682cd3dfea4e15896da7c0a6,682d85156f0cae38cb521714,,,,,,,,,,,,734.9353,3,734.9362,,,,738.082,738.5797,737.5658,738.0818,735.951,176,737.5656,738.5798,739.0797,739.0798,740.2458,1123.5,740.2468,2,741.2435,3,5,95,14,1,1.6,0.3,Time
,,S12,372056,001,Male,25,2025-05-21_02h48.24.782,Serial_Dependence_U,2023.2.3,Win32,60.24096386,6769cc78e79f747dda9c7b8f,682cd3dfea4e15896da7c0a6,682d85156f0cae38cb521714,,,,,,,,,,,,741.2458,3,741.2469,,,,743.5925,744.0901,743.0762,743.5923,742.2606,192,743.076,744.0902,744.5895,744.5896,746.2388,1131.9,746.2392,5,747.2364,3,6,96,25,1,0.8,0.7,Time
,,S12,372056,001,Male,25,2025-05-21_02h48.24.782,Serial_Dependence_U,2023.2.3,Win32,60.24096386,6769cc78e79f747dda9c7b8f,682cd3dfea4e15896da7c0a6,682d85156f0cae38cb521714,,,,,,,,,,,,747.239,3,747.2399,,,,749.985,750.483,749.47,749.9849,748.2537,314,749.4687,750.483,750.9823,750.9825,753.8468,199.6,753.8472,1,754.8438,3,7,97,27,1,1.2,0.7,Time
,,S12,372056,001,Male,25,2025-05-21_02h48.24.782,Serial_Dependence_U,2023.2.3,Win32,60.24096386,6769cc78e79f747dda9c7b8f,682cd3dfea4e15896da7c0a6,682d85156f0cae38cb521714,,,,,,,,,,,,754.8454,3,754.8463,,,,757.5929,758.0904,757.0768,757.5928,755.8617,239,757.0766,758.0906,758.5898,758.5899,759.7063,981.3,759.7071,2,760.7043,3,8,98,12,1,1.2,0.3,Time
,,S12,372056,001,Male,25,2025-05-21_02h48.24.782,Serial_Dependence_U,2023.2.3,Win32,60.24096386,6769cc78e79f747dda9c7b8f,682cd3dfea4e15896da7c0a6,682d85156f0cae38cb521714,,,,,,,,,,,,760.7068,3,760.7078,,,,763.6533,764.1505,763.1366,763.6529,761.7216,317,763.1364,764.1506,764.6494,764.6495,766.4654,1665.4,766.4661,4,767.4634,3,9,99,8,1,1.4,0.7,Time
,,S12,372056,001,Male,25,2025-05-21_02h48.24.782,Serial_Dependence_U,2023.2.3,Win32,60.24096386,6769cc78e79f747dda9c7b8f,682cd3dfea4e15896da7c0a6,682d85156f0cae38cb521714,,,,,,,,,,,,767.4661,3,767.467,,,,770.012,770.5097,769.4959,770.0119,768.4805,36,769.4958,770.5098,771.0088,771.0089,773.0246,1581.8,773.0252,5,774.022,3,10,100,21,1,1,0.3,Time
,,S12,372056,001,Male,25,2025-05-21_02h48.24.782,Serial_Dependence_U,2023.2.3,Win32,60.24096386,6769cc78e79f747dda9c7b8f,682cd3dfea4e15896da7c0a6,682d85156f0cae38cb521714,,,,,,,,,,,,774.0236,3,774.0244,,,,776.5712,777.0689,776.0551,776.5711,775.0397,228,776.055,777.069,777.5684,777.5685,778.7338,1070.9,778.7352,4,779.7327,3,11,101,1,1,1,0.3,Time
,,S12,372056,001,Male,25,2025-05-21_02h48.24.782,Serial_Dependence_U,2023.2.3,Win32,60.24096386,6769cc78e79f747dda9c7b8f,682cd3dfea4e15896da7c0a6,682d85156f0cae38cb521714,,,,,,,,,,,,779.7359,3,779.7366,,,,782.0815,782.5788,781.5655,782.0815,780.7498,226,781.5653,782.5788,783.0784,783.0785,784.3118,816.2,784.3124,3,785.3094,3,12,102,5,1,0.8,0.7,Time
,,S12,372056,001,Male,25,2025-05-21_02h48.24.782,Serial_Dependence_U,2023.2.3,Win32,60.24096386,6769cc78e79f747dda9c7b8f,682cd3dfea4e15896da7c0a6,682d85156f0cae38cb521714,,,,,,,,,,,,785.3115,3,785.3122,,,,788.2578,788.7558,787.7418,788.2578,786.3269,111,787.7415,788.7558,789.2551,789.2553,790.2208,923,790.2219,1,791.2196,3,13,103,18,1,1.4,0.7,Time
,,S12,372056,001,Male,25,2025-05-21_02h48.24.782,Serial_Dependence_U,2023.2.3,Win32,60.24096386,6769cc78e79f747dda9c7b8f,682cd3dfea4e15896da7c0a6,682d85156f0cae38cb521714,,,,,,,,,,,,791.2217,3,791.2228,,,,793.5685,794.0666,793.0523,793.5684,792.2366,47,793.0522,794.0666,794.5658,794.5659,795.781,1083.5,795.7823,5,796.7794,3,14,104,10,1,0.8,0.3,Time
,,S12,372056,001,Male,25,2025-05-21_02h48.24.782,Serial_Dependence_U,2023.2.3,Win32,60.24096386,6769cc78e79f747dda9c7b8f,682cd3dfea4e15896da7c0a6,682d85156f0cae38cb521714,,,,,,,,,,,,796.7814,3,796.7823,,,,799.9278,800.4255,799.4122,799.9277,797.7979,270,799.4117,800.4256,800.9245,800.9245,802.0251,881.4,802.0254,1,803.0222,3,15,105,9,1,1.6,0.7,Time
,,S12,372056,001,Male,25,2025-05-21_02h48.24.782,Serial_Dependence_U,2023.2.3,Win32,60.24096386,6769cc78e79f747dda9c7b8f,682cd3dfea4e15896da7c0a6,682d85156f0cae38cb521714,,,,,,,,,,,,803.0235,3,803.0246,,,,805.7712,806.269,805.255,805.7711,804.0398,74,805.2548,806.2691,806.7677,806.7679,807.4354,449.5,807.4358,1,808.4332,3,16,106,7,1,1.2,0.7,Time
,,S12,372056,001,Male,25,2025-05-21_02h48.24.782,Serial_Dependence_U,2023.2.3,Win32,60.24096386,6769cc78e79f747dda9c7b8f,682cd3dfea4e15896da7c0a6,682d85156f0cae38cb521714,,,,,,,,,,,,808.4344,3,808.4359,,,,811.1816,811.6792,810.6656,811.1815,809.4506,3,810.6655,811.6793,812.179,812.1792,813.4451,1244.8,813.4456,3,814.4431,3,17,107,17,1,1.2,0.7,Time
,,S12,372056,001,Male,25,2025-05-21_02h48.24.782,Serial_Dependence_U,2023.2.3,Win32,60.24096386,6769cc78e79f747dda9c7b8f,682cd3dfea4e15896da7c0a6,682d85156f0cae38cb521714,,,,,,,,,,,,814.4456,3,814.4467,,,,816.7919,817.2891,816.2758,816.7918,815.4601,264,816.2756,817.2892,817.7888,817.7889,819.2218,1032.2,819.2225,4,820.219,3,18,108,0,1,0.8,0.3,Time
,,S12,372056,001,Male,25,2025-05-21_02h48.24.782,Serial_Dependence_U,2023.2.3,Win32,60.24096386,6769cc78e79f747dda9c7b8f,682cd3dfea4e15896da7c0a6,682d85156f0cae38cb521714,,,,,,,,,,,,820.2208,3,820.2216,,,,822.9682,823.4656,822.4525,822.968,821.2367,295,822.452,823.4657,823.9654,823.9655,825.1152,1124.4,825.1163,2,826.1126,3,19,109,22,1,1.2,0.3,Time
,,S12,372056,001,Male,25,2025-05-21_02h48.24.782,Serial_Dependence_U,2023.2.3,Win32,60.24096386,6769cc78e79f747dda9c7b8f,682cd3dfea4e15896da7c0a6,682d85156f0cae38cb521714,,,,,,,,,,,,826.114,3,826.1145,,,,829.0615,829.5587,828.545,829.0611,827.1304,160,828.5448,829.5587,830.0589,830.0589,831.7741,1313.5,831.775,2,832.7718,3,20,110,13,1,1.4,0.3,Time
,,S12,372056,001,Male,25,2025-05-21_02h48.24.782,Serial_Dependence_U,2023.2.3,Win32,60.24096386,6769cc78e79f747dda9c7b8f,682cd3dfea4e15896da7c0a6,682d85156f0cae38cb521714,,,,,,,,,,,,832.7733,3,832.774,,,,835.7207,836.2177,835.2046,835.7201,833.7893,197,835.204,836.2178,836.7174,836.7175,838.067,1329.6,838.0679,2,839.0654,3,21,111,28,1,1.4,0.7,Time
,,S12,372056,001,Male,25,2025-05-21_02h48.24.782,Serial_Dependence_U,2023.2.3,Win32,60.24096386,6769cc78e79f747dda9c7b8f,682cd3dfea4e15896da7c0a6,682d85156f0cae38cb521714,,,,,,,,,,,,839.0677,3,839.0689,,,,842.0134,842.5106,841.4968,842.0129,840.0835,185,841.4966,842.5106,843.0099,843.01,844.7926,1515.5,844.7934,4,845.7906,3,22,112,23,1,1.4,0.3,Time
,,S12,372056,001,Male,25,2025-05-21_02h48.24.782,Serial_Dependence_U,2023.2.3,Win32,60.24096386,6769cc78e79f747dda9c7b8f,682cd3dfea4e15896da7c0a6,682d85156f0cae38cb521714,,,,,,,,,,,,845.7934,3,845.7942,,,,848.9384,849.4363,848.4223,848.9383,846.8075,76,848.4221,849.4364,849.9367,849.9367,851.3019,1344.9,851.3024,2,852.2996,3,23,113,19,1,1.6,0.7,Time
,,S12,372056,001,Male,25,2025-05-21_02h48.24.782,Serial_Dependence_U,2023.2.3,Win32,60.24096386,6769cc78e79f747dda9c7b8f,682cd3dfea4e15896da7c0a6,682d85156f0cae38cb521714,,,,,,,,,,,,852.3017,3,852.3029,,,,854.8482,855.3456,854.3322,854.8481,853.3169,25,854.3321,855.3457,855.8456,855.8472,857.4948,1625.2,857.4954,5,858.4921,3,24,114,11,1,1,0.3,Time
,,S12,372056,001,Male,25,2025-05-21_02h48.24.782,Serial_Dependence_U,2023.2.3,Win32,60.24096386,6769cc78e79f747dda9c7b8f,682cd3dfea4e15896da7c0a6,682d85156f0cae38cb521714,,,,,,,,,,,,858.4929,3,858.4942,,,,860.8415,861.3386,860.3253,860.8414,859.5097,163,860.3252,861.3386,861.8381,861.8382,863.3039,1381.5,863.3052,5,864.3027,3,25,115,15,1,0.8,0.7,Time
,,S12,372056,001,Male,25,2025-05-21_02h48.24.782,Serial_Dependence_U,2023.2.3,Win32,60.24096386,6769cc78e79f747dda9c7b8f,682cd3dfea4e15896da7c0a6,682d85156f0cae38cb521714,,,,,,,,,,,,864.3051,3,864.3062,,,,867.4506,867.9483,866.9344,867.4503,865.3197,188,866.9343,867.9485,868.448,868.4482,869.2804,807.6,869.2818,1,870.279,3,26,116,4,1,1.6,0.3,Time
,,S12,372056,001,Male,25,2025-05-21_02h48.24.782,Serial_Dependence_U,2023.2.3,Win32,60.24096386,6769cc78e79f747dda9c7b8f,682cd3dfea4e15896da7c0a6,682d85156f0cae38cb521714,,,,,,,,,,,,870.2818,3,870.2829,,,,872.8277,873.325,872.3116,872.8276,871.2961,143,872.3116,873.3251,873.8245,873.8246,874.7421,879.6,874.7424,2,875.7395,3,27,117,16,1,1,0.7,Time
,,S12,372056,001,Male,25,2025-05-21_02h48.24.782,Serial_Dependence_U,2023.2.3,Win32,60.24096386,6769cc78e79f747dda9c7b8f,682cd3dfea4e15896da7c0a6,682d85156f0cae38cb521714,,,,,,,,,,,,875.7421,3,875.743,,,,878.6877,879.1859,878.1716,878.6875,876.7567,346,878.1715,879.1861,879.6844,879.6846,880.7014,1000.1,880.7022,2,881.6988,3,28,118,3,1,1.4,0.3,Time
,,S12,372056,001,Male,25,2025-05-21_02h48.24.782,Serial_Dependence_U,2023.2.3,Win32,60.24096386,6769cc78e79f747dda9c7b8f,682cd3dfea4e15896da7c0a6,682d85156f0cae38cb521714,,,,,,,,,,,,881.7006,3,881.7012,,,,884.8473,885.3445,884.3316,884.8472,882.7164,175,884.3312,885.3445,885.8445,885.8446,886.7613,889.5,886.7618,1,887.7586,3,29,119,29,1,1.6,0.7,Time
,,S12,372056,001,Male,25,2025-05-21_02h48.24.782,Serial_Dependence_U,2023.2.3,Win32,60.24096386,6769cc78e79f747dda9c7b8f,682cd3dfea4e15896da7c0a6,682d85156f0cae38cb521714,,,,,,,,,,,,887.7607,4,923.768,s,35.9829,,926.9158,927.4131,926.3997,926.9156,924.785,342,926.3996,927.4132,927.9125,927.9125,929.3122,1179.7,929.3131,2,930.3107,4,0,120,9,1,1.6,0.7,Time
,,S12,372056,001,Male,25,2025-05-21_02h48.24.782,Serial_Dependence_U,2023.2.3,Win32,60.24096386,6769cc78e79f747dda9c7b8f,682cd3dfea4e15896da7c0a6,682d85156f0cae38cb521714,,,,,,,,,,,,930.3128,4,930.3175,,,,932.859,933.3569,932.343,932.8589,931.3277,67,932.3428,933.3569,933.8563,933.8564,935.5221,1248.8,935.5227,4,936.5202,4,1,121,1,1,1,0.3,Time
,,S12,372056,001,Male,25,2025-05-21_02h48.24.782,Serial_Dependence_U,2023.2.3,Win32,60.24096386,6769cc78e79f747dda9c7b8f,682cd3dfea4e15896da7c0a6,682d85156f0cae38cb521714,,,,,,,,,,,,936.5228,4,936.5237,,,,939.4681,939.9654,938.952,939.468,937.5378,329,938.9519,939.9654,940.4649,940.465,941.8148,1312.1,941.8154,2,942.813,4,2,122,8,1,1.4,0.7,Time
,,S12,372056,001,Male,25,2025-05-21_02h48.24.782,Serial_Dependence_U,2023.2.3,Win32,60.24096386,6769cc78e79f747dda9c7b8f,682cd3dfea4e15896da7c0a6,682d85156f0cae38cb521714,,,,,,,,,,,,942.8154,4,942.8165,,,,945.9607,946.4579,945.4447,945.9606,943.8298,209,945.4445,946.458,946.958,946.9582,948.2073,1207.4,948.2081,2,949.205,4,3,123,4,1,1.6,0.3,Time
,,S12,372056,001,Male,25,2025-05-21_02h48.24.782,Serial_Dependence_U,2023.2.3,Win32,60.24096386,6769cc78e79f747dda9c7b8f,682cd3dfea4e15896da7c0a6,682d85156f0cae38cb521714,,,,,,,,,,,,949.2068,4,949.2075,,,,952.3543,952.8515,951.8374,952.3537,950.2225,315,951.8372,952.8516,953.351,953.3511,954.9164,1457.3,954.9173,2,955.9147,4,4,124,24,1,1.6,0.3,Time
,,S12,372056,001,Male,25,2025-05-21_02h48.24.782,Serial_Dependence_U,2023.2.3,Win32,60.24096386,6769cc78e79f747dda9c7b8f,682cd3dfea4e15896da7c0a6,682d85156f0cae38cb521714,,,,,,,,,,,,955.9166,4,955.9175,,,,958.2637,958.7616,957.7477,958.2632,956.9325,23,957.7472,958.7617,959.2613,959.2613,960.0608,773.6,960.0618,3,961.0583,4,5,125,20,1,0.8,0.3,Time
,,S12,372056,001,Male,25,2025-05-21_02h48.24.782,Serial_Dependence_U,2023.2.3,Win32,60.24096386,6769cc78e79f747dda9c7b8f,682cd3dfea4e15896da7c0a6,682d85156f0cae38cb521714,,,,,,,,,,,,961.0596,4,961.0602,,,,963.4075,963.905,962.8917,963.407,962.0759,297,962.8912,963.905,964.4044,964.4045,965.5045,1082.7,965.5053,5,966.5021,4,6,126,5,1,0.8,0.7,Time
,,S12,372056,001,Male,25,2025-05-21_02h48.24.782,Serial_Dependence_U,2023.2.3,Win32,60.24096386,6769cc78e79f747dda9c7b8f,682cd3dfea4e15896da7c0a6,682d85156f0cae38cb521714,,,,,,,,,,,,966.5036,4,966.5043,,,,968.8514,969.3486,968.3354,968.851,967.5197,134,968.3349,969.3486,969.8481,969.8482,970.4485,584,970.4492,2,971.4463,4,7,127,0,1,0.8,0.3,Time
,,S12,372056,001,Male,25,2025-05-21_02h48.24.782,Serial_Dependence_U,2023.2.3,Win32,60.24096386,6769cc78e79f747dda9c7b8f,682cd3dfea4e15896da7c0a6,682d85156f0cae38cb521714,,,,,,,,,,,,971.4475,4,971.448,,,,973.9954,974.4926,973.479,973.9949,972.4643,48,973.4788,974.4927,974.9922,974.9923,975.7256,716.4,975.7268,2,976.724,4,8,128,6,1,1,0.7,Time
,,S12,372056,001,Male,25,2025-05-21_02h48.24.782,Serial_Dependence_U,2023.2.3,Win32,60.24096386,6769cc78e79f747dda9c7b8f,682cd3dfea4e15896da7c0a6,682d85156f0cae38cb521714,,,,,,,,,,,,976.7257,4,976.7264,,,,979.0734,979.5713,978.5565,979.073,977.7415,251,978.5563,979.5713,980.0708,980.0709,980.838,725.1,980.8388,2,981.8344,4,9,129,25,1,0.8,0.7,Time
,,S12,372056,001,Male,25,2025-05-21_02h48.24.782,Serial_Dependence_U,2023.2.3,Win32,60.24096386,6769cc78e79f747dda9c7b8f,682cd3dfea4e15896da7c0a6,682d85156f0cae38cb521714,,,,,,,,,,,,981.8359,4,981.8365,,,,984.5837,985.0813,984.0669,984.5833,982.8522,185,984.0667,985.0814,985.5811,985.5813,986.314,712.5,986.3145,1,987.3116,4,10,130,2,1,1.2,0.3,Time
,,S12,372056,001,Male,25,2025-05-21_02h48.24.782,Serial_Dependence_U,2023.2.3,Win32,60.24096386,6769cc78e79f747dda9c7b8f,682cd3dfea4e15896da7c0a6,682d85156f0cae38cb521714,,,,,,,,,,,,987.3135,4,987.3145,,,,990.2598,990.7576,989.7439,990.2597,988.3291,252,989.7436,990.7576,991.2568,991.2569,992.0573,781.6,992.0581,1,993.0556,4,11,131,13,1,1.4,0.3,Time
,,S12,372056,001,Male,25,2025-05-21_02h48.24.782,Serial_Dependence_U,2023.2.3,Win32,60.24096386,6769cc78e79f747dda9c7b8f,682cd3dfea4e15896da7c0a6,682d85156f0cae38cb521714,,,,,,,,,,,,993.0574,4,993.0584,,,,996.2036,996.7008,995.6873,996.2031,994.0727,281,995.6868,996.7008,997.2002,997.2003,998.2672,1047.2,998.268,1,999.2644,4,12,132,14,1,1.6,0.3,Time
,,S12,372056,001,Male,25,2025-05-21_02h48.24.782,Serial_Dependence_U,2023.2.3,Win32,60.24096386,6769cc78e79f747dda9c7b8f,682cd3dfea4e15896da7c0a6,682d85156f0cae38cb521714,,,,,,,,,,,,999.2658,4,999.2663,,,,1001.8135,1002.3118,1001.2976,1001.8132,1000.2823,46,1001.2972,1002.3119,1002.8107,1002.8107,1003.9439,1095.3,1003.9448,4,1004.9412,4,13,133,26,1,1,0.7,Time
,,S12,372056,001,Male,25,2025-05-21_02h48.24.782,Serial_Dependence_U,2023.2.3,Win32,60.24096386,6769cc78e79f747dda9c7b8f,682cd3dfea4e15896da7c0a6,682d85156f0cae38cb521714,,,,,,,,,,,,1004.9433,4,1004.9441,,,,1007.6901,1008.1873,1007.174,1007.69,1005.9588,14,1007.1738,1008.1874,1008.6875,1008.6877,1009.6031,892,1009.6045,2,1010.6019,4,14,134,27,1,1.2,0.7,Time
,,S12,372056,001,Male,25,2025-05-21_02h48.24.782,Serial_Dependence_U,2023.2.3,Win32,60.24096386,6769cc78e79f747dda9c7b8f,682cd3dfea4e15896da7c0a6,682d85156f0cae38cb521714,,,,,,,,,,,,1010.6045,4,1010.6054,,,,1013.7503,1014.247,1013.2339,1013.75,1011.6188,171,1013.2337,1014.2472,1014.7466,1014.7466,1015.5972,834.6,1015.5976,1,1016.5953,4,15,135,19,1,1.6,0.7,Time
,,S12,372056,001,Male,25,2025-05-21_02h48.24.782,Serial_Dependence_U,2023.2.3,Win32,60.24096386,6769cc78e79f747dda9c7b8f,682cd3dfea4e15896da7c0a6,682d85156f0cae38cb521714,,,,,,,,,,,,1016.5976,4,1016.5989,,,,1019.3435,1019.8411,1018.8273,1019.3434,1017.6121,175,1018.8272,1019.8412,1020.3407,1020.341,1021.4906,932.4,1021.4909,2,1022.4877,4,16,136,7,1,1.2,0.7,Time
,,S12,372056,001,Male,25,2025-05-21_02h48.24.782,Serial_Dependence_U,2023.2.3,Win32,60.24096386,6769cc78e79f747dda9c7b8f,682cd3dfea4e15896da7c0a6,682d85156f0cae38cb521714,,,,,,,,,,,,1022.4893,4,1022.4902,,,,1025.4364,1025.9343,1024.9205,1025.4362,1023.5053,74,1024.9203,1025.9343,1026.4335,1026.4336,1028.1664,1516.2,1028.1667,4,1029.1637,4,17,137,23,1,1.4,0.3,Time
,,S12,372056,001,Male,25,2025-05-21_02h48.24.782,Serial_Dependence_U,2023.2.3,Win32,60.24096386,6769cc78e79f747dda9c7b8f,682cd3dfea4e15896da7c0a6,682d85156f0cae38cb521714,,,,,,,,,,,,1029.1662,4,1029.167,,,,1032.3118,1032.8098,1031.7957,1032.3118,1030.181,24,1031.7956,1032.8098,1033.3094,1033.3095,1034.5257,1032,1034.526,1,1035.5235,4,18,138,29,1,1.6,0.7,Time
,,S12,372056,001,Male,25,2025-05-21_02h48.24.782,Serial_Dependence_U,2023.2.3,Win32,60.24096386,6769cc78e79f747dda9c7b8f,682cd3dfea4e15896da7c0a6,682d85156f0cae38cb521714,,,,,,,,,,,,1035.5261,4,1035.527,,,,1038.072,1038.5698,1037.5559,1038.0718,1036.5403,50,1037.5557,1038.5698,1039.0692,1039.0692,1040.5186,1180.8,1040.5192,4,1041.5159,4,19,139,21,1,1,0.3,Time
,,S12,372056,001,Male,25,2025-05-21_02h48.24.782,Serial_Dependence_U,2023.2.3,Win32,60.24096386,6769cc78e79f747dda9c7b8f,682cd3dfea4e15896da7c0a6,682d85156f0cae38cb521714,,,,,,,,,,,,1041.5175,4,1041.5184,,,,1044.2649,1044.7628,1043.7489,1044.2648,1042.5336,164,1043.7487,1044.7628,1045.2621,1045.2623,1046.0293,742.3,1046.0297,1,1047.0263,4,20,140,17,1,1.2,0.7,Time
,,S12,372056,001,Male,25,2025-05-21_02h48.24.782,Serial_Dependence_U,2023.2.3,Win32,60.24096386,6769cc78e79f747dda9c7b8f,682cd3dfea4e15896da7c0a6,682d85156f0cae38cb521714,,,,,,,,,,,,1047.0282,4,1047.0292,,,,1049.5754,1050.0733,1049.0593,1049.5752,1048.044,333,1049.0592,1050.0733,1050.5729,1050.573,1051.4063,808.1,1051.4066,2,1052.4038,4,21,141,16,1,1,0.7,Time
,,S12,372056,001,Male,25,2025-05-21_02h48.24.782,Serial_Dependence_U,2023.2.3,Win32,60.24096386,6769cc78e79f747dda9c7b8f,682cd3dfea4e15896da7c0a6,682d85156f0cae38cb521714,,,,,,,,,,,,1052.4062,4,1052.4072,,,,1054.9526,1055.4505,1054.4365,1054.9525,1053.4211,160,1054.4364,1055.4505,1055.9496,1055.9497,1056.8501,880,1056.8504,2,1057.8473,4,22,142,11,1,1,0.3,Time
,,S12,372056,001,Male,25,2025-05-21_02h48.24.782,Serial_Dependence_U,2023.2.3,Win32,60.24096386,6769cc78e79f747dda9c7b8f,682cd3dfea4e15896da7c0a6,682d85156f0cae38cb521714,,,,,,,,,,,,1057.8489,4,1057.8499,,,,1060.7959,1061.2936,1060.2798,1060.7958,1058.8648,100,1060.2797,1061.2937,1061.7933,1061.7935,1063.2761,1182.1,1063.2765,2,1064.2733,4,23,143,3,1,1.4,0.3,Time
,,S12,372056,001,Male,25,2025-05-21_02h48.24.782,Serial_Dependence_U,2023.2.3,Win32,60.24096386,6769cc78e79f747dda9c7b8f,682cd3dfea4e15896da7c0a6,682d85156f0cae38cb521714,,,,,,,,,,,,1064.2751,4,1064.2758,,,,1066.6227,1067.1207,1066.1065,1066.6225,1065.2909,25,1066.1064,1067.1207,1067.6196,1067.6197,1068.7365,1094.2,1068.7369,5,1069.7335,4,24,144,15,1,0.8,0.7,Time
,,S12,372056,001,Male,25,2025-05-21_02h48.24.782,Serial_Dependence_U,2023.2.3,Win32,60.24096386,6769cc78e79f747dda9c7b8f,682cd3dfea4e15896da7c0a6,682d85156f0cae38cb521714,,,,,,,,,,,,1069.7352,4,1069.7359,,,,1072.4827,1072.9801,1071.9664,1072.4825,1070.7512,167,1071.9663,1072.9802,1073.4793,1073.4795,1074.1128,596.7,1074.1141,1,1075.1112,4,25,145,22,1,1.2,0.3,Time
,,S12,372056,001,Male,25,2025-05-21_02h48.24.782,Serial_Dependence_U,2023.2.3,Win32,60.24096386,6769cc78e79f747dda9c7b8f,682cd3dfea4e15896da7c0a6,682d85156f0cae38cb521714,,,,,,,,,,,,1075.1137,4,1075.1147,,,,1078.0596,1078.5575,1077.5435,1078.0595,1076.1284,114,1077.5433,1078.5576,1079.0569,1079.057,1080.4565,1355.1,1080.4567,3,1081.4537,4,26,146,18,1,1.4,0.7,Time
,,S12,372056,001,Male,25,2025-05-21_02h48.24.782,Serial_Dependence_U,2023.2.3,Win32,60.24096386,6769cc78e79f747dda9c7b8f,682cd3dfea4e15896da7c0a6,682d85156f0cae38cb521714,,,,,,,,,,,,1081.4557,4,1081.4565,,,,1084.2026,1084.7004,1083.6864,1084.2025,1082.4711,335,1083.6863,1084.7004,1085.2012,1085.2013,1086.8825,1662.8,1086.8829,5,1087.88,4,27,147,12,1,1.2,0.3,Time
,,S12,372056,001,Male,25,2025-05-21_02h48.24.782,Serial_Dependence_U,2023.2.3,Win32,60.24096386,6769cc78e79f747dda9c7b8f,682cd3dfea4e15896da7c0a6,682d85156f0cae38cb521714,,,,,,,,,,,,1087.8823,4,1087.8833,,,,1090.229,1090.7262,1089.7128,1090.2289,1088.8973,112,1089.7127,1090.7263,1091.2272,1091.2273,1092.1596,906,1092.1601,4,1093.1575,4,28,148,10,1,0.8,0.3,Time
,,S12,372056,001,Male,25,2025-05-21_02h48.24.782,Serial_Dependence_U,2023.2.3,Win32,60.24096386,6769cc78e79f747dda9c7b8f,682cd3dfea4e15896da7c0a6,682d85156f0cae38cb521714,,,,,,,,,,,,1093.1603,4,1093.1613,,,,1096.1055,1096.6027,1095.5895,1096.1053,1094.1745,310,1095.5893,1096.6027,1097.1029,1097.103,1097.9697,840,1097.9701,1,1098.9679,4,29,149,28,1,1.4,0.7,Time
,,S12,372056,001,Male,25,2025-05-21_02h48.24.782,Serial_Dependence_U,2023.2.3,Win32,60.24096386,6769cc78e79f747dda9c7b8f,682cd3dfea4e15896da7c0a6,682d85156f0cae38cb521714,,,,,,,,,,,,1098.9705,5,1101.9145,s,2.9093,,1104.8625,1105.3601,1104.346,1104.8624,1102.9313,165,1104.3458,1105.3602,1105.8589,1105.859,1106.9928,849.6,1106.9932,1,1107.9903,5,0,150,18,1,1.4,0.7,Time
,,S12,372056,001,Male,25,2025-05-21_02h48.24.782,Serial_Dependence_U,2023.2.3,Win32,60.24096386,6769cc78e79f747dda9c7b8f,682cd3dfea4e15896da7c0a6,682d85156f0cae38cb521714,,,,,,,,,,,,1107.9928,5,1107.9974,,,,1110.5389,1111.0365,1110.0233,1110.5387,1109.0075,292,1110.0228,1111.0365,1111.5362,1111.5364,1112.3699,813.1,1112.3709,2,1113.3672,5,1,151,6,1,1,0.7,Time
,,S12,372056,001,Male,25,2025-05-21_02h48.24.782,Serial_Dependence_U,2023.2.3,Win32,60.24096386,6769cc78e79f747dda9c7b8f,682cd3dfea4e15896da7c0a6,682d85156f0cae38cb521714,,,,,,,,,,,,1113.3685,5,1113.3689,,,,1115.7168,1116.2147,1115.2002,1115.7162,1114.3849,173,1115.2,1116.2147,1116.714,1116.7142,1117.6635,763.7,1117.6647,3,1118.6611,5,2,152,25,1,0.8,0.7,Time
,,S12,372056,001,Male,25,2025-05-21_02h48.24.782,Serial_Dependence_U,2023.2.3,Win32,60.24096386,6769cc78e79f747dda9c7b8f,682cd3dfea4e15896da7c0a6,682d85156f0cae38cb521714,,,,,,,,,,,,1118.6626,5,1118.6629,,,,1121.4097,1121.9074,1120.8941,1121.4095,1119.6786,192,1120.8936,1121.9074,1122.407,1122.4071,1123.1241,642.9,1123.1248,1,1124.1223,5,3,153,12,1,1.2,0.3,Time
,,S12,372056,001,Male,25,2025-05-21_02h48.24.782,Serial_Dependence_U,2023.2.3,Win32,60.24096386,6769cc78e79f747dda9c7b8f,682cd3dfea4e15896da7c0a6,682d85156f0cae38cb521714,,,,,,,,,,,,1124.1244,5,1124.1253,,,,1126.8708,1127.3679,1126.3549,1126.8703,1125.1394,279,1126.3543,1127.3679,1127.868,1127.8682,1128.7509,858.1,1128.7523,2,1129.7483,5,4,154,22,1,1.2,0.3,Time
,,S12,372056,001,Male,25,2025-05-21_02h48.24.782,Serial_Dependence_U,2023.2.3,Win32,60.24096386,6769cc78e79f747dda9c7b8f,682cd3dfea4e15896da7c0a6,682d85156f0cae38cb521714,,,,,,,,,,,,1129.7498,5,1129.7501,,,,1132.8971,1133.3944,1132.3809,1132.8966,1130.7661,318,1132.3804,1133.3944,1133.8945,1133.8947,1135.0438,1120.2,1135.045,2,1136.0412,5,5,155,24,1,1.6,0.3,Time
,,S12,372056,001,Male,25,2025-05-21_02h48.24.782,Serial_Dependence_U,2023.2.3,Win32,60.24096386,6769cc78e79f747dda9c7b8f,682cd3dfea4e15896da7c0a6,682d85156f0cae38cb521714,,,,,,,,,,,,1136.0426,5,1136.0429,,,,1139.1899,1139.687,1138.6739,1139.1893,1137.0593,198,1138.6736,1139.6871,1140.1874,1140.1876,1141.1381,926.9,1141.1392,1,1142.1351,5,6,156,4,1,1.6,0.3,Time
,,S12,372056,001,Male,25,2025-05-21_02h48.24.782,Serial_Dependence_U,2023.2.3,Win32,60.24096386,6769cc78e79f747dda9c7b8f,682cd3dfea4e15896da7c0a6,682d85156f0cae38cb521714,,,,,,,,,,,,1142.1365,5,1142.1375,,,,1145.0834,1145.5812,1144.5668,1145.0828,1143.1516,220,1144.5665,1145.5812,1146.0799,1146.0799,1147.2134,1063.8,1147.2144,2,1148.2106,5,7,157,28,1,1.4,0.7,Time
,,S12,372056,001,Male,25,2025-05-21_02h48.24.782,Serial_Dependence_U,2023.2.3,Win32,60.24096386,6769cc78e79f747dda9c7b8f,682cd3dfea4e15896da7c0a6,682d85156f0cae38cb521714,,,,,,,,,,,,1148.2119,5,1148.2124,,,,1151.3593,1151.8564,1150.8431,1151.3588,1149.2279,211,1150.8428,1151.8565,1152.3569,1152.3571,1153.7558,1371.6,1153.7566,2,1154.7531,5,8,158,14,1,1.6,0.3,Time
,,S12,372056,001,Male,25,2025-05-21_02h48.24.782,Serial_Dependence_U,2023.2.3,Win32,60.24096386,6769cc78e79f747dda9c7b8f,682cd3dfea4e15896da7c0a6,682d85156f0cae38cb521714,,,,,,,,,,,,1154.7545,5,1154.7551,,,,1157.7015,1158.1999,1157.1862,1157.7014,1155.7714,274,1157.1857,1158.2,1158.6995,1158.6996,1160.4313,1681.3,1160.4325,4,1161.4291,5,9,159,3,1,1.4,0.3,Time
,,S12,372056,001,Male,25,2025-05-21_02h48.24.782,Serial_Dependence_U,2023.2.3,Win32,60.24096386,6769cc78e79f747dda9c7b8f,682cd3dfea4e15896da7c0a6,682d85156f0cae38cb521714,,,,,,,,,,,,1161.431,5,1161.4321,,,,1163.9779,1164.475,1163.4618,1163.9777,1162.4463,178,1163.4617,1164.4751,1164.9745,1164.9746,1166.6579,1465.5,1166.6583,5,1167.6553,5,10,160,11,1,1,0.3,Time
,,S12,372056,001,Male,25,2025-05-21_02h48.24.782,Serial_Dependence_U,2023.2.3,Win32,60.24096386,6769cc78e79f747dda9c7b8f,682cd3dfea4e15896da7c0a6,682d85156f0cae38cb521714,,,,,,,,,,,,1167.6587,5,1167.6599,,,,1170.6037,1171.1014,1170.0875,1170.6035,1168.6726,57,1170.0874,1171.1014,1171.6021,1171.6023,1172.7336,1047.8,1172.7346,2,1173.7315,5,11,161,13,1,1.4,0.3,Time
,,S12,372056,001,Male,25,2025-05-21_02h48.24.782,Serial_Dependence_U,2023.2.3,Win32,60.24096386,6769cc78e79f747dda9c7b8f,682cd3dfea4e15896da7c0a6,682d85156f0cae38cb521714,,,,,,,,,,,,1173.7331,5,1173.7342,,,,1176.4802,1176.9786,1175.9641,1176.4802,1174.749,319,1175.964,1176.9787,1177.4771,1177.4772,1178.9105,1412.3,1178.9109,4,1179.908,5,12,162,2,1,1.2,0.3,Time
,,S12,372056,001,Male,25,2025-05-21_02h48.24.782,Serial_Dependence_U,2023.2.3,Win32,60.24096386,6769cc78e79f747dda9c7b8f,682cd3dfea4e15896da7c0a6,682d85156f0cae38cb521714,,,,,,,,,,,,1179.9106,5,1179.9115,,,,1182.2569,1182.7543,1181.7409,1182.2568,1180.9251,10,1181.7407,1182.7543,1183.2544,1183.2545,1185.1553,1877.2,1185.1556,5,1186.1512,5,13,163,0,1,0.8,0.3,Time
,,S12,372056,001,Male,25,2025-05-21_02h48.24.782,Serial_Dependence_U,2023.2.3,Win32,60.24096386,6769cc78e79f747dda9c7b8f,682cd3dfea4e15896da7c0a6,682d85156f0cae38cb521714,,,,,,,,,,,,1186.1536,5,1186.1547,,,,1188.4998,1188.9971,1187.9837,1188.4997,1187.1681,234,1187.9836,1188.9972,1189.4966,1189.4966,1191.2465,1730.3,1191.2468,5,1192.244,5,14,164,5,1,0.8,0.7,Time
,,S12,372056,001,Male,25,2025-05-21_02h48.24.782,Serial_Dependence_U,2023.2.3,Win32,60.24096386,6769cc78e79f747dda9c7b8f,682cd3dfea4e15896da7c0a6,682d85156f0cae38cb521714,,,,,,,,,,,,1192.2463,5,1192.2473,,,,1194.9924,1195.4903,1194.4763,1194.9923,1193.2611,306,1194.4762,1195.4904,1195.9897,1195.9898,1197.3062,1292.5,1197.3065,4,1198.3038,5,15,165,17,1,1.2,0.7,Time
,,S12,372056,001,Male,25,2025-05-21_02h48.24.782,Serial_Dependence_U,2023.2.3,Win32,60.24096386,6769cc78e79f747dda9c7b8f,682cd3dfea4e15896da7c0a6,682d85156f0cae38cb521714,,,,,,,,,,,,1198.3062,5,1198.3072,,,,1200.6526,1201.1508,1200.1365,1200.6525,1199.3207,32,1200.1365,1201.1508,1201.6498,1201.6499,1202.8331,964.2,1202.8335,4,1203.8301,5,16,166,15,1,0.8,0.7,Time
,,S12,372056,001,Male,25,2025-05-21_02h48.24.782,Serial_Dependence_U,2023.2.3,Win32,60.24096386,6769cc78e79f747dda9c7b8f,682cd3dfea4e15896da7c0a6,682d85156f0cae38cb521714,,,,,,,,,,,,1203.8318,5,1203.8326,,,,1206.9787,1207.476,1206.4627,1206.9786,1204.8478,62,1206.4625,1207.476,1207.9753,1207.9754,1209.3087,1068.2,1209.3094,1,1210.3066,5,17,167,29,1,1.6,0.7,Time
,,S12,372056,001,Male,25,2025-05-21_02h48.24.782,Serial_Dependence_U,2023.2.3,Win32,60.24096386,6769cc78e79f747dda9c7b8f,682cd3dfea4e15896da7c0a6,682d85156f0cae38cb521714,,,,,,,,,,,,1210.3088,5,1210.3098,,,,1212.8555,1213.3528,1212.3391,1212.8553,1211.3237,149,1212.339,1213.3529,1213.8521,1213.8522,1214.9515,1079.4,1214.9528,4,1215.9502,5,18,168,26,1,1,0.7,Time
,,S12,372056,001,Male,25,2025-05-21_02h48.24.782,Serial_Dependence_U,2023.2.3,Win32,60.24096386,6769cc78e79f747dda9c7b8f,682cd3dfea4e15896da7c0a6,682d85156f0cae38cb521714,,,,,,,,,,,,1215.953,5,1215.954,,,,1218.4988,1218.9967,1217.9835,1218.4986,1216.9673,339,1217.9831,1218.9967,1219.4956,1219.4957,1220.7287,1065.5,1220.7295,4,1221.7264,5,19,169,16,1,1,0.7,Time
,,S12,372056,001,Male,25,2025-05-21_02h48.24.782,Serial_Dependence_U,2023.2.3,Win32,60.24096386,6769cc78e79f747dda9c7b8f,682cd3dfea4e15896da7c0a6,682d85156f0cae38cb521714,,,,,,,,,,,,1221.7282,5,1221.7288,,,,1224.8754,1225.3733,1224.3598,1224.8749,1222.7439,163,1224.3595,1225.3734,1225.8728,1225.8728,1226.9886,898.5,1226.9894,1,1227.9868,5,20,170,19,1,1.6,0.7,Time
,,S12,372056,001,Male,25,2025-05-21_02h48.24.782,Serial_Dependence_U,2023.2.3,Win32,60.24096386,6769cc78e79f747dda9c7b8f,682cd3dfea4e15896da7c0a6,682d85156f0cae38cb521714,,,,,,,,,,,,1227.9888,5,1227.9898,,,,1230.7354,1231.2323,1230.2191,1230.7348,1229.0034,236,1230.2186,1231.2324,1231.732,1231.7321,1232.6655,911.6,1232.6665,2,1233.6628,5,21,171,7,1,1.2,0.7,Time
,,S12,372056,001,Male,25,2025-05-21_02h48.24.782,Serial_Dependence_U,2023.2.3,Win32,60.24096386,6769cc78e79f747dda9c7b8f,682cd3dfea4e15896da7c0a6,682d85156f0cae38cb521714,,,,,,,,,,,,1233.6643,5,1233.6656,,,,1236.2119,1236.7092,1235.6957,1236.2117,1234.6804,306,1235.6956,1236.7093,1237.2086,1237.2087,1239.6576,1763.8,1239.658,5,1240.6553,5,22,172,21,1,1,0.3,Time
,,S12,372056,001,Male,25,2025-05-21_02h48.24.782,Serial_Dependence_U,2023.2.3,Win32,60.24096386,6769cc78e79f747dda9c7b8f,682cd3dfea4e15896da7c0a6,682d85156f0cae38cb521714,,,,,,,,,,,,1240.6581,5,1240.6588,,,,1243.4041,1243.9012,1242.8876,1243.4037,1241.6729,268,1242.8872,1243.9013,1244.4012,1244.4014,1245.7669,932.3,1245.7677,2,1246.7645,5,23,173,27,1,1.2,0.7,Time
,,S12,372056,001,Male,25,2025-05-21_02h48.24.782,Serial_Dependence_U,2023.2.3,Win32,60.24096386,6769cc78e79f747dda9c7b8f,682cd3dfea4e15896da7c0a6,682d85156f0cae38cb521714,,,,,,,,,,,,1246.7659,5,1246.7664,,,,1249.1143,1249.611,1248.5977,1249.1141,1247.782,145,1248.5975,1249.6111,1250.1112,1250.1114,1251.4274,899.2,1251.4279,4,1252.4245,5,24,174,10,1,0.8,0.3,Time
,,S12,372056,001,Male,25,2025-05-21_02h48.24.782,Serial_Dependence_U,2023.2.3,Win32,60.24096386,6769cc78e79f747dda9c7b8f,682cd3dfea4e15896da7c0a6,682d85156f0cae38cb521714,,,,,,,,,,,,1252.4261,5,1252.4268,,,,1255.3733,1255.871,1254.8573,1255.3732,1253.4422,102,1254.8571,1255.8711,1256.3704,1256.3706,1257.5692,1162,1257.5706,2,1258.5677,5,25,175,8,1,1.4,0.7,Time
,,S12,372056,001,Male,25,2025-05-21_02h48.24.782,Serial_Dependence_U,2023.2.3,Win32,60.24096386,6769cc78e79f747dda9c7b8f,682cd3dfea4e15896da7c0a6,682d85156f0cae38cb521714,,,,,,,,,,,,1258.5698,5,1258.5706,,,,1260.9169,1261.4147,1260.4008,1260.9168,1259.5852,224,1260.4007,1261.4149,1261.9141,1261.9142,1262.964,1029.8,1262.9647,4,1263.9619,5,26,176,20,1,0.8,0.3,Time
,,S12,372056,001,Male,25,2025-05-21_02h48.24.782,Serial_Dependence_U,2023.2.3,Win32,60.24096386,6769cc78e79f747dda9c7b8f,682cd3dfea4e15896da7c0a6,682d85156f0cae38cb521714,,,,,,,,,,,,1263.9643,5,1263.9653,,,,1267.1099,1267.6071,1266.5939,1267.1098,1264.9794,33,1266.5936,1267.6072,1268.1075,1268.1076,1269.124,992.1,1269.1243,1,1270.1212,5,27,177,9,1,1.6,0.7,Time
,,S12,372056,001,Male,25,2025-05-21_02h48.24.782,Serial_Dependence_U,2023.2.3,Win32,60.24096386,6769cc78e79f747dda9c7b8f,682cd3dfea4e15896da7c0a6,682d85156f0cae38cb521714,,,,,,,,,,,,1270.1229,5,1270.1236,,,,1272.6701,1273.1682,1272.1541,1272.6701,1271.1393,38,1272.1538,1273.1682,1273.6672,1273.6673,1275.3168,1624.4,1275.3177,5,1276.3144,5,28,178,1,1,1,0.3,Time
,,S12,372056,001,Male,25,2025-05-21_02h48.24.782,Serial_Dependence_U,2023.2.3,Win32,60.24096386,6769cc78e79f747dda9c7b8f,682cd3dfea4e15896da7c0a6,682d85156f0cae38cb521714,,,,,,,,,,,,1276.3168,5,1276.3179,,,,1279.2627,1279.7599,1278.7465,1279.2625,1277.3315,168,1278.7464,1279.7599,1280.2598,1280.2599,1281.1433,802.8,1281.1439,1,1282.1406,5,29,179,23,1,1.4,0.3,Time
,,S12,372056,001,Male,25,2025-05-21_02h48.24.782,Serial_Dependence_U,2023.2.3,Win32,60.24096386,6769cc78e79f747dda9c7b8f,682cd3dfea4e15896da7c0a6,682d85156f0cae38cb521714,,,,,,,,,,,,1282.1425,6,1284.8384,s,2.672,,1287.5863,1288.0844,1287.0703,1287.5862,1285.8552,359,1287.0702,1288.0845,1288.5832,1288.5833,1289.6329,833.8,1289.6342,1,1290.6308,6,0,180,2,1,1.2,0.3,Time
,,S12,372056,001,Male,25,2025-05-21_02h48.24.782,Serial_Dependence_U,2023.2.3,Win32,60.24096386,6769cc78e79f747dda9c7b8f,682cd3dfea4e15896da7c0a6,682d85156f0cae38cb521714,,,,,,,,,,,,1290.632,6,1290.6366,,,,1293.5796,1294.0769,1293.0636,1293.5794,1291.6486,18,1293.0634,1294.077,1294.5767,1294.5769,1296.042,1264.9,1296.043,2,1297.0407,6,1,181,18,1,1.4,0.7,Time
,,S12,372056,001,Male,25,2025-05-21_02h48.24.782,Serial_Dependence_U,2023.2.3,Win32,60.24096386,6769cc78e79f747dda9c7b8f,682cd3dfea4e15896da7c0a6,682d85156f0cae38cb521714,,,,,,,,,,,,1297.0433,6,1297.0446,,,,1299.3896,1299.8869,1298.8735,1299.3894,1298.0577,41,1298.8734,1299.8869,1300.3871,1300.3872,1301.5865,1173.1,1301.587,5,1302.5838,6,2,182,0,1,0.8,0.3,Time
,,S12,372056,001,Male,25,2025-05-21_02h48.24.782,Serial_Dependence_U,2023.2.3,Win32,60.24096386,6769cc78e79f747dda9c7b8f,682cd3dfea4e15896da7c0a6,682d85156f0cae38cb521714,,,,,,,,,,,,1302.5858,6,1302.5866,,,,1304.9333,1305.4306,1304.4173,1304.9332,1303.6014,263,1304.4163,1305.4306,1305.9301,1305.9301,1307.0639,1114.7,1307.0642,5,1308.0612,6,3,183,25,1,0.8,0.7,Time
,,S12,372056,001,Male,25,2025-05-21_02h48.24.782,Serial_Dependence_U,2023.2.3,Win32,60.24096386,6769cc78e79f747dda9c7b8f,682cd3dfea4e15896da7c0a6,682d85156f0cae38cb521714,,,,,,,,,,,,1308.0632,6,1308.0642,,,,1310.8099,1311.3075,1310.2938,1310.8098,1309.0786,347,1310.2937,1311.3076,1311.807,1311.8071,1313.2067,1117.8,1313.2072,2,1314.2043,6,4,184,12,1,1.2,0.3,Time
,,S12,372056,001,Male,25,2025-05-21_02h48.24.782,Serial_Dependence_U,2023.2.3,Win32,60.24096386,6769cc78e79f747dda9c7b8f,682cd3dfea4e15896da7c0a6,682d85156f0cae38cb521714,,,,,,,,,,,,1314.2068,6,1314.2077,,,,1316.9528,1317.4501,1316.4367,1316.9527,1315.2215,132,1316.4366,1317.4501,1317.9494,1317.9495,1319.2831,1213.4,1319.2835,3,1320.2805,6,5,185,22,1,1.2,0.3,Time
,,S12,372056,001,Male,25,2025-05-21_02h48.24.782,Serial_Dependence_U,2023.2.3,Win32,60.24096386,6769cc78e79f747dda9c7b8f,682cd3dfea4e15896da7c0a6,682d85156f0cae38cb521714,,,,,,,,,,,,1320.2822,6,1320.2831,,,,1322.8295,1323.3273,1322.3133,1322.8294,1321.2978,92,1322.3132,1323.3273,1323.8267,1323.8268,1325.01,1016.8,1325.0103,3,1326.0072,6,6,186,6,1,1,0.7,Time
,,S12,372056,001,Male,25,2025-05-21_02h48.24.782,Serial_Dependence_U,2023.2.3,Win32,60.24096386,6769cc78e79f747dda9c7b8f,682cd3dfea4e15896da7c0a6,682d85156f0cae38cb521714,,,,,,,,,,,,1326.0093,6,1326.01,,,,1329.1557,1329.6528,1328.6396,1329.1555,1327.0247,40,1328.6394,1329.6528,1330.1526,1330.1528,1331.2362,1058.6,1331.2365,1,1332.2333,6,7,187,19,1,1.6,0.7,Time
,,S12,372056,001,Male,25,2025-05-21_02h48.24.782,Serial_Dependence_U,2023.2.3,Win32,60.24096386,6769cc78e79f747dda9c7b8f,682cd3dfea4e15896da7c0a6,682d85156f0cae38cb521714,,,,,,,,,,,,1332.2353,6,1332.236,,,,1335.1822,1335.6793,1334.6658,1335.182,1333.2517,42,1334.6657,1335.6794,1336.1789,1336.179,1337.2626,1066.4,1337.263,2,1338.2601,6,8,188,28,1,1.4,0.7,Time
,,S12,372056,001,Male,25,2025-05-21_02h48.24.782,Serial_Dependence_U,2023.2.3,Win32,60.24096386,6769cc78e79f747dda9c7b8f,682cd3dfea4e15896da7c0a6,682d85156f0cae38cb521714,,,,,,,,,,,,1338.2626,6,1338.2639,,,,1341.4082,1341.9054,1340.8921,1341.4081,1339.2772,103,1340.8919,1341.9055,1342.4052,1342.4054,1343.655,1231.3,1343.6556,2,1344.6523,6,9,189,29,1,1.6,0.7,Time
,,S12,372056,001,Male,25,2025-05-21_02h48.24.782,Serial_Dependence_U,2023.2.3,Win32,60.24096386,6769cc78e79f747dda9c7b8f,682cd3dfea4e15896da7c0a6,682d85156f0cae38cb521714,,,,,,,,,,,,1344.654,6,1344.6548,,,,1347.6012,1348.0984,1347.085,1347.601,1345.6699,97,1347.0848,1348.0984,1348.5978,1348.5979,1349.565,926.9,1349.5655,1,1350.5627,6,10,190,3,1,1.4,0.3,Time
,,S12,372056,001,Male,25,2025-05-21_02h48.24.782,Serial_Dependence_U,2023.2.3,Win32,60.24096386,6769cc78e79f747dda9c7b8f,682cd3dfea4e15896da7c0a6,682d85156f0cae38cb521714,,,,,,,,,,,,1350.5652,6,1350.5661,,,,1353.1115,1353.6093,1352.5954,1353.1115,1351.5803,131,1352.5951,1353.6094,1354.1081,1354.1082,1355.4418,982,1355.4422,3,1356.4388,6,11,191,26,1,1,0.7,Time
,,S12,372056,001,Male,25,2025-05-21_02h48.24.782,Serial_Dependence_U,2023.2.3,Win32,60.24096386,6769cc78e79f747dda9c7b8f,682cd3dfea4e15896da7c0a6,682d85156f0cae38cb521714,,,,,,,,,,,,1356.4405,6,1356.4413,,,,1359.5873,1360.0851,1359.0718,1359.5872,1357.4567,242,1359.0715,1360.0852,1360.5845,1360.5846,1361.8836,1274.7,1361.8847,2,1362.8823,6,12,192,14,1,1.6,0.3,Time
,,S12,372056,001,Male,25,2025-05-21_02h48.24.782,Serial_Dependence_U,2023.2.3,Win32,60.24096386,6769cc78e79f747dda9c7b8f,682cd3dfea4e15896da7c0a6,682d85156f0cae38cb521714,,,,,,,,,,,,1362.8847,6,1362.8857,,,,1365.4308,1365.9285,1364.9146,1365.4306,1363.8992,217,1364.9145,1365.9286,1366.4279,1366.4281,1367.3615,908.5,1367.3618,2,1368.3592,6,13,193,21,1,1,0.3,Time
,,S12,372056,001,Male,25,2025-05-21_02h48.24.782,Serial_Dependence_U,2023.2.3,Win32,60.24096386,6769cc78e79f747dda9c7b8f,682cd3dfea4e15896da7c0a6,682d85156f0cae38cb521714,,,,,,,,,,,,1368.3618,6,1368.3629,,,,1370.708,1371.2051,1370.1919,1370.7078,1369.3762,38,1370.1917,1371.2052,1371.7047,1371.7049,1372.8218,1098,1372.8222,5,1373.819,6,14,194,20,1,0.8,0.3,Time
,,S12,372056,001,Male,25,2025-05-21_02h48.24.782,Serial_Dependence_U,2023.2.3,Win32,60.24096386,6769cc78e79f747dda9c7b8f,682cd3dfea4e15896da7c0a6,682d85156f0cae38cb521714,,,,,,,,,,,,1373.8208,6,1373.8216,,,,1376.3682,1376.8654,1375.8521,1376.368,1374.8367,193,1375.852,1376.8655,1377.3659,1377.3661,1378.1654,756.3,1378.1664,2,1379.1633,6,15,195,16,1,1,0.7,Time
,,S12,372056,001,Male,25,2025-05-21_02h48.24.782,Serial_Dependence_U,2023.2.3,Win32,60.24096386,6769cc78e79f747dda9c7b8f,682cd3dfea4e15896da7c0a6,682d85156f0cae38cb521714,,,,,,,,,,,,1379.1655,6,1379.1666,,,,1381.9118,1382.409,1381.3957,1381.9118,1380.1805,161,1381.3956,1382.409,1382.9087,1382.909,1383.659,726.5,1383.6598,1,1384.6566,6,16,196,7,1,1.2,0.7,Time
,,S12,372056,001,Male,25,2025-05-21_02h48.24.782,Serial_Dependence_U,2023.2.3,Win32,60.24096386,6769cc78e79f747dda9c7b8f,682cd3dfea4e15896da7c0a6,682d85156f0cae38cb521714,,,,,,,,,,,,1384.6584,6,1384.6591,,,,1387.4055,1387.9035,1386.8895,1387.4054,1385.6742,320,1386.8894,1387.9035,1388.4022,1388.4023,1389.3196,898.5,1389.32,2,1390.3175,6,17,197,27,1,1.2,0.7,Time
,,S12,372056,001,Male,25,2025-05-21_02h48.24.782,Serial_Dependence_U,2023.2.3,Win32,60.24096386,6769cc78e79f747dda9c7b8f,682cd3dfea4e15896da7c0a6,682d85156f0cae38cb521714,,,,,,,,,,,,1390.3198,6,1390.321,,,,1392.6662,1393.1639,1392.1502,1392.6661,1391.3344,147,1392.15,1393.164,1393.663,1393.6632,1395.0465,1051,1395.0469,5,1396.044,6,18,198,15,1,0.8,0.7,Time
,,S12,372056,001,Male,25,2025-05-21_02h48.24.782,Serial_Dependence_U,2023.2.3,Win32,60.24096386,6769cc78e79f747dda9c7b8f,682cd3dfea4e15896da7c0a6,682d85156f0cae38cb521714,,,,,,,,,,,,1396.0463,6,1396.0475,,,,1398.5927,1399.0901,1398.0766,1398.5925,1397.0614,156,1398.0765,1399.0902,1399.5895,1399.5897,1400.4903,860.3,1400.4906,2,1401.4873,6,19,199,1,1,1,0.3,Time
,,S12,372056,001,Male,25,2025-05-21_02h48.24.782,Serial_Dependence_U,2023.2.3,Win32,60.24096386,6769cc78e79f747dda9c7b8f,682cd3dfea4e15896da7c0a6,682d85156f0cae38cb521714,,,,,,,,,,,,1401.4891,6,1401.49,,,,1404.6358,1405.1332,1404.1197,1404.6357,1402.5049,167,1404.1195,1405.1333,1405.6326,1405.6327,1406.5656,895.8,1406.5669,1,1407.5636,6,20,200,9,1,1.6,0.7,Time
,,S12,372056,001,Male,25,2025-05-21_02h48.24.782,Serial_Dependence_U,2023.2.3,Win32,60.24096386,6769cc78e79f747dda9c7b8f,682cd3dfea4e15896da7c0a6,682d85156f0cae38cb521714,,,,,,,,,,,,1407.5653,6,1407.5662,,,,1409.9132,1410.4104,1409.397,1409.913,1408.5812,104,1409.3969,1410.4104,1410.9099,1410.9099,1411.7607,829.8,1411.7612,3,1412.7582,6,21,201,5,1,0.8,0.7,Time
,,S12,372056,001,Male,25,2025-05-21_02h48.24.782,Serial_Dependence_U,2023.2.3,Win32,60.24096386,6769cc78e79f747dda9c7b8f,682cd3dfea4e15896da7c0a6,682d85156f0cae38cb521714,,,,,,,,,,,,1412.7606,6,1412.7615,,,,1415.7065,1416.2037,1415.1905,1415.7064,1413.7754,270,1415.1903,1416.2037,1416.7036,1416.7037,1418.8528,1715.2,1418.8535,4,1419.8502,6,22,202,13,1,1.4,0.3,Time
,,S12,372056,001,Male,25,2025-05-21_02h48.24.782,Serial_Dependence_U,2023.2.3,Win32,60.24096386,6769cc78e79f747dda9c7b8f,682cd3dfea4e15896da7c0a6,682d85156f0cae38cb521714,,,,,,,,,,,,1419.8529,6,1419.854,,,,1422.9981,1423.496,1422.482,1422.9979,1420.8673,39,1422.4819,1423.4961,1423.9957,1423.9959,1425.0454,1025.2,1425.0458,1,1426.043,6,23,203,4,1,1.6,0.3,Time
,,S12,372056,001,Male,25,2025-05-21_02h48.24.782,Serial_Dependence_U,2023.2.3,Win32,60.24096386,6769cc78e79f747dda9c7b8f,682cd3dfea4e15896da7c0a6,682d85156f0cae38cb521714,,,,,,,,,,,,1426.0457,6,1426.0467,,,,1428.392,1428.8893,1427.8759,1428.3919,1427.0601,199,1427.8758,1428.8893,1429.3886,1429.3887,1431.0051,1182.4,1431.0057,5,1432.0023,6,24,204,10,1,0.8,0.3,Time
,,S12,372056,001,Male,25,2025-05-21_02h48.24.782,Serial_Dependence_U,2023.2.3,Win32,60.24096386,6769cc78e79f747dda9c7b8f,682cd3dfea4e15896da7c0a6,682d85156f0cae38cb521714,,,,,,,,,,,,1432.0038,6,1432.0048,,,,1434.5516,1435.0493,1434.0353,1434.5514,1433.0201,74,1434.0346,1435.0493,1435.5488,1435.5489,1436.915,1098.3,1436.9155,4,1437.913,6,25,205,11,1,1,0.3,Time
,,S12,372056,001,Male,25,2025-05-21_02h48.24.782,Serial_Dependence_U,2023.2.3,Win32,60.24096386,6769cc78e79f747dda9c7b8f,682cd3dfea4e15896da7c0a6,682d85156f0cae38cb521714,,,,,,,,,,,,1437.9154,6,1437.9165,,,,1440.8611,1441.3588,1440.345,1440.8609,1438.93,55,1440.3449,1441.3589,1441.8583,1441.8584,1442.8918,816.7,1442.8929,1,1443.8888,6,26,206,8,1,1.4,0.7,Time
,,S12,372056,001,Male,25,2025-05-21_02h48.24.782,Serial_Dependence_U,2023.2.3,Win32,60.24096386,6769cc78e79f747dda9c7b8f,682cd3dfea4e15896da7c0a6,682d85156f0cae38cb521714,,,,,,,,,,,,1443.8909,6,1443.8916,,,,1446.638,1447.1355,1446.1216,1446.6378,1444.9065,132,1446.1215,1447.1356,1447.635,1447.635,1448.7681,1107.4,1448.7686,2,1449.766,6,27,207,17,1,1.2,0.7,Time
,,S12,372056,001,Male,25,2025-05-21_02h48.24.782,Serial_Dependence_U,2023.2.3,Win32,60.24096386,6769cc78e79f747dda9c7b8f,682cd3dfea4e15896da7c0a6,682d85156f0cae38cb521714,,,,,,,,,,,,1449.7685,6,1449.7698,,,,1452.9146,1453.4117,1452.3977,1452.9142,1450.7858,222,1452.3977,1453.4118,1453.9108,1453.9109,1454.6448,716,1454.6452,1,1455.6426,6,28,208,24,1,1.6,0.3,Time
,,S12,372056,001,Male,25,2025-05-21_02h48.24.782,Serial_Dependence_U,2023.2.3,Win32,60.24096386,6769cc78e79f747dda9c7b8f,682cd3dfea4e15896da7c0a6,682d85156f0cae38cb521714,,,,,,,,,,,,1455.645,6,1455.6465,,,,1458.5907,1459.0885,1458.0748,1458.5906,1456.6602,31,1458.0747,1459.0886,1459.5881,1459.5881,1460.405,792,1460.4054,1,1461.4023,6,29,209,23,1,1.4,0.3,Time
,,S12,372056,001,Male,25,2025-05-21_02h48.24.782,Serial_Dependence_U,2023.2.3,Win32,60.24096386,6769cc78e79f747dda9c7b8f,682cd3dfea4e15896da7c0a6,682d85156f0cae38cb521714,,,,,,,,,,,,1461.404,7,1464.3323,s,2.9044,,1467.0812,1467.5784,1466.5649,1467.0811,1465.3499,94,1466.5647,1467.5784,1468.0777,1468.0778,1468.9619,865.2,1468.9623,2,1469.9595,7,0,210,7,1,1.2,0.7,Time
,,S12,372056,001,Male,25,2025-05-21_02h48.24.782,Serial_Dependence_U,2023.2.3,Win32,60.24096386,6769cc78e79f747dda9c7b8f,682cd3dfea4e15896da7c0a6,682d85156f0cae38cb521714,,,,,,,,,,,,1469.962,7,1469.967,,,,1472.3085,1472.8057,1471.7923,1472.3083,1470.977,233,1471.7922,1472.8057,1473.3058,1473.3059,1475.7873,947.1,1475.7878,4,1476.785,7,1,211,15,1,0.8,0.7,Time
,,S12,372056,001,Male,25,2025-05-21_02h48.24.782,Serial_Dependence_U,2023.2.3,Win32,60.24096386,6769cc78e79f747dda9c7b8f,682cd3dfea4e15896da7c0a6,682d85156f0cae38cb521714,,,,,,,,,,,,1476.7877,7,1476.7887,,,,1479.9331,1480.4308,1479.4169,1479.9329,1477.8026,273,1479.4167,1480.4309,1480.9304,1480.9306,1481.9635,1013.6,1481.9641,1,1482.961,7,2,212,29,1,1.6,0.7,Time
,,S12,372056,001,Male,25,2025-05-21_02h48.24.782,Serial_Dependence_U,2023.2.3,Win32,60.24096386,6769cc78e79f747dda9c7b8f,682cd3dfea4e15896da7c0a6,682d85156f0cae38cb521714,,,,,,,,,,,,1482.9629,7,1482.9636,,,,1485.9096,1486.4073,1485.3934,1485.9095,1483.9788,316,1485.3933,1486.4074,1486.9063,1486.9064,1487.84,912.2,1487.8406,1,1488.8374,7,3,213,18,1,1.4,0.7,Time
,,S12,372056,001,Male,25,2025-05-21_02h48.24.782,Serial_Dependence_U,2023.2.3,Win32,60.24096386,6769cc78e79f747dda9c7b8f,682cd3dfea4e15896da7c0a6,682d85156f0cae38cb521714,,,,,,,,,,,,1488.8391,7,1488.8401,,,,1491.3866,1491.8844,1490.8704,1491.3865,1489.855,252,1490.8704,1491.8844,1492.3833,1492.3834,1493.6337,1015.8,1493.634,3,1494.6309,7,4,214,11,1,1,0.3,Time
,,S12,372056,001,Male,25,2025-05-21_02h48.24.782,Serial_Dependence_U,2023.2.3,Win32,60.24096386,6769cc78e79f747dda9c7b8f,682cd3dfea4e15896da7c0a6,682d85156f0cae38cb521714,,,,,,,,,,,,1494.6329,7,1494.6339,,,,1497.5795,1498.0769,1497.0634,1497.5794,1495.6486,325,1497.0632,1498.0769,1498.5763,1498.5764,1499.6423,1050,1499.6437,2,1500.6413,7,5,215,13,1,1.4,0.3,Time
,,S12,372056,001,Male,25,2025-05-21_02h48.24.782,Serial_Dependence_U,2023.2.3,Win32,60.24096386,6769cc78e79f747dda9c7b8f,682cd3dfea4e15896da7c0a6,682d85156f0cae38cb521714,,,,,,,,,,,,1500.6444,7,1500.6457,,,,1503.1897,1503.6875,1502.6736,1503.1896,1501.6587,250,1502.6734,1503.6876,1504.1868,1504.1869,1505.5693,1367.8,1505.5704,5,1506.5671,7,6,216,1,1,1,0.3,Time
,,S12,372056,001,Male,25,2025-05-21_02h48.24.782,Serial_Dependence_U,2023.2.3,Win32,60.24096386,6769cc78e79f747dda9c7b8f,682cd3dfea4e15896da7c0a6,682d85156f0cae38cb521714,,,,,,,,,,,,1506.5686,7,1506.5696,,,,1508.9166,1509.4146,1508.4003,1508.9165,1507.5847,241,1508.4002,1509.4146,1509.9134,1509.9136,1510.6141,681,1510.6146,2,1511.6121,7,7,217,20,1,0.8,0.3,Time
,,S12,372056,001,Male,25,2025-05-21_02h48.24.782,Serial_Dependence_U,2023.2.3,Win32,60.24096386,6769cc78e79f747dda9c7b8f,682cd3dfea4e15896da7c0a6,682d85156f0cae38cb521714,,,,,,,,,,,,1511.6146,7,1511.6155,,,,1514.5601,1515.0573,1514.0439,1514.5599,1512.6298,264,1514.0438,1515.0573,1515.5573,1515.5574,1516.6072,1023.7,1516.6077,2,1517.6046,7,8,218,28,1,1.4,0.7,Time
,,S12,372056,001,Male,25,2025-05-21_02h48.24.782,Serial_Dependence_U,2023.2.3,Win32,60.24096386,6769cc78e79f747dda9c7b8f,682cd3dfea4e15896da7c0a6,682d85156f0cae38cb521714,,,,,,,,,,,,1517.6065,7,1517.6072,,,,1520.7531,1521.2507,1520.2369,1520.7529,1518.622,49,1520.2368,1521.2508,1521.7499,1521.7501,1522.6826,895.2,1522.684,1,1523.6814,7,9,219,9,1,1.6,0.7,Time
,,S12,372056,001,Male,25,2025-05-21_02h48.24.782,Serial_Dependence_U,2023.2.3,Win32,60.24096386,6769cc78e79f747dda9c7b8f,682cd3dfea4e15896da7c0a6,682d85156f0cae38cb521714,,,,,,,,,,,,1523.6837,7,1523.6847,,,,1526.23,1526.7278,1525.7141,1526.23,1524.6984,222,1525.7139,1526.7279,1527.2268,1527.2268,1527.9112,664,1527.9114,1,1528.9081,7,10,220,6,1,1,0.7,Time
,,S12,372056,001,Male,25,2025-05-21_02h48.24.782,Serial_Dependence_U,2023.2.3,Win32,60.24096386,6769cc78e79f747dda9c7b8f,682cd3dfea4e15896da7c0a6,682d85156f0cae38cb521714,,,,,,,,,,,,1528.9098,7,1528.9107,,,,1531.6572,1532.1546,1531.141,1531.657,1529.9258,209,1531.1409,1532.1547,1532.6542,1532.6543,1533.6212,948.7,1533.6214,2,1534.6183,7,11,221,22,1,1.2,0.3,Time
,,S12,372056,001,Male,25,2025-05-21_02h48.24.782,Serial_Dependence_U,2023.2.3,Win32,60.24096386,6769cc78e79f747dda9c7b8f,682cd3dfea4e15896da7c0a6,682d85156f0cae38cb521714,,,,,,,,,,,,1534.6201,7,1534.6206,,,,1537.7668,1538.2647,1537.2507,1537.7667,1535.6376,124,1537.2506,1538.2647,1538.7636,1538.7636,1539.7465,963.7,1539.7477,1,1540.7445,7,12,222,24,1,1.6,0.3,Time
,,S12,372056,001,Male,25,2025-05-21_02h48.24.782,Serial_Dependence_U,2023.2.3,Win32,60.24096386,6769cc78e79f747dda9c7b8f,682cd3dfea4e15896da7c0a6,682d85156f0cae38cb521714,,,,,,,,,,,,1540.7463,7,1540.7471,,,,1543.0941,1543.5918,1542.578,1543.094,1541.7621,218,1542.5778,1543.5919,1544.0909,1544.0911,1545.2413,1107.7,1545.2416,5,1546.2389,7,13,223,0,1,0.8,0.3,Time
,,S12,372056,001,Male,25,2025-05-21_02h48.24.782,Serial_Dependence_U,2023.2.3,Win32,60.24096386,6769cc78e79f747dda9c7b8f,682cd3dfea4e15896da7c0a6,682d85156f0cae38cb521714,,,,,,,,,,,,1546.2412,7,1546.2421,,,,1548.5878,1549.0852,1548.0718,1548.5876,1547.2559,128,1548.0717,1549.0852,1549.585,1549.5852,1550.9515,1099.8,1550.9519,5,1551.9486,7,14,224,5,1,0.8,0.7,Time
,,S12,372056,001,Male,25,2025-05-21_02h48.24.782,Serial_Dependence_U,2023.2.3,Win32,60.24096386,6769cc78e79f747dda9c7b8f,682cd3dfea4e15896da7c0a6,682d85156f0cae38cb521714,,,,,,,,,,,,1551.9504,7,1551.9515,,,,1555.0969,1555.5943,1554.5812,1555.0969,1552.9661,310,1554.5811,1555.5944,1556.0934,1556.0936,1557.1103,981.4,1557.1113,1,1558.1085,7,15,225,4,1,1.6,0.3,Time
,,S12,372056,001,Male,25,2025-05-21_02h48.24.782,Serial_Dependence_U,2023.2.3,Win32,60.24096386,6769cc78e79f747dda9c7b8f,682cd3dfea4e15896da7c0a6,682d85156f0cae38cb521714,,,,,,,,,,,,1558.111,7,1558.1119,,,,1560.6573,1561.1545,1560.1412,1560.6571,1559.1256,245,1560.141,1561.1545,1561.6539,1561.654,1563.6203,1232,1563.6207,4,1564.6174,7,16,226,26,1,1,0.7,Time
,,S12,372056,001,Male,25,2025-05-21_02h48.24.782,Serial_Dependence_U,2023.2.3,Win32,60.24096386,6769cc78e79f747dda9c7b8f,682cd3dfea4e15896da7c0a6,682d85156f0cae38cb521714,,,,,,,,,,,,1564.6194,7,1564.6203,,,,1567.3664,1567.8642,1566.8502,1567.3662,1565.635,117,1566.85,1567.8642,1568.3631,1568.3631,1569.3638,978.3,1569.3641,2,1570.3614,7,17,227,17,1,1.2,0.7,Time
,,S12,372056,001,Male,25,2025-05-21_02h48.24.782,Serial_Dependence_U,2023.2.3,Win32,60.24096386,6769cc78e79f747dda9c7b8f,682cd3dfea4e15896da7c0a6,682d85156f0cae38cb521714,,,,,,,,,,,,1570.3641,7,1570.365,,,,1573.3095,1573.8068,1572.7933,1573.3094,1571.3785,305,1572.7932,1573.8069,1574.3067,1574.307,1575.5899,1261.2,1575.5904,2,1576.5875,7,18,228,23,1,1.4,0.3,Time
,,S12,372056,001,Male,25,2025-05-21_02h48.24.782,Serial_Dependence_U,2023.2.3,Win32,60.24096386,6769cc78e79f747dda9c7b8f,682cd3dfea4e15896da7c0a6,682d85156f0cae38cb521714,,,,,,,,,,,,1576.5901,7,1576.5909,,,,1579.5356,1580.0333,1579.0197,1579.5355,1577.6045,260,1579.0197,1580.0334,1580.533,1580.5331,1582.266,1435,1582.2663,3,1583.2633,7,19,229,3,1,1.4,0.3,Time
,,S12,372056,001,Male,25,2025-05-21_02h48.24.782,Serial_Dependence_U,2023.2.3,Win32,60.24096386,6769cc78e79f747dda9c7b8f,682cd3dfea4e15896da7c0a6,682d85156f0cae38cb521714,,,,,,,,,,,,1583.2657,7,1583.2673,,,,1585.8121,1586.3098,1585.2962,1585.812,1584.2804,190,1585.2957,1586.3098,1586.8093,1586.8094,1587.8591,1023.6,1587.8596,3,1588.8562,7,20,230,21,1,1,0.3,Time
,,S12,372056,001,Male,25,2025-05-21_02h48.24.782,Serial_Dependence_U,2023.2.3,Win32,60.24096386,6769cc78e79f747dda9c7b8f,682cd3dfea4e15896da7c0a6,682d85156f0cae38cb521714,,,,,,,,,,,,1588.8581,7,1588.8587,,,,1592.0048,1592.5025,1591.4886,1592.0047,1589.8738,181,1591.4886,1592.5026,1593.002,1593.0021,1593.6859,657.6,1593.6862,1,1594.6832,7,21,231,19,1,1.6,0.7,Time
,,S12,372056,001,Male,25,2025-05-21_02h48.24.782,Serial_Dependence_U,2023.2.3,Win32,60.24096386,6769cc78e79f747dda9c7b8f,682cd3dfea4e15896da7c0a6,682d85156f0cae38cb521714,,,,,,,,,,,,1594.6858,7,1594.6867,,,,1597.8314,1598.3287,1597.3153,1597.8312,1595.7006,89,1597.3151,1598.3288,1598.8282,1598.8283,1599.9784,1130.9,1599.979,2,1600.9761,7,22,232,14,1,1.6,0.3,Time
,,S12,372056,001,Male,25,2025-05-21_02h48.24.782,Serial_Dependence_U,2023.2.3,Win32,60.24096386,6769cc78e79f747dda9c7b8f,682cd3dfea4e15896da7c0a6,682d85156f0cae38cb521714,,,,,,,,,,,,1600.9786,7,1600.9797,,,,1603.5248,1604.0227,1603.0088,1603.5247,1601.9933,233,1603.0087,1604.0228,1604.5222,1604.5224,1606.1547,1215.4,1606.1553,4,1607.1527,7,23,233,16,1,1,0.7,Time
,,S12,372056,001,Male,25,2025-05-21_02h48.24.782,Serial_Dependence_U,2023.2.3,Win32,60.24096386,6769cc78e79f747dda9c7b8f,682cd3dfea4e15896da7c0a6,682d85156f0cae38cb521714,,,,,,,,,,,,1607.155,7,1607.1562,,,,1609.5015,1609.9992,1608.9852,1609.5013,1608.1696,298,1608.9851,1609.9993,1610.4982,1610.4983,1611.6486,1111.6,1611.649,5,1612.6461,7,24,234,25,1,0.8,0.7,Time
,,S12,372056,001,Male,25,2025-05-21_02h48.24.782,Serial_Dependence_U,2023.2.3,Win32,60.24096386,6769cc78e79f747dda9c7b8f,682cd3dfea4e15896da7c0a6,682d85156f0cae38cb521714,,,,,,,,,,,,1612.6485,7,1612.6495,,,,1615.3949,1615.8919,1614.8787,1615.3947,1613.6634,50,1614.8784,1615.892,1616.3914,1616.3919,1617.6084,1197.9,1617.6088,3,1618.6061,7,25,235,2,1,1.2,0.3,Time
,,S12,372056,001,Male,25,2025-05-21_02h48.24.782,Serial_Dependence_U,2023.2.3,Win32,60.24096386,6769cc78e79f747dda9c7b8f,682cd3dfea4e15896da7c0a6,682d85156f0cae38cb521714,,,,,,,,,,,,1618.6085,7,1618.6098,,,,1621.5543,1622.0516,1621.0382,1621.5542,1619.6231,148,1621.038,1622.0517,1622.5511,1622.5512,1623.3694,802.5,1623.3698,1,1624.366,7,26,236,8,1,1.4,0.7,Time
,,S12,372056,001,Male,25,2025-05-21_02h48.24.782,Serial_Dependence_U,2023.2.3,Win32,60.24096386,6769cc78e79f747dda9c7b8f,682cd3dfea4e15896da7c0a6,682d85156f0cae38cb521714,,,,,,,,,,,,1624.3685,7,1624.3694,,,,1626.715,1627.2124,1626.199,1626.7148,1625.3832,122,1626.1988,1627.2124,1627.7123,1627.7125,1628.6623,905,1628.6632,4,1629.6606,7,27,237,10,1,0.8,0.3,Time
,,S12,372056,001,Male,25,2025-05-21_02h48.24.782,Serial_Dependence_U,2023.2.3,Win32,60.24096386,6769cc78e79f747dda9c7b8f,682cd3dfea4e15896da7c0a6,682d85156f0cae38cb521714,,,,,,,,,,,,1629.6625,7,1629.6634,,,,1632.4087,1632.906,1631.8926,1632.4082,1630.6773,21,1631.8921,1632.9061,1633.4053,1633.4054,1634.3552,928.1,1634.3566,2,1635.3532,7,28,238,27,1,1.2,0.7,Time
,,S12,372056,001,Male,25,2025-05-21_02h48.24.782,Serial_Dependence_U,2023.2.3,Win32,60.24096386,6769cc78e79f747dda9c7b8f,682cd3dfea4e15896da7c0a6,682d85156f0cae38cb521714,,,,,,,,,,,,1635.3547,7,1635.3553,,,,1638.1022,1638.5994,1637.5858,1638.1018,1636.3705,210,1637.5857,1638.5994,1639.1002,1639.1003,1640.0989,963.7,1640.0998,2,1641.0966,7,29,239,12,1,1.2,0.3,Time
,,S12,372056,001,Male,25,2025-05-21_02h48.24.782,Serial_Dependence_U,2023.2.3,Win32,60.24096386,6769cc78e79f747dda9c7b8f,682cd3dfea4e15896da7c0a6,682d85156f0cae38cb521714,,,,,,,,,,,,1641.0981,8,1643.5286,s,2.4114,,1646.076,1646.5744,1645.5601,1646.0759,1644.5455,203,1645.5599,1646.5745,1647.074,1647.0741,1648.0402,944.3,1648.041,2,1649.0381,8,0,240,1,1,1,0.3,Time
,,S12,372056,001,Male,25,2025-05-21_02h48.24.782,Serial_Dependence_U,2023.2.3,Win32,60.24096386,6769cc78e79f747dda9c7b8f,682cd3dfea4e15896da7c0a6,682d85156f0cae38cb521714,,,,,,,,,,,,1649.0398,8,1649.0446,,,,1651.986,1652.4838,1651.4704,1651.9858,1650.0555,295,1651.4699,1652.4838,1652.9831,1652.9831,1654.0831,1081.5,1654.084,2,1655.0807,8,1,241,28,1,1.4,0.7,Time
,,S12,372056,001,Male,25,2025-05-21_02h48.24.782,Serial_Dependence_U,2023.2.3,Win32,60.24096386,6769cc78e79f747dda9c7b8f,682cd3dfea4e15896da7c0a6,682d85156f0cae38cb521714,,,,,,,,,,,,1655.0821,8,1655.0825,,,,1658.2293,1658.7264,1657.7133,1658.2289,1656.098,39,1657.7128,1658.7264,1659.226,1659.226,1660.1595,887,1660.1603,1,1661.1577,8,2,242,4,1,1.6,0.3,Time
,,S12,372056,001,Male,25,2025-05-21_02h48.24.782,Serial_Dependence_U,2023.2.3,Win32,60.24096386,6769cc78e79f747dda9c7b8f,682cd3dfea4e15896da7c0a6,682d85156f0cae38cb521714,,,,,,,,,,,,1661.1596,8,1661.1604,,,,1664.1059,1664.603,1663.5898,1664.1054,1662.1747,62,1663.5893,1664.603,1665.1026,1665.1027,1666.2025,1073.4,1666.2035,2,1667.2002,8,3,243,13,1,1.4,0.3,Time
,,S12,372056,001,Male,25,2025-05-21_02h48.24.782,Serial_Dependence_U,2023.2.3,Win32,60.24096386,6769cc78e79f747dda9c7b8f,682cd3dfea4e15896da7c0a6,682d85156f0cae38cb521714,,,,,,,,,,,,1667.2017,8,1667.2025,,,,1669.7493,1670.2467,1669.2335,1669.7489,1668.218,169,1669.2331,1670.2468,1670.746,1670.7461,1672.2458,1474.2,1672.2468,5,1673.2433,8,4,244,11,1,1,0.3,Time
,,S12,372056,001,Male,25,2025-05-21_02h48.24.782,Serial_Dependence_U,2023.2.3,Win32,60.24096386,6769cc78e79f747dda9c7b8f,682cd3dfea4e15896da7c0a6,682d85156f0cae38cb521714,,,,,,,,,,,,1673.2457,8,1673.2466,,,,1675.5924,1676.0898,1675.0763,1675.5923,1674.2607,25,1675.0762,1676.0899,1676.5891,1676.5892,1677.4898,462.8,1677.4902,1,1678.4872,8,5,245,20,1,0.8,0.3,Time
,,S12,372056,001,Male,25,2025-05-21_02h48.24.782,Serial_Dependence_U,2023.2.3,Win32,60.24096386,6769cc78e79f747dda9c7b8f,682cd3dfea4e15896da7c0a6,682d85156f0cae38cb521714,,,,,,,,,,,,1678.4892,8,1678.4901,,,,1681.6354,1682.1334,1681.1194,1681.6354,1679.5045,275,1681.1192,1682.1334,1682.6323,1682.6323,1683.3497,634.7,1683.3502,1,1684.3473,8,6,246,14,1,1.6,0.3,Time
,,S12,372056,001,Male,25,2025-05-21_02h48.24.782,Serial_Dependence_U,2023.2.3,Win32,60.24096386,6769cc78e79f747dda9c7b8f,682cd3dfea4e15896da7c0a6,682d85156f0cae38cb521714,,,,,,,,,,,,1684.3493,8,1684.35,,,,1686.6964,1687.194,1686.1803,1686.6963,1685.3647,165,1686.1801,1687.1941,1687.6935,1687.6936,1688.8935,1091.9,1688.894,5,1689.8906,8,7,247,0,1,0.8,0.3,Time
,,S12,372056,001,Male,25,2025-05-21_02h48.24.782,Serial_Dependence_U,2023.2.3,Win32,60.24096386,6769cc78e79f747dda9c7b8f,682cd3dfea4e15896da7c0a6,682d85156f0cae38cb521714,,,,,,,,,,,,1689.8921,8,1689.8931,,,,1693.0391,1693.5369,1692.5237,1693.039,1690.9083,212,1692.5233,1693.537,1694.0363,1694.0364,1694.8701,809.5,1694.8704,1,1695.8676,8,8,248,24,1,1.6,0.3,Time
,,S12,372056,001,Male,25,2025-05-21_02h48.24.782,Serial_Dependence_U,2023.2.3,Win32,60.24096386,6769cc78e79f747dda9c7b8f,682cd3dfea4e15896da7c0a6,682d85156f0cae38cb521714,,,,,,,,,,,,1695.8703,8,1695.8711,,,,1698.4164,1698.9135,1697.9002,1698.4162,1696.8847,79,1697.9,1698.9135,1699.413,1699.4131,1700.2129,764.1,1700.2141,2,1701.2111,8,9,249,6,1,1,0.7,Time
,,S12,372056,001,Male,25,2025-05-21_02h48.24.782,Serial_Dependence_U,2023.2.3,Win32,60.24096386,6769cc78e79f747dda9c7b8f,682cd3dfea4e15896da7c0a6,682d85156f0cae38cb521714,,,,,,,,,,,,1701.2132,8,1701.2141,,,,1704.3595,1704.8568,1703.8435,1704.3594,1702.2286,84,1703.8434,1704.8568,1705.3561,1705.3561,1706.7232,1325.3,1706.7241,2,1707.7201,8,10,250,29,1,1.6,0.7,Time
,,S12,372056,001,Male,25,2025-05-21_02h48.24.782,Serial_Dependence_U,2023.2.3,Win32,60.24096386,6769cc78e79f747dda9c7b8f,682cd3dfea4e15896da7c0a6,682d85156f0cae38cb521714,,,,,,,,,,,,1707.722,8,1707.7227,,,,1710.0696,1710.5669,1709.5535,1710.0694,1708.7381,42,1709.5534,1710.567,1711.067,1711.0672,1711.8339,741.9,1711.8343,2,1712.8314,8,11,251,15,1,0.8,0.7,Time
,,S12,372056,001,Male,25,2025-05-21_02h48.24.782,Serial_Dependence_U,2023.2.3,Win32,60.24096386,6769cc78e79f747dda9c7b8f,682cd3dfea4e15896da7c0a6,682d85156f0cae38cb521714,,,,,,,,,,,,1712.8338,8,1712.8349,,,,1715.7798,1716.2772,1715.2637,1715.7796,1713.8487,37,1715.2635,1716.2772,1716.7767,1716.7769,1717.7105,894.2,1717.7109,1,1718.7083,8,12,252,8,1,1.4,0.7,Time
,,S12,372056,001,Male,25,2025-05-21_02h48.24.782,Serial_Dependence_U,2023.2.3,Win32,60.24096386,6769cc78e79f747dda9c7b8f,682cd3dfea4e15896da7c0a6,682d85156f0cae38cb521714,,,,,,,,,,,,1718.7108,8,1718.7117,,,,1721.2401,1721.7381,1720.7302,1721.2399,1719.7252,83,1720.7301,1721.7381,1722.237,1722.237,1723.2209,879.9,1723.2214,2,1724.2185,8,13,253,16,1,1,0.7,Time
,,S12,372056,001,Male,25,2025-05-21_02h48.24.782,Serial_Dependence_U,2023.2.3,Win32,60.24096386,6769cc78e79f747dda9c7b8f,682cd3dfea4e15896da7c0a6,682d85156f0cae38cb521714,,,,,,,,,,,,1724.2221,8,1724.2234,,,,1726.967,1727.4648,1726.4509,1726.9668,1725.2356,226,1726.4508,1727.4649,1727.9642,1727.9644,1729.1636,898.7,1729.1645,2,1730.1612,8,14,254,12,1,1.2,0.3,Time
,,S12,372056,001,Male,25,2025-05-21_02h48.24.782,Serial_Dependence_U,2023.2.3,Win32,60.24096386,6769cc78e79f747dda9c7b8f,682cd3dfea4e15896da7c0a6,682d85156f0cae38cb521714,,,,,,,,,,,,1730.1631,8,1730.1638,,,,1732.5104,1733.009,1731.9946,1732.5103,1731.1792,99,1731.9943,1733.0091,1733.5085,1733.5088,1734.4742,937.4,1734.4752,4,1735.4719,8,15,255,10,1,0.8,0.3,Time
,,S12,372056,001,Male,25,2025-05-21_02h48.24.782,Serial_Dependence_U,2023.2.3,Win32,60.24096386,6769cc78e79f747dda9c7b8f,682cd3dfea4e15896da7c0a6,682d85156f0cae38cb521714,,,,,,,,,,,,1735.4733,8,1735.474,,,,1737.8215,1738.3186,1737.3053,1737.821,1736.49,62,1737.3048,1738.3187,1738.8181,1738.8182,1739.5685,736.3,1739.5695,2,1740.5673,8,16,256,25,1,0.8,0.7,Time
,,S12,372056,001,Male,25,2025-05-21_02h48.24.782,Serial_Dependence_U,2023.2.3,Win32,60.24096386,6769cc78e79f747dda9c7b8f,682cd3dfea4e15896da7c0a6,682d85156f0cae38cb521714,,,,,,,,,,,,1740.5694,8,1740.5702,,,,1743.7155,1744.212,1743.1984,1743.7151,1741.584,3,1743.1982,1744.2121,1744.7114,1744.7114,1745.7114,960.4,1745.7123,1,1746.7099,8,17,257,9,1,1.6,0.7,Time
,,S12,372056,001,Male,25,2025-05-21_02h48.24.782,Serial_Dependence_U,2023.2.3,Win32,60.24096386,6769cc78e79f747dda9c7b8f,682cd3dfea4e15896da7c0a6,682d85156f0cae38cb521714,,,,,,,,,,,,1746.7117,8,1746.7129,,,,1749.4581,1749.9554,1748.9421,1749.4577,1747.7264,126,1748.9415,1749.9554,1750.4548,1750.4549,1752.0209,1234.5,1752.0218,3,1753.0192,8,18,258,22,1,1.2,0.3,Time
,,S12,372056,001,Male,25,2025-05-21_02h48.24.782,Serial_Dependence_U,2023.2.3,Win32,60.24096386,6769cc78e79f747dda9c7b8f,682cd3dfea4e15896da7c0a6,682d85156f0cae38cb521714,,,,,,,,,,,,1753.021,8,1753.0222,,,,1755.9669,1756.4655,1755.451,1755.9668,1754.0364,37,1755.4508,1756.4656,1756.9677,1756.9679,1757.9475,950.9,1757.9483,1,1758.9451,8,19,259,3,1,1.4,0.3,Time
,,S12,372056,001,Male,25,2025-05-21_02h48.24.782,Serial_Dependence_U,2023.2.3,Win32,60.24096386,6769cc78e79f747dda9c7b8f,682cd3dfea4e15896da7c0a6,682d85156f0cae38cb521714,,,,,,,,,,,,1758.9464,8,1758.9468,,,,1761.4954,1761.9917,1760.9779,1761.495,1759.9631,264,1760.9778,1761.9918,1762.4952,1762.4953,1763.3913,852.1,1763.3921,2,1764.389,8,20,260,21,1,1,0.3,Time
,,S12,372056,001,Male,25,2025-05-21_02h48.24.782,Serial_Dependence_U,2023.2.3,Win32,60.24096386,6769cc78e79f747dda9c7b8f,682cd3dfea4e15896da7c0a6,682d85156f0cae38cb521714,,,,,,,,,,,,1764.3902,8,1764.3908,,,,1767.1375,1767.6363,1766.6226,1767.1374,1765.4067,285,1766.6222,1767.6364,1768.1376,1768.1377,1769.0684,901.5,1769.0695,2,1770.0657,8,21,261,27,1,1.2,0.7,Time
,,S12,372056,001,Male,25,2025-05-21_02h48.24.782,Serial_Dependence_U,2023.2.3,Win32,60.24096386,6769cc78e79f747dda9c7b8f,682cd3dfea4e15896da7c0a6,682d85156f0cae38cb521714,,,,,,,,,,,,1770.0669,8,1770.0675,,,,1772.8149,1773.3136,1772.2985,1772.8144,1771.0835,34,1772.2981,1773.3138,1773.8117,1773.8118,1774.695,791.7,1774.6959,1,1775.6925,8,22,262,7,1,1.2,0.7,Time
,,S12,372056,001,Male,25,2025-05-21_02h48.24.782,Serial_Dependence_U,2023.2.3,Win32,60.24096386,6769cc78e79f747dda9c7b8f,682cd3dfea4e15896da7c0a6,682d85156f0cae38cb521714,,,,,,,,,,,,1775.6939,8,1775.6944,,,,1778.0421,1778.542,1777.5264,1778.0415,1776.7099,171,1777.5259,1778.542,1779.0388,1779.0389,1779.5397,482.2,1779.5406,1,1780.538,8,23,263,5,1,0.8,0.7,Time
,,S12,372056,001,Male,25,2025-05-21_02h48.24.782,Serial_Dependence_U,2023.2.3,Win32,60.24096386,6769cc78e79f747dda9c7b8f,682cd3dfea4e15896da7c0a6,682d85156f0cae38cb521714,,,,,,,,,,,,1780.5398,8,1780.5406,,,,1783.6857,1784.183,1783.1692,1783.6853,1781.5548,52,1783.1689,1784.183,1784.6826,1784.6826,1785.5827,862.2,1785.5836,1,1786.5802,8,24,264,19,1,1.6,0.7,Time
,,S12,372056,001,Male,25,2025-05-21_02h48.24.782,Serial_Dependence_U,2023.2.3,Win32,60.24096386,6769cc78e79f747dda9c7b8f,682cd3dfea4e15896da7c0a6,682d85156f0cae38cb521714,,,,,,,,,,,,1786.5814,8,1786.5819,,,,1789.3296,1789.8264,1788.8132,1789.3293,1787.5974,303,1788.8127,1789.8265,1790.326,1790.3261,1791.6759,951.5,1791.6769,2,1792.6731,8,25,265,17,1,1.2,0.7,Time
,,S12,372056,001,Male,25,2025-05-21_02h48.24.782,Serial_Dependence_U,2023.2.3,Win32,60.24096386,6769cc78e79f747dda9c7b8f,682cd3dfea4e15896da7c0a6,682d85156f0cae38cb521714,,,,,,,,,,,,1792.6745,8,1792.6752,,,,1795.6222,1796.1202,1795.1062,1795.6218,1793.6909,126,1795.1057,1796.1203,1796.6194,1796.6196,1797.9019,882.1,1797.9028,1,1798.8994,8,26,266,18,1,1.4,0.7,Time
,,S12,372056,001,Male,25,2025-05-21_02h48.24.782,Serial_Dependence_U,2023.2.3,Win32,60.24096386,6769cc78e79f747dda9c7b8f,682cd3dfea4e15896da7c0a6,682d85156f0cae38cb521714,,,,,,,,,,,,1798.9006,8,1798.9011,,,,1801.8478,1802.3453,1801.3321,1801.8477,1799.9172,70,1801.3316,1802.3454,1802.8458,1802.8459,1804.3447,1247.6,1804.3456,2,1805.342,8,27,267,23,1,1.4,0.3,Time
,,S12,372056,001,Male,25,2025-05-21_02h48.24.782,Serial_Dependence_U,2023.2.3,Win32,60.24096386,6769cc78e79f747dda9c7b8f,682cd3dfea4e15896da7c0a6,682d85156f0cae38cb521714,,,,,,,,,,,,1805.3437,8,1805.3446,,,,1807.8913,1808.3886,1807.3754,1807.8909,1806.3596,230,1807.3748,1808.3887,1808.8879,1808.888,1810.1545,1175.4,1810.1557,4,1811.1527,8,28,268,26,1,1,0.7,Time
,,S12,372056,001,Male,25,2025-05-21_02h48.24.782,Serial_Dependence_U,2023.2.3,Win32,60.24096386,6769cc78e79f747dda9c7b8f,682cd3dfea4e15896da7c0a6,682d85156f0cae38cb521714,,,,,,,,,,,,1811.155,8,1811.1568,,,,1813.9009,1814.3979,1813.3847,1813.9008,1812.1695,357,1813.3846,1814.3979,1814.8978,1814.8978,1815.6983,779.9,1815.6988,1,1816.6957,8,29,269,2,1,1.2,0.3,Time
