Scale_setup.started,Scale_setup.stopped,participant,session,sex,age,date,expName,psychopyVersion,OS,frameRate,Intro.started,Intro.stopped,key_resp_2.keys,key_resp_2.rt,key_resp_2.duration,block.started,direction,Block_id,block.stopped,trial_direction,Block_resp_2.keys,Block_resp_2.rt,Block_resp_2.duration,ITI.started,ITI.stopped,Mask_2.started,Mask_2.stopped,encoding.started,encoding.stopped,Cue.started,Cue.stopped,Response.started,Response.stopped,keyDuration,Feedback_Time.started,FeedbackID_T,Feedback_Time.stopped,trials.thisRepN,trials.thisTrialN,trials.thisN,trials.thisIndex,trials.ran,TimeDur,Coherence1,TrialType
0.0003000001907338,0.0005000000000023,S13,1,female,21,anonymized,Serial_Dependence_U,2023.2.3,Win32,60.60606060606061,,,,,,,,,,,,,,,,,,,,,,,,,,,,,,,,,,,
,,S13,1,female,21,anonymized,Serial_Dependence_U,2023.2.3,Win32,60.60606060606061,38.910900000095374,165.12490000009538,space,126.18229999995232,,,,,,,,,,,,,,,,,,,,,,,,,,,,,,,
,,S13,1,female,21,anonymized,Serial_Dependence_U,2023.2.3,Win32,60.60606060606061,,,,,,165.12930000019074,64.0,0.0,169.025,64.0,s,3.868099999904615,,172.8252000000477,173.324,172.31220000004768,172.82510000014304,170.04230000019072,172.31220000004768,173.32440000009535,173.825,173.82530000019074,176.09210000014306,1346.0,176.09230000019073,4.0,177.09130000019073,0.0,0.0,0.0,22.0,1.0,1.2,0.3,Time
,,S13,1,female,21,anonymized,Serial_Dependence_U,2023.2.3,Win32,60.60606060606061,,,,,,177.09190000009536,100.0,0.0,177.09310000014304,100.0,,,,180.6917000000477,181.191,180.17530000019076,180.6915,178.10840000009537,180.175,181.1912000000477,181.69090000009533,181.69110000014305,183.62810000014304,1561.0,183.62810000014304,5.0,184.6244000000954,0.0,1.0,1.0,1.0,1.0,1.0,0.3,Time
,,S13,1,female,21,anonymized,Serial_Dependence_U,2023.2.3,Win32,60.60606060606061,,,,,,184.62520000004767,174.0,0.0,184.62530000019072,174.0,,,,188.60820000004767,189.10760000014304,188.0929000000953,188.608,185.62740000009535,188.0929000000953,189.10770000004769,189.6113000001907,189.6113000001907,191.62790000009537,1654.0,191.62790000009537,4.0,192.6242000000477,0.0,2.0,2.0,23.0,1.0,1.4,0.3,Time
,,S13,1,female,21,anonymized,Serial_Dependence_U,2023.2.3,Win32,60.60606060606061,,,,,,192.62490000009535,204.0,0.0,192.62490000009535,204.0,,,,196.79260000014304,197.29060000014303,196.27610000014303,196.79260000014304,193.6414000000954,196.27610000014303,197.29070000004768,197.7904000000954,197.7905,199.82860000014304,1662.0,199.8287000000477,3.0,200.824,0.0,3.0,3.0,29.0,1.0,1.6,0.7,Time
,,S13,1,female,21,anonymized,Serial_Dependence_U,2023.2.3,Win32,60.60606060606061,,,,,,200.82470000004767,11.0,0.0,200.82490000009537,11.0,,,,204.82460000014305,205.32380000019077,204.31140000009532,204.8245,201.84140000009535,204.31140000009532,205.3239000000954,205.82380000019077,205.8239000000954,207.9597000000477,1796.0,207.9597000000477,4.0,208.9575,0.0,4.0,4.0,3.0,1.0,1.4,0.3,Time
,,S13,1,female,21,anonymized,Serial_Dependence_U,2023.2.3,Win32,60.60606060606061,,,,,,208.95810000014305,217.0,0.0,208.95810000014305,217.0,,,,212.3239000000954,212.82760000014304,211.8112000000477,212.3237000000477,209.97360000014305,211.81110000014303,212.82760000014304,213.32340000009532,213.32360000014305,214.92770000004768,1066.0,214.92770000004768,5.0,215.9238000001907,0.0,5.0,5.0,15.0,1.0,0.8,0.7,Time
,,S13,1,female,21,anonymized,Serial_Dependence_U,2023.2.3,Win32,60.60606060606061,,,,,,215.9245,203.0,0.0,215.92460000014304,203.0,,,,220.091,220.58990000009533,219.57790000009533,220.09080000019077,216.94070000004768,219.5778000001907,220.59,221.09040000009531,221.09060000014304,222.8065,1321.0,222.80680000019075,2.0,223.8062000000477,0.0,6.0,6.0,9.0,1.0,1.6,0.7,Time
,,S13,1,female,21,anonymized,Serial_Dependence_U,2023.2.3,Win32,60.60606060606061,,,,,,223.80710000014304,137.0,0.0,223.80740000009536,137.0,,,,227.20760000014303,227.70610000014304,226.69090000009533,227.20740000009536,224.82360000014305,226.69070000004768,227.7062000000477,228.20690000009537,228.20690000009537,229.27370000004768,686.0,229.27390000009535,2.0,230.2733000001908,0.0,7.0,7.0,20.0,1.0,0.8,0.3,Time
,,S13,1,female,21,anonymized,Serial_Dependence_U,2023.2.3,Win32,60.60606060606061,,,,,,230.274,45.0,0.0,230.27410000014305,45.0,,,,234.4576000001431,234.9563000001908,233.9432000000477,234.45750000000004,231.2941000001431,233.9431000001431,234.9565,235.45700000000005,235.4571000001431,237.21070000004767,1315.0,237.2108000001908,2.0,238.2067000000477,0.0,8.0,8.0,19.0,1.0,1.6,0.7,Time
,,S13,1,female,21,anonymized,Serial_Dependence_U,2023.2.3,Win32,60.60606060606061,,,,,,238.2074000000954,232.0,0.0,238.2076000001431,232.0,,,,242.175,242.67330000019075,241.67410000014308,242.175,239.2273000001908,241.67380000019077,242.6734000000954,243.1728000001908,243.17310000014305,245.02290000009535,1448.0,245.02290000009535,3.0,246.02290000009535,0.0,9.0,9.0,28.0,1.0,1.4,0.7,Time
,,S13,1,female,21,anonymized,Serial_Dependence_U,2023.2.3,Win32,60.60606060606061,,,,,,246.02360000014303,171.0,0.0,246.0239000000954,171.0,,,,249.62370000004773,250.1231000001431,249.10700000000003,249.62350000000004,247.04040000009545,249.10690000009535,250.1231000001431,250.62330000019077,250.6234000000954,252.26060000014309,1191.0,252.26060000014309,4.0,253.2563000001908,0.0,10.0,10.0,21.0,1.0,1.0,0.3,Time
,,S13,1,female,21,anonymized,Serial_Dependence_U,2023.2.3,Win32,60.60606060606061,,,,,,253.25710000014303,250.0,0.0,253.25730000019075,250.0,,,,256.62370000004773,257.1231000001431,256.1071000001431,256.62350000000004,254.2733000001908,256.1069000000954,257.1232000000477,257.6231000001431,257.6232000000477,259.09400000000005,1146.0,259.09400000000005,5.0,260.0897000000477,0.0,11.0,11.0,5.0,1.0,0.8,0.7,Time
,,S13,1,female,21,anonymized,Serial_Dependence_U,2023.2.3,Win32,60.60606060606061,,,,,,260.0905,182.0,0.0,260.09060000014307,182.0,,,,263.4904000000954,263.9895,262.9735,263.4902000000477,261.1068000001908,262.9733000001908,263.98960000014307,264.4894000000954,264.48960000014307,265.4724000000954,605.0,265.4726000001431,2.0,266.4728000001908,0.0,12.0,12.0,10.0,1.0,0.8,0.3,Time
,,S13,1,female,21,anonymized,Serial_Dependence_U,2023.2.3,Win32,60.60606060606061,,,,,,266.4735,288.0,0.0,266.47360000014305,288.0,,,,270.0402000000477,270.53880000019075,269.5235,270.04,267.4899000000954,269.5234000000954,270.5389000000954,271.0396000001431,271.03970000004773,271.4771000001431,110.0,271.4773000001908,1.0,272.4728000001908,0.0,13.0,13.0,16.0,1.0,1.0,0.7,Time
,,S13,1,female,21,anonymized,Serial_Dependence_U,2023.2.3,Win32,60.60606060606061,,,,,,272.4737000000477,187.0,0.0,272.47380000019075,187.0,,,,276.4771000001431,276.9728000001908,275.95660000014306,276.47700000000003,273.4893000001908,275.9564000000954,276.9729000000954,277.4726000001431,277.4727000000477,278.5441000001431,686.0,278.5441000001431,1.0,279.53950000000003,0.0,14.0,14.0,13.0,1.0,1.4,0.3,Time
,,S13,1,female,21,anonymized,Serial_Dependence_U,2023.2.3,Win32,60.60606060606061,,,,,,279.54010000014307,255.0,0.0,279.5403000001908,255.0,,,,283.34000000000003,283.8384000000954,282.82700000000006,283.3397000000477,280.5565,282.8269000000954,283.8385,284.33950000000004,284.3396000001431,285.86100000000005,1113.0,285.86100000000005,2.0,286.8559000000954,0.0,15.0,15.0,2.0,1.0,1.2,0.3,Time
,,S13,1,female,21,anonymized,Serial_Dependence_U,2023.2.3,Win32,60.60606060606061,,,,,,286.8566000001431,333.0,0.0,286.8568000001908,333.0,,,,291.0564000000954,291.55580000019074,290.54130000019074,291.0563000001908,287.8725,290.5412000000477,291.5559000000954,292.0557000000477,292.05580000019074,293.7936000001431,1399.0,293.7937000000477,2.0,294.7892000000477,0.0,16.0,16.0,14.0,1.0,1.6,0.3,Time
,,S13,1,female,21,anonymized,Serial_Dependence_U,2023.2.3,Win32,60.60606060606061,,,,,,294.7899000000954,44.0,0.0,294.7899000000954,44.0,,,,298.55620000004774,299.0554000000954,298.0398000001908,298.5559000000954,295.8063000001908,298.0396000001431,299.0556000001431,299.5557000000477,299.5559000000954,301.4268000001908,1474.0,301.4268000001908,4.0,302.42260000014306,0.0,17.0,17.0,27.0,1.0,1.2,0.7,Time
,,S13,1,female,21,anonymized,Serial_Dependence_U,2023.2.3,Win32,60.60606060606061,,,,,,302.4234000000954,74.0,0.0,302.4236000001431,74.0,,,,306.62260000014305,307.1219000000954,306.1087000000477,306.6225,303.4394000000954,306.1086000001431,307.122,307.6224000000954,307.6225,309.44280000019074,1468.0,309.44280000019074,2.0,310.43910000014307,0.0,18.0,18.0,4.0,1.0,1.6,0.3,Time
,,S13,1,female,21,anonymized,Serial_Dependence_U,2023.2.3,Win32,60.60606060606061,,,,,,310.4398000001908,22.0,0.0,310.4399000000954,22.0,,,,314.00600000000003,314.5056000001431,313.4897000000477,314.0058000001908,311.456,313.4897000000477,314.5056000001431,315.00570000004774,315.0058000001908,316.25960000014305,915.0,316.25960000014305,2.0,317.25570000004774,0.0,19.0,19.0,26.0,1.0,1.0,0.7,Time
,,S13,1,female,21,anonymized,Serial_Dependence_U,2023.2.3,Win32,60.60606060606061,,,,,,317.25640000009537,134.0,0.0,317.25660000014307,134.0,,,,321.2227000000477,321.72200000000004,320.7096000001431,321.2225,318.2726000001431,320.7096000001431,321.72200000000004,322.2221000001431,322.2221000001431,323.9757000000477,1377.0,323.9758000001908,3.0,324.9721000001431,0.0,20.0,20.0,18.0,1.0,1.4,0.7,Time
,,S13,1,female,21,anonymized,Serial_Dependence_U,2023.2.3,Win32,60.60606060606061,,,,,,324.9728000001908,280.0,0.0,324.9729000000954,280.0,,,,328.73900000000003,329.23850000000004,328.2259000000954,328.7389000000954,325.98920000004773,328.2258000001908,329.2386000001431,329.7386000001431,329.7386000001431,331.4761000001431,1264.0,331.4761000001431,4.0,332.4719000000954,0.0,21.0,21.0,7.0,1.0,1.2,0.7,Time
,,S13,1,female,21,anonymized,Serial_Dependence_U,2023.2.3,Win32,60.60606060606061,,,,,,332.4725,91.0,0.0,332.4727000000477,91.0,,,,336.439,336.9382000000477,335.9234000000954,336.4389000000954,333.4882000000477,335.9234000000954,336.93830000019074,337.43830000019074,337.4384000000954,339.3378000001908,1539.0,339.338,4.0,340.3381000001431,0.0,22.0,22.0,8.0,1.0,1.4,0.7,Time
,,S13,1,female,21,anonymized,Serial_Dependence_U,2023.2.3,Win32,60.60606060606061,,,,,,340.3388000001908,239.0,0.0,340.339,239.0,,,,343.9389000000954,344.4381000001431,343.4224000000954,343.9386000001431,341.3557000000477,343.4221000001431,344.4382000000477,344.9381000001431,344.9381000001431,345.4923000001908,212.0,345.4924000000954,1.0,346.48830000019075,0.0,23.0,23.0,11.0,1.0,1.0,0.3,Time
,,S13,1,female,21,anonymized,Serial_Dependence_U,2023.2.3,Win32,60.60606060606061,,,,,,346.48900000000003,220.0,0.0,346.4891000001431,220.0,,,,349.8888000001908,350.3872000000477,349.3718000001908,349.8887000000477,347.50530000019074,349.3716000001431,350.3872000000477,350.8879000000954,350.8881000001431,352.82070000004774,1139.0,352.8208000001908,5.0,353.8208000001908,0.0,24.0,24.0,0.0,1.0,0.8,0.3,Time
,,S13,1,female,21,anonymized,Serial_Dependence_U,2023.2.3,Win32,60.60606060606061,,,,,,353.8215,257.0,0.0,353.8218000001908,257.0,,,,357.1888000001908,357.6882000000477,356.6756000001431,357.1886000001431,354.8251000001431,356.6756000001431,357.68830000019074,358.1879000000954,358.18800000000005,359.5425,962.0,359.5425,4.0,360.5381000001431,0.0,25.0,25.0,25.0,1.0,0.8,0.7,Time
,,S13,1,female,21,anonymized,Serial_Dependence_U,2023.2.3,Win32,60.60606060606061,,,,,,360.5388000001908,152.0,0.0,360.5389000000954,152.0,,,,364.3386000001431,364.8379000000954,363.8255,364.3384000000954,361.5553000001908,363.8254000000954,364.838,365.3379000000954,365.338,366.2873000001908,613.0,366.2874000000954,1.0,367.288,0.0,26.0,26.0,12.0,1.0,1.2,0.3,Time
,,S13,1,female,21,anonymized,Serial_Dependence_U,2023.2.3,Win32,60.60606060606061,,,,,,367.2887000000477,289.0,0.0,367.2888000001908,289.0,,,,371.055,371.5545,370.5409000000954,371.0548000001908,368.3046000001431,370.5409000000954,371.5546000001431,372.0542000000477,372.05440000009537,373.5204000000954,1150.0,373.5205,3.0,374.5211000001431,0.0,27.0,27.0,17.0,1.0,1.2,0.7,Time
,,S13,1,female,21,anonymized,Serial_Dependence_U,2023.2.3,Win32,60.60606060606061,,,,,,374.5220000000001,269.0,0.0,374.5221000001431,269.0,,,,378.705,379.204,378.1884000000954,378.70480000019074,375.5229000000954,378.18830000019074,379.2041000001431,379.7046000001431,379.7047000000477,381.1256000001431,1136.0,381.1256000001431,2.0,382.1211000001431,0.0,28.0,28.0,24.0,1.0,1.6,0.3,Time
,,S13,1,female,21,anonymized,Serial_Dependence_U,2023.2.3,Win32,60.60606060606061,,,,,,382.1218000001908,287.0,0.0,382.1218000001908,287.0,,,,385.6881000001431,386.1877000000477,385.173,385.6879000000954,383.13780000019074,385.1729000000954,386.1878000001908,386.6876000001431,386.6877000000477,388.1252000000477,1115.0,388.1252000000477,4.0,389.12080000019074,0.0,29.0,29.0,6.0,1.0,1.0,0.7,Time
,,S13,1,female,21,anonymized,Serial_Dependence_U,2023.2.3,Win32,60.60606060606061,,,,,,389.1216000001431,188.0,1.0,392.0549000000954,188.0,s,2.901899999856937,,395.6559000000954,396.1542000000477,395.1383000001908,395.6559000000954,393.07140000009537,395.1381000001431,396.15430000019074,396.6541000001431,396.6542000000477,397.675,682.0,397.675,1.0,397.6752000000477,1.0,0.0,30.0,11.0,1.0,1.0,0.3,Time
,,S13,1,female,21,anonymized,Serial_Dependence_U,2023.2.3,Win32,60.60606060606061,,,,,,397.6754000000954,198.0,1.0,397.6766000001431,198.0,,,,401.63780000019074,402.1371000001431,401.1249000000954,401.6377000000477,398.6880000000001,401.1249000000954,402.1371000001431,402.6374000000954,402.6375000000001,404.4411000001431,1481.0,404.4411000001431,4.0,404.4413000001908,1.0,1.0,31.0,28.0,1.0,1.4,0.7,Time
,,S13,1,female,21,anonymized,Serial_Dependence_U,2023.2.3,Win32,60.60606060606061,,,,,,404.44140000009537,312.0,1.0,404.4415,312.0,,,,408.2375,408.7374000000954,407.7213000001908,408.2373000001908,405.4541000001431,407.721,408.7374000000954,409.2372000000477,409.2374000000954,410.941,1335.0,410.941,4.0,410.9411000001431,1.0,2.0,32.0,2.0,1.0,1.2,0.3,Time
,,S13,1,female,21,anonymized,Serial_Dependence_U,2023.2.3,Win32,60.60606060606061,,,,,,410.9412000000477,173.0,1.0,410.94140000009537,173.0,,,,414.3377000000477,414.8369000000954,413.8224000000954,414.3375,411.9543000001908,413.8223000001908,414.8369000000954,415.3371000001431,415.3371000001431,416.7076000001431,926.0,416.7077000000477,4.0,416.7078000001908,1.0,3.0,33.0,20.0,1.0,0.8,0.3,Time
,,S13,1,female,21,anonymized,Serial_Dependence_U,2023.2.3,Win32,60.60606060606061,,,,,,416.708,324.0,1.0,416.7081000001431,324.0,,,,420.7037000000477,421.2036000001431,420.1875,420.70340000009537,417.72040000009537,420.1874000000954,421.2036000001431,421.7038000001908,421.7039000000954,422.775,608.0,422.775,1.0,422.7751000001431,1.0,4.0,34.0,23.0,1.0,1.4,0.3,Time
,,S13,1,female,21,anonymized,Serial_Dependence_U,2023.2.3,Win32,60.60606060606061,,,,,,422.7754000000954,88.0,1.0,422.7755,88.0,,,,426.1367000000477,426.6365,425.6245,426.1366000001431,423.7889000000954,425.6244000000954,426.6367000000477,427.1363000001908,427.1365,428.5747000000477,1128.0,428.5747000000477,5.0,428.5748000001908,1.0,5.0,35.0,5.0,1.0,0.8,0.7,Time
,,S13,1,female,21,anonymized,Serial_Dependence_U,2023.2.3,Win32,60.60606060606061,,,,,,428.5750000000001,234.0,1.0,428.5751000001431,234.0,,,,432.5707000000477,433.0701000001431,432.0577000000477,432.5705,429.5872000000477,432.0577000000477,433.0702000000477,433.5700000000001,433.5700000000001,435.1404000000954,1116.0,435.1404000000954,2.0,435.1406000001431,1.0,6.0,36.0,3.0,1.0,1.4,0.3,Time
,,S13,1,female,21,anonymized,Serial_Dependence_U,2023.2.3,Win32,60.60606060606061,,,,,,435.1408000001908,254.0,1.0,435.141,254.0,,,,439.104,439.6035,438.58710000014304,439.1038000001908,436.15350000000007,438.58690000009534,439.6035,440.1037000000477,440.1038000001908,441.85710000014313,1410.0,441.8572000000477,3.0,441.8573000001907,1.0,7.0,37.0,8.0,1.0,1.4,0.7,Time
,,S13,1,female,21,anonymized,Serial_Dependence_U,2023.2.3,Win32,60.60606060606061,,,,,,441.8574000000954,8.0,1.0,441.8576000001431,8.0,,,,445.4204000000954,445.9199000000954,444.9073000001908,445.4202000000477,442.8703000001908,444.9072000000477,445.92,446.4197000000477,446.4198000001907,448.041,1149.0,448.041,4.0,448.0411000001431,1.0,8.0,38.0,6.0,1.0,1.0,0.7,Time
,,S13,1,female,21,anonymized,Serial_Dependence_U,2023.2.3,Win32,60.60606060606061,,,,,,448.0414000000954,283.0,1.0,448.0415,283.0,,,,452.2037000000477,452.7032000000477,451.68720000004777,452.2035,449.0537000000477,451.68700000000007,452.7032000000477,453.203,453.203100000143,454.8076000001431,1282.0,454.8076000001431,2.0,454.8078000001908,1.0,9.0,39.0,9.0,1.0,1.6,0.7,Time
,,S13,1,female,21,anonymized,Serial_Dependence_U,2023.2.3,Win32,60.60606060606061,,,,,,454.80790000009534,204.0,1.0,454.80810000014304,204.0,,,,458.5703000001908,459.07,458.05720000004766,458.5702000000477,455.8204000000954,458.0571000001431,459.0701000001431,459.5710000000001,459.5710000000001,460.1075,156.0,460.1075,1.0,460.1076000001431,1.0,10.0,40.0,7.0,1.0,1.2,0.7,Time
,,S13,1,female,21,anonymized,Serial_Dependence_U,2023.2.3,Win32,60.60606060606061,,,,,,460.1079000000954,154.0,1.0,460.108,154.0,,,,463.6868000001908,464.1862000000477,463.1716000001431,463.68670000004767,461.1051000001431,463.1716000001431,464.1863000001908,464.6863000001908,464.6864000000954,466.3023000001908,1019.0,466.30240000009536,3.0,466.30290000009535,1.0,11.0,41.0,21.0,1.0,1.0,0.3,Time
,,S13,1,female,21,anonymized,Serial_Dependence_U,2023.2.3,Win32,60.60606060606061,,,,,,466.30340000009545,26.0,1.0,466.3037000000477,26.0,,,,470.1034000000954,470.6027000000477,469.59040000009537,470.1033000001908,467.32,469.59040000009537,470.6029000000954,471.1025,471.1026000001431,472.7238000001908,1274.0,472.7239000000954,4.0,472.724,1.0,12.0,42.0,22.0,1.0,1.2,0.3,Time
,,S13,1,female,21,anonymized,Serial_Dependence_U,2023.2.3,Win32,60.60606060606061,,,,,,472.7242000000477,55.0,1.0,472.7244000000954,55.0,,,,476.7238000001908,477.2193000001908,476.2066000001431,476.7237000000477,473.7368000001907,476.20640000009536,477.2194000000954,477.7194000000954,477.7195,479.52400000000006,1446.0,479.52400000000006,3.0,479.52420000004776,1.0,13.0,43.0,13.0,1.0,1.4,0.3,Time
,,S13,1,female,21,anonymized,Serial_Dependence_U,2023.2.3,Win32,60.60606060606061,,,,,,479.5243000001908,28.0,1.0,479.5245000000001,28.0,,,,482.9198000001907,483.4192000000477,482.4069000000954,482.91960000014313,480.5361000001431,482.4069000000954,483.41930000019073,483.91870000004775,483.91890000009545,485.90710000014303,1545.0,485.90710000014303,5.0,485.90730000019073,1.0,14.0,44.0,10.0,1.0,0.8,0.3,Time
,,S13,1,female,21,anonymized,Serial_Dependence_U,2023.2.3,Win32,60.60606060606061,,,,,,485.9074000000953,30.0,1.0,485.9074999999999,30.0,,,,489.2697000000477,489.7694000000953,488.75670000004766,489.2694000000953,486.9194000000954,488.7566000001431,489.7694000000953,490.2692000000477,490.2693000001907,491.1195,379.0,491.1195,1.0,491.12,1.0,15.0,45.0,25.0,1.0,0.8,0.7,Time
,,S13,1,female,21,anonymized,Serial_Dependence_U,2023.2.3,Win32,60.60606060606061,,,,,,491.1203000001907,294.0,1.0,491.1204000000953,294.0,,,,495.2747000000477,495.769100000143,494.7693000001907,495.2745,492.1366000001431,494.769100000143,495.7693000001907,496.2684000000953,496.268600000143,498.0732000000477,1493.0,498.0733000001906,2.0,498.0735,1.0,16.0,46.0,19.0,1.0,1.6,0.7,Time
,,S13,1,female,21,anonymized,Serial_Dependence_U,2023.2.3,Win32,60.60606060606061,,,,,,498.07380000019066,93.0,1.0,498.0741000001431,93.0,,,,502.2695,502.769,501.7544000000953,502.2694000000953,499.0862000000476,501.7543000001907,502.769,503.269,503.2692000000477,504.8895,1257.0,504.8895,2.0,504.889600000143,1.0,17.0,47.0,4.0,1.0,1.6,0.3,Time
,,S13,1,female,21,anonymized,Serial_Dependence_U,2023.2.3,Win32,60.60606060606061,,,,,,504.8898000001907,89.0,1.0,504.89,89.0,,,,509.0865,509.5855,508.5724000000953,509.0863000001907,505.9029000000953,508.5724000000953,509.5855,510.0855,510.0857000000476,511.36830000019074,930.0,511.3684999999999,1.0,511.3689000000953,1.0,18.0,48.0,24.0,1.0,1.6,0.3,Time
,,S13,1,female,21,anonymized,Serial_Dependence_U,2023.2.3,Win32,60.60606060606061,,,,,,511.3694000000953,1.0,1.0,511.3697000000476,1.0,,,,514.9694000000953,515.4688000001908,514.4562000000476,514.9692000000476,512.386,514.456100000143,515.4688000001908,515.9689000000953,515.969100000143,517.7566000001431,1445.0,517.7566000001431,5.0,517.7567000000477,1.0,19.0,49.0,1.0,1.0,1.0,0.3,Time
,,S13,1,female,21,anonymized,Serial_Dependence_U,2023.2.3,Win32,60.60606060606061,,,,,,517.7569000000954,25.0,1.0,517.757100000143,25.0,,,,521.3062000000476,521.8009999999999,520.8028000001907,521.306100000143,518.7692000000477,520.802600000143,521.8009999999999,522.302,522.302100000143,523.0874000000954,414.0,523.0874000000954,1.0,523.0875,1.0,20.0,50.0,16.0,1.0,1.0,0.7,Time
,,S13,1,female,21,anonymized,Serial_Dependence_U,2023.2.3,Win32,60.60606060606061,,,,,,523.0877000000477,211.0,1.0,523.0879000000954,211.0,,,,526.8525,527.3518000001907,526.3373000001907,526.8523000001907,524.1038000001907,526.3373000001907,527.3519000000954,527.8522000000477,527.8523000001907,529.5899999999999,1388.0,529.5899999999999,4.0,529.5902000000476,1.0,21.0,51.0,17.0,1.0,1.2,0.7,Time
,,S13,1,female,21,anonymized,Serial_Dependence_U,2023.2.3,Win32,60.60606060606061,,,,,,529.5904000000953,223.0,1.0,529.5905,223.0,,,,533.5519000000953,534.051600000143,533.0379000000953,533.551600000143,530.6023000001907,533.0379000000953,534.0517000000476,534.551100000143,534.5512000000476,536.5512000000476,1687.0,536.5514000000953,4.0,536.5517000000476,1.0,22.0,52.0,18.0,1.0,1.4,0.7,Time
,,S13,1,female,21,anonymized,Serial_Dependence_U,2023.2.3,Win32,60.60606060606061,,,,,,536.5523000001907,329.0,1.0,536.552600000143,329.0,,,,540.319,540.8184000000954,539.8024000000953,540.3188000001907,537.5702000000476,539.8023000001907,540.8184000000954,541.3185,541.318600000143,543.4554999999999,1810.0,543.4554999999999,5.0,543.455600000143,1.0,23.0,53.0,27.0,1.0,1.2,0.7,Time
,,S13,1,female,21,anonymized,Serial_Dependence_U,2023.2.3,Win32,60.60606060606061,,,,,,543.4557000000476,73.0,1.0,543.4559000000953,73.0,,,,547.252,547.7515,546.7389000000953,547.2519000000954,544.4689000000953,546.7388000001907,547.7517000000477,548.2515,548.2517000000477,549.7389999999999,1169.0,549.739100000143,3.0,549.7393000001907,1.0,24.0,54.0,12.0,1.0,1.2,0.3,Time
,,S13,1,female,21,anonymized,Serial_Dependence_U,2023.2.3,Win32,60.60606060606061,,,,,,549.7395,15.0,1.0,549.7397000000476,15.0,,,,553.9018000001907,554.4014999999999,553.389,553.9017000000476,550.7521000001431,553.389,554.4014999999999,554.9014000000954,554.9014999999999,556.5388000001907,1226.0,556.5388000001907,2.0,556.539,1.0,25.0,55.0,29.0,1.0,1.6,0.7,Time
,,S13,1,female,21,anonymized,Serial_Dependence_U,2023.2.3,Win32,60.60606060606061,,,,,,556.539100000143,69.0,1.0,556.5392000000477,69.0,,,,560.085100000143,560.5848000001907,559.5687000000477,560.0849000000953,557.5352000000477,559.568600000143,560.5849999999999,561.0847000000476,561.0848000001907,562.7889000000953,1364.0,562.7889000000953,5.0,562.789,1.0,26.0,56.0,26.0,1.0,1.0,0.7,Time
,,S13,1,female,21,anonymized,Serial_Dependence_U,2023.2.3,Win32,60.60606060606061,,,,,,562.7892000000477,72.0,1.0,562.7893000001907,72.0,,,,566.1852000000476,566.6846000001431,565.6685,566.185,563.8017000000476,565.6684000000953,566.6846000001431,567.1843000001907,567.1844000000954,568.272600000143,686.0,568.2727000000476,2.0,568.2727000000476,1.0,27.0,57.0,0.0,1.0,0.8,0.3,Time
,,S13,1,female,21,anonymized,Serial_Dependence_U,2023.2.3,Win32,60.60606060606061,,,,,,568.2729000000953,232.0,1.0,568.2732000000476,232.0,,,,571.6353000001907,572.1344000000953,571.1187000000476,571.635,569.2845,571.1184999999999,572.134600000143,572.6345,572.6345,574.2049000000953,1254.0,574.2049000000953,5.0,574.2049000000953,1.0,28.0,58.0,15.0,1.0,0.8,0.7,Time
,,S13,1,female,21,anonymized,Serial_Dependence_U,2023.2.3,Win32,60.60606060606061,,,,,,574.205100000143,322.0,1.0,574.2053000001907,322.0,,,,578.4014999999999,578.9012000000477,577.888600000143,578.4014000000954,575.2181000001431,577.888600000143,578.9012000000477,579.4007000000477,579.4008000001907,581.055600000143,1353.0,581.055600000143,2.0,581.0557000000476,1.0,29.0,59.0,14.0,1.0,1.6,0.3,Time
,,S13,1,female,21,anonymized,Serial_Dependence_U,2023.2.3,Win32,60.60606060606061,,,,,,581.0559000000953,216.0,2.0,593.123600000143,216.0,s,12.051599999904624,,597.2719999999999,597.771,596.7719000000953,597.2719999999999,594.1388000001907,596.7718000001908,597.7711000001431,598.2711000001431,598.2712000000477,599.8389999999999,1117.0,599.8389999999999,1.0,599.839100000143,2.0,0.0,60.0,29.0,1.0,1.6,0.7,Time
,,S13,1,female,21,anonymized,Serial_Dependence_U,2023.2.3,Win32,60.60606060606061,,,,,,599.8393000001907,82.0,2.0,599.8399999999999,82.0,,,,604.0219999999999,604.5209000000954,603.5053000001907,604.0219000000953,600.8387000000477,603.5053000001907,604.521,605.0212000000477,605.0212000000477,606.9382000000477,1383.0,606.9382000000477,2.0,606.9383000001907,2.0,1.0,61.0,4.0,1.0,1.6,0.3,Time
,,S13,1,female,21,anonymized,Serial_Dependence_U,2023.2.3,Win32,60.60606060606061,,,,,,606.9385,116.0,2.0,606.938600000143,116.0,,,,610.6885,611.1875,610.1722000000476,610.6885,607.938600000143,610.172100000143,611.1875,611.6877000000477,611.6877000000477,613.805,1617.0,613.805100000143,5.0,613.8052000000476,2.0,2.0,62.0,27.0,1.0,1.2,0.7,Time
,,S13,1,female,21,anonymized,Serial_Dependence_U,2023.2.3,Win32,60.60606060606061,,,,,,613.8054000000953,320.0,2.0,613.8054999999999,320.0,,,,617.555100000143,618.0543000001907,617.0385,617.555100000143,614.8049000000954,617.0384000000953,618.0543000001907,618.5542000000477,618.5542000000477,620.888100000143,1999.0,620.8882000000476,5.0,620.8883000001907,2.0,3.0,63.0,17.0,1.0,1.2,0.7,Time
,,S13,1,female,21,anonymized,Serial_Dependence_U,2023.2.3,Win32,60.60606060606061,,,,,,620.8884000000953,114.0,2.0,620.8888000001907,114.0,,,,624.8715,625.3705,624.355,624.8715,621.8883000001907,624.355,625.370600000143,625.8705,625.870600000143,627.9879999999999,1750.0,627.9879999999999,4.0,627.9882000000476,2.0,4.0,64.0,3.0,1.0,1.4,0.3,Time
,,S13,1,female,21,anonymized,Serial_Dependence_U,2023.2.3,Win32,60.60606060606061,,,,,,627.9883000001907,267.0,2.0,627.9884999999999,267.0,,,,632.1719000000953,632.670600000143,631.6548000001907,632.1717000000476,628.9883000001907,631.6548000001907,632.670600000143,633.1707000000476,633.1707000000476,634.5544000000954,999.0,634.5544000000954,1.0,634.5545,2.0,5.0,65.0,24.0,1.0,1.6,0.3,Time
,,S13,1,female,21,anonymized,Serial_Dependence_U,2023.2.3,Win32,60.60606060606061,,,,,,634.5546000001431,244.0,2.0,634.5548000001907,244.0,,,,637.938100000143,638.437100000143,637.421600000143,637.938100000143,635.5545,637.421600000143,638.437100000143,638.937100000143,638.937100000143,640.0717000000476,533.0,640.0717000000476,1.0,640.0718000001907,2.0,6.0,66.0,20.0,1.0,0.8,0.3,Time
,,S13,1,female,21,anonymized,Serial_Dependence_U,2023.2.3,Win32,60.60606060606061,,,,,,640.0719000000953,142.0,2.0,640.072100000143,142.0,,,,644.2212000000477,644.720100000143,643.704600000143,644.2212000000477,641.0713000001907,643.704600000143,644.720100000143,645.2204000000953,645.2205,647.204600000143,1633.0,647.204600000143,3.0,647.2048000001907,2.0,7.0,67.0,19.0,1.0,1.6,0.7,Time
,,S13,1,female,21,anonymized,Serial_Dependence_U,2023.2.3,Win32,60.60606060606061,,,,,,647.2049000000953,354.0,2.0,647.205100000143,354.0,,,,651.1879000000953,651.6869000000953,650.6713000001907,651.1878000001907,648.2047000000476,650.6712000000476,651.6869000000953,652.187,652.187,653.8543000001907,1316.0,653.8543000001907,2.0,653.8544000000953,2.0,8.0,68.0,13.0,1.0,1.4,0.3,Time
,,S13,1,female,21,anonymized,Serial_Dependence_U,2023.2.3,Win32,60.60606060606061,,,,,,653.854600000143,169.0,2.0,653.8547000000476,169.0,,,,657.2042000000476,657.7033000001907,656.6879000000953,657.2042000000476,654.8544000000953,656.6878000001907,657.7033000001907,658.2036000001431,658.2036000001431,660.1708000001908,1466.0,660.1708000001908,5.0,660.1709000000953,2.0,9.0,69.0,5.0,1.0,0.8,0.7,Time
,,S13,1,female,21,anonymized,Serial_Dependence_U,2023.2.3,Win32,60.60606060606061,,,,,,660.1709999999999,177.0,2.0,660.171100000143,177.0,,,,663.521,664.020100000143,663.0043000001907,663.521,661.171100000143,663.0042000000476,664.0202000000477,664.520100000143,664.5202000000477,666.6709999999999,1733.0,666.6709999999999,5.0,666.6712000000476,2.0,10.0,70.0,15.0,1.0,0.8,0.7,Time
,,S13,1,female,21,anonymized,Serial_Dependence_U,2023.2.3,Win32,60.60606060606061,,,,,,666.6713000001907,148.0,2.0,666.6714000000953,148.0,,,,670.4542000000476,670.9533000001907,669.937600000143,670.4541000001431,667.6709999999999,669.937600000143,670.9533000001907,671.4533000001907,671.4533000001907,673.5704999999999,1766.0,673.5704999999999,5.0,673.5707000000476,2.0,11.0,71.0,22.0,1.0,1.2,0.3,Time
,,S13,1,female,21,anonymized,Serial_Dependence_U,2023.2.3,Win32,60.60606060606061,,,,,,673.5708000001907,86.0,2.0,673.5709000000953,86.0,,,,677.5208000001907,678.02,677.004100000143,677.5208000001907,674.5707000000476,677.004100000143,678.02,678.5199000000954,678.5199000000954,681.137,2266.0,681.137,5.0,681.137100000143,2.0,12.0,72.0,8.0,1.0,1.4,0.7,Time
,,S13,1,female,21,anonymized,Serial_Dependence_U,2023.2.3,Win32,60.60606060606061,,,,,,681.1372000000476,84.0,2.0,681.1374000000953,84.0,,,,684.5206000001431,685.0197000000477,684.0042000000476,684.5205,682.1372000000476,684.004100000143,685.0197000000477,685.5197000000477,685.5197000000477,687.154100000143,1266.0,687.1542000000477,5.0,687.1547000000477,2.0,13.0,73.0,0.0,1.0,0.8,0.3,Time
,,S13,1,female,21,anonymized,Serial_Dependence_U,2023.2.3,Win32,60.60606060606061,,,,,,687.1548000001907,280.0,2.0,687.1549000000954,280.0,,,,691.337,691.8364000000953,690.820600000143,691.337,688.1539000000953,690.820600000143,691.8364000000953,692.3363000001907,692.3363000001907,694.3868000001908,1650.0,694.3868000001908,3.0,694.3869000000954,2.0,14.0,74.0,14.0,1.0,1.6,0.3,Time
,,S13,1,female,21,anonymized,Serial_Dependence_U,2023.2.3,Win32,60.60606060606061,,,,,,694.387100000143,291.0,2.0,694.3873000001907,291.0,,,,697.9373000001907,698.4359999999999,697.420600000143,697.9372000000477,695.387100000143,697.420600000143,698.436100000143,698.9362000000476,698.9362000000476,700.7204000000953,1433.0,700.7205,5.0,700.7205,2.0,15.0,75.0,6.0,1.0,1.0,0.7,Time
,,S13,1,female,21,anonymized,Serial_Dependence_U,2023.2.3,Win32,60.60606060606061,,,,,,700.7207000000476,355.0,2.0,700.7208000001907,355.0,,,,704.1037000000476,704.6026000001431,703.587100000143,704.103600000143,701.7204000000953,703.587100000143,704.6026000001431,705.1029000000954,705.1029000000954,707.1369000000954,1300.0,707.1369000000954,5.0,707.137,2.0,16.0,76.0,10.0,1.0,0.8,0.3,Time
,,S13,1,female,21,anonymized,Serial_Dependence_U,2023.2.3,Win32,60.60606060606061,,,,,,707.1372000000476,162.0,2.0,707.1374000000953,162.0,,,,710.7203000001907,711.2192000000476,710.2035,710.7202000000476,708.137,710.2035,711.2193000001907,711.7193000001907,711.7193000001907,713.9699000000953,1516.0,713.9699999999999,5.0,713.970100000143,2.0,17.0,77.0,21.0,1.0,1.0,0.3,Time
,,S13,1,female,21,anonymized,Serial_Dependence_U,2023.2.3,Win32,60.60606060606061,,,,,,713.9703000001907,264.0,2.0,713.9704000000953,264.0,,,,717.520100000143,718.019100000143,717.003600000143,717.520100000143,714.9703000001907,717.003600000143,718.019100000143,718.5193000001907,718.5193000001907,720.2863000001907,1383.0,720.2863000001907,5.0,720.2864999999999,2.0,18.0,78.0,26.0,1.0,1.0,0.7,Time
,,S13,1,female,21,anonymized,Serial_Dependence_U,2023.2.3,Win32,60.60606060606061,,,,,,720.2867000000476,252.0,2.0,720.2868000001907,252.0,,,,724.437,724.9357000000476,723.92,724.4369000000953,721.286600000143,723.92,724.9357000000476,725.4358000001907,725.4358000001907,726.8363000001907,1016.0,726.8363000001907,1.0,726.8364000000953,2.0,19.0,79.0,9.0,1.0,1.6,0.7,Time
,,S13,1,female,21,anonymized,Serial_Dependence_U,2023.2.3,Win32,60.60606060606061,,,,,,726.836600000143,40.0,2.0,726.836600000143,40.0,,,,730.62,731.118600000143,730.1034000000953,730.62,727.836600000143,730.1033000001908,731.118600000143,731.6189000000953,731.6189000000953,733.3035,1267.0,733.3035,4.0,733.303600000143,2.0,20.0,80.0,2.0,1.0,1.2,0.3,Time
,,S13,1,female,21,anonymized,Serial_Dependence_U,2023.2.3,Win32,60.60606060606061,,,,,,733.3038000001907,91.0,2.0,733.3039000000954,91.0,,,,737.253100000143,737.7518000001907,736.736600000143,737.2529999999999,734.3032000000477,736.7364000000954,737.7519000000954,738.2522000000477,738.2522000000477,740.2693000001907,1666.0,740.2694000000953,4.0,740.269600000143,2.0,21.0,81.0,28.0,1.0,1.4,0.7,Time
,,S13,1,female,21,anonymized,Serial_Dependence_U,2023.2.3,Win32,60.60606060606061,,,,,,740.2697000000477,53.0,2.0,740.2698000001907,53.0,,,,743.6197000000476,744.1184000000953,743.1032000000477,743.619600000143,741.2699000000954,743.1031000001431,744.1184000000953,744.6184999999999,744.6184999999999,746.703,1733.0,746.703,5.0,746.703,2.0,22.0,82.0,25.0,1.0,0.8,0.7,Time
,,S13,1,female,21,anonymized,Serial_Dependence_U,2023.2.3,Win32,60.60606060606061,,,,,,746.7032000000477,3.0,2.0,746.7033000001907,3.0,,,,750.486100000143,750.9855,749.969600000143,750.486100000143,747.703,749.969600000143,750.9855,751.485,751.485100000143,753.6528000001907,1833.0,753.6529000000953,5.0,753.653,2.0,23.0,83.0,12.0,1.0,1.2,0.3,Time
,,S13,1,female,21,anonymized,Serial_Dependence_U,2023.2.3,Win32,60.60606060606061,,,,,,753.653100000143,149.0,2.0,753.6532000000476,149.0,,,,757.202600000143,757.701600000143,756.6865,757.202600000143,754.6528000001907,756.6865,757.7017000000477,758.201600000143,758.2017000000477,760.685600000143,2049.0,760.6857000000476,5.0,760.6858000001907,2.0,24.0,84.0,16.0,1.0,1.0,0.7,Time
,,S13,1,female,21,anonymized,Serial_Dependence_U,2023.2.3,Win32,60.60606060606061,,,,,,760.6859000000953,249.0,2.0,760.6859999999999,249.0,,,,764.6359000000954,765.135,764.1194000000953,764.6359000000954,761.686100000143,764.1194000000953,765.135,765.635,765.635100000143,767.7189000000953,1733.0,767.7189999999999,4.0,767.719100000143,2.0,25.0,85.0,18.0,1.0,1.4,0.7,Time
,,S13,1,female,21,anonymized,Serial_Dependence_U,2023.2.3,Win32,60.60606060606061,,,,,,767.7192000000476,39.0,2.0,767.7193000001907,39.0,,,,771.4692000000476,771.9682000000477,770.9527000000477,771.469100000143,768.7194000000953,770.952600000143,771.9682000000477,772.4684000000954,772.4684000000954,773.8025,966.0,773.8025,2.0,773.8027000000477,2.0,26.0,86.0,7.0,1.0,1.2,0.7,Time
,,S13,1,female,21,anonymized,Serial_Dependence_U,2023.2.3,Win32,60.60606060606061,,,,,,773.8028000001907,133.0,2.0,773.8029000000953,133.0,,,,777.7858000001908,778.2849000000954,777.2692000000477,777.7858000001908,774.8025,777.269,778.2849000000954,778.784600000143,778.784600000143,780.419,1233.0,780.419100000143,2.0,780.4192000000477,2.0,27.0,87.0,23.0,1.0,1.4,0.3,Time
,,S13,1,female,21,anonymized,Serial_Dependence_U,2023.2.3,Win32,60.60606060606061,,,,,,780.4194000000954,66.0,2.0,780.4194000000954,66.0,,,,784.0023000001908,784.5015,783.4858000001907,784.0022000000477,781.4188000001907,783.4858000001907,784.5015,785.0014000000954,785.0014000000954,787.502600000143,2134.0,787.502600000143,5.0,787.5028000001907,2.0,28.0,88.0,11.0,1.0,1.0,0.3,Time
,,S13,1,female,21,anonymized,Serial_Dependence_U,2023.2.3,Win32,60.60606060606061,,,,,,787.5029999999999,84.0,2.0,787.503100000143,84.0,,,,791.085600000143,791.5847000000476,790.569,791.0855,788.5023000001908,790.569,791.5847000000476,792.084600000143,792.084600000143,794.0359000000954,1617.0,794.0359000000954,5.0,794.036100000143,2.0,29.0,89.0,1.0,1.0,1.0,0.3,Time
,,S13,1,female,21,anonymized,Serial_Dependence_U,2023.2.3,Win32,60.60606060606061,,,,,,794.0362000000476,228.0,3.0,808.0517000000476,228.0,s,14.000099999904592,,812.2352000000476,812.7339999999999,811.7185,812.2352000000476,809.052100000143,811.7185,812.734100000143,813.2342000000476,813.2342000000476,814.9847000000476,1383.0,814.9847000000476,2.0,814.9848000001907,3.0,0.0,90.0,24.0,1.0,1.6,0.3,Time
,,S13,1,female,21,anonymized,Serial_Dependence_U,2023.2.3,Win32,60.60606060606061,,,,,,814.985,174.0,3.0,814.9857000000477,174.0,,,,818.3349999999999,818.834100000143,817.8187000000477,818.3349999999999,815.9852000000476,817.8187000000477,818.834100000143,819.3342000000476,819.3343000001908,821.5518000001907,1866.0,821.5518000001907,5.0,821.552,3.0,1.0,91.0,25.0,1.0,0.8,0.7,Time
,,S13,1,female,21,anonymized,Serial_Dependence_U,2023.2.3,Win32,60.60606060606061,,,,,,821.552100000143,153.0,3.0,821.5523000001907,153.0,,,,825.1348000001907,825.6338000001907,824.6184000000953,825.1348000001907,822.5519000000953,824.6184000000953,825.6339000000953,826.1342000000476,826.1342000000476,828.201600000143,1717.0,828.201600000143,5.0,828.2017000000477,3.0,2.0,92.0,11.0,1.0,1.0,0.3,Time
,,S13,1,female,21,anonymized,Serial_Dependence_U,2023.2.3,Win32,60.60606060606061,,,,,,828.2019000000953,36.0,3.0,828.202,36.0,,,,831.7515,832.2507000000477,831.2347000000476,831.7515,829.2014000000953,831.234600000143,832.2507000000477,832.7505,832.7505,835.6179999999999,1899.0,835.6179999999999,5.0,835.618100000143,3.0,3.0,93.0,16.0,1.0,1.0,0.7,Time
,,S13,1,female,21,anonymized,Serial_Dependence_U,2023.2.3,Win32,60.60606060606061,,,,,,835.6183000001907,257.0,3.0,835.6184000000953,257.0,,,,839.168100000143,839.6672000000476,838.6514000000954,839.168100000143,836.6182000000476,838.6514000000954,839.6672000000476,840.1672000000476,840.1672000000476,841.6352000000477,1100.0,841.6352000000477,4.0,841.6353000001907,3.0,4.0,94.0,26.0,1.0,1.0,0.7,Time
,,S13,1,female,21,anonymized,Serial_Dependence_U,2023.2.3,Win32,60.60606060606061,,,,,,841.6355,8.0,3.0,841.635600000143,8.0,,,,845.0179999999999,845.517100000143,844.5013000001907,845.0179999999999,842.6347000000477,844.5012000000477,845.517100000143,846.0169999999999,846.0169999999999,847.3354000000953,984.0,847.3354000000953,4.0,847.335600000143,3.0,5.0,95.0,20.0,1.0,0.8,0.3,Time
,,S13,1,female,21,anonymized,Serial_Dependence_U,2023.2.3,Win32,60.60606060606061,,,,,,847.3357000000476,353.0,3.0,847.3359000000953,353.0,,,,851.3344000000953,851.8334000000954,850.818,851.3344000000953,848.3513000001907,850.8179000000954,851.8334000000954,852.3332000000477,852.3333000001907,854.3179000000954,1633.0,854.318,4.0,854.318,3.0,6.0,96.0,23.0,1.0,1.4,0.3,Time
,,S13,1,female,21,anonymized,Serial_Dependence_U,2023.2.3,Win32,60.60606060606061,,,,,,854.3182000000477,84.0,3.0,854.3183000001907,84.0,,,,857.9009000000954,858.4003000001907,857.3844000000953,857.9009000000954,855.3178000001907,857.3844000000953,858.4003000001907,858.9003000001907,858.9004000000954,860.2515,1001.0,860.2516000001431,3.0,860.2516000001431,3.0,7.0,97.0,21.0,1.0,1.0,0.3,Time
,,S13,1,female,21,anonymized,Serial_Dependence_U,2023.2.3,Win32,60.60606060606061,,,,,,860.2518000001907,90.0,3.0,860.2519000000954,90.0,,,,864.2344000000953,864.7333000001908,863.7179000000954,864.2344000000953,861.251,863.7179000000954,864.7333000001908,865.2333000001908,865.2333000001908,867.1848000001906,1601.0,867.1849000000954,4.0,867.185,3.0,8.0,98.0,3.0,1.0,1.4,0.3,Time
,,S13,1,female,21,anonymized,Serial_Dependence_U,2023.2.3,Win32,60.60606060606061,,,,,,867.1852000000476,259.0,3.0,867.1852000000476,259.0,,,,870.9675,871.4667000000477,870.4509000000953,870.9675,868.1844000000954,870.4509000000953,871.4667000000477,871.966600000143,871.9667000000477,873.7008000001907,1417.0,873.7009000000953,4.0,873.7009000000953,3.0,9.0,99.0,12.0,1.0,1.2,0.3,Time
,,S13,1,female,21,anonymized,Serial_Dependence_U,2023.2.3,Win32,60.60606060606061,,,,,,873.701100000143,250.0,3.0,873.7013000001907,250.0,,,,877.250600000143,877.75,876.734100000143,877.2505,874.7008000001907,876.734100000143,877.75,878.2498000001907,878.2498000001907,880.0504000000954,1482.0,880.0504000000954,5.0,880.0504999999999,3.0,10.0,100.0,6.0,1.0,1.0,0.7,Time
,,S13,1,female,21,anonymized,Serial_Dependence_U,2023.2.3,Win32,60.60606060606061,,,,,,880.050600000143,61.0,3.0,880.0508000001907,61.0,,,,884.034,884.533100000143,883.5174999999999,884.034,881.0509000000953,883.5174000000953,884.533100000143,885.033100000143,885.0332000000476,887.1171000001431,1716.0,887.1172000000477,4.0,887.1172000000477,3.0,11.0,101.0,13.0,1.0,1.4,0.3,Time
,,S13,1,female,21,anonymized,Serial_Dependence_U,2023.2.3,Win32,60.60606060606061,,,,,,887.1175,344.0,3.0,887.1175,344.0,,,,890.8672000000477,891.3663000001907,890.3505,890.8671000001431,888.1171000001431,890.3505,891.3663000001907,891.8663000001907,891.8663000001907,892.384,216.0,892.384,1.0,892.3842000000476,3.0,12.0,102.0,17.0,1.0,1.2,0.7,Time
,,S13,1,female,21,anonymized,Serial_Dependence_U,2023.2.3,Win32,60.60606060606061,,,,,,892.3842000000476,22.0,3.0,892.3844000000953,22.0,,,,896.1337000000476,896.6328000001907,895.6171000001431,896.133600000143,893.384,895.6171000001431,896.6329000000953,897.133100000143,897.1332000000476,898.534,1183.0,898.534,3.0,898.534100000143,3.0,13.0,103.0,7.0,1.0,1.2,0.7,Time
,,S13,1,female,21,anonymized,Serial_Dependence_U,2023.2.3,Win32,60.60606060606061,,,,,,898.5343000001907,357.0,3.0,898.5345,357.0,,,,902.7172000000476,903.216,902.2007000000476,902.7172000000476,899.5337000000477,902.200600000143,903.216,903.716100000143,903.716100000143,905.8173000001908,1783.0,905.8173000001908,4.0,905.8175,3.0,14.0,104.0,14.0,1.0,1.6,0.3,Time
,,S13,1,female,21,anonymized,Serial_Dependence_U,2023.2.3,Win32,60.60606060606061,,,,,,905.8177000000476,99.0,3.0,905.8178000001908,99.0,,,,909.2003000001909,909.6993000001908,908.6834000000954,909.2003000001909,906.817100000143,908.6833000001908,909.6993000001908,910.1994000000954,910.1994000000954,910.6835,166.0,910.6835,1.0,910.6837000000476,3.0,15.0,105.0,0.0,1.0,0.8,0.3,Time
,,S13,1,female,21,anonymized,Serial_Dependence_U,2023.2.3,Win32,60.60606060606061,,,,,,910.6838000001908,287.0,3.0,910.6839000000954,287.0,,,,914.8336000001432,915.3325,914.3169000000952,914.8335,911.6837000000476,914.3169000000952,915.3325,915.8328000001908,915.8329000000954,917.6003000001908,1467.0,917.6003000001908,2.0,917.6005,3.0,16.0,106.0,19.0,1.0,1.6,0.7,Time
,,S13,1,female,21,anonymized,Serial_Dependence_U,2023.2.3,Win32,60.60606060606061,,,,,,917.6007000000476,256.0,3.0,917.6008000001908,256.0,,,,920.9835,921.4826000001432,920.467,920.9835,918.5999000000952,920.467,921.4826000001432,921.9826000001432,921.9827000000475,923.9668000001908,1466.0,923.9668000001908,5.0,923.9669000000954,3.0,17.0,107.0,10.0,1.0,0.8,0.3,Time
,,S13,1,female,21,anonymized,Serial_Dependence_U,2023.2.3,Win32,60.60606060606061,,,,,,923.967100000143,203.0,3.0,923.9672000000476,203.0,,,,927.55,928.049100000143,927.0332000000476,927.55,924.9668000001908,927.0332000000476,928.049100000143,928.5487000000476,928.5487000000476,930.0832000000476,1200.0,930.0832000000476,4.0,930.0834000000954,3.0,18.0,108.0,1.0,1.0,1.0,0.3,Time
,,S13,1,female,21,anonymized,Serial_Dependence_U,2023.2.3,Win32,60.60606060606061,,,,,,930.0835,324.0,3.0,930.0837000000477,324.0,,,,933.8664000000954,934.3655,933.3499000000952,933.8664000000954,931.0831000001432,933.3499000000952,934.3655,934.8659000000954,934.866,936.6495,1349.0,936.6495,4.0,936.6495,3.0,19.0,109.0,22.0,1.0,1.2,0.3,Time
,,S13,1,female,21,anonymized,Serial_Dependence_U,2023.2.3,Win32,60.60606060606061,,,,,,936.6498000001908,294.0,3.0,936.6499000000954,294.0,,,,940.7997000000476,941.2987000000476,940.283,940.7997000000476,937.6498000001908,940.283,941.2987000000476,941.7988000001908,941.7988000001908,943.499600000143,1383.0,943.499600000143,2.0,943.4997000000476,3.0,20.0,110.0,29.0,1.0,1.6,0.7,Time
,,S13,1,female,21,anonymized,Serial_Dependence_U,2023.2.3,Win32,60.60606060606061,,,,,,943.4999000000952,286.0,3.0,943.5,286.0,,,,947.4497000000478,947.9487000000476,946.9329000000952,947.449600000143,944.4998000001908,946.9329000000952,947.9487000000476,948.4486000001432,948.4486000001432,950.7158000001906,1933.0,950.7158000001906,5.0,950.7159000000952,3.0,21.0,111.0,28.0,1.0,1.4,0.7,Time
,,S13,1,female,21,anonymized,Serial_Dependence_U,2023.2.3,Win32,60.60606060606061,,,,,,950.716,18.0,3.0,950.7162000000476,18.0,,,,954.0663000001906,954.565,953.5497000000476,954.0663000001906,951.7163000001908,953.5497000000476,954.565,955.0651000001428,955.0651000001428,957.4497000000478,2017.0,957.4497000000478,5.0,957.4498000001907,3.0,22.0,112.0,15.0,1.0,0.8,0.7,Time
,,S13,1,female,21,anonymized,Serial_Dependence_U,2023.2.3,Win32,60.60606060606061,,,,,,957.45,151.0,3.0,957.4501000001428,151.0,,,,961.1994000000954,961.6985,960.6829000000954,961.1994000000954,958.4492000000477,960.6829000000954,961.6985,962.1985,962.1985,964.2332000000478,1717.0,964.2332000000478,5.0,964.2333000001908,3.0,23.0,113.0,27.0,1.0,1.2,0.7,Time
,,S13,1,female,21,anonymized,Serial_Dependence_U,2023.2.3,Win32,60.60606060606061,,,,,,964.2335,60.0,3.0,964.2335,60.0,,,,968.0158000001908,968.515,967.4995,968.0158000001908,965.232600000143,967.4994000000952,968.515,969.015100000143,969.0152000000476,970.099100000143,767.0,970.099100000143,1.0,970.0993000001909,3.0,24.0,114.0,2.0,1.0,1.2,0.3,Time
,,S13,1,female,21,anonymized,Serial_Dependence_U,2023.2.3,Win32,60.60606060606061,,,,,,970.0994000000954,107.0,3.0,970.0995,107.0,,,,974.0493000001908,974.5485,973.5324000000954,974.0492000000476,971.0993000001909,973.5324000000954,974.5485,975.0484000000952,975.0484000000952,977.2493000001906,1917.0,977.2493000001906,5.0,977.2495,3.0,25.0,115.0,18.0,1.0,1.4,0.7,Time
,,S13,1,female,21,anonymized,Serial_Dependence_U,2023.2.3,Win32,60.60606060606061,,,,,,977.249600000143,57.0,3.0,977.2497000000476,57.0,,,,980.6158000001908,981.114600000143,980.099,980.6158000001908,978.2658000001908,980.0989000000952,981.1147000000476,981.615,981.615,983.2323000001908,1316.0,983.2324000000953,5.0,983.2324000000953,3.0,26.0,116.0,5.0,1.0,0.8,0.7,Time
,,S13,1,female,21,anonymized,Serial_Dependence_U,2023.2.3,Win32,60.60606060606061,,,,,,983.232600000143,331.0,3.0,983.2327000000475,331.0,,,,987.3824000000952,987.8813000001908,986.8655,987.3823000001906,984.2323000001908,986.8655,987.8813000001908,988.3814000000954,988.3814000000954,990.6995,1950.0,990.6995,4.0,990.699600000143,3.0,27.0,117.0,9.0,1.0,1.6,0.7,Time
,,S13,1,female,21,anonymized,Serial_Dependence_U,2023.2.3,Win32,60.60606060606061,,,,,,990.6997000000478,310.0,3.0,990.6999000000952,310.0,,,,994.8823000001906,995.3813000001908,994.3655,994.8822000000476,991.6992000000477,994.3654000000952,995.3813000001908,995.8809000000952,995.881,997.4159000000952,1284.0,997.4159000000952,2.0,997.416100000143,3.0,28.0,118.0,4.0,1.0,1.6,0.3,Time
,,S13,1,female,21,anonymized,Serial_Dependence_U,2023.2.3,Win32,60.60606060606061,,,,,,997.4162000000478,251.0,3.0,997.4163000001907,251.0,,,,1001.3655,1001.8644000000952,1000.8489000000952,1001.3655,998.4153000001908,1000.8489000000952,1001.8644000000952,1002.3641000001428,1002.3642000000476,1004.7657000000476,2067.0,1004.7657000000476,5.0,1004.7659000000951,3.0,29.0,119.0,8.0,1.0,1.4,0.7,Time
,,S13,1,female,21,anonymized,Serial_Dependence_U,2023.2.3,Win32,60.60606060606061,,,,,,1004.766,48.0,4.0,1008.9983000001906,48.0,s,4.216599999904474,,1012.3486000001428,1012.847600000143,1011.832100000143,1012.3485,1009.9989000000954,1011.832,1012.847600000143,1013.347600000143,1013.347600000143,1014.9985,1299.0,1014.9985,5.0,1014.998600000143,4.0,0.0,120.0,25.0,1.0,0.8,0.7,Time
,,S13,1,female,21,anonymized,Serial_Dependence_U,2023.2.3,Win32,60.60606060606061,,,,,,1014.9988000001908,356.0,4.0,1014.9995,356.0,,,,1018.748600000143,1019.2479000000952,1018.232,1018.748600000143,1015.9987000000476,1018.232,1019.2479000000952,1019.747600000143,1019.7477000000478,1022.0322000000476,1917.0,1022.0322000000476,5.0,1022.0324000000954,4.0,1.0,121.0,17.0,1.0,1.2,0.7,Time
,,S13,1,female,21,anonymized,Serial_Dependence_U,2023.2.3,Win32,60.60606060606061,,,,,,1022.0325,44.0,4.0,1022.0326000001432,44.0,,,,1025.415100000143,1025.914100000143,1024.8984999999998,1025.415100000143,1023.0319000000952,1024.8984000000953,1025.914100000143,1026.4139999999998,1026.4139999999998,1027.5478000001906,816.0,1027.5478000001906,3.0,1027.5479999999998,4.0,2.0,122.0,20.0,1.0,0.8,0.3,Time
,,S13,1,female,21,anonymized,Serial_Dependence_U,2023.2.3,Win32,60.60606060606061,,,,,,1027.5479999999998,255.0,4.0,1027.5482000000477,255.0,,,,1031.3317000000477,1031.8306000001428,1030.8149000000951,1031.3317000000477,1028.5482000000477,1030.8148000001906,1031.8306000001428,1032.3307000000475,1032.3308000001905,1034.0987000000475,1501.0,1034.0987000000475,4.0,1034.0989000000952,4.0,3.0,123.0,2.0,1.0,1.2,0.3,Time
,,S13,1,female,21,anonymized,Serial_Dependence_U,2023.2.3,Win32,60.60606060606061,,,,,,1034.099,241.0,4.0,1034.099100000143,241.0,,,,1038.0482000000477,1038.5473000001905,1037.5317000000475,1038.048100000143,1035.098100000143,1037.5316000001428,1038.5474000000952,1039.0472000000475,1039.0472000000475,1041.047600000143,1666.0,1041.047600000143,4.0,1041.0478000001906,4.0,4.0,124.0,28.0,1.0,1.4,0.7,Time
,,S13,1,female,21,anonymized,Serial_Dependence_U,2023.2.3,Win32,60.60606060606061,,,,,,1041.0479000000953,192.0,4.0,1041.0479999999998,192.0,,,,1044.8313000001906,1045.330400000095,1044.3145,1044.8313000001906,1042.0483000001907,1044.3144000000952,1045.330400000095,1045.830400000095,1045.830400000095,1047.8979000000952,1783.0,1047.8979000000952,5.0,1047.898100000143,4.0,5.0,125.0,22.0,1.0,1.2,0.3,Time
,,S13,1,female,21,anonymized,Serial_Dependence_U,2023.2.3,Win32,60.60606060606061,,,,,,1047.8983000001906,228.0,4.0,1047.8983000001906,228.0,,,,1052.0812000000476,1052.5802000000476,1051.5645,1052.081100000143,1048.8979000000952,1051.5644000000952,1052.5803000001906,1053.0803000001906,1053.0803000001906,1054.4474000000953,1099.0,1054.4474000000953,1.0,1054.4474999999998,4.0,6.0,126.0,4.0,1.0,1.6,0.3,Time
,,S13,1,female,21,anonymized,Serial_Dependence_U,2023.2.3,Win32,60.60606060606061,,,,,,1054.4477000000477,164.0,4.0,1054.447800000191,164.0,,,,1057.997600000143,1058.4969000000951,1057.481100000143,1057.997600000143,1055.448,1057.481100000143,1058.4969999999998,1058.9969000000951,1058.9969999999998,1061.5482000000477,1783.0,1061.5482000000477,5.0,1061.5482000000477,4.0,7.0,127.0,16.0,1.0,1.0,0.7,Time
,,S13,1,female,21,anonymized,Serial_Dependence_U,2023.2.3,Win32,60.60606060606061,,,,,,1061.5484000000952,247.0,4.0,1061.5486000001429,247.0,,,,1065.1312000000476,1065.6304999999998,1064.614600000143,1065.1311000001429,1062.5477000000476,1064.614600000143,1065.6304999999998,1066.1302000000476,1066.1302000000476,1067.3306000001428,866.0,1067.3307000000475,2.0,1067.3308000001905,4.0,8.0,128.0,1.0,1.0,1.0,0.3,Time
,,S13,1,female,21,anonymized,Serial_Dependence_U,2023.2.3,Win32,60.60606060606061,,,,,,1067.3309000000952,67.0,4.0,1067.331100000143,67.0,,,,1070.9139999999998,1071.4133000001907,1070.3974999999998,1070.9139999999998,1068.331,1070.3974999999998,1071.4133000001907,1071.9132000000477,1071.9132000000477,1073.531100000143,1350.0,1073.5312000000476,5.0,1073.5313000001906,4.0,9.0,129.0,11.0,1.0,1.0,0.3,Time
,,S13,1,female,21,anonymized,Serial_Dependence_U,2023.2.3,Win32,60.60606060606061,,,,,,1073.5314000000951,343.0,4.0,1073.5314999999998,343.0,,,,1077.4808000001906,1077.9798000001906,1076.964400000095,1077.4808000001906,1074.531,1076.9643000001906,1077.9798000001906,1078.480100000143,1078.480100000143,1080.4308000001906,1583.0,1080.4308000001906,4.0,1080.430900000095,4.0,10.0,130.0,8.0,1.0,1.4,0.7,Time
,,S13,1,female,21,anonymized,Serial_Dependence_U,2023.2.3,Win32,60.60606060606061,,,,,,1080.4309999999998,37.0,4.0,1080.4312000000475,37.0,,,,1083.9807000000476,1084.4799000000953,1083.464100000143,1083.9806000001429,1081.430600000143,1083.464,1084.4799000000953,1084.9798000001906,1084.9798000001906,1087.1983000001906,1834.0,1087.1983000001906,5.0,1087.1984000000953,4.0,11.0,131.0,26.0,1.0,1.0,0.7,Time
,,S13,1,female,21,anonymized,Serial_Dependence_U,2023.2.3,Win32,60.60606060606061,,,,,,1087.198600000143,286.0,4.0,1087.1987000000474,286.0,,,,1091.347300000191,1091.8465,1090.8307000000475,1091.3472000000477,1088.1974000000953,1090.8306000001428,1091.8465,1092.3462000000477,1092.3462000000477,1094.4471000001429,1783.0,1094.4471000001429,4.0,1094.4473000001906,4.0,12.0,132.0,9.0,1.0,1.6,0.7,Time
,,S13,1,female,21,anonymized,Serial_Dependence_U,2023.2.3,Win32,60.60606060606061,,,,,,1094.4474999999998,38.0,4.0,1094.447600000143,38.0,,,,1098.630600000143,1099.1294999999998,1098.113900000095,1098.6304999999998,1095.4469000000952,1098.1138000001906,1099.1294999999998,1099.629600000143,1099.629600000143,1100.7307000000476,700.0,1100.7307000000476,1.0,1100.7308000001906,4.0,13.0,133.0,14.0,1.0,1.6,0.3,Time
,,S13,1,female,21,anonymized,Serial_Dependence_U,2023.2.3,Win32,60.60606060606061,,,,,,1100.7309000000953,288.0,4.0,1100.7309999999998,288.0,,,,1104.080400000095,1104.5794999999998,1103.564,1104.080400000095,1101.7304000000952,1103.564,1104.5794999999998,1105.0793000001906,1105.0793000001906,1106.6302000000476,1233.0,1106.6302000000476,5.0,1106.6304000000953,4.0,14.0,134.0,15.0,1.0,0.8,0.7,Time
,,S13,1,female,21,anonymized,Serial_Dependence_U,2023.2.3,Win32,60.60606060606061,,,,,,1106.6304999999998,200.0,4.0,1106.6307000000477,200.0,,,,1110.013600000143,1110.5128000001905,1109.4969999999998,1110.013600000143,1107.6302000000476,1109.4969000000951,1110.5128000001905,1111.0124999999998,1111.0126000001428,1113.0804999999998,1717.0,1113.0806000001428,5.0,1113.0806000001428,4.0,15.0,135.0,0.0,1.0,0.8,0.3,Time
,,S13,1,female,21,anonymized,Serial_Dependence_U,2023.2.3,Win32,60.60606060606061,,,,,,1113.0808000001905,49.0,4.0,1113.0809000000952,49.0,,,,1117.0302000000474,1117.5289000000953,1116.5134999999998,1117.030100000143,1114.0803000001906,1116.513400000095,1117.5289999999998,1118.0295,1118.0295,1119.913100000143,1599.0,1119.9132000000477,4.0,1119.9132000000477,4.0,16.0,136.0,18.0,1.0,1.4,0.7,Time
,,S13,1,female,21,anonymized,Serial_Dependence_U,2023.2.3,Win32,60.60606060606061,,,,,,1119.9134000000952,267.0,4.0,1119.9135,267.0,,,,1123.2633000001906,1123.762400000095,1122.7469000000951,1123.2632000000476,1120.9134000000952,1122.746800000191,1123.762400000095,1124.2623000001906,1124.2623000001906,1126.0299999999995,1400.0,1126.0299999999995,5.0,1126.030100000143,4.0,17.0,137.0,5.0,1.0,0.8,0.7,Time
,,S13,1,female,21,anonymized,Serial_Dependence_U,2023.2.3,Win32,60.60606060606061,,,,,,1126.030300000191,350.0,4.0,1126.030300000191,350.0,,,,1129.3969000000952,1129.8957000000476,1128.8966000001428,1129.3968000001903,1127.0299999999995,1128.8964999999998,1129.8957000000476,1130.3955,1130.3955,1131.9132000000477,1199.0,1131.9133000001907,5.0,1131.9133000001907,4.0,18.0,138.0,10.0,1.0,0.8,0.3,Time
,,S13,1,female,21,anonymized,Serial_Dependence_U,2023.2.3,Win32,60.60606060606061,,,,,,1131.9135,71.0,4.0,1131.9136000001429,71.0,,,,1136.0634999999995,1136.5619000000952,1135.546600000143,1136.0634000000953,1132.9132000000477,1135.5465,1136.562,1137.0623000001906,1137.0623000001906,1139.4463000001906,2083.0,1139.4463000001906,5.0,1139.4464999999998,4.0,19.0,139.0,29.0,1.0,1.6,0.7,Time
,,S13,1,female,21,anonymized,Serial_Dependence_U,2023.2.3,Win32,60.60606060606061,,,,,,1139.4469000000952,119.0,4.0,1139.447,119.0,,,,1143.1964999999998,1143.695400000095,1142.6798000001909,1143.1964000000953,1140.4464000000953,1142.6798000001909,1143.6954999999998,1144.1953000001906,1144.1953000001906,1145.8294999999998,1333.0,1145.8294999999998,4.0,1145.8297000000475,4.0,20.0,140.0,7.0,1.0,1.2,0.7,Time
,,S13,1,female,21,anonymized,Serial_Dependence_U,2023.2.3,Win32,60.60606060606061,,,,,,1145.8298000001903,319.0,4.0,1145.8299000000952,319.0,,,,1149.3797000000477,1149.8789000000952,1148.8629999999998,1149.379600000143,1146.8294000000951,1148.8629000000951,1149.8789000000952,1150.3788000001905,1150.3789000000952,1152.746,1933.0,1152.746,5.0,1152.7463000001906,4.0,21.0,141.0,6.0,1.0,1.0,0.7,Time
,,S13,1,female,21,anonymized,Serial_Dependence_U,2023.2.3,Win32,60.60606060606061,,,,,,1152.7465,270.0,4.0,1152.7465,270.0,,,,1156.3293000001906,1156.8286000001428,1155.8128000001907,1156.3292000000476,1153.7462000000476,1155.8128000001907,1156.8286000001428,1157.3286000001428,1157.3286000001428,1159.0297000000476,1350.0,1159.0297000000476,5.0,1159.0299000000953,4.0,22.0,142.0,21.0,1.0,1.0,0.3,Time
,,S13,1,female,21,anonymized,Serial_Dependence_U,2023.2.3,Win32,60.60606060606061,,,,,,1159.0299999999995,57.0,4.0,1159.0302000000474,57.0,,,,1162.9961000001429,1163.4951000001429,1162.4954999999998,1162.9961000001429,1160.0294000000952,1162.4954999999998,1163.4951000001429,1163.9953000001906,1163.9953000001906,1165.9133000001907,1600.0,1165.9133000001907,4.0,1165.9134000000952,4.0,23.0,143.0,3.0,1.0,1.4,0.3,Time
,,S13,1,female,21,anonymized,Serial_Dependence_U,2023.2.3,Win32,60.60606060606061,,,,,,1165.9136000001429,133.0,4.0,1165.9137000000476,133.0,,,,1169.696,1170.195100000143,1169.1793000001906,1169.696,1166.912600000143,1169.1792000000476,1170.1952000000476,1170.695,1170.695,1171.6122000000476,533.0,1171.6123000001903,1.0,1171.6124000000952,4.0,24.0,144.0,12.0,1.0,1.2,0.3,Time
,,S13,1,female,21,anonymized,Serial_Dependence_U,2023.2.3,Win32,60.60606060606061,,,,,,1171.6125,258.0,4.0,1171.612600000143,258.0,,,,1175.595600000143,1176.0948000001906,1175.0793000001906,1175.595600000143,1172.6124000000952,1175.0792000000476,1176.0948000001906,1176.5949999999998,1176.5949999999998,1178.1622000000475,1266.0,1178.1623000001905,2.0,1178.1623000001905,4.0,25.0,145.0,13.0,1.0,1.4,0.3,Time
,,S13,1,female,21,anonymized,Serial_Dependence_U,2023.2.3,Win32,60.60606060606061,,,,,,1178.1625,99.0,4.0,1178.162600000143,99.0,,,,1181.8964000000951,1182.3949000000953,1181.3958000001903,1181.8963000001906,1179.1624000000952,1181.3957000000476,1182.3949000000953,1182.8947000000476,1182.8948000001906,1184.7287000000476,1516.0,1184.7287000000476,4.0,1184.7288000001906,4.0,26.0,146.0,27.0,1.0,1.2,0.7,Time
,,S13,1,female,21,anonymized,Serial_Dependence_U,2023.2.3,Win32,60.60606060606061,,,,,,1184.7289999999998,117.0,4.0,1184.7289999999998,117.0,,,,1188.879,1189.3776000001428,1188.3625,1188.879,1185.7289999999998,1188.3624000000952,1189.3776000001428,1189.8779000000952,1189.8779000000952,1192.3623000001903,2117.0,1192.3624000000952,5.0,1192.3624000000952,4.0,27.0,147.0,19.0,1.0,1.6,0.7,Time
,,S13,1,female,21,anonymized,Serial_Dependence_U,2023.2.3,Win32,60.60606060606061,,,,,,1192.3627000000477,299.0,4.0,1192.3627000000477,299.0,,,,1196.345600000143,1196.8445,1195.829,1196.345600000143,1193.3623000001903,1195.8289000000952,1196.844600000143,1197.3447000000476,1197.3447000000476,1198.7295,1017.0,1198.7295,2.0,1198.729600000143,4.0,28.0,148.0,23.0,1.0,1.4,0.3,Time
,,S13,1,female,21,anonymized,Serial_Dependence_U,2023.2.3,Win32,60.60606060606061,,,,,,1198.7298000001906,2.0,4.0,1198.7299000000953,2.0,,,,1202.911900000095,1203.4108000001906,1202.411600000143,1202.9118000001906,1199.7453000001906,1202.411600000143,1203.4108000001906,1203.9111000001428,1203.9111000001428,1206.4118000001906,2049.0,1206.4118000001906,4.0,1206.411900000095,4.0,29.0,149.0,24.0,1.0,1.6,0.3,Time
,,S13,1,female,21,anonymized,Serial_Dependence_U,2023.2.3,Win32,60.60606060606061,,,,,,1206.4121000001428,22.0,5.0,1249.8614000000953,22.0,s,43.43329999995217,,1253.811100000143,1254.3103000001906,1253.2947000000474,1253.811100000143,1250.8614000000953,1253.294600000143,1254.3104000000951,1254.8102000000476,1254.8102000000476,1256.9278000001907,1766.0,1256.9278000001907,4.0,1256.9279000000952,5.0,0.0,150.0,8.0,1.0,1.4,0.7,Time
,,S13,1,female,21,anonymized,Serial_Dependence_U,2023.2.3,Win32,60.60606060606061,,,,,,1256.9281000001429,112.0,5.0,1256.928800000191,112.0,,,,1260.9109000000951,1261.4102000000476,1260.3944000000952,1260.9109000000951,1257.9279000000952,1260.3944000000952,1261.4102000000476,1261.9101000001428,1261.9102000000476,1263.694,1349.0,1263.694100000143,3.0,1263.694100000143,5.0,1.0,151.0,23.0,1.0,1.4,0.3,Time
,,S13,1,female,21,anonymized,Serial_Dependence_U,2023.2.3,Win32,60.60606060606061,,,,,,1263.6943000001909,174.0,5.0,1263.6944000000951,174.0,,,,1267.0779000000953,1267.5768000001906,1266.5612000000476,1267.0778000001906,1264.6944999999998,1266.561100000143,1267.5768000001906,1268.0768000001906,1268.0768000001906,1269.6449999999998,1251.0,1269.6449999999998,5.0,1269.645100000143,5.0,2.0,152.0,0.0,1.0,0.8,0.3,Time
,,S13,1,female,21,anonymized,Serial_Dependence_U,2023.2.3,Win32,60.60606060606061,,,,,,1269.645300000191,47.0,5.0,1269.6454000000952,47.0,,,,1273.6276000001428,1274.1266000001428,1273.111,1273.6276000001428,1270.6442000000477,1273.111,1274.1266000001428,1274.6265,1274.6266000001428,1276.328100000143,1350.0,1276.3282000000474,3.0,1276.3282000000474,5.0,3.0,153.0,3.0,1.0,1.4,0.3,Time
,,S13,1,female,21,anonymized,Serial_Dependence_U,2023.2.3,Win32,60.60606060606061,,,,,,1276.3284000000951,59.0,5.0,1276.3284999999998,59.0,,,,1279.8776000001428,1280.3765,1279.3607000000477,1279.8774999999998,1277.3274000000952,1279.3607000000477,1280.3766000001428,1280.8765,1280.8766000001428,1282.6939000000953,1466.0,1282.6939000000953,5.0,1282.694,5.0,4.0,154.0,16.0,1.0,1.0,0.7,Time
,,S13,1,female,21,anonymized,Serial_Dependence_U,2023.2.3,Win32,60.60606060606061,,,,,,1282.694100000143,115.0,5.0,1282.6943000001909,115.0,,,,1286.2773000001905,1286.7763000001903,1285.761,1286.2773000001905,1283.694100000143,1285.761,1286.7764000000952,1287.2765,1287.2767000000476,1287.9607000000476,266.0,1287.9607000000476,1.0,1287.9608000001906,5.0,5.0,155.0,11.0,1.0,1.0,0.3,Time
,,S13,1,female,21,anonymized,Serial_Dependence_U,2023.2.3,Win32,60.60606060606061,,,,,,1287.9609999999998,120.0,5.0,1287.961100000143,120.0,,,,1291.3439000000951,1291.8429999999998,1290.8276000001429,1291.3438000001906,1288.960600000143,1290.8275,1291.8429999999998,1292.3429000000951,1292.3429999999998,1294.0272000000475,1350.0,1294.0272000000475,5.0,1294.0273000001905,5.0,6.0,156.0,10.0,1.0,0.8,0.3,Time
,,S13,1,female,21,anonymized,Serial_Dependence_U,2023.2.3,Win32,60.60606060606061,,,,,,1294.0275,200.0,5.0,1294.0275,200.0,,,,1298.210600000143,1298.709600000143,1297.6939000000953,1298.2104000000952,1295.0272000000475,1297.6939000000953,1298.709600000143,1299.2097000000476,1299.2097000000476,1301.526900000095,1866.0,1301.5269999999998,4.0,1301.5271000001428,5.0,7.0,157.0,24.0,1.0,1.6,0.3,Time
,,S13,1,female,21,anonymized,Serial_Dependence_U,2023.2.3,Win32,60.60606060606061,,,,,,1301.5272000000475,154.0,5.0,1301.5273000001905,154.0,,,,1305.7104000000952,1306.2095,1305.194,1305.7104000000952,1302.5269999999998,1305.194,1306.2095,1306.7095,1306.7095,1307.610100000143,533.0,1307.610100000143,1.0,1307.6102000000476,5.0,8.0,158.0,4.0,1.0,1.6,0.3,Time
,,S13,1,female,21,anonymized,Serial_Dependence_U,2023.2.3,Win32,60.60606060606061,,,,,,1307.6104000000953,316.0,5.0,1307.6104999999998,316.0,,,,1310.977,1311.4761000001429,1310.4602000000475,1310.977,1308.6272000000477,1310.4601000001428,1311.4761000001429,1311.975600000143,1311.975600000143,1313.943300000191,1533.0,1313.943300000191,5.0,1313.943300000191,5.0,9.0,159.0,15.0,1.0,0.8,0.7,Time
,,S13,1,female,21,anonymized,Serial_Dependence_U,2023.2.3,Win32,60.60606060606061,,,,,,1313.9435,65.0,5.0,1313.9436000001429,65.0,,,,1318.0935,1318.5924000000953,1317.5769000000953,1318.0934000000952,1314.9435,1317.5768000001906,1318.5924000000953,1319.0927000000474,1319.0927000000474,1319.8598000001905,399.0,1319.8598000001905,1.0,1319.8599000000952,5.0,10.0,160.0,9.0,1.0,1.6,0.7,Time
,,S13,1,female,21,anonymized,Serial_Dependence_U,2023.2.3,Win32,60.60606060606061,,,,,,1319.860100000143,243.0,5.0,1319.8602000000476,243.0,,,,1324.010100000143,1324.5089999999998,1323.4933000001906,1324.010100000143,1320.8602000000476,1323.4932000000476,1324.5089999999998,1325.0092000000477,1325.0092000000477,1327.5271000001428,2150.0,1327.5272000000475,5.0,1327.5274000000952,5.0,11.0,161.0,29.0,1.0,1.6,0.7,Time
,,S13,1,female,21,anonymized,Serial_Dependence_U,2023.2.3,Win32,60.60606060606061,,,,,,1327.5275,153.0,5.0,1327.527600000143,153.0,,,,1331.7097000000476,1332.2091000001428,1331.193300000191,1331.7097000000476,1328.5267000000476,1331.1932000000477,1332.2091000001428,1332.7089999999998,1332.7089999999998,1334.5932000000475,1533.0,1334.5932000000475,3.0,1334.5933000001903,5.0,12.0,162.0,14.0,1.0,1.6,0.3,Time
,,S13,1,female,21,anonymized,Serial_Dependence_U,2023.2.3,Win32,60.60606060606061,,,,,,1334.5935,132.0,5.0,1334.593600000143,132.0,,,,1337.9432000000477,1338.4422000000477,1337.4266000001428,1337.9432000000477,1335.5931000001428,1337.4264999999998,1338.4422000000477,1338.9422000000477,1338.9422000000477,1341.3103000001906,1984.0,1341.3103000001906,5.0,1341.3104000000951,5.0,13.0,163.0,25.0,1.0,0.8,0.7,Time
,,S13,1,female,21,anonymized,Serial_Dependence_U,2023.2.3,Win32,60.60606060606061,,,,,,1341.3106000001428,18.0,5.0,1341.3109000000952,18.0,,,,1345.0929999999998,1345.592,1344.5765,1345.0929999999998,1342.3097000000475,1344.5765,1345.5921000001429,1346.0919000000952,1346.0919000000952,1347.0934000000952,617.0,1347.0934000000952,1.0,1347.0935,5.0,14.0,164.0,22.0,1.0,1.2,0.3,Time
,,S13,1,female,21,anonymized,Serial_Dependence_U,2023.2.3,Win32,60.60606060606061,,,,,,1347.0937000000476,302.0,5.0,1347.0938000001906,302.0,,,,1351.0429000000952,1351.542,1350.5265,1351.0429000000952,1348.0933000001903,1350.5264000000952,1351.542,1352.042100000143,1352.042100000143,1354.1428000001906,1683.0,1354.1428000001906,4.0,1354.142900000095,5.0,15.0,165.0,28.0,1.0,1.4,0.7,Time
,,S13,1,female,21,anonymized,Serial_Dependence_U,2023.2.3,Win32,60.60606060606061,,,,,,1354.1431000001428,153.0,5.0,1354.1432000000475,153.0,,,,1357.8931000001428,1358.3919000000951,1357.376100000143,1357.8929999999998,1355.1427000000476,1357.376100000143,1358.3919000000951,1358.8917000000476,1358.8918000001906,1361.226800000191,1900.0,1361.226800000191,5.0,1361.2269000000952,5.0,16.0,166.0,27.0,1.0,1.2,0.7,Time
,,S13,1,female,21,anonymized,Serial_Dependence_U,2023.2.3,Win32,60.60606060606061,,,,,,1361.227,356.0,5.0,1361.2271000001429,356.0,,,,1364.8092000000474,1365.3084000000952,1364.2927000000475,1364.8092000000474,1362.226,1364.2927000000475,1365.3084000000952,1365.8084000000952,1365.8084000000952,1367.7262000000476,1517.0,1367.7262000000476,5.0,1367.7263000001906,5.0,17.0,167.0,1.0,1.0,1.0,0.3,Time
,,S13,1,female,21,anonymized,Serial_Dependence_U,2023.2.3,Win32,60.60606060606061,,,,,,1367.7264999999998,111.0,5.0,1367.7267000000477,111.0,,,,1371.4758000001907,1371.9752000000476,1370.9593000001903,1371.4758000001907,1368.7259000000952,1370.9593000001903,1371.9752000000476,1372.475,1372.475,1374.9926000001428,2016.0,1374.9927000000475,5.0,1374.9928000001903,5.0,18.0,168.0,7.0,1.0,1.2,0.7,Time
,,S13,1,female,21,anonymized,Serial_Dependence_U,2023.2.3,Win32,60.60606060606061,,,,,,1374.993,287.0,5.0,1374.993,287.0,,,,1378.7757000000474,1379.275,1378.2593000001905,1378.7757000000474,1375.9926000001428,1378.2592000000477,1379.275,1379.7747000000477,1379.774800000191,1382.1097000000475,2017.0,1382.1097000000475,5.0,1382.1098000001905,5.0,19.0,169.0,2.0,1.0,1.2,0.3,Time
,,S13,1,female,21,anonymized,Serial_Dependence_U,2023.2.3,Win32,60.60606060606061,,,,,,1382.110100000143,171.0,5.0,1382.1104000000953,171.0,,,,1385.6592000000476,1386.158100000143,1385.1425,1385.6591000001429,1383.1092000000476,1385.1425,1386.158100000143,1386.658100000143,1386.658100000143,1388.9587000000474,1999.0,1388.9588000001906,5.0,1388.9589000000951,5.0,20.0,170.0,26.0,1.0,1.0,0.7,Time
,,S13,1,female,21,anonymized,Serial_Dependence_U,2023.2.3,Win32,60.60606060606061,,,,,,1388.9589999999998,341.0,5.0,1388.9591000001428,341.0,,,,1393.1086000001428,1393.608100000143,1392.5924000000953,1393.1086000001428,1389.9589000000951,1392.5923000001906,1393.608100000143,1394.108,1394.108,1396.8584000000951,2383.0,1396.8584999999998,5.0,1396.8586000001428,5.0,21.0,171.0,19.0,1.0,1.6,0.7,Time
,,S13,1,female,21,anonymized,Serial_Dependence_U,2023.2.3,Win32,60.60606060606061,,,,,,1396.8588000001905,94.0,5.0,1396.8588000001905,94.0,,,,1400.8087000000476,1401.3077000000476,1400.2922000000476,1400.8087000000476,1397.8588000001905,1400.2922000000476,1401.3078000001906,1401.808100000143,1401.808100000143,1404.5088000001906,2233.0,1404.5088000001906,5.0,1404.5089000000953,5.0,22.0,172.0,18.0,1.0,1.4,0.7,Time
,,S13,1,female,21,anonymized,Serial_Dependence_U,2023.2.3,Win32,60.60606060606061,,,,,,1404.509100000143,228.0,5.0,1404.5092000000477,228.0,,,,1408.492,1408.9909000000953,1407.975100000143,1408.492,1405.5088000001906,1407.975100000143,1408.9909000000953,1409.4909000000953,1409.4909000000953,1411.2589999999998,1401.0,1411.2589999999998,3.0,1411.2592000000477,5.0,23.0,173.0,13.0,1.0,1.4,0.3,Time
,,S13,1,female,21,anonymized,Serial_Dependence_U,2023.2.3,Win32,60.60606060606061,,,,,,1411.2593000001905,74.0,5.0,1411.2595,74.0,,,,1414.641600000143,1415.1409999999998,1414.1253000001907,1414.641600000143,1412.2587000000476,1414.1252000000477,1415.1409999999998,1415.6409000000951,1415.6409000000951,1417.6589000000952,1633.0,1417.659,5.0,1417.6591000001429,5.0,24.0,174.0,20.0,1.0,0.8,0.3,Time
,,S13,1,female,21,anonymized,Serial_Dependence_U,2023.2.3,Win32,60.60606060606061,,,,,,1417.6592000000476,210.0,5.0,1417.6594000000953,210.0,,,,1421.441600000143,1421.9411000001428,1420.925,1421.441600000143,1418.6584999999998,1420.925,1421.9411000001428,1422.4409999999998,1422.4409999999998,1424.558300000191,1766.0,1424.558300000191,5.0,1424.5584000000952,5.0,25.0,175.0,12.0,1.0,1.2,0.3,Time
,,S13,1,female,21,anonymized,Serial_Dependence_U,2023.2.3,Win32,60.60606060606061,,,,,,1424.5585,171.0,5.0,1424.5586000001429,171.0,,,,1428.141600000143,1428.640600000143,1427.625100000143,1428.1415,1425.5584000000952,1427.6249999999998,1428.640600000143,1429.1409999999998,1429.1409999999998,1431.4585,1950.0,1431.4585,5.0,1431.4587000000474,5.0,26.0,176.0,21.0,1.0,1.0,0.3,Time
,,S13,1,female,21,anonymized,Serial_Dependence_U,2023.2.3,Win32,60.60606060606061,,,,,,1431.4588000001906,204.0,5.0,1431.4589000000951,204.0,,,,1435.2082000000476,1435.7073000001906,1434.6913000001905,1435.2082000000476,1432.4582000000476,1434.6912000000475,1435.7073000001906,1436.2072000000476,1436.2073000001906,1437.991300000191,1516.0,1437.9914000000952,4.0,1437.9914000000952,5.0,27.0,177.0,17.0,1.0,1.2,0.7,Time
,,S13,1,female,21,anonymized,Serial_Dependence_U,2023.2.3,Win32,60.60606060606061,,,,,,1437.9916000001429,250.0,5.0,1437.9917000000476,250.0,,,,1441.5414999999998,1442.0406000001428,1441.0249000000952,1441.5414999999998,1438.9918000001906,1441.0249000000952,1442.0406000001428,1442.5404999999998,1442.5406000001428,1444.4082000000476,1517.0,1444.4082000000476,5.0,1444.4083000001906,5.0,28.0,178.0,6.0,1.0,1.0,0.7,Time
,,S13,1,female,21,anonymized,Serial_Dependence_U,2023.2.3,Win32,60.60606060606061,,,,,,1444.4084999999998,186.0,5.0,1444.408600000143,186.0,,,,1447.7583000001905,1448.2572000000475,1447.2414000000952,1447.7583000001905,1445.4084000000953,1447.2414000000952,1448.2572000000475,1448.7571000001428,1448.7572000000475,1450.3247000000476,1116.0,1450.3247000000476,5.0,1450.3248000001906,5.0,29.0,179.0,5.0,1.0,0.8,0.7,Time
,,S13,1,female,21,anonymized,Serial_Dependence_U,2023.2.3,Win32,60.60606060606061,,,,,,1450.324900000095,350.0,6.0,1458.9074999999998,350.0,s,8.566499999999905,,1462.491100000143,1462.9902000000477,1461.9742000000476,1462.491100000143,1459.9079000000952,1461.974100000143,1462.9902000000477,1463.490100000143,1463.490100000143,1465.7579999999998,1901.0,1465.7579999999998,5.0,1465.7581000001428,6.0,0.0,180.0,1.0,1.0,1.0,0.3,Time
,,S13,1,female,21,anonymized,Serial_Dependence_U,2023.2.3,Win32,60.60606060606061,,,,,,1465.7583000001905,207.0,6.0,1465.7589000000953,207.0,,,,1469.3076000001429,1469.8067000000476,1468.791,1469.3076000001429,1466.757600000143,1468.791,1469.8067000000476,1470.3069999999998,1470.3069999999998,1473.0243000001906,1617.0,1473.0244000000953,5.0,1473.0244999999998,6.0,1.0,181.0,16.0,1.0,1.0,0.7,Time
,,S13,1,female,21,anonymized,Serial_Dependence_U,2023.2.3,Win32,60.60606060606061,,,,,,1473.024600000143,105.0,6.0,1473.0247000000477,105.0,,,,1477.007600000143,1477.5079999999998,1476.4908000001906,1477.0075,1474.0244000000953,1476.4908000001906,1477.5079999999998,1478.006600000143,1478.006600000143,1479.7573000001903,1416.0,1479.7574000000952,3.0,1479.7575,6.0,2.0,182.0,3.0,1.0,1.4,0.3,Time
,,S13,1,female,21,anonymized,Serial_Dependence_U,2023.2.3,Win32,60.60606060606061,,,,,,1479.7577000000476,33.0,6.0,1479.7577000000476,33.0,,,,1483.5407000000475,1484.0398000001906,1483.0241000001429,1483.5406000001428,1480.757600000143,1483.0241000001429,1484.0398000001906,1484.54,1484.54,1485.823600000143,882.0,1485.823600000143,2.0,1485.8237000000474,6.0,3.0,183.0,2.0,1.0,1.2,0.3,Time
,,S13,1,female,21,anonymized,Serial_Dependence_U,2023.2.3,Win32,60.60606060606061,,,,,,1485.8239000000951,241.0,6.0,1485.8239000000951,241.0,,,,1489.7739000000952,1490.273,1489.2572000000475,1489.7739000000952,1486.8239999999998,1489.2572000000475,1490.273,1490.7734000000953,1490.7734000000953,1493.1239999999998,1984.0,1493.1239999999998,5.0,1493.124100000143,6.0,4.0,184.0,8.0,1.0,1.4,0.7,Time
,,S13,1,female,21,anonymized,Serial_Dependence_U,2023.2.3,Win32,60.60606060606061,,,,,,1493.1242000000475,328.0,6.0,1493.1243000001905,328.0,,,,1497.0739000000951,1497.573,1496.557100000143,1497.0739000000951,1494.123900000095,1496.557100000143,1497.573,1498.0729000000952,1498.0729000000952,1500.274,1900.0,1500.2741000001429,5.0,1500.2742000000476,6.0,5.0,185.0,18.0,1.0,1.4,0.7,Time
,,S13,1,female,21,anonymized,Serial_Dependence_U,2023.2.3,Win32,60.60606060606061,,,,,,1500.2743000001906,284.0,6.0,1500.2744000000953,284.0,,,,1503.8238000001909,1504.3229000000952,1503.3069999999998,1503.8238000001909,1501.2738000001907,1503.3069000000953,1504.3229000000952,1504.822600000143,1504.8227000000477,1507.0567000000476,1966.0,1507.0568000001906,5.0,1507.0569000000953,6.0,6.0,186.0,6.0,1.0,1.0,0.7,Time
,,S13,1,female,21,anonymized,Serial_Dependence_U,2023.2.3,Win32,60.60606060606061,,,,,,1507.057100000143,162.0,6.0,1507.057100000143,162.0,,,,1511.0406000001428,1511.539300000191,1510.523600000143,1511.0404999999998,1508.057100000143,1510.523600000143,1511.539300000191,1512.0394000000952,1512.0394000000952,1513.8068000001906,1499.0,1513.8068000001906,4.0,1513.8069000000953,6.0,7.0,187.0,13.0,1.0,1.4,0.3,Time
,,S13,1,female,21,anonymized,Serial_Dependence_U,2023.2.3,Win32,60.60606060606061,,,,,,1513.807100000143,147.0,6.0,1513.8072000000475,147.0,,,,1517.39,1517.8892000000476,1516.8738000001906,1517.39,1514.8067000000476,1516.8737000000476,1517.8892000000476,1518.3894000000953,1518.3894999999998,1520.1563000001906,1466.0,1520.1563000001906,5.0,1520.1564999999998,6.0,8.0,188.0,21.0,1.0,1.0,0.3,Time
,,S13,1,female,21,anonymized,Serial_Dependence_U,2023.2.3,Win32,60.60606060606061,,,,,,1520.1566000001428,227.0,6.0,1520.1567000000475,227.0,,,,1524.3233000001906,1524.822600000143,1523.8068000001906,1524.3232000000476,1521.1734000000952,1523.8067000000476,1524.822600000143,1525.3224999999998,1525.3224999999998,1527.5731000001429,1900.0,1527.5732000000476,4.0,1527.5733000001906,6.0,9.0,189.0,9.0,1.0,1.6,0.7,Time
,,S13,1,female,21,anonymized,Serial_Dependence_U,2023.2.3,Win32,60.60606060606061,,,,,,1527.5735,97.0,6.0,1527.573600000143,97.0,,,,1531.7568000001909,1532.255600000143,1531.2399999999998,1531.7568000001909,1528.5733000001906,1531.2399999999998,1532.2557000000477,1532.7554999999998,1532.7554999999998,1533.8569000000953,800.0,1533.8569999999995,1.0,1533.857100000143,6.0,10.0,190.0,14.0,1.0,1.6,0.3,Time
,,S13,1,female,21,anonymized,Serial_Dependence_U,2023.2.3,Win32,60.60606060606061,,,,,,1533.8572000000474,159.0,6.0,1533.857300000191,159.0,,,,1537.6397000000477,1538.139,1537.1234000000952,1537.6397000000477,1534.8567000000476,1537.1234000000952,1538.139,1538.639,1538.639,1540.3901000001429,1400.0,1540.3901000001429,4.0,1540.3902000000476,6.0,11.0,191.0,22.0,1.0,1.2,0.3,Time
,,S13,1,female,21,anonymized,Serial_Dependence_U,2023.2.3,Win32,60.60606060606061,,,,,,1540.3904000000953,297.0,6.0,1540.3904000000953,297.0,,,,1543.973,1544.472100000143,1543.4567000000477,1543.9729000000953,1541.389600000143,1543.4567000000477,1544.472100000143,1544.972100000143,1544.972100000143,1545.4403000001903,0.0,1545.4403000001903,1.0,1545.4404000000952,6.0,12.0,192.0,11.0,1.0,1.0,0.3,Time
,,S13,1,female,21,anonymized,Serial_Dependence_U,2023.2.3,Win32,60.60606060606061,,,,,,1545.4405,170.0,6.0,1545.4407000000476,170.0,,,,1548.7898000001906,1549.2886000001429,1548.273,1548.7898000001906,1546.4399999999998,1548.2729000000952,1549.2886000001429,1549.7888000001906,1549.7889000000953,1552.2727000000475,2100.0,1552.2727000000475,5.0,1552.2729000000952,6.0,13.0,193.0,25.0,1.0,0.8,0.7,Time
,,S13,1,female,21,anonymized,Serial_Dependence_U,2023.2.3,Win32,60.60606060606061,,,,,,1552.273,129.0,6.0,1552.273100000143,129.0,,,,1555.6563000001906,1556.1554000000951,1555.139600000143,1555.6563000001906,1553.273,1555.1394999999998,1556.1554000000951,1556.6554000000951,1556.6554999999998,1558.6733000001907,1650.0,1558.6733000001907,5.0,1558.6734000000952,6.0,14.0,194.0,10.0,1.0,0.8,0.3,Time
,,S13,1,female,21,anonymized,Serial_Dependence_U,2023.2.3,Win32,60.60606060606061,,,,,,1558.6735,154.0,6.0,1558.6736000001429,154.0,,,,1562.856100000143,1563.3553000001905,1562.3392000000476,1562.856100000143,1559.6728000001906,1562.339100000143,1563.3553000001905,1563.855100000143,1563.855100000143,1565.922600000143,1666.0,1565.922600000143,3.0,1565.9227000000476,6.0,15.0,195.0,24.0,1.0,1.6,0.3,Time
,,S13,1,female,21,anonymized,Serial_Dependence_U,2023.2.3,Win32,60.60606060606061,,,,,,1565.9228000001906,185.0,6.0,1565.9229000000953,185.0,,,,1570.072600000143,1570.571600000143,1569.555900000095,1570.072600000143,1566.9229999999998,1569.555900000095,1570.571600000143,1571.0717000000477,1571.0717000000477,1573.723100000143,2267.0,1573.7232000000474,5.0,1573.7232000000474,6.0,16.0,196.0,29.0,1.0,1.6,0.7,Time
,,S13,1,female,21,anonymized,Serial_Dependence_U,2023.2.3,Win32,60.60606060606061,,,,,,1573.7234000000951,21.0,6.0,1573.7234000000951,21.0,,,,1577.8724000000952,1578.371600000143,1577.356100000143,1577.8724000000952,1574.7226000001428,1577.356100000143,1578.371600000143,1578.8714000000953,1578.8714000000953,1581.7559000000952,2483.0,1581.7559000000952,5.0,1581.7561000001429,6.0,17.0,197.0,19.0,1.0,1.6,0.7,Time
,,S13,1,female,21,anonymized,Serial_Dependence_U,2023.2.3,Win32,60.60606060606061,,,,,,1581.7562000000476,51.0,6.0,1581.7563000001903,51.0,,,,1585.3057000000476,1585.8047000000474,1584.789100000143,1585.305600000143,1582.7554999999998,1584.789100000143,1585.8048000001909,1586.3048000001909,1586.3048000001909,1588.8393000001906,2150.0,1588.839400000095,5.0,1588.8398000001905,6.0,18.0,198.0,26.0,1.0,1.0,0.7,Time
,,S13,1,female,21,anonymized,Serial_Dependence_U,2023.2.3,Win32,60.60606060606061,,,,,,1588.8399000000952,11.0,6.0,1588.84,11.0,,,,1592.6223000001903,1593.1211000001429,1592.1056000001429,1592.6223000001903,1589.8389000000952,1592.1055,1593.1211000001429,1593.6212000000476,1593.6212000000476,1596.1231000001428,2168.0,1596.1231000001428,5.0,1596.1233000001905,6.0,19.0,199.0,12.0,1.0,1.2,0.3,Time
,,S13,1,female,21,anonymized,Serial_Dependence_U,2023.2.3,Win32,60.60606060606061,,,,,,1596.1234000000952,226.0,6.0,1596.1234000000952,226.0,,,,1600.1055,1600.604600000143,1599.5888000001903,1600.1054000000952,1597.1221000001428,1599.5888000001903,1600.604600000143,1601.1041000001428,1601.1042000000475,1603.339400000095,1917.0,1603.3394999999998,5.0,1603.3396000001428,6.0,20.0,200.0,23.0,1.0,1.4,0.3,Time
,,S13,1,female,21,anonymized,Serial_Dependence_U,2023.2.3,Win32,60.60606060606061,,,,,,1603.3398000001905,157.0,6.0,1603.3398000001905,157.0,,,,1607.0889000000952,1607.5874000000952,1606.5723000001906,1607.0889000000952,1604.3387000000475,1606.5722000000476,1607.5875,1608.088,1608.088,1610.2226000001428,1783.0,1610.2226000001428,5.0,1610.2228000001903,6.0,21.0,201.0,17.0,1.0,1.2,0.7,Time
,,S13,1,female,21,anonymized,Serial_Dependence_U,2023.2.3,Win32,60.60606060606061,,,,,,1610.2229000000953,62.0,6.0,1610.2229000000953,62.0,,,,1613.9719000000953,1614.4715,1613.4552000000476,1613.9719000000953,1611.2219000000953,1613.4552000000476,1614.4715,1614.971100000143,1614.971100000143,1617.4218000001906,2116.0,1617.4218000001906,5.0,1617.4219999999998,6.0,22.0,202.0,27.0,1.0,1.2,0.7,Time
,,S13,1,female,21,anonymized,Serial_Dependence_U,2023.2.3,Win32,60.60606060606061,,,,,,1617.4222000000475,187.0,6.0,1617.4222000000475,187.0,,,,1620.7719000000952,1621.2708000001903,1620.255,1620.7719000000952,1618.4217000000476,1620.2549000000952,1621.2708000001903,1621.7707000000476,1621.7707000000476,1624.1213000001906,2083.0,1624.1214000000953,5.0,1624.1214000000953,6.0,23.0,203.0,5.0,1.0,0.8,0.7,Time
,,S13,1,female,21,anonymized,Serial_Dependence_U,2023.2.3,Win32,60.60606060606061,,,,,,1624.1217000000474,161.0,6.0,1624.1217000000474,161.0,,,,1627.5048000001907,1628.004,1626.9883000001903,1627.5048000001907,1625.1215,1626.9883000001903,1628.004100000143,1628.504,1628.504,1630.4548000001903,1550.0,1630.4548000001903,5.0,1630.4549000000952,6.0,24.0,204.0,20.0,1.0,0.8,0.3,Time
,,S13,1,female,21,anonymized,Serial_Dependence_U,2023.2.3,Win32,60.60606060606061,,,,,,1630.455100000143,26.0,6.0,1630.455100000143,26.0,,,,1634.4047000000476,1634.9039000000953,1633.8883000001906,1634.4047000000476,1631.455100000143,1633.8883000001906,1634.9039000000953,1635.4037000000476,1635.4038000001906,1638.5552000000475,2717.0,1638.5552000000475,5.0,1638.5554000000952,6.0,25.0,205.0,28.0,1.0,1.4,0.7,Time
,,S13,1,female,21,anonymized,Serial_Dependence_U,2023.2.3,Win32,60.60606060606061,,,,,,1638.555600000143,328.0,6.0,1638.5557000000476,328.0,,,,1641.9379000000952,1642.4372000000476,1641.4218000001906,1641.9379000000952,1639.5549000000951,1641.4217000000476,1642.4372000000476,1642.9372000000476,1642.9372000000476,1644.8386000001428,1550.0,1644.8386000001428,5.0,1644.8388000001903,6.0,26.0,206.0,0.0,1.0,0.8,0.3,Time
,,S13,1,female,21,anonymized,Serial_Dependence_U,2023.2.3,Win32,60.60606060606061,,,,,,1644.8389000000952,17.0,6.0,1644.839,17.0,,,,1649.0214000000951,1649.5204000000952,1648.5049000000952,1649.0213000001906,1645.838100000143,1648.5048000001907,1649.5204000000952,1650.0205,1650.0205,1652.4715,2083.0,1652.4715,5.0,1652.4716000001429,6.0,27.0,207.0,4.0,1.0,1.6,0.3,Time
,,S13,1,female,21,anonymized,Serial_Dependence_U,2023.2.3,Win32,60.60606060606061,,,,,,1652.4717000000476,253.0,6.0,1652.4718000001906,253.0,,,,1655.8213000001906,1656.320100000143,1655.3049999999998,1655.8212000000476,1653.4714000000952,1655.3049999999998,1656.320100000143,1656.8202000000476,1656.8203000001906,1659.387400000095,2282.0,1659.387400000095,5.0,1659.3876000001428,6.0,28.0,208.0,15.0,1.0,0.8,0.7,Time
,,S13,1,female,21,anonymized,Serial_Dependence_U,2023.2.3,Win32,60.60606060606061,,,,,,1659.3877000000475,46.0,6.0,1659.3878000001905,46.0,,,,1663.1379000000952,1663.637,1662.6212000000476,1663.1378000001905,1660.3877000000475,1662.6211000001429,1663.637,1664.1369000000952,1664.1369000000952,1666.4883000001903,2000.0,1666.4883000001903,5.0,1666.4884000000952,6.0,29.0,209.0,7.0,1.0,1.2,0.7,Time
,,S13,1,female,21,anonymized,Serial_Dependence_U,2023.2.3,Win32,60.60606060606061,,,,,,1666.488600000143,313.0,7.0,1704.5036000001428,313.0,s,37.9997999999523,,1708.254,1708.752,1707.7369000000951,1708.254,1705.5039000000952,1707.7369000000951,1708.752,1709.2528000001903,1709.2528000001903,1711.6211000001429,2050.0,1711.6211000001429,5.0,1711.6212000000476,7.0,0.0,210.0,7.0,1.0,1.2,0.7,Time
,,S13,1,female,21,anonymized,Serial_Dependence_U,2023.2.3,Win32,60.60606060606061,,,,,,1711.6214000000953,216.0,7.0,1711.6221000001428,216.0,,,,1715.570100000143,1716.069,1715.0532000000476,1715.57,1712.620600000143,1715.0531000001429,1716.069,1716.5688000001903,1716.5689000000953,1718.5876000001429,1717.0,1718.5877000000476,4.0,1718.5878000001906,7.0,1.0,211.0,18.0,1.0,1.4,0.7,Time
,,S13,1,female,21,anonymized,Serial_Dependence_U,2023.2.3,Win32,60.60606060606061,,,,,,1718.588,354.0,7.0,1718.588100000143,354.0,,,,1722.3701000001429,1722.8692000000476,1721.853900000095,1722.37,1719.5869000000953,1721.8538000001906,1722.8692000000476,1723.3692000000476,1723.3692000000476,1725.4699999999998,1716.0,1725.470100000143,5.0,1725.470100000143,7.0,2.0,212.0,22.0,1.0,1.2,0.3,Time
,,S13,1,female,21,anonymized,Serial_Dependence_U,2023.2.3,Win32,60.60606060606061,,,,,,1725.4702000000475,38.0,7.0,1725.4703000001905,38.0,,,,1729.070100000143,1729.5693000001909,1728.5534999999998,1729.070100000143,1726.486800000191,1728.5534000000953,1729.5693000001909,1730.0689000000953,1730.069,1731.5199000000953,1217.0,1731.5199000000953,4.0,1731.5199999999998,7.0,3.0,213.0,21.0,1.0,1.0,0.3,Time
,,S13,1,female,21,anonymized,Serial_Dependence_U,2023.2.3,Win32,60.60606060606061,,,,,,1731.5202000000477,328.0,7.0,1731.5202000000477,328.0,,,,1734.9034000000952,1735.4021000001428,1734.3866000001428,1734.9033000001905,1732.5199999999998,1734.3864999999998,1735.4022000000475,1735.9023000001905,1735.9023000001905,1737.4367000000475,1133.0,1737.4367000000475,5.0,1737.4368000001905,7.0,4.0,214.0,20.0,1.0,0.8,0.3,Time
,,S13,1,female,21,anonymized,Serial_Dependence_U,2023.2.3,Win32,60.60606060606061,,,,,,1737.4369000000952,221.0,7.0,1737.437,221.0,,,,1740.786600000143,1741.2853000001903,1740.2698000001906,1740.7865,1738.436600000143,1740.2697000000476,1741.2853000001903,1741.7854000000953,1741.7854000000953,1743.9364999999998,1783.0,1743.9364999999998,5.0,1743.936600000143,7.0,5.0,215.0,5.0,1.0,0.8,0.7,Time
,,S13,1,female,21,anonymized,Serial_Dependence_U,2023.2.3,Win32,60.60606060606061,,,,,,1743.9367000000475,123.0,7.0,1743.9368000001905,123.0,,,,1747.8868000001903,1748.3855,1747.3697000000475,1747.8867000000475,1744.9363000001906,1747.3697000000475,1748.3855,1748.8857000000476,1748.8857000000476,1751.1198000001905,1866.0,1751.1198000001905,5.0,1751.12,7.0,6.0,216.0,28.0,1.0,1.4,0.7,Time
,,S13,1,female,21,anonymized,Serial_Dependence_U,2023.2.3,Win32,60.60606060606061,,,,,,1751.1201000001429,145.0,7.0,1751.1202000000476,145.0,,,,1755.303,1755.802,1754.7863000001903,1755.3029000000952,1752.119600000143,1754.7863000001903,1755.802100000143,1756.3019000000952,1756.302,1758.4194000000953,1749.0,1758.4194000000953,4.0,1758.4194999999995,7.0,7.0,217.0,24.0,1.0,1.6,0.3,Time
,,S13,1,female,21,anonymized,Serial_Dependence_U,2023.2.3,Win32,60.60606060606061,,,,,,1758.4197000000474,153.0,7.0,1758.419800000191,153.0,,,,1762.5694000000951,1763.0686000001429,1762.0528000001907,1762.5694000000951,1759.419600000143,1762.0528000001907,1763.0686000001429,1763.5686000001429,1763.5686000001429,1766.2023000001907,2199.0,1766.2024000000952,5.0,1766.2025,7.0,8.0,218.0,19.0,1.0,1.6,0.7,Time
,,S13,1,female,21,anonymized,Serial_Dependence_U,2023.2.3,Win32,60.60606060606061,,,,,,1766.2026000001429,266.0,7.0,1766.2027000000476,266.0,,,,1770.186100000143,1770.685,1769.6694000000953,1770.186100000143,1767.2027000000476,1769.6693000001906,1770.685,1771.1852000000476,1771.1852000000476,1773.2024000000952,1716.0,1773.2024000000952,4.0,1773.2025,7.0,9.0,219.0,3.0,1.0,1.4,0.3,Time
,,S13,1,female,21,anonymized,Serial_Dependence_U,2023.2.3,Win32,60.60606060606061,,,,,,1773.2026000001429,175.0,7.0,1773.2027000000476,175.0,,,,1776.7859000000951,1777.284600000143,1776.269100000143,1776.7859000000951,1774.2025,1776.269100000143,1777.284600000143,1777.784800000191,1777.7849000000951,1779.8024000000953,1700.0,1779.8024000000953,5.0,1779.8024999999998,7.0,10.0,220.0,11.0,1.0,1.0,0.3,Time
,,S13,1,female,21,anonymized,Serial_Dependence_U,2023.2.3,Win32,60.60606060606061,,,,,,1779.8027000000477,22.0,7.0,1779.8027000000477,22.0,,,,1783.1524000000952,1783.6514000000952,1782.6359000000953,1783.1524000000952,1780.8024999999998,1782.6358000001906,1783.6514000000952,1784.1513000001903,1784.1513000001903,1786.2027000000476,1683.0,1786.2027000000476,5.0,1786.2028000001906,7.0,11.0,221.0,15.0,1.0,0.8,0.7,Time
,,S13,1,female,21,anonymized,Serial_Dependence_U,2023.2.3,Win32,60.60606060606061,,,,,,1786.2029000000953,85.0,7.0,1786.2029999999995,85.0,,,,1789.9524000000952,1790.4515,1789.4357000000475,1789.9523000001907,1787.2023000001907,1789.4357000000475,1790.4515,1790.9517000000476,1790.9517000000476,1793.7853000001903,2449.0,1793.7853000001903,5.0,1793.7854000000953,7.0,12.0,222.0,17.0,1.0,1.2,0.7,Time
,,S13,1,female,21,anonymized,Serial_Dependence_U,2023.2.3,Win32,60.60606060606061,,,,,,1793.785600000143,31.0,7.0,1793.785600000143,31.0,,,,1797.569100000143,1798.0678000001906,1797.0524000000953,1797.569,1794.785600000143,1797.0524000000953,1798.0678000001906,1798.5678000001906,1798.5678000001906,1800.4192000000476,1517.0,1800.4192000000476,4.0,1800.4193000001906,7.0,13.0,223.0,2.0,1.0,1.2,0.3,Time
,,S13,1,female,21,anonymized,Serial_Dependence_U,2023.2.3,Win32,60.60606060606061,,,,,,1800.4194000000953,180.0,7.0,1800.4194999999995,180.0,,,,1804.6021000001429,1805.101200000048,1804.0855,1804.602,1801.4187000000477,1804.0855,1805.101200000048,1805.6011000001429,1805.6011000001429,1808.2517000000475,2300.0,1808.2517000000475,5.0,1808.2518000001903,7.0,14.0,224.0,4.0,1.0,1.6,0.3,Time
,,S13,1,female,21,anonymized,Serial_Dependence_U,2023.2.3,Win32,60.60606060606061,,,,,,1808.2519000000952,212.0,7.0,1808.252,212.0,,,,1812.401900000095,1812.9009000000951,1811.8858000001903,1812.401900000095,1809.252,1811.8858000001903,1812.9009000000951,1813.401,1813.4011000001428,1815.835600000143,2117.0,1815.835600000143,5.0,1815.835600000143,7.0,15.0,225.0,29.0,1.0,1.6,0.7,Time
,,S13,1,female,21,anonymized,Serial_Dependence_U,2023.2.3,Win32,60.60606060606061,,,,,,1815.8358000001904,106.0,7.0,1815.8359000000955,106.0,,,,1819.218600000143,1819.7175,1818.7019000000955,1819.218600000143,1816.8354000000952,1818.7018000001904,1819.7175,1820.2175,1820.2175,1821.9015,1383.0,1821.9015,5.0,1821.901700000048,7.0,16.0,226.0,10.0,1.0,0.8,0.3,Time
,,S13,1,female,21,anonymized,Serial_Dependence_U,2023.2.3,Win32,60.60606060606061,,,,,,1821.9018000001904,209.0,7.0,1821.901900000095,209.0,,,,1825.4518000001904,1825.951100000143,1824.935,1825.4518000001904,1822.9018000001904,1824.9349000000952,1825.951100000143,1826.4509000000955,1826.451,1828.3854000000952,1684.0,1828.3854000000952,5.0,1828.3855,7.0,17.0,227.0,26.0,1.0,1.0,0.7,Time
,,S13,1,female,21,anonymized,Serial_Dependence_U,2023.2.3,Win32,60.60606060606061,,,,,,1828.3858000001903,4.0,7.0,1828.3858000001903,4.0,,,,1832.5349000000951,1833.0338000001907,1832.0181000001428,1832.534800000191,1829.3848000001904,1832.0181000001428,1833.0339000000952,1833.534,1833.534,1835.735,1767.0,1835.735,4.0,1835.735100000143,7.0,18.0,228.0,9.0,1.0,1.6,0.7,Time
,,S13,1,female,21,anonymized,Serial_Dependence_U,2023.2.3,Win32,60.60606060606061,,,,,,1835.7353000001904,59.0,7.0,1835.7353000001904,59.0,,,,1839.7179000000951,1840.217200000048,1839.2015,1839.717800000191,1836.7348000001905,1839.2014000000952,1840.217200000048,1840.7173000001903,1840.7174000000955,1842.435,1366.0,1842.435,3.0,1842.435100000143,7.0,19.0,229.0,13.0,1.0,1.4,0.3,Time
,,S13,1,female,21,anonymized,Serial_Dependence_U,2023.2.3,Win32,60.60606060606061,,,,,,1842.435200000048,152.0,7.0,1842.4354000000951,152.0,,,,1846.1846000001428,1846.6836000001429,1845.6683000001904,1846.1846000001428,1843.4349000000952,1845.668200000048,1846.683700000048,1847.183700000048,1847.183700000048,1849.1013000001903,1583.0,1849.1013000001903,5.0,1849.1014000000955,7.0,20.0,230.0,27.0,1.0,1.2,0.7,Time
,,S13,1,female,21,anonymized,Serial_Dependence_U,2023.2.3,Win32,60.60606060606061,,,,,,1849.1015,324.0,7.0,1849.1017000000477,324.0,,,,1853.2844000000955,1853.7838000001907,1852.7678000001904,1853.2843000001903,1850.1009000000952,1852.7678000001904,1853.7838000001907,1854.2837000000477,1854.2838000001907,1856.4012000000475,1783.0,1856.4013000001903,4.0,1856.4014000000952,7.0,21.0,231.0,14.0,1.0,1.6,0.3,Time
,,S13,1,female,21,anonymized,Serial_Dependence_U,2023.2.3,Win32,60.60606060606061,,,,,,1856.4015,297.0,7.0,1856.401600000143,297.0,,,,1859.7844000000955,1860.2834000000955,1859.2678000001904,1859.7843000001903,1857.401,1859.2678000001904,1860.2835,1860.7835,1860.7835,1862.6014000000955,1333.0,1862.6014000000955,5.0,1862.6015,7.0,22.0,232.0,0.0,1.0,0.8,0.3,Time
,,S13,1,female,21,anonymized,Serial_Dependence_U,2023.2.3,Win32,60.60606060606061,,,,,,1862.6017000000477,321.0,7.0,1862.6017000000477,321.0,,,,1866.551100000143,1867.050200000048,1866.034600000143,1866.551100000143,1863.601,1866.0344000000955,1867.0503000001904,1867.5503000001904,1867.5503000001904,1869.784600000143,1733.0,1869.784600000143,4.0,1869.7847000000477,7.0,23.0,233.0,8.0,1.0,1.4,0.7,Time
,,S13,1,female,21,anonymized,Serial_Dependence_U,2023.2.3,Win32,60.60606060606061,,,,,,1869.7849000000951,3.0,7.0,1869.7849000000951,3.0,,,,1873.3342000000475,1873.8333000001903,1872.8178000001903,1873.3342000000475,1870.7841000001429,1872.8178000001903,1873.8333000001903,1874.3331000001428,1874.333200000048,1875.8345,1100.0,1875.8345,4.0,1875.834600000143,7.0,24.0,234.0,16.0,1.0,1.0,0.7,Time
,,S13,1,female,21,anonymized,Serial_Dependence_U,2023.2.3,Win32,60.60606060606061,,,,,,1875.8348000001904,141.0,7.0,1875.8348000001904,141.0,,,,1879.184100000143,1879.683,1878.667600000143,1879.184,1876.8342000000475,1878.667600000143,1879.683,1880.183300000191,1880.183300000191,1882.2343000001904,1483.0,1882.2343000001904,5.0,1882.2344000000955,7.0,25.0,235.0,25.0,1.0,0.8,0.7,Time
,,S13,1,female,21,anonymized,Serial_Dependence_U,2023.2.3,Win32,60.60606060606061,,,,,,1882.234600000143,91.0,7.0,1882.2347000000475,91.0,,,,1885.8175,1886.3165,1885.3008000001903,1885.8174000000952,1883.2338000001905,1885.3007000000475,1886.3165,1886.8164000000952,1886.8164000000952,1888.5678000001903,1383.0,1888.5678000001903,5.0,1888.5679000000955,7.0,26.0,236.0,1.0,1.0,1.0,0.3,Time
,,S13,1,female,21,anonymized,Serial_Dependence_U,2023.2.3,Win32,60.60606060606061,,,,,,1888.568,299.0,7.0,1888.568100000143,299.0,,,,1892.350600000143,1892.8497000000475,1891.8341000001428,1892.3505,1889.5674000000952,1891.8341000001428,1892.8498000001905,1893.3498000001905,1893.3499000000952,1894.6503000001903,916.0,1894.6503000001903,2.0,1894.6504000000955,7.0,27.0,237.0,12.0,1.0,1.2,0.3,Time
,,S13,1,female,21,anonymized,Serial_Dependence_U,2023.2.3,Win32,60.60606060606061,,,,,,1894.6505,320.0,7.0,1894.6507000000477,320.0,,,,1898.6338000001904,1899.133,1898.1173000001909,1898.6338000001904,1895.6505,1898.1172000000477,1899.133,1899.6329000000956,1899.6329000000956,1901.3673000001909,1350.0,1901.3674000000951,3.0,1901.3675,7.0,28.0,238.0,23.0,1.0,1.4,0.3,Time
,,S13,1,female,21,anonymized,Serial_Dependence_U,2023.2.3,Win32,60.60606060606061,,,,,,1901.3677000000475,284.0,7.0,1901.3677000000475,284.0,,,,1904.917100000143,1905.4159000000952,1904.4005,1904.917100000143,1902.3673000001909,1904.4005,1905.4159000000952,1905.916,1905.916100000143,1907.9502000000475,1600.0,1907.9502000000475,5.0,1907.9504000000952,7.0,29.0,239.0,6.0,1.0,1.0,0.7,Time
,,S13,1,female,21,anonymized,Serial_Dependence_U,2023.2.3,Win32,60.60606060606061,,,,,,1907.9505,76.0,8.0,1916.833200000048,76.0,s,8.866399999856867,,1920.6169000000957,1921.1159000000955,1920.1003000001904,1920.6169000000957,1917.8335,1920.1003000001904,1921.1159000000955,1921.6159000000955,1921.616,1923.6169000000957,1667.0,1923.6169000000957,5.0,1923.617100000143,8.0,0.0,240.0,12.0,1.0,1.2,0.3,Time
,,S13,1,female,21,anonymized,Serial_Dependence_U,2023.2.3,Win32,60.60606060606061,,,,,,1923.6172000000477,73.0,8.0,1923.6179000000952,73.0,,,,1927.199900000095,1927.6992000000475,1926.6832000000477,1927.1998000001904,1924.6168000001903,1926.683100000143,1927.6992000000475,1928.1991000001428,1928.1991000001428,1930.0169000000951,1533.0,1930.0169000000951,5.0,1930.017,8.0,1.0,241.0,11.0,1.0,1.0,0.3,Time
,,S13,1,female,21,anonymized,Serial_Dependence_U,2023.2.3,Win32,60.60606060606061,,,,,,1930.0171000001428,327.0,8.0,1930.0172000000475,327.0,,,,1933.9998000001904,1934.499,1933.4835,1933.999700000048,1931.017,1933.4834000000951,1934.499,1934.999100000143,1934.999100000143,1936.9165,1449.0,1936.9165,3.0,1936.9166000001428,8.0,2.0,242.0,23.0,1.0,1.4,0.3,Time
,,S13,1,female,21,anonymized,Serial_Dependence_U,2023.2.3,Win32,60.60606060606061,,,,,,1936.9168000001905,60.0,8.0,1936.9168000001905,60.0,,,,1940.4999000000955,1940.998700000048,1939.9833000001904,1940.4999000000955,1937.9165,1939.983100000143,1940.9988000001904,1941.499,1941.499,1943.5837000000477,1634.0,1943.5838000001904,5.0,1943.584,8.0,3.0,243.0,1.0,1.0,1.0,0.3,Time
,,S13,1,female,21,anonymized,Serial_Dependence_U,2023.2.3,Win32,60.60606060606061,,,,,,1943.584,178.0,8.0,1943.5841000001428,178.0,,,,1947.133,1947.6322000000475,1946.6166000001429,1947.133,1944.5831000001428,1946.6165,1947.6322000000475,1948.1319000000951,1948.132,1950.0662000000475,1550.0,1950.0663000001905,5.0,1950.0664000000952,8.0,4.0,244.0,16.0,1.0,1.0,0.7,Time
,,S13,1,female,21,anonymized,Serial_Dependence_U,2023.2.3,Win32,60.60606060606061,,,,,,1950.0665,300.0,8.0,1950.066600000143,300.0,,,,1954.2164000000955,1954.7155,1953.6998000001904,1954.2164000000955,1951.0665,1953.699700000048,1954.7155,1955.2158000001905,1955.2158000001905,1957.3162000000475,1800.0,1957.3162000000475,4.0,1957.3163000001905,8.0,5.0,245.0,19.0,1.0,1.6,0.7,Time
,,S13,1,female,21,anonymized,Serial_Dependence_U,2023.2.3,Win32,60.60606060606061,,,,,,1957.3164000000952,251.0,8.0,1957.3165,251.0,,,,1960.699600000143,1961.1985,1960.183100000143,1960.699600000143,1958.3163000001905,1960.183100000143,1961.1985,1961.6987000000477,1961.6987000000477,1963.2825,1249.0,1963.2825,5.0,1963.282600000143,8.0,6.0,246.0,10.0,1.0,0.8,0.3,Time
,,S13,1,female,21,anonymized,Serial_Dependence_U,2023.2.3,Win32,60.60606060606061,,,,,,1963.2828000001905,160.0,8.0,1963.2828000001905,160.0,,,,1966.666,1967.1652000000477,1966.1493000001904,1966.666,1964.282600000143,1966.1493000001904,1967.1653000001909,1967.6652000000477,1967.6652000000477,1968.9329000000955,933.0,1968.9329000000955,4.0,1968.933100000143,8.0,7.0,247.0,0.0,1.0,0.8,0.3,Time
,,S13,1,female,21,anonymized,Serial_Dependence_U,2023.2.3,Win32,60.60606060606061,,,,,,1968.9332000000477,263.0,8.0,1968.933300000191,263.0,,,,1972.6828000001908,1973.181700000048,1972.166200000048,1972.6827000000476,1969.9326000001429,1972.166200000048,1973.1818000001904,1973.6818000001904,1973.6818000001904,1975.899400000095,1717.0,1975.8995,5.0,1975.8996000001428,8.0,8.0,248.0,7.0,1.0,1.2,0.7,Time
,,S13,1,female,21,anonymized,Serial_Dependence_U,2023.2.3,Win32,60.60606060606061,,,,,,1975.8997000000477,73.0,8.0,1975.8998000001905,73.0,,,,1980.0826000001427,1980.5815,1979.566,1980.0826000001427,1976.8992000000476,1979.5659000000956,1980.5815,1981.081600000143,1981.081700000048,1983.0993000001904,1550.0,1983.0994000000956,3.0,1983.0995,8.0,9.0,249.0,14.0,1.0,1.6,0.3,Time
,,S13,1,female,21,anonymized,Serial_Dependence_U,2023.2.3,Win32,60.60606060606061,,,,,,1983.099600000143,347.0,8.0,1983.099700000048,347.0,,,,1987.249200000048,1987.7481000001428,1986.7322000000477,1987.249100000143,1984.099100000143,1986.7322000000477,1987.7481000001428,1988.248,1988.2481000001428,1990.3326000001427,1750.0,1990.3326000001427,4.0,1990.3327000000477,8.0,10.0,250.0,29.0,1.0,1.6,0.7,Time
,,S13,1,female,21,anonymized,Serial_Dependence_U,2023.2.3,Win32,60.60606060606061,,,,,,1990.3329000000952,78.0,8.0,1990.3329000000952,78.0,,,,1994.0823000001908,1994.581200000048,1993.565700000048,1994.0823000001908,1991.332400000095,1993.565700000048,1994.581200000048,1995.081200000048,1995.0813000001904,1997.2161000001431,1700.0,1997.2162000000476,5.0,1997.2163000001908,8.0,11.0,251.0,27.0,1.0,1.2,0.7,Time
,,S13,1,female,21,anonymized,Serial_Dependence_U,2023.2.3,Win32,60.60606060606061,,,,,,1997.2165,186.0,8.0,1997.2166000001428,186.0,,,,2001.399100000143,2001.8979000000952,2000.8822000000475,2001.399100000143,1998.2155,2000.8822000000475,2001.898,2002.3976000001428,2002.3976000001428,2004.5659000000956,1650.0,2004.5659000000956,3.0,2004.566100000143,8.0,12.0,252.0,24.0,1.0,1.6,0.3,Time
