Scale_setup.started,Scale_setup.stopped,participant,session,sex,age,date,expName,psychopyVersion,OS,frameRate,Intro.started,Intro.stopped,key_resp_2.keys,key_resp_2.rt,key_resp_2.duration,block.started,direction,Block_id,block.stopped,trial_direction,Block_resp_2.keys,Block_resp_2.rt,Block_resp_2.duration,ITI.started,ITI.stopped,Mask_2.started,Mask_2.stopped,encoding.started,encoding.stopped,Cue.started,Cue.stopped,Response.started,Response.stopped,keyDuration,Feedback_Time.started,FeedbackID_T,Feedback_Time.stopped,trials.thisRepN,trials.thisTrialN,trials.thisN,trials.thisIndex,trials.ran,TimeDur,Coherence1,TrialType
0.0002000000001878,0.0004000000003721,S14,1,,,anonymized,Serial_Dependence_U,2023.2.3,Win32,59.88023952096852,,,,,,,,,,,,,,,,,,,,,,,,,,,,,,,,,,,
,,S14,1,,,anonymized,Serial_Dependence_U,2023.2.3,Win32,59.88023952096852,3.149400000000373,4.591299999999816,space,1.411099999999628,,,,,,,,,,,,,,,,,,,,,,,,,,,,,,,
,,S14,1,,,anonymized,Serial_Dependence_U,2023.2.3,Win32,59.88023952096852,,,,,,4.600799999999815,9.0,0.0,7.656600000000559,9.0,s,3.0370000000000026,,11.2225,11.721700000000189,10.70660000000056,11.222299999999812,8.673900000000373,10.706500000000002,11.721900000000373,12.221700000000189,12.221900000000373,14.604799999999813,751.0,14.605100000000562,2.0,15.60460000000056,0.0,0.0,0.0,26.0,1.0,1.0,0.7,Time
,,S14,1,,,anonymized,Serial_Dependence_U,2023.2.3,Win32,59.88023952096852,,,,,,15.6055,209.0,0.0,15.609799999999815,209.0,,,,19.569200000000187,20.0685,19.052700000000183,19.56910000000056,16.62110000000056,19.05260000000056,20.0685,20.568299999999816,20.568400000000373,21.30179999999981,618.0,21.30179999999981,1.0,22.30110000000056,0.0,1.0,1.0,28.0,1.0,1.4,0.7,Time
,,S14,1,,,anonymized,Serial_Dependence_U,2023.2.3,Win32,59.88023952096852,,,,,,22.3015,131.0,0.0,22.30170000000019,131.0,,,,25.852,26.3495,25.35040000000037,25.85179999999981,23.317700000000187,25.350200000000186,26.34960000000056,26.84929999999981,26.84929999999981,28.284200000000183,394.0,28.284299999999817,1.0,29.281700000000185,0.0,2.0,2.0,6.0,1.0,1.0,0.7,Time
,,S14,1,,,anonymized,Serial_Dependence_U,2023.2.3,Win32,59.88023952096852,,,,,,29.28210000000056,182.0,0.0,29.282200000000188,182.0,,,,33.08079999999981,33.58,32.564400000000376,33.080700000000185,30.299799999999813,32.56429999999981,33.58010000000056,34.080400000000374,34.0805,35.812900000000376,735.0,35.813,1.0,36.81220000000019,0.0,3.0,3.0,12.0,1.0,1.2,0.3,Time
,,S14,1,,,anonymized,Serial_Dependence_U,2023.2.3,Win32,59.88023952096852,,,,,,36.81260000000056,331.0,0.0,36.81270000000018,331.0,,,,40.4115,40.91070000000018,39.89479999999981,40.41129999999981,37.82890000000037,39.89460000000056,40.91070000000018,41.41040000000037,41.4105,42.46040000000037,626.0,42.4605,1.0,43.45990000000037,0.0,4.0,4.0,21.0,1.0,1.0,0.3,Time
,,S14,1,,,anonymized,Serial_Dependence_U,2023.2.3,Win32,59.88023952096852,,,,,,43.46029999999981,357.0,0.0,43.4605,357.0,,,,47.22629999999981,47.72670000000018,46.70890000000037,47.22629999999981,44.4765,46.70890000000037,47.72670000000018,48.22470000000018,48.22470000000018,50.10760000000055,805.0,50.10770000000018,1.0,51.10679999999981,0.0,5.0,5.0,7.0,1.0,1.2,0.7,Time
,,S14,1,,,anonymized,Serial_Dependence_U,2023.2.3,Win32,59.88023952096852,,,,,,51.10720000000018,14.0,0.0,51.10729999999981,14.0,,,,55.3055,55.80520000000018,54.79010000000055,55.3055,52.12340000000036,54.7897999999998,55.80520000000018,56.3047999999998,56.30490000000036,58.10510000000055,919.0,58.10520000000018,1.0,59.103700000000174,0.0,6.0,6.0,14.0,1.0,1.6,0.3,Time
,,S14,1,,,anonymized,Serial_Dependence_U,2023.2.3,Win32,59.88023952096852,,,,,,59.104200000000176,328.0,0.0,59.10449999999999,328.0,,,,63.08610000000056,63.58579999999981,62.56990000000036,63.085900000000365,60.10490000000037,62.5697999999998,63.58579999999981,64.08579999999981,64.08579999999981,65.85210000000055,1296.0,65.85210000000055,2.0,66.85079999999981,0.0,7.0,7.0,13.0,1.0,1.4,0.3,Time
,,S14,1,,,anonymized,Serial_Dependence_U,2023.2.3,Win32,59.88023952096852,,,,,,66.85110000000056,108.0,0.0,66.85129999999981,108.0,,,,70.23760000000055,70.73940000000036,69.72420000000018,70.23740000000036,67.85190000000037,69.72410000000055,70.73940000000036,71.23899999999999,71.23899999999999,72.68970000000017,1133.0,72.6897999999998,5.0,73.68860000000055,0.0,8.0,8.0,10.0,1.0,0.8,0.3,Time
,,S14,1,,,anonymized,Serial_Dependence_U,2023.2.3,Win32,59.88023952096852,,,,,,73.6887999999998,63.0,0.0,73.68890000000036,63.0,,,,77.485,77.987,76.97140000000037,77.48490000000037,74.70249999999999,76.9712999999998,77.987,78.48610000000055,78.48610000000055,79.71449999999999,1189.0,79.71479999999981,3.0,80.70249999999999,0.0,9.0,9.0,22.0,1.0,1.2,0.3,Time
,,S14,1,,,anonymized,Serial_Dependence_U,2023.2.3,Win32,59.88023952096852,,,,,,80.70270000000018,329.0,0.0,80.70279999999981,329.0,,,,84.68540000000037,85.1797999999998,84.16820000000018,84.68529999999981,81.70310000000055,84.16810000000055,85.17990000000036,85.68390000000036,85.684,86.4015,228.0,86.40160000000056,1.0,87.39310000000056,0.0,10.0,10.0,3.0,1.0,1.4,0.3,Time
,,S14,1,,,anonymized,Serial_Dependence_U,2023.2.3,Win32,59.88023952096852,,,,,,87.39410000000055,257.0,0.0,87.39470000000019,257.0,,,,91.18270000000018,91.6747000000002,90.66720000000018,91.18260000000056,88.4165,90.667,91.6747000000002,92.16420000000018,92.16420000000018,93.43220000000018,1125.0,93.4322999999998,2.0,94.42370000000018,0.0,11.0,11.0,17.0,1.0,1.2,0.7,Time
,,S14,1,,,anonymized,Serial_Dependence_U,2023.2.3,Win32,59.88023952096852,,,,,,94.425,222.0,0.0,94.4262999999998,222.0,,,,98.04090000000036,98.5387999999998,97.5297999999998,98.04040000000036,95.44790000000036,97.52970000000018,98.53890000000035,99.029,99.02910000000055,100.7787999999998,1500.0,100.77890000000036,5.0,101.771,0.0,12.0,12.0,11.0,1.0,1.0,0.3,Time
,,S14,1,,,anonymized,Serial_Dependence_U,2023.2.3,Win32,59.88023952096852,,,,,,101.7712999999998,275.0,0.0,101.77160000000056,275.0,,,,105.76990000000036,106.2692999999998,105.25340000000035,105.76990000000036,102.78760000000057,105.2532999999998,106.2692999999998,106.769,106.769,108.5352999999998,1317.0,108.5355,2.0,109.53490000000036,0.0,13.0,13.0,23.0,1.0,1.4,0.3,Time
,,S14,1,,,anonymized,Serial_Dependence_U,2023.2.3,Win32,59.88023952096852,,,,,,109.53510000000055,347.0,0.0,109.53520000000016,347.0,,,,113.33420000000018,113.83379999999984,112.81720000000018,113.334,110.55129999999984,112.81710000000058,113.83390000000036,114.33279999999982,114.33279999999982,116.299,1441.0,116.29910000000058,4.0,117.3065,0.0,14.0,14.0,2.0,1.0,1.2,0.3,Time
,,S14,1,,,anonymized,Serial_Dependence_U,2023.2.3,Win32,59.88023952096852,,,,,,117.30710000000056,25.0,0.0,117.30729999999984,25.0,,,,121.26510000000056,121.75329999999984,120.75529999999983,121.2647000000002,118.3224000000004,120.7552000000002,121.75329999999984,122.24690000000038,122.24710000000056,124.3812000000002,1735.0,124.38160000000056,4.0,125.36910000000056,0.0,15.0,15.0,8.0,1.0,1.4,0.7,Time
,,S14,1,,,anonymized,Serial_Dependence_U,2023.2.3,Win32,59.88023952096852,,,,,,125.36940000000038,267.0,0.0,125.36940000000038,267.0,,,,129.52860000000058,130.0175,129.018,129.5282000000002,126.37029999999982,129.01790000000037,130.0175,130.5169000000004,130.5169000000004,131.1342000000002,233.0,131.1342000000002,1.0,132.1332000000002,0.0,16.0,16.0,19.0,1.0,1.6,0.7,Time
,,S14,1,,,anonymized,Serial_Dependence_U,2023.2.3,Win32,59.88023952096852,,,,,,132.1337000000002,252.0,0.0,132.1337999999998,252.0,,,,135.8987000000002,136.39179999999982,135.38310000000055,135.89860000000056,133.14479999999983,135.383,136.3919000000004,136.89779999999982,136.8979000000004,138.89779999999982,1515.0,138.89779999999982,4.0,139.89100000000002,0.0,17.0,17.0,27.0,1.0,1.2,0.7,Time
,,S14,1,,,anonymized,Serial_Dependence_U,2023.2.3,Win32,59.88023952096852,,,,,,139.89260000000056,254.0,0.0,139.89290000000037,254.0,,,,143.45679999999982,143.96140000000037,142.94679999999985,143.45640000000037,140.89379999999983,142.9467000000002,143.96140000000037,144.46140000000037,144.46140000000037,146.5879000000004,1601.0,146.58840000000038,5.0,147.59160000000057,0.0,18.0,18.0,16.0,1.0,1.0,0.7,Time
,,S14,1,,,anonymized,Serial_Dependence_U,2023.2.3,Win32,59.88023952096852,,,,,,147.59190000000038,211.0,0.0,147.592,211.0,,,,151.78679999999983,152.27520000000018,151.2767000000002,151.78640000000038,148.61110000000056,151.2767000000002,152.27520000000018,152.77460000000056,152.7747000000002,154.65860000000058,1498.0,154.65860000000058,2.0,155.6505,0.0,19.0,19.0,4.0,1.0,1.6,0.3,Time
,,S14,1,,,anonymized,Serial_Dependence_U,2023.2.3,Win32,59.88023952096852,,,,,,155.65190000000038,196.0,0.0,155.65270000000018,196.0,,,,159.02390000000037,159.51570000000018,158.51760000000056,159.02379999999982,156.65129999999982,158.5172999999998,159.51570000000018,160.00510000000057,160.0052000000002,161.9897000000002,1532.0,161.9897000000002,5.0,162.98929999999982,0.0,20.0,20.0,0.0,1.0,0.8,0.3,Time
,,S14,1,,,anonymized,Serial_Dependence_U,2023.2.3,Win32,59.88023952096852,,,,,,162.98960000000056,196.0,0.0,162.9897000000002,196.0,,,,166.35440000000037,166.84729999999982,165.8379000000004,166.35429999999982,164.0049000000004,165.8379000000004,166.8474000000004,167.35410000000056,167.3542000000002,169.0695,1366.0,169.06960000000058,5.0,170.06210000000056,0.0,21.0,21.0,5.0,1.0,0.8,0.7,Time
,,S14,1,,,anonymized,Serial_Dependence_U,2023.2.3,Win32,59.88023952096852,,,,,,170.06340000000037,263.0,0.0,170.06410000000056,263.0,,,,173.41510000000056,173.91040000000038,172.90200000000002,173.41510000000056,171.0695,172.90190000000038,173.9107000000002,174.40090000000038,174.40090000000038,176.3509000000004,1566.0,176.3509000000004,5.0,177.3422000000002,0.0,22.0,22.0,15.0,1.0,0.8,0.7,Time
,,S14,1,,,anonymized,Serial_Dependence_U,2023.2.3,Win32,59.88023952096852,,,,,,177.34310000000056,81.0,0.0,177.34370000000018,81.0,,,,181.49229999999983,181.9969000000004,180.9789000000004,181.4917999999998,178.34329999999983,180.9789000000004,181.997,182.4975,182.49760000000057,184.69710000000055,1699.0,184.69720000000015,4.0,185.69710000000055,0.0,23.0,23.0,9.0,1.0,1.6,0.7,Time
,,S14,1,,,anonymized,Serial_Dependence_U,2023.2.3,Win32,59.88023952096852,,,,,,185.6974000000004,278.0,0.0,185.6975,278.0,,,,189.8889000000004,190.39429999999984,189.3782000000002,189.88860000000057,186.6962000000002,189.37810000000056,190.39429999999984,190.8935,190.8935,192.8442000000002,1567.0,192.84429999999983,3.0,193.83710000000056,0.0,24.0,24.0,24.0,1.0,1.6,0.3,Time
,,S14,1,,,anonymized,Serial_Dependence_U,2023.2.3,Win32,59.88023952096852,,,,,,193.8387000000002,250.0,0.0,193.839,250.0,,,,198.0084000000004,198.50710000000055,197.49229999999983,198.00829999999985,194.8599000000004,197.4922000000002,198.50720000000015,199.002,199.0022000000002,200.88429999999985,1786.0,200.88470000000015,4.0,201.8739000000004,0.0,25.0,25.0,29.0,1.0,1.6,0.7,Time
,,S14,1,,,anonymized,Serial_Dependence_U,2023.2.3,Win32,59.88023952096852,,,,,,201.8742000000002,174.0,0.0,201.87429999999983,174.0,,,,205.4664000000004,205.9714000000004,204.9582000000002,205.4659000000004,202.87310000000056,204.958,205.9715,206.46870000000015,206.46870000000015,208.5049000000004,1698.0,208.505,5.0,209.4967000000002,0.0,26.0,26.0,1.0,1.0,1.0,0.3,Time
,,S14,1,,,anonymized,Serial_Dependence_U,2023.2.3,Win32,59.88023952096852,,,,,,209.4982000000002,27.0,0.0,209.49929999999983,27.0,,,,212.89729999999983,213.4024000000004,212.3819000000004,212.8967999999998,210.51610000000056,212.38160000000056,213.4024000000004,213.9022000000002,213.9022000000002,215.616,1413.0,215.616,5.0,216.6107999999998,0.0,27.0,27.0,20.0,1.0,0.8,0.3,Time
,,S14,1,,,anonymized,Serial_Dependence_U,2023.2.3,Win32,59.88023952096852,,,,,,216.61160000000055,128.0,0.0,216.6122000000002,128.0,,,,220.56679999999983,221.0652999999998,220.06229999999985,220.5667000000002,217.6282000000002,220.0617000000002,221.0652999999998,221.56510000000057,221.56510000000057,223.5755,1889.0,223.5759000000004,5.0,224.582,0.0,28.0,28.0,18.0,1.0,1.4,0.7,Time
,,S14,1,,,anonymized,Serial_Dependence_U,2023.2.3,Win32,59.88023952096852,,,,,,224.5824000000004,147.0,0.0,224.5825,147.0,,,,227.9427000000002,228.43960000000052,227.4282999999998,227.94260000000057,225.5935,227.4282000000002,228.43960000000052,228.9299000000004,228.93,230.85629999999983,1369.0,230.85660000000053,5.0,231.84579999999983,0.0,29.0,29.0,25.0,1.0,0.8,0.7,Time
,,S14,1,,,anonymized,Serial_Dependence_U,2023.2.3,Win32,59.88023952096852,,,,,,231.84610000000055,176.0,1.0,258.36170000000016,176.0,s,26.49729999999977,,262.1289000000004,262.6266000000005,261.6184999999999,262.1284000000004,259.38570000000016,261.6184000000004,262.62670000000014,263.13360000000057,263.13360000000057,265.33079999999984,1546.0,265.33079999999984,4.0,265.331,1.0,0.0,30.0,7.0,1.0,1.2,0.7,Time
,,S14,1,,,anonymized,Serial_Dependence_U,2023.2.3,Win32,59.88023952096852,,,,,,265.3312999999998,156.0,1.0,265.3325,156.0,,,,269.29279999999983,269.7975,268.77599999999995,269.29229999999984,266.3434000000003,268.7756000000005,269.7975,270.29049999999995,270.29049999999995,272.66410000000053,1824.0,272.66410000000053,5.0,272.66440000000034,1.0,1.0,31.0,28.0,1.0,1.4,0.7,Time
,,S14,1,,,anonymized,Serial_Dependence_U,2023.2.3,Win32,59.88023952096852,,,,,,272.6647999999998,168.0,1.0,272.665,168.0,,,,276.05679999999984,276.562,275.5456000000005,276.05629999999974,273.674,275.54549999999995,276.56210000000056,277.05470000000014,277.05470000000014,280.1451000000005,2350.0,280.1451000000005,5.0,280.1452999999998,1.0,2.0,32.0,20.0,1.0,0.8,0.3,Time
,,S14,1,,,anonymized,Serial_Dependence_U,2023.2.3,Win32,59.88023952096852,,,,,,280.1455,317.0,1.0,280.14570000000015,317.0,,,,284.1262000000001,284.6184000000004,283.6102000000002,284.1262000000001,281.14360000000056,283.6102000000002,284.6184000000004,285.1079000000003,285.1079000000003,288.05870000000016,2319.0,288.05870000000016,5.0,288.05920000000015,1.0,3.0,33.0,23.0,1.0,1.4,0.3,Time
,,S14,1,,,anonymized,Serial_Dependence_U,2023.2.3,Win32,59.88023952096852,,,,,,288.0596000000005,53.0,1.0,288.05979999999977,53.0,,,,292.22349999999994,292.7154000000004,291.7067999999998,292.2234000000003,289.0717999999998,291.7067999999998,292.7155,293.2054000000004,293.2054000000004,296.2982000000002,2538.0,296.2985,5.0,296.3001000000005,1.0,4.0,34.0,19.0,1.0,1.6,0.7,Time
,,S14,1,,,anonymized,Serial_Dependence_U,2023.2.3,Win32,59.88023952096852,,,,,,296.3006000000005,305.0,1.0,296.3007999999997,305.0,,,,300.48140000000035,300.9789000000004,299.9709000000004,300.4807000000002,297.3042999999998,299.9707000000002,300.9789000000004,301.4686000000005,301.4687000000001,303.75199999999995,1882.0,303.7521000000005,4.0,303.75229999999976,1.0,5.0,35.0,14.0,1.0,1.6,0.3,Time
,,S14,1,,,anonymized,Serial_Dependence_U,2023.2.3,Win32,59.88023952096852,,,,,,303.75249999999994,103.0,1.0,303.7527000000001,103.0,,,,307.13460000000055,307.6331000000006,306.6181000000005,307.1344000000004,304.7521000000005,306.61799999999994,307.6331000000006,308.1295,308.1295,318.097,1749.0,318.097,5.0,318.0972999999998,1.0,6.0,36.0,10.0,1.0,0.8,0.3,Time
,,S14,1,,,anonymized,Serial_Dependence_U,2023.2.3,Win32,59.88023952096852,,,,,,318.0975,325.0,1.0,318.0975,325.0,,,,321.8889000000004,322.3935,321.3794000000004,321.8884000000004,319.096,321.37929999999983,322.3935,322.894,322.894,325.86060000000055,2599.0,325.8607000000002,5.0,325.8609000000004,1.0,7.0,37.0,12.0,1.0,1.2,0.3,Time
,,S14,1,,,anonymized,Serial_Dependence_U,2023.2.3,Win32,59.88023952096852,,,,,,325.86110000000053,243.0,1.0,325.86120000000017,243.0,,,,329.6422000000001,330.1347999999998,329.1262999999998,329.6421000000005,326.8542000000002,329.1262999999998,330.1347999999998,330.6244000000004,330.6244000000004,333.5007999999998,2449.0,333.5011000000005,5.0,333.50249999999994,1.0,8.0,38.0,2.0,1.0,1.2,0.3,Time
,,S14,1,,,anonymized,Serial_Dependence_U,2023.2.3,Win32,59.88023952096852,,,,,,333.503,348.0,1.0,333.5031000000006,348.0,,,,337.48379999999975,337.98779999999977,336.96720000000016,337.4832000000001,334.50090000000034,336.9667000000002,337.9879000000003,338.4812999999998,338.48140000000035,341.43760000000054,2458.0,341.43760000000054,5.0,341.4377999999998,1.0,9.0,39.0,3.0,1.0,1.4,0.3,Time
,,S14,1,,,anonymized,Serial_Dependence_U,2023.2.3,Win32,59.88023952096852,,,,,,341.438,357.0,1.0,341.43820000000017,357.0,,,,345.0197999999998,345.5119000000003,344.5152999999998,345.0197999999998,342.4482999999998,344.51520000000016,345.5119000000003,346.01800000000003,346.01800000000003,348.71210000000053,2286.0,348.7126000000005,5.0,348.71370000000013,1.0,10.0,40.0,11.0,1.0,1.0,0.3,Time
,,S14,1,,,anonymized,Serial_Dependence_U,2023.2.3,Win32,59.88023952096852,,,,,,348.71399999999994,237.0,1.0,348.7141000000005,237.0,,,,352.2614000000003,352.74910000000057,351.75010000000054,352.26090000000033,349.71320000000014,351.75,352.7492000000002,353.249,353.24910000000057,355.9497999999997,2299.0,355.9497999999997,5.0,355.94999999999993,1.0,11.0,41.0,26.0,1.0,1.0,0.7,Time
,,S14,1,,,anonymized,Serial_Dependence_U,2023.2.3,Win32,59.88023952096852,,,,,,355.9502000000001,175.0,1.0,355.95029999999974,175.0,,,,359.731,360.223,359.22640000000035,359.7307999999998,356.95899999999995,359.226,360.223,360.7127999999998,360.7127999999998,363.3967000000001,2163.0,363.3967000000001,5.0,363.39679999999976,1.0,12.0,42.0,22.0,1.0,1.2,0.3,Time
,,S14,1,,,anonymized,Serial_Dependence_U,2023.2.3,Win32,59.88023952096852,,,,,,363.3971000000006,226.0,1.0,363.3971000000006,226.0,,,,367.5891000000005,368.0936000000005,367.0777999999998,367.5887000000001,364.4094000000004,367.0777999999998,368.0937000000001,368.5866000000005,368.5866000000005,371.6926000000005,2594.0,371.6927000000002,5.0,371.693,1.0,13.0,43.0,24.0,1.0,1.6,0.3,Time
,,S14,1,,,anonymized,Serial_Dependence_U,2023.2.3,Win32,59.88023952096852,,,,,,371.69320000000016,60.0,1.0,371.6932999999998,60.0,,,,375.05229999999983,375.557,374.5414999999999,375.0519000000004,372.7031000000005,374.5414999999999,375.557,376.057,376.057,379.5675,3009.0,379.5677999999998,5.0,379.5687999999998,1.0,14.0,44.0,25.0,1.0,0.8,0.7,Time
,,S14,1,,,anonymized,Serial_Dependence_U,2023.2.3,Win32,59.88023952096852,,,,,,379.569,339.0,1.0,379.5691000000005,339.0,,,,383.7322999999998,384.22060000000056,383.2219000000004,383.732,380.5839000000003,383.2217999999998,384.22060000000056,384.7204000000004,384.7205,388.03779999999983,2692.0,388.03779999999983,5.0,388.0382000000002,1.0,15.0,45.0,29.0,1.0,1.6,0.7,Time
,,S14,1,,,anonymized,Serial_Dependence_U,2023.2.3,Win32,59.88023952096852,,,,,,388.0387000000002,175.0,1.0,388.0387999999998,175.0,,,,391.796,392.2845,391.2864000000003,391.7956000000005,389.0482999999998,391.28629999999976,392.2845,392.7842999999998,392.7842999999998,395.88379999999984,2581.0,395.88379999999984,5.0,395.8842000000002,1.0,16.0,46.0,27.0,1.0,1.2,0.7,Time
,,S14,1,,,anonymized,Serial_Dependence_U,2023.2.3,Win32,59.88023952096852,,,,,,395.88460000000055,32.0,1.0,395.8847000000002,32.0,,,,399.8607999999998,400.3581000000005,399.3502000000002,399.8604000000004,396.89410000000055,399.35,400.35829999999976,400.8477999999998,400.8477999999998,403.8307000000002,2461.0,403.8307000000002,5.0,403.8309000000004,1.0,17.0,47.0,18.0,1.0,1.4,0.7,Time
,,S14,1,,,anonymized,Serial_Dependence_U,2023.2.3,Win32,59.88023952096852,,,,,,403.831,293.0,1.0,403.8312000000002,293.0,,,,407.6095,408.106,407.09560000000056,407.6094000000004,404.8472999999998,407.0955,408.1062000000002,408.6047000000002,408.6047000000002,411.2914999999999,2162.0,411.2914999999999,5.0,411.2917000000002,1.0,18.0,48.0,17.0,1.0,1.2,0.7,Time
,,S14,1,,,anonymized,Serial_Dependence_U,2023.2.3,Win32,59.88023952096852,,,,,,411.292,50.0,1.0,411.292,50.0,,,,415.4432999999998,415.9354000000003,414.9381000000005,415.4432999999998,412.3047999999998,414.9377999999998,415.9354000000003,416.425,416.425,418.82579999999984,1926.0,418.82579999999984,4.0,418.82610000000057,1.0,19.0,49.0,9.0,1.0,1.6,0.7,Time
,,S14,1,,,anonymized,Serial_Dependence_U,2023.2.3,Win32,59.88023952096852,,,,,,418.82629999999983,344.0,1.0,418.8265,344.0,,,,422.4189000000004,422.916,421.9077000000002,422.4185,419.8352999999999,421.9077000000002,422.916,423.40520000000015,423.40520000000015,426.523,2365.0,426.52310000000057,5.0,426.5234000000004,1.0,20.0,50.0,21.0,1.0,1.0,0.3,Time
,,S14,1,,,anonymized,Serial_Dependence_U,2023.2.3,Win32,59.88023952096852,,,,,,426.5237999999998,324.0,1.0,426.524,324.0,,,,429.9046000000005,430.4039000000004,429.4042000000002,429.9045,427.53260000000057,429.4041000000005,430.4039000000004,430.89629999999977,430.8965,433.49640000000034,2182.0,433.4967999999998,5.0,433.4982999999997,1.0,21.0,51.0,0.0,1.0,0.8,0.3,Time
,,S14,1,,,anonymized,Serial_Dependence_U,2023.2.3,Win32,59.88023952096852,,,,,,433.4987000000002,209.0,1.0,433.4989000000004,209.0,,,,437.052,437.55099999999993,436.5457000000001,437.052,434.50279999999975,436.5454000000003,437.5511000000006,438.04529999999977,438.0454000000003,440.9331000000005,2515.0,440.93320000000017,5.0,440.9334000000004,1.0,22.0,52.0,6.0,1.0,1.0,0.7,Time
,,S14,1,,,anonymized,Serial_Dependence_U,2023.2.3,Win32,59.88023952096852,,,,,,440.9336000000005,336.0,1.0,440.93370000000016,336.0,,,,444.2986000000005,444.7914000000004,443.7769000000003,444.2985,441.9446000000005,443.7765,444.7916000000006,445.29079999999976,445.29079999999976,447.7975,2174.0,447.7975,5.0,447.7977000000002,1.0,23.0,53.0,15.0,1.0,0.8,0.7,Time
,,S14,1,,,anonymized,Serial_Dependence_U,2023.2.3,Win32,59.88023952096852,,,,,,447.7979000000004,111.0,1.0,447.798,111.0,,,,451.9791000000006,452.4715,451.4735,451.9789999999999,448.8079000000004,451.473,452.4715,452.96110000000056,452.96110000000056,453.27199999999993,72.0,453.2724000000004,1.0,453.274,1.0,24.0,54.0,4.0,1.0,1.6,0.3,Time
,,S14,1,,,anonymized,Serial_Dependence_U,2023.2.3,Win32,59.88023952096852,,,,,,453.2746000000005,308.0,1.0,453.2747999999998,308.0,,,,456.6612000000001,457.1601000000005,456.1395,456.6611000000005,454.2964000000004,456.139,457.16020000000015,457.65279999999984,457.65279999999984,461.05920000000015,2835.0,461.0592999999998,5.0,461.0594000000003,1.0,25.0,55.0,5.0,1.0,0.8,0.7,Time
,,S14,1,,,anonymized,Serial_Dependence_U,2023.2.3,Win32,59.88023952096852,,,,,,461.0596000000005,39.0,1.0,461.0597000000001,39.0,,,,464.6417000000001,465.1397999999998,464.1355,464.6417000000001,462.06929999999977,464.135,465.1397999999998,465.6332000000002,465.6332000000002,468.6667999999997,2514.0,468.6672000000002,5.0,468.6686000000005,1.0,26.0,56.0,1.0,1.0,1.0,0.3,Time
,,S14,1,,,anonymized,Serial_Dependence_U,2023.2.3,Win32,59.88023952096852,,,,,,468.669,118.0,1.0,468.66920000000016,118.0,,,,472.23849999999993,472.7305,471.72220000000016,472.23849999999993,469.6831000000005,471.7221000000005,472.7305,473.2207999999998,473.2207999999998,476.3539000000004,2782.0,476.3539999999999,5.0,476.3542000000002,1.0,27.0,57.0,16.0,1.0,1.0,0.7,Time
,,S14,1,,,anonymized,Serial_Dependence_U,2023.2.3,Win32,59.88023952096852,,,,,,476.3546000000006,180.0,1.0,476.3547000000002,180.0,,,,480.32929999999976,480.8275,479.8182999999998,480.3289000000003,477.3531000000005,479.81820000000016,480.8275,481.3177000000002,481.3177999999998,483.5505,1882.0,483.5506000000005,5.0,483.5507000000001,1.0,28.0,58.0,13.0,1.0,1.4,0.3,Time
,,S14,1,,,anonymized,Serial_Dependence_U,2023.2.3,Win32,59.88023952096852,,,,,,483.55099999999993,294.0,1.0,483.5511000000006,294.0,,,,487.516,488.0081000000006,486.9997999999998,487.51590000000033,484.561,486.9997000000002,488.0081000000006,488.5085,488.5087000000002,490.59770000000015,1759.0,490.59770000000015,4.0,490.5979000000003,1.0,29.0,59.0,8.0,1.0,1.4,0.7,Time
,,S14,1,,,anonymized,Serial_Dependence_U,2023.2.3,Win32,59.88023952096852,,,,,,490.5982000000001,84.0,2.0,521.6197000000002,84.0,s,31.00509999999969,,525.8182000000002,526.3167999999998,525.3012000000002,525.8182000000002,522.6299000000004,525.3011000000006,526.3169000000004,526.8174000000004,526.8175,529.5332000000002,2161.0,529.5332999999998,5.0,529.5335,2.0,0.0,60.0,24.0,1.0,1.6,0.3,Time
,,S14,1,,,anonymized,Serial_Dependence_U,2023.2.3,Win32,59.88023952096852,,,,,,529.5337000000002,73.0,2.0,529.5346000000005,73.0,,,,533.6925,534.1906000000006,533.1759000000004,533.692,530.532,533.1755,534.1906000000006,534.6812999999999,534.6814000000004,537.3244000000004,2220.0,537.3246000000006,5.0,537.3256000000006,2.0,1.0,61.0,9.0,1.0,1.6,0.7,Time
,,S14,1,,,anonymized,Serial_Dependence_U,2023.2.3,Win32,59.88023952096852,,,,,,537.326,253.0,2.0,537.3261000000006,253.0,,,,541.5119000000004,542.0044000000004,541.0067000000001,541.5117999999998,538.3407999999998,541.006,542.0044000000004,542.4942999999998,542.4942999999998,545.6275,2411.0,545.6275,5.0,545.6277999999999,2.0,2.0,62.0,4.0,1.0,1.6,0.3,Time
,,S14,1,,,anonymized,Serial_Dependence_U,2023.2.3,Win32,59.88023952096852,,,,,,545.6282000000002,92.0,2.0,545.6282999999999,92.0,,,,549.0266000000006,549.5181000000006,548.5104000000003,549.0266000000006,546.6377999999999,548.5102999999998,549.5181000000006,550.0239000000004,550.0239000000004,553.2082999999998,2410.0,553.2082999999998,5.0,553.2085,2.0,3.0,63.0,10.0,1.0,0.8,0.3,Time
,,S14,1,,,anonymized,Serial_Dependence_U,2023.2.3,Win32,59.88023952096852,,,,,,553.2087999999998,72.0,2.0,553.2089000000004,72.0,,,,557.3559000000004,557.8545,556.8406000000006,557.3559000000004,554.2067000000002,556.8405,557.8545,558.3544000000004,558.3544000000004,561.4545,2499.0,561.4545,5.0,561.4547000000002,2.0,4.0,64.0,29.0,1.0,1.6,0.7,Time
,,S14,1,,,anonymized,Serial_Dependence_U,2023.2.3,Win32,59.88023952096852,,,,,,561.455,256.0,2.0,561.4551000000006,256.0,,,,565.2137000000002,565.702,564.6972000000002,565.2134000000004,562.4642000000002,564.6967999999998,565.702,566.1951000000006,566.1951000000006,569.4852999999998,2652.0,569.4854000000004,5.0,569.4856000000005,2.0,5.0,65.0,27.0,1.0,1.2,0.7,Time
,,S14,1,,,anonymized,Serial_Dependence_U,2023.2.3,Win32,59.88023952096852,,,,,,569.4859000000004,171.0,2.0,569.486,171.0,,,,573.0664000000004,573.5652999999999,572.5507000000002,573.0664000000004,570.4842000000002,572.5507000000002,573.5654000000004,574.0651000000006,574.0651000000006,576.9921000000006,2238.0,576.9925000000001,5.0,576.9936000000006,2.0,6.0,66.0,1.0,1.0,1.0,0.3,Time
,,S14,1,,,anonymized,Serial_Dependence_U,2023.2.3,Win32,59.88023952096852,,,,,,576.9941000000006,293.0,2.0,576.9941000000006,293.0,,,,580.3477000000001,580.8395,579.8316000000005,580.3477000000001,577.9984000000004,579.8315,580.8396000000006,581.3457000000002,581.3457000000002,584.9127000000002,2466.0,584.9127999999998,5.0,584.913,2.0,7.0,67.0,25.0,1.0,0.8,0.7,Time
,,S14,1,,,anonymized,Serial_Dependence_U,2023.2.3,Win32,59.88023952096852,,,,,,584.9132000000002,317.0,2.0,584.9134000000004,317.0,,,,588.8944000000004,589.3929000000004,588.3777000000002,588.8942999999998,585.9122999999998,588.3776000000006,589.3929000000004,589.8925,589.8925,593.0599000000004,2736.0,593.0600000000001,5.0,593.0602999999999,2.0,8.0,68.0,13.0,1.0,1.4,0.3,Time
,,S14,1,,,anonymized,Serial_Dependence_U,2023.2.3,Win32,59.88023952096852,,,,,,593.0605,129.0,2.0,593.0606000000006,129.0,,,,596.6589000000004,597.1501000000005,596.1354000000003,596.6587000000002,594.0722999999998,596.135,597.1501000000005,597.6569000000004,597.6569000000004,600.9064000000004,2865.0,600.9065,5.0,600.9067999999999,2.0,9.0,69.0,11.0,1.0,1.0,0.3,Time
,,S14,1,,,anonymized,Serial_Dependence_U,2023.2.3,Win32,59.88023952096852,,,,,,600.907,86.0,2.0,600.9071000000006,86.0,,,,604.2992999999998,604.7876000000006,603.7885,604.2989000000003,601.9224000000004,603.7884000000004,604.7876000000006,605.2867999999999,605.2869000000004,607.8872000000002,2299.0,607.8872000000002,5.0,607.8874000000004,2.0,10.0,70.0,20.0,1.0,0.8,0.3,Time
,,S14,1,,,anonymized,Serial_Dependence_U,2023.2.3,Win32,59.88023952096852,,,,,,607.8876000000006,291.0,2.0,607.8877999999999,291.0,,,,612.052,612.5507000000002,611.5355,612.0519000000004,608.9029000000004,611.5354000000004,612.5507000000002,613.0441000000005,613.0442000000002,615.5177000000002,2060.0,615.5177999999999,4.0,615.5182000000002,2.0,11.0,71.0,19.0,1.0,1.6,0.7,Time
,,S14,1,,,anonymized,Serial_Dependence_U,2023.2.3,Win32,59.88023952096852,,,,,,615.5185,252.0,2.0,615.5187000000002,252.0,,,,619.2929000000004,619.7915,618.7827999999998,619.2926000000006,616.517,618.7827999999998,619.7915,620.2812000000002,620.2812000000002,622.8977000000002,2266.0,622.8977000000002,5.0,622.8979000000004,2.0,12.0,72.0,2.0,1.0,1.2,0.3,Time
,,S14,1,,,anonymized,Serial_Dependence_U,2023.2.3,Win32,59.88023952096852,,,,,,622.8981000000006,357.0,2.0,622.8982000000002,357.0,,,,626.8905,627.3786000000006,626.3796000000006,626.8901000000005,623.9112000000002,626.3795,627.3786000000006,627.878,627.878,630.6724000000004,2269.0,630.6727999999998,5.0,630.6739000000003,2.0,13.0,73.0,23.0,1.0,1.4,0.3,Time
,,S14,1,,,anonymized,Serial_Dependence_U,2023.2.3,Win32,59.88023952096852,,,,,,630.6742000000002,158.0,2.0,630.6744000000003,158.0,,,,634.4372000000002,634.9252999999998,633.9267999999998,634.4369000000004,631.6785,633.9267000000002,634.9252999999998,635.4252000000002,635.4252999999998,638.6589000000004,2765.0,638.6589000000004,5.0,638.6591000000005,2.0,14.0,74.0,7.0,1.0,1.2,0.7,Time
,,S14,1,,,anonymized,Serial_Dependence_U,2023.2.3,Win32,59.88023952096852,,,,,,638.6594000000003,69.0,2.0,638.6595,69.0,,,,642.0191000000005,642.5227999999998,641.5077000000002,642.0185,639.6752999999998,641.5076000000006,642.5227999999998,643.0227000000002,643.0227000000002,646.0062999999998,2333.0,646.0062999999998,5.0,646.0066000000006,2.0,15.0,75.0,15.0,1.0,0.8,0.7,Time
,,S14,1,,,anonymized,Serial_Dependence_U,2023.2.3,Win32,59.88023952096852,,,,,,646.0070000000001,187.0,2.0,646.0072999999999,187.0,,,,649.9485,650.4362999999998,649.4375,649.9481000000005,647.0061000000005,649.4374000000004,650.4362999999998,650.9364000000004,650.9364000000004,653.7629000000004,2455.0,653.7634000000004,5.0,653.7647999999998,2.0,16.0,76.0,18.0,1.0,1.4,0.7,Time
,,S14,1,,,anonymized,Serial_Dependence_U,2023.2.3,Win32,59.88023952096852,,,,,,653.7651000000005,333.0,2.0,653.7652999999998,333.0,,,,657.7122000000002,658.2164000000004,657.2015,657.7117000000002,654.7689000000004,657.2014000000004,658.2164000000004,658.7101000000006,658.7101000000006,661.2012000000002,2116.0,661.2012999999998,5.0,661.2015,2.0,17.0,77.0,8.0,1.0,1.4,0.7,Time
,,S14,1,,,anonymized,Serial_Dependence_U,2023.2.3,Win32,59.88023952096852,,,,,,661.2019000000004,298.0,2.0,661.202,298.0,,,,664.9592999999999,665.4469000000004,664.4494000000004,664.9589000000004,662.2002999999999,664.4492999999998,665.4469000000004,665.9474000000004,665.9474000000004,668.7642000000002,2366.0,668.7642999999998,5.0,668.7646000000005,2.0,18.0,78.0,17.0,1.0,1.2,0.7,Time
,,S14,1,,,anonymized,Serial_Dependence_U,2023.2.3,Win32,59.88023952096852,,,,,,668.7649000000004,356.0,2.0,668.7651000000005,356.0,,,,672.3231000000005,672.8217999999998,671.8126000000005,672.3227000000002,669.7804000000003,671.8126000000005,672.8217999999998,673.3274000000004,673.3275,676.7107999999998,3023.0,676.7107999999998,5.0,676.7111000000006,2.0,19.0,79.0,26.0,1.0,1.0,0.7,Time
,,S14,1,,,anonymized,Serial_Dependence_U,2023.2.3,Win32,59.88023952096852,,,,,,676.7112999999998,239.0,2.0,676.7114000000004,239.0,,,,680.2934000000004,680.7867999999999,679.7767000000002,680.2932999999998,677.7104000000004,679.7767000000002,680.787,681.291,681.291,684.4584000000003,2727.0,684.4584000000003,5.0,684.4586000000006,2.0,20.0,80.0,21.0,1.0,1.0,0.3,Time
,,S14,1,,,anonymized,Serial_Dependence_U,2023.2.3,Win32,59.88023952096852,,,,,,684.4587999999998,65.0,2.0,684.4589000000004,65.0,,,,688.4172000000002,688.9154000000004,687.9072000000002,688.4167000000002,685.4677999999998,687.9071000000006,688.9154000000004,689.4051000000005,689.4051000000005,692.1554000000003,2349.0,692.1554000000003,5.0,692.1556000000006,2.0,21.0,81.0,28.0,1.0,1.4,0.7,Time
,,S14,1,,,anonymized,Serial_Dependence_U,2023.2.3,Win32,59.88023952096852,,,,,,692.1557999999998,200.0,2.0,692.1559000000004,200.0,,,,695.9367999999998,696.4291000000005,695.4216000000006,695.9367000000002,693.1547000000002,695.4215,696.4291000000005,696.9291000000005,696.9291000000005,700.2019000000004,2913.0,700.2019000000004,5.0,700.202,2.0,22.0,82.0,12.0,1.0,1.2,0.3,Time
,,S14,1,,,anonymized,Serial_Dependence_U,2023.2.3,Win32,59.88023952096852,,,,,,700.2022000000002,274.0,2.0,700.2024000000004,274.0,,,,703.984,704.4826000000006,703.481,703.9839000000004,701.2129000000003,703.4809000000004,704.4826000000006,704.9822999999998,704.9822999999998,707.4261000000006,2090.0,707.4262999999999,5.0,707.4279000000004,2.0,23.0,83.0,22.0,1.0,1.2,0.3,Time
,,S14,1,,,anonymized,Serial_Dependence_U,2023.2.3,Win32,59.88023952096852,,,,,,707.4285,57.0,2.0,707.4287000000002,57.0,,,,710.9647999999999,711.4635,710.4644000000004,710.9647999999999,708.4315,710.4642999999999,711.4635,711.9631000000006,711.9631000000006,714.4134000000004,2133.0,714.4134000000004,5.0,714.4135,2.0,24.0,84.0,6.0,1.0,1.0,0.7,Time
,,S14,1,,,anonymized,Serial_Dependence_U,2023.2.3,Win32,59.88023952096852,,,,,,714.4137999999998,86.0,2.0,714.4139000000004,86.0,,,,717.806,718.2937000000002,717.2954000000004,717.8056000000006,715.4236000000005,717.2952999999998,718.2937000000002,718.7945,718.7945,721.7872999999998,2600.0,721.7875,5.0,721.7886000000005,2.0,25.0,85.0,0.0,1.0,0.8,0.3,Time
,,S14,1,,,anonymized,Serial_Dependence_U,2023.2.3,Win32,59.88023952096852,,,,,,721.7894000000003,307.0,2.0,721.7895,307.0,,,,725.9885,726.4844000000004,725.47,725.9882999999999,722.7937999999998,725.4697000000002,726.4844000000004,726.9739000000004,726.9739000000004,730.2072999999998,2785.0,730.2072999999998,5.0,730.2076000000005,2.0,26.0,86.0,14.0,1.0,1.6,0.3,Time
,,S14,1,,,anonymized,Serial_Dependence_U,2023.2.3,Win32,59.88023952096852,,,,,,730.2079000000003,352.0,2.0,730.208,352.0,,,,733.7735,734.2715000000001,733.2729000000004,733.7735,731.2185000000001,733.2729000000004,734.2715000000001,734.771,734.771,737.4987000000002,2416.0,737.4992000000002,5.0,737.5001000000005,2.0,27.0,87.0,16.0,1.0,1.0,0.7,Time
,,S14,1,,,anonymized,Serial_Dependence_U,2023.2.3,Win32,59.88023952096852,,,,,,737.5004000000004,225.0,2.0,737.5006000000005,225.0,,,,741.4874000000004,741.9787999999999,740.986,741.4872999999998,738.5216000000006,740.986,741.979,742.4681000000006,742.4681000000006,744.7282000000002,1907.0,744.7284000000004,5.0,744.7297999999998,2.0,28.0,88.0,3.0,1.0,1.4,0.3,Time
,,S14,1,,,anonymized,Serial_Dependence_U,2023.2.3,Win32,59.88023952096852,,,,,,744.7306000000005,146.0,2.0,744.7306000000005,146.0,,,,748.0840000000001,748.5832000000001,747.5836000000006,748.0840000000001,745.746,747.5835,748.5832000000001,749.0822000000002,749.0822000000002,751.7992999999998,2230.0,751.7992999999998,5.0,751.7995,2.0,29.0,89.0,5.0,1.0,0.8,0.7,Time
,,S14,1,,,anonymized,Serial_Dependence_U,2023.2.3,Win32,59.88023952096852,,,,,,751.7996000000005,76.0,3.0,788.27,76.0,s,36.4546000000006,,792.4502000000002,792.9426000000005,791.9457999999998,792.4502000000002,789.2792000000002,791.9456000000006,792.9426000000005,793.4321000000006,793.4322999999998,795.9094000000003,2084.0,795.9097000000002,5.0,795.9109000000004,3.0,0.0,90.0,14.0,1.0,1.6,0.3,Time
,,S14,1,,,anonymized,Serial_Dependence_U,2023.2.3,Win32,59.88023952096852,,,,,,795.9114000000004,320.0,3.0,795.9124000000004,320.0,,,,799.9096000000005,800.4142999999998,799.3975,799.9089000000004,796.9315,799.3975,800.4142999999998,800.9062999999999,800.9062999999999,803.6962999999998,2299.0,803.6962999999998,5.0,803.6966000000006,3.0,1.0,91.0,3.0,1.0,1.4,0.3,Time
,,S14,1,,,anonymized,Serial_Dependence_U,2023.2.3,Win32,59.88023952096852,,,,,,803.6969000000004,39.0,3.0,803.697,39.0,,,,807.4555,807.9435,806.945,807.4549000000004,804.7061000000006,806.9449000000004,807.9435,808.4367000000002,808.4367999999998,810.7201000000006,1937.0,810.7204000000004,5.0,810.7214000000004,3.0,2.0,92.0,17.0,1.0,1.2,0.7,Time
,,S14,1,,,anonymized,Serial_Dependence_U,2023.2.3,Win32,59.88023952096852,,,,,,810.7222000000002,281.0,3.0,810.7224000000003,281.0,,,,814.3066000000006,814.8017999999998,813.8057999999999,814.3065,811.7427000000002,813.8057000000002,814.8019000000004,815.2902000000001,815.2902000000001,817.791,1965.0,817.7911000000006,5.0,817.7912000000002,3.0,3.0,93.0,1.0,1.0,1.0,0.3,Time
,,S14,1,,,anonymized,Serial_Dependence_U,2023.2.3,Win32,59.88023952096852,,,,,,817.7914000000004,38.0,3.0,817.7915,38.0,,,,821.9344000000003,822.4379000000004,821.4227999999998,821.9339000000003,818.791,821.4227999999998,822.4379000000004,822.9382000000002,822.9382000000002,825.7211000000005,2415.0,825.7212000000002,5.0,825.7214000000004,3.0,4.0,94.0,9.0,1.0,1.6,0.7,Time
,,S14,1,,,anonymized,Serial_Dependence_U,2023.2.3,Win32,59.88023952096852,,,,,,825.7216000000005,264.0,3.0,825.7216000000005,264.0,,,,829.6801000000006,830.1784000000004,829.1697999999998,829.6797999999998,826.731,829.1697999999998,830.1784000000004,830.6687000000002,830.6687999999998,833.4351000000006,2383.0,833.4351000000006,5.0,833.4352999999999,3.0,5.0,95.0,28.0,1.0,1.4,0.7,Time
,,S14,1,,,anonymized,Serial_Dependence_U,2023.2.3,Win32,59.88023952096852,,,,,,833.4356000000006,46.0,3.0,833.4356000000006,46.0,,,,836.9841000000006,837.4827999999998,836.4777000000001,836.984,834.4451000000006,836.4772999999998,837.4827999999998,837.9757999999998,837.9759000000004,841.1917999999998,2851.0,841.1921000000006,5.0,841.194,3.0,6.0,96.0,26.0,1.0,1.0,0.7,Time
,,S14,1,,,anonymized,Serial_Dependence_U,2023.2.3,Win32,59.88023952096852,,,,,,841.1944000000004,217.0,3.0,841.1945000000001,217.0,,,,844.7581000000006,845.2464000000003,844.2472000000002,844.7576000000006,842.2089000000004,844.2471000000006,845.2464000000003,845.7392000000002,845.7394000000004,849.1074000000003,2608.0,849.1075,5.0,849.1077999999998,3.0,7.0,97.0,6.0,1.0,1.0,0.7,Time
,,S14,1,,,anonymized,Serial_Dependence_U,2023.2.3,Win32,59.88023952096852,,,,,,849.1081000000006,202.0,3.0,849.1082999999999,202.0,,,,852.4455,852.9427999999998,851.9442999999998,852.4454000000004,850.1089000000004,851.9442999999998,852.9427999999998,853.4434000000003,853.4434000000003,856.3767999999998,2513.0,856.3767999999998,5.0,856.3771000000006,3.0,8.0,98.0,5.0,1.0,0.8,0.7,Time
,,S14,1,,,anonymized,Serial_Dependence_U,2023.2.3,Win32,59.88023952096852,,,,,,856.3774000000004,47.0,3.0,856.3776000000006,47.0,,,,860.5522999999998,861.0565,860.0417000000002,860.5516000000006,857.3764000000003,860.0416000000006,861.0565,861.556,861.5561000000006,865.2726000000006,3348.0,865.2726000000006,5.0,865.2727999999998,3.0,9.0,99.0,4.0,1.0,1.6,0.3,Time
,,S14,1,,,anonymized,Serial_Dependence_U,2023.2.3,Win32,59.88023952096852,,,,,,865.2731000000006,210.0,3.0,865.2732000000002,210.0,,,,869.221,869.7136000000006,868.7047999999999,869.221,866.2724000000004,868.7047999999999,869.7136000000006,870.2206000000006,870.2206000000006,872.9032999999998,2313.0,872.9034000000004,5.0,872.9037000000002,3.0,10.0,100.0,8.0,1.0,1.4,0.7,Time
,,S14,1,,,anonymized,Serial_Dependence_U,2023.2.3,Win32,59.88023952096852,,,,,,872.9039000000004,33.0,3.0,872.9041000000005,33.0,,,,876.4974000000004,877.001,875.9811000000005,876.4971000000006,873.9134000000004,875.9809000000004,877.001,877.5009000000003,877.5009000000003,880.6446000000005,3040.0,880.6447999999998,5.0,880.6459000000003,3.0,11.0,101.0,11.0,1.0,1.0,0.3,Time
,,S14,1,,,anonymized,Serial_Dependence_U,2023.2.3,Win32,59.88023952096852,,,,,,880.6462999999998,251.0,3.0,880.6466000000006,251.0,,,,884.0327999999998,884.5311000000006,883.5156000000005,884.0327999999998,881.6535,883.5155,884.5311000000006,884.9976000000006,884.9977000000002,886.6652999999998,183.0,886.6652999999998,1.0,886.6655,3.0,12.0,102.0,10.0,1.0,0.8,0.3,Time
,,S14,1,,,anonymized,Serial_Dependence_U,2023.2.3,Win32,59.88023952096852,,,,,,886.6657999999999,262.0,3.0,886.666,262.0,,,,890.0585,890.5625,889.5474000000004,890.0582000000002,887.6816000000006,889.5472999999998,890.5626000000005,891.0621000000006,891.0621000000006,894.1637000000002,2733.0,894.1637999999998,5.0,894.1642999999998,3.0,13.0,103.0,0.0,1.0,0.8,0.3,Time
,,S14,1,,,anonymized,Serial_Dependence_U,2023.2.3,Win32,59.88023952096852,,,,,,894.1646000000005,329.0,3.0,894.1647999999998,329.0,,,,897.7449000000004,898.2422000000001,897.223,897.7447999999998,895.1774000000004,897.2229000000004,898.2422000000001,898.7426000000006,898.7426000000006,901.9262000000002,2833.0,901.9262000000002,5.0,901.9263,3.0,14.0,104.0,16.0,1.0,1.0,0.7,Time
,,S14,1,,,anonymized,Serial_Dependence_U,2023.2.3,Win32,59.88023952096852,,,,,,901.9266000000006,127.0,3.0,901.9267000000002,127.0,,,,906.0911000000006,906.583,905.5848,906.091,902.9394000000004,905.5844000000004,906.583,907.0727999999998,907.0727999999998,910.522,3146.0,910.5221000000006,5.0,910.5222000000002,3.0,15.0,105.0,29.0,1.0,1.6,0.7,Time
,,S14,1,,,anonymized,Serial_Dependence_U,2023.2.3,Win32,59.88023952096852,,,,,,910.5224000000004,357.0,3.0,910.5226000000006,357.0,,,,913.8872000000002,914.3865,913.3817,913.8871000000006,911.5355,913.3814000000004,914.3865,914.8861000000004,914.8861000000004,918.4627000000002,3272.0,918.463,5.0,918.4644000000004,3.0,16.0,106.0,25.0,1.0,0.8,0.7,Time
,,S14,1,,,anonymized,Serial_Dependence_U,2023.2.3,Win32,59.88023952096852,,,,,,918.4649000000004,169.0,3.0,918.4652000000002,169.0,,,,922.6284000000004,923.1167999999998,922.1187000000002,922.628,919.486,922.1186000000006,923.1169000000004,923.616,923.616,927.709,3685.0,927.7094000000004,5.0,927.7105,3.0,17.0,107.0,19.0,1.0,1.6,0.7,Time
,,S14,1,,,anonymized,Serial_Dependence_U,2023.2.3,Win32,59.88023952096852,,,,,,927.7111000000006,221.0,3.0,927.7112000000002,221.0,,,,931.0607000000002,931.5577999999998,930.559,931.0606000000006,928.7259000000004,930.5585,931.5577999999998,932.0467000000002,932.0467999999998,935.1464000000004,2632.0,935.1464000000004,5.0,935.1467000000002,3.0,18.0,108.0,15.0,1.0,0.8,0.7,Time
,,S14,1,,,anonymized,Serial_Dependence_U,2023.2.3,Win32,59.88023952096852,,,,,,935.147,303.0,3.0,935.1471000000006,303.0,,,,938.9387000000002,939.4267999999998,938.4286000000004,938.9382999999998,936.163,938.4284000000004,939.4267999999998,939.9204000000004,939.9205,943.0946000000006,2316.0,943.0946000000006,5.0,943.0948,3.0,19.0,109.0,22.0,1.0,1.2,0.3,Time
,,S14,1,,,anonymized,Serial_Dependence_U,2023.2.3,Win32,59.88023952096852,,,,,,943.0952000000002,225.0,3.0,943.0952999999998,225.0,,,,947.3024000000004,947.8037999999998,946.7921000000006,947.302,944.1094000000004,946.792,947.8037999999998,948.3074000000004,948.3074000000004,951.257,2549.0,951.257,5.0,951.2571000000006,3.0,20.0,110.0,24.0,1.0,1.6,0.3,Time
,,S14,1,,,anonymized,Serial_Dependence_U,2023.2.3,Win32,59.88023952096852,,,,,,951.2574000000004,171.0,3.0,951.2575,171.0,,,,955.039,955.5327000000002,954.5192999999998,955.0389000000004,952.2573,954.5192999999998,955.5327999999998,956.0227999999998,956.0227999999998,959.8534000000004,3501.0,959.8535,5.0,959.8536000000006,3.0,21.0,111.0,12.0,1.0,1.2,0.3,Time
,,S14,1,,,anonymized,Serial_Dependence_U,2023.2.3,Win32,59.88023952096852,,,,,,959.8538,194.0,3.0,959.8539000000004,194.0,,,,963.6197999999998,964.1172999999998,963.1022999999998,963.6197999999998,960.8652000000002,963.1022999999998,964.1172999999998,964.6174000000004,964.6174000000004,966.7777000000002,1851.0,966.7779000000004,5.0,966.7791000000004,3.0,22.0,112.0,27.0,1.0,1.2,0.7,Time
,,S14,1,,,anonymized,Serial_Dependence_U,2023.2.3,Win32,59.88023952096852,,,,,,966.78,278.0,3.0,966.7801000000004,278.0,,,,970.177,970.6757000000002,969.667,970.1766000000006,967.7975,969.6669000000004,970.6757000000002,971.1645,971.1645,973.7322,2199.0,973.7322999999998,5.0,973.7325,3.0,23.0,113.0,20.0,1.0,0.8,0.3,Time
,,S14,1,,,anonymized,Serial_Dependence_U,2023.2.3,Win32,59.88023952096852,,,,,,973.7326000000006,331.0,3.0,973.7327000000002,331.0,,,,977.7269000000005,978.2295,977.2135,977.7267999999998,974.7487000000002,977.2135,978.2296000000006,978.7291000000006,978.7291000000006,981.1289000000004,1945.0,981.129,5.0,981.1292000000002,3.0,24.0,114.0,13.0,1.0,1.4,0.3,Time
,,S14,1,,,anonymized,Serial_Dependence_U,2023.2.3,Win32,59.88023952096852,,,,,,981.1295,9.0,3.0,981.1296000000006,9.0,,,,984.7442999999998,985.2369000000004,984.2297999999998,984.7442000000002,982.1447999999998,984.2296000000006,985.2371000000004,985.7265,985.7265,988.5694000000004,2336.0,988.5697000000002,5.0,988.5712000000002,3.0,25.0,115.0,21.0,1.0,1.0,0.3,Time
,,S14,1,,,anonymized,Serial_Dependence_U,2023.2.3,Win32,59.88023952096852,,,,,,988.5717999999998,131.0,3.0,988.572,131.0,,,,992.3417000000002,992.8336000000006,991.836,992.3417000000002,989.5879000000004,991.8354000000004,992.8336000000006,993.3226000000004,993.3227000000002,997.323,2499.0,997.323,5.0,997.3232000000002,3.0,26.0,116.0,7.0,1.0,1.2,0.7,Time
,,S14,1,,,anonymized,Serial_Dependence_U,2023.2.3,Win32,59.88023952096852,,,,,,997.3235,150.0,3.0,997.3235,150.0,,,,1001.3055,1001.7967000000002,1000.805,1001.3054000000004,998.3377999999998,1000.805,1001.7967999999998,1002.3032999999998,1002.3034000000004,1004.9487,2299.0,1004.9489000000004,5.0,1004.9496000000006,3.0,27.0,117.0,23.0,1.0,1.4,0.3,Time
,,S14,1,,,anonymized,Serial_Dependence_U,2023.2.3,Win32,59.88023952096852,,,,,,1004.9502000000002,130.0,3.0,1004.9504000000004,130.0,,,,1008.7476000000006,1009.25,1008.2364000000003,1008.7472000000002,1005.9526000000004,1008.2362999999998,1009.2501000000008,1009.7504000000004,1009.7504000000004,1012.4436000000004,2385.0,1012.4439000000004,5.0,1012.4452,3.0,28.0,118.0,2.0,1.0,1.2,0.3,Time
,,S14,1,,,anonymized,Serial_Dependence_U,2023.2.3,Win32,59.88023952096852,,,,,,1012.4459000000004,100.0,3.0,1012.4461000000006,100.0,,,,1016.4095,1016.8977000000002,1015.8998,1016.4092000000004,1013.4667000000002,1015.8997000000002,1016.8977000000002,1017.3982999999998,1017.3982999999998,1020.2311000000008,2499.0,1020.2311000000008,5.0,1020.2313,3.0,29.0,119.0,18.0,1.0,1.4,0.7,Time
,,S14,1,,,anonymized,Serial_Dependence_U,2023.2.3,Win32,59.88023952096852,,,,,,1020.2315,331.0,4.0,1022.4299000000004,331.0,s,2.1835000000000946,,1026.5722000000003,1027.0707000000002,1026.0622999999998,1026.5719000000004,1023.4305,1026.0622999999998,1027.0707000000002,1027.5704000000003,1027.5704000000003,1030.1767000000002,2268.0,1030.1767999999995,5.0,1030.177,4.0,0.0,120.0,19.0,1.0,1.6,0.7,Time
,,S14,1,,,anonymized,Serial_Dependence_U,2023.2.3,Win32,59.88023952096852,,,,,,1030.1772,230.0,4.0,1030.1782000000003,230.0,,,,1034.1712999999995,1034.675,1033.6591000000003,1034.1712000000002,1031.1935,1033.6591000000003,1034.675,1035.1737000000005,1035.1737999999998,1037.7911000000006,2259.0,1037.7912,5.0,1037.7913,4.0,1.0,121.0,3.0,1.0,1.4,0.3,Time
,,S14,1,,,anonymized,Serial_Dependence_U,2023.2.3,Win32,59.88023952096852,,,,,,1037.7915,250.0,4.0,1037.7916000000005,250.0,,,,1041.5893,1042.0879000000004,1041.0727000000002,1041.5892,1038.8007999999998,1041.0726000000006,1042.0879000000004,1042.5882,1042.5883,1045.0715,2377.0,1045.0715,5.0,1045.0717000000002,4.0,2.0,122.0,12.0,1.0,1.2,0.3,Time
,,S14,1,,,anonymized,Serial_Dependence_U,2023.2.3,Win32,59.88023952096852,,,,,,1045.0719000000004,121.0,4.0,1045.0719000000004,121.0,,,,1048.4337000000005,1048.9291000000003,1047.931,1048.4336000000003,1046.0829000000003,1047.9306000000006,1048.9291000000003,1049.4189000000003,1049.419,1051.9788,2262.0,1051.9792000000002,5.0,1051.9804000000004,4.0,3.0,123.0,25.0,1.0,0.8,0.7,Time
,,S14,1,,,anonymized,Serial_Dependence_U,2023.2.3,Win32,59.88023952096852,,,,,,1051.9811000000009,210.0,4.0,1051.9813,210.0,,,,1055.7607999999998,1056.2492999999995,1055.2507000000005,1055.7605,1052.9985,1055.2507000000005,1056.2492999999995,1056.7432,1056.7433,1059.3757000000005,2222.0,1059.3762000000002,5.0,1059.3775,4.0,4.0,124.0,17.0,1.0,1.2,0.7,Time
,,S14,1,,,anonymized,Serial_Dependence_U,2023.2.3,Win32,59.88023952096852,,,,,,1059.3783,249.0,4.0,1059.3785,249.0,,,,1063.562,1064.0567,1063.0479000000005,1063.562,1060.3766000000005,1063.0477999999998,1064.0567,1064.5467999999998,1064.5467999999998,1067.208,2315.0,1067.2082000000005,5.0,1067.2084000000004,4.0,5.0,125.0,14.0,1.0,1.6,0.3,Time
,,S14,1,,,anonymized,Serial_Dependence_U,2023.2.3,Win32,59.88023952096852,,,,,,1067.2086000000006,37.0,4.0,1067.2087,37.0,,,,1070.8117999999995,1071.3038,1070.2952000000002,1070.8117999999995,1068.2237999999998,1070.2952000000002,1071.3039000000003,1071.7927999999995,1071.7927999999995,1074.4605,2376.0,1074.4605,5.0,1074.4607,4.0,6.0,126.0,21.0,1.0,1.0,0.3,Time
,,S14,1,,,anonymized,Serial_Dependence_U,2023.2.3,Win32,59.88023952096852,,,,,,1074.4607999999998,290.0,4.0,1074.4609000000005,290.0,,,,1078.4527999999998,1078.9575,1077.9424000000004,1078.4524000000004,1075.4705,1077.9423,1078.9575,1079.4507999999998,1079.4507999999998,1081.9679000000003,2164.0,1081.9682999999998,5.0,1081.9695,4.0,7.0,127.0,23.0,1.0,1.4,0.3,Time
,,S14,1,,,anonymized,Serial_Dependence_U,2023.2.3,Win32,59.88023952096852,,,,,,1081.9699000000005,119.0,4.0,1081.97,119.0,,,,1085.3507000000002,1085.8567000000005,1084.8393,1085.3501000000006,1082.9739000000004,1084.8393,1085.8567000000005,1086.3547,1086.3547999999998,1089.4047000000005,2198.0,1089.4047000000005,5.0,1089.405,4.0,8.0,128.0,0.0,1.0,0.8,0.3,Time
,,S14,1,,,anonymized,Serial_Dependence_U,2023.2.3,Win32,59.88023952096852,,,,,,1089.4054000000003,223.0,4.0,1089.4054000000003,223.0,,,,1093.3976000000005,1093.8953,1092.8817,1093.3973,1090.415,1092.8812000000005,1093.8953,1094.3847999999998,1094.3849000000005,1097.4524000000004,2247.0,1097.4524000000004,5.0,1097.4525,4.0,9.0,129.0,13.0,1.0,1.4,0.3,Time
,,S14,1,,,anonymized,Serial_Dependence_U,2023.2.3,Win32,59.88023952096852,,,,,,1097.4527000000005,84.0,4.0,1097.4527000000005,84.0,,,,1101.0112,1101.5152999999998,1100.5001000000009,1101.0107999999998,1098.4617000000003,1100.5001000000009,1101.5152999999998,1102.009,1102.009100000001,1106.0483,2714.0,1106.0484000000004,5.0,1106.0486000000003,4.0,10.0,130.0,16.0,1.0,1.0,0.7,Time
,,S14,1,,,anonymized,Serial_Dependence_U,2023.2.3,Win32,59.88023952096852,,,,,,1106.0487999999998,302.0,4.0,1106.049,302.0,,,,1110.2079000000003,1110.7057000000002,1109.6967000000002,1110.207,1107.0584000000003,1109.696600000001,1110.7057000000002,1111.1955,1111.1955,1113.4455,1910.0,1113.4455,4.0,1113.4457000000002,4.0,11.0,131.0,29.0,1.0,1.6,0.7,Time
,,S14,1,,,anonymized,Serial_Dependence_U,2023.2.3,Win32,59.88023952096852,,,,,,1113.4459000000004,53.0,4.0,1113.446,53.0,,,,1116.8054000000004,1117.31,1116.295,1116.8044000000004,1114.4416000000006,1116.2949000000003,1117.31,1117.8032000000003,1117.8032999999998,1120.3596000000005,2015.0,1120.3597000000002,5.0,1120.3597999999995,4.0,12.0,132.0,5.0,1.0,0.8,0.7,Time
,,S14,1,,,anonymized,Serial_Dependence_U,2023.2.3,Win32,59.88023952096852,,,,,,1120.36,190.0,4.0,1120.3601000000006,190.0,,,,1123.9027999999998,1124.4067000000002,1123.3918,1123.9022999999995,1121.3545,1123.3917,1124.4067000000002,1124.9007,1124.9008,1127.457,2099.0,1127.457,5.0,1127.4572999999998,4.0,13.0,133.0,6.0,1.0,1.0,0.7,Time
,,S14,1,,,anonymized,Serial_Dependence_U,2023.2.3,Win32,59.88023952096852,,,,,,1127.4576000000006,254.0,4.0,1127.4578,254.0,,,,1130.8528,1131.3479000000004,1130.3331000000005,1130.8527,1128.4671000000003,1130.3328,1131.3479000000004,1131.8414000000005,1131.8414000000005,1134.2213,2075.0,1134.2213,5.0,1134.2216000000003,4.0,14.0,134.0,10.0,1.0,0.8,0.3,Time
,,S14,1,,,anonymized,Serial_Dependence_U,2023.2.3,Win32,59.88023952096852,,,,,,1134.2219000000005,150.0,4.0,1134.222,150.0,,,,1137.9662000000003,1138.4617000000003,1137.4637000000002,1137.9661000000006,1135.2202999999995,1137.4633,1138.4617999999998,1138.9617000000003,1138.9617000000003,1141.2957,1986.0,1141.2961000000005,5.0,1141.2971000000005,4.0,15.0,135.0,7.0,1.0,1.2,0.7,Time
,,S14,1,,,anonymized,Serial_Dependence_U,2023.2.3,Win32,59.88023952096852,,,,,,1141.2975,100.0,4.0,1141.2976000000006,100.0,,,,1145.0605,1145.5499000000004,1144.5503,1145.0601000000006,1142.3174000000004,1144.5502,1145.55,1146.0486000000003,1146.0486000000003,1148.2333,1867.0,1148.2334000000003,5.0,1148.2337000000002,4.0,16.0,136.0,27.0,1.0,1.2,0.7,Time
,,S14,1,,,anonymized,Serial_Dependence_U,2023.2.3,Win32,59.88023952096852,,,,,,1148.2341000000006,153.0,4.0,1148.2342,153.0,,,,1152.0309000000004,1152.5232,1151.5142000000003,1152.0307999999998,1149.2494000000004,1151.5142000000003,1152.5232,1153.0129000000004,1153.013,1155.6297000000002,2282.0,1155.6299000000004,5.0,1155.6302000000005,4.0,17.0,137.0,22.0,1.0,1.2,0.3,Time
,,S14,1,,,anonymized,Serial_Dependence_U,2023.2.3,Win32,59.88023952096852,,,,,,1155.6305,328.0,4.0,1155.6306000000006,328.0,,,,1159.5887999999998,1160.0869000000005,1159.0787999999998,1159.5885,1156.6287999999995,1159.0787999999998,1160.0869000000005,1160.5764000000004,1160.5764000000004,1162.794,1845.0,1162.794,5.0,1162.7942999999998,4.0,18.0,138.0,18.0,1.0,1.4,0.7,Time
,,S14,1,,,anonymized,Serial_Dependence_U,2023.2.3,Win32,59.88023952096852,,,,,,1162.7945,26.0,4.0,1162.7946000000006,26.0,,,,1166.986,1167.4746000000005,1166.4696000000006,1166.9857000000002,1163.8039000000003,1166.4691000000005,1167.4746000000005,1167.9742,1167.9743,1170.5406000000005,2199.0,1170.5407000000002,5.0,1170.5409000000004,4.0,19.0,139.0,24.0,1.0,1.6,0.3,Time
,,S14,1,,,anonymized,Serial_Dependence_U,2023.2.3,Win32,59.88023952096852,,,,,,1170.5411000000006,74.0,4.0,1170.5413,74.0,,,,1174.4892000000002,1174.9813,1173.9725,1174.4891000000005,1171.5405,1173.9725,1174.9813,1175.4705,1175.4706000000006,1177.2214000000004,1459.0,1177.2214000000004,3.0,1177.2216000000003,4.0,20.0,140.0,28.0,1.0,1.4,0.7,Time
,,S14,1,,,anonymized,Serial_Dependence_U,2023.2.3,Win32,59.88023952096852,,,,,,1177.2219000000005,135.0,4.0,1177.2221000000006,135.0,,,,1180.5866000000003,1181.0855,1180.0702,1180.5865,1178.2319000000005,1180.0702,1181.0855,1181.5789000000004,1181.5789000000004,1184.2527999999998,2326.0,1184.2529000000004,5.0,1184.2533,4.0,21.0,141.0,15.0,1.0,0.8,0.7,Time
,,S14,1,,,anonymized,Serial_Dependence_U,2023.2.3,Win32,59.88023952096852,,,,,,1184.2537999999995,189.0,4.0,1184.254,189.0,,,,1188.0344000000005,1188.5327000000002,1187.5179000000005,1188.0344000000005,1185.2517000000005,1187.5178,1188.5327000000002,1189.0262000000002,1189.0265,1191.5342999999998,2066.0,1191.5342999999998,5.0,1191.5349000000003,4.0,22.0,142.0,2.0,1.0,1.2,0.3,Time
,,S14,1,,,anonymized,Serial_Dependence_U,2023.2.3,Win32,59.88023952096852,,,,,,1191.5356000000006,271.0,4.0,1191.5359000000003,271.0,,,,1195.6812000000002,1196.1797,1195.165,1195.6812000000002,1192.5302,1195.1649000000004,1196.1797,1196.6792999999998,1196.6794000000004,1199.7316000000003,2777.0,1199.7316000000003,5.0,1199.732,4.0,23.0,143.0,9.0,1.0,1.6,0.7,Time
,,S14,1,,,anonymized,Serial_Dependence_U,2023.2.3,Win32,59.88023952096852,,,,,,1199.7325,166.0,4.0,1199.7327999999998,166.0,,,,1203.6956000000005,1204.1869000000004,1203.1785,1203.6954000000003,1200.7397999999998,1203.1784000000005,1204.1869000000004,1204.6764000000005,1204.6765,1207.294,2265.0,1207.2941000000003,5.0,1207.2945,4.0,24.0,144.0,8.0,1.0,1.4,0.7,Time
,,S14,1,,,anonymized,Serial_Dependence_U,2023.2.3,Win32,59.88023952096852,,,,,,1207.2948,190.0,4.0,1207.2951000000005,190.0,,,,1211.4724000000003,1211.9672999999998,1210.9694000000004,1211.4724000000003,1208.3036000000006,1210.969,1211.9674000000005,1212.4572999999998,1212.4572999999998,1214.924,2133.0,1214.924,5.0,1214.9242000000002,4.0,25.0,145.0,4.0,1.0,1.6,0.3,Time
,,S14,1,,,anonymized,Serial_Dependence_U,2023.2.3,Win32,59.88023952096852,,,,,,1214.9244000000003,64.0,4.0,1214.9244000000003,64.0,,,,1218.5062000000005,1218.998,1217.9896000000006,1218.5061000000003,1215.9236000000003,1217.9895,1218.9981000000005,1219.5041000000006,1219.5042,1222.6,2770.0,1222.6001000000006,5.0,1222.6005,4.0,26.0,146.0,11.0,1.0,1.0,0.3,Time
,,S14,1,,,anonymized,Serial_Dependence_U,2023.2.3,Win32,59.88023952096852,,,,,,1222.6009000000004,137.0,4.0,1222.601,137.0,,,,1225.9981000000005,1226.5013,1225.480100000001,1225.9976000000006,1223.6145,1225.4797999999998,1226.5013,1227.0016000000005,1227.0016000000005,1229.7447000000002,2246.0,1229.745,5.0,1229.746,4.0,27.0,147.0,20.0,1.0,0.8,0.3,Time
,,S14,1,,,anonymized,Serial_Dependence_U,2023.2.3,Win32,59.88023952096852,,,,,,1229.7469000000003,57.0,4.0,1229.7471000000005,57.0,,,,1233.311,1233.7989000000005,1232.8007999999998,1233.3105,1230.7682999999995,1232.8007000000002,1233.7989000000005,1234.2984000000004,1234.2985,1236.5836000000006,1966.0,1236.5837,5.0,1236.584,4.0,28.0,148.0,26.0,1.0,1.0,0.7,Time
,,S14,1,,,anonymized,Serial_Dependence_U,2023.2.3,Win32,59.88023952096852,,,,,,1236.5844000000004,124.0,4.0,1236.5846000000006,124.0,,,,1240.1746000000005,1240.6632999999997,1239.6647000000005,1240.1742000000002,1237.5924000000005,1239.6647000000005,1240.6632999999997,1241.1626000000006,1241.1626000000006,1243.6463,2299.0,1243.6463,5.0,1243.6464000000003,4.0,29.0,149.0,1.0,1.0,1.0,0.3,Time
,,S14,1,,,anonymized,Serial_Dependence_U,2023.2.3,Win32,59.88023952096852,,,,,,1243.6467000000002,263.0,5.0,1245.9724000000003,263.0,s,2.3042000000002645,,1249.7437999999995,1250.239,1249.2274000000004,1249.7437999999995,1246.9726000000005,1249.2272999999998,1250.239,1250.7425,1250.7425,1253.3766000000005,2236.0,1253.3766000000005,5.0,1253.377,5.0,0.0,150.0,17.0,1.0,1.2,0.7,Time
,,S14,1,,,anonymized,Serial_Dependence_U,2023.2.3,Win32,59.88023952096852,,,,,,1253.3774000000003,272.0,5.0,1253.3787999999995,272.0,,,,1257.5681000000006,1258.0565,1257.0581000000006,1257.5676000000003,1254.3861000000006,1257.0581000000006,1258.0565,1258.5564000000004,1258.5564000000004,1261.1731000000009,2232.0,1261.1732000000002,5.0,1261.1734000000004,5.0,1.0,151.0,4.0,1.0,1.6,0.3,Time
,,S14,1,,,anonymized,Serial_Dependence_U,2023.2.3,Win32,59.88023952096852,,,,,,1261.1736000000003,158.0,5.0,1261.1737000000005,158.0,,,,1264.9822,1265.4713,1264.4717999999998,1264.9817000000005,1262.1891000000005,1264.4717000000005,1265.4714000000004,1265.9697,1265.9697,1268.6211000000003,2279.0,1268.6212000000005,5.0,1268.6212000000005,5.0,2.0,152.0,2.0,1.0,1.2,0.3,Time
,,S14,1,,,anonymized,Serial_Dependence_U,2023.2.3,Win32,59.88023952096852,,,,,,1268.6215,227.0,5.0,1268.6216000000006,227.0,,,,1272.7626000000005,1273.2621000000006,1272.2517999999998,1272.7622,1269.616,1272.2517999999998,1273.2622,1273.7672999999998,1273.7672999999998,1276.4294000000004,2264.0,1276.4296000000006,5.0,1276.4301000000005,5.0,3.0,153.0,29.0,1.0,1.6,0.7,Time
,,S14,1,,,anonymized,Serial_Dependence_U,2023.2.3,Win32,59.88023952096852,,,,,,1276.4307,79.0,5.0,1276.4309000000003,79.0,,,,1279.9989000000005,1280.4914000000003,1279.4832,1279.9987999999998,1277.4441000000006,1279.4831000000006,1280.4914000000003,1280.9819000000005,1280.982,1283.5652999999998,2142.0,1283.5654000000004,5.0,1283.5657,5.0,4.0,154.0,26.0,1.0,1.0,0.7,Time
,,S14,1,,,anonymized,Serial_Dependence_U,2023.2.3,Win32,59.88023952096852,,,,,,1283.5662000000002,50.0,5.0,1283.5662999999995,50.0,,,,1287.56,1288.0614000000005,1287.0464000000004,1287.5599000000004,1284.5806000000005,1287.0462999999995,1288.0614000000005,1288.5615,1288.5615,1291.2952999999998,2345.0,1291.2954000000004,5.0,1291.2956000000006,5.0,5.0,155.0,3.0,1.0,1.4,0.3,Time
,,S14,1,,,anonymized,Serial_Dependence_U,2023.2.3,Win32,59.88023952096852,,,,,,1291.2959000000003,148.0,5.0,1291.296,148.0,,,,1295.4927999999998,1295.9917999999998,1294.9709000000005,1295.4927000000002,1292.3065,1294.9704000000004,1295.9917999999998,1296.4852999999998,1296.4854000000005,1299.2092000000002,2233.0,1299.2092999999998,5.0,1299.2096000000006,5.0,6.0,156.0,24.0,1.0,1.6,0.3,Time
,,S14,1,,,anonymized,Serial_Dependence_U,2023.2.3,Win32,59.88023952096852,,,,,,1299.2099000000003,129.0,5.0,1299.2101000000005,129.0,,,,1302.8013,1303.3058,1302.2913,1302.801,1300.2078,1302.2912,1303.3058,1303.8052999999998,1303.8052999999998,1306.5391000000006,2312.0,1306.5392000000002,5.0,1306.5394000000003,5.0,7.0,157.0,1.0,1.0,1.0,0.3,Time
,,S14,1,,,anonymized,Serial_Dependence_U,2023.2.3,Win32,59.88023952096852,,,,,,1306.5396000000003,135.0,5.0,1306.5397000000005,135.0,,,,1310.0825,1310.5866000000003,1309.5714000000005,1310.082,1307.5337000000002,1309.5714000000005,1310.5866000000003,1311.0797999999998,1311.0797999999998,1313.7382000000002,2265.0,1313.7382000000002,5.0,1313.7385,5.0,8.0,158.0,6.0,1.0,1.0,0.7,Time
,,S14,1,,,anonymized,Serial_Dependence_U,2023.2.3,Win32,59.88023952096852,,,,,,1313.7389000000005,270.0,5.0,1313.7391000000005,270.0,,,,1317.1351000000006,1317.6337999999998,1316.619,1317.1351000000006,1314.7465,1316.619,1317.6339000000005,1318.134,1318.134,1321.2507999999998,2732.0,1321.2507999999998,5.0,1321.251,5.0,9.0,159.0,20.0,1.0,0.8,0.3,Time
,,S14,1,,,anonymized,Serial_Dependence_U,2023.2.3,Win32,59.88023952096852,,,,,,1321.2512000000002,131.0,5.0,1321.2512000000002,131.0,,,,1325.0434000000005,1325.5312,1324.532,1325.0431000000003,1322.2635,1324.5319000000004,1325.5312,1326.031,1326.031,1329.4112000000002,2896.0,1329.4112999999998,5.0,1329.4115,5.0,10.0,160.0,12.0,1.0,1.2,0.3,Time
,,S14,1,,,anonymized,Serial_Dependence_U,2023.2.3,Win32,59.88023952096852,,,,,,1329.4117,164.0,5.0,1329.4119000000003,164.0,,,,1333.6122999999998,1334.1111000000003,1333.0902999999998,1333.6122000000005,1330.4246000000005,1333.0897000000002,1334.1112000000005,1334.6112999999998,1334.6114000000005,1337.4106000000006,2432.0,1337.4106000000006,5.0,1337.4107,5.0,11.0,161.0,14.0,1.0,1.6,0.3,Time
,,S14,1,,,anonymized,Serial_Dependence_U,2023.2.3,Win32,59.88023952096852,,,,,,1337.411,163.0,5.0,1337.411,163.0,,,,1341.3569000000005,1341.8515,1340.8536000000006,1341.3567999999998,1338.4101000000005,1340.8532000000002,1341.8515,1342.3512000000003,1342.3512999999998,1345.1753,2562.0,1345.1753,5.0,1345.1755,5.0,12.0,162.0,8.0,1.0,1.4,0.7,Time
,,S14,1,,,anonymized,Serial_Dependence_U,2023.2.3,Win32,59.88023952096852,,,,,,1345.1757000000002,16.0,5.0,1345.1757000000002,16.0,,,,1349.1332999999995,1349.6221000000005,1348.6242999999995,1349.133,1346.1914000000004,1348.6242000000002,1349.6221000000005,1350.1221000000005,1350.1221000000005,1352.8222999999998,2383.0,1352.8222999999998,5.0,1352.8226000000006,5.0,13.0,163.0,18.0,1.0,1.4,0.7,Time
,,S14,1,,,anonymized,Serial_Dependence_U,2023.2.3,Win32,59.88023952096852,,,,,,1352.8228,100.0,5.0,1352.823,100.0,,,,1356.1807,1356.6688,1355.6708,1356.1802999999998,1353.831600000001,1355.6707,1356.6688,1357.1627,1357.1627999999998,1360.0855,2597.0,1360.0855,5.0,1360.0857,5.0,14.0,164.0,25.0,1.0,0.8,0.7,Time
,,S14,1,,,anonymized,Serial_Dependence_U,2023.2.3,Win32,59.88023952096852,,,,,,1360.086,91.0,5.0,1360.086100000001,91.0,,,,1363.878,1364.3662000000002,1363.3627,1363.8776000000005,1361.096,1363.3622999999998,1364.3662000000002,1364.8672,1364.8673,1367.8167999999998,2557.0,1367.8167999999998,5.0,1367.817,5.0,15.0,165.0,22.0,1.0,1.2,0.3,Time
,,S14,1,,,anonymized,Serial_Dependence_U,2023.2.3,Win32,59.88023952096852,,,,,,1367.8173,275.0,5.0,1367.8174000000004,275.0,,,,1371.7915,1372.2796000000003,1371.2756000000006,1371.7911000000006,1368.8129000000004,1371.2752999999998,1372.2796000000003,1372.7806000000005,1372.7807000000005,1375.2797999999998,2116.0,1375.2797999999998,5.0,1375.28,5.0,16.0,166.0,23.0,1.0,1.4,0.3,Time
,,S14,1,,,anonymized,Serial_Dependence_U,2023.2.3,Win32,59.88023952096852,,,,,,1375.2802,65.0,5.0,1375.2804000000003,65.0,,,,1379.0279000000005,1379.5268,1378.5115,1379.0277999999998,1376.2796000000003,1378.5114000000003,1379.5268,1380.0203,1380.0204000000003,1382.9533,2604.0,1382.9535,5.0,1382.9547000000002,5.0,17.0,167.0,7.0,1.0,1.2,0.7,Time
,,S14,1,,,anonymized,Serial_Dependence_U,2023.2.3,Win32,59.88023952096852,,,,,,1382.9557000000002,215.0,5.0,1382.9557999999995,215.0,,,,1386.3203,1386.8187000000005,1385.8087999999998,1386.32,1383.9702999999995,1385.8087999999998,1386.8187999999998,1387.3076000000003,1387.3076000000003,1389.1415,1526.0,1389.1417,5.0,1389.1419000000003,5.0,18.0,168.0,5.0,1.0,0.8,0.7,Time
,,S14,1,,,anonymized,Serial_Dependence_U,2023.2.3,Win32,59.88023952096852,,,,,,1389.1422000000002,96.0,5.0,1389.1422999999998,96.0,,,,1392.72,1393.2221000000006,1392.2187,1392.72,1390.1527999999998,1392.2185,1393.2221000000006,1393.722,1393.722,1395.7227999999998,1709.0,1395.7227999999998,5.0,1395.7231000000006,5.0,19.0,169.0,21.0,1.0,1.0,0.3,Time
,,S14,1,,,anonymized,Serial_Dependence_U,2023.2.3,Win32,59.88023952096852,,,,,,1395.7233,274.0,5.0,1395.7233,274.0,,,,1399.3159000000005,1399.8128,1398.804,1399.3156000000006,1396.7387,1398.804,1399.8129000000004,1400.3128,1400.3129000000004,1403.3528,2649.0,1403.3528,5.0,1403.353,5.0,20.0,170.0,11.0,1.0,1.0,0.3,Time
,,S14,1,,,anonymized,Serial_Dependence_U,2023.2.3,Win32,59.88023952096852,,,,,,1403.3532000000002,302.0,5.0,1403.3532999999998,302.0,,,,1407.1118,1407.6004000000005,1406.6018,1407.1114000000005,1404.3522999999998,1406.6017000000002,1407.6004000000005,1408.0938,1408.0939000000003,1410.9335,2581.0,1410.9335,5.0,1410.9337000000005,5.0,21.0,171.0,27.0,1.0,1.2,0.7,Time
,,S14,1,,,anonymized,Serial_Dependence_U,2023.2.3,Win32,59.88023952096852,,,,,,1410.9339000000004,11.0,5.0,1410.934,11.0,,,,1414.8763,1415.3646000000006,1414.3644000000004,1414.8757999999998,1411.932100000001,1414.3644000000004,1415.3647,1415.8635,1415.8635,1419.1075,2844.0,1419.1077000000002,5.0,1419.1086000000005,5.0,22.0,172.0,28.0,1.0,1.4,0.7,Time
,,S14,1,,,anonymized,Serial_Dependence_U,2023.2.3,Win32,59.88023952096852,,,,,,1419.109,242.0,5.0,1419.1092,242.0,,,,1422.5074000000004,1423.0101000000006,1421.9929000000004,1422.507,1420.1232999999995,1421.9927999999998,1423.0102000000002,1423.51,1423.51,1426.3416000000009,2196.0,1426.3417000000002,5.0,1426.3419000000004,5.0,23.0,173.0,0.0,1.0,0.8,0.3,Time
,,S14,1,,,anonymized,Serial_Dependence_U,2023.2.3,Win32,59.88023952096852,,,,,,1426.3421000000003,252.0,5.0,1426.3422999999998,252.0,,,,1429.7362000000005,1430.2246000000005,1429.2259000000004,1429.7359000000004,1427.3602000000003,1429.2257999999997,1430.2247000000002,1430.7185,1430.7186000000006,1433.1244000000004,2115.0,1433.1245,5.0,1433.1247000000003,5.0,24.0,174.0,10.0,1.0,0.8,0.3,Time
,,S14,1,,,anonymized,Serial_Dependence_U,2023.2.3,Win32,59.88023952096852,,,,,,1433.1249000000005,91.0,5.0,1433.125,91.0,,,,1437.1169000000004,1437.6057000000003,1436.6018,1437.1164000000003,1434.1345,1436.6017000000002,1437.6057000000003,1438.0996000000005,1438.0997000000002,1440.889,2465.0,1440.889,5.0,1440.8892999999998,5.0,25.0,175.0,13.0,1.0,1.4,0.3,Time
,,S14,1,,,anonymized,Serial_Dependence_U,2023.2.3,Win32,59.88023952096852,,,,,,1440.8896000000009,165.0,5.0,1440.8897000000002,165.0,,,,1444.2672999999998,1444.7687,1443.7544000000005,1444.2671000000005,1441.9047000000005,1443.7542999999998,1444.7687999999998,1445.2682000000002,1445.2682000000002,1448.369,2815.0,1448.369,5.0,1448.3692999999998,5.0,26.0,176.0,15.0,1.0,0.8,0.7,Time
,,S14,1,,,anonymized,Serial_Dependence_U,2023.2.3,Win32,59.88023952096852,,,,,,1448.3695,185.0,5.0,1448.369600000001,185.0,,,,1452.5282999999995,1453.0329000000004,1452.0172999999998,1452.5279000000005,1449.3857000000005,1452.0172999999998,1453.0329000000004,1453.526,1453.5261000000005,1456.0832000000005,2243.0,1456.0832000000005,5.0,1456.0834000000004,5.0,27.0,177.0,9.0,1.0,1.6,0.7,Time
,,S14,1,,,anonymized,Serial_Dependence_U,2023.2.3,Win32,59.88023952096852,,,,,,1456.0836000000006,36.0,5.0,1456.0837,36.0,,,,1459.6316000000006,1460.1234000000004,1459.1311000000003,1459.6316000000006,1457.0925,1459.131,1460.1234000000004,1460.6297000000002,1460.6297000000002,1463.196600000001,2264.0,1463.1967999999997,5.0,1463.197,5.0,28.0,178.0,16.0,1.0,1.0,0.7,Time
,,S14,1,,,anonymized,Serial_Dependence_U,2023.2.3,Win32,59.88023952096852,,,,,,1463.1972000000003,63.0,5.0,1463.1974000000005,63.0,,,,1467.3554000000004,1467.8616000000006,1466.8456000000006,1467.355,1464.2072000000005,1466.8455,1467.8616000000006,1468.3542999999995,1468.3545,1470.546,1931.0,1470.546,4.0,1470.5462999999995,5.0,29.0,179.0,19.0,1.0,1.6,0.7,Time
,,S14,1,,,anonymized,Serial_Dependence_U,2023.2.3,Win32,59.88023952096852,,,,,,1470.5467,72.0,6.0,1475.9762000000003,72.0,s,5.416399999999385,,1479.7187,1480.2157999999995,1479.2072000000005,1479.7184000000004,1476.9751000000006,1479.2072000000005,1480.2157999999995,1480.7217999999998,1480.7217999999998,1482.6399000000004,1565.0,1482.64,5.0,1482.6404000000005,6.0,0.0,180.0,27.0,1.0,1.2,0.7,Time
,,S14,1,,,anonymized,Serial_Dependence_U,2023.2.3,Win32,59.88023952096852,,,,,,1482.6406000000006,228.0,6.0,1482.6418,228.0,,,,1485.9984000000004,1486.5032,1485.4878,1485.9979000000003,1483.6522000000002,1485.4878,1486.5032,1486.9968,1486.9968,1489.4032999999995,1599.0,1489.4032999999995,5.0,1489.4035,6.0,1.0,181.0,5.0,1.0,0.8,0.7,Time
,,S14,1,,,anonymized,Serial_Dependence_U,2023.2.3,Win32,59.88023952096852,,,,,,1489.4037999999998,359.0,6.0,1489.4037999999998,359.0,,,,1493.3954000000003,1493.8847000000003,1492.8851000000006,1493.395,1490.4204000000004,1492.8851000000006,1493.8847000000003,1494.3834000000004,1494.3834000000004,1496.8672,1949.0,1496.8672,5.0,1496.8674000000003,6.0,2.0,182.0,3.0,1.0,1.4,0.3,Time
,,S14,1,,,anonymized,Serial_Dependence_U,2023.2.3,Win32,59.88023952096852,,,,,,1496.8676000000005,257.0,6.0,1496.8676000000005,257.0,,,,1500.2599000000005,1500.7479000000003,1499.7492000000002,1500.2595,1497.8772,1499.7491000000005,1500.7479000000003,1501.2477,1501.2478,1504.3655,2516.0,1504.3655,5.0,1504.3657999999998,6.0,3.0,183.0,10.0,1.0,0.8,0.3,Time
,,S14,1,,,anonymized,Serial_Dependence_U,2023.2.3,Win32,59.88023952096852,,,,,,1504.366,35.0,6.0,1504.3661000000006,35.0,,,,1508.1577000000002,1508.6612000000002,1507.6463,1508.1573,1505.3742999999995,1507.6462,1508.6612000000002,1509.1619000000003,1509.1619000000003,1512.6614000000004,3060.0,1512.6615,5.0,1512.6617,6.0,4.0,184.0,22.0,1.0,1.2,0.3,Time
,,S14,1,,,anonymized,Serial_Dependence_U,2023.2.3,Win32,59.88023952096852,,,,,,1512.6619000000003,252.0,6.0,1512.6619000000003,252.0,,,,1516.6261000000006,1517.1185,1516.1097000000002,1516.6261000000006,1513.6711000000005,1516.1097000000002,1517.1185,1517.6249000000005,1517.6249000000005,1520.6919000000005,2316.0,1520.692,5.0,1520.6923,6.0,5.0,185.0,8.0,1.0,1.4,0.7,Time
,,S14,1,,,anonymized,Serial_Dependence_U,2023.2.3,Win32,59.88023952096852,,,,,,1520.6926000000003,75.0,6.0,1520.6927000000005,75.0,,,,1524.8734000000004,1525.3653,1524.3571000000006,1524.8732999999995,1521.6917999999998,1524.357,1525.3653,1525.855100000001,1525.8552000000002,1529.1222999999998,2832.0,1529.1224000000004,5.0,1529.1228,6.0,6.0,186.0,14.0,1.0,1.6,0.3,Time
,,S14,1,,,anonymized,Serial_Dependence_U,2023.2.3,Win32,59.88023952096852,,,,,,1529.1231000000005,213.0,6.0,1529.1232999999995,213.0,,,,1532.8702999999998,1533.3624000000004,1532.3675,1532.8702000000003,1530.1318,1532.3674000000003,1533.3624000000004,1533.8519000000003,1533.8519000000003,1536.0696000000005,1816.0,1536.0696000000005,5.0,1536.0699000000004,6.0,7.0,187.0,17.0,1.0,1.2,0.7,Time
,,S14,1,,,anonymized,Serial_Dependence_U,2023.2.3,Win32,59.88023952096852,,,,,,1536.0701000000006,331.0,6.0,1536.0702,331.0,,,,1539.6615,1540.1497000000002,1539.151,1539.6611000000005,1537.079,1539.1509000000003,1540.1497000000002,1540.6492999999998,1540.6492999999998,1542.9662999999998,2032.0,1542.9664000000005,5.0,1542.9665,6.0,8.0,188.0,11.0,1.0,1.0,0.3,Time
,,S14,1,,,anonymized,Serial_Dependence_U,2023.2.3,Win32,59.88023952096852,,,,,,1542.9668,355.0,6.0,1542.9669000000004,355.0,,,,1546.5487000000005,1547.0404000000003,1546.0323,1546.5486000000003,1543.9832,1546.0323,1547.0404000000003,1547.5307000000005,1547.5307000000005,1549.6146000000006,1650.0,1549.6146000000006,5.0,1549.6149000000005,6.0,9.0,189.0,16.0,1.0,1.0,0.7,Time
,,S14,1,,,anonymized,Serial_Dependence_U,2023.2.3,Win32,59.88023952096852,,,,,,1549.615,324.0,6.0,1549.6152000000002,324.0,,,,1553.0142000000003,1553.5048,1552.4971000000005,1553.0141000000006,1550.6244000000004,1552.497,1553.5049000000004,1553.9941000000006,1553.9941000000006,1556.7282000000002,2282.0,1556.7282000000002,5.0,1556.7284000000004,6.0,10.0,190.0,20.0,1.0,0.8,0.3,Time
,,S14,1,,,anonymized,Serial_Dependence_U,2023.2.3,Win32,59.88023952096852,,,,,,1556.7286000000006,40.0,6.0,1556.7287,40.0,,,,1560.9041000000009,1561.3922000000002,1560.3932000000002,1560.9037000000003,1557.7392000000002,1560.3931000000005,1561.3922000000002,1561.8915,1561.8915,1563.9752999999998,1708.0,1563.9752999999998,4.0,1563.975600000001,6.0,11.0,191.0,9.0,1.0,1.6,0.7,Time
,,S14,1,,,anonymized,Serial_Dependence_U,2023.2.3,Win32,59.88023952096852,,,,,,1563.9759000000004,236.0,6.0,1563.976,236.0,,,,1568.1376000000005,1568.6395,1567.6174000000003,1568.1376000000005,1564.9747000000002,1567.6171000000006,1568.6395,1569.1387999999995,1569.1389000000004,1571.3229000000003,1865.0,1571.3229000000003,4.0,1571.3231000000003,6.0,12.0,192.0,19.0,1.0,1.6,0.7,Time
,,S14,1,,,anonymized,Serial_Dependence_U,2023.2.3,Win32,59.88023952096852,,,,,,1571.3232999999998,140.0,6.0,1571.3234000000004,140.0,,,,1575.1012000000003,1575.6028,1574.5871000000006,1575.1011000000003,1572.3385,1574.587,1575.6028,1576.1031000000005,1576.1032000000002,1578.5199000000005,1866.0,1578.52,5.0,1578.5202000000002,6.0,13.0,193.0,7.0,1.0,1.2,0.7,Time
,,S14,1,,,anonymized,Serial_Dependence_U,2023.2.3,Win32,59.88023952096852,,,,,,1578.5204000000003,302.0,6.0,1578.5205,302.0,,,,1582.5186000000006,1583.0102000000002,1582.0013,1582.5186000000006,1579.5297000000005,1582.0012000000002,1583.0102000000002,1583.5172000000002,1583.5172999999998,1586.2012999999995,2295.0,1586.2012999999995,5.0,1586.2017999999998,6.0,14.0,194.0,13.0,1.0,1.4,0.3,Time
,,S14,1,,,anonymized,Serial_Dependence_U,2023.2.3,Win32,59.88023952096852,,,,,,1586.2021000000009,16.0,6.0,1586.2024000000004,16.0,,,,1590.193,1590.6905,1589.6769000000004,1590.1926000000003,1587.2099000000003,1589.6764000000005,1590.6906000000006,1591.1805,1591.1805,1594.1639000000005,2659.0,1594.164,5.0,1594.1642000000002,6.0,15.0,195.0,23.0,1.0,1.4,0.3,Time
,,S14,1,,,anonymized,Serial_Dependence_U,2023.2.3,Win32,59.88023952096852,,,,,,1594.1645,23.0,6.0,1594.1647000000005,23.0,,,,1597.7562000000005,1598.2441000000006,1597.2457000000002,1597.7558,1595.1809000000003,1597.2456000000006,1598.2441000000006,1598.7392999999995,1598.7394000000004,1602.244,2595.0,1602.2441000000006,5.0,1602.2442,6.0,16.0,196.0,21.0,1.0,1.0,0.3,Time
,,S14,1,,,anonymized,Serial_Dependence_U,2023.2.3,Win32,59.88023952096852,,,,,,1602.2445,258.0,6.0,1602.244600000001,258.0,,,,1606.0422,1606.5416000000005,1605.5258,1606.0422,1603.254,1605.5257,1606.5416000000005,1607.0345,1607.0347000000002,1609.8582,2408.0,1609.8583,5.0,1609.8584000000003,6.0,17.0,197.0,12.0,1.0,1.2,0.3,Time
,,S14,1,,,anonymized,Serial_Dependence_U,2023.2.3,Win32,59.88023952096852,,,,,,1609.8585,308.0,6.0,1609.8587000000002,308.0,,,,1613.423,1613.9227000000003,1612.9072,1613.423,1610.8676000000005,1612.9072,1613.9227000000003,1614.4212000000002,1614.4212000000002,1616.9896000000006,2444.0,1616.9897,5.0,1616.99,6.0,18.0,198.0,26.0,1.0,1.0,0.7,Time
,,S14,1,,,anonymized,Serial_Dependence_U,2023.2.3,Win32,59.88023952096852,,,,,,1616.9904000000004,201.0,6.0,1616.9905,201.0,,,,1620.5697999999998,1621.0622999999998,1620.0547,1620.5697000000002,1617.9884000000004,1620.0545,1621.0624000000005,1621.5522999999998,1621.5524000000005,1624.4694000000004,2465.0,1624.4694000000004,5.0,1624.4696000000006,6.0,19.0,199.0,1.0,1.0,1.0,0.3,Time
,,S14,1,,,anonymized,Serial_Dependence_U,2023.2.3,Win32,59.88023952096852,,,,,,1624.4699000000005,5.0,6.0,1624.47,5.0,,,,1628.4339000000004,1628.9264000000005,1627.9174000000005,1628.4337999999998,1625.4821000000006,1627.9172999999998,1628.9266000000005,1629.4159000000004,1629.416,1632.009,2262.0,1632.0094000000004,5.0,1632.0111000000006,6.0,20.0,200.0,28.0,1.0,1.4,0.7,Time
,,S14,1,,,anonymized,Serial_Dependence_U,2023.2.3,Win32,59.88023952096852,,,,,,1632.0116000000005,114.0,6.0,1632.0117000000002,114.0,,,,1636.1926000000003,1636.6965,1635.6808,1636.1922000000002,1633.0149000000004,1635.6808,1636.6965,1637.1959000000004,1637.196,1640.2132,2433.0,1640.2132,5.0,1640.2134000000003,6.0,21.0,201.0,24.0,1.0,1.6,0.3,Time
,,S14,1,,,anonymized,Serial_Dependence_U,2023.2.3,Win32,59.88023952096852,,,,,,1640.2135,56.0,6.0,1640.2136000000005,56.0,,,,1644.3887000000002,1644.8765,1643.8779000000004,1644.3882999999998,1641.2091000000005,1643.8777999999998,1644.8765,1645.3767999999998,1645.3767999999998,1647.961100000001,2183.0,1647.961100000001,5.0,1647.9614000000004,6.0,22.0,202.0,4.0,1.0,1.6,0.3,Time
,,S14,1,,,anonymized,Serial_Dependence_U,2023.2.3,Win32,59.88023952096852,,,,,,1647.9617999999998,115.0,6.0,1647.9619000000005,115.0,,,,1651.9026000000006,1652.4071000000006,1651.3912999999998,1651.902,1648.9578,1651.3912000000005,1652.4071000000006,1652.9067999999995,1652.9067999999995,1655.7236000000005,2268.0,1655.7236000000005,5.0,1655.7237999999998,6.0,23.0,203.0,18.0,1.0,1.4,0.7,Time
,,S14,1,,,anonymized,Serial_Dependence_U,2023.2.3,Win32,59.88023952096852,,,,,,1655.724,216.0,6.0,1655.7241000000006,216.0,,,,1659.0999000000004,1659.598,1658.5889000000004,1659.0994000000003,1656.7236000000005,1658.5889000000004,1659.598,1660.1046000000006,1660.1046000000006,1663.455,2815.0,1663.4551000000006,5.0,1663.4553,6.0,24.0,204.0,0.0,1.0,0.8,0.3,Time
,,S14,1,,,anonymized,Serial_Dependence_U,2023.2.3,Win32,59.88023952096852,,,,,,1663.4557000000002,224.0,6.0,1663.4559000000004,224.0,,,,1667.6019000000003,1668.0946000000006,1667.0975,1667.6019000000003,1664.4641000000006,1667.097,1668.0946000000006,1668.6016000000006,1668.6017000000002,1671.6342999999997,2649.0,1671.6342999999997,5.0,1671.6346000000003,6.0,25.0,205.0,29.0,1.0,1.6,0.7,Time
,,S14,1,,,anonymized,Serial_Dependence_U,2023.2.3,Win32,59.88023952096852,,,,,,1671.6347999999998,154.0,6.0,1671.6347999999998,154.0,,,,1674.9779000000003,1675.4751000000006,1674.4664000000005,1674.9772999999998,1672.6292999999998,1674.4662999999998,1675.4752,1675.9815,1675.9815,1678.5487000000005,2150.0,1678.5487000000005,5.0,1678.5489000000005,6.0,26.0,206.0,25.0,1.0,0.8,0.7,Time
,,S14,1,,,anonymized,Serial_Dependence_U,2023.2.3,Win32,59.88023952096852,,,,,,1678.549,106.0,6.0,1678.5492000000002,106.0,,,,1682.1302000000005,1682.6225,1681.6145,1682.1302000000005,1679.5584000000003,1681.6144000000004,1682.6226000000006,1683.112,1683.112,1685.363,1917.0,1685.3631000000005,5.0,1685.3632999999998,6.0,27.0,207.0,6.0,1.0,1.0,0.7,Time
,,S14,1,,,anonymized,Serial_Dependence_U,2023.2.3,Win32,59.88023952096852,,,,,,1685.3634000000004,328.0,6.0,1685.3636000000006,328.0,,,,1689.1607,1689.6598,1688.6382999999998,1689.1606000000006,1686.3725,1688.638,1689.6598,1690.1534000000004,1690.1535,1693.6267999999998,2100.0,1693.6267999999998,5.0,1693.627,6.0,28.0,208.0,2.0,1.0,1.2,0.3,Time
,,S14,1,,,anonymized,Serial_Dependence_U,2023.2.3,Win32,59.88023952096852,,,,,,1693.6273,146.0,6.0,1693.6274000000003,146.0,,,,1696.9881000000005,1697.490100000001,1696.4692000000002,1696.988,1694.6359000000004,1696.4686000000006,1697.490100000001,1697.9833,1697.9834000000003,1700.5397000000005,2030.0,1700.5397999999998,5.0,1700.5399000000004,6.0,29.0,209.0,15.0,1.0,0.8,0.7,Time
,,S14,1,,,anonymized,Serial_Dependence_U,2023.2.3,Win32,59.88023952096852,,,,,,1700.5401000000006,270.0,7.0,1704.4884000000004,270.0,s,3.9325999999996384,,1707.881,1708.369600000001,1707.3722999999998,1707.8805,1705.5017000000005,1707.3722000000002,1708.369600000001,1708.8632999999998,1708.8634000000004,1711.1305,1886.0,1711.131,5.0,1711.1318,7.0,0.0,210.0,20.0,1.0,0.8,0.3,Time
,,S14,1,,,anonymized,Serial_Dependence_U,2023.2.3,Win32,59.88023952096852,,,,,,1711.1322000000002,204.0,7.0,1711.134,204.0,,,,1714.9286000000006,1715.4163,1714.4149000000004,1714.9282999999998,1712.1464000000003,1714.4147999999998,1715.4163,1715.9167000000002,1715.9167999999995,1718.6837999999998,2078.0,1718.6839000000004,5.0,1718.6841000000006,7.0,1.0,211.0,22.0,1.0,1.2,0.3,Time
,,S14,1,,,anonymized,Serial_Dependence_U,2023.2.3,Win32,59.88023952096852,,,,,,1718.6844000000003,180.0,7.0,1718.6844000000003,180.0,,,,1722.8252000000002,1723.3138,1722.3164000000004,1722.8248,1719.6826000000003,1722.3164000000004,1723.3138,1723.8079000000005,1723.8081000000006,1726.3975,2132.0,1726.3975,5.0,1726.3977000000002,7.0,2.0,212.0,9.0,1.0,1.6,0.7,Time
,,S14,1,,,anonymized,Serial_Dependence_U,2023.2.3,Win32,59.88023952096852,,,,,,1726.398,207.0,7.0,1726.3981000000006,207.0,,,,1729.9561000000006,1730.4439000000004,1729.4399000000003,1729.9557000000002,1727.397,1729.4395,1730.4439000000004,1730.9388,1730.9389000000003,1733.6287000000002,2413.0,1733.6287000000002,5.0,1733.6289000000004,7.0,3.0,213.0,6.0,1.0,1.0,0.7,Time
,,S14,1,,,anonymized,Serial_Dependence_U,2023.2.3,Win32,59.88023952096852,,,,,,1733.6291000000006,163.0,7.0,1733.6292,163.0,,,,1737.6096000000005,1738.1083,1737.0922000000005,1737.6095,1734.627,1737.0922000000005,1738.1083,1738.6079000000004,1738.608,1741.5345,2599.0,1741.5348,5.0,1741.5364000000004,7.0,4.0,214.0,23.0,1.0,1.4,0.3,Time
,,S14,1,,,anonymized,Serial_Dependence_U,2023.2.3,Win32,59.88023952096852,,,,,,1741.5368,209.0,7.0,1741.5369000000003,209.0,,,,1744.9012000000002,1745.3987000000002,1744.3908,1744.9008,1742.5412,1744.3907000000002,1745.3987000000002,1745.9049000000005,1745.9049000000005,1748.9061000000006,2283.0,1748.9062,5.0,1748.9063,7.0,5.0,215.0,15.0,1.0,0.8,0.7,Time
,,S14,1,,,anonymized,Serial_Dependence_U,2023.2.3,Win32,59.88023952096852,,,,,,1748.9065,229.0,7.0,1748.9067000000002,229.0,,,,1752.2976000000006,1752.7858,1751.7811000000006,1752.2972999999995,1749.9165,1751.7807000000005,1752.7858,1753.279,1753.279,1756.9188,2348.0,1756.9189000000003,5.0,1756.9191000000003,7.0,6.0,216.0,10.0,1.0,0.8,0.3,Time
,,S14,1,,,anonymized,Serial_Dependence_U,2023.2.3,Win32,59.88023952096852,,,,,,1756.9192999999998,263.0,7.0,1756.9194000000005,263.0,,,,1760.4841000000006,1760.9833,1759.9679000000003,1760.484,1757.9292000000005,1759.9678,1760.9833,1761.4822,1761.4823,1764.5262000000002,2569.0,1764.5266000000006,5.0,1764.5282999999995,7.0,7.0,217.0,16.0,1.0,1.0,0.7,Time
,,S14,1,,,anonymized,Serial_Dependence_U,2023.2.3,Win32,59.88023952096852,,,,,,1764.5289000000005,274.0,7.0,1764.5291000000009,274.0,,,,1768.7247000000002,1769.2132,1768.2141000000006,1768.7243,1765.5448,1768.2141000000006,1769.2132,1769.7125,1769.7125,1772.989,2921.0,1772.9894000000004,5.0,1772.9903,7.0,8.0,218.0,4.0,1.0,1.6,0.3,Time
,,S14,1,,,anonymized,Serial_Dependence_U,2023.2.3,Win32,59.88023952096852,,,,,,1772.9912000000002,111.0,7.0,1772.9914000000003,111.0,,,,1776.5387000000003,1777.0367,1776.028,1776.5384000000004,1773.9952999999998,1776.028,1777.0367,1777.5262000000002,1777.5262999999998,1780.5765,2664.0,1780.5765,5.0,1780.5767999999998,7.0,9.0,219.0,26.0,1.0,1.0,0.7,Time
,,S14,1,,,anonymized,Serial_Dependence_U,2023.2.3,Win32,59.88023952096852,,,,,,1780.577,327.0,7.0,1780.5771000000009,327.0,,,,1783.9355,1784.4409000000005,1783.4251000000006,1783.9351000000006,1781.5867999999998,1783.4251000000006,1784.4409000000005,1784.9407,1784.9407,1788.4401000000005,3115.0,1788.4401000000005,5.0,1788.4402000000002,7.0,10.0,220.0,5.0,1.0,0.8,0.7,Time
,,S14,1,,,anonymized,Serial_Dependence_U,2023.2.3,Win32,59.88023952096852,,,,,,1788.4404000000004,168.0,7.0,1788.4405,168.0,,,,1792.0391000000006,1792.5307999999998,1791.523,1792.039,1789.4514000000004,1791.5229000000004,1792.5309000000004,1793.0207999999998,1793.0207999999998,1796.1215,2702.0,1796.1216000000006,5.0,1796.1219000000003,7.0,11.0,221.0,1.0,1.0,1.0,0.3,Time
,,S14,1,,,anonymized,Serial_Dependence_U,2023.2.3,Win32,59.88023952096852,,,,,,1796.1222000000002,176.0,7.0,1796.1222999999998,176.0,,,,1800.3191000000006,1800.811,1799.8027000000002,1800.319,1797.1317,1799.8027000000002,1800.811,1801.3182000000002,1801.3183,1803.2845,1745.0,1803.2845,4.0,1803.2847,7.0,12.0,222.0,24.0,1.0,1.6,0.3,Time
,,S14,1,,,anonymized,Serial_Dependence_U,2023.2.3,Win32,59.88023952096852,,,,,,1803.2849000000003,229.0,7.0,1803.285,229.0,,,,1807.4435,1807.9485,1806.928,1807.4431000000009,1804.295,1806.9275,1807.9485,1808.4483,1808.4483,1810.8149000000003,2082.0,1810.815,5.0,1810.8151000000005,7.0,13.0,223.0,29.0,1.0,1.6,0.7,Time
,,S14,1,,,anonymized,Serial_Dependence_U,2023.2.3,Win32,59.88023952096852,,,,,,1810.8153,242.0,7.0,1810.8153,242.0,,,,1814.9904000000004,1815.4791000000005,1814.4741000000008,1814.99,1811.8117,1814.4737,1815.4791000000005,1815.9723,1815.9725,1821.145,2369.0,1821.145,5.0,1821.1451000000009,7.0,14.0,224.0,14.0,1.0,1.6,0.3,Time
,,S14,1,,,anonymized,Serial_Dependence_U,2023.2.3,Win32,59.88023952096852,,,,,,1821.1453,131.0,7.0,1821.1455,131.0,,,,1825.1087,1825.6084000000003,1824.6066000000003,1825.1086000000005,1822.1391000000008,1824.6066000000003,1825.6084000000003,1826.1015,1826.1015,1828.5935,2016.0,1828.5936000000008,5.0,1828.5939000000003,7.0,15.0,225.0,3.0,1.0,1.4,0.3,Time
,,S14,1,,,anonymized,Serial_Dependence_U,2023.2.3,Win32,59.88023952096852,,,,,,1828.5943,135.0,7.0,1828.5944000000004,135.0,,,,1832.5503,1833.0389000000005,1832.0394000000003,1832.55,1829.6017,1832.0393,1833.0389000000005,1833.5333,1833.5334000000005,1836.6315,1920.0,1836.6318,5.0,1836.6332,7.0,16.0,226.0,18.0,1.0,1.4,0.7,Time
,,S14,1,,,anonymized,Serial_Dependence_U,2023.2.3,Win32,59.88023952096852,,,,,,1836.634,80.0,7.0,1836.634100000001,80.0,,,,1840.6142,1841.1037,1840.104,1840.6137,1837.6329000000003,1840.1039000000003,1841.1037,1841.6017,1841.6018,1844.219,2182.0,1844.219,5.0,1844.2192,7.0,17.0,227.0,13.0,1.0,1.4,0.3,Time
,,S14,1,,,anonymized,Serial_Dependence_U,2023.2.3,Win32,59.88023952096852,,,,,,1844.2195,308.0,7.0,1844.2195,308.0,,,,1847.815,1848.3102,1847.295,1847.815,1845.2304000000004,1847.2946000000009,1848.3104000000003,1848.8008,1848.8008,1851.9113,2275.0,1851.9114000000004,5.0,1851.9118,7.0,18.0,228.0,11.0,1.0,1.0,0.3,Time
,,S14,1,,,anonymized,Serial_Dependence_U,2023.2.3,Win32,59.88023952096852,,,,,,1851.9123,212.0,7.0,1851.9124000000004,212.0,,,,1855.6816000000008,1856.1832,1855.1645,1855.6816000000008,1852.9261000000008,1855.1644000000003,1856.1832,1856.6733,1856.6733,1859.6634000000004,2299.0,1859.6635,5.0,1859.6637000000003,7.0,19.0,229.0,17.0,1.0,1.2,0.7,Time
,,S14,1,,,anonymized,Serial_Dependence_U,2023.2.3,Win32,59.88023952096852,,,,,,1859.6639000000005,354.0,7.0,1859.6642,354.0,,,,1863.6236000000008,1864.1282,1863.1111000000003,1863.6236000000008,1860.6732,1863.111,1864.1282,1864.6212000000005,1864.6214000000004,1867.2459000000003,2251.0,1867.2459000000003,5.0,1867.2462000000005,7.0,20.0,230.0,8.0,1.0,1.4,0.7,Time
,,S14,1,,,anonymized,Serial_Dependence_U,2023.2.3,Win32,59.88023952096852,,,,,,1867.2467,283.0,7.0,1867.2468,283.0,,,,1870.9861000000003,1871.4739000000004,1870.4722,1870.9857,1868.2398,1870.4722,1871.4739000000004,1871.9684000000004,1871.9685,1874.6248,2333.0,1874.6248,5.0,1874.6249000000005,7.0,21.0,231.0,27.0,1.0,1.2,0.7,Time
,,S14,1,,,anonymized,Serial_Dependence_U,2023.2.3,Win32,59.88023952096852,,,,,,1874.6251000000009,341.0,7.0,1874.6252,341.0,,,,1878.2233,1878.715,1877.7058,1878.2233,1875.6342,1877.7057,1878.715,1879.2148,1879.2149000000004,1881.5384000000004,1949.0,1881.5384000000004,5.0,1881.5385,7.0,22.0,232.0,21.0,1.0,1.0,0.3,Time
,,S14,1,,,anonymized,Serial_Dependence_U,2023.2.3,Win32,59.88023952096852,,,,,,1881.5388,265.0,7.0,1881.5389000000005,265.0,,,,1885.4838,1885.979,1884.9699000000005,1885.4837,1882.5343,1884.9698,1885.9792,1886.4853,1886.4853,1889.0035,2128.0,1889.0036000000005,5.0,1889.004,7.0,23.0,233.0,28.0,1.0,1.4,0.7,Time
,,S14,1,,,anonymized,Serial_Dependence_U,2023.2.3,Win32,59.88023952096852,,,,,,1889.0045,250.0,7.0,1889.0047,250.0,,,,1892.7778,1893.266,1892.2681000000005,1892.7774000000004,1890.0018,1892.268,1893.2661000000005,1893.7593,1893.7593,1895.7838,1683.0,1895.7838,5.0,1895.7839000000004,7.0,24.0,234.0,12.0,1.0,1.2,0.3,Time
,,S14,1,,,anonymized,Serial_Dependence_U,2023.2.3,Win32,59.88023952096852,,,,,,1895.7842000000005,352.0,7.0,1895.7842000000005,352.0,,,,1899.542,1900.048,1899.026,1899.5416000000005,1896.7927,1899.0256000000008,1900.0481000000009,1900.5464000000004,1900.5464000000004,1903.2298,2332.0,1903.2298,5.0,1903.23,7.0,25.0,235.0,7.0,1.0,1.2,0.7,Time
,,S14,1,,,anonymized,Serial_Dependence_U,2023.2.3,Win32,59.88023952096852,,,,,,1903.2302,326.0,7.0,1903.2303,326.0,,,,1907.4119000000003,1907.9038,1906.8892000000003,1907.4119000000003,1904.2466000000009,1906.8888,1907.9038,1908.394100000001,1908.394100000001,1911.094,2336.0,1911.094,5.0,1911.0942,7.0,26.0,236.0,19.0,1.0,1.6,0.7,Time
,,S14,1,,,anonymized,Serial_Dependence_U,2023.2.3,Win32,59.88023952096852,,,,,,1911.0944000000004,272.0,7.0,1911.0945,272.0,,,,1914.4539000000004,1914.9578,1913.9365,1914.4535,1912.1035,1913.936,1914.9579000000003,1915.458,1915.458,1918.0244000000005,2213.0,1918.0245,5.0,1918.0246000000009,7.0,27.0,237.0,25.0,1.0,0.8,0.7,Time
,,S14,1,,,anonymized,Serial_Dependence_U,2023.2.3,Win32,59.88023952096852,,,,,,1918.0249000000003,163.0,7.0,1918.0249000000003,163.0,,,,1921.4229000000005,1921.9154000000003,1920.9011000000005,1921.4229000000005,1919.0343,1920.9007,1921.9156000000005,1922.4051000000009,1922.4051000000009,1924.9225,2160.0,1924.9225,5.0,1924.9227000000003,7.0,28.0,238.0,0.0,1.0,0.8,0.3,Time
,,S14,1,,,anonymized,Serial_Dependence_U,2023.2.3,Win32,59.88023952096852,,,,,,1924.9229000000005,36.0,7.0,1924.9229000000005,36.0,,,,1928.7142,1929.2133,1928.204,1928.7137,1925.9317,1928.204,1929.2135,1929.7028,1929.7029000000005,1932.8372,2800.0,1932.8372,5.0,1932.8374000000003,7.0,29.0,239.0,2.0,1.0,1.2,0.3,Time
,,S14,1,,,anonymized,Serial_Dependence_U,2023.2.3,Win32,59.88023952096852,,,,,,1932.8375,322.0,8.0,1940.809,322.0,s,7.950500000000147,,1944.375,1944.8798,1943.8648,1944.3746000000008,1941.7993,1943.8647,1944.8798,1945.373,1945.373,1947.8138,2009.0,1947.8138,5.0,1947.8142000000005,8.0,0.0,240.0,11.0,1.0,1.0,0.3,Time
,,S14,1,,,anonymized,Serial_Dependence_U,2023.2.3,Win32,59.88023952096852,,,,,,1947.8146000000008,163.0,8.0,1947.8157,163.0,,,,1952.0054000000005,1952.4937,1951.494600000001,1952.0049000000004,1948.8232000000005,1951.494600000001,1952.4937,1952.9867,1952.9868,1955.3438,2066.0,1955.3439000000003,4.0,1955.3441000000005,8.0,1.0,241.0,24.0,1.0,1.6,0.3,Time
,,S14,1,,,anonymized,Serial_Dependence_U,2023.2.3,Win32,59.88023952096852,,,,,,1955.3442,274.0,8.0,1955.3444000000004,274.0,,,,1959.519100000001,1960.0079000000003,1959.0028,1959.5186000000008,1956.3401000000008,1959.0023,1960.0079000000003,1960.5073,1960.5073,1963.1338,2073.0,1963.134100000001,4.0,1963.1352,8.0,2.0,242.0,4.0,1.0,1.6,0.3,Time
,,S14,1,,,anonymized,Serial_Dependence_U,2023.2.3,Win32,59.88023952096852,,,,,,1963.1359000000004,79.0,8.0,1963.136,79.0,,,,1967.0998,1967.5883,1966.5887,1967.0995,1964.1538,1966.5886000000005,1967.5884000000003,1968.0872,1968.0872,1970.855,2360.0,1970.855,5.0,1970.855100000001,8.0,3.0,243.0,18.0,1.0,1.4,0.7,Time
,,S14,1,,,anonymized,Serial_Dependence_U,2023.2.3,Win32,59.88023952096852,,,,,,1970.8553,53.0,8.0,1970.8555,53.0,,,,1974.2194000000004,1974.7191000000005,1973.7029000000005,1974.2194000000004,1971.8672,1973.7028,1974.7191000000005,1975.2176000000009,1975.2176000000009,1978.052600000001,2450.0,1978.052600000001,5.0,1978.0529000000004,8.0,4.0,244.0,15.0,1.0,0.8,0.7,Time
,,S14,1,,,anonymized,Serial_Dependence_U,2023.2.3,Win32,59.88023952096852,,,,,,1978.0532000000003,194.0,8.0,1978.0533,194.0,,,,1982.2164000000005,1982.716,1981.7003,1982.2164000000005,1979.0615,1981.7002,1982.716,1983.2096000000008,1983.2097,1985.9751000000008,2450.0,1985.9755,5.0,1985.9769000000003,8.0,5.0,245.0,9.0,1.0,1.6,0.7,Time
,,S14,1,,,anonymized,Serial_Dependence_U,2023.2.3,Win32,59.88023952096852,,,,,,1985.9774000000004,146.0,8.0,1985.9775,146.0,,,,1989.7414000000003,1990.2394000000004,1989.2312,1989.741,1986.9921000000008,1989.2311000000009,1990.2394000000004,1990.7289000000003,1990.7289000000003,1993.3126000000009,2182.0,1993.3127,5.0,1993.3129000000004,8.0,6.0,246.0,27.0,1.0,1.2,0.7,Time
,,S14,1,,,anonymized,Serial_Dependence_U,2023.2.3,Win32,59.88023952096852,,,,,,1993.313,40.0,8.0,1993.3131000000003,40.0,,,,1997.109,1997.6038,1996.5942,1997.1089000000004,1994.3224000000005,1996.5942,1997.6038,1998.0924000000005,1998.0925,2000.9194000000005,2435.0,2000.9197,5.0,2000.9206000000008,8.0,7.0,247.0,2.0,1.0,1.2,0.3,Time
,,S14,1,,,anonymized,Serial_Dependence_U,2023.2.3,Win32,59.88023952096852,,,,,,2000.9213,95.0,8.0,2000.9216000000008,95.0,,,,2004.8584000000003,2005.3571000000009,2004.3521000000003,2004.8583,2001.9197,2004.3516000000009,2005.3571000000009,2005.8501000000008,2005.8501000000008,2009.0747,2716.0,2009.0748,5.0,2009.0751000000005,8.0,8.0,248.0,28.0,1.0,1.4,0.7,Time
,,S14,1,,,anonymized,Serial_Dependence_U,2023.2.3,Win32,59.88023952096852,,,,,,2009.0754000000004,38.0,8.0,2009.0756000000008,38.0,,,,2012.8486000000005,2013.3375,2012.3386000000005,2012.8482,2010.0734000000004,2012.3386000000005,2013.3375,2013.8304000000005,2013.8304000000005,2017.0131000000008,2646.0,2017.0134000000005,5.0,2017.0145,8.0,9.0,249.0,22.0,1.0,1.2,0.3,Time
,,S14,1,,,anonymized,Serial_Dependence_U,2023.2.3,Win32,59.88023952096852,,,,,,2017.0155,107.0,8.0,2017.0155,107.0,,,,2021.0024000000003,2021.4942,2020.4964000000004,2021.0024000000003,2018.0302,2020.4959000000003,2021.4942,2021.9837,2021.9838,2024.794,2205.0,2024.7943,5.0,2024.7957,8.0,10.0,250.0,3.0,1.0,1.4,0.3,Time
,,S14,1,,,anonymized,Serial_Dependence_U,2023.2.3,Win32,59.88023952096852,,,,,,2024.7961000000005,219.0,8.0,2024.7963,219.0,,,,2028.3462,2028.8476000000005,2027.8434000000004,2028.346100000001,2025.8107,2027.843,2028.8476000000005,2029.3484000000003,2029.3485,2032.1812,2457.0,2032.1812,5.0,2032.1815,8.0,11.0,251.0,16.0,1.0,1.0,0.7,Time
,,S14,1,,,anonymized,Serial_Dependence_U,2023.2.3,Win32,59.88023952096852,,,,,,2032.1817,344.0,8.0,2032.1817,344.0,,,,2036.3234,2036.821600000001,2035.8132,2036.3231000000003,2033.1786000000009,2035.8131000000008,2036.8217000000004,2037.3112,2037.3113,2040.6715,2755.0,2040.6722,5.0,2040.6733,8.0,12.0,252.0,19.0,1.0,1.6,0.7,Time
,,S14,1,,,anonymized,Serial_Dependence_U,2023.2.3,Win32,59.88023952096852,,,,,,2040.6737000000005,355.0,8.0,2040.6739,355.0,,,,2044.2703,2044.7762,2043.762,2044.2699,2041.6892000000005,2043.7618,2044.7762,2045.2755,2045.2755,2048.7262,3133.0,2048.7263,5.0,2048.7267,8.0,13.0,253.0,21.0,1.0,1.0,0.3,Time
,,S14,1,,,anonymized,Serial_Dependence_U,2023.2.3,Win32,59.88023952096852,,,,,,2048.727,275.0,8.0,2048.7271000000005,275.0,,,,2052.1175,2052.6166000000007,2051.6069,2052.1171000000004,2049.735,2051.6068,2052.6168,2053.1228,2053.1229000000003,2056.8727000000003,3366.0,2056.8727000000003,5.0,2056.8729000000003,8.0,14.0,254.0,20.0,1.0,0.8,0.3,Time
,,S14,1,,,anonymized,Serial_Dependence_U,2023.2.3,Win32,59.88023952096852,,,,,,2056.8731000000007,179.0,8.0,2056.8732,179.0,,,,2060.4478,2060.9525,2059.9379000000004,2060.4473,2057.8887,2059.9378,2060.9525,2061.4456000000005,2061.4457,2065.2353,3411.0,2065.2354000000005,5.0,2065.2357,8.0,15.0,255.0,6.0,1.0,1.0,0.7,Time
,,S14,1,,,anonymized,Serial_Dependence_U,2023.2.3,Win32,59.88023952096852,,,,,,2065.2359000000006,308.0,8.0,2065.2361000000005,308.0,,,,2069.2275,2069.7155,2068.7171000000008,2069.2272000000003,2066.2453,2068.7171000000008,2069.7155,2070.2152,2070.2153,2073.2823,2732.0,2073.2823,5.0,2073.2825,8.0,16.0,256.0,13.0,1.0,1.4,0.3,Time
,,S14,1,,,anonymized,Serial_Dependence_U,2023.2.3,Win32,59.88023952096852,,,,,,2073.2828,27.0,8.0,2073.2829,27.0,,,,2076.6802,2077.1733,2076.1585,2076.6802,2074.2921000000006,2076.158,2077.1733,2077.6797,2077.6798,2081.09,3034.0,2081.0903,5.0,2081.0912000000003,8.0,17.0,257.0,10.0,1.0,0.8,0.3,Time
,,S14,1,,,anonymized,Serial_Dependence_U,2023.2.3,Win32,59.88023952096852,,,,,,2081.0915,224.0,8.0,2081.0916000000007,224.0,,,,2085.2552,2085.7532,2084.7383,2085.2548,2082.0947,2084.7379000000005,2085.7532,2086.2426000000005,2086.2426000000005,2089.6529000000005,3026.0,2089.6532,5.0,2089.6547,8.0,18.0,258.0,29.0,1.0,1.6,0.7,Time
,,S14,1,,,anonymized,Serial_Dependence_U,2023.2.3,Win32,59.88023952096852,,,,,,2089.655,75.0,8.0,2089.6551000000004,75.0,,,,2093.6517000000003,2094.1524000000004,2093.1416000000004,2093.6513,2090.6702,2093.1416000000004,2094.1524000000004,2094.6569000000004,2094.6569000000004,2096.6736000000005,1682.0,2096.6737000000003,4.0,2096.6739,8.0,19.0,259.0,23.0,1.0,1.4,0.3,Time
,,S14,1,,,anonymized,Serial_Dependence_U,2023.2.3,Win32,59.88023952096852,,,,,,2096.6742000000004,112.0,8.0,2096.6743,112.0,,,,2100.8494000000005,2101.3372000000004,2100.3383,2100.8487,2097.6731000000004,2100.3382,2101.3372000000004,2101.8369,2101.8369,2104.2875,2115.0,2104.2875,5.0,2104.2879000000003,8.0,20.0,260.0,14.0,1.0,1.6,0.3,Time
,,S14,1,,,anonymized,Serial_Dependence_U,2023.2.3,Win32,59.88023952096852,,,,,,2104.2881000000007,286.0,8.0,2104.2882000000004,286.0,,,,2107.8637000000003,2108.3515,2107.3525,2107.8634,2105.3034,2107.3525,2108.3515,2108.8506000000007,2108.8506000000007,2111.5849000000003,2427.0,2111.585,5.0,2111.5851000000007,8.0,21.0,261.0,26.0,1.0,1.0,0.7,Time
,,S14,1,,,anonymized,Serial_Dependence_U,2023.2.3,Win32,59.88023952096852,,,,,,2111.5853,355.0,8.0,2111.5854000000004,355.0,,,,2115.3449000000005,2115.8424000000005,2114.8333,2115.3447,2112.5835,2114.8332,2115.8425,2116.3312,2116.3312,2119.2148,2549.0,2119.2148,5.0,2119.215,8.0,22.0,262.0,17.0,1.0,1.2,0.7,Time
,,S14,1,,,anonymized,Serial_Dependence_U,2023.2.3,Win32,59.88023952096852,,,,,,2119.2153,61.0,8.0,2119.2153,61.0,,,,2122.5643,2123.0619000000006,2122.0634000000005,2122.5643,2120.2249,2122.0634000000005,2123.0619000000006,2123.5559000000003,2123.5561000000007,2126.0458,2240.0,2126.0458,5.0,2126.0459000000005,8.0,23.0,263.0,25.0,1.0,0.8,0.7,Time
,,S14,1,,,anonymized,Serial_Dependence_U,2023.2.3,Win32,59.88023952096852,,,,,,2126.0462,312.0,8.0,2126.0462,312.0,,,,2129.6385,2130.1266000000005,2129.1278,2129.6381000000006,2127.0556000000006,2129.1277,2130.1266000000005,2130.6255,2130.6255,2133.4096000000004,2385.0,2133.4096000000004,5.0,2133.409900000001,8.0,24.0,264.0,1.0,1.0,1.0,0.3,Time
,,S14,1,,,anonymized,Serial_Dependence_U,2023.2.3,Win32,59.88023952096852,,,,,,2133.41,200.0,8.0,2133.4101000000005,200.0,,,,2137.2083,2137.7073,2136.691600000001,2137.2082,2134.42,2136.691600000001,2137.7073,2138.2072000000003,2138.2073,2141.69,3196.0,2141.6901000000007,5.0,2141.6902,8.0,25.0,265.0,12.0,1.0,1.2,0.3,Time
,,S14,1,,,anonymized,Serial_Dependence_U,2023.2.3,Win32,59.88023952096852,,,,,,2141.6904000000004,202.0,8.0,2141.6905,202.0,,,,2145.0352000000003,2145.5314000000003,2144.5325,2145.0351000000005,2142.6996000000004,2144.532,2145.5316000000007,2146.0209000000004,2146.0209000000004,2148.9874000000004,2640.0,2148.9874000000004,5.0,2148.9876000000004,8.0,26.0,266.0,5.0,1.0,0.8,0.7,Time
,,S14,1,,,anonymized,Serial_Dependence_U,2023.2.3,Win32,59.88023952096852,,,,,,2148.9878,224.0,8.0,2148.9879000000005,224.0,,,,2152.9468,2153.4509000000003,2152.4359000000004,2152.9464000000003,2149.9968,2152.4359000000004,2153.4509000000003,2153.9507000000003,2153.9507000000003,2156.2611000000006,1919.0,2156.2616000000007,5.0,2156.263,8.0,27.0,267.0,8.0,1.0,1.4,0.7,Time
,,S14,1,,,anonymized,Serial_Dependence_U,2023.2.3,Win32,59.88023952096852,,,,,,2156.2634000000003,23.0,8.0,2156.2636000000007,23.0,,,,2160.0265,2160.5319000000004,2159.5164000000004,2160.0261000000005,2157.2842,2159.5164000000004,2160.532,2161.0247000000004,2161.0247000000004,2163.8478,2349.0,2163.8478,5.0,2163.848,8.0,28.0,268.0,7.0,1.0,1.2,0.7,Time
,,S14,1,,,anonymized,Serial_Dependence_U,2023.2.3,Win32,59.88023952096852,,,,,,2163.8483,196.0,8.0,2163.8485,196.0,,,,2167.242,2167.7391000000007,2166.7245,2167.2419000000004,2164.8579000000004,2166.7242,2167.7392,2168.246900000001,2168.2471000000005,2170.23,1662.0,2170.2301000000007,5.0,2170.2303,8.0,29.0,269.0,0.0,1.0,0.8,0.3,Time
