Scale_setup.started,Scale_setup.stopped,participant,expid,session,sex,age,date,expName,psychopyVersion,OS,frameRate,PROLIFIC_PID,STUDY_ID,SESSION_ID,screen_scale_keys.started,screen_scale_keys.stopped,X Scale,Y Scale,rectangel_keys.started,rectangel_keys.stopped,Intro.started,Intro.stopped,key_resp_2.keys,key_resp_2.rt,key_resp_2.duration,block.started,Block_id,block.stopped,Block_resp_2.keys,Block_resp_2.rt,Block_resp_2.duration,ITI.started,ITI.stopped,Mask_2.started,Mask_2.stopped,M2.started,direction,M2.stopped,Cue.started,Cue.stopped,Response.started,Response.stopped,keyDuration,Feedback_Time.started,FeedbackID_T,Feedback_Time.stopped,trials.thisRepN,trials.thisTrialN,trials.thisN,trials.thisIndex,trials.ran,TimeDur,Coherence1,TrialType
0.0003,0.0007,S14,551900,001,female,28,2025-05-21_11h46.17.277,Serial_Dependence_U,2023.2.3,Win32,39.84063745,670e851632b444a56d13cfb8,682cd3dfea4e15896da7c0a6,682da5c271d79fa401e67124,,,,,,,,,,,,,,,,,,,,,,,,,,,,,,,,,,,,,,,,
,,S14,551900,001,female,28,2025-05-21_11h46.17.277,Serial_Dependence_U,2023.2.3,Win32,39.84063745,670e851632b444a56d13cfb8,682cd3dfea4e15896da7c0a6,682da5c271d79fa401e67124,0.0063,87.6985,0.0581,0.0578,87.6993,90.3329,90.334,114.6887,space,24.2649,,,,,,,,,,,,,,,,,,,,,,,,,,,,,,
,,S14,551900,001,female,28,2025-05-21_11h46.17.277,Serial_Dependence_U,2023.2.3,Win32,39.84063745,670e851632b444a56d13cfb8,682cd3dfea4e15896da7c0a6,682da5c271d79fa401e67124,,,,,,,,,,,,114.7206,0,117.0955,s,2.3146,,119.657,120.1553,119.1301,119.6567,118.1021,172,119.1297,120.1556,120.6572,120.6577,122.5688,902.5,122.5707,2,123.5669,0,0,0,6,1,1,0.7,Time
,,S14,551900,001,female,28,2025-05-21_11h46.17.277,Serial_Dependence_U,2023.2.3,Win32,39.84063745,670e851632b444a56d13cfb8,682cd3dfea4e15896da7c0a6,682da5c271d79fa401e67124,,,,,,,,,,,,123.5688,0,123.5754,,,,126.5047,127.0034,125.9786,126.5043,124.5739,47,125.9783,127.0037,127.5051,127.5053,128.787,778,128.7875,1,129.7875,0,1,1,23,1,1.4,0.3,Time
,,S14,551900,001,female,28,2025-05-21_11h46.17.277,Serial_Dependence_U,2023.2.3,Win32,39.84063745,670e851632b444a56d13cfb8,682cd3dfea4e15896da7c0a6,682da5c271d79fa401e67124,,,,,,,,,,,,129.7893,0,129.7903,,,,132.9263,133.4244,132.3989,132.9258,130.7943,243,132.3986,133.4246,133.9263,133.9266,135.5588,1208.9,135.5593,2,136.56,0,2,2,24,1,1.6,0.3,Time
,,S14,551900,001,female,28,2025-05-21_11h46.17.277,Serial_Dependence_U,2023.2.3,Win32,39.84063745,670e851632b444a56d13cfb8,682cd3dfea4e15896da7c0a6,682da5c271d79fa401e67124,,,,,,,,,,,,136.5616,0,136.563,,,,139.6988,140.197,139.1721,139.6985,137.5663,251,139.1719,140.1972,140.6984,140.6985,142.5331,1305.4,142.5336,2,143.5334,0,3,3,29,1,1.6,0.7,Time
,,S14,551900,001,female,28,2025-05-21_11h46.17.277,Serial_Dependence_U,2023.2.3,Win32,39.84063745,670e851632b444a56d13cfb8,682cd3dfea4e15896da7c0a6,682da5c271d79fa401e67124,,,,,,,,,,,,143.5349,0,143.5358,,,,146.047,146.5433,145.5432,146.0465,144.5399,193,145.5429,146.5435,147.045,147.0452,148.3265,801,148.3271,2,149.3275,0,4,4,21,1,1,0.3,Time
,,S14,551900,001,female,28,2025-05-21_11h46.17.277,Serial_Dependence_U,2023.2.3,Win32,39.84063745,670e851632b444a56d13cfb8,682cd3dfea4e15896da7c0a6,682da5c271d79fa401e67124,,,,,,,,,,,,149.3291,0,149.3301,,,,152.2912,152.7891,151.7637,152.2909,150.3559,246,151.7634,152.7893,153.2909,153.2911,155.0772,1283.7,155.0778,2,156.0753,0,5,5,13,1,1.4,0.3,Time
,,S14,551900,001,female,28,2025-05-21_11h46.17.277,Serial_Dependence_U,2023.2.3,Win32,39.84063745,670e851632b444a56d13cfb8,682cd3dfea4e15896da7c0a6,682da5c271d79fa401e67124,,,,,,,,,,,,156.0768,0,156.0777,,,,158.8122,159.3107,158.2852,158.8119,157.082,267,158.2849,159.3109,159.8127,159.813,161.5216,1231.2,161.5222,3,162.5213,0,6,6,17,1,1.2,0.7,Time
,,S14,551900,001,female,28,2025-05-21_11h46.17.277,Serial_Dependence_U,2023.2.3,Win32,39.84063745,670e851632b444a56d13cfb8,682cd3dfea4e15896da7c0a6,682da5c271d79fa401e67124,,,,,,,,,,,,162.5222,0,162.5231,,,,165.0578,165.5571,164.531,165.0576,163.5263,328,164.5307,165.5573,166.0584,166.0586,167.6911,1080,167.6917,4,168.6921,0,7,7,16,1,1,0.7,Time
,,S14,551900,001,female,28,2025-05-21_11h46.17.277,Serial_Dependence_U,2023.2.3,Win32,39.84063745,670e851632b444a56d13cfb8,682cd3dfea4e15896da7c0a6,682da5c271d79fa401e67124,,,,,,,,,,,,168.6937,0,168.6946,,,,171.6298,172.1287,171.1028,171.6294,169.6984,253,171.1025,172.1289,172.6303,172.6305,174.2128,1153.5,174.2133,2,175.2139,0,8,8,18,1,1.4,0.7,Time
,,S14,551900,001,female,28,2025-05-21_11h46.17.277,Serial_Dependence_U,2023.2.3,Win32,39.84063745,670e851632b444a56d13cfb8,682cd3dfea4e15896da7c0a6,682da5c271d79fa401e67124,,,,,,,,,,,,175.2155,0,175.2164,,,,178.3523,178.8512,177.8254,178.352,176.2208,36,177.8251,178.8513,179.3528,179.3529,180.9353,1250,180.9358,2,181.9362,0,9,9,19,1,1.6,0.7,Time
,,S14,551900,001,female,28,2025-05-21_11h46.17.277,Serial_Dependence_U,2023.2.3,Win32,39.84063745,670e851632b444a56d13cfb8,682cd3dfea4e15896da7c0a6,682da5c271d79fa401e67124,,,,,,,,,,,,181.9378,0,181.939,,,,184.2723,184.7706,183.7465,184.2721,182.9428,168,183.7463,184.7709,185.2727,185.2728,186.5778,803.1,186.5783,3,187.5802,0,10,10,15,1,0.8,0.7,Time
,,S14,551900,001,female,28,2025-05-21_11h46.17.277,Serial_Dependence_U,2023.2.3,Win32,39.84063745,670e851632b444a56d13cfb8,682cd3dfea4e15896da7c0a6,682da5c271d79fa401e67124,,,,,,,,,,,,187.5817,0,187.5826,,,,190.3172,190.8163,189.7904,190.317,188.5868,74,189.79,190.8165,191.318,191.3182,192.6996,928.8,192.7003,2,193.7008,0,11,11,22,1,1.2,0.3,Time
,,S14,551900,001,female,28,2025-05-21_11h46.17.277,Serial_Dependence_U,2023.2.3,Win32,39.84063745,670e851632b444a56d13cfb8,682cd3dfea4e15896da7c0a6,682da5c271d79fa401e67124,,,,,,,,,,,,193.7022,0,193.7031,,,,196.438,196.9365,195.9109,196.4378,194.7062,41,195.9106,196.9365,197.4381,197.4383,199.0204,1103.8,199.021,2,200.0215,0,12,12,7,1,1.2,0.7,Time
,,S14,551900,001,female,28,2025-05-21_11h46.17.277,Serial_Dependence_U,2023.2.3,Win32,39.84063745,670e851632b444a56d13cfb8,682cd3dfea4e15896da7c0a6,682da5c271d79fa401e67124,,,,,,,,,,,,200.0233,0,200.0249,,,,202.5578,203.0568,202.0312,202.5575,201.028,269,202.0308,203.0569,203.5587,203.5588,204.6922,1075.2,204.694,4,205.6906,0,13,13,1,1,1,0.3,Time
,,S14,551900,001,female,28,2025-05-21_11h46.17.277,Serial_Dependence_U,2023.2.3,Win32,39.84063745,670e851632b444a56d13cfb8,682cd3dfea4e15896da7c0a6,682da5c271d79fa401e67124,,,,,,,,,,,,205.6924,0,205.6937,,,,208.6284,209.127,208.1012,208.6282,206.6965,290,208.101,209.1271,209.6289,209.6291,211.4871,1453.7,211.4878,3,212.4881,0,14,14,8,1,1.4,0.7,Time
,,S14,551900,001,female,28,2025-05-21_11h46.17.277,Serial_Dependence_U,2023.2.3,Win32,39.84063745,670e851632b444a56d13cfb8,682cd3dfea4e15896da7c0a6,682da5c271d79fa401e67124,,,,,,,,,,,,212.4903,0,212.492,,,,215.6267,216.1257,215.1,215.6264,213.4944,103,215.0998,216.1258,216.6272,216.6276,218.8118,1179.7,218.8122,2,219.8127,0,15,15,9,1,1.6,0.7,Time
,,S14,551900,001,female,28,2025-05-21_11h46.17.277,Serial_Dependence_U,2023.2.3,Win32,39.84063745,670e851632b444a56d13cfb8,682cd3dfea4e15896da7c0a6,682da5c271d79fa401e67124,,,,,,,,,,,,219.8143,0,219.8152,,,,222.349,222.8476,221.822,222.3487,220.819,266,221.8217,222.8478,223.3494,223.3496,225.0361,1191.4,225.0372,4,226.0333,0,16,16,26,1,1,0.7,Time
,,S14,551900,001,female,28,2025-05-21_11h46.17.277,Serial_Dependence_U,2023.2.3,Win32,39.84063745,670e851632b444a56d13cfb8,682cd3dfea4e15896da7c0a6,682da5c271d79fa401e67124,,,,,,,,,,,,226.0349,0,226.0359,,,,228.3693,228.8679,227.8421,228.369,227.0381,305,227.8419,228.8681,229.3696,229.3699,231.1034,1133.9,231.1039,5,232.1039,0,17,17,0,1,0.8,0.3,Time
,,S14,551900,001,female,28,2025-05-21_11h46.17.277,Serial_Dependence_U,2023.2.3,Win32,39.84063745,670e851632b444a56d13cfb8,682cd3dfea4e15896da7c0a6,682da5c271d79fa401e67124,,,,,,,,,,,,232.1054,0,232.1068,,,,234.4394,234.9379,233.9124,234.4391,233.1097,133,233.912,234.9381,235.4399,235.4401,237.223,902.2,237.2236,4,238.2239,0,18,18,25,1,0.8,0.7,Time
,,S14,551900,001,female,28,2025-05-21_11h46.17.277,Serial_Dependence_U,2023.2.3,Win32,39.84063745,670e851632b444a56d13cfb8,682cd3dfea4e15896da7c0a6,682da5c271d79fa401e67124,,,,,,,,,,,,238.2256,0,238.2266,,,,241.1617,241.6602,240.6347,241.1614,239.2302,49,240.6345,241.6605,242.1622,242.1624,243.7446,1152.9,243.7453,2,244.746,0,19,19,28,1,1.4,0.7,Time
,,S14,551900,001,female,28,2025-05-21_11h46.17.277,Serial_Dependence_U,2023.2.3,Win32,39.84063745,670e851632b444a56d13cfb8,682cd3dfea4e15896da7c0a6,682da5c271d79fa401e67124,,,,,,,,,,,,244.7477,0,244.749,,,,247.4828,247.9814,246.9559,247.4825,245.7521,54,246.9556,247.9816,248.4832,248.4834,249.9154,1053.5,249.9161,2,250.9162,0,20,20,2,1,1.2,0.3,Time
,,S14,551900,001,female,28,2025-05-21_11h46.17.277,Serial_Dependence_U,2023.2.3,Win32,39.84063745,670e851632b444a56d13cfb8,682cd3dfea4e15896da7c0a6,682da5c271d79fa401e67124,,,,,,,,,,,,250.9177,0,250.9187,,,,253.4526,253.9513,252.9257,253.4524,251.923,262,252.9254,253.9515,254.4536,254.4538,256.1618,1078.5,256.1623,4,257.162,0,21,21,11,1,1,0.3,Time
,,S14,551900,001,female,28,2025-05-21_11h46.17.277,Serial_Dependence_U,2023.2.3,Win32,39.84063745,670e851632b444a56d13cfb8,682cd3dfea4e15896da7c0a6,682da5c271d79fa401e67124,,,,,,,,,,,,257.1636,0,257.1646,,,,259.4978,259.9966,258.9722,259.4975,258.1684,219,258.9718,259.9967,260.5014,260.5014,261.2008,206.3,261.2012,1,262.2031,0,22,22,20,1,0.8,0.3,Time
,,S14,551900,001,female,28,2025-05-21_11h46.17.277,Serial_Dependence_U,2023.2.3,Win32,39.84063745,670e851632b444a56d13cfb8,682cd3dfea4e15896da7c0a6,682da5c271d79fa401e67124,,,,,,,,,,,,262.2037,0,262.2041,,,,265.1405,265.6402,264.6136,265.1401,263.2093,165,264.6134,265.6405,266.1414,266.1415,268.0992,1005.9,268.0995,2,269.1012,0,23,23,3,1,1.4,0.3,Time
,,S14,551900,001,female,28,2025-05-21_11h46.17.277,Serial_Dependence_U,2023.2.3,Win32,39.84063745,670e851632b444a56d13cfb8,682cd3dfea4e15896da7c0a6,682da5c271d79fa401e67124,,,,,,,,,,,,269.1017,0,269.1021,,,,272.2139,272.7142,271.7118,272.2137,270.1069,177,271.7116,272.7144,273.2158,273.2159,274.8974,1232.9,274.8979,2,275.8991,0,24,24,14,1,1.6,0.3,Time
,,S14,551900,001,female,28,2025-05-21_11h46.17.277,Serial_Dependence_U,2023.2.3,Win32,39.84063745,670e851632b444a56d13cfb8,682cd3dfea4e15896da7c0a6,682da5c271d79fa401e67124,,,,,,,,,,,,275.9001,0,275.9007,,,,278.6359,279.1352,278.1093,278.6358,276.9049,146,278.109,279.1354,279.6371,279.6374,281.5184,1326.8,281.5186,4,282.521,0,25,25,12,1,1.2,0.3,Time
,,S14,551900,001,female,28,2025-05-21_11h46.17.277,Serial_Dependence_U,2023.2.3,Win32,39.84063745,670e851632b444a56d13cfb8,682cd3dfea4e15896da7c0a6,682da5c271d79fa401e67124,,,,,,,,,,,,282.5215,0,282.5218,,,,285.2562,285.7571,284.7319,285.256,283.5265,251,284.7315,285.7572,286.2587,286.2588,287.7656,1004.3,287.7661,2,288.7673,0,26,26,27,1,1.2,0.7,Time
,,S14,551900,001,female,28,2025-05-21_11h46.17.277,Serial_Dependence_U,2023.2.3,Win32,39.84063745,670e851632b444a56d13cfb8,682cd3dfea4e15896da7c0a6,682da5c271d79fa401e67124,,,,,,,,,,,,288.7684,0,288.7691,,,,291.1027,291.6016,290.6001,291.1025,289.7733,47,290.5998,291.6018,292.1036,292.1037,293.6097,1020.3,293.6101,4,294.6121,0,27,27,10,1,0.8,0.3,Time
,,S14,551900,001,female,28,2025-05-21_11h46.17.277,Serial_Dependence_U,2023.2.3,Win32,39.84063745,670e851632b444a56d13cfb8,682cd3dfea4e15896da7c0a6,682da5c271d79fa401e67124,,,,,,,,,,,,294.6134,0,294.6142,,,,297.7491,298.2485,297.2223,297.7489,295.618,83,297.2221,298.2485,298.7509,298.7511,300.1086,705.6,300.1092,1,301.1079,0,28,28,4,1,1.6,0.3,Time
,,S14,551900,001,female,28,2025-05-21_11h46.17.277,Serial_Dependence_U,2023.2.3,Win32,39.84063745,670e851632b444a56d13cfb8,682cd3dfea4e15896da7c0a6,682da5c271d79fa401e67124,,,,,,,,,,,,301.1084,0,301.1087,,,,303.4679,303.968,302.9429,303.4676,302.1385,99,302.9426,303.9681,304.4695,304.4695,306.302,850.2,306.3024,4,307.3042,0,29,29,5,1,0.8,0.7,Time
,,S14,551900,001,female,28,2025-05-21_11h46.17.277,Serial_Dependence_U,2023.2.3,Win32,39.84063745,670e851632b444a56d13cfb8,682cd3dfea4e15896da7c0a6,682da5c271d79fa401e67124,,,,,,,,,,,,307.3058,1,310.6409,s,3.2853,,313.5759,314.0768,313.0508,313.5757,311.646,96,313.0506,314.077,314.5786,314.5788,316.3104,1150.8,316.3108,2,317.3125,1,0,30,23,1,1.4,0.3,Time
,,S14,551900,001,female,28,2025-05-21_11h46.17.277,Serial_Dependence_U,2023.2.3,Win32,39.84063745,670e851632b444a56d13cfb8,682cd3dfea4e15896da7c0a6,682da5c271d79fa401e67124,,,,,,,,,,,,317.3142,1,317.3212,,,,320.424,320.9242,319.9226,320.4238,318.3173,70,319.9224,320.9243,321.4257,321.4258,323.1076,1262.6,323.1082,2,324.1102,1,1,31,29,1,1.6,0.7,Time
,,S14,551900,001,female,28,2025-05-21_11h46.17.277,Serial_Dependence_U,2023.2.3,Win32,39.84063745,670e851632b444a56d13cfb8,682cd3dfea4e15896da7c0a6,682da5c271d79fa401e67124,,,,,,,,,,,,324.1118,1,324.1129,,,,327.2217,327.7223,326.7202,327.2215,325.1149,189,326.7199,327.7225,328.2246,328.2247,329.9559,1251.7,329.9563,2,330.9581,1,2,32,9,1,1.6,0.7,Time
,,S14,551900,001,female,28,2025-05-21_11h46.17.277,Serial_Dependence_U,2023.2.3,Win32,39.84063745,670e851632b444a56d13cfb8,682cd3dfea4e15896da7c0a6,682da5c271d79fa401e67124,,,,,,,,,,,,330.9596,1,330.9613,,,,334.1189,334.6198,333.5931,334.1188,331.9871,195,333.5929,334.6198,335.1217,335.1219,336.8535,1304.5,336.8539,2,337.8561,1,3,33,14,1,1.6,0.3,Time
,,S14,551900,001,female,28,2025-05-21_11h46.17.277,Serial_Dependence_U,2023.2.3,Win32,39.84063745,670e851632b444a56d13cfb8,682cd3dfea4e15896da7c0a6,682da5c271d79fa401e67124,,,,,,,,,,,,337.8577,1,337.8587,,,,340.1658,340.6653,339.6634,340.1656,338.8614,235,339.6632,340.6655,341.1673,341.1674,342.8247,1182.7,342.8252,5,343.8254,1,4,34,15,1,0.8,0.7,Time
,,S14,551900,001,female,28,2025-05-21_11h46.17.277,Serial_Dependence_U,2023.2.3,Win32,39.84063745,670e851632b444a56d13cfb8,682cd3dfea4e15896da7c0a6,682da5c271d79fa401e67124,,,,,,,,,,,,343.8264,1,343.827,,,,346.7623,347.2624,346.2355,346.762,344.8319,64,346.2352,347.2626,347.7643,347.7646,349.0453,904.7,349.0457,1,350.0463,1,5,35,13,1,1.4,0.3,Time
,,S14,551900,001,female,28,2025-05-21_11h46.17.277,Serial_Dependence_U,2023.2.3,Win32,39.84063745,670e851632b444a56d13cfb8,682cd3dfea4e15896da7c0a6,682da5c271d79fa401e67124,,,,,,,,,,,,350.0473,1,350.0479,,,,352.382,352.8811,351.855,352.3817,351.052,116,351.8547,352.8813,353.383,353.3831,355.0383,846.2,355.0385,4,356.0412,1,6,36,10,1,0.8,0.3,Time
,,S14,551900,001,female,28,2025-05-21_11h46.17.277,Serial_Dependence_U,2023.2.3,Win32,39.84063745,670e851632b444a56d13cfb8,682cd3dfea4e15896da7c0a6,682da5c271d79fa401e67124,,,,,,,,,,,,356.0419,1,356.0424,,,,358.6018,359.1013,358.0767,358.6016,357.0479,28,358.0764,359.1014,359.603,359.6031,361.1859,925.8,361.1864,2,362.1873,1,7,37,26,1,1,0.7,Time
,,S14,551900,001,female,28,2025-05-21_11h46.17.277,Serial_Dependence_U,2023.2.3,Win32,39.84063745,670e851632b444a56d13cfb8,682cd3dfea4e15896da7c0a6,682da5c271d79fa401e67124,,,,,,,,,,,,362.1889,1,362.1899,,,,365.1477,365.6481,364.6217,365.1475,363.196,28,364.6214,365.6482,366.1498,366.1498,368.0577,1260.3,368.058,2,369.0602,1,8,38,8,1,1.4,0.7,Time
,,S14,551900,001,female,28,2025-05-21_11h46.17.277,Serial_Dependence_U,2023.2.3,Win32,39.84063745,670e851632b444a56d13cfb8,682cd3dfea4e15896da7c0a6,682da5c271d79fa401e67124,,,,,,,,,,,,369.0616,1,369.0624,,,,371.5939,372.0949,371.0695,371.5938,370.0658,227,371.0692,372.095,372.5966,372.5967,374.7553,1051.5,374.7556,4,375.7578,1,9,39,6,1,1,0.7,Time
,,S14,551900,001,female,28,2025-05-21_11h46.17.277,Serial_Dependence_U,2023.2.3,Win32,39.84063745,670e851632b444a56d13cfb8,682cd3dfea4e15896da7c0a6,682da5c271d79fa401e67124,,,,,,,,,,,,375.7593,1,375.7609,,,,378.4685,378.9683,377.9665,378.4683,376.7634,285,377.9662,378.9683,379.4693,379.4693,381.1513,1000.3,381.1517,2,382.1538,1,10,40,7,1,1.2,0.7,Time
,,S14,551900,001,female,28,2025-05-21_11h46.17.277,Serial_Dependence_U,2023.2.3,Win32,39.84063745,670e851632b444a56d13cfb8,682cd3dfea4e15896da7c0a6,682da5c271d79fa401e67124,,,,,,,,,,,,382.1556,1,382.1567,,,,384.864,385.3643,384.3625,384.8638,383.1587,89,384.3623,385.3646,385.8662,385.8663,387.3713,1033.3,387.3715,2,388.374,1,11,41,12,1,1.2,0.3,Time
,,S14,551900,001,female,28,2025-05-21_11h46.17.277,Serial_Dependence_U,2023.2.3,Win32,39.84063745,670e851632b444a56d13cfb8,682cd3dfea4e15896da7c0a6,682da5c271d79fa401e67124,,,,,,,,,,,,388.375,1,388.3756,,,,391.1103,391.6097,390.5846,391.1098,389.3791,181,390.5844,391.6097,392.1115,392.1116,393.7685,1274,393.7689,4,394.771,1,12,42,22,1,1.2,0.3,Time
,,S14,551900,001,female,28,2025-05-21_11h46.17.277,Serial_Dependence_U,2023.2.3,Win32,39.84063745,670e851632b444a56d13cfb8,682cd3dfea4e15896da7c0a6,682da5c271d79fa401e67124,,,,,,,,,,,,394.7724,1,394.7736,,,,397.3056,397.8058,396.7806,397.3054,395.7769,339,396.7804,397.8059,398.3094,398.3101,400.3407,1002.4,400.3412,3,401.3427,1,13,43,11,1,1,0.3,Time
,,S14,551900,001,female,28,2025-05-21_11h46.17.277,Serial_Dependence_U,2023.2.3,Win32,39.84063745,670e851632b444a56d13cfb8,682cd3dfea4e15896da7c0a6,682da5c271d79fa401e67124,,,,,,,,,,,,401.3446,1,401.3456,,,,404.4801,404.9792,403.9533,404.4798,402.3491,78,403.9531,404.9793,405.4815,405.4816,407.2886,1303.9,407.2889,2,408.2911,1,14,44,19,1,1.6,0.7,Time
,,S14,551900,001,female,28,2025-05-21_11h46.17.277,Serial_Dependence_U,2023.2.3,Win32,39.84063745,670e851632b444a56d13cfb8,682cd3dfea4e15896da7c0a6,682da5c271d79fa401e67124,,,,,,,,,,,,408.2923,1,408.2932,,,,410.649,411.1497,410.1235,410.6489,409.3197,347,410.1233,411.1499,411.6514,411.6515,413.107,824.7,413.1073,3,414.1098,1,15,45,25,1,0.8,0.7,Time
,,S14,551900,001,female,28,2025-05-21_11h46.17.277,Serial_Dependence_U,2023.2.3,Win32,39.84063745,670e851632b444a56d13cfb8,682cd3dfea4e15896da7c0a6,682da5c271d79fa401e67124,,,,,,,,,,,,414.1106,1,414.1112,,,,416.8448,417.3461,416.32,416.8446,415.1156,307,416.3197,417.3462,417.848,417.8481,419.6558,1055.1,419.6563,2,420.6571,1,16,46,27,1,1.2,0.7,Time
,,S14,551900,001,female,28,2025-05-21_11h46.17.277,Serial_Dependence_U,2023.2.3,Win32,39.84063745,670e851632b444a56d13cfb8,682cd3dfea4e15896da7c0a6,682da5c271d79fa401e67124,,,,,,,,,,,,420.6585,1,420.6595,,,,422.9924,423.4914,422.4901,422.9922,421.663,54,422.4899,423.4915,423.9932,423.9933,425.323,821.3,425.3233,3,426.326,1,17,47,0,1,0.8,0.3,Time
,,S14,551900,001,female,28,2025-05-21_11h46.17.277,Serial_Dependence_U,2023.2.3,Win32,39.84063745,670e851632b444a56d13cfb8,682cd3dfea4e15896da7c0a6,682da5c271d79fa401e67124,,,,,,,,,,,,426.3276,1,426.3286,,,,429.2621,429.7624,428.7368,429.2619,427.3323,113,428.7366,429.7625,430.2642,430.2644,432.1966,1474.2,432.197,4,433.1989,1,18,48,18,1,1.4,0.7,Time
,,S14,551900,001,female,28,2025-05-21_11h46.17.277,Serial_Dependence_U,2023.2.3,Win32,39.84063745,670e851632b444a56d13cfb8,682cd3dfea4e15896da7c0a6,682da5c271d79fa401e67124,,,,,,,,,,,,433.2005,1,433.202,,,,435.5321,436.0334,435.0064,435.5319,434.204,22,435.0062,436.0335,436.5352,436.5354,437.9659,998.4,437.9662,4,438.9682,1,19,49,5,1,0.8,0.7,Time
,,S14,551900,001,female,28,2025-05-21_11h46.17.277,Serial_Dependence_U,2023.2.3,Win32,39.84063745,670e851632b444a56d13cfb8,682cd3dfea4e15896da7c0a6,682da5c271d79fa401e67124,,,,,,,,,,,,438.97,1,438.9721,,,,441.5021,442.0027,440.9772,441.502,439.9738,131,440.977,442.0027,442.5055,442.5058,444.2106,977.4,444.2109,3,445.2133,1,20,50,1,1,1,0.3,Time
,,S14,551900,001,female,28,2025-05-21_11h46.17.277,Serial_Dependence_U,2023.2.3,Win32,39.84063745,670e851632b444a56d13cfb8,682cd3dfea4e15896da7c0a6,682da5c271d79fa401e67124,,,,,,,,,,,,445.2139,1,445.2143,,,,448.125,448.6247,447.6234,448.1248,446.2181,210,447.6232,448.6248,449.1272,449.1275,450.7838,1103.9,450.7842,2,451.7855,1,21,51,3,1,1.4,0.3,Time
,,S14,551900,001,female,28,2025-05-21_11h46.17.277,Serial_Dependence_U,2023.2.3,Win32,39.84063745,670e851632b444a56d13cfb8,682cd3dfea4e15896da7c0a6,682da5c271d79fa401e67124,,,,,,,,,,,,451.7865,1,451.7872,,,,454.3211,454.8212,453.7957,454.3208,452.7907,287,453.7955,454.8213,455.322,455.3221,456.8552,851.6,456.8558,2,457.856,1,22,52,16,1,1,0.7,Time
,,S14,551900,001,female,28,2025-05-21_11h46.17.277,Serial_Dependence_U,2023.2.3,Win32,39.84063745,670e851632b444a56d13cfb8,682cd3dfea4e15896da7c0a6,682da5c271d79fa401e67124,,,,,,,,,,,,457.8575,1,457.8584,,,,460.1905,460.6904,459.6884,460.1903,458.8623,187,459.6882,460.6906,461.1922,461.1924,462.7236,901.1,462.724,4,463.7257,1,23,53,20,1,0.8,0.3,Time
,,S14,551900,001,female,28,2025-05-21_11h46.17.277,Serial_Dependence_U,2023.2.3,Win32,39.84063745,670e851632b444a56d13cfb8,682cd3dfea4e15896da7c0a6,682da5c271d79fa401e67124,,,,,,,,,,,,463.7273,1,463.7283,,,,466.262,466.7609,465.7365,466.2617,464.7302,68,465.7356,466.761,467.2625,467.2626,468.7189,946,468.7194,2,469.7208,1,24,54,21,1,1,0.3,Time
,,S14,551900,001,female,28,2025-05-21_11h46.17.277,Serial_Dependence_U,2023.2.3,Win32,39.84063745,670e851632b444a56d13cfb8,682cd3dfea4e15896da7c0a6,682da5c271d79fa401e67124,,,,,,,,,,,,469.722,1,469.7229,,,,472.8324,473.3329,472.3306,472.8323,470.7251,260,472.3304,473.3329,473.8347,473.8348,475.5668,1203.6,475.5673,2,476.5681,1,25,55,4,1,1.6,0.3,Time
,,S14,551900,001,female,28,2025-05-21_11h46.17.277,Serial_Dependence_U,2023.2.3,Win32,39.84063745,670e851632b444a56d13cfb8,682cd3dfea4e15896da7c0a6,682da5c271d79fa401e67124,,,,,,,,,,,,476.5693,1,476.57,,,,479.4799,479.98,478.9781,479.4797,477.5731,333,478.978,479.9802,480.4817,480.4818,482.6402,1079.2,482.6407,2,483.6423,1,26,56,28,1,1.4,0.7,Time
,,S14,551900,001,female,28,2025-05-21_11h46.17.277,Serial_Dependence_U,2023.2.3,Win32,39.84063745,670e851632b444a56d13cfb8,682cd3dfea4e15896da7c0a6,682da5c271d79fa401e67124,,,,,,,,,,,,483.6438,1,483.6448,,,,486.4033,486.9028,485.8778,486.4031,484.6727,133,485.8775,486.903,487.4043,487.4044,488.9357,973.6,488.936,2,489.9383,1,27,57,17,1,1.2,0.7,Time
,,S14,551900,001,female,28,2025-05-21_11h46.17.277,Serial_Dependence_U,2023.2.3,Win32,39.84063745,670e851632b444a56d13cfb8,682cd3dfea4e15896da7c0a6,682da5c271d79fa401e67124,,,,,,,,,,,,489.9396,1,489.9406,,,,492.6736,493.1741,492.1472,492.6735,490.943,1,492.147,493.1744,493.6757,493.6757,495.2577,1257.6,495.2583,3,496.2594,1,28,58,2,1,1.2,0.3,Time
,,S14,551900,001,female,28,2025-05-21_11h46.17.277,Serial_Dependence_U,2023.2.3,Win32,39.84063745,670e851632b444a56d13cfb8,682cd3dfea4e15896da7c0a6,682da5c271d79fa401e67124,,,,,,,,,,,,496.2609,1,496.2619,,,,499.423,499.9213,498.8955,499.4228,497.29,316,498.8951,499.9215,500.4231,500.4232,501.8797,1231.4,501.8801,2,502.8812,1,29,59,24,1,1.6,0.3,Time
,,S14,551900,001,female,28,2025-05-21_11h46.17.277,Serial_Dependence_U,2023.2.3,Win32,39.84063745,670e851632b444a56d13cfb8,682cd3dfea4e15896da7c0a6,682da5c271d79fa401e67124,,,,,,,,,,,,502.8828,2,504.8134,s,1.8762,,507.1235,507.6219,506.6213,507.1232,505.8173,225,506.621,507.6221,508.1239,508.124,509.7564,1161.6,509.7567,5,510.757,2,0,60,15,1,0.8,0.7,Time
,,S14,551900,001,female,28,2025-05-21_11h46.17.277,Serial_Dependence_U,2023.2.3,Win32,39.84063745,670e851632b444a56d13cfb8,682cd3dfea4e15896da7c0a6,682da5c271d79fa401e67124,,,,,,,,,,,,510.7581,2,510.7637,,,,513.7202,514.219,513.1934,513.72,511.7638,204,513.193,514.2191,514.7205,514.7208,516.3525,1252.3,516.3528,2,517.3542,2,1,61,18,1,1.4,0.7,Time
,,S14,551900,001,female,28,2025-05-21_11h46.17.277,Serial_Dependence_U,2023.2.3,Win32,39.84063745,670e851632b444a56d13cfb8,682cd3dfea4e15896da7c0a6,682da5c271d79fa401e67124,,,,,,,,,,,,517.3557,2,517.3571,,,,520.4676,520.9664,519.9645,520.4673,518.3582,196,519.9644,520.9667,521.4681,521.4684,523.1519,1059.6,523.1525,1,524.1522,2,2,62,9,1,1.6,0.7,Time
,,S14,551900,001,female,28,2025-05-21_11h46.17.277,Serial_Dependence_U,2023.2.3,Win32,39.84063745,670e851632b444a56d13cfb8,682cd3dfea4e15896da7c0a6,682da5c271d79fa401e67124,,,,,,,,,,,,524.1537,2,524.1545,,,,527.265,527.7648,526.7621,527.2647,525.1579,280,526.7618,527.7649,528.2659,528.266,530.1233,1430.9,530.1237,2,531.125,2,3,63,14,1,1.6,0.3,Time
,,S14,551900,001,female,28,2025-05-21_11h46.17.277,Serial_Dependence_U,2023.2.3,Win32,39.84063745,670e851632b444a56d13cfb8,682cd3dfea4e15896da7c0a6,682da5c271d79fa401e67124,,,,,,,,,,,,531.1263,2,531.127,,,,534.2635,534.7623,533.7369,534.2632,532.1315,136,533.7366,534.7624,535.2643,535.2645,536.9707,1278.7,536.9711,2,537.9731,2,4,64,4,1,1.6,0.3,Time
,,S14,551900,001,female,28,2025-05-21_11h46.17.277,Serial_Dependence_U,2023.2.3,Win32,39.84063745,670e851632b444a56d13cfb8,682cd3dfea4e15896da7c0a6,682da5c271d79fa401e67124,,,,,,,,,,,,537.9742,2,537.9748,,,,540.6844,541.1838,540.1823,540.6842,538.9789,70,540.1821,541.1841,541.6852,541.6852,544.4211,1102.7,544.4215,2,545.4225,2,5,65,2,1,1.2,0.3,Time
,,S14,551900,001,female,28,2025-05-21_11h46.17.277,Serial_Dependence_U,2023.2.3,Win32,39.84063745,670e851632b444a56d13cfb8,682cd3dfea4e15896da7c0a6,682da5c271d79fa401e67124,,,,,,,,,,,,545.4229,2,545.4232,,,,548.1835,548.6838,547.6584,548.1832,546.4312,54,547.6581,548.6841,549.1858,549.1859,550.5664,978.4,550.5667,2,551.5686,2,6,66,17,1,1.2,0.7,Time
,,S14,551900,001,female,28,2025-05-21_11h46.17.277,Serial_Dependence_U,2023.2.3,Win32,39.84063745,670e851632b444a56d13cfb8,682cd3dfea4e15896da7c0a6,682da5c271d79fa401e67124,,,,,,,,,,,,551.57,2,551.5711,,,,554.7295,555.2305,554.2038,554.7294,552.5973,118,554.2036,555.2308,555.7325,555.7327,557.1873,1097.7,557.1876,1,558.1902,2,7,67,24,1,1.6,0.3,Time
,,S14,551900,001,female,28,2025-05-21_11h46.17.277,Serial_Dependence_U,2023.2.3,Win32,39.84063745,670e851632b444a56d13cfb8,682cd3dfea4e15896da7c0a6,682da5c271d79fa401e67124,,,,,,,,,,,,558.1913,2,558.1919,,,,560.7252,561.2255,560.1986,560.7251,559.1948,307,560.1985,561.2256,561.727,561.7272,563.1586,1130.9,563.1596,4,564.1606,2,8,68,6,1,1,0.7,Time
,,S14,551900,001,female,28,2025-05-21_11h46.17.277,Serial_Dependence_U,2023.2.3,Win32,39.84063745,670e851632b444a56d13cfb8,682cd3dfea4e15896da7c0a6,682da5c271d79fa401e67124,,,,,,,,,,,,564.1618,2,564.1629,,,,566.8961,567.3965,566.3707,566.8959,565.1654,168,566.3703,567.3966,567.8974,567.8975,569.4039,1206.9,569.4044,3,570.4062,2,9,69,12,1,1.2,0.3,Time
,,S14,551900,001,female,28,2025-05-21_11h46.17.277,Serial_Dependence_U,2023.2.3,Win32,39.84063745,670e851632b444a56d13cfb8,682cd3dfea4e15896da7c0a6,682da5c271d79fa401e67124,,,,,,,,,,,,570.4077,2,570.4082,,,,572.9161,573.4158,572.4146,572.916,571.4109,303,572.4144,573.4158,573.9174,573.9174,575.2977,1047.8,575.2979,3,576.301,2,10,70,1,1,1,0.3,Time
,,S14,551900,001,female,28,2025-05-21_11h46.17.277,Serial_Dependence_U,2023.2.3,Win32,39.84063745,670e851632b444a56d13cfb8,682cd3dfea4e15896da7c0a6,682da5c271d79fa401e67124,,,,,,,,,,,,576.3025,2,576.3035,,,,579.4379,579.9376,578.9115,579.4377,577.3057,60,578.9113,579.9377,580.4395,580.4395,582.3233,1404.4,582.3238,2,583.324,2,11,71,29,1,1.6,0.7,Time
,,S14,551900,001,female,28,2025-05-21_11h46.17.277,Serial_Dependence_U,2023.2.3,Win32,39.84063745,670e851632b444a56d13cfb8,682cd3dfea4e15896da7c0a6,682da5c271d79fa401e67124,,,,,,,,,,,,583.3249,2,583.3255,,,,585.6346,586.1333,585.1315,585.6343,584.3296,294,585.1314,586.1334,586.6351,586.6352,587.7915,731.9,587.7921,2,588.7925,2,12,72,5,1,0.8,0.7,Time
,,S14,551900,001,female,28,2025-05-21_11h46.17.277,Serial_Dependence_U,2023.2.3,Win32,39.84063745,670e851632b444a56d13cfb8,682cd3dfea4e15896da7c0a6,682da5c271d79fa401e67124,,,,,,,,,,,,588.794,2,588.7948,,,,591.9297,592.4297,591.4037,591.9295,589.7974,225,591.4034,592.4299,592.9314,592.9318,594.3624,1103.4,594.3627,1,595.3647,2,13,73,19,1,1.6,0.7,Time
,,S14,551900,001,female,28,2025-05-21_11h46.17.277,Serial_Dependence_U,2023.2.3,Win32,39.84063745,670e851632b444a56d13cfb8,682cd3dfea4e15896da7c0a6,682da5c271d79fa401e67124,,,,,,,,,,,,595.3664,2,595.3674,,,,598.1012,598.6001,597.5733,598.101,596.3693,42,597.5731,598.6003,599.102,599.1022,600.5334,1057.9,600.5338,2,601.5349,2,14,74,7,1,1.2,0.7,Time
,,S14,551900,001,female,28,2025-05-21_11h46.17.277,Serial_Dependence_U,2023.2.3,Win32,39.84063745,670e851632b444a56d13cfb8,682cd3dfea4e15896da7c0a6,682da5c271d79fa401e67124,,,,,,,,,,,,601.5364,2,601.5373,,,,604.0706,604.5701,603.5442,604.0704,602.5416,83,603.544,604.5702,605.0714,605.0714,606.4786,1052.6,606.479,4,607.4799,2,15,75,21,1,1,0.3,Time
,,S14,551900,001,female,28,2025-05-21_11h46.17.277,Serial_Dependence_U,2023.2.3,Win32,39.84063745,670e851632b444a56d13cfb8,682cd3dfea4e15896da7c0a6,682da5c271d79fa401e67124,,,,,,,,,,,,607.4811,2,607.4821,,,,609.814,610.3147,609.2883,609.8139,608.4848,79,609.2881,610.3149,610.8157,610.8159,612.8496,978.2,612.8501,4,613.8508,2,16,76,0,1,0.8,0.3,Time
,,S14,551900,001,female,28,2025-05-21_11h46.17.277,Serial_Dependence_U,2023.2.3,Win32,39.84063745,670e851632b444a56d13cfb8,682cd3dfea4e15896da7c0a6,682da5c271d79fa401e67124,,,,,,,,,,,,613.852,2,613.8526,,,,616.7873,617.2873,616.2615,616.7871,614.8552,201,616.2613,617.2875,617.7888,617.7889,619.3204,1073.6,619.3208,2,620.3229,2,17,77,28,1,1.4,0.7,Time
,,S14,551900,001,female,28,2025-05-21_11h46.17.277,Serial_Dependence_U,2023.2.3,Win32,39.84063745,670e851632b444a56d13cfb8,682cd3dfea4e15896da7c0a6,682da5c271d79fa401e67124,,,,,,,,,,,,620.3243,2,620.3251,,,,623.2595,623.7593,622.7332,623.2592,621.3274,229,622.7329,623.7593,624.261,624.2611,626.3939,1352.6,626.3942,3,627.396,2,18,78,8,1,1.4,0.7,Time
,,S14,551900,001,female,28,2025-05-21_11h46.17.277,Serial_Dependence_U,2023.2.3,Win32,39.84063745,670e851632b444a56d13cfb8,682cd3dfea4e15896da7c0a6,682da5c271d79fa401e67124,,,,,,,,,,,,627.3971,2,627.398,,,,629.9318,630.4315,629.4061,629.9315,628.4022,139,629.4059,630.4317,630.9333,630.9335,632.3648,1027.9,632.3652,3,633.3662,2,19,79,26,1,1,0.7,Time
,,S14,551900,001,female,28,2025-05-21_11h46.17.277,Serial_Dependence_U,2023.2.3,Win32,39.84063745,670e851632b444a56d13cfb8,682cd3dfea4e15896da7c0a6,682da5c271d79fa401e67124,,,,,,,,,,,,633.3679,2,633.3689,,,,635.8765,636.3763,635.3734,635.8763,634.3713,345,635.3733,636.3765,636.8774,636.8775,638.2589,1100,638.2594,4,639.2606,2,20,80,16,1,1,0.7,Time
,,S14,551900,001,female,28,2025-05-21_11h46.17.277,Serial_Dependence_U,2023.2.3,Win32,39.84063745,670e851632b444a56d13cfb8,682cd3dfea4e15896da7c0a6,682da5c271d79fa401e67124,,,,,,,,,,,,639.2615,2,639.2621,,,,642.2213,642.7219,641.6969,642.2209,640.2911,0,641.6963,642.7219,643.2235,643.2237,644.8048,1229,644.8057,2,645.8072,2,21,81,13,1,1.4,0.3,Time
,,S14,551900,001,female,28,2025-05-21_11h46.17.277,Serial_Dependence_U,2023.2.3,Win32,39.84063745,670e851632b444a56d13cfb8,682cd3dfea4e15896da7c0a6,682da5c271d79fa401e67124,,,,,,,,,,,,645.808,2,645.8086,,,,648.1666,648.6667,647.6399,648.1661,646.8123,290,647.6395,648.6668,649.1685,649.1686,651.6523,906.1,651.653,4,652.6552,2,22,82,10,1,0.8,0.3,Time
,,S14,551900,001,female,28,2025-05-21_11h46.17.277,Serial_Dependence_U,2023.2.3,Win32,39.84063745,670e851632b444a56d13cfb8,682cd3dfea4e15896da7c0a6,682da5c271d79fa401e67124,,,,,,,,,,,,652.6559,2,652.6564,,,,655.1901,655.6902,654.6643,655.1897,653.66,239,654.6637,655.6903,656.1918,656.192,657.9999,1226.9,658.0008,4,659.0019,2,23,83,11,1,1,0.3,Time
,,S14,551900,001,female,28,2025-05-21_11h46.17.277,Serial_Dependence_U,2023.2.3,Win32,39.84063745,670e851632b444a56d13cfb8,682cd3dfea4e15896da7c0a6,682da5c271d79fa401e67124,,,,,,,,,,,,659.0037,2,659.0048,,,,661.762,662.262,661.2352,661.7616,660.0312,244,661.2347,662.2621,662.7639,662.7639,664.5712,1300.9,664.572,4,665.5743,2,24,84,27,1,1.2,0.7,Time
,,S14,551900,001,female,28,2025-05-21_11h46.17.277,Serial_Dependence_U,2023.2.3,Win32,39.84063745,670e851632b444a56d13cfb8,682cd3dfea4e15896da7c0a6,682da5c271d79fa401e67124,,,,,,,,,,,,665.5763,2,665.5772,,,,668.3338,668.834,667.8072,668.3334,666.5838,195,667.8068,668.834,669.3358,669.3358,671.268,1339.1,671.2688,4,672.2709,2,25,85,22,1,1.2,0.3,Time
,,S14,551900,001,female,28,2025-05-21_11h46.17.277,Serial_Dependence_U,2023.2.3,Win32,39.84063745,670e851632b444a56d13cfb8,682cd3dfea4e15896da7c0a6,682da5c271d79fa401e67124,,,,,,,,,,,,672.2733,2,672.2744,,,,675.2066,675.7069,674.6802,675.2063,673.2761,180,674.6798,675.707,676.2086,676.2087,677.3131,38.39999999,677.314,1,678.3155,2,26,86,3,1,1.4,0.3,Time
,,S14,551900,001,female,28,2025-05-21_11h46.17.277,Serial_Dependence_U,2023.2.3,Win32,39.84063745,670e851632b444a56d13cfb8,682cd3dfea4e15896da7c0a6,682da5c271d79fa401e67124,,,,,,,,,,,,678.3164,2,678.3169,,,,680.6748,681.1752,680.1484,680.6745,679.3206,139,680.148,681.1753,681.6768,681.6769,683.4851,1281.1,683.4861,5,684.4867,2,27,87,20,1,0.8,0.3,Time
,,S14,551900,001,female,28,2025-05-21_11h46.17.277,Serial_Dependence_U,2023.2.3,Win32,39.84063745,670e851632b444a56d13cfb8,682cd3dfea4e15896da7c0a6,682da5c271d79fa401e67124,,,,,,,,,,,,684.488,2,684.4889,,,,686.8205,687.3205,686.2938,686.8201,685.4911,211,686.2934,687.3207,687.8223,687.8224,689.3282,927.8,689.329,4,690.3307,2,28,88,25,1,0.8,0.7,Time
,,S14,551900,001,female,28,2025-05-21_11h46.17.277,Serial_Dependence_U,2023.2.3,Win32,39.84063745,670e851632b444a56d13cfb8,682cd3dfea4e15896da7c0a6,682da5c271d79fa401e67124,,,,,,,,,,,,690.3316,2,690.3321,,,,693.2671,693.767,692.7402,693.2667,691.3356,345,692.7399,693.7671,694.2688,694.2688,695.9504,1132.4,695.9514,2,696.9527,2,29,89,23,1,1.4,0.3,Time
,,S14,551900,001,female,28,2025-05-21_11h46.17.277,Serial_Dependence_U,2023.2.3,Win32,39.84063745,670e851632b444a56d13cfb8,682cd3dfea4e15896da7c0a6,682da5c271d79fa401e67124,,,,,,,,,,,,696.9535,3,698.7841,s,1.8014,,701.9211,702.421,701.3956,701.9207,699.79,110,701.395,702.421,702.9227,702.9227,704.7796,1330.5,704.7803,2,705.7822,3,0,90,19,1,1.6,0.7,Time
,,S14,551900,001,female,28,2025-05-21_11h46.17.277,Serial_Dependence_U,2023.2.3,Win32,39.84063745,670e851632b444a56d13cfb8,682cd3dfea4e15896da7c0a6,682da5c271d79fa401e67124,,,,,,,,,,,,705.783,3,705.7871,,,,708.7186,709.2187,708.1915,708.7183,706.7873,143,708.1911,709.2187,709.7203,709.7204,711.4519,1253.9,711.4526,2,712.4557,3,1,91,3,1,1.4,0.3,Time
,,S14,551900,001,female,28,2025-05-21_11h46.17.277,Serial_Dependence_U,2023.2.3,Win32,39.84063745,670e851632b444a56d13cfb8,682cd3dfea4e15896da7c0a6,682da5c271d79fa401e67124,,,,,,,,,,,,712.4578,3,712.4592,,,,714.9908,715.49,714.4644,714.9903,713.4594,54,714.4639,715.4901,715.9923,715.9923,717.5975,1168.3,717.5983,4,718.6005,3,2,92,11,1,1,0.3,Time
,,S14,551900,001,female,28,2025-05-21_11h46.17.277,Serial_Dependence_U,2023.2.3,Win32,39.84063745,670e851632b444a56d13cfb8,682cd3dfea4e15896da7c0a6,682da5c271d79fa401e67124,,,,,,,,,,,,718.6019,3,718.603,,,,721.1351,721.6354,720.6098,721.135,719.6044,73,720.6095,721.6357,722.1366,722.1366,723.5687,860.6,723.5691,2,724.5706,3,3,93,6,1,1,0.7,Time
,,S14,551900,001,female,28,2025-05-21_11h46.17.277,Serial_Dependence_U,2023.2.3,Win32,39.84063745,670e851632b444a56d13cfb8,682cd3dfea4e15896da7c0a6,682da5c271d79fa401e67124,,,,,,,,,,,,724.572,3,724.5731,,,,727.6815,728.1823,727.1793,727.6813,725.5768,67,727.1792,728.1824,728.6835,728.6837,730.7417,1001.6,730.742,1,731.7438,3,4,94,4,1,1.6,0.3,Time
,,S14,551900,001,female,28,2025-05-21_11h46.17.277,Serial_Dependence_U,2023.2.3,Win32,39.84063745,670e851632b444a56d13cfb8,682cd3dfea4e15896da7c0a6,682da5c271d79fa401e67124,,,,,,,,,,,,731.7448,3,731.7457,,,,734.08,734.5788,733.553,734.0797,732.7487,349,733.5527,734.579,735.0804,735.0806,736.3853,804.1,736.3857,3,737.3883,3,5,95,20,1,0.8,0.3,Time
,,S14,551900,001,female,28,2025-05-21_11h46.17.277,Serial_Dependence_U,2023.2.3,Win32,39.84063745,670e851632b444a56d13cfb8,682cd3dfea4e15896da7c0a6,682da5c271d79fa401e67124,,,,,,,,,,,,737.3894,3,737.3901,,,,739.8975,740.3978,739.3959,739.8974,738.3915,179,739.3956,740.3978,740.8997,740.8998,742.683,1107.2,742.6836,4,743.6841,3,6,96,16,1,1,0.7,Time
,,S14,551900,001,female,28,2025-05-21_11h46.17.277,Serial_Dependence_U,2023.2.3,Win32,39.84063745,670e851632b444a56d13cfb8,682cd3dfea4e15896da7c0a6,682da5c271d79fa401e67124,,,,,,,,,,,,743.6855,3,743.6868,,,,746.0443,746.5435,745.5163,746.0441,744.7136,21,745.5162,746.5435,747.0454,747.0455,748.3014,804.4,748.3018,3,749.3025,3,7,97,5,1,0.8,0.7,Time
,,S14,551900,001,female,28,2025-05-21_11h46.17.277,Serial_Dependence_U,2023.2.3,Win32,39.84063745,670e851632b444a56d13cfb8,682cd3dfea4e15896da7c0a6,682da5c271d79fa401e67124,,,,,,,,,,,,749.3037,3,749.3046,,,,752.2141,752.7141,751.7123,752.2139,750.3078,167,751.7121,752.7142,753.2158,753.216,755.0981,1349.7,755.0984,3,756.1004,3,8,98,28,1,1.4,0.7,Time
,,S14,551900,001,female,28,2025-05-21_11h46.17.277,Serial_Dependence_U,2023.2.3,Win32,39.84063745,670e851632b444a56d13cfb8,682cd3dfea4e15896da7c0a6,682da5c271d79fa401e67124,,,,,,,,,,,,756.102,3,756.1029,,,,759.0377,759.5367,758.5347,759.0375,757.1077,117,758.5345,759.5368,760.0387,760.0389,761.7712,1234.5,761.7718,2,762.7725,3,9,99,18,1,1.4,0.7,Time
,,S14,551900,001,female,28,2025-05-21_11h46.17.277,Serial_Dependence_U,2023.2.3,Win32,39.84063745,670e851632b444a56d13cfb8,682cd3dfea4e15896da7c0a6,682da5c271d79fa401e67124,,,,,,,,,,,,762.7741,3,762.7749,,,,765.8855,766.3846,765.3826,765.8852,763.7791,144,765.3824,766.3848,766.8868,766.887,768.5444,1228.4,768.5449,2,769.5454,3,10,100,24,1,1.6,0.3,Time
,,S14,551900,001,female,28,2025-05-21_11h46.17.277,Serial_Dependence_U,2023.2.3,Win32,39.84063745,670e851632b444a56d13cfb8,682cd3dfea4e15896da7c0a6,682da5c271d79fa401e67124,,,,,,,,,,,,769.5469,3,769.5479,,,,772.5065,773.0067,771.9802,772.5063,770.5756,75,771.98,773.0068,773.508,773.508,775.0143,1020.7,775.0147,2,776.0165,3,11,101,23,1,1.4,0.3,Time
,,S14,551900,001,female,28,2025-05-21_11h46.17.277,Serial_Dependence_U,2023.2.3,Win32,39.84063745,670e851632b444a56d13cfb8,682cd3dfea4e15896da7c0a6,682da5c271d79fa401e67124,,,,,,,,,,,,776.0174,3,776.018,,,,778.5277,779.0267,778.0246,778.5274,777.0216,23,778.0245,779.0269,779.5288,779.5289,780.9345,1005.5,780.935,3,781.9364,3,12,102,26,1,1,0.7,Time
,,S14,551900,001,female,28,2025-05-21_11h46.17.277,Serial_Dependence_U,2023.2.3,Win32,39.84063745,670e851632b444a56d13cfb8,682cd3dfea4e15896da7c0a6,682da5c271d79fa401e67124,,,,,,,,,,,,781.9376,3,781.9383,,,,784.6709,785.1722,784.1465,784.6709,782.9424,116,784.1462,785.1723,785.6732,785.6733,787.2293,1071.8,787.2296,2,788.2326,3,13,103,22,1,1.2,0.3,Time
,,S14,551900,001,female,28,2025-05-21_11h46.17.277,Serial_Dependence_U,2023.2.3,Win32,39.84063745,670e851632b444a56d13cfb8,682cd3dfea4e15896da7c0a6,682da5c271d79fa401e67124,,,,,,,,,,,,788.234,3,788.2351,,,,791.3683,791.8695,790.8435,791.3681,789.237,61,790.8433,791.8697,792.3715,792.3717,794.6304,1208.7,794.6309,2,795.6323,3,14,104,29,1,1.6,0.7,Time
,,S14,551900,001,female,28,2025-05-21_11h46.17.277,Serial_Dependence_U,2023.2.3,Win32,39.84063745,670e851632b444a56d13cfb8,682cd3dfea4e15896da7c0a6,682da5c271d79fa401e67124,,,,,,,,,,,,795.6337,3,795.6348,,,,798.167,798.6673,797.6415,798.1668,796.6368,243,797.6413,798.6675,799.169,799.1693,800.8506,950.7,800.8509,3,801.8533,3,15,105,1,1,1,0.3,Time
,,S14,551900,001,female,28,2025-05-21_11h46.17.277,Serial_Dependence_U,2023.2.3,Win32,39.84063745,670e851632b444a56d13cfb8,682cd3dfea4e15896da7c0a6,682da5c271d79fa401e67124,,,,,,,,,,,,801.8545,3,801.8553,,,,804.7897,805.2891,804.2629,804.7894,802.858,170,804.2624,805.2893,805.7907,805.7909,808.151,1132.7,808.1514,2,809.1517,3,16,106,13,1,1.4,0.3,Time
,,S14,551900,001,female,28,2025-05-21_11h46.17.277,Serial_Dependence_U,2023.2.3,Win32,39.84063745,670e851632b444a56d13cfb8,682cd3dfea4e15896da7c0a6,682da5c271d79fa401e67124,,,,,,,,,,,,809.1524,3,809.1528,,,,811.687,812.1874,811.1616,811.6868,810.156,43,811.1613,812.1876,812.6884,812.6885,814.3706,1100,814.3709,4,815.3734,3,17,107,21,1,1,0.3,Time
,,S14,551900,001,female,28,2025-05-21_11h46.17.277,Serial_Dependence_U,2023.2.3,Win32,39.84063745,670e851632b444a56d13cfb8,682cd3dfea4e15896da7c0a6,682da5c271d79fa401e67124,,,,,,,,,,,,815.3748,3,815.3757,,,,818.0833,818.5837,817.5815,818.0831,816.378,107,817.5813,818.5839,819.0852,819.0853,820.6914,1047.7,820.6918,2,821.6944,3,18,108,7,1,1.2,0.7,Time
,,S14,551900,001,female,28,2025-05-21_11h46.17.277,Serial_Dependence_U,2023.2.3,Win32,39.84063745,670e851632b444a56d13cfb8,682cd3dfea4e15896da7c0a6,682da5c271d79fa401e67124,,,,,,,,,,,,821.6959,3,821.6971,,,,824.0544,824.5534,823.5271,824.0542,822.7229,191,823.5268,824.5534,825.0555,825.0557,826.4358,953,826.4362,4,827.4376,3,19,109,15,1,0.8,0.7,Time
,,S14,551900,001,female,28,2025-05-21_11h46.17.277,Serial_Dependence_U,2023.2.3,Win32,39.84063745,670e851632b444a56d13cfb8,682cd3dfea4e15896da7c0a6,682da5c271d79fa401e67124,,,,,,,,,,,,827.4382,3,827.4386,,,,830.1728,830.6738,829.6474,830.1727,828.4445,314,829.6471,830.6739,831.1759,831.1761,832.6068,1007.7,832.6072,2,833.6093,3,20,110,17,1,1.2,0.7,Time
,,S14,551900,001,female,28,2025-05-21_11h46.17.277,Serial_Dependence_U,2023.2.3,Win32,39.84063745,670e851632b444a56d13cfb8,682cd3dfea4e15896da7c0a6,682da5c271d79fa401e67124,,,,,,,,,,,,833.6108,3,833.6122,,,,835.9428,836.4434,835.4172,835.9427,834.6136,174,835.4169,836.4435,836.9446,836.9447,837.3982,48.8,837.3989,1,838.3995,3,21,111,25,1,0.8,0.7,Time
,,S14,551900,001,female,28,2025-05-21_11h46.17.277,Serial_Dependence_U,2023.2.3,Win32,39.84063745,670e851632b444a56d13cfb8,682cd3dfea4e15896da7c0a6,682da5c271d79fa401e67124,,,,,,,,,,,,838.4005,3,838.4011,,,,840.7093,841.2088,840.2074,840.7091,839.4045,141,840.2072,841.2089,841.7105,841.7107,843.2926,1029.9,843.293,4,844.2946,3,22,112,10,1,0.8,0.3,Time
,,S14,551900,001,female,28,2025-05-21_11h46.17.277,Serial_Dependence_U,2023.2.3,Win32,39.84063745,670e851632b444a56d13cfb8,682cd3dfea4e15896da7c0a6,682da5c271d79fa401e67124,,,,,,,,,,,,844.2962,3,844.2974,,,,847.4066,847.9064,846.9044,847.4065,845.299,16,846.9042,847.9066,848.4086,848.4088,850.5413,1301.3,850.5417,2,851.5438,3,23,113,9,1,1.6,0.7,Time
,,S14,551900,001,female,28,2025-05-21_11h46.17.277,Serial_Dependence_U,2023.2.3,Win32,39.84063745,670e851632b444a56d13cfb8,682cd3dfea4e15896da7c0a6,682da5c271d79fa401e67124,,,,,,,,,,,,851.545,3,851.5457,,,,854.2553,854.7541,853.7522,854.255,852.5473,163,853.7521,854.7544,855.2557,855.2558,857.7904,928.7,857.7912,2,858.7929,3,24,114,2,1,1.2,0.3,Time
,,S14,551900,001,female,28,2025-05-21_11h46.17.277,Serial_Dependence_U,2023.2.3,Win32,39.84063745,670e851632b444a56d13cfb8,682cd3dfea4e15896da7c0a6,682da5c271d79fa401e67124,,,,,,,,,,,,858.7945,3,858.7955,,,,861.9299,862.4298,861.4268,861.9297,859.8215,146,861.4267,862.4299,862.9316,862.9318,866.3189,928.2,866.3193,1,867.3216,3,25,115,14,1,1.6,0.3,Time
,,S14,551900,001,female,28,2025-05-21_11h46.17.277,Serial_Dependence_U,2023.2.3,Win32,39.84063745,670e851632b444a56d13cfb8,682cd3dfea4e15896da7c0a6,682da5c271d79fa401e67124,,,,,,,,,,,,867.3229,3,867.3237,,,,869.6543,870.1552,869.1287,869.6542,868.3265,215,869.1285,870.1554,870.6571,870.6572,872.1374,971.2,872.1377,4,873.1404,3,26,116,0,1,0.8,0.3,Time
,,S14,551900,001,female,28,2025-05-21_11h46.17.277,Serial_Dependence_U,2023.2.3,Win32,39.84063745,670e851632b444a56d13cfb8,682cd3dfea4e15896da7c0a6,682da5c271d79fa401e67124,,,,,,,,,,,,873.142,3,873.1429,,,,875.8766,876.3763,875.3742,875.8764,874.1469,128,875.3739,876.3765,876.8782,876.8784,878.6599,872.3,878.6603,2,879.6625,3,27,117,27,1,1.2,0.7,Time
,,S14,551900,001,female,28,2025-05-21_11h46.17.277,Serial_Dependence_U,2023.2.3,Win32,39.84063745,670e851632b444a56d13cfb8,682cd3dfea4e15896da7c0a6,682da5c271d79fa401e67124,,,,,,,,,,,,879.664,3,879.6649,,,,882.5974,883.0986,882.0717,882.5973,880.6671,54,882.0715,883.0988,883.6004,883.6006,885.207,1226.4,885.2073,2,886.2093,3,28,118,8,1,1.4,0.7,Time
,,S14,551900,001,female,28,2025-05-21_11h46.17.277,Serial_Dependence_U,2023.2.3,Win32,39.84063745,670e851632b444a56d13cfb8,682cd3dfea4e15896da7c0a6,682da5c271d79fa401e67124,,,,,,,,,,,,886.2109,3,886.2122,,,,888.92,889.4196,888.4177,888.9198,887.2138,39,888.4175,889.4198,889.9214,889.9216,891.3767,1107.2,891.377,2,892.3797,3,29,119,12,1,1.2,0.3,Time
,,S14,551900,001,female,28,2025-05-21_11h46.17.277,Serial_Dependence_U,2023.2.3,Win32,39.84063745,670e851632b444a56d13cfb8,682cd3dfea4e15896da7c0a6,682da5c271d79fa401e67124,,,,,,,,,,,,892.381,4,894.0604,s,1.6414,,897.1721,897.6723,896.6703,897.1719,895.0651,352,896.6701,897.6725,898.1743,898.1744,899.8301,1170.2,899.8304,2,900.8328,4,0,120,14,1,1.6,0.3,Time
,,S14,551900,001,female,28,2025-05-21_11h46.17.277,Serial_Dependence_U,2023.2.3,Win32,39.84063745,670e851632b444a56d13cfb8,682cd3dfea4e15896da7c0a6,682da5c271d79fa401e67124,,,,,,,,,,,,900.8345,4,900.8414,,,,903.971,904.4701,903.4444,903.9708,901.8388,153,903.4441,904.4703,904.9725,904.9725,906.6537,1353.5,906.6541,2,907.6556,4,1,121,24,1,1.6,0.3,Time
,,S14,551900,001,female,28,2025-05-21_11h46.17.277,Serial_Dependence_U,2023.2.3,Win32,39.84063745,670e851632b444a56d13cfb8,682cd3dfea4e15896da7c0a6,682da5c271d79fa401e67124,,,,,,,,,,,,907.6577,4,907.6595,,,,910.5931,911.092,910.0665,910.5929,908.6604,157,910.0662,911.0921,911.594,911.5942,913.176,1201.2,913.1765,2,914.1776,4,2,122,8,1,1.4,0.7,Time
,,S14,551900,001,female,28,2025-05-21_11h46.17.277,Serial_Dependence_U,2023.2.3,Win32,39.84063745,670e851632b444a56d13cfb8,682cd3dfea4e15896da7c0a6,682da5c271d79fa401e67124,,,,,,,,,,,,914.1793,4,914.1807,,,,917.1133,917.614,916.5872,917.1131,915.1833,144,916.587,917.6141,918.1157,918.1158,919.598,1108.4,919.5987,2,920.5985,4,3,123,23,1,1.4,0.3,Time
,,S14,551900,001,female,28,2025-05-21_11h46.17.277,Serial_Dependence_U,2023.2.3,Win32,39.84063745,670e851632b444a56d13cfb8,682cd3dfea4e15896da7c0a6,682da5c271d79fa401e67124,,,,,,,,,,,,920.5994,4,920.5999,,,,923.1336,923.6334,922.6071,923.1334,921.6025,196,922.6069,923.6336,924.1351,924.1351,925.6434,1113.1,925.6439,4,926.6444,4,4,124,26,1,1,0.7,Time
,,S14,551900,001,female,28,2025-05-21_11h46.17.277,Serial_Dependence_U,2023.2.3,Win32,39.84063745,670e851632b444a56d13cfb8,682cd3dfea4e15896da7c0a6,682da5c271d79fa401e67124,,,,,,,,,,,,926.6459,4,926.6468,,,,929.1788,929.6789,928.6536,929.1786,927.6485,43,928.6532,929.6791,930.1808,930.181,931.6617,1050.7,931.662,4,932.6641,4,5,125,1,1,1,0.3,Time
,,S14,551900,001,female,28,2025-05-21_11h46.17.277,Serial_Dependence_U,2023.2.3,Win32,39.84063745,670e851632b444a56d13cfb8,682cd3dfea4e15896da7c0a6,682da5c271d79fa401e67124,,,,,,,,,,,,932.6658,4,932.6667,,,,935.4001,935.8994,934.8742,935.3999,933.6692,177,934.8739,935.8996,936.4016,936.4017,937.9083,1079,937.9088,2,938.9099,4,6,126,22,1,1.2,0.3,Time
,,S14,551900,001,female,28,2025-05-21_11h46.17.277,Serial_Dependence_U,2023.2.3,Win32,39.84063745,670e851632b444a56d13cfb8,682cd3dfea4e15896da7c0a6,682da5c271d79fa401e67124,,,,,,,,,,,,938.9116,4,938.9127,,,,941.8462,942.3462,941.3198,941.846,939.9159,179,941.3196,942.3464,942.8481,942.8484,944.4544,1129.8,944.4547,2,945.4568,4,7,127,18,1,1.4,0.7,Time
,,S14,551900,001,female,28,2025-05-21_11h46.17.277,Serial_Dependence_U,2023.2.3,Win32,39.84063745,670e851632b444a56d13cfb8,682cd3dfea4e15896da7c0a6,682da5c271d79fa401e67124,,,,,,,,,,,,945.4581,4,945.459,,,,948.1919,948.6927,947.6672,948.1917,946.4611,128,947.6669,948.6928,949.1943,949.1945,950.7753,1154,950.7757,3,951.7781,4,8,128,2,1,1.2,0.3,Time
,,S14,551900,001,female,28,2025-05-21_11h46.17.277,Serial_Dependence_U,2023.2.3,Win32,39.84063745,670e851632b444a56d13cfb8,682cd3dfea4e15896da7c0a6,682da5c271d79fa401e67124,,,,,,,,,,,,951.7796,4,951.7804,,,,954.1125,954.6124,953.5857,954.1121,952.7825,74,953.5852,954.6125,955.1143,955.1145,956.42,904.5,956.4211,4,957.4223,4,9,129,15,1,0.8,0.7,Time
,,S14,551900,001,female,28,2025-05-21_11h46.17.277,Serial_Dependence_U,2023.2.3,Win32,39.84063745,670e851632b444a56d13cfb8,682cd3dfea4e15896da7c0a6,682da5c271d79fa401e67124,,,,,,,,,,,,957.4239,4,957.4249,,,,960.3825,960.8826,959.8573,960.3822,958.452,280,959.8567,960.8826,961.3843,961.3844,962.9906,1194.6,962.9913,2,963.9931,4,10,130,28,1,1.4,0.7,Time
,,S14,551900,001,female,28,2025-05-21_11h46.17.277,Serial_Dependence_U,2023.2.3,Win32,39.84063745,670e851632b444a56d13cfb8,682cd3dfea4e15896da7c0a6,682da5c271d79fa401e67124,,,,,,,,,,,,963.9939,4,963.9944,,,,966.9292,967.4294,966.4026,966.9289,964.998,186,966.4021,967.4295,967.9312,967.9312,969.5876,1330.3,969.5883,3,970.59,4,11,131,13,1,1.4,0.3,Time
,,S14,551900,001,female,28,2025-05-21_11h46.17.277,Serial_Dependence_U,2023.2.3,Win32,39.84063745,670e851632b444a56d13cfb8,682cd3dfea4e15896da7c0a6,682da5c271d79fa401e67124,,,,,,,,,,,,970.5907,4,970.5913,,,,972.9492,973.4496,972.4226,972.9489,971.5957,36,972.4222,973.4496,973.9512,973.9513,975.382,876.5,975.3828,4,976.3842,4,12,132,10,1,0.8,0.3,Time
,,S14,551900,001,female,28,2025-05-21_11h46.17.277,Serial_Dependence_U,2023.2.3,Win32,39.84063745,670e851632b444a56d13cfb8,682cd3dfea4e15896da7c0a6,682da5c271d79fa401e67124,,,,,,,,,,,,976.3851,4,976.3857,,,,979.5214,980.0214,978.9946,979.5211,977.3893,53,978.9942,980.0214,980.5232,980.5232,982.3551,1147.6,982.3558,2,983.3587,4,13,133,29,1,1.6,0.7,Time
,,S14,551900,001,female,28,2025-05-21_11h46.17.277,Serial_Dependence_U,2023.2.3,Win32,39.84063745,670e851632b444a56d13cfb8,682cd3dfea4e15896da7c0a6,682da5c271d79fa401e67124,,,,,,,,,,,,983.3611,4,983.3622,,,,985.9182,986.4178,985.3909,985.9177,984.3877,231,985.3904,986.4178,986.9195,986.9195,988.5508,1128.7,988.5516,4,989.5532,4,14,134,21,1,1,0.3,Time
,,S14,551900,001,female,28,2025-05-21_11h46.17.277,Serial_Dependence_U,2023.2.3,Win32,39.84063745,670e851632b444a56d13cfb8,682cd3dfea4e15896da7c0a6,682da5c271d79fa401e67124,,,,,,,,,,,,989.5541,4,989.5545,,,,992.289,992.7889,991.7624,992.2886,990.5592,94,991.762,992.789,993.2909,993.2909,994.8719,978.5,994.8726,2,995.8743,4,15,135,12,1,1.2,0.3,Time
,,S14,551900,001,female,28,2025-05-21_11h46.17.277,Serial_Dependence_U,2023.2.3,Win32,39.84063745,670e851632b444a56d13cfb8,682cd3dfea4e15896da7c0a6,682da5c271d79fa401e67124,,,,,,,,,,,,995.875,4,995.8757,,,,998.8357,999.3358,998.309,998.8354,996.9044,207,998.3086,999.3358,999.8375,999.8375,1001.2932,807.8,1001.2939,1,1002.2958,4,16,136,3,1,1.4,0.3,Time
,,S14,551900,001,female,28,2025-05-21_11h46.17.277,Serial_Dependence_U,2023.2.3,Win32,39.84063745,670e851632b444a56d13cfb8,682cd3dfea4e15896da7c0a6,682da5c271d79fa401e67124,,,,,,,,,,,,1002.2966,4,1002.297,,,,1004.655,1005.1552,1004.1284,1004.6546,1003.302,84,1004.1279,1005.1553,1005.657,1005.657,1007.0373,899.3,1007.038,4,1008.0399,4,17,137,5,1,0.8,0.7,Time
,,S14,551900,001,female,28,2025-05-21_11h46.17.277,Serial_Dependence_U,2023.2.3,Win32,39.84063745,670e851632b444a56d13cfb8,682cd3dfea4e15896da7c0a6,682da5c271d79fa401e67124,,,,,,,,,,,,1008.0408,4,1008.0417,,,,1011.2021,1011.702,1010.6753,1011.2018,1009.0706,81,1010.6749,1011.7021,1012.2037,1012.2038,1012.982,213.5,1012.9828,1,1013.9847,4,18,138,9,1,1.6,0.7,Time
,,S14,551900,001,female,28,2025-05-21_11h46.17.277,Serial_Dependence_U,2023.2.3,Win32,39.84063745,670e851632b444a56d13cfb8,682cd3dfea4e15896da7c0a6,682da5c271d79fa401e67124,,,,,,,,,,,,1013.9855,4,1013.986,,,,1016.7203,1017.2215,1016.1936,1016.7199,1014.9897,230,1016.1931,1017.2218,1017.7233,1017.7235,1019.228,952.6,1019.2288,2,1020.2305,4,19,139,27,1,1.2,0.7,Time
,,S14,551900,001,female,28,2025-05-21_11h46.17.277,Serial_Dependence_U,2023.2.3,Win32,39.84063745,670e851632b444a56d13cfb8,682cd3dfea4e15896da7c0a6,682da5c271d79fa401e67124,,,,,,,,,,,,1020.2313,4,1020.2318,,,,1022.9664,1023.4663,1022.4396,1022.9661,1021.2355,298,1022.4391,1023.4663,1023.9679,1023.968,1025.6244,1007.1,1025.625,2,1026.6268,4,20,140,17,1,1.2,0.7,Time
,,S14,551900,001,female,28,2025-05-21_11h46.17.277,Serial_Dependence_U,2023.2.3,Win32,39.84063745,670e851632b444a56d13cfb8,682cd3dfea4e15896da7c0a6,682da5c271d79fa401e67124,,,,,,,,,,,,1026.6276,4,1026.6282,,,,1029.7636,1030.264,1029.2371,1029.7633,1027.6316,307,1029.2366,1030.264,1030.7665,1030.7667,1032.397,1179.1,1032.3979,2,1033.3998,4,21,141,4,1,1.6,0.3,Time
,,S14,551900,001,female,28,2025-05-21_11h46.17.277,Serial_Dependence_U,2023.2.3,Win32,39.84063745,670e851632b444a56d13cfb8,682cd3dfea4e15896da7c0a6,682da5c271d79fa401e67124,,,,,,,,,,,,1033.4011,4,1033.402,,,,1035.7605,1036.2596,1035.2331,1035.7599,1034.4053,88,1035.2324,1036.2597,1036.7612,1036.7613,1038.1161,782.1,1038.1168,3,1039.1191,4,22,142,25,1,0.8,0.7,Time
,,S14,551900,001,female,28,2025-05-21_11h46.17.277,Serial_Dependence_U,2023.2.3,Win32,39.84063745,670e851632b444a56d13cfb8,682cd3dfea4e15896da7c0a6,682da5c271d79fa401e67124,,,,,,,,,,,,1039.1205,4,1039.1215,,,,1042.2556,1042.7558,1041.7304,1042.2554,1040.1254,48,1041.7301,1042.756,1043.2578,1043.2581,1045.2659,1305,1045.2663,2,1046.2679,4,23,143,19,1,1.6,0.7,Time
,,S14,551900,001,female,28,2025-05-21_11h46.17.277,Serial_Dependence_U,2023.2.3,Win32,39.84063745,670e851632b444a56d13cfb8,682cd3dfea4e15896da7c0a6,682da5c271d79fa401e67124,,,,,,,,,,,,1046.2694,4,1046.2704,,,,1048.8037,1049.303,1048.2775,1048.8034,1047.2724,213,1048.2771,1049.3031,1049.8045,1049.8047,1051.1112,728,1051.1117,2,1052.1124,4,24,144,16,1,1,0.7,Time
,,S14,551900,001,female,28,2025-05-21_11h46.17.277,Serial_Dependence_U,2023.2.3,Win32,39.84063745,670e851632b444a56d13cfb8,682cd3dfea4e15896da7c0a6,682da5c271d79fa401e67124,,,,,,,,,,,,1052.1138,4,1052.1145,,,,1054.6231,1055.1221,1054.1205,1054.6229,1053.1175,57,1054.1202,1055.1222,1055.6242,1055.6244,1057.0297,721.2,1057.03,2,1058.032,4,25,145,6,1,1,0.7,Time
,,S14,551900,001,female,28,2025-05-21_11h46.17.277,Serial_Dependence_U,2023.2.3,Win32,39.84063745,670e851632b444a56d13cfb8,682cd3dfea4e15896da7c0a6,682da5c271d79fa401e67124,,,,,,,,,,,,1058.0336,4,1058.0345,,,,1060.7599,1061.2498,1060.2424,1060.7597,1059.0379,359,1060.2421,1061.25,1061.7448,1061.7449,1064.0043,1074.8,1064.0048,2,1065.0051,4,26,146,7,1,1.2,0.7,Time
,,S14,551900,001,female,28,2025-05-21_11h46.17.277,Serial_Dependence_U,2023.2.3,Win32,39.84063745,670e851632b444a56d13cfb8,682cd3dfea4e15896da7c0a6,682da5c271d79fa401e67124,,,,,,,,,,,,1065.0068,4,1065.0077,,,,1067.3408,1067.8395,1066.8141,1067.3406,1066.0114,115,1066.8138,1067.8397,1068.3415,1068.3417,1069.6491,754.2,1069.6497,2,1070.6493,4,27,147,20,1,0.8,0.3,Time
,,S14,551900,001,female,28,2025-05-21_11h46.17.277,Serial_Dependence_U,2023.2.3,Win32,39.84063745,670e851632b444a56d13cfb8,682cd3dfea4e15896da7c0a6,682da5c271d79fa401e67124,,,,,,,,,,,,1070.6508,4,1070.6516,,,,1072.9846,1073.4836,1072.4582,1072.9843,1071.6557,125,1072.4579,1073.4836,1073.9852,1073.9854,1074.693,125.2,1074.6945,1,1075.6908,4,28,148,0,1,0.8,0.3,Time
,,S14,551900,001,female,28,2025-05-21_11h46.17.277,Serial_Dependence_U,2023.2.3,Win32,39.84063745,670e851632b444a56d13cfb8,682cd3dfea4e15896da7c0a6,682da5c271d79fa401e67124,,,,,,,,,,,,1075.6925,4,1075.6934,,,,1078.2617,1078.7511,1077.7002,1078.2612,1076.6978,86,1077.6999,1078.7512,1079.2531,1079.2533,1080.2334,834.4,1080.2342,2,1081.2342,4,29,149,11,1,1,0.3,Time
,,S14,551900,001,female,28,2025-05-21_11h46.17.277,Serial_Dependence_U,2023.2.3,Win32,39.84063745,670e851632b444a56d13cfb8,682cd3dfea4e15896da7c0a6,682da5c271d79fa401e67124,,,,,,,,,,,,1081.236,5,1083.4177,s,2.1412,,1086.5549,1087.0535,1086.0283,1086.5546,1084.4232,355,1086.0281,1087.0537,1087.5549,1087.5549,1089.3139,1314.1,1089.3143,2,1090.3142,5,0,150,29,1,1.6,0.7,Time
,,S14,551900,001,female,28,2025-05-21_11h46.17.277,Serial_Dependence_U,2023.2.3,Win32,39.84063745,670e851632b444a56d13cfb8,682cd3dfea4e15896da7c0a6,682da5c271d79fa401e67124,,,,,,,,,,,,1090.3152,5,1090.3209,,,,1092.6502,1093.1486,1092.1472,1092.6499,1091.3211,306,1092.147,1093.1486,1093.6502,1093.6503,1095.6097,798.5,1095.6103,3,1096.6107,5,1,151,15,1,0.8,0.7,Time
,,S14,551900,001,female,28,2025-05-21_11h46.17.277,Serial_Dependence_U,2023.2.3,Win32,39.84063745,670e851632b444a56d13cfb8,682cd3dfea4e15896da7c0a6,682da5c271d79fa401e67124,,,,,,,,,,,,1096.6124,5,1096.6133,,,,1099.572,1100.0719,1099.0466,1099.5718,1097.6397,244,1099.0462,1100.072,1100.5741,1100.5743,1102.3067,977.7,1102.3073,1,1103.3084,5,2,152,28,1,1.4,0.7,Time
,,S14,551900,001,female,28,2025-05-21_11h46.17.277,Serial_Dependence_U,2023.2.3,Win32,39.84063745,670e851632b444a56d13cfb8,682cd3dfea4e15896da7c0a6,682da5c271d79fa401e67124,,,,,,,,,,,,1103.3095,5,1103.3103,,,,1106.446,1106.946,1105.9196,1106.4458,1104.3146,143,1105.9193,1106.9463,1107.4475,1107.4477,1109.4305,1478.4,1109.4311,2,1110.4319,5,3,153,19,1,1.6,0.7,Time
,,S14,551900,001,female,28,2025-05-21_11h46.17.277,Serial_Dependence_U,2023.2.3,Win32,39.84063745,670e851632b444a56d13cfb8,682cd3dfea4e15896da7c0a6,682da5c271d79fa401e67124,,,,,,,,,,,,1110.4334,5,1110.4343,,,,1112.9681,1113.4667,1112.4412,1112.9678,1111.4379,272,1112.4409,1113.467,1113.9695,1113.9697,1115.3001,927.1,1115.3006,2,1116.3012,5,4,154,16,1,1,0.7,Time
,,S14,551900,001,female,28,2025-05-21_11h46.17.277,Serial_Dependence_U,2023.2.3,Win32,39.84063745,670e851632b444a56d13cfb8,682cd3dfea4e15896da7c0a6,682da5c271d79fa401e67124,,,,,,,,,,,,1116.3028,5,1116.3038,,,,1118.6367,1119.1357,1118.1103,1118.6365,1117.3071,90,1118.11,1119.1358,1119.6399,1119.6404,1120.7943,804.7,1120.7948,3,1121.7945,5,5,155,25,1,0.8,0.7,Time
,,S14,551900,001,female,28,2025-05-21_11h46.17.277,Serial_Dependence_U,2023.2.3,Win32,39.84063745,670e851632b444a56d13cfb8,682cd3dfea4e15896da7c0a6,682da5c271d79fa401e67124,,,,,,,,,,,,1121.796,5,1121.797,,,,1124.3315,1124.8299,1123.804,1124.3313,1122.8011,300,1123.8037,1124.83,1125.3314,1125.3316,1126.7137,951.5,1126.7143,3,1127.7144,5,6,156,11,1,1,0.3,Time
,,S14,551900,001,female,28,2025-05-21_11h46.17.277,Serial_Dependence_U,2023.2.3,Win32,39.84063745,670e851632b444a56d13cfb8,682cd3dfea4e15896da7c0a6,682da5c271d79fa401e67124,,,,,,,,,,,,1127.716,5,1127.717,,,,1130.8522,1131.3516,1130.326,1130.852,1128.7209,319,1130.3257,1131.3517,1131.853,1131.8533,1133.7617,1429.6,1133.7624,2,1134.7633,5,7,157,24,1,1.6,0.3,Time
,,S14,551900,001,female,28,2025-05-21_11h46.17.277,Serial_Dependence_U,2023.2.3,Win32,39.84063745,670e851632b444a56d13cfb8,682cd3dfea4e15896da7c0a6,682da5c271d79fa401e67124,,,,,,,,,,,,1134.7649,5,1134.7659,,,,1137.2976,1137.7978,1136.7953,1137.2974,1135.7688,319,1136.7951,1137.798,1138.2998,1138.2999,1139.7069,903,1139.7074,2,1140.7075,5,8,158,6,1,1,0.7,Time
,,S14,551900,001,female,28,2025-05-21_11h46.17.277,Serial_Dependence_U,2023.2.3,Win32,39.84063745,670e851632b444a56d13cfb8,682cd3dfea4e15896da7c0a6,682da5c271d79fa401e67124,,,,,,,,,,,,1140.7095,5,1140.7107,,,,1143.6203,1144.1189,1143.117,1143.6201,1141.714,338,1143.1168,1144.119,1144.6207,1144.6209,1146.6555,1330.2,1146.6561,3,1147.6557,5,9,159,18,1,1.4,0.7,Time
,,S14,551900,001,female,28,2025-05-21_11h46.17.277,Serial_Dependence_U,2023.2.3,Win32,39.84063745,670e851632b444a56d13cfb8,682cd3dfea4e15896da7c0a6,682da5c271d79fa401e67124,,,,,,,,,,,,1147.6573,5,1147.6583,,,,1150.3928,1150.8914,1149.8659,1150.3926,1148.6622,217,1149.8656,1150.8915,1151.3934,1151.3936,1153.5527,1353.6,1153.5533,4,1154.5537,5,10,160,2,1,1.2,0.3,Time
,,S14,551900,001,female,28,2025-05-21_11h46.17.277,Serial_Dependence_U,2023.2.3,Win32,39.84063745,670e851632b444a56d13cfb8,682cd3dfea4e15896da7c0a6,682da5c271d79fa401e67124,,,,,,,,,,,,1154.5553,5,1154.5564,,,,1157.2906,1157.7894,1156.7641,1157.2904,1155.56,149,1156.7638,1157.7896,1158.2914,1158.2916,1160.0004,1179.9,1160.001,3,1161.0005,5,11,161,7,1,1.2,0.7,Time
,,S14,551900,001,female,28,2025-05-21_11h46.17.277,Serial_Dependence_U,2023.2.3,Win32,39.84063745,670e851632b444a56d13cfb8,682cd3dfea4e15896da7c0a6,682da5c271d79fa401e67124,,,,,,,,,,,,1161.0022,5,1161.0036,,,,1163.3596,1163.8598,1162.8341,1163.3594,1162.0206,289,1162.8338,1163.8599,1164.3617,1164.3619,1165.9691,1025.9,1165.9698,4,1166.9703,5,12,162,0,1,0.8,0.3,Time
,,S14,551900,001,female,28,2025-05-21_11h46.17.277,Serial_Dependence_U,2023.2.3,Win32,39.84063745,670e851632b444a56d13cfb8,682cd3dfea4e15896da7c0a6,682da5c271d79fa401e67124,,,,,,,,,,,,1166.9718,5,1166.9727,,,,1170.1088,1170.6072,1169.5819,1170.1085,1167.9765,182,1169.5816,1170.6073,1171.1091,1171.1093,1172.7668,1099.1,1172.7677,1,1173.7678,5,13,163,9,1,1.6,0.7,Time
,,S14,551900,001,female,28,2025-05-21_11h46.17.277,Serial_Dependence_U,2023.2.3,Win32,39.84063745,670e851632b444a56d13cfb8,682cd3dfea4e15896da7c0a6,682da5c271d79fa401e67124,,,,,,,,,,,,1173.7694,5,1173.7706,,,,1176.7056,1177.2041,1176.1786,1176.7054,1174.775,304,1176.1783,1177.2044,1177.7065,1177.7066,1179.3387,1052.9,1179.3394,2,1180.34,5,14,164,8,1,1.4,0.7,Time
,,S14,551900,001,female,28,2025-05-21_11h46.17.277,Serial_Dependence_U,2023.2.3,Win32,39.84063745,670e851632b444a56d13cfb8,682cd3dfea4e15896da7c0a6,682da5c271d79fa401e67124,,,,,,,,,,,,1180.3415,5,1180.3424,,,,1183.2755,1183.7754,1182.7523,1183.2754,1181.3461,240,1182.752,1183.7756,1184.2775,1184.2776,1186.6137,1253.3,1186.6143,2,1187.6139,5,15,165,23,1,1.4,0.3,Time
,,S14,551900,001,female,28,2025-05-21_11h46.17.277,Serial_Dependence_U,2023.2.3,Win32,39.84063745,670e851632b444a56d13cfb8,682cd3dfea4e15896da7c0a6,682da5c271d79fa401e67124,,,,,,,,,,,,1187.6156,5,1187.6165,,,,1190.3513,1190.8497,1189.8243,1190.351,1188.6206,226,1189.824,1190.8497,1191.3516,1191.3518,1193.2602,1253.5,1193.2608,3,1194.2611,5,16,166,22,1,1.2,0.3,Time
,,S14,551900,001,female,28,2025-05-21_11h46.17.277,Serial_Dependence_U,2023.2.3,Win32,39.84063745,670e851632b444a56d13cfb8,682cd3dfea4e15896da7c0a6,682da5c271d79fa401e67124,,,,,,,,,,,,1194.263,5,1194.2645,,,,1196.9981,1197.4967,1196.471,1196.9978,1195.2674,3,1196.4708,1197.4968,1197.9989,1197.999,1200.133,1603.1,1200.1336,5,1201.1341,5,17,167,27,1,1.2,0.7,Time
,,S14,551900,001,female,28,2025-05-21_11h46.17.277,Serial_Dependence_U,2023.2.3,Win32,39.84063745,670e851632b444a56d13cfb8,682cd3dfea4e15896da7c0a6,682da5c271d79fa401e67124,,,,,,,,,,,,1201.1356,5,1201.1365,,,,1203.4949,1203.9935,1202.9679,1203.4945,1202.1408,164,1202.9675,1203.9935,1204.4954,1204.4956,1205.8525,845.7,1205.8531,4,1206.8535,5,18,168,5,1,0.8,0.7,Time
,,S14,551900,001,female,28,2025-05-21_11h46.17.277,Serial_Dependence_U,2023.2.3,Win32,39.84063745,670e851632b444a56d13cfb8,682cd3dfea4e15896da7c0a6,682da5c271d79fa401e67124,,,,,,,,,,,,1206.8553,5,1206.8569,,,,1209.1889,1209.6875,1208.6618,1209.1886,1207.8579,160,1208.6615,1209.6876,1210.1896,1210.1898,1211.6214,1049.3,1211.6228,5,1212.6223,5,19,169,20,1,0.8,0.3,Time
,,S14,551900,001,female,28,2025-05-21_11h46.17.277,Serial_Dependence_U,2023.2.3,Win32,39.84063745,670e851632b444a56d13cfb8,682cd3dfea4e15896da7c0a6,682da5c271d79fa401e67124,,,,,,,,,,,,1212.6239,5,1212.6248,,,,1214.9583,1215.457,1214.4316,1214.958,1213.6289,13,1214.4313,1215.4571,1215.9586,1215.9587,1217.1648,828.5,1217.1653,3,1218.1658,5,20,170,10,1,0.8,0.3,Time
,,S14,551900,001,female,28,2025-05-21_11h46.17.277,Serial_Dependence_U,2023.2.3,Win32,39.84063745,670e851632b444a56d13cfb8,682cd3dfea4e15896da7c0a6,682da5c271d79fa401e67124,,,,,,,,,,,,1218.1675,5,1218.1684,,,,1220.7025,1221.2009,1220.1756,1220.7023,1219.1722,268,1220.1753,1221.2009,1221.7024,1221.7025,1223.1077,1021.4,1223.1079,3,1224.1107,5,21,171,26,1,1,0.7,Time
,,S14,551900,001,female,28,2025-05-21_11h46.17.277,Serial_Dependence_U,2023.2.3,Win32,39.84063745,670e851632b444a56d13cfb8,682cd3dfea4e15896da7c0a6,682da5c271d79fa401e67124,,,,,,,,,,,,1224.1122,5,1224.1131,,,,1226.8477,1227.3468,1226.3208,1226.8474,1225.117,347,1226.3205,1227.347,1227.8483,1227.8484,1229.5062,1183.7,1229.5068,3,1230.5072,5,22,172,12,1,1.2,0.3,Time
,,S14,551900,001,female,28,2025-05-21_11h46.17.277,Serial_Dependence_U,2023.2.3,Win32,39.84063745,670e851632b444a56d13cfb8,682cd3dfea4e15896da7c0a6,682da5c271d79fa401e67124,,,,,,,,,,,,1230.5087,5,1230.5096,,,,1233.2439,1233.7426,1232.717,1233.2437,1231.5132,136,1232.7167,1233.7427,1234.2448,1234.2449,1235.8277,1155.3,1235.8283,3,1236.828,5,23,173,17,1,1.2,0.7,Time
,,S14,551900,001,female,28,2025-05-21_11h46.17.277,Serial_Dependence_U,2023.2.3,Win32,39.84063745,670e851632b444a56d13cfb8,682cd3dfea4e15896da7c0a6,682da5c271d79fa401e67124,,,,,,,,,,,,1236.8299,5,1236.8308,,,,1239.3661,1239.8633,1238.8377,1239.3659,1237.8327,326,1238.8374,1239.8634,1240.3649,1240.365,1241.8971,1103.1,1241.8977,4,1242.8992,5,24,174,1,1,1,0.3,Time
,,S14,551900,001,female,28,2025-05-21_11h46.17.277,Serial_Dependence_U,2023.2.3,Win32,39.84063745,670e851632b444a56d13cfb8,682cd3dfea4e15896da7c0a6,682da5c271d79fa401e67124,,,,,,,,,,,,1242.9007,5,1242.9022,,,,1246.0366,1246.5356,1245.5097,1246.0363,1243.9048,64,1245.5094,1246.5359,1247.037,1247.0373,1248.9457,1504.3,1248.9462,2,1249.9469,5,25,175,4,1,1.6,0.3,Time
,,S14,551900,001,female,28,2025-05-21_11h46.17.277,Serial_Dependence_U,2023.2.3,Win32,39.84063745,670e851632b444a56d13cfb8,682cd3dfea4e15896da7c0a6,682da5c271d79fa401e67124,,,,,,,,,,,,1249.9481,5,1249.9492,,,,1252.8844,1253.3834,1252.3576,1252.8842,1250.953,288,1252.3573,1253.3835,1253.8848,1253.8851,1255.8186,1454.5,1255.8191,3,1256.8196,5,26,176,3,1,1.4,0.3,Time
,,S14,551900,001,female,28,2025-05-21_11h46.17.277,Serial_Dependence_U,2023.2.3,Win32,39.84063745,670e851632b444a56d13cfb8,682cd3dfea4e15896da7c0a6,682da5c271d79fa401e67124,,,,,,,,,,,,1256.8216,5,1256.823,,,,1259.9585,1260.4567,1259.4313,1259.9582,1257.8261,17,1259.431,1260.4568,1260.9586,1260.9588,1263.0929,1579.2,1263.0935,3,1264.0942,5,27,177,14,1,1.6,0.3,Time
,,S14,551900,001,female,28,2025-05-21_11h46.17.277,Serial_Dependence_U,2023.2.3,Win32,39.84063745,670e851632b444a56d13cfb8,682cd3dfea4e15896da7c0a6,682da5c271d79fa401e67124,,,,,,,,,,,,1264.0957,5,1264.0968,,,,1266.6557,1267.1541,1266.1286,1266.6554,1265.1016,282,1266.1283,1267.1544,1267.656,1267.6562,1269.2885,1180.5,1269.289,4,1270.2897,5,28,178,21,1,1,0.3,Time
,,S14,551900,001,female,28,2025-05-21_11h46.17.277,Serial_Dependence_U,2023.2.3,Win32,39.84063745,670e851632b444a56d13cfb8,682cd3dfea4e15896da7c0a6,682da5c271d79fa401e67124,,,,,,,,,,,,1270.2913,5,1270.2923,,,,1273.2273,1273.7263,1272.7004,1273.2271,1271.2961,192,1272.7001,1273.7265,1274.2282,1274.2284,1276.0111,1279.6,1276.0118,2,1277.012,5,29,179,13,1,1.4,0.3,Time
,,S14,551900,001,female,28,2025-05-21_11h46.17.277,Serial_Dependence_U,2023.2.3,Win32,39.84063745,670e851632b444a56d13cfb8,682cd3dfea4e15896da7c0a6,682da5c271d79fa401e67124,,,,,,,,,,,,1277.0136,6,1278.6431,s,1.5815,,1281.5797,1282.0787,1281.0535,1281.5794,1279.647,68,1281.0532,1282.079,1282.5807,1282.5808,1284.2134,1128.7,1284.214,2,1285.2143,6,0,180,23,1,1.4,0.3,Time
,,S14,551900,001,female,28,2025-05-21_11h46.17.277,Serial_Dependence_U,2023.2.3,Win32,39.84063745,670e851632b444a56d13cfb8,682cd3dfea4e15896da7c0a6,682da5c271d79fa401e67124,,,,,,,,,,,,1285.2157,6,1285.2234,,,,1287.7761,1288.2744,1287.2487,1287.7758,1286.2214,279,1287.2485,1288.2746,1288.7763,1288.7765,1290.4841,1255,1290.4846,4,1291.4855,6,1,181,16,1,1,0.7,Time
,,S14,551900,001,female,28,2025-05-21_11h46.17.277,Serial_Dependence_U,2023.2.3,Win32,39.84063745,670e851632b444a56d13cfb8,682cd3dfea4e15896da7c0a6,682da5c271d79fa401e67124,,,,,,,,,,,,1291.487,6,1291.4882,,,,1294.2222,1294.7211,1293.6955,1294.222,1292.4913,166,1293.6952,1294.7215,1295.2228,1295.223,1296.9057,1283.3,1296.9065,4,1297.9065,6,2,182,22,1,1.2,0.3,Time
,,S14,551900,001,female,28,2025-05-21_11h46.17.277,Serial_Dependence_U,2023.2.3,Win32,39.84063745,670e851632b444a56d13cfb8,682cd3dfea4e15896da7c0a6,682da5c271d79fa401e67124,,,,,,,,,,,,1297.9082,6,1297.9092,,,,1300.8445,1301.3431,1300.3177,1300.8443,1298.9134,66,1300.3175,1301.3433,1301.8451,1301.8453,1303.2515,776.6,1303.2519,1,1304.2528,6,3,183,18,1,1.4,0.7,Time
,,S14,551900,001,female,28,2025-05-21_11h46.17.277,Serial_Dependence_U,2023.2.3,Win32,39.84063745,670e851632b444a56d13cfb8,682cd3dfea4e15896da7c0a6,682da5c271d79fa401e67124,,,,,,,,,,,,1304.2544,6,1304.2553,,,,1307.3915,1307.89,1306.8651,1307.3912,1305.2592,83,1306.8648,1307.8902,1308.3917,1308.392,1310.3258,1254.6,1310.3265,2,1311.3266,6,4,184,14,1,1.6,0.3,Time
,,S14,551900,001,female,28,2025-05-21_11h46.17.277,Serial_Dependence_U,2023.2.3,Win32,39.84063745,670e851632b444a56d13cfb8,682cd3dfea4e15896da7c0a6,682da5c271d79fa401e67124,,,,,,,,,,,,1311.3281,6,1311.329,,,,1314.0638,1314.5621,1313.5594,1314.0635,1312.3329,354,1313.5593,1314.5622,1315.0644,1315.0647,1316.8475,1204.8,1316.8488,3,1317.8484,6,5,185,2,1,1.2,0.3,Time
,,S14,551900,001,female,28,2025-05-21_11h46.17.277,Serial_Dependence_U,2023.2.3,Win32,39.84063745,670e851632b444a56d13cfb8,682cd3dfea4e15896da7c0a6,682da5c271d79fa401e67124,,,,,,,,,,,,1317.8501,6,1317.8527,,,,1320.3844,1320.8835,1319.8577,1320.384,1318.8528,327,1319.8574,1320.8837,1321.3857,1321.3859,1322.8944,905.1,1322.8955,2,1323.8932,6,6,186,26,1,1,0.7,Time
,,S14,551900,001,female,28,2025-05-21_11h46.17.277,Serial_Dependence_U,2023.2.3,Win32,39.84063745,670e851632b444a56d13cfb8,682cd3dfea4e15896da7c0a6,682da5c271d79fa401e67124,,,,,,,,,,,,1323.8948,6,1323.8957,,,,1326.428,1326.9284,1325.9027,1326.4279,1324.8998,63,1325.9024,1326.9286,1327.4301,1327.4303,1329.1129,1134,1329.1135,4,1330.1142,6,7,187,21,1,1,0.3,Time
,,S14,551900,001,female,28,2025-05-21_11h46.17.277,Serial_Dependence_U,2023.2.3,Win32,39.84063745,670e851632b444a56d13cfb8,682cd3dfea4e15896da7c0a6,682da5c271d79fa401e67124,,,,,,,,,,,,1330.1157,6,1330.1167,,,,1332.4496,1332.9486,1331.9465,1332.4494,1331.1201,277,1331.9463,1332.9487,1333.4505,1333.4508,1334.9828,1026.7,1334.9833,4,1335.9836,6,8,188,25,1,0.8,0.7,Time
,,S14,551900,001,female,28,2025-05-21_11h46.17.277,Serial_Dependence_U,2023.2.3,Win32,39.84063745,670e851632b444a56d13cfb8,682cd3dfea4e15896da7c0a6,682da5c271d79fa401e67124,,,,,,,,,,,,1335.9853,6,1335.9862,,,,1338.6962,1339.1941,1338.1938,1338.6959,1336.9908,255,1338.1935,1339.1943,1339.696,1339.6963,1341.7052,903.3,1341.7058,2,1342.7062,6,9,189,12,1,1.2,0.3,Time
,,S14,551900,001,female,28,2025-05-21_11h46.17.277,Serial_Dependence_U,2023.2.3,Win32,39.84063745,670e851632b444a56d13cfb8,682cd3dfea4e15896da7c0a6,682da5c271d79fa401e67124,,,,,,,,,,,,1342.7074,6,1342.7084,,,,1345.0671,1345.5655,1344.54,1345.0668,1343.7127,290,1344.5398,1345.5658,1346.0671,1346.0674,1347.6248,852.2,1347.6254,4,1348.6258,6,10,190,15,1,0.8,0.7,Time
,,S14,551900,001,female,28,2025-05-21_11h46.17.277,Serial_Dependence_U,2023.2.3,Win32,39.84063745,670e851632b444a56d13cfb8,682cd3dfea4e15896da7c0a6,682da5c271d79fa401e67124,,,,,,,,,,,,1348.6276,6,1348.6285,,,,1351.7644,1352.2631,1351.2376,1351.7642,1349.6321,175,1351.2373,1352.2631,1352.7646,1352.7648,1354.7251,1306.5,1354.7256,2,1355.7238,6,11,191,4,1,1.6,0.3,Time
,,S14,551900,001,female,28,2025-05-21_11h46.17.277,Serial_Dependence_U,2023.2.3,Win32,39.84063745,670e851632b444a56d13cfb8,682cd3dfea4e15896da7c0a6,682da5c271d79fa401e67124,,,,,,,,,,,,1355.7246,6,1355.7249,,,,1358.0578,1358.5583,1357.5562,1358.0578,1356.7303,44,1357.556,1358.5583,1359.0605,1359.0608,1360.0409,884.8,1360.0416,4,1361.0422,6,12,192,5,1,0.8,0.7,Time
,,S14,551900,001,female,28,2025-05-21_11h46.17.277,Serial_Dependence_U,2023.2.3,Win32,39.84063745,670e851632b444a56d13cfb8,682cd3dfea4e15896da7c0a6,682da5c271d79fa401e67124,,,,,,,,,,,,1361.0434,6,1361.0445,,,,1363.5788,1364.0772,1363.0516,1363.5786,1362.0477,174,1363.0514,1364.0774,1364.5795,1364.5796,1366.0359,195.6,1366.0365,1,1367.0374,6,13,193,6,1,1,0.7,Time
,,S14,551900,001,female,28,2025-05-21_11h46.17.277,Serial_Dependence_U,2023.2.3,Win32,39.84063745,670e851632b444a56d13cfb8,682cd3dfea4e15896da7c0a6,682da5c271d79fa401e67124,,,,,,,,,,,,1367.0389,6,1367.0407,,,,1369.3728,1369.8716,1368.8689,1369.3725,1368.0433,330,1368.8687,1369.8718,1370.3739,1370.374,1372.0324,1281.6,1372.033,5,1373.032,6,14,194,0,1,0.8,0.3,Time
,,S14,551900,001,female,28,2025-05-21_11h46.17.277,Serial_Dependence_U,2023.2.3,Win32,39.84063745,670e851632b444a56d13cfb8,682cd3dfea4e15896da7c0a6,682da5c271d79fa401e67124,,,,,,,,,,,,1373.0336,6,1373.0345,,,,1375.5669,1376.0667,1375.065,1375.5667,1374.0382,179,1375.0648,1376.0669,1376.5691,1376.5694,1378.3267,924.9,1378.3273,2,1379.3279,6,15,195,11,1,1,0.3,Time
,,S14,551900,001,female,28,2025-05-21_11h46.17.277,Serial_Dependence_U,2023.2.3,Win32,39.84063745,670e851632b444a56d13cfb8,682cd3dfea4e15896da7c0a6,682da5c271d79fa401e67124,,,,,,,,,,,,1379.3289,6,1379.3296,,,,1382.4644,1382.9645,1381.9629,1382.4642,1380.3573,349,1381.9628,1382.9647,1383.4664,1383.4665,1385.2985,1227.4,1385.2988,2,1386.3007,6,16,196,9,1,1.6,0.7,Time
,,S14,551900,001,female,28,2025-05-21_11h46.17.277,Serial_Dependence_U,2023.2.3,Win32,39.84063745,670e851632b444a56d13cfb8,682cd3dfea4e15896da7c0a6,682da5c271d79fa401e67124,,,,,,,,,,,,1386.3015,6,1386.3019,,,,1388.8107,1389.3109,1388.3089,1388.8106,1387.3054,32,1388.3087,1389.3109,1389.8126,1389.8127,1391.3939,1109.7,1391.3941,4,1392.3961,6,17,197,1,1,1,0.3,Time
,,S14,551900,001,female,28,2025-05-21_11h46.17.277,Serial_Dependence_U,2023.2.3,Win32,39.84063745,670e851632b444a56d13cfb8,682cd3dfea4e15896da7c0a6,682da5c271d79fa401e67124,,,,,,,,,,,,1392.3967,6,1392.3972,,,,1394.7051,1395.2054,1394.2033,1394.7049,1393.4008,288,1394.2032,1395.2055,1395.7071,1395.7073,1397.3637,954.9,1397.364,4,1398.3659,6,18,198,20,1,0.8,0.3,Time
,,S14,551900,001,female,28,2025-05-21_11h46.17.277,Serial_Dependence_U,2023.2.3,Win32,39.84063745,670e851632b444a56d13cfb8,682cd3dfea4e15896da7c0a6,682da5c271d79fa401e67124,,,,,,,,,,,,1398.3667,6,1398.3672,,,,1401.478,1401.9781,1400.976,1401.4779,1399.3707,166,1400.9759,1401.9782,1402.4806,1402.4808,1404.2867,1153.6,1404.287,2,1405.289,6,19,199,19,1,1.6,0.7,Time
,,S14,551900,001,female,28,2025-05-21_11h46.17.277,Serial_Dependence_U,2023.2.3,Win32,39.84063745,670e851632b444a56d13cfb8,682cd3dfea4e15896da7c0a6,682da5c271d79fa401e67124,,,,,,,,,,,,1405.2899,6,1405.2903,,,,1408.2001,1408.7003,1407.6983,1408.2,1406.2937,95,1407.6981,1408.7004,1409.2022,1409.2022,1411.5617,1628,1411.562,4,1412.5633,6,20,200,28,1,1.4,0.7,Time
,,S14,551900,001,female,28,2025-05-21_11h46.17.277,Serial_Dependence_U,2023.2.3,Win32,39.84063745,670e851632b444a56d13cfb8,682cd3dfea4e15896da7c0a6,682da5c271d79fa401e67124,,,,,,,,,,,,1412.5643,6,1412.5647,,,,1415.7029,1416.2009,1415.1758,1415.7026,1413.5679,147,1415.1755,1416.2012,1416.7029,1416.7031,1419.9658,1605.2,1419.9664,3,1420.9673,6,21,201,29,1,1.6,0.7,Time
,,S14,551900,001,female,28,2025-05-21_11h46.17.277,Serial_Dependence_U,2023.2.3,Win32,39.84063745,670e851632b444a56d13cfb8,682cd3dfea4e15896da7c0a6,682da5c271d79fa401e67124,,,,,,,,,,,,1420.9692,6,1420.9705,,,,1423.7041,1424.2026,1423.1772,1423.7038,1421.9737,227,1423.1769,1424.2027,1424.7045,1424.7047,1426.5379,1281.8,1426.5385,4,1427.5389,6,22,202,7,1,1.2,0.7,Time
,,S14,551900,001,female,28,2025-05-21_11h46.17.277,Serial_Dependence_U,2023.2.3,Win32,39.84063745,670e851632b444a56d13cfb8,682cd3dfea4e15896da7c0a6,682da5c271d79fa401e67124,,,,,,,,,,,,1427.5406,6,1427.5416,,,,1430.4766,1430.9754,1429.9502,1430.4764,1428.5451,159,1429.9499,1430.9755,1431.477,1431.4773,1433.2333,1346.7,1433.2335,3,1434.2362,6,23,203,8,1,1.4,0.7,Time
,,S14,551900,001,female,28,2025-05-21_11h46.17.277,Serial_Dependence_U,2023.2.3,Win32,39.84063745,670e851632b444a56d13cfb8,682cd3dfea4e15896da7c0a6,682da5c271d79fa401e67124,,,,,,,,,,,,1434.2378,6,1434.2393,,,,1436.9733,1437.4721,1436.4464,1436.9731,1435.2429,155,1436.4461,1437.4724,1437.9738,1437.9739,1439.3055,959.4,1439.306,2,1440.3065,6,24,204,27,1,1.2,0.7,Time
,,S14,551900,001,female,28,2025-05-21_11h46.17.277,Serial_Dependence_U,2023.2.3,Win32,39.84063745,670e851632b444a56d13cfb8,682cd3dfea4e15896da7c0a6,682da5c271d79fa401e67124,,,,,,,,,,,,1440.3078,6,1440.3088,,,,1443.0439,1443.5421,1442.5395,1443.0436,1441.3131,149,1442.5393,1443.5423,1444.0451,1444.0452,1444.22,104.7,1444.2202,1,1445.2223,6,25,205,17,1,1.2,0.7,Time
,,S14,551900,001,female,28,2025-05-21_11h46.17.277,Serial_Dependence_U,2023.2.3,Win32,39.84063745,670e851632b444a56d13cfb8,682cd3dfea4e15896da7c0a6,682da5c271d79fa401e67124,,,,,,,,,,,,1445.2234,6,1445.224,,,,1448.159,1448.6597,1447.6336,1448.1589,1446.2294,216,1447.6333,1448.6606,1449.161,1449.1612,1450.8193,1254.2,1450.82,2,1451.8198,6,26,206,13,1,1.4,0.3,Time
,,S14,551900,001,female,28,2025-05-21_11h46.17.277,Serial_Dependence_U,2023.2.3,Win32,39.84063745,670e851632b444a56d13cfb8,682cd3dfea4e15896da7c0a6,682da5c271d79fa401e67124,,,,,,,,,,,,1451.8211,6,1451.822,,,,1454.7573,1455.2559,1454.2307,1454.7571,1452.8259,328,1454.2303,1455.2559,1455.7584,1455.7585,1456.9394,1152.8,1456.94,2,1457.9401,6,27,207,3,1,1.4,0.3,Time
,,S14,551900,001,female,28,2025-05-21_11h46.17.277,Serial_Dependence_U,2023.2.3,Win32,39.84063745,670e851632b444a56d13cfb8,682cd3dfea4e15896da7c0a6,682da5c271d79fa401e67124,,,,,,,,,,,,1457.9417,6,1457.9427,,,,1461.0785,1461.5772,1460.5518,1461.0782,1458.9464,347,1460.5514,1461.5775,1462.0794,1462.0796,1463.863,1054.7,1463.8637,1,1464.8634,6,28,208,24,1,1.6,0.3,Time
,,S14,551900,001,female,28,2025-05-21_11h46.17.277,Serial_Dependence_U,2023.2.3,Win32,39.84063745,670e851632b444a56d13cfb8,682cd3dfea4e15896da7c0a6,682da5c271d79fa401e67124,,,,,,,,,,,,1464.8649,6,1464.8658,,,,1467.2243,1467.7223,1466.6975,1467.2241,1465.87,252,1466.6971,1467.7224,1468.2247,1468.2249,1470.7602,1050.2,1470.7608,5,1471.7611,6,29,209,10,1,0.8,0.3,Time
,,S14,551900,001,female,28,2025-05-21_11h46.17.277,Serial_Dependence_U,2023.2.3,Win32,39.84063745,670e851632b444a56d13cfb8,682cd3dfea4e15896da7c0a6,682da5c271d79fa401e67124,,,,,,,,,,,,1471.7631,7,1473.3922,s,1.5799,,1476.3289,1476.8283,1475.8025,1476.3286,1474.3962,172,1475.8021,1476.8285,1477.3299,1477.33,1479.4645,1153,1479.4651,2,1480.4653,7,0,210,18,1,1.4,0.7,Time
,,S14,551900,001,female,28,2025-05-21_11h46.17.277,Serial_Dependence_U,2023.2.3,Win32,39.84063745,670e851632b444a56d13cfb8,682cd3dfea4e15896da7c0a6,682da5c271d79fa401e67124,,,,,,,,,,,,1480.4667,7,1480.4735,,,,1482.9764,1483.4755,1482.4734,1482.9761,1481.4714,283,1482.4733,1483.4756,1483.9772,1483.9773,1485.5848,1203.9,1485.5855,4,1486.5858,7,1,211,21,1,1,0.3,Time
,,S14,551900,001,female,28,2025-05-21_11h46.17.277,Serial_Dependence_U,2023.2.3,Win32,39.84063745,670e851632b444a56d13cfb8,682cd3dfea4e15896da7c0a6,682da5c271d79fa401e67124,,,,,,,,,,,,1486.5874,7,1486.5883,,,,1488.9212,1489.42,1488.3948,1488.9211,1487.5918,317,1488.3946,1489.4202,1489.9215,1489.9216,1491.1783,901,1491.1788,4,1492.1793,7,2,212,15,1,0.8,0.7,Time
,,S14,551900,001,female,28,2025-05-21_11h46.17.277,Serial_Dependence_U,2023.2.3,Win32,39.84063745,670e851632b444a56d13cfb8,682cd3dfea4e15896da7c0a6,682da5c271d79fa401e67124,,,,,,,,,,,,1492.1809,7,1492.1818,,,,1494.9164,1495.4151,1494.3902,1494.9161,1493.1859,118,1494.3896,1495.4153,1495.917,1495.9173,1497.2,1081.5,1497.2007,2,1498.1995,7,3,213,12,1,1.2,0.3,Time
,,S14,551900,001,female,28,2025-05-21_11h46.17.277,Serial_Dependence_U,2023.2.3,Win32,39.84063745,670e851632b444a56d13cfb8,682cd3dfea4e15896da7c0a6,682da5c271d79fa401e67124,,,,,,,,,,,,1498.2009,7,1498.2023,,,,1500.5602,1501.0591,1500.0336,1500.56,1499.2061,182,1500.0333,1501.0592,1501.5606,1501.5609,1503.093,871.3,1503.0936,4,1504.0942,7,4,214,0,1,0.8,0.3,Time
,,S14,551900,001,female,28,2025-05-21_11h46.17.277,Serial_Dependence_U,2023.2.3,Win32,39.84063745,670e851632b444a56d13cfb8,682cd3dfea4e15896da7c0a6,682da5c271d79fa401e67124,,,,,,,,,,,,1504.0954,7,1504.0963,,,,1506.8315,1507.3297,1506.3042,1506.8311,1505.1011,269,1506.3039,1507.3299,1507.8315,1507.8318,1509.5125,1206.1,1509.5128,3,1510.5157,7,5,215,2,1,1.2,0.3,Time
,,S14,551900,001,female,28,2025-05-21_11h46.17.277,Serial_Dependence_U,2023.2.3,Win32,39.84063745,670e851632b444a56d13cfb8,682cd3dfea4e15896da7c0a6,682da5c271d79fa401e67124,,,,,,,,,,,,1510.5173,7,1510.5183,,,,1513.251,1513.7512,1512.7256,1513.2507,1511.5218,333,1512.7253,1513.7513,1514.2531,1514.2534,1516.3624,1111.7,1516.363,2,1517.3632,7,6,216,17,1,1.2,0.7,Time
,,S14,551900,001,female,28,2025-05-21_11h46.17.277,Serial_Dependence_U,2023.2.3,Win32,39.84063745,670e851632b444a56d13cfb8,682cd3dfea4e15896da7c0a6,682da5c271d79fa401e67124,,,,,,,,,,,,1517.3648,7,1517.3657,,,,1519.8998,1520.3983,1519.3732,1519.8995,1518.3698,265,1519.3729,1520.3985,1520.9,1520.9003,1522.608,1202.9,1522.6087,4,1523.6094,7,7,217,26,1,1,0.7,Time
,,S14,551900,001,female,28,2025-05-21_11h46.17.277,Serial_Dependence_U,2023.2.3,Win32,39.84063745,670e851632b444a56d13cfb8,682cd3dfea4e15896da7c0a6,682da5c271d79fa401e67124,,,,,,,,,,,,1523.6111,7,1523.6124,,,,1526.1456,1526.6441,1525.6187,1526.1453,1524.6155,18,1525.6185,1526.6443,1527.1458,1527.1461,1528.704,1082.9,1528.7045,4,1529.7043,7,8,218,6,1,1,0.7,Time
,,S14,551900,001,female,28,2025-05-21_11h46.17.277,Serial_Dependence_U,2023.2.3,Win32,39.84063745,670e851632b444a56d13cfb8,682cd3dfea4e15896da7c0a6,682da5c271d79fa401e67124,,,,,,,,,,,,1529.706,7,1529.707,,,,1532.8677,1533.3669,1532.3412,1532.8672,1530.7357,290,1532.3406,1533.3671,1533.8688,1533.869,1535.5517,1175.6,1535.5526,2,1536.5525,7,9,219,29,1,1.6,0.7,Time
,,S14,551900,001,female,28,2025-05-21_11h46.17.277,Serial_Dependence_U,2023.2.3,Win32,39.84063745,670e851632b444a56d13cfb8,682cd3dfea4e15896da7c0a6,682da5c271d79fa401e67124,,,,,,,,,,,,1536.554,7,1536.5549,,,,1539.6906,1540.1893,1539.1637,1539.6904,1537.5584,350,1539.1634,1540.1896,1540.691,1540.6912,1542.6746,1348.6,1542.6751,2,1543.6759,7,10,220,19,1,1.6,0.7,Time
,,S14,551900,001,female,28,2025-05-21_11h46.17.277,Serial_Dependence_U,2023.2.3,Win32,39.84063745,670e851632b444a56d13cfb8,682cd3dfea4e15896da7c0a6,682da5c271d79fa401e67124,,,,,,,,,,,,1543.6776,7,1543.6785,,,,1546.4131,1546.9121,1545.8866,1546.4126,1544.6826,226,1545.8864,1546.9122,1547.4139,1547.414,1549.2475,1202.6,1549.2484,3,1550.2479,7,11,221,7,1,1.2,0.7,Time
,,S14,551900,001,female,28,2025-05-21_11h46.17.277,Serial_Dependence_U,2023.2.3,Win32,39.84063745,670e851632b444a56d13cfb8,682cd3dfea4e15896da7c0a6,682da5c271d79fa401e67124,,,,,,,,,,,,1550.2495,7,1550.2504,,,,1553.1838,1553.6844,1552.6585,1553.1837,1551.2532,67,1552.6583,1553.6845,1554.1862,1554.1864,1557.7004,1128.9,1557.7009,2,1558.7013,7,12,222,8,1,1.4,0.7,Time
,,S14,551900,001,female,28,2025-05-21_11h46.17.277,Serial_Dependence_U,2023.2.3,Win32,39.84063745,670e851632b444a56d13cfb8,682cd3dfea4e15896da7c0a6,682da5c271d79fa401e67124,,,,,,,,,,,,1558.7028,7,1558.7036,,,,1561.2378,1561.7361,1560.7107,1561.2375,1559.7057,75,1560.7104,1561.7363,1562.2378,1562.2381,1563.8204,979.6,1563.8209,3,1564.8215,7,13,223,16,1,1,0.7,Time
,,S14,551900,001,female,28,2025-05-21_11h46.17.277,Serial_Dependence_U,2023.2.3,Win32,39.84063745,670e851632b444a56d13cfb8,682cd3dfea4e15896da7c0a6,682da5c271d79fa401e67124,,,,,,,,,,,,1564.8232,7,1564.8241,,,,1567.7577,1568.2579,1567.2324,1567.7575,1565.8281,180,1567.232,1568.258,1568.7597,1568.7598,1570.5681,1178,1570.5686,2,1571.5691,7,14,224,23,1,1.4,0.3,Time
,,S14,551900,001,female,28,2025-05-21_11h46.17.277,Serial_Dependence_U,2023.2.3,Win32,39.84063745,670e851632b444a56d13cfb8,682cd3dfea4e15896da7c0a6,682da5c271d79fa401e67124,,,,,,,,,,,,1571.5706,7,1571.5715,,,,1574.7074,1575.2063,1574.1808,1574.7071,1572.5753,241,1574.1805,1575.2064,1575.7079,1575.708,1577.6415,1379.1,1577.642,2,1578.6425,7,15,225,24,1,1.6,0.3,Time
,,S14,551900,001,female,28,2025-05-21_11h46.17.277,Serial_Dependence_U,2023.2.3,Win32,39.84063745,670e851632b444a56d13cfb8,682cd3dfea4e15896da7c0a6,682da5c271d79fa401e67124,,,,,,,,,,,,1578.6442,7,1578.6451,,,,1581.5806,1582.0797,1581.0532,1581.5801,1579.6494,101,1581.0525,1582.0798,1582.5819,1582.5822,1584.0388,1427.9,1584.0398,3,1585.0394,7,16,226,28,1,1.4,0.7,Time
,,S14,551900,001,female,28,2025-05-21_11h46.17.277,Serial_Dependence_U,2023.2.3,Win32,39.84063745,670e851632b444a56d13cfb8,682cd3dfea4e15896da7c0a6,682da5c271d79fa401e67124,,,,,,,,,,,,1585.041,7,1585.0424,,,,1587.7763,1588.2749,1587.249,1587.7759,1586.0452,63,1587.2488,1588.275,1588.7764,1588.7766,1590.4092,1252.8,1590.4098,3,1591.41,7,17,227,27,1,1.2,0.7,Time
,,S14,551900,001,female,28,2025-05-21_11h46.17.277,Serial_Dependence_U,2023.2.3,Win32,39.84063745,670e851632b444a56d13cfb8,682cd3dfea4e15896da7c0a6,682da5c271d79fa401e67124,,,,,,,,,,,,1591.4117,7,1591.4127,,,,1594.3728,1594.8718,1593.8459,1594.3726,1592.4168,137,1593.8457,1594.8719,1595.3733,1595.3736,1597.884,1605,1597.8846,4,1598.8851,7,18,228,13,1,1.4,0.3,Time
,,S14,551900,001,female,28,2025-05-21_11h46.17.277,Serial_Dependence_U,2023.2.3,Win32,39.84063745,670e851632b444a56d13cfb8,682cd3dfea4e15896da7c0a6,682da5c271d79fa401e67124,,,,,,,,,,,,1598.8868,7,1598.8877,,,,1602.0234,1602.5221,1601.5012,1602.0231,1599.8917,101,1601.5009,1602.5224,1603.0241,1603.0243,1604.9081,1555.3,1604.9088,3,1605.9085,7,19,229,14,1,1.6,0.3,Time
,,S14,551900,001,female,28,2025-05-21_11h46.17.277,Serial_Dependence_U,2023.2.3,Win32,39.84063745,670e851632b444a56d13cfb8,682cd3dfea4e15896da7c0a6,682da5c271d79fa401e67124,,,,,,,,,,,,1605.91,7,1605.911,,,,1608.2693,1608.7678,1607.7431,1608.2689,1606.9403,168,1607.7429,1608.7679,1609.2705,1609.2707,1611.5293,912.7,1611.5299,4,1612.5305,7,20,230,25,1,0.8,0.7,Time
,,S14,551900,001,female,28,2025-05-21_11h46.17.277,Serial_Dependence_U,2023.2.3,Win32,39.84063745,670e851632b444a56d13cfb8,682cd3dfea4e15896da7c0a6,682da5c271d79fa401e67124,,,,,,,,,,,,1612.5322,7,1612.5331,,,,1615.4434,1615.942,1614.9409,1615.4432,1613.5347,149,1614.9406,1615.9422,1616.444,1616.4443,1618.2291,1382.1,1618.2303,3,1619.2278,7,21,231,3,1,1.4,0.3,Time
,,S14,551900,001,female,28,2025-05-21_11h46.17.277,Serial_Dependence_U,2023.2.3,Win32,39.84063745,670e851632b444a56d13cfb8,682cd3dfea4e15896da7c0a6,682da5c271d79fa401e67124,,,,,,,,,,,,1619.2294,7,1619.2305,,,,1622.3663,1622.8652,1621.8391,1622.3659,1620.2325,179,1621.8389,1622.8653,1623.3667,1623.367,1625.1503,1379,1625.1509,2,1626.1511,7,22,232,9,1,1.6,0.7,Time
,,S14,551900,001,female,28,2025-05-21_11h46.17.277,Serial_Dependence_U,2023.2.3,Win32,39.84063745,670e851632b444a56d13cfb8,682cd3dfea4e15896da7c0a6,682da5c271d79fa401e67124,,,,,,,,,,,,1626.1527,7,1626.1537,,,,1628.8875,1629.3866,1628.3625,1628.8873,1627.1573,284,1628.3621,1629.3867,1629.8886,1629.8888,1631.5213,1129.9,1631.5224,2,1632.5222,7,23,233,22,1,1.2,0.3,Time
,,S14,551900,001,female,28,2025-05-21_11h46.17.277,Serial_Dependence_U,2023.2.3,Win32,39.84063745,670e851632b444a56d13cfb8,682cd3dfea4e15896da7c0a6,682da5c271d79fa401e67124,,,,,,,,,,,,1632.5237,7,1632.5255,,,,1635.0356,1635.5323,1634.5318,1635.0352,1633.5284,202,1634.5316,1635.5325,1636.034,1636.0342,1637.5667,1109.3,1637.5671,4,1638.5669,7,24,234,11,1,1,0.3,Time
,,S14,551900,001,female,28,2025-05-21_11h46.17.277,Serial_Dependence_U,2023.2.3,Win32,39.84063745,670e851632b444a56d13cfb8,682cd3dfea4e15896da7c0a6,682da5c271d79fa401e67124,,,,,,,,,,,,1638.5675,7,1638.568,,,,1641.1035,1641.6027,1640.5768,1641.1032,1639.5713,29,1640.5765,1641.6027,1642.1045,1642.1047,1643.6117,978.5,1643.6122,3,1644.6125,7,25,235,1,1,1,0.3,Time
,,S14,551900,001,female,28,2025-05-21_11h46.17.277,Serial_Dependence_U,2023.2.3,Win32,39.84063745,670e851632b444a56d13cfb8,682cd3dfea4e15896da7c0a6,682da5c271d79fa401e67124,,,,,,,,,,,,1644.614,7,1644.615,,,,1646.9733,1647.472,1646.4474,1646.973,1645.6211,129,1646.4471,1647.4722,1647.9738,1647.974,1649.431,1028.2,1649.4316,4,1650.4322,7,26,236,20,1,0.8,0.3,Time
,,S14,551900,001,female,28,2025-05-21_11h46.17.277,Serial_Dependence_U,2023.2.3,Win32,39.84063745,670e851632b444a56d13cfb8,682cd3dfea4e15896da7c0a6,682da5c271d79fa401e67124,,,,,,,,,,,,1650.4336,7,1650.4344,,,,1653.5688,1654.0692,1653.0438,1653.5686,1651.4385,75,1653.0435,1654.0692,1654.5707,1654.5709,1656.3288,1305,1656.3294,2,1657.3301,7,27,237,4,1,1.6,0.3,Time
,,S14,551900,001,female,28,2025-05-21_11h46.17.277,Serial_Dependence_U,2023.2.3,Win32,39.84063745,670e851632b444a56d13cfb8,682cd3dfea4e15896da7c0a6,682da5c271d79fa401e67124,,,,,,,,,,,,1657.3314,7,1657.3323,,,,1659.6656,1660.1643,1659.1622,1659.6653,1658.3362,211,1659.162,1660.1645,1660.6662,1660.6666,1662.1231,1128.3,1662.1237,5,1663.1244,7,28,238,10,1,0.8,0.3,Time
,,S14,551900,001,female,28,2025-05-21_11h46.17.277,Serial_Dependence_U,2023.2.3,Win32,39.84063745,670e851632b444a56d13cfb8,682cd3dfea4e15896da7c0a6,682da5c271d79fa401e67124,,,,,,,,,,,,1663.1258,7,1663.1267,,,,1665.4603,1665.9585,1664.9333,1665.46,1664.129,36,1664.933,1665.9588,1666.4603,1666.4606,1667.6667,799.5,1667.6672,3,1668.6676,7,29,239,5,1,0.8,0.7,Time
,,S14,551900,001,female,28,2025-05-21_11h46.17.277,Serial_Dependence_U,2023.2.3,Win32,39.84063745,670e851632b444a56d13cfb8,682cd3dfea4e15896da7c0a6,682da5c271d79fa401e67124,,,,,,,,,,,,1668.6693,8,1670.675,s,1.9566,,1673.0353,1673.5333,1672.5084,1673.0351,1671.6798,241,1672.5081,1673.5335,1674.0356,1674.0357,1675.3675,707,1675.3681,2,1676.3686,8,0,240,10,1,0.8,0.3,Time
,,S14,551900,001,female,28,2025-05-21_11h46.17.277,Serial_Dependence_U,2023.2.3,Win32,39.84063745,670e851632b444a56d13cfb8,682cd3dfea4e15896da7c0a6,682da5c271d79fa401e67124,,,,,,,,,,,,1676.37,8,1676.3775,,,,1679.106,1679.6046,1678.5786,1679.1057,1677.3751,221,1678.5783,1679.6048,1680.1057,1680.1061,1682.0152,876.1,1682.0158,2,1683.0151,8,1,241,22,1,1.2,0.3,Time
,,S14,551900,001,female,28,2025-05-21_11h46.17.277,Serial_Dependence_U,2023.2.3,Win32,39.84063745,670e851632b444a56d13cfb8,682cd3dfea4e15896da7c0a6,682da5c271d79fa401e67124,,,,,,,,,,,,1683.0159,8,1683.0166,,,,1685.9533,1686.4518,1685.4268,1685.9531,1684.0214,69,1685.4265,1686.452,1686.9537,1686.9539,1688.5366,1261.4,1688.5372,2,1689.5375,8,2,242,8,1,1.4,0.7,Time
,,S14,551900,001,female,28,2025-05-21_11h46.17.277,Serial_Dependence_U,2023.2.3,Win32,39.84063745,670e851632b444a56d13cfb8,682cd3dfea4e15896da7c0a6,682da5c271d79fa401e67124,,,,,,,,,,,,1689.539,8,1689.5399,,,,1692.4756,1692.9744,1691.9488,1692.475,1690.5434,143,1691.9485,1692.9745,1693.4761,1693.4763,1695.359,1404.7,1695.3597,3,1696.36,8,3,243,13,1,1.4,0.3,Time
,,S14,551900,001,female,28,2025-05-21_11h46.17.277,Serial_Dependence_U,2023.2.3,Win32,39.84063745,670e851632b444a56d13cfb8,682cd3dfea4e15896da7c0a6,682da5c271d79fa401e67124,,,,,,,,,,,,1696.3616,8,1696.3626,,,,1699.097,1699.5957,1698.5706,1699.0967,1697.3663,74,1698.5702,1699.5959,1700.0976,1700.0978,1701.5799,1204.1,1701.5805,3,1702.5807,8,4,244,7,1,1.2,0.7,Time
,,S14,551900,001,female,28,2025-05-21_11h46.17.277,Serial_Dependence_U,2023.2.3,Win32,39.84063745,670e851632b444a56d13cfb8,682cd3dfea4e15896da7c0a6,682da5c271d79fa401e67124,,,,,,,,,,,,1702.5823,8,1702.5832,,,,1705.1424,1705.6411,1704.6153,1705.1421,1703.5871,356,1704.6149,1705.6412,1706.1426,1706.1429,1707.5747,826.5,1707.5753,2,1708.5756,8,5,245,1,1,1,0.3,Time
,,S14,551900,001,female,28,2025-05-21_11h46.17.277,Serial_Dependence_U,2023.2.3,Win32,39.84063745,670e851632b444a56d13cfb8,682cd3dfea4e15896da7c0a6,682da5c271d79fa401e67124,,,,,,,,,,,,1708.5774,8,1708.5783,,,,1710.8885,1711.3851,1710.3845,1710.8882,1709.5821,132,1710.3842,1711.3853,1711.887,1711.8872,1713.1933,727,1713.194,2,1714.1946,8,6,246,20,1,0.8,0.3,Time
,,S14,551900,001,female,28,2025-05-21_11h46.17.277,Serial_Dependence_U,2023.2.3,Win32,39.84063745,670e851632b444a56d13cfb8,682cd3dfea4e15896da7c0a6,682da5c271d79fa401e67124,,,,,,,,,,,,1714.1962,8,1714.1978,,,,1716.9319,1717.4302,1716.4048,1716.9316,1715.2008,235,1716.4045,1717.4303,1717.9319,1717.9321,1719.6897,1250.2,1719.6902,3,1720.6911,8,7,247,17,1,1.2,0.7,Time
,,S14,551900,001,female,28,2025-05-21_11h46.17.277,Serial_Dependence_U,2023.2.3,Win32,39.84063745,670e851632b444a56d13cfb8,682cd3dfea4e15896da7c0a6,682da5c271d79fa401e67124,,,,,,,,,,,,1720.6928,8,1720.6937,,,,1723.2274,1723.7264,1722.7007,1723.2271,1721.6973,266,1722.7004,1723.7264,1724.2283,1724.2286,1725.5346,876.4,1725.5351,2,1726.5355,8,8,248,11,1,1,0.3,Time
,,S14,551900,001,female,28,2025-05-21_11h46.17.277,Serial_Dependence_U,2023.2.3,Win32,39.84063745,670e851632b444a56d13cfb8,682cd3dfea4e15896da7c0a6,682da5c271d79fa401e67124,,,,,,,,,,,,1726.5376,8,1726.5389,,,,1729.6724,1730.1726,1729.147,1729.6722,1727.5418,9,1729.1468,1730.1728,1730.6746,1730.6747,1732.7089,1252.2,1732.7095,2,1733.7095,8,9,249,4,1,1.6,0.3,Time
,,S14,551900,001,female,28,2025-05-21_11h46.17.277,Serial_Dependence_U,2023.2.3,Win32,39.84063745,670e851632b444a56d13cfb8,682cd3dfea4e15896da7c0a6,682da5c271d79fa401e67124,,,,,,,,,,,,1733.711,8,1733.7119,,,,1736.2461,1736.7445,1735.7191,1736.2459,1734.7158,33,1735.7188,1736.7448,1737.2463,1737.2466,1738.6536,1027.9,1738.6542,3,1739.6545,8,10,250,21,1,1,0.3,Time
,,S14,551900,001,female,28,2025-05-21_11h46.17.277,Serial_Dependence_U,2023.2.3,Win32,39.84063745,670e851632b444a56d13cfb8,682cd3dfea4e15896da7c0a6,682da5c271d79fa401e67124,,,,,,,,,,,,1739.6558,8,1739.6568,,,,1742.1909,1742.6898,1741.6638,1742.1906,1740.6608,177,1741.6635,1742.6898,1743.1914,1743.1915,1745.1507,1079.7,1745.1514,4,1746.151,8,11,251,26,1,1,0.7,Time
,,S14,551900,001,female,28,2025-05-21_11h46.17.277,Serial_Dependence_U,2023.2.3,Win32,39.84063745,670e851632b444a56d13cfb8,682cd3dfea4e15896da7c0a6,682da5c271d79fa401e67124,,,,,,,,,,,,1746.1526,8,1746.1535,,,,1748.4867,1748.9853,1747.9598,1748.4864,1747.1572,279,1747.9595,1748.9856,1749.4871,1749.4873,1751.072,1101.2,1751.0729,5,1752.0709,8,12,252,15,1,0.8,0.7,Time
,,S14,551900,001,female,28,2025-05-21_11h46.17.277,Serial_Dependence_U,2023.2.3,Win32,39.84063745,670e851632b444a56d13cfb8,682cd3dfea4e15896da7c0a6,682da5c271d79fa401e67124,,,,,,,,,,,,1752.0725,8,1752.0738,,,,1755.2091,1755.7077,1754.6821,1755.2088,1753.0769,192,1754.6819,1755.7079,1756.2096,1756.2098,1757.6929,1181,1757.6935,2,1758.693,8,13,253,19,1,1.6,0.7,Time
,,S14,551900,001,female,28,2025-05-21_11h46.17.277,Serial_Dependence_U,2023.2.3,Win32,39.84063745,670e851632b444a56d13cfb8,682cd3dfea4e15896da7c0a6,682da5c271d79fa401e67124,,,,,,,,,,,,1758.6947,8,1758.6962,,,,1761.8064,1762.3047,1761.3039,1761.8061,1759.699,23,1761.3036,1762.3049,1762.8071,1762.8073,1764.9412,1254.8,1764.9417,2,1765.9419,8,14,254,14,1,1.6,0.3,Time
,,S14,551900,001,female,28,2025-05-21_11h46.17.277,Serial_Dependence_U,2023.2.3,Win32,39.84063745,670e851632b444a56d13cfb8,682cd3dfea4e15896da7c0a6,682da5c271d79fa401e67124,,,,,,,,,,,,1765.9436,8,1765.9445,,,,1769.0804,1769.5791,1768.5535,1769.0801,1766.9484,148,1768.5532,1769.5792,1770.0807,1770.081,1772.0145,1504,1772.015,2,1773.0155,8,15,255,29,1,1.6,0.7,Time
,,S14,551900,001,female,28,2025-05-21_11h46.17.277,Serial_Dependence_U,2023.2.3,Win32,39.84063745,670e851632b444a56d13cfb8,682cd3dfea4e15896da7c0a6,682da5c271d79fa401e67124,,,,,,,,,,,,1773.0172,8,1773.018,,,,1775.3764,1775.8749,1774.85,1775.3762,1774.0223,262,1774.8497,1775.8751,1776.3768,1776.3771,1777.7837,906.2,1777.7843,4,1778.7851,8,16,256,0,1,0.8,0.3,Time
,,S14,551900,001,female,28,2025-05-21_11h46.17.277,Serial_Dependence_U,2023.2.3,Win32,39.84063745,670e851632b444a56d13cfb8,682cd3dfea4e15896da7c0a6,682da5c271d79fa401e67124,,,,,,,,,,,,1778.7863,8,1778.7872,,,,1781.7226,1782.2213,1781.1959,1781.7224,1779.7903,334,1781.1956,1782.2215,1782.7228,1782.7231,1784.8573,1303.8,1784.858,2,1785.8585,8,17,257,3,1,1.4,0.3,Time
,,S14,551900,001,female,28,2025-05-21_11h46.17.277,Serial_Dependence_U,2023.2.3,Win32,39.84063745,670e851632b444a56d13cfb8,682cd3dfea4e15896da7c0a6,682da5c271d79fa401e67124,,,,,,,,,,,,1785.8602,8,1785.8614,,,,1788.5958,1789.094,1788.0687,1788.5955,1786.8652,118,1788.0684,1789.0943,1789.596,1789.5962,1791.2038,1128.9,1791.2044,2,1792.2045,8,18,258,2,1,1.2,0.3,Time
,,S14,551900,001,female,28,2025-05-21_11h46.17.277,Serial_Dependence_U,2023.2.3,Win32,39.84063745,670e851632b444a56d13cfb8,682cd3dfea4e15896da7c0a6,682da5c271d79fa401e67124,,,,,,,,,,,,1792.2061,8,1792.2071,,,,1795.1173,1795.6159,1794.615,1795.117,1793.211,7,1794.6147,1795.6161,1796.1176,1796.1178,1798.1516,1454.6,1798.1522,3,1799.1529,8,19,259,18,1,1.4,0.7,Time
,,S14,551900,001,female,28,2025-05-21_11h46.17.277,Serial_Dependence_U,2023.2.3,Win32,39.84063745,670e851632b444a56d13cfb8,682cd3dfea4e15896da7c0a6,682da5c271d79fa401e67124,,,,,,,,,,,,1799.1546,8,1799.1556,,,,1801.4861,1801.987,1800.962,1801.486,1800.1591,97,1800.9616,1801.9871,1802.4892,1802.4894,1803.8471,805.5,1803.8477,3,1804.8467,8,20,260,5,1,0.8,0.7,Time
,,S14,551900,001,female,28,2025-05-21_11h46.17.277,Serial_Dependence_U,2023.2.3,Win32,39.84063745,670e851632b444a56d13cfb8,682cd3dfea4e15896da7c0a6,682da5c271d79fa401e67124,,,,,,,,,,,,1804.8483,8,1804.8492,,,,1807.4083,1807.9069,1806.8815,1807.408,1805.8529,191,1806.8812,1807.907,1808.4086,1808.4089,1810.0919,1205,1810.0925,4,1811.0928,8,21,261,6,1,1,0.7,Time
,,S14,551900,001,female,28,2025-05-21_11h46.17.277,Serial_Dependence_U,2023.2.3,Win32,39.84063745,670e851632b444a56d13cfb8,682cd3dfea4e15896da7c0a6,682da5c271d79fa401e67124,,,,,,,,,,,,1811.0942,8,1811.0955,,,,1814.2309,1814.7295,1813.7041,1814.2307,1812.0992,84,1813.7038,1814.7298,1815.2313,1815.2315,1817.1148,1504.9,1817.1154,2,1818.1164,8,22,262,24,1,1.6,0.3,Time
,,S14,551900,001,female,28,2025-05-21_11h46.17.277,Serial_Dependence_U,2023.2.3,Win32,39.84063745,670e851632b444a56d13cfb8,682cd3dfea4e15896da7c0a6,682da5c271d79fa401e67124,,,,,,,,,,,,1818.118,8,1818.1202,,,,1820.6522,1821.1512,1820.1254,1820.6519,1819.1223,3,1820.1251,1821.1513,1821.6528,1821.653,1823.11,1003.3,1823.1104,3,1824.1108,8,23,263,16,1,1,0.7,Time
,,S14,551900,001,female,28,2025-05-21_11h46.17.277,Serial_Dependence_U,2023.2.3,Win32,39.84063745,670e851632b444a56d13cfb8,682cd3dfea4e15896da7c0a6,682da5c271d79fa401e67124,,,,,,,,,,,,1824.1125,8,1824.1135,,,,1827.0491,1827.5473,1826.5222,1827.0489,1825.1171,163,1826.5219,1827.5474,1828.0492,1828.0493,1829.6818,1279.7,1829.6822,2,1830.6828,8,24,264,23,1,1.4,0.3,Time
,,S14,551900,001,female,28,2025-05-21_11h46.17.277,Serial_Dependence_U,2023.2.3,Win32,39.84063745,670e851632b444a56d13cfb8,682cd3dfea4e15896da7c0a6,682da5c271d79fa401e67124,,,,,,,,,,,,1830.6849,8,1830.6867,,,,1833.4192,1833.9187,1832.893,1833.4189,1831.6889,118,1832.8927,1833.9189,1834.4205,1834.4207,1836.079,1180.8,1836.0797,3,1837.0795,8,25,265,12,1,1.2,0.3,Time
,,S14,551900,001,female,28,2025-05-21_11h46.17.277,Serial_Dependence_U,2023.2.3,Win32,39.84063745,670e851632b444a56d13cfb8,682cd3dfea4e15896da7c0a6,682da5c271d79fa401e67124,,,,,,,,,,,,1837.0811,8,1837.0823,,,,1839.8163,1840.3148,1839.2893,1839.816,1838.0856,298,1839.289,1840.3149,1840.8165,1840.8167,1842.6503,1227.9,1842.651,3,1843.651,8,26,266,27,1,1.2,0.7,Time
,,S14,551900,001,female,28,2025-05-21_11h46.17.277,Serial_Dependence_U,2023.2.3,Win32,39.84063745,670e851632b444a56d13cfb8,682cd3dfea4e15896da7c0a6,682da5c271d79fa401e67124,,,,,,,,,,,,1843.6526,8,1843.6535,,,,1845.9866,1846.4852,1845.4599,1845.9864,1844.657,84,1845.4595,1846.4853,1846.9875,1846.9876,1848.2428,802.1,1848.2434,3,1849.2447,8,27,267,25,1,0.8,0.7,Time
,,S14,551900,001,female,28,2025-05-21_11h46.17.277,Serial_Dependence_U,2023.2.3,Win32,39.84063745,670e851632b444a56d13cfb8,682cd3dfea4e15896da7c0a6,682da5c271d79fa401e67124,,,,,,,,,,,,1849.2464,8,1849.2473,,,,1852.1808,1852.681,1851.6561,1852.1806,1850.2512,8,1851.6558,1852.6811,1853.1828,1853.1831,1855.0164,1380.9,1855.017,3,1856.0173,8,28,268,28,1,1.4,0.7,Time
,,S14,551900,001,female,28,2025-05-21_11h46.17.277,Serial_Dependence_U,2023.2.3,Win32,39.84063745,670e851632b444a56d13cfb8,682cd3dfea4e15896da7c0a6,682da5c271d79fa401e67124,,,,,,,,,,,,1856.019,8,1856.0199,,,,1859.1555,1859.6544,1858.6291,1859.1553,1857.0242,226,1858.6287,1859.6546,1860.1563,1860.1565,1862.2906,1704.3,1862.2912,4,1863.2914,8,29,269,9,1,1.6,0.7,Time
