Scale_setup.started,Scale_setup.stopped,participant,expid,session,sex,age,date,expName,psychopyVersion,OS,frameRate,screen_scale_keys.started,screen_scale_keys.stopped,X Scale,Y Scale,rectangel_keys.started,rectangel_keys.stopped,Intro.started,Intro.stopped,key_resp_2.keys,key_resp_2.rt,key_resp_2.duration,block.started,Block_id,block.stopped,Block_resp_2.keys,Block_resp_2.rt,Block_resp_2.duration,ITI.started,ITI.stopped,Mask_2.started,Mask_2.stopped,M2.started,direction,M2.stopped,Cue.started,Cue.stopped,Response.started,Response.stopped,keyDuration,Feedback_Time.started,FeedbackID_T,Feedback_Time.stopped,trials.thisRepN,trials.thisTrialN,trials.thisN,trials.thisIndex,trials.ran,TimeDur,Coherence1,TrialType
0.0004,0.0006,S15,555268,1,Female,26,anonymized,Serial_Dependence_U,2023.2.3,Win32,120.4819277,,,,,,,,,,,,,,,,,,,,,,,,,,,,,,,,,,,,,,,,
,,S15,555268,1,Female,26,anonymized,Serial_Dependence_U,2023.2.3,Win32,120.4819277,0.0021,53.6306,0.0557,0.0534,53.6308,91.0623,91.0624,152.3285,space,61.2396,,,,,,,,,,,,,,,,,,,,,,,,,,,,,,
,,S15,555268,1,Female,26,anonymized,Serial_Dependence_U,2023.2.3,Win32,120.4819277,,,,,,,,,,,,152.3442,0.0,156.4262,s,4.0652,,159.5384,160.04,159.033,159.5382,157.4286,275.0,159.0328,160.0404,160.5394,160.54,163.4548,967.4,163.4551,1.0,164.454,0.0,0.0,0.0,24.0,1.0,1.6,0.3,Time
,,S15,555268,1,Female,26,anonymized,Serial_Dependence_U,2023.2.3,Win32,120.4819277,,,,,,,,,,,,164.4556,0.0,164.4572,,,,166.9703,167.4691,166.4617,166.9703,165.4596,318.0,166.4617,167.4693,167.9688,167.9688,171.6247,1269.6,171.6247,4.0,172.6243,0.0,1.0,1.0,26.0,1.0,1.0,0.7,Time
,,S15,555268,1,Female,26,anonymized,Serial_Dependence_U,2023.2.3,Win32,120.4819277,,,,,,,,,,,,172.6252,0.0,172.6256,,,,175.162,175.664,174.6509,175.1619,173.6421,113.0,174.6508,175.664,176.1635,176.1636,179.5831,619.5,179.5832,1.0,180.5782,0.0,2.0,2.0,1.0,1.0,1.0,0.3,Time
,,S15,555268,1,Female,26,anonymized,Serial_Dependence_U,2023.2.3,Win32,120.4819277,,,,,,,,,,,,180.5793,0.0,180.58,,,,183.4939,183.9929,182.9878,183.4938,181.5799,214.0,182.9878,183.993,184.4925,184.4926,186.3235,988.8,186.3235,2.0,187.3241,0.0,3.0,3.0,23.0,1.0,1.4,0.3,Time
,,S15,555268,1,Female,26,anonymized,Serial_Dependence_U,2023.2.3,Win32,120.4819277,,,,,,,,,,,,187.3247,0.0,187.325,,,,189.6421,190.1394,189.1412,189.642,188.3316,49.0,189.1411,190.1394,190.6391,190.6392,192.2572,926.4,192.2573,4.0,193.2545,0.0,4.0,4.0,0.0,1.0,0.8,0.3,Time
,,S15,555268,1,Female,26,anonymized,Serial_Dependence_U,2023.2.3,Win32,120.4819277,,,,,,,,,,,,193.2561,0.0,193.2564,,,,196.3766,196.8773,195.8705,196.3765,194.2634,293.0,195.8704,196.8773,197.3766,197.3769,199.0107,1431.3,199.0109,2.0,200.0088,0.0,5.0,5.0,9.0,1.0,1.6,0.7,Time
,,S15,555268,1,Female,26,anonymized,Serial_Dependence_U,2023.2.3,Win32,120.4819277,,,,,,,,,,,,200.0092,0.0,200.0097,,,,202.7271,203.2232,202.2236,202.727,201.0174,18.0,202.2235,203.2234,203.7233,203.7233,205.1713,1319.5,205.1714,4.0,206.1718,0.0,6.0,6.0,22.0,1.0,1.2,0.3,Time
,,S15,555268,1,Female,26,anonymized,Serial_Dependence_U,2023.2.3,Win32,120.4819277,,,,,,,,,,,,206.1727,0.0,206.1735,,,,209.0847,209.5863,208.5747,209.0846,207.1736,246.0,208.5746,209.5863,210.0861,210.0861,211.348,1046.7,211.3481,2.0,212.3434,0.0,7.0,7.0,28.0,1.0,1.4,0.7,Time
,,S15,555268,1,Female,26,anonymized,Serial_Dependence_U,2023.2.3,Win32,120.4819277,,,,,,,,,,,,212.3442,0.0,212.3447,,,,215.4657,215.9665,214.9569,215.4656,213.3528,236.0,214.9569,215.9665,216.4661,216.4662,218.1506,1075.6,218.1509,1.0,219.1474,0.0,8.0,8.0,14.0,1.0,1.6,0.3,Time
,,S15,555268,1,Female,26,anonymized,Serial_Dependence_U,2023.2.3,Win32,120.4819277,,,,,,,,,,,,219.1482,0.0,219.1487,,,,222.0585,222.5539,221.5571,222.0585,220.1498,158.0,221.5571,222.5539,223.0536,223.0536,225.3944,1640.1,225.3945,4.0,226.3935,0.0,9.0,9.0,8.0,1.0,1.4,0.7,Time
,,S15,555268,1,Female,26,anonymized,Serial_Dependence_U,2023.2.3,Win32,120.4819277,,,,,,,,,,,,226.3943,0.0,226.3948,,,,229.5162,230.0166,229.0081,229.5161,227.3998,219.0,229.008,230.0166,230.5162,230.5162,231.8264,1032.3,231.8265,1.0,232.8232,0.0,10.0,10.0,29.0,1.0,1.6,0.7,Time
,,S15,555268,1,Female,26,anonymized,Serial_Dependence_U,2023.2.3,Win32,120.4819277,,,,,,,,,,,,232.8241,0.0,232.8245,,,,235.3473,235.8466,234.8403,235.3472,233.8333,166.0,234.8403,235.8466,236.3463,236.3464,239.9814,938.2,239.9816,2.0,240.9771,0.0,11.0,11.0,16.0,1.0,1.0,0.7,Time
,,S15,555268,1,Female,26,anonymized,Serial_Dependence_U,2023.2.3,Win32,120.4819277,,,,,,,,,,,,240.9776,0.0,240.9777,,,,243.695,244.1919,243.1857,243.6949,241.9795,118.0,243.1856,244.1919,244.6915,244.6915,245.6522,94.59999999,245.6523,1.0,246.6489,0.0,12.0,12.0,7.0,1.0,1.2,0.7,Time
,,S15,555268,1,Female,26,anonymized,Serial_Dependence_U,2023.2.3,Win32,120.4819277,,,,,,,,,,,,246.6494,0.0,246.6495,,,,248.9672,249.464,248.4578,248.9672,247.657,126.0,248.4578,249.464,249.9635,249.9635,251.0162,982.8,251.0163,4.0,252.0123,0.0,13.0,13.0,15.0,1.0,0.8,0.7,Time
,,S15,555268,1,Female,26,anonymized,Serial_Dependence_U,2023.2.3,Win32,120.4819277,,,,,,,,,,,,252.0132,0.0,252.0137,,,,254.3286,254.8274,253.8234,254.3285,253.0203,12.0,253.8233,254.8275,255.3268,255.327,256.6849,866.8,256.685,4.0,257.684,0.0,14.0,14.0,20.0,1.0,0.8,0.3,Time
,,S15,555268,1,Female,26,anonymized,Serial_Dependence_U,2023.2.3,Win32,120.4819277,,,,,,,,,,,,257.6847,0.0,257.6851,,,,260.4029,260.8987,259.8935,260.4028,258.6857,236.0,259.8935,260.8989,261.3984,261.3986,262.2749,315.7,262.275,1.0,263.2698,0.0,15.0,15.0,12.0,1.0,1.2,0.3,Time
,,S15,555268,1,Female,26,anonymized,Serial_Dependence_U,2023.2.3,Win32,120.4819277,,,,,,,,,,,,263.2703,0.0,263.2706,,,,265.7904,266.2876,265.281,265.7904,264.2725,311.0,265.281,266.2876,266.7875,266.7877,268.0815,823.3,268.0816,2.0,269.0778,0.0,16.0,16.0,6.0,1.0,1.0,0.7,Time
,,S15,555268,1,Female,26,anonymized,Serial_Dependence_U,2023.2.3,Win32,120.4819277,,,,,,,,,,,,269.0782,0.0,269.0784,,,,271.3883,271.884,270.8858,271.3882,270.0802,47.0,270.8857,271.884,272.3841,272.3842,273.9749,1012.3,273.9751,4.0,274.9741,0.0,17.0,17.0,10.0,1.0,0.8,0.3,Time
,,S15,555268,1,Female,26,anonymized,Serial_Dependence_U,2023.2.3,Win32,120.4819277,,,,,,,,,,,,274.9747,0.0,274.9747,,,,277.4885,277.9892,276.9878,277.4885,275.9813,211.0,276.9877,277.9892,278.4885,278.4886,279.8644,264.8,279.8646,1.0,280.8626,0.0,18.0,18.0,11.0,1.0,1.0,0.3,Time
,,S15,555268,1,Female,26,anonymized,Serial_Dependence_U,2023.2.3,Win32,120.4819277,,,,,,,,,,,,280.8636,0.0,280.864,,,,283.1874,283.686,282.678,283.1874,281.8723,260.0,282.6779,283.686,284.1856,284.1856,286.1169,1021.9,286.1169,4.0,287.1173,0.0,19.0,19.0,25.0,1.0,0.8,0.7,Time
,,S15,555268,1,Female,26,anonymized,Serial_Dependence_U,2023.2.3,Win32,120.4819277,,,,,,,,,,,,287.1178,0.0,287.1179,,,,290.0315,290.5322,289.5264,290.0313,288.1187,326.0,289.5264,290.5322,291.0314,291.0314,292.5953,1002.2,292.5954,2.0,293.5972,0.0,20.0,20.0,13.0,1.0,1.4,0.3,Time
,,S15,555268,1,Female,26,anonymized,Serial_Dependence_U,2023.2.3,Win32,120.4819277,,,,,,,,,,,,293.5983,0.0,293.5988,,,,295.917,296.4121,295.4073,295.9169,294.603,221.0,295.4072,296.4121,296.9111,296.9112,298.2435,785.6,298.2436,3.0,299.2435,0.0,21.0,21.0,5.0,1.0,0.8,0.7,Time
,,S15,555268,1,Female,26,anonymized,Serial_Dependence_U,2023.2.3,Win32,120.4819277,,,,,,,,,,,,299.2449,0.0,299.2454,,,,301.9682,302.4664,301.4614,301.9681,300.2537,333.0,301.4613,302.4664,302.9666,302.9667,303.1235,78.39999998,303.1235,1.0,304.1241,0.0,22.0,22.0,27.0,1.0,1.2,0.7,Time
,,S15,555268,1,Female,26,anonymized,Serial_Dependence_U,2023.2.3,Win32,120.4819277,,,,,,,,,,,,304.1249,0.0,304.1254,,,,307.0423,307.5389,306.5373,307.0422,305.1332,4.0,306.5372,307.5389,308.0387,308.0388,309.6777,956.4,309.6777,1.0,310.6785,0.0,23.0,23.0,3.0,1.0,1.4,0.3,Time
,,S15,555268,1,Female,26,anonymized,Serial_Dependence_U,2023.2.3,Win32,120.4819277,,,,,,,,,,,,310.6795,0.0,310.6798,,,,313.3935,313.8936,312.8893,313.3934,311.6884,51.0,312.8892,313.8936,314.3934,314.3934,316.2294,1166.8,316.2296,3.0,317.2254,0.0,24.0,24.0,17.0,1.0,1.2,0.7,Time
,,S15,555268,1,Female,26,anonymized,Serial_Dependence_U,2023.2.3,Win32,120.4819277,,,,,,,,,,,,317.2268,0.0,317.227,,,,320.3493,320.8458,319.8423,320.3492,318.2376,119.0,319.8423,320.8459,321.3476,321.3478,323.1841,1078.6,323.1842,1.0,324.1792,0.0,25.0,25.0,4.0,1.0,1.6,0.3,Time
,,S15,555268,1,Female,26,anonymized,Serial_Dependence_U,2023.2.3,Win32,120.4819277,,,,,,,,,,,,324.1802,0.0,324.1806,,,,327.0889,327.5853,326.5875,327.0888,325.1832,233.0,326.5874,327.5853,328.0855,328.0856,330.0679,1445.4,330.068,3.0,331.0637,0.0,26.0,26.0,18.0,1.0,1.4,0.7,Time
,,S15,555268,1,Female,26,anonymized,Serial_Dependence_U,2023.2.3,Win32,120.4819277,,,,,,,,,,,,331.0641,0.0,331.0642,,,,333.5803,334.0821,333.0752,333.5803,332.0698,55.0,333.0752,334.0821,334.5818,334.5818,336.2831,1089.1,336.2832,4.0,337.2799,0.0,27.0,27.0,21.0,1.0,1.0,0.3,Time
,,S15,555268,1,Female,26,anonymized,Serial_Dependence_U,2023.2.3,Win32,120.4819277,,,,,,,,,,,,337.2812,0.0,337.2816,,,,340.0016,340.5034,339.4935,340.0014,338.2887,42.0,339.4935,340.5034,341.0031,341.0031,342.6308,1177.2,342.6309,3.0,343.627,0.0,28.0,28.0,2.0,1.0,1.2,0.3,Time
,,S15,555268,1,Female,26,anonymized,Serial_Dependence_U,2023.2.3,Win32,120.4819277,,,,,,,,,,,,343.6275,0.0,343.6277,,,,346.7422,347.2412,346.2405,346.7422,344.6345,191.0,346.2404,347.2412,347.7409,347.7409,349.7713,1569.0,349.7714,3.0,350.7725,0.0,29.0,29.0,19.0,1.0,1.6,0.7,Time
,,S15,555268,1,Female,26,anonymized,Serial_Dependence_U,2023.2.3,Win32,120.4819277,,,,,,,,,,,,350.7733,1.0,370.5018,s,19.7053,,373.6288,374.1262,373.1213,373.6287,371.516,255.0,373.1212,374.1263,374.6256,374.6257,376.9147,1624.5,376.9149,3.0,377.9153,1.0,0.0,30.0,29.0,1.0,1.6,0.7,Time
,,S15,555268,1,Female,26,anonymized,Serial_Dependence_U,2023.2.3,Win32,120.4819277,,,,,,,,,,,,377.9162,1.0,377.9188,,,,380.4202,380.9222,379.9183,380.4201,378.9171,206.0,379.9182,380.9222,381.4217,381.4217,383.0464,933.3,383.0466,2.0,384.0453,1.0,1.0,31.0,1.0,1.0,1.0,0.3,Time
,,S15,555268,1,Female,26,anonymized,Serial_Dependence_U,2023.2.3,Win32,120.4819277,,,,,,,,,,,,384.046,1.0,384.0464,,,,387.1584,387.6598,386.6542,387.1584,385.0471,168.0,386.6541,387.6598,388.159,388.1591,390.1709,1561.9,390.171,3.0,391.1657,1.0,2.0,32.0,19.0,1.0,1.6,0.7,Time
,,S15,555268,1,Female,26,anonymized,Serial_Dependence_U,2023.2.3,Win32,120.4819277,,,,,,,,,,,,391.1666,1.0,391.167,,,,394.0832,394.5809,393.5738,394.0832,392.1684,54.0,393.5737,394.5809,395.0806,395.0807,397.0069,1292.6,397.007,2.0,398.0041,1.0,3.0,33.0,13.0,1.0,1.4,0.3,Time
,,S15,555268,1,Female,26,anonymized,Serial_Dependence_U,2023.2.3,Win32,120.4819277,,,,,,,,,,,,398.0049,1.0,398.0053,,,,400.3112,400.8106,399.81,400.3111,399.0088,210.0,399.8099,400.8106,401.31,401.31,403.0272,819.2,403.0273,3.0,404.0255,1.0,4.0,34.0,10.0,1.0,0.8,0.3,Time
,,S15,555268,1,Female,26,anonymized,Serial_Dependence_U,2023.2.3,Win32,120.4819277,,,,,,,,,,,,404.0264,1.0,404.0269,,,,407.1519,407.6484,406.6419,407.1519,405.0338,47.0,406.6419,407.6485,408.1481,408.1481,410.2035,1446.1,410.2037,2.0,411.2043,1.0,5.0,35.0,4.0,1.0,1.6,0.3,Time
,,S15,555268,1,Female,26,anonymized,Serial_Dependence_U,2023.2.3,Win32,120.4819277,,,,,,,,,,,,411.2054,1.0,411.2058,,,,413.7294,414.228,413.2241,413.7294,412.2071,321.0,413.2241,414.228,414.7277,414.7278,416.485,1023.1,416.485,3.0,417.4839,1.0,6.0,36.0,21.0,1.0,1.0,0.3,Time
,,S15,555268,1,Female,26,anonymized,Serial_Dependence_U,2023.2.3,Win32,120.4819277,,,,,,,,,,,,417.4845,1.0,417.4847,,,,419.7994,420.2995,419.2988,419.7993,418.4939,93.0,419.2987,420.2995,420.7992,420.7992,422.558,1066.4,422.5581,5.0,423.5557,1.0,7.0,37.0,5.0,1.0,0.8,0.7,Time
,,S15,555268,1,Female,26,anonymized,Serial_Dependence_U,2023.2.3,Win32,120.4819277,,,,,,,,,,,,423.5562,1.0,423.5564,,,,425.8637,426.3627,425.3626,425.8635,424.5615,93.0,425.3625,426.3627,426.8622,426.8622,428.6887,706.8,428.6888,2.0,429.686,1.0,8.0,38.0,15.0,1.0,0.8,0.7,Time
,,S15,555268,1,Female,26,anonymized,Serial_Dependence_U,2023.2.3,Win32,120.4819277,,,,,,,,,,,,429.6866,1.0,429.6868,,,,432.4037,432.9007,431.8941,432.4036,430.6937,216.0,431.894,432.9007,433.4002,433.4003,434.783,957.5,434.7832,2.0,435.7824,1.0,9.0,39.0,12.0,1.0,1.2,0.3,Time
,,S15,555268,1,Female,26,anonymized,Serial_Dependence_U,2023.2.3,Win32,120.4819277,,,,,,,,,,,,435.7835,1.0,435.7838,,,,438.8985,439.3968,438.3921,438.8985,436.7894,348.0,438.3921,439.3969,439.8964,439.8964,442.3735,1445.6,442.3736,2.0,443.3693,1.0,10.0,40.0,24.0,1.0,1.6,0.3,Time
,,S15,555268,1,Female,26,anonymized,Serial_Dependence_U,2023.2.3,Win32,120.4819277,,,,,,,,,,,,443.3702,1.0,443.3706,,,,446.4832,446.9843,445.9753,446.4831,444.3706,266.0,445.9752,446.9843,447.4838,447.4839,449.8807,1611.7,449.8809,3.0,450.8819,1.0,11.0,41.0,9.0,1.0,1.6,0.7,Time
,,S15,555268,1,Female,26,anonymized,Serial_Dependence_U,2023.2.3,Win32,120.4819277,,,,,,,,,,,,450.8826,1.0,450.8831,,,,453.1987,453.6969,452.6905,453.1987,451.8827,24.0,452.6904,453.6969,454.1968,454.1968,456.3237,923.9,456.3238,4.0,457.3198,1.0,12.0,42.0,20.0,1.0,0.8,0.3,Time
,,S15,555268,1,Female,26,anonymized,Serial_Dependence_U,2023.2.3,Win32,120.4819277,,,,,,,,,,,,457.321,1.0,457.3214,,,,459.8362,460.3349,459.3295,459.8362,458.328,309.0,459.3295,460.335,460.8347,460.8348,462.7647,1177.9,462.7648,4.0,463.7666,1.0,13.0,43.0,6.0,1.0,1.0,0.7,Time
,,S15,555268,1,Female,26,anonymized,Serial_Dependence_U,2023.2.3,Win32,120.4819277,,,,,,,,,,,,463.7675,1.0,463.7679,,,,466.4796,466.9812,465.9691,466.4795,464.7687,194.0,465.9691,466.9812,467.4808,467.4809,469.2797,1287.2,469.2799,4.0,470.2789,1.0,14.0,44.0,27.0,1.0,1.2,0.7,Time
,,S15,555268,1,Female,26,anonymized,Serial_Dependence_U,2023.2.3,Win32,120.4819277,,,,,,,,,,,,470.2798,1.0,470.2802,,,,472.7983,473.2945,472.2951,472.7982,471.2868,326.0,472.2951,473.2947,473.7939,473.7941,475.1937,972.9,475.1939,3.0,476.1925,1.0,15.0,45.0,26.0,1.0,1.0,0.7,Time
,,S15,555268,1,Female,26,anonymized,Serial_Dependence_U,2023.2.3,Win32,120.4819277,,,,,,,,,,,,476.1934,1.0,476.1938,,,,479.3063,479.8072,478.7982,479.3062,477.1971,227.0,478.7982,479.8073,480.3068,480.3069,482.0584,1286.7,482.0585,2.0,483.0554,1.0,16.0,46.0,14.0,1.0,1.6,0.3,Time
,,S15,555268,1,Female,26,anonymized,Serial_Dependence_U,2023.2.3,Win32,120.4819277,,,,,,,,,,,,483.0564,1.0,483.0567,,,,485.7713,486.2702,485.2621,485.7713,484.059,267.0,485.262,486.2703,486.7698,486.7699,488.1035,1094.1,488.1036,2.0,489.1018,1.0,17.0,47.0,17.0,1.0,1.2,0.7,Time
,,S15,555268,1,Female,26,anonymized,Serial_Dependence_U,2023.2.3,Win32,120.4819277,,,,,,,,,,,,489.1028,1.0,489.1032,,,,491.6162,492.1168,491.1121,491.6161,490.109,312.0,491.1121,492.1169,492.6165,492.6166,494.6314,1383.5,494.6316,5.0,495.6315,1.0,18.0,48.0,11.0,1.0,1.0,0.3,Time
,,S15,555268,1,Female,26,anonymized,Serial_Dependence_U,2023.2.3,Win32,120.4819277,,,,,,,,,,,,495.6321,1.0,495.6322,,,,498.5484,499.0463,498.0415,498.5484,496.6336,30.0,498.0415,499.0463,499.5458,499.5459,501.254,1279.2,501.2542,2.0,502.2528,1.0,19.0,49.0,28.0,1.0,1.4,0.7,Time
,,S15,555268,1,Female,26,anonymized,Serial_Dependence_U,2023.2.3,Win32,120.4819277,,,,,,,,,,,,502.2539,1.0,502.2543,,,,504.5696,505.0678,504.0624,504.5695,503.2566,284.0,504.0624,505.0678,505.5675,505.5675,506.8863,782.9,506.8865,3.0,507.8828,1.0,20.0,50.0,0.0,1.0,0.8,0.3,Time
,,S15,555268,1,Female,26,anonymized,Serial_Dependence_U,2023.2.3,Win32,120.4819277,,,,,,,,,,,,507.8838,1.0,507.8841,,,,510.1911,510.6896,509.6905,510.1911,508.8854,320.0,509.6904,510.6896,511.1889,511.1889,512.4882,916.6,512.4882,4.0,513.4879,1.0,21.0,51.0,25.0,1.0,0.8,0.7,Time
,,S15,555268,1,Female,26,anonymized,Serial_Dependence_U,2023.2.3,Win32,120.4819277,,,,,,,,,,,,513.4889,1.0,513.4891,,,,516.4055,516.9026,515.8971,516.4055,514.491,314.0,515.8969,516.9026,517.4024,517.4024,518.9958,1157.4,518.9959,2.0,519.9927,1.0,22.0,52.0,18.0,1.0,1.4,0.7,Time
,,S15,555268,1,Female,26,anonymized,Serial_Dependence_U,2023.2.3,Win32,120.4819277,,,,,,,,,,,,519.9936,1.0,519.9939,,,,522.9081,523.4073,522.4007,522.908,520.9955,117.0,522.4007,523.4073,523.9068,523.9068,525.1633,940.1,525.1635,1.0,526.164,1.0,23.0,53.0,3.0,1.0,1.4,0.3,Time
,,S15,555268,1,Female,26,anonymized,Serial_Dependence_U,2023.2.3,Win32,120.4819277,,,,,,,,,,,,526.1646,1.0,526.1649,,,,528.8827,529.3788,528.3809,528.8827,527.1728,25.0,528.3808,529.3789,529.8789,529.8791,531.488,1234.5,531.4882,3.0,532.4855,1.0,24.0,54.0,2.0,1.0,1.2,0.3,Time
,,S15,555268,1,Female,26,anonymized,Serial_Dependence_U,2023.2.3,Win32,120.4819277,,,,,,,,,,,,532.4868,1.0,532.4872,,,,535.3936,535.8918,534.8914,535.3935,533.4906,92.0,534.8914,535.8918,536.3916,536.3916,537.9315,970.3,537.9316,1.0,538.9319,1.0,25.0,55.0,23.0,1.0,1.4,0.3,Time
,,S15,555268,1,Female,26,anonymized,Serial_Dependence_U,2023.2.3,Win32,120.4819277,,,,,,,,,,,,538.9324,1.0,538.9326,,,,541.8535,542.3544,541.3453,541.8534,539.9397,49.0,541.3452,542.3544,542.8541,542.8541,544.3715,1055.0,544.3716,2.0,545.3698,1.0,26.0,56.0,8.0,1.0,1.4,0.7,Time
,,S15,555268,1,Female,26,anonymized,Serial_Dependence_U,2023.2.3,Win32,120.4819277,,,,,,,,,,,,545.3707,1.0,545.3711,,,,547.8935,548.3931,547.3853,547.8934,546.3786,332.0,547.3852,548.3932,548.8928,548.8928,550.3316,999.9,550.3317,3.0,551.3329,1.0,27.0,57.0,16.0,1.0,1.0,0.7,Time
,,S15,555268,1,Female,26,anonymized,Serial_Dependence_U,2023.2.3,Win32,120.4819277,,,,,,,,,,,,551.3334,1.0,551.3336,,,,554.0544,554.556,553.5441,554.0544,552.339,4.0,553.544,554.556,555.0559,555.0559,556.223,978.9,556.223,2.0,557.2209,1.0,28.0,58.0,22.0,1.0,1.2,0.3,Time
,,S15,555268,1,Female,26,anonymized,Serial_Dependence_U,2023.2.3,Win32,120.4819277,,,,,,,,,,,,557.222,1.0,557.2224,,,,559.9314,560.4282,559.4277,559.9313,558.2226,149.0,559.4277,560.4282,560.9271,560.9271,562.3801,1048.5,562.3801,2.0,563.3756,1.0,29.0,59.0,7.0,1.0,1.2,0.7,Time
,,S15,555268,1,Female,26,anonymized,Serial_Dependence_U,2023.2.3,Win32,120.4819277,,,,,,,,,,,,563.377,2.0,569.4332,s,6.0288,,572.5489,573.0457,572.0413,572.5489,570.4326,158.0,572.0413,573.0457,573.5452,573.5452,575.7273,1514.1,575.7274,2.0,576.7269,2.0,0.0,60.0,9.0,1.0,1.6,0.7,Time
,,S15,555268,1,Female,26,anonymized,Serial_Dependence_U,2023.2.3,Win32,120.4819277,,,,,,,,,,,,576.7276,2.0,576.73,,,,579.6484,580.1498,579.1403,579.6483,577.7326,102.0,579.1402,580.1499,580.6495,580.6496,582.2994,1288.4,582.2995,2.0,583.2977,2.0,1.0,61.0,18.0,1.0,1.4,0.7,Time
,,S15,555268,1,Female,26,anonymized,Serial_Dependence_U,2023.2.3,Win32,120.4819277,,,,,,,,,,,,583.2989,2.0,583.2999,,,,585.8138,586.313,585.3054,585.8138,584.3005,343.0,585.3053,586.3131,586.8127,586.8128,589.0715,891.2,589.0716,2.0,590.0691,2.0,2.0,62.0,26.0,1.0,1.0,0.7,Time
,,S15,555268,1,Female,26,anonymized,Serial_Dependence_U,2023.2.3,Win32,120.4819277,,,,,,,,,,,,590.0701,2.0,590.0705,,,,592.3856,592.8842,591.8843,592.3856,591.0749,269.0,591.8843,592.8842,593.3837,593.3839,599.3956,9999.0,599.3957,0.0,600.3966,2.0,3.0,63.0,10.0,1.0,0.8,0.3,Time
,,S15,555268,1,Female,26,anonymized,Serial_Dependence_U,2023.2.3,Win32,120.4819277,,,,,,,,,,,,600.3976,2.0,600.3979,,,,603.1131,603.6115,602.6053,603.113,601.3977,114.0,602.6053,603.6115,604.1112,604.1112,604.2156,88.60000002,604.2157,1.0,605.2103,2.0,4.0,64.0,2.0,1.0,1.2,0.3,Time
,,S15,555268,1,Female,26,anonymized,Serial_Dependence_U,2023.2.3,Win32,120.4819277,,,,,,,,,,,,605.2117,2.0,605.2123,,,,608.1336,608.6336,607.6267,608.1336,606.2192,52.0,607.6266,608.6336,609.1336,609.1338,612.2743,960.2,612.2744,1.0,613.2723,2.0,5.0,65.0,28.0,1.0,1.4,0.7,Time
,,S15,555268,1,Female,26,anonymized,Serial_Dependence_U,2023.2.3,Win32,120.4819277,,,,,,,,,,,,613.2737,2.0,613.2742,,,,615.7944,616.2959,615.29,615.7943,614.2802,260.0,615.2898,616.2959,616.7951,616.7951,618.4089,1031.3,618.4092,3.0,619.4111,2.0,6.0,66.0,1.0,1.0,1.0,0.3,Time
,,S15,555268,1,Female,26,anonymized,Serial_Dependence_U,2023.2.3,Win32,120.4819277,,,,,,,,,,,,619.4125,2.0,619.4129,,,,622.5352,623.0336,622.0274,622.535,620.4235,167.0,622.0273,623.0337,623.5334,623.5334,625.9886,833.2,625.9887,1.0,626.9865,2.0,7.0,67.0,19.0,1.0,1.6,0.7,Time
,,S15,555268,1,Female,26,anonymized,Serial_Dependence_U,2023.2.3,Win32,120.4819277,,,,,,,,,,,,626.9869,2.0,626.987,,,,629.5042,630.0047,628.9963,629.5041,627.9903,47.0,628.9963,630.0047,630.504,630.5041,636.5049,9999.0,636.505,0.0,637.5005,2.0,8.0,68.0,21.0,1.0,1.0,0.3,Time
,,S15,555268,1,Female,26,anonymized,Serial_Dependence_U,2023.2.3,Win32,120.4819277,,,,,,,,,,,,637.501,2.0,637.5011,,,,640.4076,640.9068,639.9054,640.4076,638.503,303.0,639.9053,640.9068,641.4064,641.4065,647.418,9999.0,647.4181,0.0,648.4188,2.0,9.0,69.0,8.0,1.0,1.4,0.7,Time
,,S15,555268,1,Female,26,anonymized,Serial_Dependence_U,2023.2.3,Win32,120.4819277,,,,,,,,,,,,648.4197,2.0,648.42,,,,651.5342,652.0338,651.0268,651.5341,649.4248,89.0,651.0268,652.0338,652.5336,652.5336,656.8143,883.8,656.8144,1.0,657.8136,2.0,10.0,70.0,24.0,1.0,1.6,0.3,Time
,,S15,555268,1,Female,26,anonymized,Serial_Dependence_U,2023.2.3,Win32,120.4819277,,,,,,,,,,,,657.8144,2.0,657.8146,,,,660.1301,660.6289,659.6284,660.13,658.8144,138.0,659.6283,660.6289,661.1282,661.1282,667.1382,9999.0,667.1383,0.0,668.1327,2.0,11.0,71.0,15.0,1.0,0.8,0.7,Time
,,S15,555268,1,Female,26,anonymized,Serial_Dependence_U,2023.2.3,Win32,120.4819277,,,,,,,,,,,,668.1343,2.0,668.1351,,,,671.0558,671.5557,670.5465,671.0558,669.1384,190.0,670.5464,671.5559,672.0553,672.0553,673.4863,1006.3,673.4865,2.0,674.4877,2.0,12.0,72.0,23.0,1.0,1.4,0.3,Time
,,S15,555268,1,Female,26,anonymized,Serial_Dependence_U,2023.2.3,Win32,120.4819277,,,,,,,,,,,,674.4886,2.0,674.489,,,,677.2096,677.7104,676.7039,677.2095,675.4976,49.0,676.7039,677.7104,678.2108,678.211,680.8836,1089.6,680.8838,2.0,681.8833,2.0,13.0,73.0,7.0,1.0,1.2,0.7,Time
,,S15,555268,1,Female,26,anonymized,Serial_Dependence_U,2023.2.3,Win32,120.4819277,,,,,,,,,,,,681.8839,2.0,681.8843,,,,684.7929,685.2896,684.2857,684.7929,682.8839,24.0,684.2856,685.2896,685.7895,685.7895,689.8961,1354.5,689.8962,3.0,690.8952,2.0,14.0,74.0,3.0,1.0,1.4,0.3,Time
,,S15,555268,1,Female,26,anonymized,Serial_Dependence_U,2023.2.3,Win32,120.4819277,,,,,,,,,,,,690.8966,2.0,690.897,,,,693.2235,693.7182,692.7089,693.2235,691.9031,177.0,692.7088,693.7183,694.218,694.2181,696.9102,930.6,696.9103,4.0,697.9076,2.0,15.0,75.0,20.0,1.0,0.8,0.3,Time
,,S15,555268,1,Female,26,anonymized,Serial_Dependence_U,2023.2.3,Win32,120.4819277,,,,,,,,,,,,697.9085,2.0,697.9089,,,,701.0313,701.5302,700.5227,701.0312,698.9138,338.0,700.5227,701.5302,702.0303,702.0303,704.7373,787.4,704.7374,1.0,705.7365,2.0,16.0,76.0,14.0,1.0,1.6,0.3,Time
,,S15,555268,1,Female,26,anonymized,Serial_Dependence_U,2023.2.3,Win32,120.4819277,,,,,,,,,,,,705.7371,2.0,705.7372,,,,708.4552,708.9511,707.9501,708.4551,706.7377,148.0,707.95,708.9511,709.4513,709.4514,710.9499,1464.2,710.95,4.0,711.9495,2.0,17.0,77.0,27.0,1.0,1.2,0.7,Time
,,S15,555268,1,Female,26,anonymized,Serial_Dependence_U,2023.2.3,Win32,120.4819277,,,,,,,,,,,,711.9506,2.0,711.951,,,,714.4629,714.9645,713.9578,714.4628,712.9566,358.0,713.9577,714.9645,715.4641,715.4641,718.0332,1142.0,718.0333,4.0,719.0289,2.0,18.0,78.0,6.0,1.0,1.0,0.7,Time
,,S15,555268,1,Female,26,anonymized,Serial_Dependence_U,2023.2.3,Win32,120.4819277,,,,,,,,,,,,719.0297,2.0,719.03,,,,721.346,721.8436,720.8393,721.3459,720.0326,105.0,720.8392,721.8436,722.3437,722.3437,726.8315,1233.2,726.8317,5.0,727.8318,2.0,19.0,79.0,0.0,1.0,0.8,0.3,Time
,,S15,555268,1,Female,26,anonymized,Serial_Dependence_U,2023.2.3,Win32,120.4819277,,,,,,,,,,,,727.8327,2.0,727.8331,,,,730.5497,731.0465,730.0416,730.5496,728.8394,153.0,730.0416,731.0465,731.5467,731.5468,733.5127,1267.5,733.513,4.0,734.5113,2.0,20.0,80.0,22.0,1.0,1.2,0.3,Time
,,S15,555268,1,Female,26,anonymized,Serial_Dependence_U,2023.2.3,Win32,120.4819277,,,,,,,,,,,,734.5121,2.0,734.5126,,,,737.2229,737.7181,736.72,737.2229,735.5134,149.0,736.7199,737.7181,738.2179,738.2179,738.9245,250.3,738.9246,1.0,739.9252,2.0,21.0,81.0,17.0,1.0,1.2,0.7,Time
,,S15,555268,1,Female,26,anonymized,Serial_Dependence_U,2023.2.3,Win32,120.4819277,,,,,,,,,,,,739.9259,2.0,739.9264,,,,742.4428,742.9407,741.9411,742.4428,740.9313,95.0,741.941,742.9409,743.4399,743.44,744.8058,945.1,744.8059,2.0,745.8052,2.0,22.0,82.0,11.0,1.0,1.0,0.3,Time
,,S15,555268,1,Female,26,anonymized,Serial_Dependence_U,2023.2.3,Win32,120.4819277,,,,,,,,,,,,745.8061,2.0,745.8065,,,,748.9195,749.4198,748.4187,748.9194,746.8122,150.0,748.4186,749.4199,749.9196,749.9196,751.5695,1454.5,751.5696,2.0,752.5681,2.0,23.0,83.0,4.0,1.0,1.6,0.3,Time
,,S15,555268,1,Female,26,anonymized,Serial_Dependence_U,2023.2.3,Win32,120.4819277,,,,,,,,,,,,752.569,2.0,752.5693,,,,754.8838,755.383,754.3763,754.8838,753.5696,93.0,754.3763,755.3831,755.8823,755.8823,757.8135,1263.0,757.8136,5.0,758.8145,2.0,24.0,84.0,25.0,1.0,0.8,0.7,Time
,,S15,555268,1,Female,26,anonymized,Serial_Dependence_U,2023.2.3,Win32,120.4819277,,,,,,,,,,,,758.8153,2.0,758.8156,,,,761.5401,762.0376,761.0317,761.5399,759.8245,307.0,761.0317,762.0377,762.5374,762.5374,764.1484,1596.4,764.1485,5.0,765.1437,2.0,25.0,85.0,12.0,1.0,1.2,0.3,Time
,,S15,555268,1,Female,26,anonymized,Serial_Dependence_U,2023.2.3,Win32,120.4819277,,,,,,,,,,,,765.1446,2.0,765.145,,,,767.6528,768.1508,767.1472,767.6528,766.1465,205.0,767.1471,768.1509,768.6505,768.6506,770.3476,1229.6,770.3478,4.0,771.3486,2.0,26.0,86.0,16.0,1.0,1.0,0.7,Time
,,S15,555268,1,Female,26,anonymized,Serial_Dependence_U,2023.2.3,Win32,120.4819277,,,,,,,,,,,,771.3497,2.0,771.3502,,,,774.2668,774.7636,773.7623,774.2667,772.3594,24.0,773.7623,774.7636,775.2632,775.2634,777.0207,1130.7,777.0208,2.0,778.0201,2.0,27.0,87.0,13.0,1.0,1.4,0.3,Time
,,S15,555268,1,Female,26,anonymized,Serial_Dependence_U,2023.2.3,Win32,120.4819277,,,,,,,,,,,,778.021,2.0,778.0214,,,,781.1307,781.6265,780.6295,781.1307,779.0274,326.0,780.6294,781.6265,782.1262,782.1262,783.8957,1367.0,783.8957,2.0,784.8913,2.0,28.0,88.0,29.0,1.0,1.6,0.7,Time
,,S15,555268,1,Female,26,anonymized,Serial_Dependence_U,2023.2.3,Win32,120.4819277,,,,,,,,,,,,784.8918,2.0,784.8919,,,,787.2101,787.7062,786.7051,787.21,785.8995,160.0,786.705,787.7063,788.206,788.206,790.1662,1616.3,790.1663,5.0,791.1623,2.0,29.0,89.0,5.0,1.0,0.8,0.7,Time
,,S15,555268,1,Female,26,anonymized,Serial_Dependence_U,2023.2.3,Win32,120.4819277,,,,,,,,,,,,791.1628,3.0,904.242,s,113.0522,,907.3572,907.854,906.8477,907.3572,905.2422,133.0,906.8477,907.854,908.3535,908.3536,911.5959,1074.1,911.596,1.0,912.5934,3.0,0.0,90.0,24.0,1.0,1.6,0.3,Time
,,S15,555268,1,Female,26,anonymized,Serial_Dependence_U,2023.2.3,Win32,120.4819277,,,,,,,,,,,,912.5941,3.0,912.5965,,,,915.1079,915.6083,914.6011,915.1078,913.6003,177.0,914.601,915.6083,916.108,916.1082,918.7411,1135.7,918.7411,4.0,919.7388,3.0,1.0,91.0,16.0,1.0,1.0,0.7,Time
,,S15,555268,1,Female,26,anonymized,Serial_Dependence_U,2023.2.3,Win32,120.4819277,,,,,,,,,,,,919.74,3.0,919.7407,,,,922.8524,923.3539,922.3489,922.8524,920.7418,249.0,922.3488,923.3539,923.8533,923.8533,925.2574,955.7,925.2576,1.0,926.2521,3.0,2.0,92.0,9.0,1.0,1.6,0.7,Time
,,S15,555268,1,Female,26,anonymized,Serial_Dependence_U,2023.2.3,Win32,120.4819277,,,,,,,,,,,,926.2531,3.0,926.2535,,,,928.9735,929.4753,928.4684,928.9734,927.2607,106.0,928.4683,929.4753,929.9746,929.9747,931.4174,1391.2,931.4176,4.0,932.4149,3.0,3.0,93.0,7.0,1.0,1.2,0.7,Time
,,S15,555268,1,Female,26,anonymized,Serial_Dependence_U,2023.2.3,Win32,120.4819277,,,,,,,,,,,,932.4156,3.0,932.4162,,,,934.7312,935.23,934.2293,934.7312,933.424,245.0,934.2293,935.23,935.73,935.73,937.1865,863.1,937.1866,4.0,938.1868,3.0,4.0,94.0,10.0,1.0,0.8,0.3,Time
,,S15,555268,1,Female,26,anonymized,Serial_Dependence_U,2023.2.3,Win32,120.4819277,,,,,,,,,,,,938.1876,3.0,938.188,,,,940.7045,941.2015,940.1954,940.7044,939.194,3.0,940.1954,941.2015,941.7015,941.7016,943.5465,1069.0,943.5466,4.0,944.5417,3.0,5.0,95.0,11.0,1.0,1.0,0.3,Time
,,S15,555268,1,Female,26,anonymized,Serial_Dependence_U,2023.2.3,Win32,120.4819277,,,,,,,,,,,,944.5421,3.0,944.5422,,,,947.6547,948.1563,947.1496,947.6547,945.5427,314.0,947.1496,948.1563,948.6557,948.6557,949.9233,1236.3,949.9234,2.0,950.9215,3.0,6.0,96.0,29.0,1.0,1.6,0.7,Time
,,S15,555268,1,Female,26,anonymized,Serial_Dependence_U,2023.2.3,Win32,120.4819277,,,,,,,,,,,,950.922,3.0,950.922,,,,953.643,954.145,953.1392,953.643,951.9303,330.0,953.139,954.1452,954.6449,954.6451,956.4928,1281.1,956.4929,4.0,957.4927,3.0,7.0,97.0,17.0,1.0,1.2,0.7,Time
,,S15,555268,1,Female,26,anonymized,Serial_Dependence_U,2023.2.3,Win32,120.4819277,,,,,,,,,,,,957.4932,3.0,957.4934,,,,959.8152,960.3161,959.3115,959.8151,958.4994,329.0,959.3115,960.3161,960.8155,960.8155,963.5062,1115.3,963.5063,5.0,964.5053,3.0,8.0,98.0,25.0,1.0,0.8,0.7,Time
,,S15,555268,1,Female,26,anonymized,Serial_Dependence_U,2023.2.3,Win32,120.4819277,,,,,,,,,,,,964.5058,3.0,964.506,,,,967.4205,967.9196,966.9155,967.4204,965.5114,253.0,966.9155,967.9196,968.4192,968.4192,969.9539,1008.5,969.9541,2.0,970.9516,3.0,9.0,99.0,23.0,1.0,1.4,0.3,Time
,,S15,555268,1,Female,26,anonymized,Serial_Dependence_U,2023.2.3,Win32,120.4819277,,,,,,,,,,,,970.9525,3.0,970.953,,,,974.0697,974.5658,973.569,974.0697,971.9621,238.0,973.569,974.5658,975.0659,975.0659,977.667,1435.4,977.6671,2.0,978.6637,3.0,10.0,100.0,4.0,1.0,1.6,0.3,Time
,,S15,555268,1,Female,26,anonymized,Serial_Dependence_U,2023.2.3,Win32,120.4819277,,,,,,,,,,,,978.6644,3.0,978.6648,,,,981.1841,981.679,980.6796,981.184,979.6699,208.0,980.6796,981.679,982.1781,982.1782,983.9194,1179.4,983.9195,4.0,984.9187,3.0,11.0,101.0,6.0,1.0,1.0,0.7,Time
,,S15,555268,1,Female,26,anonymized,Serial_Dependence_U,2023.2.3,Win32,120.4819277,,,,,,,,,,,,984.9196,3.0,984.9199,,,,987.2349,987.7337,986.7261,987.2348,985.9195,271.0,986.726,987.7338,988.2334,988.2334,989.3396,678.7,989.3397,2.0,990.3405,3.0,12.0,102.0,20.0,1.0,0.8,0.3,Time
,,S15,555268,1,Female,26,anonymized,Serial_Dependence_U,2023.2.3,Win32,120.4819277,,,,,,,,,,,,990.3413,3.0,990.3417,,,,992.657,993.1552,992.1489,992.6569,991.3435,241.0,992.1488,993.1553,993.6552,993.6552,995.4205,908.9,995.4206,4.0,996.4205,3.0,13.0,103.0,5.0,1.0,0.8,0.7,Time
,,S15,555268,1,Female,26,anonymized,Serial_Dependence_U,2023.2.3,Win32,120.4819277,,,,,,,,,,,,996.421,3.0,996.4211,,,,999.5335,1000.0347,999.0291,999.5334,997.421,130.0,999.029,1000.0347,1000.5348,1000.5348,1002.8481,1838.0,1002.8483,4.0,1003.8491,3.0,14.0,104.0,14.0,1.0,1.6,0.3,Time
,,S15,555268,1,Female,26,anonymized,Serial_Dependence_U,2023.2.3,Win32,120.4819277,,,,,,,,,,,,1003.8498,3.0,1003.8502,,,,1006.375,1006.8729,1005.869,1006.3749,1004.8605,217.0,1005.8689,1006.8729,1007.3724,1007.3724,1008.8993,1134.7,1008.8994,4.0,1009.896,3.0,15.0,105.0,21.0,1.0,1.0,0.3,Time
,,S15,555268,1,Female,26,anonymized,Serial_Dependence_U,2023.2.3,Win32,120.4819277,,,,,,,,,,,,1009.8969,3.0,1009.8974,,,,1012.612,1013.1108,1012.1099,1012.6119,1010.9046,182.0,1012.1098,1013.1108,1013.6102,1013.6103,1015.4372,1340.2,1015.4373,4.0,1016.434,3.0,16.0,106.0,27.0,1.0,1.2,0.7,Time
,,S15,555268,1,Female,26,anonymized,Serial_Dependence_U,2023.2.3,Win32,120.4819277,,,,,,,,,,,,1016.4348,3.0,1016.4351,,,,1019.3591,1019.8574,1018.8499,1019.3591,1017.4442,83.0,1018.8498,1019.8576,1020.3568,1020.3568,1021.8223,1084.1,1021.8223,2.0,1022.8222,3.0,17.0,107.0,8.0,1.0,1.4,0.7,Time
,,S15,555268,1,Female,26,anonymized,Serial_Dependence_U,2023.2.3,Win32,120.4819277,,,,,,,,,,,,1022.8226,3.0,1022.8227,,,,1025.9401,1026.4366,1025.4325,1025.9401,1023.832,75.0,1025.4324,1026.4366,1026.9361,1026.9364,1028.5436,1130.4,1028.5438,2.0,1029.5432,3.0,18.0,108.0,19.0,1.0,1.6,0.7,Time
,,S15,555268,1,Female,26,anonymized,Serial_Dependence_U,2023.2.3,Win32,120.4819277,,,,,,,,,,,,1029.544,3.0,1029.5443,,,,1031.867,1032.3665,1031.358,1031.867,1030.552,201.0,1031.3579,1032.3665,1032.8663,1032.8663,1034.7018,1445.8,1034.702,5.0,1035.6981,3.0,19.0,109.0,0.0,1.0,0.8,0.3,Time
,,S15,555268,1,Female,26,anonymized,Serial_Dependence_U,2023.2.3,Win32,120.4819277,,,,,,,,,,,,1035.6986,3.0,1035.6987,,,,1038.6102,1039.1124,1038.1076,1038.6101,1036.701,271.0,1038.1075,1039.1124,1039.6124,1039.6124,1041.444,1398.8,1041.4441,3.0,1042.4438,3.0,20.0,110.0,3.0,1.0,1.4,0.3,Time
,,S15,555268,1,Female,26,anonymized,Serial_Dependence_U,2023.2.3,Win32,120.4819277,,,,,,,,,,,,1042.4447,3.0,1042.4451,,,,1045.1694,1045.6673,1044.6602,1045.1693,1043.4542,148.0,1044.6601,1045.6673,1046.1672,1046.1672,1050.4566,1101.7,1050.4568,2.0,1051.4563,3.0,21.0,111.0,12.0,1.0,1.2,0.3,Time
,,S15,555268,1,Female,26,anonymized,Serial_Dependence_U,2023.2.3,Win32,120.4819277,,,,,,,,,,,,1051.4581,3.0,1051.4585,,,,1054.3835,1054.8787,1053.8707,1054.3833,1052.4584,307.0,1053.8705,1054.8788,1055.3785,1055.3785,1057.2506,1386.9,1057.2509,3.0,1058.2519,3.0,22.0,112.0,28.0,1.0,1.4,0.7,Time
,,S15,555268,1,Female,26,anonymized,Serial_Dependence_U,2023.2.3,Win32,120.4819277,,,,,,,,,,,,1058.2532,3.0,1058.2539,,,,1060.776,1061.2747,1060.2716,1060.7759,1059.2633,86.0,1060.2716,1061.2747,1061.7746,1061.7747,1063.9491,1176.9,1063.9492,4.0,1064.9479,3.0,23.0,113.0,26.0,1.0,1.0,0.7,Time
,,S15,555268,1,Female,26,anonymized,Serial_Dependence_U,2023.2.3,Win32,120.4819277,,,,,,,,,,,,1064.9487,3.0,1064.9491,,,,1067.2728,1067.7714,1066.7641,1067.2727,1065.9583,316.0,1066.764,1067.7714,1068.2708,1068.2708,1070.3035,878.1,1070.3035,4.0,1071.3023,3.0,24.0,114.0,15.0,1.0,0.8,0.7,Time
,,S15,555268,1,Female,26,anonymized,Serial_Dependence_U,2023.2.3,Win32,120.4819277,,,,,,,,,,,,1071.3035,3.0,1071.3042,,,,1073.8305,1074.3259,1073.3232,1073.8304,1072.3072,259.0,1073.3231,1074.3259,1074.8255,1074.8256,1075.8202,911.8,1075.8203,2.0,1076.8162,3.0,25.0,115.0,1.0,1.0,1.0,0.3,Time
,,S15,555268,1,Female,26,anonymized,Serial_Dependence_U,2023.2.3,Win32,120.4819277,,,,,,,,,,,,1076.8172,3.0,1076.8176,,,,1079.5311,1080.031,1079.0253,1079.531,1077.8248,12.0,1079.0252,1080.031,1080.5308,1080.5308,1082.3376,1299.6,1082.3378,4.0,1083.3372,3.0,26.0,116.0,2.0,1.0,1.2,0.3,Time
,,S15,555268,1,Female,26,anonymized,Serial_Dependence_U,2023.2.3,Win32,120.4819277,,,,,,,,,,,,1083.3384,3.0,1083.3391,,,,1086.2488,1086.7436,1085.7446,1086.2486,1084.3378,248.0,1085.7444,1086.7436,1087.2432,1087.2432,1089.5023,1549.6,1089.5024,4.0,1090.5001,3.0,27.0,117.0,13.0,1.0,1.4,0.3,Time
,,S15,555268,1,Female,26,anonymized,Serial_Dependence_U,2023.2.3,Win32,120.4819277,,,,,,,,,,,,1090.5008,3.0,1090.5011,,,,1093.41,1093.9064,1092.9088,1093.41,1091.503,260.0,1092.9088,1093.9064,1094.4061,1094.4062,1096.263,1463.3,1096.2632,3.0,1097.2624,3.0,28.0,118.0,18.0,1.0,1.4,0.7,Time
,,S15,555268,1,Female,26,anonymized,Serial_Dependence_U,2023.2.3,Win32,120.4819277,,,,,,,,,,,,1097.2639,3.0,1097.2645,,,,1099.9794,1100.4777,1099.4789,1099.9793,1098.2721,104.0,1099.4789,1100.4777,1100.9774,1100.9774,1103.0926,1458.8,1103.0926,4.0,1104.0922,3.0,29.0,119.0,22.0,1.0,1.2,0.3,Time
,,S15,555268,1,Female,26,anonymized,Serial_Dependence_U,2023.2.3,Win32,120.4819277,,,,,,,,,,,,1104.0931,4.0,1108.6214,s,4.5062,,1111.3403,1111.8378,1110.8323,1111.3403,1109.6255,35.0,1110.8322,1111.8378,1112.3373,1112.3373,1114.9607,1405.0,1114.9608,4.0,1115.9599,4.0,0.0,120.0,2.0,1.0,1.2,0.3,Time
,,S15,555268,1,Female,26,anonymized,Serial_Dependence_U,2023.2.3,Win32,120.4819277,,,,,,,,,,,,1115.9604,4.0,1115.9632,,,,1119.0873,1119.5834,1118.5783,1119.0872,1116.9749,230.0,1118.5782,1119.5835,1120.0831,1120.0831,1121.9852,1429.2,1121.9852,2.0,1122.9815,4.0,1.0,121.0,14.0,1.0,1.6,0.3,Time
,,S15,555268,1,Female,26,anonymized,Serial_Dependence_U,2023.2.3,Win32,120.4819277,,,,,,,,,,,,1122.9824,4.0,1122.983,,,,1125.5009,1125.996,1124.9988,1125.5008,1123.9891,171.0,1124.9987,1125.9961,1126.4963,1126.4967,1128.4513,1289.2,1128.4514,4.0,1129.4526,4.0,2.0,122.0,26.0,1.0,1.0,0.7,Time
,,S15,555268,1,Female,26,anonymized,Serial_Dependence_U,2023.2.3,Win32,120.4819277,,,,,,,,,,,,1129.4537,4.0,1129.454,,,,1132.5683,1133.0673,1132.0664,1132.5683,1130.4643,343.0,1132.0664,1133.0673,1133.5673,1133.5677,1135.6494,1528.9,1135.6495,3.0,1136.6487,4.0,3.0,123.0,19.0,1.0,1.6,0.7,Time
,,S15,555268,1,Female,26,anonymized,Serial_Dependence_U,2023.2.3,Win32,120.4819277,,,,,,,,,,,,1136.6492,4.0,1136.6493,,,,1139.7722,1140.2709,1139.2651,1139.7721,1137.6577,163.0,1139.2651,1140.271,1140.7713,1140.7714,1143.2723,1768.2,1143.2725,4.0,1144.2688,4.0,4.0,124.0,29.0,1.0,1.6,0.7,Time
,,S15,555268,1,Female,26,anonymized,Serial_Dependence_U,2023.2.3,Win32,120.4819277,,,,,,,,,,,,1144.2698,4.0,1144.2702,,,,1146.9826,1147.4837,1146.4804,1146.9826,1145.2759,138.0,1146.4802,1147.4837,1147.9838,1147.9838,1149.8227,1165.4,1149.8227,3.0,1150.824,4.0,5.0,125.0,7.0,1.0,1.2,0.7,Time
,,S15,555268,1,Female,26,anonymized,Serial_Dependence_U,2023.2.3,Win32,120.4819277,,,,,,,,,,,,1150.8244,4.0,1150.8245,,,,1153.1353,1153.6306,1152.6315,1153.1353,1151.8245,52.0,1152.6314,1153.6306,1154.1304,1154.1305,1156.6108,987.2,1156.6109,4.0,1157.6114,4.0,6.0,126.0,15.0,1.0,0.8,0.7,Time
,,S15,555268,1,Female,26,anonymized,Serial_Dependence_U,2023.2.3,Win32,120.4819277,,,,,,,,,,,,1157.6125,4.0,1157.6128,,,,1160.5262,1161.0264,1160.0179,1160.5262,1158.6149,13.0,1160.0177,1161.0264,1161.5264,1161.5265,1163.2754,1200.9,1163.2755,2.0,1164.2743,4.0,7.0,127.0,23.0,1.0,1.4,0.3,Time
,,S15,555268,1,Female,26,anonymized,Serial_Dependence_U,2023.2.3,Win32,120.4819277,,,,,,,,,,,,1164.275,4.0,1164.2753,,,,1166.7911,1167.2891,1166.2869,1166.791,1165.2792,198.0,1166.2868,1167.2892,1167.7896,1167.7897,1169.4743,1189.0,1169.4744,4.0,1170.4706,4.0,8.0,128.0,21.0,1.0,1.0,0.3,Time
,,S15,555268,1,Female,26,anonymized,Serial_Dependence_U,2023.2.3,Win32,120.4819277,,,,,,,,,,,,1170.4713,4.0,1170.4717,,,,1172.9927,1173.494,1172.4848,1172.9927,1171.4795,7.0,1172.4848,1173.494,1173.9939,1173.9939,1175.7579,1464.3,1175.7579,5.0,1176.7591,4.0,9.0,129.0,6.0,1.0,1.0,0.7,Time
,,S15,555268,1,Female,26,anonymized,Serial_Dependence_U,2023.2.3,Win32,120.4819277,,,,,,,,,,,,1176.7597,4.0,1176.76,,,,1179.877,1180.3737,1179.3673,1179.8768,1177.7664,60.0,1179.3673,1180.3737,1180.8732,1180.8733,1182.8788,1427.2,1182.8789,2.0,1183.8799,4.0,10.0,130.0,24.0,1.0,1.6,0.3,Time
,,S15,555268,1,Female,26,anonymized,Serial_Dependence_U,2023.2.3,Win32,120.4819277,,,,,,,,,,,,1183.8807,4.0,1183.8811,,,,1186.7872,1187.2861,1186.2861,1186.7871,1184.8809,25.0,1186.286,1187.2862,1187.7861,1187.7861,1189.6537,1408.4,1189.6538,3.0,1190.6507,4.0,11.0,131.0,3.0,1.0,1.4,0.3,Time
,,S15,555268,1,Female,26,anonymized,Serial_Dependence_U,2023.2.3,Win32,120.4819277,,,,,,,,,,,,1190.651,4.0,1190.6511,,,,1193.5599,1194.0575,1193.0592,1193.5598,1191.6518,256.0,1193.0592,1194.0577,1194.5571,1194.5572,1196.2568,1157.7,1196.2569,2.0,1197.2555,4.0,12.0,132.0,18.0,1.0,1.4,0.7,Time
,,S15,555268,1,Female,26,anonymized,Serial_Dependence_U,2023.2.3,Win32,120.4819277,,,,,,,,,,,,1197.256,4.0,1197.2562,,,,1199.9688,1200.4705,1199.4615,1199.9688,1198.2555,182.0,1199.4615,1200.4705,1200.9702,1200.9703,1202.7776,1553.4,1202.7777,4.0,1203.7771,4.0,13.0,133.0,27.0,1.0,1.2,0.7,Time
,,S15,555268,1,Female,26,anonymized,Serial_Dependence_U,2023.2.3,Win32,120.4819277,,,,,,,,,,,,1203.7782,4.0,1203.7785,,,,1206.1,1206.6004,1205.5946,1206.1,1204.7857,252.0,1205.5946,1206.6005,1207.1001,1207.1001,1208.6928,1006.3,1208.6929,4.0,1209.6902,4.0,14.0,134.0,0.0,1.0,0.8,0.3,Time
,,S15,555268,1,Female,26,anonymized,Serial_Dependence_U,2023.2.3,Win32,120.4819277,,,,,,,,,,,,1209.6911,4.0,1209.6915,,,,1212.6114,1213.1133,1212.1046,1212.6113,1210.6988,135.0,1212.1045,1213.1133,1213.6129,1213.6129,1215.292,1045.0,1215.2922,2.0,1216.2866,4.0,15.0,135.0,13.0,1.0,1.4,0.3,Time
,,S15,555268,1,Female,26,anonymized,Serial_Dependence_U,2023.2.3,Win32,120.4819277,,,,,,,,,,,,1216.287,4.0,1216.2872,,,,1218.6028,1219.1015,1218.0952,1218.6027,1217.2884,58.0,1218.0951,1219.1015,1219.6009,1219.601,1220.8706,863.6,1220.8706,4.0,1221.8666,4.0,16.0,136.0,25.0,1.0,0.8,0.7,Time
,,S15,555268,1,Female,26,anonymized,Serial_Dependence_U,2023.2.3,Win32,120.4819277,,,,,,,,,,,,1221.8676,4.0,1221.868,,,,1224.5901,1225.0897,1224.0825,1224.59,1222.8756,149.0,1224.0824,1225.0897,1225.5895,1225.5895,1227.4244,1463.8,1227.4245,4.0,1228.4214,4.0,17.0,137.0,17.0,1.0,1.2,0.7,Time
,,S15,555268,1,Female,26,anonymized,Serial_Dependence_U,2023.2.3,Win32,120.4819277,,,,,,,,,,,,1228.4223,4.0,1228.4226,,,,1230.7403,1231.2359,1230.2317,1230.7403,1229.4219,191.0,1230.2316,1231.236,1231.736,1231.736,1233.0515,724.8,1233.0517,2.0,1234.0513,4.0,18.0,138.0,20.0,1.0,0.8,0.3,Time
,,S15,555268,1,Female,26,anonymized,Serial_Dependence_U,2023.2.3,Win32,120.4819277,,,,,,,,,,,,1234.0521,4.0,1234.0525,,,,1236.7669,1237.2658,1236.2617,1236.7668,1235.0548,74.0,1236.2617,1237.2658,1237.7659,1237.7659,1239.4021,1143.3,1239.4021,3.0,1240.3978,4.0,19.0,139.0,22.0,1.0,1.2,0.3,Time
,,S15,555268,1,Female,26,anonymized,Serial_Dependence_U,2023.2.3,Win32,120.4819277,,,,,,,,,,,,1240.3983,4.0,1240.3984,,,,1243.3177,1243.8123,1242.8142,1243.3176,1241.407,230.0,1242.8142,1243.8124,1244.3122,1244.3123,1246.0711,1330.2,1246.0712,3.0,1247.0692,4.0,20.0,140.0,28.0,1.0,1.4,0.7,Time
,,S15,555268,1,Female,26,anonymized,Serial_Dependence_U,2023.2.3,Win32,120.4819277,,,,,,,,,,,,1247.0701,4.0,1247.0704,,,,1249.585,1250.0838,1249.0768,1249.585,1248.0757,262.0,1249.0768,1250.0838,1250.5833,1250.5833,1251.3282,285.5,1251.3283,1.0,1252.324,4.0,21.0,141.0,16.0,1.0,1.0,0.7,Time
,,S15,555268,1,Female,26,anonymized,Serial_Dependence_U,2023.2.3,Win32,120.4819277,,,,,,,,,,,,1252.3245,4.0,1252.3249,,,,1254.6491,1255.1471,1254.1468,1254.6491,1253.3374,9.0,1254.1467,1255.1472,1255.6474,1255.6475,1257.2902,985.9,1257.2904,4.0,1258.2875,4.0,22.0,142.0,10.0,1.0,0.8,0.3,Time
,,S15,555268,1,Female,26,anonymized,Serial_Dependence_U,2023.2.3,Win32,120.4819277,,,,,,,,,,,,1258.2883,4.0,1258.2887,,,,1260.8033,1261.302,1260.2968,1260.8032,1259.2938,359.0,1260.2968,1261.302,1261.8021,1261.8021,1263.4084,1047.6,1263.4085,3.0,1264.4087,4.0,23.0,143.0,11.0,1.0,1.0,0.3,Time
,,S15,555268,1,Female,26,anonymized,Serial_Dependence_U,2023.2.3,Win32,120.4819277,,,,,,,,,,,,1264.4095,4.0,1264.4098,,,,1267.5231,1268.0231,1267.0177,1267.523,1265.4109,25.0,1267.0177,1268.0232,1268.5232,1268.5232,1271.4133,1456.9,1271.414,2.0,1272.4096,4.0,24.0,144.0,4.0,1.0,1.6,0.3,Time
,,S15,555268,1,Female,26,anonymized,Serial_Dependence_U,2023.2.3,Win32,120.4819277,,,,,,,,,,,,1272.4099,4.0,1272.41,,,,1275.5286,1276.0273,1275.0205,1275.5285,1273.4132,341.0,1275.0205,1276.0273,1276.5272,1276.5272,1278.6239,1687.9,1278.6239,4.0,1279.6252,4.0,25.0,145.0,9.0,1.0,1.6,0.7,Time
,,S15,555268,1,Female,26,anonymized,Serial_Dependence_U,2023.2.3,Win32,120.4819277,,,,,,,,,,,,1279.6262,4.0,1279.6266,,,,1282.1412,1282.6403,1281.6333,1282.141,1280.6326,3.0,1281.6333,1282.6403,1283.1395,1283.1395,1284.9801,1464.5,1284.9801,5.0,1285.98,4.0,26.0,146.0,1.0,1.0,1.0,0.3,Time
,,S15,555268,1,Female,26,anonymized,Serial_Dependence_U,2023.2.3,Win32,120.4819277,,,,,,,,,,,,1285.9807,4.0,1285.9812,,,,1288.2937,1288.795,1287.7907,1288.2936,1286.988,200.0,1287.7907,1288.795,1289.2944,1289.2944,1290.6839,948.0,1290.6839,4.0,1291.6852,4.0,27.0,147.0,5.0,1.0,0.8,0.7,Time
,,S15,555268,1,Female,26,anonymized,Serial_Dependence_U,2023.2.3,Win32,120.4819277,,,,,,,,,,,,1291.6857,4.0,1291.6858,,,,1294.5997,1295.0998,1294.0951,1294.5996,1292.6865,295.0,1294.095,1295.0999,1295.5993,1295.5993,1297.2159,1601.2,1297.2161,4.0,1298.2141,4.0,28.0,148.0,8.0,1.0,1.4,0.7,Time
,,S15,555268,1,Female,26,anonymized,Serial_Dependence_U,2023.2.3,Win32,120.4819277,,,,,,,,,,,,1298.215,4.0,1298.2156,,,,1300.9314,1301.4295,1300.422,1300.9314,1299.2209,312.0,1300.422,1301.4295,1301.9291,1301.9292,1303.1216,794.0,1303.1217,1.0,1304.1196,4.0,29.0,149.0,12.0,1.0,1.2,0.3,Time
,,S15,555268,1,Female,26,anonymized,Serial_Dependence_U,2023.2.3,Win32,120.4819277,,,,,,,,,,,,1304.1206,5.0,1315.1594,s,10.9966,,1317.4814,1317.9789,1316.9771,1317.4813,1316.1642,190.0,1316.9768,1317.979,1318.4781,1318.4781,1321.1044,1108.8,1321.1045,5.0,1322.1008,5.0,0.0,150.0,15.0,1.0,0.8,0.7,Time
,,S15,555268,1,Female,26,anonymized,Serial_Dependence_U,2023.2.3,Win32,120.4819277,,,,,,,,,,,,1322.1021,5.0,1322.104,,,,1325.2248,1325.7244,1324.7162,1325.2247,1323.1098,233.0,1324.7161,1325.7245,1326.2234,1326.2234,1328.1651,1520.0,1328.1654,2.0,1329.1634,5.0,1.0,151.0,4.0,1.0,1.6,0.3,Time
,,S15,555268,1,Female,26,anonymized,Serial_Dependence_U,2023.2.3,Win32,120.4819277,,,,,,,,,,,,1329.1645,5.0,1329.1651,,,,1331.4834,1331.9787,1330.9733,1331.4833,1330.1643,274.0,1330.9732,1331.9787,1332.4784,1332.4785,1333.9507,907.7,1333.9508,4.0,1334.952,5.0,2.0,152.0,5.0,1.0,0.8,0.7,Time
,,S15,555268,1,Female,26,anonymized,Serial_Dependence_U,2023.2.3,Win32,120.4819277,,,,,,,,,,,,1334.9525,5.0,1334.9526,,,,1337.6816,1338.1833,1337.1708,1337.6815,1335.9612,93.0,1337.1708,1338.1833,1338.6832,1338.6833,1341.2103,1269.6,1341.2105,4.0,1342.2061,5.0,3.0,153.0,27.0,1.0,1.2,0.7,Time
,,S15,555268,1,Female,26,anonymized,Serial_Dependence_U,2023.2.3,Win32,120.4819277,,,,,,,,,,,,1342.2071,5.0,1342.2075,,,,1345.1152,1345.6127,1344.6148,1345.1151,1343.2101,228.0,1344.6148,1345.6127,1346.112,1346.112,1347.5774,900.6,1347.5775,1.0,1348.5776,5.0,4.0,154.0,23.0,1.0,1.4,0.3,Time
,,S15,555268,1,Female,26,anonymized,Serial_Dependence_U,2023.2.3,Win32,120.4819277,,,,,,,,,,,,1348.5783,5.0,1348.5787,,,,1351.0945,1351.5922,1350.591,1351.0944,1349.5846,114.0,1350.5909,1351.5922,1352.0921,1352.0921,1353.5505,988.9,1353.5506,3.0,1354.5492,5.0,5.0,155.0,16.0,1.0,1.0,0.7,Time
,,S15,555268,1,Female,26,anonymized,Serial_Dependence_U,2023.2.3,Win32,120.4819277,,,,,,,,,,,,1354.55,5.0,1354.5504,,,,1357.4644,1357.9638,1356.9638,1357.4644,1355.5546,184.0,1356.9638,1357.9638,1358.4632,1358.4633,1360.0233,953.4,1360.0235,1.0,1361.0205,5.0,6.0,156.0,18.0,1.0,1.4,0.7,Time
,,S15,555268,1,Female,26,anonymized,Serial_Dependence_U,2023.2.3,Win32,120.4819277,,,,,,,,,,,,1361.021,5.0,1361.0211,,,,1364.1395,1364.6349,1363.6306,1364.1394,1362.0219,198.0,1363.6305,1364.635,1365.1347,1365.1347,1368.294,1514.1,1368.2941,2.0,1369.2957,5.0,7.0,157.0,14.0,1.0,1.6,0.3,Time
,,S15,555268,1,Female,26,anonymized,Serial_Dependence_U,2023.2.3,Win32,120.4819277,,,,,,,,,,,,1369.2963,5.0,1369.2964,,,,1371.814,1372.3139,1371.3089,1371.814,1370.3009,319.0,1371.3088,1372.3139,1372.8136,1372.8136,1375.021,1176.5,1375.021,4.0,1376.0202,5.0,8.0,158.0,6.0,1.0,1.0,0.7,Time
,,S15,555268,1,Female,26,anonymized,Serial_Dependence_U,2023.2.3,Win32,120.4819277,,,,,,,,,,,,1376.0209,5.0,1376.0213,,,,1379.1404,1379.6347,1378.6289,1379.1403,1377.0262,358.0,1378.6289,1379.6347,1380.1342,1380.1342,1381.8284,1259.2,1381.8285,2.0,1382.8246,5.0,9.0,159.0,29.0,1.0,1.6,0.7,Time
,,S15,555268,1,Female,26,anonymized,Serial_Dependence_U,2023.2.3,Win32,120.4819277,,,,,,,,,,,,1382.8252,5.0,1382.8257,,,,1385.9334,1386.4308,1385.4318,1385.9333,1383.8306,196.0,1385.4318,1386.4308,1386.9308,1386.9309,1388.8081,1444.3,1388.8082,2.0,1389.8036,5.0,10.0,160.0,24.0,1.0,1.6,0.3,Time
,,S15,555268,1,Female,26,anonymized,Serial_Dependence_U,2023.2.3,Win32,120.4819277,,,,,,,,,,,,1389.8044,5.0,1389.8048,,,,1392.9198,1393.4186,1392.4185,1392.9198,1390.8101,37.0,1392.4185,1393.4186,1393.9184,1393.9184,1396.0201,1551.2,1396.0202,3.0,1397.0215,5.0,11.0,161.0,9.0,1.0,1.6,0.7,Time
,,S15,555268,1,Female,26,anonymized,Serial_Dependence_U,2023.2.3,Win32,120.4819277,,,,,,,,,,,,1397.0221,5.0,1397.0221,,,,1399.9409,1400.4392,1399.4386,1399.9409,1398.0307,339.0,1399.4386,1400.4392,1400.9394,1400.9395,1402.949,1132.0,1402.9491,2.0,1403.9459,5.0,12.0,162.0,8.0,1.0,1.4,0.7,Time
,,S15,555268,1,Female,26,anonymized,Serial_Dependence_U,2023.2.3,Win32,120.4819277,,,,,,,,,,,,1403.9468,5.0,1403.9472,,,,1406.4673,1406.9693,1405.9626,1406.4673,1404.9539,141.0,1405.9626,1406.9693,1407.4696,1407.4697,1409.1908,1104.7,1409.1909,4.0,1410.1923,5.0,13.0,163.0,26.0,1.0,1.0,0.7,Time
,,S15,555268,1,Female,26,anonymized,Serial_Dependence_U,2023.2.3,Win32,120.4819277,,,,,,,,,,,,1410.1933,5.0,1410.1936,,,,1412.9058,1413.4073,1412.3981,1412.9057,1411.1971,147.0,1412.398,1413.4073,1413.907,1413.9071,1416.2179,1552.2,1416.218,4.0,1417.2132,5.0,14.0,164.0,22.0,1.0,1.2,0.3,Time
,,S15,555268,1,Female,26,anonymized,Serial_Dependence_U,2023.2.3,Win32,120.4819277,,,,,,,,,,,,1417.2137,5.0,1417.2139,,,,1419.9182,1420.4199,1419.4165,1419.9182,1418.216,237.0,1419.4165,1420.4199,1420.9196,1420.9196,1422.6253,1122.1,1422.6255,2.0,1423.6264,5.0,15.0,165.0,12.0,1.0,1.2,0.3,Time
,,S15,555268,1,Female,26,anonymized,Serial_Dependence_U,2023.2.3,Win32,120.4819277,,,,,,,,,,,,1423.6273,5.0,1423.6277,,,,1425.9494,1426.4497,1425.4437,1425.9494,1424.6335,143.0,1425.4436,1426.4497,1426.9494,1426.9495,1428.9175,1420.1,1428.9176,5.0,1429.9146,5.0,16.0,166.0,20.0,1.0,0.8,0.3,Time
,,S15,555268,1,Female,26,anonymized,Serial_Dependence_U,2023.2.3,Win32,120.4819277,,,,,,,,,,,,1429.9157,5.0,1429.9161,,,,1432.4303,1432.9294,1431.9243,1432.4303,1430.923,292.0,1431.9243,1432.9294,1433.429,1433.4293,1435.3134,1252.7,1435.3136,4.0,1436.3109,5.0,17.0,167.0,1.0,1.0,1.0,0.3,Time
,,S15,555268,1,Female,26,anonymized,Serial_Dependence_U,2023.2.3,Win32,120.4819277,,,,,,,,,,,,1436.3117,5.0,1436.312,,,,1438.6243,1439.1257,1438.1179,1438.6242,1437.312,284.0,1438.1179,1439.1258,1439.6254,1439.6254,1441.0151,786.6,1441.0152,3.0,1442.0157,5.0,18.0,168.0,25.0,1.0,0.8,0.7,Time
,,S15,555268,1,Female,26,anonymized,Serial_Dependence_U,2023.2.3,Win32,120.4819277,,,,,,,,,,,,1442.0166,5.0,1442.0173,,,,1444.7331,1445.2303,1444.2292,1444.733,1443.0234,354.0,1444.2291,1445.2304,1445.7303,1445.7303,1447.4502,1138.2,1447.4503,2.0,1448.4456,5.0,19.0,169.0,17.0,1.0,1.2,0.7,Time
,,S15,555268,1,Female,26,anonymized,Serial_Dependence_U,2023.2.3,Win32,120.4819277,,,,,,,,,,,,1448.4461,5.0,1448.4463,,,,1451.1616,1451.6604,1450.6538,1451.1615,1449.4465,56.0,1450.6537,1451.6604,1452.16,1452.16,1453.7183,1147.6,1453.7183,3.0,1454.717,5.0,20.0,170.0,7.0,1.0,1.2,0.7,Time
,,S15,555268,1,Female,26,anonymized,Serial_Dependence_U,2023.2.3,Win32,120.4819277,,,,,,,,,,,,1454.7178,5.0,1454.7182,,,,1457.4348,1457.9312,1456.9311,1457.4347,1455.7248,85.0,1456.931,1457.9313,1458.4315,1458.4315,1460.2006,1142.8,1460.2007,3.0,1461.1961,5.0,21.0,171.0,2.0,1.0,1.2,0.3,Time
,,S15,555268,1,Female,26,anonymized,Serial_Dependence_U,2023.2.3,Win32,120.4819277,,,,,,,,,,,,1461.1972,5.0,1461.1977,,,,1464.1072,1464.6028,1463.6032,1464.1071,1462.1994,83.0,1463.6031,1464.6029,1465.1022,1465.1023,1466.439,957.6,1466.4392,1.0,1467.4341,5.0,22.0,172.0,13.0,1.0,1.4,0.3,Time
,,S15,555268,1,Female,26,anonymized,Serial_Dependence_U,2023.2.3,Win32,120.4819277,,,,,,,,,,,,1467.4349,5.0,1467.4354,,,,1470.3518,1470.8489,1469.8489,1470.3517,1468.4436,142.0,1469.8489,1470.8489,1471.3491,1471.3493,1475.7179,1256.3,1475.718,2.0,1476.7128,5.0,23.0,173.0,28.0,1.0,1.4,0.7,Time
,,S15,555268,1,Female,26,anonymized,Serial_Dependence_U,2023.2.3,Win32,120.4819277,,,,,,,,,,,,1476.7136,5.0,1476.714,,,,1479.2244,1479.7193,1478.7213,1479.2244,1477.7148,354.0,1478.7213,1479.7193,1480.2191,1480.2191,1483.0908,1096.7,1483.0909,4.0,1484.0918,5.0,24.0,174.0,21.0,1.0,1.0,0.3,Time
,,S15,555268,1,Female,26,anonymized,Serial_Dependence_U,2023.2.3,Win32,120.4819277,,,,,,,,,,,,1484.0926,5.0,1484.093,,,,1486.6066,1487.1066,1486.1011,1486.6066,1485.0935,35.0,1486.101,1487.1067,1487.6065,1487.6067,1489.2644,1287.0,1489.2646,4.0,1490.2631,5.0,25.0,175.0,11.0,1.0,1.0,0.3,Time
,,S15,555268,1,Female,26,anonymized,Serial_Dependence_U,2023.2.3,Win32,120.4819277,,,,,,,,,,,,1490.264,5.0,1490.2645,,,,1493.1865,1493.6863,1492.6808,1493.1864,1491.2724,236.0,1492.6808,1493.6863,1494.1859,1494.1859,1495.7309,1067.6,1495.731,2.0,1496.7264,5.0,26.0,176.0,3.0,1.0,1.4,0.3,Time
,,S15,555268,1,Female,26,anonymized,Serial_Dependence_U,2023.2.3,Win32,120.4819277,,,,,,,,,,,,1496.7273,5.0,1496.7276,,,,1499.0399,1499.5409,1498.5375,1499.0398,1497.7349,3.0,1498.5375,1499.5409,1500.041,1500.041,1502.5049,1130.3,1502.505,5.0,1503.5054,5.0,27.0,177.0,0.0,1.0,0.8,0.3,Time
,,S15,555268,1,Female,26,anonymized,Serial_Dependence_U,2023.2.3,Win32,120.4819277,,,,,,,,,,,,1503.5057,5.0,1503.5058,,,,1506.6153,1507.1117,1506.1147,1506.6153,1504.5086,76.0,1506.1146,1507.1117,1507.6115,1507.6115,1508.7131,392.6,1508.7133,1.0,1509.7073,5.0,28.0,178.0,19.0,1.0,1.6,0.7,Time
,,S15,555268,1,Female,26,anonymized,Serial_Dependence_U,2023.2.3,Win32,120.4819277,,,,,,,,,,,,1509.7076,5.0,1509.7077,,,,1512.0334,1512.5339,1511.5244,1512.0334,1510.7174,213.0,1511.5244,1512.5339,1513.0337,1513.0338,1514.9827,1437.6,1514.9828,5.0,1515.9819,5.0,29.0,179.0,10.0,1.0,0.8,0.3,Time
,,S15,555268,1,Female,26,anonymized,Serial_Dependence_U,2023.2.3,Win32,120.4819277,,,,,,,,,,,,1515.9828,6.0,1518.264,s,2.265,,1521.1838,1521.6795,1520.6728,1521.1836,1519.2661,268.0,1520.6727,1521.6796,1522.175,1522.1751,1523.7864,1204.9,1523.7865,2.0,1524.7853,6.0,0.0,180.0,8.0,1.0,1.4,0.7,Time
,,S15,555268,1,Female,26,anonymized,Serial_Dependence_U,2023.2.3,Win32,120.4819277,,,,,,,,,,,,1524.7858,6.0,1524.7879,,,,1527.4985,1527.9996,1526.9959,1527.4985,1525.7908,334.0,1526.9959,1527.9996,1528.4993,1528.4994,1530.4183,1326.3,1530.4184,4.0,1531.4146,6.0,1.0,181.0,17.0,1.0,1.2,0.7,Time
,,S15,555268,1,Female,26,anonymized,Serial_Dependence_U,2023.2.3,Win32,120.4819277,,,,,,,,,,,,1531.415,6.0,1531.4152,,,,1533.9282,1534.4298,1533.4233,1533.9281,1532.4171,270.0,1533.4233,1534.4298,1534.9292,1534.9292,1536.4626,1039.4,1536.4627,3.0,1537.4614,6.0,2.0,182.0,11.0,1.0,1.0,0.3,Time
,,S15,555268,1,Female,26,anonymized,Serial_Dependence_U,2023.2.3,Win32,120.4819277,,,,,,,,,,,,1537.4624,6.0,1537.4627,,,,1539.7758,1540.2765,1539.2701,1539.7757,1538.4629,55.0,1539.2701,1540.2765,1540.7763,1540.7763,1542.1017,877.0,1542.1018,4.0,1543.0999,6.0,3.0,183.0,25.0,1.0,0.8,0.7,Time
,,S15,555268,1,Female,26,anonymized,Serial_Dependence_U,2023.2.3,Win32,120.4819277,,,,,,,,,,,,1543.1004,6.0,1543.1005,,,,1545.6216,1546.1232,1545.1052,1545.6216,1544.1013,75.0,1545.105,1546.1232,1546.6226,1546.6226,1548.3462,1305.9,1548.3464,5.0,1549.346,6.0,4.0,184.0,21.0,1.0,1.0,0.3,Time
,,S15,555268,1,Female,26,anonymized,Serial_Dependence_U,2023.2.3,Win32,120.4819277,,,,,,,,,,,,1549.3473,6.0,1549.3476,,,,1551.6567,1552.153,1551.1554,1551.6567,1550.3532,239.0,1551.1552,1552.153,1552.653,1552.6531,1554.2175,769.1,1554.2177,3.0,1555.2177,6.0,5.0,185.0,5.0,1.0,0.8,0.7,Time
,,S15,555268,1,Female,26,anonymized,Serial_Dependence_U,2023.2.3,Win32,120.4819277,,,,,,,,,,,,1555.2184,6.0,1555.2185,,,,1557.7396,1558.2407,1557.2299,1557.7395,1556.221,268.0,1557.2299,1558.2407,1558.7407,1558.7408,1560.2412,833.1,1560.2413,2.0,1561.2392,6.0,6.0,186.0,6.0,1.0,1.0,0.7,Time
,,S15,555268,1,Female,26,anonymized,Serial_Dependence_U,2023.2.3,Win32,120.4819277,,,,,,,,,,,,1561.2398,6.0,1561.2399,,,,1564.3563,1564.8539,1563.8487,1564.3563,1562.246,235.0,1563.8486,1564.8539,1565.3533,1565.3533,1567.3692,1573.9,1567.3693,3.0,1568.3687,6.0,7.0,187.0,9.0,1.0,1.6,0.7,Time
,,S15,555268,1,Female,26,anonymized,Serial_Dependence_U,2023.2.3,Win32,120.4819277,,,,,,,,,,,,1568.3701,6.0,1568.3708,,,,1571.4853,1571.983,1570.9785,1571.4853,1569.3748,120.0,1570.9784,1571.983,1572.4833,1572.4835,1574.2567,1248.2,1574.2568,2.0,1575.2562,6.0,8.0,188.0,19.0,1.0,1.6,0.7,Time
,,S15,555268,1,Female,26,anonymized,Serial_Dependence_U,2023.2.3,Win32,120.4819277,,,,,,,,,,,,1575.2577,6.0,1575.2584,,,,1578.3719,1578.871,1577.8654,1578.3718,1576.2644,244.0,1577.8654,1578.871,1579.3706,1579.3707,1581.3843,1514.0,1581.3844,2.0,1582.3854,6.0,9.0,189.0,24.0,1.0,1.6,0.3,Time
,,S15,555268,1,Female,26,anonymized,Serial_Dependence_U,2023.2.3,Win32,120.4819277,,,,,,,,,,,,1582.3864,6.0,1582.3867,,,,1584.8998,1585.4007,1584.3944,1584.8996,1583.3936,339.0,1584.3944,1585.4007,1585.9001,1585.9002,1587.9254,1522.8,1587.9255,5.0,1588.9238,6.0,10.0,190.0,16.0,1.0,1.0,0.7,Time
,,S15,555268,1,Female,26,anonymized,Serial_Dependence_U,2023.2.3,Win32,120.4819277,,,,,,,,,,,,1588.9242,6.0,1588.9243,,,,1592.0397,1592.5382,1591.534,1592.0397,1589.9296,131.0,1591.5339,1592.5382,1593.0379,1593.038,1595.3112,1745.7,1595.3113,4.0,1596.3112,6.0,11.0,191.0,29.0,1.0,1.6,0.7,Time
,,S15,555268,1,Female,26,anonymized,Serial_Dependence_U,2023.2.3,Win32,120.4819277,,,,,,,,,,,,1596.3116,6.0,1596.3117,,,,1599.0246,1599.5258,1598.5214,1599.0246,1597.3131,226.0,1598.5213,1599.5258,1600.0255,1600.0255,1601.8574,1438.8,1601.8575,4.0,1602.8569,6.0,12.0,192.0,22.0,1.0,1.2,0.3,Time
,,S15,555268,1,Female,26,anonymized,Serial_Dependence_U,2023.2.3,Win32,120.4819277,,,,,,,,,,,,1602.8578,6.0,1602.8582,,,,1605.1833,1605.6807,1604.674,1605.1831,1603.8663,6.0,1604.674,1605.6807,1606.1803,1606.1803,1607.9455,1380.7,1607.9456,5.0,1608.9454,6.0,13.0,193.0,0.0,1.0,0.8,0.3,Time
,,S15,555268,1,Female,26,anonymized,Serial_Dependence_U,2023.2.3,Win32,120.4819277,,,,,,,,,,,,1608.946,6.0,1608.9465,,,,1611.2658,1611.7606,1610.7563,1611.2657,1609.9513,65.0,1610.7561,1611.7606,1612.2603,1612.2603,1613.9867,876.3,1613.9869,4.0,1614.9838,6.0,14.0,194.0,20.0,1.0,0.8,0.3,Time
,,S15,555268,1,Female,26,anonymized,Serial_Dependence_U,2023.2.3,Win32,120.4819277,,,,,,,,,,,,1614.9842,6.0,1614.9844,,,,1618.0993,1618.5979,1617.5914,1618.0993,1615.9867,243.0,1617.5912,1618.598,1619.0977,1619.0978,1621.3493,1248.2,1621.3495,2.0,1622.3468,6.0,15.0,195.0,14.0,1.0,1.6,0.3,Time
,,S15,555268,1,Female,26,anonymized,Serial_Dependence_U,2023.2.3,Win32,120.4819277,,,,,,,,,,,,1622.348,6.0,1622.3486,,,,1625.0673,1625.5691,1624.5623,1625.0672,1623.3555,323.0,1624.5622,1625.5691,1626.0692,1626.0693,1627.7059,1120.2,1627.706,2.0,1628.7006,6.0,16.0,196.0,27.0,1.0,1.2,0.7,Time
,,S15,555268,1,Female,26,anonymized,Serial_Dependence_U,2023.2.3,Win32,120.4819277,,,,,,,,,,,,1628.701,6.0,1628.7011,,,,1631.6152,1632.1156,1631.1097,1631.6151,1629.7038,111.0,1631.1097,1632.1156,1632.6154,1632.6155,1634.2514,1071.7,1634.2515,2.0,1635.2469,6.0,17.0,197.0,13.0,1.0,1.4,0.3,Time
,,S15,555268,1,Female,26,anonymized,Serial_Dependence_U,2023.2.3,Win32,120.4819277,,,,,,,,,,,,1635.2474,6.0,1635.2476,,,,1638.1682,1638.6704,1637.6559,1638.1682,1636.2532,38.0,1637.6558,1638.6705,1639.1696,1639.1697,1640.5965,868.7,1640.5966,1.0,1641.5936,6.0,18.0,198.0,3.0,1.0,1.4,0.3,Time
,,S15,555268,1,Female,26,anonymized,Serial_Dependence_U,2023.2.3,Win32,120.4819277,,,,,,,,,,,,1641.5943,6.0,1641.5947,,,,1643.9045,1644.4004,1643.4024,1643.9044,1642.5957,33.0,1643.4023,1644.4004,1644.9001,1644.9001,1646.1331,715.9,1646.1332,2.0,1647.1317,6.0,19.0,199.0,10.0,1.0,0.8,0.3,Time
,,S15,555268,1,Female,26,anonymized,Serial_Dependence_U,2023.2.3,Win32,120.4819277,,,,,,,,,,,,1647.1328,6.0,1647.1334,,,,1650.2543,1650.7549,1649.7493,1650.2542,1648.1405,75.0,1649.7492,1650.7549,1651.2544,1651.2544,1652.981,1233.1,1652.9811,2.0,1653.9781,6.0,20.0,200.0,4.0,1.0,1.6,0.3,Time
,,S15,555268,1,Female,26,anonymized,Serial_Dependence_U,2023.2.3,Win32,120.4819277,,,,,,,,,,,,1653.979,6.0,1653.9793,,,,1656.8947,1657.3925,1656.3863,1656.8946,1654.9806,103.0,1656.3862,1657.3926,1657.8926,1657.8926,1659.5907,1256.5,1659.5909,2.0,1660.591,6.0,21.0,201.0,18.0,1.0,1.4,0.7,Time
,,S15,555268,1,Female,26,anonymized,Serial_Dependence_U,2023.2.3,Win32,120.4819277,,,,,,,,,,,,1660.592,6.0,1660.5923,,,,1663.4986,1663.9974,1662.9978,1663.4986,1661.5946,264.0,1662.9977,1663.9974,1664.4972,1664.4972,1666.3776,1394.1,1666.3777,3.0,1667.3786,6.0,22.0,202.0,28.0,1.0,1.4,0.7,Time
,,S15,555268,1,Female,26,anonymized,Serial_Dependence_U,2023.2.3,Win32,120.4819277,,,,,,,,,,,,1667.3796,6.0,1667.38,,,,1670.285,1670.7848,1669.7842,1670.2849,1668.3796,224.0,1669.7841,1670.7848,1671.2844,1671.2845,1672.8261,1117.2,1672.8262,2.0,1673.8247,6.0,23.0,203.0,23.0,1.0,1.4,0.3,Time
,,S15,555268,1,Female,26,anonymized,Serial_Dependence_U,2023.2.3,Win32,120.4819277,,,,,,,,,,,,1673.8256,6.0,1673.8259,,,,1676.5407,1677.0399,1676.0349,1676.5407,1674.831,320.0,1676.0349,1677.0399,1677.5396,1677.5396,1679.2631,1222.5,1679.2633,3.0,1680.2634,6.0,24.0,204.0,12.0,1.0,1.2,0.3,Time
,,S15,555268,1,Female,26,anonymized,Serial_Dependence_U,2023.2.3,Win32,120.4819277,,,,,,,,,,,,1680.2644,6.0,1680.2649,,,,1682.7762,1683.2777,1682.2714,1682.7762,1681.2663,39.0,1682.2713,1683.2778,1683.7778,1683.7778,1686.3511,1121.6,1686.3512,4.0,1687.3503,6.0,25.0,205.0,26.0,1.0,1.0,0.7,Time
,,S15,555268,1,Female,26,anonymized,Serial_Dependence_U,2023.2.3,Win32,120.4819277,,,,,,,,,,,,1687.3516,6.0,1687.3522,,,,1690.0663,1690.5652,1689.5592,1690.0663,1688.3525,181.0,1689.5591,1690.5652,1691.0653,1691.0653,1693.5674,1424.4,1693.5675,4.0,1694.5632,6.0,26.0,206.0,7.0,1.0,1.2,0.7,Time
,,S15,555268,1,Female,26,anonymized,Serial_Dependence_U,2023.2.3,Win32,120.4819277,,,,,,,,,,,,1694.5637,6.0,1694.5643,,,,1697.085,1697.5865,1696.579,1697.0849,1695.5731,323.0,1696.579,1697.5865,1698.086,1698.0861,1699.5712,892.5,1699.5712,2.0,1700.5682,6.0,27.0,207.0,1.0,1.0,1.0,0.3,Time
,,S15,555268,1,Female,26,anonymized,Serial_Dependence_U,2023.2.3,Win32,120.4819277,,,,,,,,,,,,1700.5688,6.0,1700.5691,,,,1702.8868,1703.3831,1702.3818,1702.8868,1701.5697,53.0,1702.3818,1703.3831,1703.883,1703.8831,1705.901,1573.4,1705.9011,5.0,1706.8978,6.0,28.0,208.0,15.0,1.0,0.8,0.7,Time
,,S15,555268,1,Female,26,anonymized,Serial_Dependence_U,2023.2.3,Win32,120.4819277,,,,,,,,,,,,1706.8987,6.0,1706.8991,,,,1709.6083,1710.1043,1709.1035,1709.6083,1707.9009,331.0,1709.1034,1710.1043,1710.6038,1710.6038,1712.1735,997.8,1712.1735,2.0,1713.169,6.0,29.0,209.0,2.0,1.0,1.2,0.3,Time
,,S15,555268,1,Female,26,anonymized,Serial_Dependence_U,2023.2.3,Win32,120.4819277,,,,,,,,,,,,1713.1695,7.0,1719.2236,s,6.0284,,1721.9468,1722.4475,1721.4407,1721.9468,1720.2326,27.0,1721.4407,1722.4475,1722.9471,1722.9471,1724.489,1165.5,1724.4892,3.0,1725.4873,7.0,0.0,210.0,27.0,1.0,1.2,0.7,Time
,,S15,555268,1,Female,26,anonymized,Serial_Dependence_U,2023.2.3,Win32,120.4819277,,,,,,,,,,,,1725.4882,7.0,1725.4903,,,,1727.8008,1728.3023,1727.295,1727.8008,1726.4931,32.0,1727.2949,1728.3024,1728.802,1728.802,1730.0293,699.1,1730.0294,2.0,1731.0255,7.0,1.0,211.0,5.0,1.0,0.8,0.7,Time
,,S15,555268,1,Female,26,anonymized,Serial_Dependence_U,2023.2.3,Win32,120.4819277,,,,,,,,,,,,1731.0263,7.0,1731.0265,,,,1734.1555,1734.6568,1733.6439,1734.1555,1732.0336,133.0,1733.6438,1734.6568,1735.1562,1735.1563,1737.2047,1333.3,1737.2049,2.0,1738.2048,7.0,2.0,212.0,14.0,1.0,1.6,0.3,Time
,,S15,555268,1,Female,26,anonymized,Serial_Dependence_U,2023.2.3,Win32,120.4819277,,,,,,,,,,,,1738.2058,7.0,1738.2063,,,,1740.9233,1741.4195,1740.4145,1740.9232,1739.2061,1.0,1740.4143,1741.4195,1741.9194,1741.9196,1743.4381,1040.9,1743.4383,2.0,1744.4347,7.0,3.0,213.0,17.0,1.0,1.2,0.7,Time
,,S15,555268,1,Female,26,anonymized,Serial_Dependence_U,2023.2.3,Win32,120.4819277,,,,,,,,,,,,1744.4355,7.0,1744.4358,,,,1747.3488,1747.8489,1746.8446,1747.3487,1745.4366,108.0,1746.8445,1747.8489,1748.3492,1748.3492,1749.9013,1086.2,1749.9014,2.0,1750.8978,7.0,4.0,214.0,13.0,1.0,1.4,0.3,Time
,,S15,555268,1,Female,26,anonymized,Serial_Dependence_U,2023.2.3,Win32,120.4819277,,,,,,,,,,,,1750.8986,7.0,1750.8989,,,,1753.8189,1754.3208,1753.3093,1753.8189,1751.9058,245.0,1753.3093,1754.3208,1754.8205,1754.8205,1756.7703,1499.0,1756.7704,4.0,1757.7689,7.0,5.0,215.0,23.0,1.0,1.4,0.3,Time
,,S15,555268,1,Female,26,anonymized,Serial_Dependence_U,2023.2.3,Win32,120.4819277,,,,,,,,,,,,1757.7695,7.0,1757.77,,,,1760.0853,1760.5838,1759.5825,1760.0853,1758.7747,290.0,1759.5825,1760.5838,1761.0835,1761.0835,1762.907,1194.2,1762.9071,5.0,1763.9067,7.0,6.0,216.0,25.0,1.0,0.8,0.7,Time
,,S15,555268,1,Female,26,anonymized,Serial_Dependence_U,2023.2.3,Win32,120.4819277,,,,,,,,,,,,1763.9074,7.0,1763.9082,,,,1767.0204,1767.5213,1766.512,1767.0203,1764.909,291.0,1766.5119,1767.5213,1768.0209,1768.021,1769.4644,976.0,1769.4644,1.0,1770.4615,7.0,7.0,217.0,29.0,1.0,1.6,0.7,Time
,,S15,555268,1,Female,26,anonymized,Serial_Dependence_U,2023.2.3,Win32,120.4819277,,,,,,,,,,,,1770.4628,7.0,1770.4633,,,,1773.571,1774.0678,1773.0682,1773.5709,1771.4641,345.0,1773.0681,1774.0678,1774.5676,1774.5676,1776.912,1670.4,1776.9121,3.0,1777.9073,7.0,8.0,218.0,4.0,1.0,1.6,0.3,Time
,,S15,555268,1,Female,26,anonymized,Serial_Dependence_U,2023.2.3,Win32,120.4819277,,,,,,,,,,,,1777.9083,7.0,1777.9092,,,,1780.4219,1780.9219,1779.9215,1780.4219,1778.9156,73.0,1779.9215,1780.9219,1781.422,1781.422,1783.2805,1191.5,1783.2807,4.0,1784.2787,7.0,9.0,219.0,26.0,1.0,1.0,0.7,Time
,,S15,555268,1,Female,26,anonymized,Serial_Dependence_U,2023.2.3,Win32,120.4819277,,,,,,,,,,,,1784.2795,7.0,1784.2799,,,,1786.8004,1787.3017,1786.2964,1786.8004,1785.2877,39.0,1786.2964,1787.3017,1787.8016,1787.8016,1789.3964,1078.7,1789.3965,4.0,1790.3919,7.0,10.0,220.0,1.0,1.0,1.0,0.3,Time
,,S15,555268,1,Female,26,anonymized,Serial_Dependence_U,2023.2.3,Win32,120.4819277,,,,,,,,,,,,1790.3924,7.0,1790.3926,,,,1792.7224,1793.2232,1792.2098,1792.7224,1791.4009,80.0,1792.2098,1793.2233,1793.7232,1793.7234,1794.6174,696.6,1794.6175,2.0,1795.6139,7.0,11.0,221.0,20.0,1.0,0.8,0.3,Time
,,S15,555268,1,Female,26,anonymized,Serial_Dependence_U,2023.2.3,Win32,120.4819277,,,,,,,,,,,,1795.6145,7.0,1795.6147,,,,1798.7244,1799.2198,1798.221,1798.7243,1796.6158,147.0,1798.221,1799.2199,1799.7199,1799.7199,1801.7441,1389.1,1801.7441,2.0,1802.7432,7.0,12.0,222.0,9.0,1.0,1.6,0.7,Time
,,S15,555268,1,Female,26,anonymized,Serial_Dependence_U,2023.2.3,Win32,120.4819277,,,,,,,,,,,,1802.7442,7.0,1802.7445,,,,1805.4603,1805.9577,1804.9529,1805.4603,1803.7521,125.0,1804.9529,1805.9577,1806.4576,1806.4576,1808.5809,1579.8,1808.5809,5.0,1809.5808,7.0,13.0,223.0,2.0,1.0,1.2,0.3,Time
,,S15,555268,1,Female,26,anonymized,Serial_Dependence_U,2023.2.3,Win32,120.4819277,,,,,,,,,,,,1809.5817,7.0,1809.582,,,,1812.5035,1813.0038,1811.9943,1812.5035,1810.5825,143.0,1811.9943,1813.0038,1813.5039,1813.5039,1815.0206,989.4,1815.0207,2.0,1816.0189,7.0,14.0,224.0,3.0,1.0,1.4,0.3,Time
,,S15,555268,1,Female,26,anonymized,Serial_Dependence_U,2023.2.3,Win32,120.4819277,,,,,,,,,,,,1816.0198,7.0,1816.0202,,,,1818.9353,1819.4336,1818.4264,1818.9352,1817.0212,46.0,1818.4264,1819.4336,1819.9332,1819.9332,1821.6439,1219.1,1821.644,2.0,1822.6401,7.0,15.0,225.0,28.0,1.0,1.4,0.7,Time
,,S15,555268,1,Female,26,anonymized,Serial_Dependence_U,2023.2.3,Win32,120.4819277,,,,,,,,,,,,1822.6408,7.0,1822.6412,,,,1825.174,1825.6719,1824.6658,1825.174,1823.6601,218.0,1824.6657,1825.6719,1826.1712,1826.1713,1828.0425,1460.7,1828.0426,5.0,1829.0365,7.0,16.0,226.0,16.0,1.0,1.0,0.7,Time
,,S15,555268,1,Female,26,anonymized,Serial_Dependence_U,2023.2.3,Win32,120.4819277,,,,,,,,,,,,1829.0371,7.0,1829.0375,,,,1831.3553,1831.8516,1830.846,1831.3553,1830.043,35.0,1830.846,1831.8516,1832.3512,1832.3512,1834.2029,1275.8,1834.203,5.0,1835.1992,7.0,17.0,227.0,15.0,1.0,0.8,0.7,Time
,,S15,555268,1,Female,26,anonymized,Serial_Dependence_U,2023.2.3,Win32,120.4819277,,,,,,,,,,,,1835.2005,7.0,1835.201,,,,1838.1052,1838.6059,1837.6045,1838.1052,1836.2019,102.0,1837.6045,1838.6059,1839.1056,1839.1056,1841.0294,1320.0,1841.0296,2.0,1842.0291,7.0,18.0,228.0,8.0,1.0,1.4,0.7,Time
,,S15,555268,1,Female,26,anonymized,Serial_Dependence_U,2023.2.3,Win32,120.4819277,,,,,,,,,,,,1842.0301,7.0,1842.0305,,,,1844.9508,1845.452,1844.4467,1844.9507,1843.0387,327.0,1844.4466,1845.452,1845.9516,1845.9516,1847.9386,1524.8,1847.9386,4.0,1848.9335,7.0,19.0,229.0,18.0,1.0,1.4,0.7,Time
,,S15,555268,1,Female,26,anonymized,Serial_Dependence_U,2023.2.3,Win32,120.4819277,,,,,,,,,,,,1848.934,7.0,1848.9341,,,,1851.4437,1851.9399,1850.9394,1851.4435,1849.935,180.0,1850.9393,1851.9399,1852.4398,1852.4398,1854.168,845.2,1854.1681,2.0,1855.1627,7.0,20.0,230.0,6.0,1.0,1.0,0.7,Time
,,S15,555268,1,Female,26,anonymized,Serial_Dependence_U,2023.2.3,Win32,120.4819277,,,,,,,,,,,,1855.1634,7.0,1855.1641,,,,1857.4846,1857.9865,1856.98,1857.4846,1856.1705,53.0,1856.9799,1857.9865,1858.4861,1858.4861,1860.6459,1739.8,1860.646,5.0,1861.643,7.0,21.0,231.0,0.0,1.0,0.8,0.3,Time
,,S15,555268,1,Female,26,anonymized,Serial_Dependence_U,2023.2.3,Win32,120.4819277,,,,,,,,,,,,1861.6434,7.0,1861.6437,,,,1864.3588,1864.8576,1863.8517,1864.3587,1862.6455,358.0,1863.8516,1864.8576,1865.3571,1865.3572,1867.1967,1398.8,1867.1969,4.0,1868.1972,7.0,22.0,232.0,12.0,1.0,1.2,0.3,Time
,,S15,555268,1,Female,26,anonymized,Serial_Dependence_U,2023.2.3,Win32,120.4819277,,,,,,,,,,,,1868.1986,7.0,1868.1994,,,,1871.3126,1871.8116,1870.8024,1871.3126,1869.2016,349.0,1870.8024,1871.8116,1872.3118,1872.3118,1874.1856,1531.2,1874.1857,3.0,1875.1847,7.0,23.0,233.0,24.0,1.0,1.6,0.3,Time
,,S15,555268,1,Female,26,anonymized,Serial_Dependence_U,2023.2.3,Win32,120.4819277,,,,,,,,,,,,1875.1857,7.0,1875.1862,,,,1878.2935,1878.7914,1877.7928,1878.2934,1876.1919,35.0,1877.7927,1878.7915,1879.2907,1879.2907,1880.9295,1276.4,1880.9296,2.0,1881.9312,7.0,24.0,234.0,19.0,1.0,1.6,0.7,Time
,,S15,555268,1,Female,26,anonymized,Serial_Dependence_U,2023.2.3,Win32,120.4819277,,,,,,,,,,,,1881.932,7.0,1881.9323,,,,1884.6413,1885.1375,1884.1401,1884.6412,1882.9336,127.0,1884.14,1885.1375,1885.6372,1885.6372,1887.5879,1467.5,1887.588,4.0,1888.5857,7.0,25.0,235.0,22.0,1.0,1.2,0.3,Time
,,S15,555268,1,Female,26,anonymized,Serial_Dependence_U,2023.2.3,Win32,120.4819277,,,,,,,,,,,,1888.5865,7.0,1888.5869,,,,1891.1078,1891.609,1890.6028,1891.1077,1889.5943,212.0,1890.6027,1891.609,1892.1087,1892.1087,1894.8111,1534.1,1894.8113,5.0,1895.8063,7.0,26.0,236.0,21.0,1.0,1.0,0.3,Time
,,S15,555268,1,Female,26,anonymized,Serial_Dependence_U,2023.2.3,Win32,120.4819277,,,,,,,,,,,,1895.8069,7.0,1895.8073,,,,1898.3312,1898.8296,1897.8232,1898.3312,1896.8154,158.0,1897.8231,1898.8296,1899.3292,1899.3292,1900.7594,926.3,1900.7595,2.0,1901.7616,7.0,27.0,237.0,11.0,1.0,1.0,0.3,Time
,,S15,555268,1,Female,26,anonymized,Serial_Dependence_U,2023.2.3,Win32,120.4819277,,,,,,,,,,,,1901.7621,7.0,1901.7623,,,,1904.476,1904.9764,1903.9679,1904.4758,1902.7632,3.0,1903.9679,1904.9764,1905.4763,1905.4763,1907.1628,1362.6,1907.1629,4.0,1908.158,7.0,28.0,238.0,7.0,1.0,1.2,0.7,Time
,,S15,555268,1,Female,26,anonymized,Serial_Dependence_U,2023.2.3,Win32,120.4819277,,,,,,,,,,,,1908.1589,7.0,1908.1592,,,,1910.4748,1910.9731,1909.9669,1910.4748,1909.166,102.0,1909.9668,1910.9731,1911.4727,1911.4727,1913.5483,1942.9,1913.5484,5.0,1914.5459,7.0,29.0,239.0,10.0,1.0,0.8,0.3,Time
,,S15,555268,1,Female,26,anonymized,Serial_Dependence_U,2023.2.3,Win32,120.4819277,,,,,,,,,,,,1914.5468,8.0,1916.4946,s,1.9325,,1918.8135,1919.3097,1918.305,1918.8135,1917.5019,117.0,1918.3049,1919.3098,1919.8096,1919.8096,1921.1365,874.7,1921.1367,4.0,1922.1332,8.0,0.0,240.0,25.0,1.0,0.8,0.7,Time
,,S15,555268,1,Female,26,anonymized,Serial_Dependence_U,2023.2.3,Win32,120.4819277,,,,,,,,,,,,1922.134,8.0,1922.1362,,,,1924.8523,1925.3477,1924.3465,1924.8522,1923.1359,94.0,1924.3464,1925.3477,1925.8422,1925.8423,1927.4037,1055.0,1927.4039,2.0,1928.4043,8.0,1.0,241.0,12.0,1.0,1.2,0.3,Time
,,S15,555268,1,Female,26,anonymized,Serial_Dependence_U,2023.2.3,Win32,120.4819277,,,,,,,,,,,,1928.4046,8.0,1928.4049,,,,1930.9287,1931.4279,1930.4206,1930.9287,1929.4109,247.0,1930.4206,1931.4279,1931.9276,1931.9277,1933.3154,951.8,1933.3155,3.0,1934.3096,8.0,2.0,242.0,16.0,1.0,1.0,0.7,Time
,,S15,555268,1,Female,26,anonymized,Serial_Dependence_U,2023.2.3,Win32,120.4819277,,,,,,,,,,,,1934.3104,8.0,1934.3108,,,,1937.4245,1937.9237,1936.9227,1937.4245,1935.319,218.0,1936.9226,1937.9237,1938.424,1938.424,1940.8706,1730.3,1940.8707,4.0,1941.8719,8.0,3.0,243.0,19.0,1.0,1.6,0.7,Time
,,S15,555268,1,Female,26,anonymized,Serial_Dependence_U,2023.2.3,Win32,120.4819277,,,,,,,,,,,,1941.8729,8.0,1941.8732,,,,1944.3892,1944.887,1943.8811,1944.3892,1942.8791,276.0,1943.8811,1944.887,1945.3865,1945.3866,1947.9803,1996.3,1947.9804,5.0,1948.9763,8.0,4.0,244.0,1.0,1.0,1.0,0.3,Time
,,S15,555268,1,Female,26,anonymized,Serial_Dependence_U,2023.2.3,Win32,120.4819277,,,,,,,,,,,,1948.9773,8.0,1948.9776,,,,1951.4931,1951.9914,1950.9843,1951.4931,1949.9836,48.0,1950.9842,1951.9914,1952.4909,1952.491,1955.0244,1864.2,1955.0244,5.0,1956.0219,8.0,5.0,245.0,6.0,1.0,1.0,0.7,Time
,,S15,555268,1,Female,26,anonymized,Serial_Dependence_U,2023.2.3,Win32,120.4819277,,,,,,,,,,,,1956.0229,8.0,1956.0231,,,,1959.1476,1959.645,1958.6383,1959.1476,1957.0297,284.0,1958.6383,1959.6451,1960.1447,1960.1448,1961.7101,1213.5,1961.7102,2.0,1962.7101,8.0,6.0,246.0,4.0,1.0,1.6,0.3,Time
,,S15,555268,1,Female,26,anonymized,Serial_Dependence_U,2023.2.3,Win32,120.4819277,,,,,,,,,,,,1962.7104,8.0,1962.711,,,,1965.2355,1965.7334,1964.7279,1965.2354,1963.7201,354.0,1964.7279,1965.7334,1966.2332,1966.2332,1967.9818,1270.4,1967.9819,4.0,1968.9816,8.0,7.0,247.0,11.0,1.0,1.0,0.3,Time
,,S15,555268,1,Female,26,anonymized,Serial_Dependence_U,2023.2.3,Win32,120.4819277,,,,,,,,,,,,1968.982,8.0,1968.9822,,,,1971.6946,1972.1963,1971.1915,1971.6946,1969.9874,71.0,1971.1915,1972.1963,1972.6961,1972.6961,1974.9985,1864.6,1974.9987,5.0,1975.9938,8.0,8.0,248.0,2.0,1.0,1.2,0.3,Time
,,S15,555268,1,Female,26,anonymized,Serial_Dependence_U,2023.2.3,Win32,120.4819277,,,,,,,,,,,,1975.9946,8.0,1975.9948,,,,1978.7053,1979.2003,1978.2014,1978.7052,1976.9997,139.0,1978.2013,1979.2004,1979.7003,1979.7004,1981.2849,1166.2,1981.285,3.0,1982.2822,8.0,9.0,249.0,22.0,1.0,1.2,0.3,Time
,,S15,555268,1,Female,26,anonymized,Serial_Dependence_U,2023.2.3,Win32,120.4819277,,,,,,,,,,,,1982.2831,8.0,1982.2834,,,,1985.1986,1985.6969,1984.6921,1985.1985,1983.2879,330.0,1984.6921,1985.6969,1986.1966,1986.1967,1987.856,1243.1,1987.8562,2.0,1988.8534,8.0,10.0,250.0,23.0,1.0,1.4,0.3,Time
,,S15,555268,1,Female,26,anonymized,Serial_Dependence_U,2023.2.3,Win32,120.4819277,,,,,,,,,,,,1988.8539,8.0,1988.854,,,,1991.5766,1992.0767,1991.0684,1991.5765,1989.8594,77.0,1991.0683,1992.0767,1992.5761,1992.5762,1994.0614,1424.4,1994.0615,4.0,1995.0585,8.0,11.0,251.0,17.0,1.0,1.2,0.7,Time
,,S15,555268,1,Female,26,anonymized,Serial_Dependence_U,2023.2.3,Win32,120.4819277,,,,,,,,,,,,1995.0589,8.0,1995.059,,,,1997.785,1998.2815,1997.2757,1997.7849,1996.0652,152.0,1997.2756,1998.2815,1998.7811,1998.7812,2000.5742,1280.2,2000.5747,4.0,2001.5712,8.0,12.0,252.0,27.0,1.0,1.2,0.7,Time
,,S15,555268,1,Female,26,anonymized,Serial_Dependence_U,2023.2.3,Win32,120.4819277,,,,,,,,,,,,2001.5721,8.0,2001.5725,,,,2004.6949,2005.1939,2004.1853,2004.6948,2002.5809,97.0,2004.1853,2005.1939,2005.6938,2005.6938,2008.037,1848.9,2008.0371,4.0,2009.0336,8.0,13.0,253.0,29.0,1.0,1.6,0.7,Time
,,S15,555268,1,Female,26,anonymized,Serial_Dependence_U,2023.2.3,Win32,120.4819277,,,,,,,,,,,,2009.0344,8.0,2009.0348,,,,2011.9509,2012.4482,2011.4472,2011.9508,2010.0401,352.0,2011.4472,2012.4482,2012.9481,2012.9481,2014.8748,1352.8,2014.875,3.0,2015.8712,8.0,14.0,254.0,13.0,1.0,1.4,0.3,Time
,,S15,555268,1,Female,26,anonymized,Serial_Dependence_U,2023.2.3,Win32,120.4819277,,,,,,,,,,,,2015.8721,8.0,2015.8725,,,,2018.9816,2019.4776,2018.4772,2018.9816,2016.872,203.0,2018.4772,2019.4776,2019.9773,2019.9773,2022.3582,1523.7,2022.3584,3.0,2023.3585,8.0,15.0,255.0,14.0,1.0,1.6,0.3,Time
,,S15,555268,1,Female,26,anonymized,Serial_Dependence_U,2023.2.3,Win32,120.4819277,,,,,,,,,,,,2023.3605,8.0,2023.3609,,,,2026.4742,2026.9734,2025.9684,2026.4742,2024.3611,326.0,2025.9683,2026.9734,2027.4731,2027.4731,2029.8979,1533.2,2029.898,3.0,2030.8957,8.0,16.0,256.0,24.0,1.0,1.6,0.3,Time
,,S15,555268,1,Female,26,anonymized,Serial_Dependence_U,2023.2.3,Win32,120.4819277,,,,,,,,,,,,2030.8962,8.0,2030.8966,,,,2033.206,2033.7024,2032.7013,2033.2059,2031.8993,17.0,2032.7013,2033.7024,2034.2025,2034.2026,2035.8344,837.8,2035.8344,3.0,2036.8344,8.0,17.0,257.0,5.0,1.0,0.8,0.7,Time
,,S15,555268,1,Female,26,anonymized,Serial_Dependence_U,2023.2.3,Win32,120.4819277,,,,,,,,,,,,2036.8353,8.0,2036.8357,,,,2039.3606,2039.8577,2038.8521,2039.3606,2037.8426,292.0,2038.852,2039.8577,2040.3575,2040.3575,2041.6237,1213.9,2041.6238,4.0,2042.6229,8.0,18.0,258.0,21.0,1.0,1.0,0.3,Time
,,S15,555268,1,Female,26,anonymized,Serial_Dependence_U,2023.2.3,Win32,120.4819277,,,,,,,,,,,,2042.6234,8.0,2042.6235,,,,2045.3446,2045.8429,2044.8401,2045.3446,2043.6308,312.0,2044.8401,2045.8429,2046.3423,2046.3424,2047.8305,1368.8,2047.8306,4.0,2048.8276,8.0,19.0,259.0,7.0,1.0,1.2,0.7,Time
,,S15,555268,1,Female,26,anonymized,Serial_Dependence_U,2023.2.3,Win32,120.4819277,,,,,,,,,,,,2048.8284,8.0,2048.8287,,,,2051.7408,2052.2422,2051.2361,2051.7407,2049.8346,204.0,2051.2361,2052.2422,2052.7418,2052.7418,2054.8746,1596.6,2054.8747,4.0,2055.8735,8.0,20.0,260.0,8.0,1.0,1.4,0.7,Time
,,S15,555268,1,Female,26,anonymized,Serial_Dependence_U,2023.2.3,Win32,120.4819277,,,,,,,,,,,,2055.8744,8.0,2055.8747,,,,2058.7908,2059.2878,2058.2827,2058.7908,2056.8742,313.0,2058.2827,2059.2878,2059.7879,2059.788,2061.6949,1225.8,2061.695,2.0,2062.6946,8.0,21.0,261.0,18.0,1.0,1.4,0.7,Time
,,S15,555268,1,Female,26,anonymized,Serial_Dependence_U,2023.2.3,Win32,120.4819277,,,,,,,,,,,,2062.6954,8.0,2062.6958,,,,2065.8096,2066.3092,2065.3074,2065.8096,2063.7005,319.0,2065.3074,2066.3092,2066.8089,2066.8089,2069.1031,1825.6,2069.1032,4.0,2070.0987,8.0,22.0,262.0,9.0,1.0,1.6,0.7,Time
,,S15,555268,1,Female,26,anonymized,Serial_Dependence_U,2023.2.3,Win32,120.4819277,,,,,,,,,,,,2070.0996,8.0,2070.1,,,,2072.4218,2072.9217,2071.9123,2072.4217,2071.1073,30.0,2071.9122,2072.9217,2073.4214,2073.4214,2074.7221,772.2,2074.7222,3.0,2075.7205,8.0,23.0,263.0,0.0,1.0,0.8,0.3,Time
,,S15,555268,1,Female,26,anonymized,Serial_Dependence_U,2023.2.3,Win32,120.4819277,,,,,,,,,,,,2075.7214,8.0,2075.7218,,,,2078.6419,2079.1431,2078.1345,2078.6419,2076.729,101.0,2078.1344,2079.1433,2079.6431,2079.6432,2082.7896,1378.0,2082.7897,3.0,2083.7908,8.0,24.0,264.0,28.0,1.0,1.4,0.7,Time
,,S15,555268,1,Female,26,anonymized,Serial_Dependence_U,2023.2.3,Win32,120.4819277,,,,,,,,,,,,2083.7918,8.0,2083.7924,,,,2086.3063,2086.8058,2085.8045,2086.3063,2084.7999,151.0,2085.8044,2086.8058,2087.3052,2087.3052,2090.6193,1399.9,2090.6194,5.0,2091.6198,8.0,25.0,265.0,26.0,1.0,1.0,0.7,Time
,,S15,555268,1,Female,26,anonymized,Serial_Dependence_U,2023.2.3,Win32,120.4819277,,,,,,,,,,,,2091.6202,8.0,2091.6204,,,,2093.9334,2094.4346,2093.4297,2093.9334,2092.6214,127.0,2093.4295,2094.4346,2094.9346,2094.9346,2096.4614,171.4,2096.4616,1.0,2097.4579,8.0,26.0,266.0,20.0,1.0,0.8,0.3,Time
,,S15,555268,1,Female,26,anonymized,Serial_Dependence_U,2023.2.3,Win32,120.4819277,,,,,,,,,,,,2097.459,8.0,2097.4595,,,,2100.3772,2100.8728,2099.868,2100.3772,2098.4591,34.0,2099.868,2100.8728,2101.3721,2101.3721,2102.9918,1042.5,2102.9919,2.0,2103.9877,8.0,27.0,267.0,3.0,1.0,1.4,0.3,Time
,,S15,555268,1,Female,26,anonymized,Serial_Dependence_U,2023.2.3,Win32,120.4819277,,,,,,,,,,,,2103.9885,8.0,2103.9889,,,,2106.303,2106.8026,2105.7981,2106.303,2104.9946,289.0,2105.7981,2106.8026,2107.3022,2107.3023,2108.8351,1017.9,2108.8352,4.0,2109.8343,8.0,28.0,268.0,10.0,1.0,0.8,0.3,Time
,,S15,555268,1,Female,26,anonymized,Serial_Dependence_U,2023.2.3,Win32,120.4819277,,,,,,,,,,,,2109.8349,8.0,2109.8353,,,,2112.1508,2112.6495,2111.6455,2112.1508,2110.8423,70.0,2111.6453,2112.6495,2113.149,2113.1491,2115.1854,1541.0,2115.1857,5.0,2116.1808,8.0,29.0,269.0,15.0,1.0,0.8,0.7,Time
