Scale_setup.started,Scale_setup.stopped,participant,expid,session,sex,age,date,expName,psychopyVersion,OS,frameRate,PROLIFIC_PID,STUDY_ID,SESSION_ID,screen_scale_keys.started,screen_scale_keys.stopped,X Scale,Y Scale,rectangel_keys.started,rectangel_keys.stopped,Intro.started,Intro.stopped,key_resp_2.keys,key_resp_2.rt,key_resp_2.duration,block.started,Block_id,block.stopped,Block_resp_2.keys,Block_resp_2.rt,Block_resp_2.duration,ITI.started,ITI.stopped,Mask_2.started,Mask_2.stopped,M2.started,direction,M2.stopped,Cue.started,Cue.stopped,Response.started,Response.stopped,keyDuration,Feedback_Time.started,FeedbackID_T,Feedback_Time.stopped,trials.thisRepN,trials.thisTrialN,trials.thisN,trials.thisIndex,trials.ran,TimeDur,Coherence1,TrialType
1E-04,0.0003,S16,611856,001,Female,30,2025-05-21_20h44.20.780,Serial_Dependence_U,2023.2.3,Win32,59.88023952,6599bf63f1a902105cb4f395,682cd3dfea4e15896da7c0a6,682dad9203229cb8b0066756,,,,,,,,,,,,,,,,,,,,,,,,,,,,,,,,,,,,,,,,
,,S16,611856,001,Female,30,2025-05-21_20h44.20.780,Serial_Dependence_U,2023.2.3,Win32,59.88023952,6599bf63f1a902105cb4f395,682cd3dfea4e15896da7c0a6,682dad9203229cb8b0066756,0.0013,62.6556,0.0257,0.0265,62.6556,92.9226,92.9227,115.7063,space,22.7556,,,,,,,,,,,,,,,,,,,,,,,,,,,,,,
,,S16,611856,001,Female,30,2025-05-21_20h44.20.780,Serial_Dependence_U,2023.2.3,Win32,59.88023952,6599bf63f1a902105cb4f395,682cd3dfea4e15896da7c0a6,682dad9203229cb8b0066756,,,,,,,,,,,,115.71,0,122.5897,s,6.8456,,125.7398,126.2396,125.2233,125.7398,123.6067,47,125.2232,126.2397,126.7396,126.7397,129.0734,1574.4,129.0736,3,130.073,0,0,0,4,1,1.6,0.3,Time
,,S16,611856,001,Female,30,2025-05-21_20h44.20.780,Serial_Dependence_U,2023.2.3,Win32,59.88023952,6599bf63f1a902105cb4f395,682cd3dfea4e15896da7c0a6,682dad9203229cb8b0066756,,,,,,,,,,,,130.0733,0,130.0742,,,,132.6232,133.123,132.1065,132.6232,131.0925,245,132.1064,133.123,133.623,133.623,135.2065,862.1,135.2065,2,136.2064,0,1,1,16,1,1,0.7,Time
,,S16,611856,001,Female,30,2025-05-21_20h44.20.780,Serial_Dependence_U,2023.2.3,Win32,59.88023952,6599bf63f1a902105cb4f395,682cd3dfea4e15896da7c0a6,682dad9203229cb8b0066756,,,,,,,,,,,,136.2067,0,136.2068,,,,138.5566,139.0563,138.0399,138.5566,137.2232,169,138.0399,139.0564,139.5563,139.5565,141.1899,956.7,141.1901,4,142.1897,0,2,2,0,1,0.8,0.3,Time
,,S16,611856,001,Female,30,2025-05-21_20h44.20.780,Serial_Dependence_U,2023.2.3,Win32,59.88023952,6599bf63f1a902105cb4f395,682cd3dfea4e15896da7c0a6,682dad9203229cb8b0066756,,,,,,,,,,,,142.1899,0,142.19,,,,144.94,145.4398,144.4234,144.9399,143.2068,342,144.4234,145.4398,145.9399,145.94,147.59,1029.9,147.59,2,148.5898,0,3,3,17,1,1.2,0.7,Time
,,S16,611856,001,Female,30,2025-05-21_20h44.20.780,Serial_Dependence_U,2023.2.3,Win32,59.88023952,6599bf63f1a902105cb4f395,682cd3dfea4e15896da7c0a6,682dad9203229cb8b0066756,,,,,,,,,,,,148.59,0,148.59,,,,151.5236,152.0232,151.0083,151.5235,149.6067,66,151.0083,152.0232,152.5233,152.5233,154.0233,1213.5,154.0234,2,155.0233,0,4,4,13,1,1.4,0.3,Time
,,S16,611856,001,Female,30,2025-05-21_20h44.20.780,Serial_Dependence_U,2023.2.3,Win32,59.88023952,6599bf63f1a902105cb4f395,682cd3dfea4e15896da7c0a6,682dad9203229cb8b0066756,,,,,,,,,,,,155.0235,0,155.0235,,,,157.7568,158.2566,157.2401,157.7568,156.0235,65,157.2401,158.2567,158.7567,158.7567,160.2902,1228.6,160.2902,3,161.2901,0,5,5,7,1,1.2,0.7,Time
,,S16,611856,001,Female,30,2025-05-21_20h44.20.780,Serial_Dependence_U,2023.2.3,Win32,59.88023952,6599bf63f1a902105cb4f395,682cd3dfea4e15896da7c0a6,682dad9203229cb8b0066756,,,,,,,,,,,,161.2903,0,161.2905,,,,164.0403,164.5401,163.5236,164.0402,162.3069,32,163.5234,164.5401,165.04,165.0401,166.5069,1196.1,166.5071,3,167.5067,0,6,6,2,1,1.2,0.3,Time
,,S16,611856,001,Female,30,2025-05-21_20h44.20.780,Serial_Dependence_U,2023.2.3,Win32,59.88023952,6599bf63f1a902105cb4f395,682cd3dfea4e15896da7c0a6,682dad9203229cb8b0066756,,,,,,,,,,,,167.507,0,167.5072,,,,170.657,171.1568,170.1404,170.657,168.5236,233,170.1403,171.1568,171.6568,171.6568,173.407,1487.9,173.407,2,174.4068,0,7,7,29,1,1.6,0.7,Time
,,S16,611856,001,Female,30,2025-05-21_20h44.20.780,Serial_Dependence_U,2023.2.3,Win32,59.88023952,6599bf63f1a902105cb4f395,682cd3dfea4e15896da7c0a6,682dad9203229cb8b0066756,,,,,,,,,,,,174.4071,0,174.4071,,,,177.3571,177.8568,176.8404,177.3571,175.4238,287,176.8403,177.8568,178.3569,178.3569,180.1404,1177.5,180.1406,2,181.1402,0,8,8,3,1,1.4,0.3,Time
,,S16,611856,001,Female,30,2025-05-21_20h44.20.780,Serial_Dependence_U,2023.2.3,Win32,59.88023952,6599bf63f1a902105cb4f395,682cd3dfea4e15896da7c0a6,682dad9203229cb8b0066756,,,,,,,,,,,,181.1404,0,181.1406,,,,183.8905,184.3903,183.3739,183.8905,182.1572,180,183.3738,184.3903,184.8904,184.8904,186.7071,1363.8,186.7072,4,187.707,0,9,9,12,1,1.2,0.3,Time
,,S16,611856,001,Female,30,2025-05-21_20h44.20.780,Serial_Dependence_U,2023.2.3,Win32,59.88023952,6599bf63f1a902105cb4f395,682cd3dfea4e15896da7c0a6,682dad9203229cb8b0066756,,,,,,,,,,,,187.7072,0,187.7073,,,,190.8573,191.3571,190.3405,190.8573,188.7239,47,190.3405,191.3571,191.8571,191.8571,192.3238,117,192.3239,1,193.3238,0,10,10,19,1,1.6,0.7,Time
,,S16,611856,001,Female,30,2025-05-21_20h44.20.780,Serial_Dependence_U,2023.2.3,Win32,59.88023952,6599bf63f1a902105cb4f395,682cd3dfea4e15896da7c0a6,682dad9203229cb8b0066756,,,,,,,,,,,,193.3239,0,193.324,,,,196.274,196.7739,195.7574,196.2739,194.3406,316,195.7572,196.7739,197.2737,197.2738,199.1406,1394.9,199.1407,3,200.1407,0,11,11,8,1,1.4,0.7,Time
,,S16,611856,001,Female,30,2025-05-21_20h44.20.780,Serial_Dependence_U,2023.2.3,Win32,59.88023952,6599bf63f1a902105cb4f395,682cd3dfea4e15896da7c0a6,682dad9203229cb8b0066756,,,,,,,,,,,,200.1408,0,200.1409,,,,203.2908,203.7906,202.7741,203.2908,201.1573,82,202.7741,203.7907,204.2906,204.2906,206.2074,1462,206.2074,2,207.2072,0,12,12,24,1,1.6,0.3,Time
,,S16,611856,001,Female,30,2025-05-21_20h44.20.780,Serial_Dependence_U,2023.2.3,Win32,59.88023952,6599bf63f1a902105cb4f395,682cd3dfea4e15896da7c0a6,682dad9203229cb8b0066756,,,,,,,,,,,,207.2074,0,207.2076,,,,209.7574,210.2573,209.2408,209.7573,208.2241,265,209.2408,210.2573,210.7574,210.7574,212.3074,1142.8,212.3075,4,213.3074,0,13,13,26,1,1,0.7,Time
,,S16,611856,001,Female,30,2025-05-21_20h44.20.780,Serial_Dependence_U,2023.2.3,Win32,59.88023952,6599bf63f1a902105cb4f395,682cd3dfea4e15896da7c0a6,682dad9203229cb8b0066756,,,,,,,,,,,,213.3077,0,213.3078,,,,215.8575,216.3574,215.3409,215.8575,214.3242,79,215.3408,216.3574,216.8573,216.8574,218.2741,1050.5,218.2742,4,219.2741,0,14,14,6,1,1,0.7,Time
,,S16,611856,001,Female,30,2025-05-21_20h44.20.780,Serial_Dependence_U,2023.2.3,Win32,59.88023952,6599bf63f1a902105cb4f395,682cd3dfea4e15896da7c0a6,682dad9203229cb8b0066756,,,,,,,,,,,,219.2744,0,219.2745,,,,221.6244,222.1241,221.1076,221.6243,220.2909,44,221.1075,222.1241,222.6241,222.6241,223.5743,586.8,223.5743,2,224.5741,0,15,15,15,1,0.8,0.7,Time
,,S16,611856,001,Female,30,2025-05-21_20h44.20.780,Serial_Dependence_U,2023.2.3,Win32,59.88023952,6599bf63f1a902105cb4f395,682cd3dfea4e15896da7c0a6,682dad9203229cb8b0066756,,,,,,,,,,,,224.5743,0,224.5744,,,,227.1244,227.6242,226.6077,227.1243,225.591,34,226.6076,227.6242,228.1242,228.1243,229.5743,1010.6,229.5744,3,230.5742,0,16,16,1,1,1,0.3,Time
,,S16,611856,001,Female,30,2025-05-21_20h44.20.780,Serial_Dependence_U,2023.2.3,Win32,59.88023952,6599bf63f1a902105cb4f395,682cd3dfea4e15896da7c0a6,682dad9203229cb8b0066756,,,,,,,,,,,,230.5744,0,230.5744,,,,232.9245,233.4243,232.4077,232.9244,231.5911,122,232.4077,233.4243,233.9243,233.9243,235.1077,810.8,235.1077,3,236.1077,0,17,17,20,1,0.8,0.3,Time
,,S16,611856,001,Female,30,2025-05-21_20h44.20.780,Serial_Dependence_U,2023.2.3,Win32,59.88023952,6599bf63f1a902105cb4f395,682cd3dfea4e15896da7c0a6,682dad9203229cb8b0066756,,,,,,,,,,,,236.108,0,236.108,,,,239.0412,239.541,238.5245,239.0412,237.1078,299,238.5244,239.541,240.041,240.041,241.9245,1496.4,241.9247,4,242.9245,0,18,18,23,1,1.4,0.3,Time
,,S16,611856,001,Female,30,2025-05-21_20h44.20.780,Serial_Dependence_U,2023.2.3,Win32,59.88023952,6599bf63f1a902105cb4f395,682cd3dfea4e15896da7c0a6,682dad9203229cb8b0066756,,,,,,,,,,,,242.9246,0,242.9246,,,,245.4746,245.9744,244.9579,245.4746,243.9412,319,244.9579,245.9744,246.4745,246.4745,247.6746,796.8,247.6747,2,248.6744,0,19,19,11,1,1,0.3,Time
,,S16,611856,001,Female,30,2025-05-21_20h44.20.780,Serial_Dependence_U,2023.2.3,Win32,59.88023952,6599bf63f1a902105cb4f395,682cd3dfea4e15896da7c0a6,682dad9203229cb8b0066756,,,,,,,,,,,,248.6746,0,248.6747,,,,251.6247,252.1244,251.1079,251.6246,249.6912,130,251.1079,252.1244,252.6245,252.6245,254.5247,1528.5,254.5247,4,255.5245,0,20,20,28,1,1.4,0.7,Time
,,S16,611856,001,Female,30,2025-05-21_20h44.20.780,Serial_Dependence_U,2023.2.3,Win32,59.88023952,6599bf63f1a902105cb4f395,682cd3dfea4e15896da7c0a6,682dad9203229cb8b0066756,,,,,,,,,,,,255.5247,0,255.5248,,,,257.8582,258.358,257.3414,257.8581,256.5248,211,257.3413,258.358,258.858,258.858,260.258,1036.9,260.258,4,261.258,0,21,21,5,1,0.8,0.7,Time
,,S16,611856,001,Female,30,2025-05-21_20h44.20.780,Serial_Dependence_U,2023.2.3,Win32,59.88023952,6599bf63f1a902105cb4f395,682cd3dfea4e15896da7c0a6,682dad9203229cb8b0066756,,,,,,,,,,,,261.2581,0,261.2581,,,,263.8082,264.3079,263.2915,263.8082,262.2748,235,263.2914,264.3079,264.808,264.808,265.9748,834.4,265.9748,2,266.9747,0,22,22,21,1,1,0.3,Time
,,S16,611856,001,Female,30,2025-05-21_20h44.20.780,Serial_Dependence_U,2023.2.3,Win32,59.88023952,6599bf63f1a902105cb4f395,682cd3dfea4e15896da7c0a6,682dad9203229cb8b0066756,,,,,,,,,,,,266.9748,0,266.975,,,,269.7109,270.208,269.1916,269.7108,267.9749,167,269.1915,270.208,270.708,270.708,272.3916,1278.7,272.3917,4,273.3914,0,23,23,27,1,1.2,0.7,Time
,,S16,611856,001,Female,30,2025-05-21_20h44.20.780,Serial_Dependence_U,2023.2.3,Win32,59.88023952,6599bf63f1a902105cb4f395,682cd3dfea4e15896da7c0a6,682dad9203229cb8b0066756,,,,,,,,,,,,273.3916,0,273.3917,,,,275.7417,276.2415,275.225,275.7416,274.4082,253,275.2249,276.2415,276.7416,276.7416,277.9749,887.6,277.975,4,278.9748,0,24,24,25,1,0.8,0.7,Time
,,S16,611856,001,Female,30,2025-05-21_20h44.20.780,Serial_Dependence_U,2023.2.3,Win32,59.88023952,6599bf63f1a902105cb4f395,682cd3dfea4e15896da7c0a6,682dad9203229cb8b0066756,,,,,,,,,,,,278.9749,0,278.975,,,,282.1251,282.6248,281.6084,282.1251,279.9917,8,281.6083,282.6248,283.1251,283.1251,285.1417,1501.5,285.1417,2,286.1415,0,25,25,9,1,1.6,0.7,Time
,,S16,611856,001,Female,30,2025-05-21_20h44.20.780,Serial_Dependence_U,2023.2.3,Win32,59.88023952,6599bf63f1a902105cb4f395,682cd3dfea4e15896da7c0a6,682dad9203229cb8b0066756,,,,,,,,,,,,286.1418,0,286.1418,,,,288.8918,289.3916,288.3751,288.8918,287.1585,95,288.375,289.3916,289.8916,289.8916,291.3917,1135.5,291.3918,2,292.3917,0,26,26,22,1,1.2,0.3,Time
,,S16,611856,001,Female,30,2025-05-21_20h44.20.780,Serial_Dependence_U,2023.2.3,Win32,59.88023952,6599bf63f1a902105cb4f395,682cd3dfea4e15896da7c0a6,682dad9203229cb8b0066756,,,,,,,,,,,,292.3919,0,292.3919,,,,294.7418,295.2418,294.2253,294.7418,293.4087,27,294.2253,295.2418,295.7417,295.7417,297.0751,1003.1,297.0753,4,298.0751,0,27,27,10,1,0.8,0.3,Time
,,S16,611856,001,Female,30,2025-05-21_20h44.20.780,Serial_Dependence_U,2023.2.3,Win32,59.88023952,6599bf63f1a902105cb4f395,682cd3dfea4e15896da7c0a6,682dad9203229cb8b0066756,,,,,,,,,,,,298.0752,0,298.0753,,,,301.0252,301.525,300.5086,301.0252,299.092,168,300.5086,301.525,302.0251,302.0251,303.8086,1412.7,303.8087,3,304.8085,0,28,28,18,1,1.4,0.7,Time
,,S16,611856,001,Female,30,2025-05-21_20h44.20.780,Serial_Dependence_U,2023.2.3,Win32,59.88023952,6599bf63f1a902105cb4f395,682cd3dfea4e15896da7c0a6,682dad9203229cb8b0066756,,,,,,,,,,,,304.8087,0,304.8088,,,,307.9587,308.4585,307.442,307.9587,305.8253,352,307.4419,308.4585,308.9586,308.9586,311.1087,1795.4,311.1088,4,312.1086,0,29,29,14,1,1.6,0.3,Time
,,S16,611856,001,Female,30,2025-05-21_20h44.20.780,Serial_Dependence_U,2023.2.3,Win32,59.88023952,6599bf63f1a902105cb4f395,682cd3dfea4e15896da7c0a6,682dad9203229cb8b0066756,,,,,,,,,,,,312.1088,1,315.9087,s,3.7754,,318.2588,318.7587,317.7421,318.2588,316.9254,25,317.7421,318.7587,319.2586,319.2586,320.5088,839,320.5089,3,321.5088,1,0,30,5,1,0.8,0.7,Time
,,S16,611856,001,Female,30,2025-05-21_20h44.20.780,Serial_Dependence_U,2023.2.3,Win32,59.88023952,6599bf63f1a902105cb4f395,682cd3dfea4e15896da7c0a6,682dad9203229cb8b0066756,,,,,,,,,,,,321.509,1,321.5096,,,,324.6587,325.1588,324.1423,324.6587,322.5255,165,324.1422,325.1588,325.6588,325.6588,327.5588,1558.7,327.559,3,328.5588,1,1,31,4,1,1.6,0.3,Time
,,S16,611856,001,Female,30,2025-05-21_20h44.20.780,Serial_Dependence_U,2023.2.3,Win32,59.88023952,6599bf63f1a902105cb4f395,682cd3dfea4e15896da7c0a6,682dad9203229cb8b0066756,,,,,,,,,,,,328.559,1,328.5591,,,,331.6923,332.1922,331.1756,331.6923,329.559,172,331.1755,332.1922,332.6922,332.6922,334.1423,1116,334.1424,1,335.1422,1,2,32,29,1,1.6,0.7,Time
,,S16,611856,001,Female,30,2025-05-21_20h44.20.780,Serial_Dependence_U,2023.2.3,Win32,59.88023952,6599bf63f1a902105cb4f395,682cd3dfea4e15896da7c0a6,682dad9203229cb8b0066756,,,,,,,,,,,,335.1423,1,335.1424,,,,337.6758,338.1756,337.159,337.6758,336.1425,25,337.159,338.1756,338.6755,338.6755,339.9758,925.2,339.9759,2,340.9757,1,3,33,6,1,1,0.7,Time
,,S16,611856,001,Female,30,2025-05-21_20h44.20.780,Serial_Dependence_U,2023.2.3,Win32,59.88023952,6599bf63f1a902105cb4f395,682cd3dfea4e15896da7c0a6,682dad9203229cb8b0066756,,,,,,,,,,,,340.9758,1,340.9758,,,,343.7258,344.2257,343.2091,343.7257,341.9925,352,343.2091,344.2257,344.7256,344.7256,346.1258,1003,346.1259,2,347.1257,1,4,34,2,1,1.2,0.3,Time
,,S16,611856,001,Female,30,2025-05-21_20h44.20.780,Serial_Dependence_U,2023.2.3,Win32,59.88023952,6599bf63f1a902105cb4f395,682cd3dfea4e15896da7c0a6,682dad9203229cb8b0066756,,,,,,,,,,,,347.1259,1,347.126,,,,349.4593,349.959,348.9426,349.4593,348.1259,60,348.9425,349.9591,350.4592,350.4592,351.6426,817.6,351.6426,3,352.6423,1,5,35,25,1,0.8,0.7,Time
,,S16,611856,001,Female,30,2025-05-21_20h44.20.780,Serial_Dependence_U,2023.2.3,Win32,59.88023952,6599bf63f1a902105cb4f395,682cd3dfea4e15896da7c0a6,682dad9203229cb8b0066756,,,,,,,,,,,,352.6426,1,352.6427,,,,355.1761,355.6757,354.6592,355.1761,353.6426,263,354.6592,355.6757,356.1758,356.1758,357.4259,890.9,357.426,2,358.4258,1,6,36,16,1,1,0.7,Time
,,S16,611856,001,Female,30,2025-05-21_20h44.20.780,Serial_Dependence_U,2023.2.3,Win32,59.88023952,6599bf63f1a902105cb4f395,682cd3dfea4e15896da7c0a6,682dad9203229cb8b0066756,,,,,,,,,,,,358.426,1,358.426,,,,361.5761,362.0759,361.0593,361.5761,359.4427,334,361.0593,362.0759,362.5759,362.5759,364.4426,1473.6,364.4428,2,365.4426,1,7,37,14,1,1.6,0.3,Time
,,S16,611856,001,Female,30,2025-05-21_20h44.20.780,Serial_Dependence_U,2023.2.3,Win32,59.88023952,6599bf63f1a902105cb4f395,682cd3dfea4e15896da7c0a6,682dad9203229cb8b0066756,,,,,,,,,,,,365.4427,1,365.4428,,,,368.1927,368.6926,367.676,368.1927,366.4594,6,367.676,368.6927,369.1927,369.1927,370.8595,1284.7,370.8595,4,371.8593,1,8,38,22,1,1.2,0.3,Time
,,S16,611856,001,Female,30,2025-05-21_20h44.20.780,Serial_Dependence_U,2023.2.3,Win32,59.88023952,6599bf63f1a902105cb4f395,682cd3dfea4e15896da7c0a6,682dad9203229cb8b0066756,,,,,,,,,,,,371.8595,1,371.8595,,,,374.8095,375.3094,374.293,374.8095,372.8762,26,374.2929,375.3094,375.8094,375.8094,377.5095,1330.6,377.5096,3,378.5097,1,9,39,13,1,1.4,0.3,Time
,,S16,611856,001,Female,30,2025-05-21_20h44.20.780,Serial_Dependence_U,2023.2.3,Win32,59.88023952,6599bf63f1a902105cb4f395,682cd3dfea4e15896da7c0a6,682dad9203229cb8b0066756,,,,,,,,,,,,378.5099,1,378.5101,,,,381.4596,381.9594,380.943,381.4596,379.5263,92,380.943,381.9594,382.4595,382.4596,384.2598,1474.8,384.2598,4,385.2595,1,10,40,8,1,1.4,0.7,Time
,,S16,611856,001,Female,30,2025-05-21_20h44.20.780,Serial_Dependence_U,2023.2.3,Win32,59.88023952,6599bf63f1a902105cb4f395,682cd3dfea4e15896da7c0a6,682dad9203229cb8b0066756,,,,,,,,,,,,385.2598,1,385.2598,,,,387.993,388.4929,387.4764,387.993,386.2598,53,387.4763,388.4929,388.993,388.993,390.6097,1311.4,390.6098,4,391.6096,1,11,41,17,1,1.2,0.7,Time
,,S16,611856,001,Female,30,2025-05-21_20h44.20.780,Serial_Dependence_U,2023.2.3,Win32,59.88023952,6599bf63f1a902105cb4f395,682cd3dfea4e15896da7c0a6,682dad9203229cb8b0066756,,,,,,,,,,,,391.6098,1,391.6098,,,,394.1598,394.6596,393.6431,394.1597,392.6263,35,393.643,394.6596,395.1596,395.1596,396.9931,1130.9,396.9932,4,397.9931,1,12,42,1,1,1,0.3,Time
,,S16,611856,001,Female,30,2025-05-21_20h44.20.780,Serial_Dependence_U,2023.2.3,Win32,59.88023952,6599bf63f1a902105cb4f395,682cd3dfea4e15896da7c0a6,682dad9203229cb8b0066756,,,,,,,,,,,,397.9932,1,397.9932,,,,400.7265,401.2264,400.2125,400.7265,398.9932,161,400.2125,401.2264,401.7264,401.7264,403.2766,1250.4,403.2766,3,404.2764,1,13,43,27,1,1.2,0.7,Time
,,S16,611856,001,Female,30,2025-05-21_20h44.20.780,Serial_Dependence_U,2023.2.3,Win32,59.88023952,6599bf63f1a902105cb4f395,682cd3dfea4e15896da7c0a6,682dad9203229cb8b0066756,,,,,,,,,,,,404.2766,1,404.2767,,,,406.6266,407.1265,406.11,406.6266,405.2932,175,406.1099,407.1265,407.6264,407.6264,408.8265,845.2,408.8266,4,409.8265,1,14,44,0,1,0.8,0.3,Time
,,S16,611856,001,Female,30,2025-05-21_20h44.20.780,Serial_Dependence_U,2023.2.3,Win32,59.88023952,6599bf63f1a902105cb4f395,682cd3dfea4e15896da7c0a6,682dad9203229cb8b0066756,,,,,,,,,,,,409.8267,1,409.8268,,,,412.76,413.2599,412.2433,412.7599,410.8268,287,412.2433,413.2599,413.7599,413.7599,415.5267,1362.8,415.5268,3,416.5265,1,15,45,18,1,1.4,0.7,Time
,,S16,611856,001,Female,30,2025-05-21_20h44.20.780,Serial_Dependence_U,2023.2.3,Win32,59.88023952,6599bf63f1a902105cb4f395,682cd3dfea4e15896da7c0a6,682dad9203229cb8b0066756,,,,,,,,,,,,416.5267,1,416.5268,,,,418.8767,419.3767,418.3601,418.8767,417.5461,243,418.3601,419.3767,419.8766,419.8766,420.96,701.9,420.9601,2,421.96,1,16,46,20,1,0.8,0.3,Time
,,S16,611856,001,Female,30,2025-05-21_20h44.20.780,Serial_Dependence_U,2023.2.3,Win32,59.88023952,6599bf63f1a902105cb4f395,682cd3dfea4e15896da7c0a6,682dad9203229cb8b0066756,,,,,,,,,,,,421.9602,1,421.9603,,,,424.4935,424.9934,423.9769,424.4935,422.9601,357,423.9768,424.9934,425.4933,425.4933,426.9121,1055.7,426.9121,4,427.9101,1,17,47,11,1,1,0.3,Time
,,S16,611856,001,Female,30,2025-05-21_20h44.20.780,Serial_Dependence_U,2023.2.3,Win32,59.88023952,6599bf63f1a902105cb4f395,682cd3dfea4e15896da7c0a6,682dad9203229cb8b0066756,,,,,,,,,,,,427.9103,1,427.9104,,,,430.8435,431.3434,430.3269,430.8435,428.9104,280,430.3269,431.3434,431.8434,431.8435,433.427,1256.8,433.427,2,434.4269,1,18,48,23,1,1.4,0.3,Time
,,S16,611856,001,Female,30,2025-05-21_20h44.20.780,Serial_Dependence_U,2023.2.3,Win32,59.88023952,6599bf63f1a902105cb4f395,682cd3dfea4e15896da7c0a6,682dad9203229cb8b0066756,,,,,,,,,,,,434.427,1,434.427,,,,437.3603,437.8602,436.8436,437.3603,435.427,297,436.8436,437.8602,438.3602,438.3602,440.2104,1501.4,440.2104,4,441.2102,1,19,49,3,1,1.4,0.3,Time
,,S16,611856,001,Female,30,2025-05-21_20h44.20.780,Serial_Dependence_U,2023.2.3,Win32,59.88023952,6599bf63f1a902105cb4f395,682cd3dfea4e15896da7c0a6,682dad9203229cb8b0066756,,,,,,,,,,,,441.2104,1,441.2105,,,,444.1603,444.6603,443.6438,444.1603,442.2271,6,443.6437,444.6603,445.1602,445.1602,446.6966,1250.1,446.6967,2,447.6937,1,20,50,28,1,1.4,0.7,Time
,,S16,611856,001,Female,30,2025-05-21_20h44.20.780,Serial_Dependence_U,2023.2.3,Win32,59.88023952,6599bf63f1a902105cb4f395,682cd3dfea4e15896da7c0a6,682dad9203229cb8b0066756,,,,,,,,,,,,447.6938,1,447.6939,,,,450.8272,451.327,450.3105,450.8272,448.6939,274,450.3105,451.327,451.8271,451.8271,453.5271,1397.5,453.5272,2,454.5271,1,21,51,24,1,1.6,0.3,Time
,,S16,611856,001,Female,30,2025-05-21_20h44.20.780,Serial_Dependence_U,2023.2.3,Win32,59.88023952,6599bf63f1a902105cb4f395,682cd3dfea4e15896da7c0a6,682dad9203229cb8b0066756,,,,,,,,,,,,454.5273,1,454.5273,,,,457.0606,457.5604,456.544,457.0605,455.5272,134,456.5439,457.5604,458.0604,458.0604,459.4105,998.2,459.4106,3,460.4105,1,22,52,26,1,1,0.7,Time
,,S16,611856,001,Female,30,2025-05-21_20h44.20.780,Serial_Dependence_U,2023.2.3,Win32,59.88023952,6599bf63f1a902105cb4f395,682cd3dfea4e15896da7c0a6,682dad9203229cb8b0066756,,,,,,,,,,,,460.4107,1,460.4107,,,,462.7607,463.2604,462.244,462.7607,461.4273,144,462.2439,463.2605,463.7605,463.7605,465.0773,977.4,465.0773,4,466.0773,1,23,53,15,1,0.8,0.7,Time
,,S16,611856,001,Female,30,2025-05-21_20h44.20.780,Serial_Dependence_U,2023.2.3,Win32,59.88023952,6599bf63f1a902105cb4f395,682cd3dfea4e15896da7c0a6,682dad9203229cb8b0066756,,,,,,,,,,,,466.0774,1,466.0775,,,,468.6275,469.1272,468.1107,468.6274,467.094,134,468.1107,469.1272,469.6273,469.6273,471.1608,1113.9,471.1608,4,472.1607,1,24,54,21,1,1,0.3,Time
,,S16,611856,001,Female,30,2025-05-21_20h44.20.780,Serial_Dependence_U,2023.2.3,Win32,59.88023952,6599bf63f1a902105cb4f395,682cd3dfea4e15896da7c0a6,682dad9203229cb8b0066756,,,,,,,,,,,,472.1609,1,472.1611,,,,474.8942,475.394,474.3774,474.8942,473.1609,280,474.3774,475.394,475.894,475.894,477.2608,1018.5,477.2609,2,478.2607,1,25,55,7,1,1.2,0.7,Time
,,S16,611856,001,Female,30,2025-05-21_20h44.20.780,Serial_Dependence_U,2023.2.3,Win32,59.88023952,6599bf63f1a902105cb4f395,682cd3dfea4e15896da7c0a6,682dad9203229cb8b0066756,,,,,,,,,,,,478.2609,1,478.2609,,,,481.3801,481.8774,480.8775,481.3801,479.2609,144,480.8775,481.8774,482.3774,482.3774,484.6109,1886.1,484.6111,4,485.6108,1,26,56,9,1,1.6,0.7,Time
,,S16,611856,001,Female,30,2025-05-21_20h44.20.780,Serial_Dependence_U,2023.2.3,Win32,59.88023952,6599bf63f1a902105cb4f395,682cd3dfea4e15896da7c0a6,682dad9203229cb8b0066756,,,,,,,,,,,,485.611,1,485.6111,,,,488.3443,488.8443,487.8277,488.3443,486.611,355,487.8277,488.8443,489.3442,489.3442,491.0609,1388.7,491.0611,4,492.0608,1,27,57,12,1,1.2,0.3,Time
,,S16,611856,001,Female,30,2025-05-21_20h44.20.780,Serial_Dependence_U,2023.2.3,Win32,59.88023952,6599bf63f1a902105cb4f395,682cd3dfea4e15896da7c0a6,682dad9203229cb8b0066756,,,,,,,,,,,,492.061,1,492.0611,,,,495.1944,495.6942,494.6778,495.1944,493.0612,212,494.6778,495.6942,496.1942,496.1942,498.2112,1745.9,498.2114,4,499.211,1,28,58,19,1,1.6,0.7,Time
,,S16,611856,001,Female,30,2025-05-21_20h44.20.780,Serial_Dependence_U,2023.2.3,Win32,59.88023952,6599bf63f1a902105cb4f395,682cd3dfea4e15896da7c0a6,682dad9203229cb8b0066756,,,,,,,,,,,,499.2112,1,499.2113,,,,501.5446,502.0443,501.0279,501.5445,500.2111,201,501.0278,502.0443,502.5444,502.5444,503.7778,881.6,503.7779,4,504.7777,1,29,59,10,1,0.8,0.3,Time
,,S16,611856,001,Female,30,2025-05-21_20h44.20.780,Serial_Dependence_U,2023.2.3,Win32,59.88023952,6599bf63f1a902105cb4f395,682cd3dfea4e15896da7c0a6,682dad9203229cb8b0066756,,,,,,,,,,,,504.7779,2,507.5278,s,2.7265,,510.278,510.7778,509.7612,510.278,508.5446,132,509.7612,510.7778,511.2778,511.2779,512.9946,1351.9,512.9947,4,513.9945,2,0,60,12,1,1.2,0.3,Time
,,S16,611856,001,Female,30,2025-05-21_20h44.20.780,Serial_Dependence_U,2023.2.3,Win32,59.88023952,6599bf63f1a902105cb4f395,682cd3dfea4e15896da7c0a6,682dad9203229cb8b0066756,,,,,,,,,,,,513.9947,2,513.9955,,,,516.5447,517.0445,516.028,516.5447,515.0114,35,516.0279,517.0445,517.5445,517.5446,519.131,1222.8,519.1311,4,520.1279,2,1,61,16,1,1,0.7,Time
,,S16,611856,001,Female,30,2025-05-21_20h44.20.780,Serial_Dependence_U,2023.2.3,Win32,59.88023952,6599bf63f1a902105cb4f395,682cd3dfea4e15896da7c0a6,682dad9203229cb8b0066756,,,,,,,,,,,,520.128,2,520.1282,,,,522.4781,522.9779,521.9614,522.4781,521.1447,174,521.9614,522.9779,523.4779,523.4779,524.7114,909.1,524.7114,4,525.7114,2,2,62,15,1,0.8,0.7,Time
,,S16,611856,001,Female,30,2025-05-21_20h44.20.780,Serial_Dependence_U,2023.2.3,Win32,59.88023952,6599bf63f1a902105cb4f395,682cd3dfea4e15896da7c0a6,682dad9203229cb8b0066756,,,,,,,,,,,,525.7115,2,525.7117,,,,528.8616,529.3615,528.3449,528.8615,526.7283,204,528.3448,529.3615,529.8614,529.8614,531.9615,1644.8,531.9615,3,532.9614,2,3,63,24,1,1.6,0.3,Time
,,S16,611856,001,Female,30,2025-05-21_20h44.20.780,Serial_Dependence_U,2023.2.3,Win32,59.88023952,6599bf63f1a902105cb4f395,682cd3dfea4e15896da7c0a6,682dad9203229cb8b0066756,,,,,,,,,,,,532.9615,2,532.9616,,,,535.8949,536.3948,535.3782,535.8948,533.9617,327,535.3782,536.3948,536.8947,536.8948,538.6117,1388.6,538.6117,3,539.6114,2,4,64,23,1,1.4,0.3,Time
,,S16,611856,001,Female,30,2025-05-21_20h44.20.780,Serial_Dependence_U,2023.2.3,Win32,59.88023952,6599bf63f1a902105cb4f395,682cd3dfea4e15896da7c0a6,682dad9203229cb8b0066756,,,,,,,,,,,,539.6117,2,539.6117,,,,541.945,542.4449,541.4284,541.945,540.6118,346,541.4283,542.4449,542.9449,542.9449,544.0784,789.9,544.0785,3,545.0782,2,5,65,5,1,0.8,0.7,Time
,,S16,611856,001,Female,30,2025-05-21_20h44.20.780,Serial_Dependence_U,2023.2.3,Win32,59.88023952,6599bf63f1a902105cb4f395,682cd3dfea4e15896da7c0a6,682dad9203229cb8b0066756,,,,,,,,,,,,545.0785,2,545.0785,,,,548.0284,548.5283,547.5118,548.0284,546.0951,37,547.5117,548.5283,549.0283,549.0283,550.8284,1406.2,550.8285,3,551.8283,2,6,66,8,1,1.4,0.7,Time
,,S16,611856,001,Female,30,2025-05-21_20h44.20.780,Serial_Dependence_U,2023.2.3,Win32,59.88023952,6599bf63f1a902105cb4f395,682cd3dfea4e15896da7c0a6,682dad9203229cb8b0066756,,,,,,,,,,,,551.8285,2,551.8285,,,,554.1786,554.6783,553.6618,554.1786,552.8452,233,553.6618,554.6783,555.1784,555.1784,556.4785,973.9,556.4786,4,557.4784,2,7,67,10,1,0.8,0.3,Time
,,S16,611856,001,Female,30,2025-05-21_20h44.20.780,Serial_Dependence_U,2023.2.3,Win32,59.88023952,6599bf63f1a902105cb4f395,682cd3dfea4e15896da7c0a6,682dad9203229cb8b0066756,,,,,,,,,,,,557.4786,2,557.4786,,,,560.4286,560.9285,559.9119,560.4286,558.4952,132,559.9119,560.9285,561.4284,561.4285,563.2286,1429.6,563.2287,3,564.2286,2,8,68,3,1,1.4,0.3,Time
,,S16,611856,001,Female,30,2025-05-21_20h44.20.780,Serial_Dependence_U,2023.2.3,Win32,59.88023952,6599bf63f1a902105cb4f395,682cd3dfea4e15896da7c0a6,682dad9203229cb8b0066756,,,,,,,,,,,,564.2287,2,564.2288,,,,566.762,567.2619,566.2454,566.7619,565.2287,257,566.2454,567.2619,567.7619,567.7619,569.1286,1040.1,569.1286,3,570.1285,2,9,69,6,1,1,0.7,Time
,,S16,611856,001,Female,30,2025-05-21_20h44.20.780,Serial_Dependence_U,2023.2.3,Win32,59.88023952,6599bf63f1a902105cb4f395,682cd3dfea4e15896da7c0a6,682dad9203229cb8b0066756,,,,,,,,,,,,570.1287,2,570.1288,,,,573.0622,573.5619,572.5454,573.0622,571.1287,101,572.5454,573.5619,574.0619,574.062,575.8287,1380.6,575.8288,3,576.8287,2,10,70,13,1,1.4,0.3,Time
,,S16,611856,001,Female,30,2025-05-21_20h44.20.780,Serial_Dependence_U,2023.2.3,Win32,59.88023952,6599bf63f1a902105cb4f395,682cd3dfea4e15896da7c0a6,682dad9203229cb8b0066756,,,,,,,,,,,,576.8289,2,576.8289,,,,579.5789,580.0787,579.0622,579.5788,577.8456,95,579.0622,580.0787,580.5786,580.5786,582.2288,1348,582.2289,4,583.2287,2,11,71,27,1,1.2,0.7,Time
,,S16,611856,001,Female,30,2025-05-21_20h44.20.780,Serial_Dependence_U,2023.2.3,Win32,59.88023952,6599bf63f1a902105cb4f395,682cd3dfea4e15896da7c0a6,682dad9203229cb8b0066756,,,,,,,,,,,,583.2289,2,583.229,,,,585.7789,586.2787,585.2623,585.7788,584.2455,300,585.2622,586.2788,586.7788,586.7788,588.1789,1062,588.1789,4,589.1789,2,12,72,26,1,1,0.7,Time
,,S16,611856,001,Female,30,2025-05-21_20h44.20.780,Serial_Dependence_U,2023.2.3,Win32,59.88023952,6599bf63f1a902105cb4f395,682cd3dfea4e15896da7c0a6,682dad9203229cb8b0066756,,,,,,,,,,,,589.179,2,589.179,,,,591.7291,592.2289,591.2123,591.7289,590.1957,257,591.2123,592.2289,592.7289,592.7289,593.9818,962.2,593.9819,3,594.9789,2,13,73,21,1,1,0.3,Time
,,S16,611856,001,Female,30,2025-05-21_20h44.20.780,Serial_Dependence_U,2023.2.3,Win32,59.88023952,6599bf63f1a902105cb4f395,682cd3dfea4e15896da7c0a6,682dad9203229cb8b0066756,,,,,,,,,,,,594.9791,2,594.9792,,,,597.7291,598.229,597.2124,597.729,595.9957,130,597.2123,598.229,598.7288,598.7288,600.1623,1122.4,600.1623,2,601.1623,2,14,74,17,1,1.2,0.7,Time
,,S16,611856,001,Female,30,2025-05-21_20h44.20.780,Serial_Dependence_U,2023.2.3,Win32,59.88023952,6599bf63f1a902105cb4f395,682cd3dfea4e15896da7c0a6,682dad9203229cb8b0066756,,,,,,,,,,,,601.1624,2,601.1625,,,,604.3125,604.8124,603.7959,604.3125,602.1791,130,603.7958,604.8124,605.3123,605.3123,606.9958,1352.9,606.9959,2,607.9957,2,15,75,19,1,1.6,0.7,Time
,,S16,611856,001,Female,30,2025-05-21_20h44.20.780,Serial_Dependence_U,2023.2.3,Win32,59.88023952,6599bf63f1a902105cb4f395,682cd3dfea4e15896da7c0a6,682dad9203229cb8b0066756,,,,,,,,,,,,607.9959,2,607.996,,,,611.1292,611.629,610.6126,611.1292,608.9959,158,610.6125,611.6291,612.1291,612.1291,613.9959,1551.5,613.996,3,614.9959,2,16,76,4,1,1.6,0.3,Time
,,S16,611856,001,Female,30,2025-05-21_20h44.20.780,Serial_Dependence_U,2023.2.3,Win32,59.88023952,6599bf63f1a902105cb4f395,682cd3dfea4e15896da7c0a6,682dad9203229cb8b0066756,,,,,,,,,,,,614.9961,2,614.9962,,,,618.146,618.6459,617.6294,618.146,616.0127,266,617.6293,618.6459,619.1458,619.1459,620.8959,1388.9,620.8961,2,621.8959,2,17,77,29,1,1.6,0.7,Time
,,S16,611856,001,Female,30,2025-05-21_20h44.20.780,Serial_Dependence_U,2023.2.3,Win32,59.88023952,6599bf63f1a902105cb4f395,682cd3dfea4e15896da7c0a6,682dad9203229cb8b0066756,,,,,,,,,,,,621.8961,2,621.8962,,,,624.2461,624.7459,623.7294,624.2461,622.9127,114,623.7293,624.7459,625.2459,625.2459,626.7656,954.6,626.7657,4,627.7626,2,18,78,25,1,0.8,0.7,Time
,,S16,611856,001,Female,30,2025-05-21_20h44.20.780,Serial_Dependence_U,2023.2.3,Win32,59.88023952,6599bf63f1a902105cb4f395,682cd3dfea4e15896da7c0a6,682dad9203229cb8b0066756,,,,,,,,,,,,627.7629,2,627.7629,,,,630.9129,631.4127,630.3961,630.9128,628.7795,59,630.3961,631.4127,631.9127,631.9127,634.1325,1791.9,634.1325,4,635.1295,2,19,79,9,1,1.6,0.7,Time
,,S16,611856,001,Female,30,2025-05-21_20h44.20.780,Serial_Dependence_U,2023.2.3,Win32,59.88023952,6599bf63f1a902105cb4f395,682cd3dfea4e15896da7c0a6,682dad9203229cb8b0066756,,,,,,,,,,,,635.1296,2,635.1297,,,,637.8796,638.3794,637.3629,637.8796,636.1463,84,637.3629,638.3794,638.8794,638.8794,640.7129,1402.7,640.713,4,641.7128,2,20,80,7,1,1.2,0.7,Time
,,S16,611856,001,Female,30,2025-05-21_20h44.20.780,Serial_Dependence_U,2023.2.3,Win32,59.88023952,6599bf63f1a902105cb4f395,682cd3dfea4e15896da7c0a6,682dad9203229cb8b0066756,,,,,,,,,,,,641.713,2,641.7131,,,,644.0631,644.5629,643.5463,644.0631,642.7296,331,643.5463,644.5629,645.0629,645.063,646.4989,1130.3,646.499,5,647.4962,2,21,81,20,1,0.8,0.3,Time
,,S16,611856,001,Female,30,2025-05-21_20h44.20.780,Serial_Dependence_U,2023.2.3,Win32,59.88023952,6599bf63f1a902105cb4f395,682cd3dfea4e15896da7c0a6,682dad9203229cb8b0066756,,,,,,,,,,,,647.4965,2,647.4965,,,,650.2297,650.7296,649.713,650.2297,648.4964,330,649.713,650.7297,651.2297,651.2297,652.6464,1051.5,652.6464,2,653.6463,2,22,82,2,1,1.2,0.3,Time
,,S16,611856,001,Female,30,2025-05-21_20h44.20.780,Serial_Dependence_U,2023.2.3,Win32,59.88023952,6599bf63f1a902105cb4f395,682cd3dfea4e15896da7c0a6,682dad9203229cb8b0066756,,,,,,,,,,,,653.6465,2,653.6465,,,,656.7797,657.2797,656.2632,656.7797,654.6481,96,656.2632,657.2797,657.7797,657.7797,659.6465,1353.9,659.6466,2,660.6464,2,23,83,14,1,1.6,0.3,Time
,,S16,611856,001,Female,30,2025-05-21_20h44.20.780,Serial_Dependence_U,2023.2.3,Win32,59.88023952,6599bf63f1a902105cb4f395,682cd3dfea4e15896da7c0a6,682dad9203229cb8b0066756,,,,,,,,,,,,660.6465,2,660.6466,,,,663.1799,663.6797,662.6633,663.1798,661.6466,272,662.6632,663.6798,664.1797,664.1798,665.8299,1203,665.83,4,666.8298,2,24,84,11,1,1,0.3,Time
,,S16,611856,001,Female,30,2025-05-21_20h44.20.780,Serial_Dependence_U,2023.2.3,Win32,59.88023952,6599bf63f1a902105cb4f395,682cd3dfea4e15896da7c0a6,682dad9203229cb8b0066756,,,,,,,,,,,,666.83,2,666.8301,,,,669.7799,670.2799,669.2634,669.7799,667.8466,31,669.2633,670.2799,670.7799,670.7799,672.5467,1392.8,672.5468,3,673.5466,2,25,85,28,1,1.4,0.7,Time
,,S16,611856,001,Female,30,2025-05-21_20h44.20.780,Serial_Dependence_U,2023.2.3,Win32,59.88023952,6599bf63f1a902105cb4f395,682cd3dfea4e15896da7c0a6,682dad9203229cb8b0066756,,,,,,,,,,,,673.5468,2,673.5469,,,,675.8968,676.3967,675.3801,675.8967,674.5636,203,675.38,676.3967,676.8966,676.8966,678.2134,984.5,678.2135,4,679.2133,2,26,86,0,1,0.8,0.3,Time
,,S16,611856,001,Female,30,2025-05-21_20h44.20.780,Serial_Dependence_U,2023.2.3,Win32,59.88023952,6599bf63f1a902105cb4f395,682cd3dfea4e15896da7c0a6,682dad9203229cb8b0066756,,,,,,,,,,,,679.2135,2,679.2136,,,,682.1635,682.6633,681.6468,682.1635,680.2301,282,681.6468,682.6634,683.1634,683.1634,684.7663,1331.8,684.7665,3,685.7635,2,27,87,18,1,1.4,0.7,Time
,,S16,611856,001,Female,30,2025-05-21_20h44.20.780,Serial_Dependence_U,2023.2.3,Win32,59.88023952,6599bf63f1a902105cb4f395,682cd3dfea4e15896da7c0a6,682dad9203229cb8b0066756,,,,,,,,,,,,685.7636,2,685.7638,,,,688.3137,688.8134,687.7969,688.3136,686.7802,166,687.7969,688.8134,689.3134,689.3134,690.6803,1063.7,690.6803,4,691.6801,2,28,88,1,1,1,0.3,Time
,,S16,611856,001,Female,30,2025-05-21_20h44.20.780,Serial_Dependence_U,2023.2.3,Win32,59.88023952,6599bf63f1a902105cb4f395,682cd3dfea4e15896da7c0a6,682dad9203229cb8b0066756,,,,,,,,,,,,691.6803,2,691.6803,,,,694.4304,694.9303,693.9153,694.4303,692.697,299,693.9153,694.9303,695.4302,695.4302,697.0636,1318.9,697.0638,4,698.0636,2,29,89,22,1,1.2,0.3,Time
,,S16,611856,001,Female,30,2025-05-21_20h44.20.780,Serial_Dependence_U,2023.2.3,Win32,59.88023952,6599bf63f1a902105cb4f395,682cd3dfea4e15896da7c0a6,682dad9203229cb8b0066756,,,,,,,,,,,,698.0638,3,700.247,s,2.1509,,703.3971,703.897,702.8805,703.3971,701.2638,229,702.8805,703.897,704.397,704.397,706.6138,1841.8,706.6138,4,707.6136,3,0,90,29,1,1.6,0.7,Time
,,S16,611856,001,Female,30,2025-05-21_20h44.20.780,Serial_Dependence_U,2023.2.3,Win32,59.88023952,6599bf63f1a902105cb4f395,682cd3dfea4e15896da7c0a6,682dad9203229cb8b0066756,,,,,,,,,,,,707.6139,3,707.6145,,,,710.7495,711.2471,710.2472,710.7495,708.6305,76,710.2472,711.2471,711.7471,711.7471,713.7472,1712.3,713.7472,4,714.747,3,1,91,24,1,1.6,0.3,Time
,,S16,611856,001,Female,30,2025-05-21_20h44.20.780,Serial_Dependence_U,2023.2.3,Win32,59.88023952,6599bf63f1a902105cb4f395,682cd3dfea4e15896da7c0a6,682dad9203229cb8b0066756,,,,,,,,,,,,714.7472,3,714.7473,,,,717.6974,718.1972,717.1806,717.6973,715.7639,150,717.1806,718.1972,718.6972,718.6972,720.6806,1605.9,720.6807,4,721.6806,3,2,92,23,1,1.4,0.3,Time
,,S16,611856,001,Female,30,2025-05-21_20h44.20.780,Serial_Dependence_U,2023.2.3,Win32,59.88023952,6599bf63f1a902105cb4f395,682cd3dfea4e15896da7c0a6,682dad9203229cb8b0066756,,,,,,,,,,,,721.6807,3,721.6808,,,,724.4308,724.9305,723.914,724.4307,722.6975,257,723.914,724.9305,725.4306,725.4306,727.1307,1348.4,727.1308,4,728.1306,3,3,93,7,1,1.2,0.7,Time
,,S16,611856,001,Female,30,2025-05-21_20h44.20.780,Serial_Dependence_U,2023.2.3,Win32,59.88023952,6599bf63f1a902105cb4f395,682cd3dfea4e15896da7c0a6,682dad9203229cb8b0066756,,,,,,,,,,,,728.1308,3,728.1308,,,,730.8808,731.3807,730.3642,730.8808,729.1475,81,730.3641,731.3807,731.8807,731.8807,733.5141,1300.4,733.5141,4,734.5141,3,4,94,2,1,1.2,0.3,Time
,,S16,611856,001,Female,30,2025-05-21_20h44.20.780,Serial_Dependence_U,2023.2.3,Win32,59.88023952,6599bf63f1a902105cb4f395,682cd3dfea4e15896da7c0a6,682dad9203229cb8b0066756,,,,,,,,,,,,734.5142,3,734.5143,,,,736.8642,737.364,736.3475,736.8641,735.5308,0,736.3474,737.364,737.8641,737.8641,739.4974,1292.6,739.4975,5,740.4974,3,5,95,5,1,0.8,0.7,Time
,,S16,611856,001,Female,30,2025-05-21_20h44.20.780,Serial_Dependence_U,2023.2.3,Win32,59.88023952,6599bf63f1a902105cb4f395,682cd3dfea4e15896da7c0a6,682dad9203229cb8b0066756,,,,,,,,,,,,740.4977,3,740.4977,,,,743.4476,743.9475,742.9311,743.4476,741.5143,90,742.9311,743.9475,744.4475,744.4475,746.0644,1297,746.0645,2,747.0643,3,6,96,18,1,1.4,0.7,Time
,,S16,611856,001,Female,30,2025-05-21_20h44.20.780,Serial_Dependence_U,2023.2.3,Win32,59.88023952,6599bf63f1a902105cb4f395,682cd3dfea4e15896da7c0a6,682dad9203229cb8b0066756,,,,,,,,,,,,747.0644,3,747.0644,,,,749.6144,750.1142,749.0977,749.6144,748.0811,108,749.0977,750.1142,750.6141,750.6141,751.831,880.5,751.8311,2,752.831,3,7,97,21,1,1,0.3,Time
,,S16,611856,001,Female,30,2025-05-21_20h44.20.780,Serial_Dependence_U,2023.2.3,Win32,59.88023952,6599bf63f1a902105cb4f395,682cd3dfea4e15896da7c0a6,682dad9203229cb8b0066756,,,,,,,,,,,,752.8311,3,752.8312,,,,755.3811,755.881,754.8643,755.3811,753.8477,306,754.8643,755.881,756.381,756.381,758.0172,1308.8,758.0172,5,759.0144,3,8,98,1,1,1,0.3,Time
,,S16,611856,001,Female,30,2025-05-21_20h44.20.780,Serial_Dependence_U,2023.2.3,Win32,59.88023952,6599bf63f1a902105cb4f395,682cd3dfea4e15896da7c0a6,682dad9203229cb8b0066756,,,,,,,,,,,,759.0145,3,759.0146,,,,761.7478,762.2476,761.2312,761.7477,760.0146,17,761.2311,762.2477,762.7477,762.7477,764.3812,1310,764.3813,4,765.3811,3,9,99,27,1,1.2,0.7,Time
,,S16,611856,001,Female,30,2025-05-21_20h44.20.780,Serial_Dependence_U,2023.2.3,Win32,59.88023952,6599bf63f1a902105cb4f395,682cd3dfea4e15896da7c0a6,682dad9203229cb8b0066756,,,,,,,,,,,,765.3813,3,765.3814,,,,767.7146,768.2144,767.1979,767.7146,766.3814,135,767.1978,768.2144,768.7172,768.7172,770.2812,1129,770.2813,5,771.2812,3,10,100,10,1,0.8,0.3,Time
,,S16,611856,001,Female,30,2025-05-21_20h44.20.780,Serial_Dependence_U,2023.2.3,Win32,59.88023952,6599bf63f1a902105cb4f395,682cd3dfea4e15896da7c0a6,682dad9203229cb8b0066756,,,,,,,,,,,,771.2814,3,771.2815,,,,773.8146,774.3146,773.298,773.8146,772.2813,306,773.2979,774.3146,774.8145,774.8145,776.5147,1249.6,776.5148,4,777.5146,3,11,101,11,1,1,0.3,Time
,,S16,611856,001,Female,30,2025-05-21_20h44.20.780,Serial_Dependence_U,2023.2.3,Win32,59.88023952,6599bf63f1a902105cb4f395,682cd3dfea4e15896da7c0a6,682dad9203229cb8b0066756,,,,,,,,,,,,777.5147,3,777.5148,,,,779.8647,780.3646,779.3481,779.8647,778.5314,156,779.348,780.3646,780.8647,780.8647,782.2648,1093.8,782.2649,5,783.2646,3,12,102,25,1,0.8,0.7,Time
,,S16,611856,001,Female,30,2025-05-21_20h44.20.780,Serial_Dependence_U,2023.2.3,Win32,59.88023952,6599bf63f1a902105cb4f395,682cd3dfea4e15896da7c0a6,682dad9203229cb8b0066756,,,,,,,,,,,,783.2649,3,783.2649,,,,786.0149,786.5147,785.4982,786.0148,784.2815,181,785.4982,786.5147,787.0148,787.0148,788.5149,1109.4,788.5149,2,789.5148,3,13,103,12,1,1.2,0.3,Time
,,S16,611856,001,Female,30,2025-05-21_20h44.20.780,Serial_Dependence_U,2023.2.3,Win32,59.88023952,6599bf63f1a902105cb4f395,682cd3dfea4e15896da7c0a6,682dad9203229cb8b0066756,,,,,,,,,,,,789.5149,3,789.515,,,,792.4649,792.9647,791.9483,792.4649,790.5316,283,791.9483,792.9647,793.4648,793.4649,795.3316,1537.9,795.3317,4,796.3314,3,14,104,8,1,1.4,0.7,Time
,,S16,611856,001,Female,30,2025-05-21_20h44.20.780,Serial_Dependence_U,2023.2.3,Win32,59.88023952,6599bf63f1a902105cb4f395,682cd3dfea4e15896da7c0a6,682dad9203229cb8b0066756,,,,,,,,,,,,796.3316,3,796.3317,,,,798.6844,799.1815,798.165,798.6844,797.3484,164,798.1649,799.1815,799.6815,799.6816,801.1983,1205.5,801.1984,5,802.1983,3,15,105,20,1,0.8,0.3,Time
,,S16,611856,001,Female,30,2025-05-21_20h44.20.780,Serial_Dependence_U,2023.2.3,Win32,59.88023952,6599bf63f1a902105cb4f395,682cd3dfea4e15896da7c0a6,682dad9203229cb8b0066756,,,,,,,,,,,,802.1985,3,802.1985,,,,805.3318,805.8316,804.8151,805.3317,803.1987,178,804.8151,805.8316,806.3316,806.3317,808.7514,1964.8,808.7515,4,809.7484,3,16,106,9,1,1.6,0.7,Time
,,S16,611856,001,Female,30,2025-05-21_20h44.20.780,Serial_Dependence_U,2023.2.3,Win32,59.88023952,6599bf63f1a902105cb4f395,682cd3dfea4e15896da7c0a6,682dad9203229cb8b0066756,,,,,,,,,,,,809.7486,3,809.7487,,,,812.0985,812.5983,811.5818,812.0984,810.7651,114,811.5818,812.5984,813.0984,813.0984,814.5985,985.7,814.5986,4,815.5984,3,17,107,0,1,0.8,0.3,Time
,,S16,611856,001,Female,30,2025-05-21_20h44.20.780,Serial_Dependence_U,2023.2.3,Win32,59.88023952,6599bf63f1a902105cb4f395,682cd3dfea4e15896da7c0a6,682dad9203229cb8b0066756,,,,,,,,,,,,815.5985,3,815.5987,,,,818.5486,819.0484,818.032,818.5486,816.6152,55,818.032,819.0484,819.5485,819.5485,820.8653,1235,820.8654,2,821.8652,3,18,108,3,1,1.4,0.3,Time
,,S16,611856,001,Female,30,2025-05-21_20h44.20.780,Serial_Dependence_U,2023.2.3,Win32,59.88023952,6599bf63f1a902105cb4f395,682cd3dfea4e15896da7c0a6,682dad9203229cb8b0066756,,,,,,,,,,,,821.8653,3,821.8654,,,,824.1987,824.6985,823.682,824.1987,822.8654,272,823.682,824.6985,825.1986,825.1986,826.182,794.5,826.1821,3,827.1819,3,19,109,15,1,0.8,0.7,Time
,,S16,611856,001,Female,30,2025-05-21_20h44.20.780,Serial_Dependence_U,2023.2.3,Win32,59.88023952,6599bf63f1a902105cb4f395,682cd3dfea4e15896da7c0a6,682dad9203229cb8b0066756,,,,,,,,,,,,827.182,3,827.1821,,,,829.732,830.2319,829.2153,829.732,828.1987,25,829.2153,830.2319,830.7319,830.732,832.1653,1102.8,832.1655,4,833.1653,3,20,110,6,1,1,0.7,Time
,,S16,611856,001,Female,30,2025-05-21_20h44.20.780,Serial_Dependence_U,2023.2.3,Win32,59.88023952,6599bf63f1a902105cb4f395,682cd3dfea4e15896da7c0a6,682dad9203229cb8b0066756,,,,,,,,,,,,833.1655,3,833.1655,,,,836.1155,836.6154,835.5989,836.1155,834.1821,224,835.5988,836.6154,837.1153,837.1153,839.0488,1611.6,839.0489,4,840.0487,3,21,111,13,1,1.4,0.3,Time
,,S16,611856,001,Female,30,2025-05-21_20h44.20.780,Serial_Dependence_U,2023.2.3,Win32,59.88023952,6599bf63f1a902105cb4f395,682cd3dfea4e15896da7c0a6,682dad9203229cb8b0066756,,,,,,,,,,,,840.0489,3,840.049,,,,843.199,843.6988,842.6823,843.199,841.0656,30,842.6823,843.6988,844.1987,844.1987,846.149,1688,846.1491,4,847.1489,3,22,112,14,1,1.6,0.3,Time
,,S16,611856,001,Female,30,2025-05-21_20h44.20.780,Serial_Dependence_U,2023.2.3,Win32,59.88023952,6599bf63f1a902105cb4f395,682cd3dfea4e15896da7c0a6,682dad9203229cb8b0066756,,,,,,,,,,,,847.149,3,847.1491,,,,850.2991,850.7989,849.7823,850.299,848.1656,352,849.7823,850.7989,851.2989,851.2989,853.349,1666.4,853.3491,3,854.3489,3,23,113,4,1,1.6,0.3,Time
,,S16,611856,001,Female,30,2025-05-21_20h44.20.780,Serial_Dependence_U,2023.2.3,Win32,59.88023952,6599bf63f1a902105cb4f395,682cd3dfea4e15896da7c0a6,682dad9203229cb8b0066756,,,,,,,,,,,,854.3492,3,854.3493,,,,857.0658,857.5656,856.5508,857.0657,855.3491,118,856.5507,857.5656,858.0656,858.0656,859.8158,1547.6,859.8159,4,860.8157,3,24,114,17,1,1.2,0.7,Time
,,S16,611856,001,Female,30,2025-05-21_20h44.20.780,Serial_Dependence_U,2023.2.3,Win32,59.88023952,6599bf63f1a902105cb4f395,682cd3dfea4e15896da7c0a6,682dad9203229cb8b0066756,,,,,,,,,,,,860.8159,3,860.816,,,,863.3493,863.8491,862.8326,863.3492,861.8159,327,862.8326,863.8491,864.3491,864.3491,865.7993,1193.6,865.7994,4,866.7991,3,25,115,16,1,1,0.7,Time
,,S16,611856,001,Female,30,2025-05-21_20h44.20.780,Serial_Dependence_U,2023.2.3,Win32,59.88023952,6599bf63f1a902105cb4f395,682cd3dfea4e15896da7c0a6,682dad9203229cb8b0066756,,,,,,,,,,,,866.7992,3,866.7993,,,,869.7494,870.2491,869.2327,869.7493,867.8158,164,869.2327,870.2491,870.7492,870.7492,872.5492,1544.3,872.5493,4,873.5492,3,26,116,28,1,1.4,0.7,Time
,,S16,611856,001,Female,30,2025-05-21_20h44.20.780,Serial_Dependence_U,2023.2.3,Win32,59.88023952,6599bf63f1a902105cb4f395,682cd3dfea4e15896da7c0a6,682dad9203229cb8b0066756,,,,,,,,,,,,873.5494,3,873.5495,,,,876.0994,876.5993,875.5827,876.0993,874.566,280,875.5827,876.5993,877.0993,877.0993,878.7661,1418.5,878.7662,5,879.7659,3,27,117,26,1,1,0.7,Time
,,S16,611856,001,Female,30,2025-05-21_20h44.20.780,Serial_Dependence_U,2023.2.3,Win32,59.88023952,6599bf63f1a902105cb4f395,682cd3dfea4e15896da7c0a6,682dad9203229cb8b0066756,,,,,,,,,,,,879.7661,3,879.7661,,,,882.9161,883.4159,882.3995,882.9161,880.7828,320,882.3994,883.4159,883.916,883.916,885.866,1600.1,885.8662,3,886.8661,3,28,118,19,1,1.6,0.7,Time
,,S16,611856,001,Female,30,2025-05-21_20h44.20.780,Serial_Dependence_U,2023.2.3,Win32,59.88023952,6599bf63f1a902105cb4f395,682cd3dfea4e15896da7c0a6,682dad9203229cb8b0066756,,,,,,,,,,,,886.8663,3,886.8664,,,,889.6162,890.1161,889.0996,889.6162,887.8828,164,889.0996,890.1161,890.616,890.616,892.3495,1471.2,892.3496,4,893.3494,3,29,119,22,1,1.2,0.3,Time
,,S16,611856,001,Female,30,2025-05-21_20h44.20.780,Serial_Dependence_U,2023.2.3,Win32,59.88023952,6599bf63f1a902105cb4f395,682cd3dfea4e15896da7c0a6,682dad9203229cb8b0066756,,,,,,,,,,,,893.3496,4,896.5162,s,3.1365,,899.4664,899.9662,898.9497,899.4664,897.533,98,898.9497,899.9662,900.4662,900.4662,902.3664,1575.3,902.3664,4,903.3663,4,0,120,3,1,1.4,0.3,Time
,,S16,611856,001,Female,30,2025-05-21_20h44.20.780,Serial_Dependence_U,2023.2.3,Win32,59.88023952,6599bf63f1a902105cb4f395,682cd3dfea4e15896da7c0a6,682dad9203229cb8b0066756,,,,,,,,,,,,903.3665,4,903.3671,,,,905.7164,906.2162,905.1997,905.7164,904.3831,90,905.1997,906.2162,906.7163,906.7163,907.9998,960.4,907.9998,4,908.9997,4,1,121,25,1,0.8,0.7,Time
,,S16,611856,001,Female,30,2025-05-21_20h44.20.780,Serial_Dependence_U,2023.2.3,Win32,59.88023952,6599bf63f1a902105cb4f395,682cd3dfea4e15896da7c0a6,682dad9203229cb8b0066756,,,,,,,,,,,,908.9999,4,909.0001,,,,911.5499,912.0497,911.0348,911.5499,910.0166,223,911.0347,912.0497,912.5497,912.5497,914.3832,1439.6,914.3832,5,915.383,4,2,122,1,1,1,0.3,Time
,,S16,611856,001,Female,30,2025-05-21_20h44.20.780,Serial_Dependence_U,2023.2.3,Win32,59.88023952,6599bf63f1a902105cb4f395,682cd3dfea4e15896da7c0a6,682dad9203229cb8b0066756,,,,,,,,,,,,915.3832,4,915.3832,,,,917.7332,918.233,917.2165,917.7332,916.4,339,917.2165,918.233,918.7331,918.7331,919.9833,888.2,919.9833,4,920.9831,4,3,123,0,1,0.8,0.3,Time
,,S16,611856,001,Female,30,2025-05-21_20h44.20.780,Serial_Dependence_U,2023.2.3,Win32,59.88023952,6599bf63f1a902105cb4f395,682cd3dfea4e15896da7c0a6,682dad9203229cb8b0066756,,,,,,,,,,,,920.9833,4,920.9834,,,,923.7168,924.2164,923.2001,923.7166,921.9833,198,923.2001,924.2165,924.7165,924.7166,926.4166,1378.2,926.4167,4,927.4166,4,4,124,17,1,1.2,0.7,Time
,,S16,611856,001,Female,30,2025-05-21_20h44.20.780,Serial_Dependence_U,2023.2.3,Win32,59.88023952,6599bf63f1a902105cb4f395,682cd3dfea4e15896da7c0a6,682dad9203229cb8b0066756,,,,,,,,,,,,927.4167,4,927.4168,,,,930.3667,930.8664,929.8501,930.3666,928.4334,230,929.8501,930.8664,931.3667,931.3667,932.8862,1198.5,932.8864,2,933.8832,4,5,125,28,1,1.4,0.7,Time
,,S16,611856,001,Female,30,2025-05-21_20h44.20.780,Serial_Dependence_U,2023.2.3,Win32,59.88023952,6599bf63f1a902105cb4f395,682cd3dfea4e15896da7c0a6,682dad9203229cb8b0066756,,,,,,,,,,,,933.8834,4,933.8835,,,,936.8334,937.3333,936.3168,936.8334,934.9002,7,936.3168,937.3333,937.8333,937.8333,939.7002,1534.3,939.7003,4,940.7001,4,6,126,23,1,1.4,0.3,Time
,,S16,611856,001,Female,30,2025-05-21_20h44.20.780,Serial_Dependence_U,2023.2.3,Win32,59.88023952,6599bf63f1a902105cb4f395,682cd3dfea4e15896da7c0a6,682dad9203229cb8b0066756,,,,,,,,,,,,940.7002,4,940.7004,,,,943.6335,944.1335,943.117,943.6335,941.7003,327,943.1169,944.1335,944.6334,944.6334,946.2504,1410,946.2505,3,947.2501,4,7,127,8,1,1.4,0.7,Time
,,S16,611856,001,Female,30,2025-05-21_20h44.20.780,Serial_Dependence_U,2023.2.3,Win32,59.88023952,6599bf63f1a902105cb4f395,682cd3dfea4e15896da7c0a6,682dad9203229cb8b0066756,,,,,,,,,,,,947.2503,4,947.2505,,,,949.7837,950.2836,949.2669,949.7836,948.2504,27,949.2669,950.2836,950.7835,950.7835,952.1503,1027.6,952.1504,3,953.1502,4,8,128,16,1,1,0.7,Time
,,S16,611856,001,Female,30,2025-05-21_20h44.20.780,Serial_Dependence_U,2023.2.3,Win32,59.88023952,6599bf63f1a902105cb4f395,682cd3dfea4e15896da7c0a6,682dad9203229cb8b0066756,,,,,,,,,,,,953.1503,4,953.1504,,,,956.3005,956.8002,955.7838,956.3004,954.167,33,955.7837,956.8002,957.3003,957.3004,959.0504,1419.9,959.0505,2,960.0503,4,9,129,19,1,1.6,0.7,Time
,,S16,611856,001,Female,30,2025-05-21_20h44.20.780,Serial_Dependence_U,2023.2.3,Win32,59.88023952,6599bf63f1a902105cb4f395,682cd3dfea4e15896da7c0a6,682dad9203229cb8b0066756,,,,,,,,,,,,960.0505,4,960.0505,,,,962.4005,962.9003,961.8838,962.4005,961.0672,10,961.8838,962.9003,963.4004,963.4004,964.6006,916.5,964.6006,4,965.6003,4,10,130,5,1,0.8,0.7,Time
,,S16,611856,001,Female,30,2025-05-21_20h44.20.780,Serial_Dependence_U,2023.2.3,Win32,59.88023952,6599bf63f1a902105cb4f395,682cd3dfea4e15896da7c0a6,682dad9203229cb8b0066756,,,,,,,,,,,,965.6006,4,965.6006,,,,968.1339,968.6338,967.6173,968.1338,966.6006,288,967.6172,968.6338,969.1337,969.1337,970.4838,1039.6,970.484,3,971.4838,4,11,131,11,1,1,0.3,Time
,,S16,611856,001,Female,30,2025-05-21_20h44.20.780,Serial_Dependence_U,2023.2.3,Win32,59.88023952,6599bf63f1a902105cb4f395,682cd3dfea4e15896da7c0a6,682dad9203229cb8b0066756,,,,,,,,,,,,971.4839,4,971.484,,,,974.434,974.9339,973.9172,974.4339,972.5007,252,973.9172,974.9339,975.4339,975.4339,977.2006,1380.4,977.2006,3,978.2006,4,12,132,13,1,1.4,0.3,Time
,,S16,611856,001,Female,30,2025-05-21_20h44.20.780,Serial_Dependence_U,2023.2.3,Win32,59.88023952,6599bf63f1a902105cb4f395,682cd3dfea4e15896da7c0a6,682dad9203229cb8b0066756,,,,,,,,,,,,978.2007,4,978.2008,,,,980.9341,981.4339,980.4174,980.9341,979.2008,173,980.4174,981.4339,981.934,981.934,983.6674,1471.1,983.6674,4,984.6673,4,13,133,27,1,1.2,0.7,Time
,,S16,611856,001,Female,30,2025-05-21_20h44.20.780,Serial_Dependence_U,2023.2.3,Win32,59.88023952,6599bf63f1a902105cb4f395,682cd3dfea4e15896da7c0a6,682dad9203229cb8b0066756,,,,,,,,,,,,984.6675,4,984.6676,,,,987.8175,988.3173,987.3009,987.8174,985.6841,198,987.3009,988.3173,988.8173,988.8173,990.7342,1649.4,990.7342,3,991.734,4,14,134,24,1,1.6,0.3,Time
,,S16,611856,001,Female,30,2025-05-21_20h44.20.780,Serial_Dependence_U,2023.2.3,Win32,59.88023952,6599bf63f1a902105cb4f395,682cd3dfea4e15896da7c0a6,682dad9203229cb8b0066756,,,,,,,,,,,,991.7343,4,991.7343,,,,994.6845,995.1841,994.1676,994.6845,992.7509,181,994.1675,995.1841,995.6841,995.6841,997.5176,1560,997.5176,4,998.5174,4,15,135,18,1,1.4,0.7,Time
,,S16,611856,001,Female,30,2025-05-21_20h44.20.780,Serial_Dependence_U,2023.2.3,Win32,59.88023952,6599bf63f1a902105cb4f395,682cd3dfea4e15896da7c0a6,682dad9203229cb8b0066756,,,,,,,,,,,,998.5177,4,998.5177,,,,1001.0677,1001.5675,1000.551,1001.0676,999.5343,70,1000.551,1001.5675,1002.0676,1002.0676,1003.701,1343.5,1003.7011,5,1004.7009,4,16,136,21,1,1,0.3,Time
,,S16,611856,001,Female,30,2025-05-21_20h44.20.780,Serial_Dependence_U,2023.2.3,Win32,59.88023952,6599bf63f1a902105cb4f395,682cd3dfea4e15896da7c0a6,682dad9203229cb8b0066756,,,,,,,,,,,,1004.701,4,1004.7011,,,,1007.251,1007.751,1006.7345,1007.251,1005.7178,271,1006.7344,1007.751,1008.251,1008.251,1009.9177,1241.7,1009.9179,4,1010.9176,4,17,137,6,1,1,0.7,Time
,,S16,611856,001,Female,30,2025-05-21_20h44.20.780,Serial_Dependence_U,2023.2.3,Win32,59.88023952,6599bf63f1a902105cb4f395,682cd3dfea4e15896da7c0a6,682dad9203229cb8b0066756,,,,,,,,,,,,1010.9178,4,1010.9179,,,,1014.0512,1014.551,1013.5345,1014.0512,1011.9179,82,1013.5344,1014.551,1015.0511,1015.0511,1017.3179,1877.6,1017.318,4,1018.3178,4,18,138,29,1,1.6,0.7,Time
,,S16,611856,001,Female,30,2025-05-21_20h44.20.780,Serial_Dependence_U,2023.2.3,Win32,59.88023952,6599bf63f1a902105cb4f395,682cd3dfea4e15896da7c0a6,682dad9203229cb8b0066756,,,,,,,,,,,,1018.318,4,1018.3181,,,,1021.068,1021.5677,1020.5514,1021.0679,1019.3345,165,1020.5513,1021.5678,1022.0678,1022.0678,1023.8679,1476.8,1023.8681,4,1024.8678,4,19,139,22,1,1.2,0.3,Time
,,S16,611856,001,Female,30,2025-05-21_20h44.20.780,Serial_Dependence_U,2023.2.3,Win32,59.88023952,6599bf63f1a902105cb4f395,682cd3dfea4e15896da7c0a6,682dad9203229cb8b0066756,,,,,,,,,,,,1024.868,4,1024.8681,,,,1027.218,1027.7179,1026.7014,1027.218,1025.8847,60,1026.7014,1027.7179,1028.2178,1028.2178,1029.6346,1110.7,1029.6347,5,1030.6345,4,20,140,20,1,0.8,0.3,Time
,,S16,611856,001,Female,30,2025-05-21_20h44.20.780,Serial_Dependence_U,2023.2.3,Win32,59.88023952,6599bf63f1a902105cb4f395,682cd3dfea4e15896da7c0a6,682dad9203229cb8b0066756,,,,,,,,,,,,1030.6347,4,1030.6348,,,,1033.3848,1033.8847,1032.8681,1033.3848,1031.6514,33,1032.868,1033.8847,1034.3847,1034.3847,1036.4515,1591,1036.4515,5,1037.4513,4,21,141,12,1,1.2,0.3,Time
,,S16,611856,001,Female,30,2025-05-21_20h44.20.780,Serial_Dependence_U,2023.2.3,Win32,59.88023952,6599bf63f1a902105cb4f395,682cd3dfea4e15896da7c0a6,682dad9203229cb8b0066756,,,,,,,,,,,,1037.4515,4,1037.4515,,,,1040.6016,1041.1014,1040.0848,1040.6015,1038.4682,199,1040.0848,1041.1014,1041.6014,1041.6014,1043.7543,1900.1,1043.7544,4,1044.7513,4,22,142,4,1,1.6,0.3,Time
,,S16,611856,001,Female,30,2025-05-21_20h44.20.780,Serial_Dependence_U,2023.2.3,Win32,59.88023952,6599bf63f1a902105cb4f395,682cd3dfea4e15896da7c0a6,682dad9203229cb8b0066756,,,,,,,,,,,,1044.7515,4,1044.7516,,,,1047.8849,1048.3847,1047.371,1047.8849,1045.7683,256,1047.371,1048.3847,1048.8848,1048.8848,1050.7713,1587.1,1050.7714,3,1051.7682,4,23,143,14,1,1.6,0.3,Time
,,S16,611856,001,Female,30,2025-05-21_20h44.20.780,Serial_Dependence_U,2023.2.3,Win32,59.88023952,6599bf63f1a902105cb4f395,682cd3dfea4e15896da7c0a6,682dad9203229cb8b0066756,,,,,,,,,,,,1051.7684,4,1051.7684,,,,1054.5184,1055.0183,1054.0017,1054.5182,1052.785,35,1054.0016,1055.0183,1055.5182,1055.5182,1057.3018,1417.5,1057.3018,4,1058.3016,4,24,144,2,1,1.2,0.3,Time
,,S16,611856,001,Female,30,2025-05-21_20h44.20.780,Serial_Dependence_U,2023.2.3,Win32,59.88023952,6599bf63f1a902105cb4f395,682cd3dfea4e15896da7c0a6,682dad9203229cb8b0066756,,,,,,,,,,,,1058.3019,4,1058.3019,,,,1060.6518,1061.1516,1060.1351,1060.6517,1059.3185,331,1060.1351,1061.1516,1061.6516,1061.6517,1062.9685,1106.9,1062.9685,5,1063.9683,4,25,145,10,1,0.8,0.3,Time
,,S16,611856,001,Female,30,2025-05-21_20h44.20.780,Serial_Dependence_U,2023.2.3,Win32,59.88023952,6599bf63f1a902105cb4f395,682cd3dfea4e15896da7c0a6,682dad9203229cb8b0066756,,,,,,,,,,,,1063.9685,4,1063.9686,,,,1067.1186,1067.6184,1066.6018,1067.1185,1064.9852,130,1066.6018,1067.6184,1068.1184,1068.1185,1070.1351,1660.5,1070.1353,3,1071.1352,4,26,146,9,1,1.6,0.7,Time
,,S16,611856,001,Female,30,2025-05-21_20h44.20.780,Serial_Dependence_U,2023.2.3,Win32,59.88023952,6599bf63f1a902105cb4f395,682cd3dfea4e15896da7c0a6,682dad9203229cb8b0066756,,,,,,,,,,,,1071.1353,4,1071.1354,,,,1073.8853,1074.3852,1073.3687,1073.8853,1072.152,301,1073.3686,1074.3852,1074.8852,1074.8852,1076.7353,1641.9,1076.7354,5,1077.7352,4,27,147,7,1,1.2,0.7,Time
,,S16,611856,001,Female,30,2025-05-21_20h44.20.780,Serial_Dependence_U,2023.2.3,Win32,59.88023952,6599bf63f1a902105cb4f395,682cd3dfea4e15896da7c0a6,682dad9203229cb8b0066756,,,,,,,,,,,,1077.7354,4,1077.7355,,,,1080.0853,1080.5852,1079.5687,1080.0853,1078.7521,199,1079.5687,1080.5852,1081.0852,1081.0852,1082.4186,1053.3,1082.4186,5,1083.4185,4,28,148,15,1,0.8,0.7,Time
,,S16,611856,001,Female,30,2025-05-21_20h44.20.780,Serial_Dependence_U,2023.2.3,Win32,59.88023952,6599bf63f1a902105cb4f395,682cd3dfea4e15896da7c0a6,682dad9203229cb8b0066756,,,,,,,,,,,,1083.4186,4,1083.4187,,,,1085.9522,1086.452,1085.4354,1085.9521,1084.4188,254,1085.4354,1086.452,1086.952,1086.952,1088.0354,874.5,1088.0354,2,1089.0353,4,29,149,26,1,1,0.7,Time
,,S16,611856,001,Female,30,2025-05-21_20h44.20.780,Serial_Dependence_U,2023.2.3,Win32,59.88023952,6599bf63f1a902105cb4f395,682cd3dfea4e15896da7c0a6,682dad9203229cb8b0066756,,,,,,,,,,,,1089.0355,5,1091.2854,s,2.2285,,1093.8355,1094.3355,1093.3188,1093.8355,1092.3022,59,1093.3188,1094.3355,1094.8362,1094.8363,1095.9522,1045.9,1095.9523,3,1096.9521,5,0,150,16,1,1,0.7,Time
,,S16,611856,001,Female,30,2025-05-21_20h44.20.780,Serial_Dependence_U,2023.2.3,Win32,59.88023952,6599bf63f1a902105cb4f395,682cd3dfea4e15896da7c0a6,682dad9203229cb8b0066756,,,,,,,,,,,,1096.9523,5,1096.9528,,,,1099.2856,1099.7856,1098.7691,1099.2856,1097.9523,261,1098.769,1099.7856,1100.2855,1100.2855,1101.669,1132.9,1101.669,5,1102.6688,5,1,151,0,1,0.8,0.3,Time
,,S16,611856,001,Female,30,2025-05-21_20h44.20.780,Serial_Dependence_U,2023.2.3,Win32,59.88023952,6599bf63f1a902105cb4f395,682cd3dfea4e15896da7c0a6,682dad9203229cb8b0066756,,,,,,,,,,,,1102.669,5,1102.6692,,,,1105.4192,1105.9189,1104.9025,1105.419,1103.6857,3,1104.9025,1105.9189,1106.4189,1106.4189,1108.0357,1294.6,1108.0357,4,1109.0356,5,2,152,22,1,1.2,0.3,Time
,,S16,611856,001,Female,30,2025-05-21_20h44.20.780,Serial_Dependence_U,2023.2.3,Win32,59.88023952,6599bf63f1a902105cb4f395,682cd3dfea4e15896da7c0a6,682dad9203229cb8b0066756,,,,,,,,,,,,1109.0358,5,1109.0358,,,,1112.1858,1112.6856,1111.6691,1112.1857,1110.0525,12,1111.669,1112.6856,1113.1856,1113.1857,1114.9024,1474.9,1114.9026,2,1115.9024,5,3,153,29,1,1.6,0.7,Time
,,S16,611856,001,Female,30,2025-05-21_20h44.20.780,Serial_Dependence_U,2023.2.3,Win32,59.88023952,6599bf63f1a902105cb4f395,682cd3dfea4e15896da7c0a6,682dad9203229cb8b0066756,,,,,,,,,,,,1115.9025,5,1115.9026,,,,1118.4525,1118.9524,1117.9359,1118.4525,1116.9192,109,1117.9359,1118.9524,1119.4523,1119.4524,1120.9525,1165.6,1120.9527,4,1121.9524,5,4,154,11,1,1,0.3,Time
,,S16,611856,001,Female,30,2025-05-21_20h44.20.780,Serial_Dependence_U,2023.2.3,Win32,59.88023952,6599bf63f1a902105cb4f395,682cd3dfea4e15896da7c0a6,682dad9203229cb8b0066756,,,,,,,,,,,,1121.9526,5,1121.9527,,,,1125.1027,1125.6025,1124.586,1125.1026,1122.9693,280,1124.586,1125.6025,1126.1025,1126.1025,1128.2859,1857.1,1128.286,4,1129.2859,5,5,155,4,1,1.6,0.3,Time
,,S16,611856,001,Female,30,2025-05-21_20h44.20.780,Serial_Dependence_U,2023.2.3,Win32,59.88023952,6599bf63f1a902105cb4f395,682cd3dfea4e15896da7c0a6,682dad9203229cb8b0066756,,,,,,,,,,,,1129.286,5,1129.2861,,,,1132.2361,1132.7358,1131.7194,1132.2361,1130.3027,16,1131.7193,1132.7359,1133.236,1133.236,1135.086,1589.7,1135.086,4,1136.0859,5,6,156,28,1,1.4,0.7,Time
,,S16,611856,001,Female,30,2025-05-21_20h44.20.780,Serial_Dependence_U,2023.2.3,Win32,59.88023952,6599bf63f1a902105cb4f395,682cd3dfea4e15896da7c0a6,682dad9203229cb8b0066756,,,,,,,,,,,,1136.0861,5,1136.0863,,,,1139.0361,1139.536,1138.5194,1139.0361,1137.1028,20,1138.5194,1139.536,1140.036,1140.036,1141.7361,1427,1141.7362,3,1142.7361,5,7,157,13,1,1.4,0.3,Time
,,S16,611856,001,Female,30,2025-05-21_20h44.20.780,Serial_Dependence_U,2023.2.3,Win32,59.88023952,6599bf63f1a902105cb4f395,682cd3dfea4e15896da7c0a6,682dad9203229cb8b0066756,,,,,,,,,,,,1142.7363,5,1142.7363,,,,1145.8862,1146.3861,1145.3696,1145.8862,1143.7527,283,1145.3695,1146.3862,1146.8861,1146.8862,1148.8197,1643.6,1148.8198,3,1149.8194,5,8,158,14,1,1.6,0.3,Time
,,S16,611856,001,Female,30,2025-05-21_20h44.20.780,Serial_Dependence_U,2023.2.3,Win32,59.88023952,6599bf63f1a902105cb4f395,682cd3dfea4e15896da7c0a6,682dad9203229cb8b0066756,,,,,,,,,,,,1149.8196,5,1149.8197,,,,1152.353,1152.8528,1151.8363,1152.353,1150.8196,270,1151.8363,1152.8528,1153.3529,1153.3529,1155.0863,1383.9,1155.0863,5,1156.0863,5,9,159,1,1,1,0.3,Time
,,S16,611856,001,Female,30,2025-05-21_20h44.20.780,Serial_Dependence_U,2023.2.3,Win32,59.88023952,6599bf63f1a902105cb4f395,682cd3dfea4e15896da7c0a6,682dad9203229cb8b0066756,,,,,,,,,,,,1156.0864,5,1156.0865,,,,1158.8197,1159.3197,1158.3031,1158.8197,1157.0865,306,1158.3031,1159.3197,1159.8197,1159.8197,1161.503,1348.5,1161.5031,4,1162.503,5,10,160,17,1,1.2,0.7,Time
,,S16,611856,001,Female,30,2025-05-21_20h44.20.780,Serial_Dependence_U,2023.2.3,Win32,59.88023952,6599bf63f1a902105cb4f395,682cd3dfea4e15896da7c0a6,682dad9203229cb8b0066756,,,,,,,,,,,,1162.5031,5,1162.5032,,,,1165.0532,1165.553,1164.5366,1165.0531,1163.5198,150,1164.5365,1165.553,1166.053,1166.053,1167.7031,1391,1167.7032,5,1168.703,5,11,161,21,1,1,0.3,Time
,,S16,611856,001,Female,30,2025-05-21_20h44.20.780,Serial_Dependence_U,2023.2.3,Win32,59.88023952,6599bf63f1a902105cb4f395,682cd3dfea4e15896da7c0a6,682dad9203229cb8b0066756,,,,,,,,,,,,1168.7032,5,1168.7033,,,,1171.0532,1171.553,1170.5366,1171.0532,1169.7199,180,1170.5366,1171.553,1172.0531,1172.0531,1173.2199,836.1,1173.2199,3,1174.2198,5,12,162,5,1,0.8,0.7,Time
,,S16,611856,001,Female,30,2025-05-21_20h44.20.780,Serial_Dependence_U,2023.2.3,Win32,59.88023952,6599bf63f1a902105cb4f395,682cd3dfea4e15896da7c0a6,682dad9203229cb8b0066756,,,,,,,,,,,,1174.22,5,1174.2201,,,,1176.9533,1177.4531,1176.4366,1176.9533,1175.2199,77,1176.4366,1177.4532,1177.9532,1177.9532,1179.3699,1096,1179.37,2,1180.3699,5,13,163,12,1,1.2,0.3,Time
,,S16,611856,001,Female,30,2025-05-21_20h44.20.780,Serial_Dependence_U,2023.2.3,Win32,59.88023952,6599bf63f1a902105cb4f395,682cd3dfea4e15896da7c0a6,682dad9203229cb8b0066756,,,,,,,,,,,,1180.3701,5,1180.3702,,,,1183.32,1183.82,1182.8034,1183.32,1181.3868,37,1182.8034,1183.82,1184.3199,1184.3199,1186.2535,1589.6,1186.2537,4,1187.2533,5,14,164,23,1,1.4,0.3,Time
,,S16,611856,001,Female,30,2025-05-21_20h44.20.780,Serial_Dependence_U,2023.2.3,Win32,59.88023952,6599bf63f1a902105cb4f395,682cd3dfea4e15896da7c0a6,682dad9203229cb8b0066756,,,,,,,,,,,,1187.2535,5,1187.2536,,,,1190.3896,1190.8866,1189.8869,1190.3896,1188.2701,209,1189.8868,1190.8866,1191.3866,1191.3867,1193.5702,1802.8,1193.5702,4,1194.5701,5,15,165,19,1,1.6,0.7,Time
,,S16,611856,001,Female,30,2025-05-21_20h44.20.780,Serial_Dependence_U,2023.2.3,Win32,59.88023952,6599bf63f1a902105cb4f395,682cd3dfea4e15896da7c0a6,682dad9203229cb8b0066756,,,,,,,,,,,,1194.5702,5,1194.5703,,,,1197.5202,1198.02,1197.0036,1197.5202,1195.5869,220,1197.0035,1198.02,1198.52,1198.5201,1200.5536,1709.8,1200.5537,4,1201.5535,5,16,166,18,1,1.4,0.7,Time
,,S16,611856,001,Female,30,2025-05-21_20h44.20.780,Serial_Dependence_U,2023.2.3,Win32,59.88023952,6599bf63f1a902105cb4f395,682cd3dfea4e15896da7c0a6,682dad9203229cb8b0066756,,,,,,,,,,,,1201.5537,5,1201.5538,,,,1204.1037,1204.6035,1203.587,1204.1036,1202.5703,181,1203.587,1204.6035,1205.1036,1205.1036,1206.737,1395.7,1206.7371,5,1207.7369,5,17,167,6,1,1,0.7,Time
,,S16,611856,001,Female,30,2025-05-21_20h44.20.780,Serial_Dependence_U,2023.2.3,Win32,59.88023952,6599bf63f1a902105cb4f395,682cd3dfea4e15896da7c0a6,682dad9203229cb8b0066756,,,,,,,,,,,,1207.7371,5,1207.7372,,,,1210.087,1210.587,1209.5704,1210.087,1208.7538,214,1209.5704,1210.587,1211.0869,1211.0869,1212.6037,1175.4,1212.6038,5,1213.6036,5,18,168,25,1,0.8,0.7,Time
,,S16,611856,001,Female,30,2025-05-21_20h44.20.780,Serial_Dependence_U,2023.2.3,Win32,59.88023952,6599bf63f1a902105cb4f395,682cd3dfea4e15896da7c0a6,682dad9203229cb8b0066756,,,,,,,,,,,,1213.6038,5,1213.6039,,,,1216.7372,1217.237,1216.2205,1216.7372,1214.6039,49,1216.2205,1217.237,1217.737,1217.7371,1219.8539,1786.1,1219.854,4,1220.8538,5,19,169,9,1,1.6,0.7,Time
,,S16,611856,001,Female,30,2025-05-21_20h44.20.780,Serial_Dependence_U,2023.2.3,Win32,59.88023952,6599bf63f1a902105cb4f395,682cd3dfea4e15896da7c0a6,682dad9203229cb8b0066756,,,,,,,,,,,,1220.8539,5,1220.854,,,,1224.0041,1224.5039,1223.4873,1224.004,1221.8706,335,1223.4872,1224.5039,1225.0038,1225.0038,1227.1873,1839.6,1227.1874,4,1228.1876,5,20,170,24,1,1.6,0.3,Time
,,S16,611856,001,Female,30,2025-05-21_20h44.20.780,Serial_Dependence_U,2023.2.3,Win32,59.88023952,6599bf63f1a902105cb4f395,682cd3dfea4e15896da7c0a6,682dad9203229cb8b0066756,,,,,,,,,,,,1228.1877,5,1228.1879,,,,1230.7208,1231.2206,1230.2041,1230.7208,1229.1874,338,1230.2041,1231.2206,1231.7206,1231.7206,1233.4208,1336.8,1233.4208,5,1234.4205,5,21,171,26,1,1,0.7,Time
,,S16,611856,001,Female,30,2025-05-21_20h44.20.780,Serial_Dependence_U,2023.2.3,Win32,59.88023952,6599bf63f1a902105cb4f395,682cd3dfea4e15896da7c0a6,682dad9203229cb8b0066756,,,,,,,,,,,,1234.4208,5,1234.4208,,,,1237.3707,1237.8706,1236.8542,1237.3707,1235.4375,211,1236.8541,1237.8706,1238.3706,1238.3706,1240.5208,1833.7,1240.5209,5,1241.5206,5,22,172,3,1,1.4,0.3,Time
,,S16,611856,001,Female,30,2025-05-21_20h44.20.780,Serial_Dependence_U,2023.2.3,Win32,59.88023952,6599bf63f1a902105cb4f395,682cd3dfea4e15896da7c0a6,682dad9203229cb8b0066756,,,,,,,,,,,,1241.5208,5,1241.5209,,,,1244.2709,1244.7707,1243.7542,1244.2708,1242.5376,190,1243.7542,1244.7707,1245.2707,1245.2708,1247.0875,1501.9,1247.0876,4,1248.0874,5,23,173,27,1,1.2,0.7,Time
,,S16,611856,001,Female,30,2025-05-21_20h44.20.780,Serial_Dependence_U,2023.2.3,Win32,59.88023952,6599bf63f1a902105cb4f395,682cd3dfea4e15896da7c0a6,682dad9203229cb8b0066756,,,,,,,,,,,,1248.0876,5,1248.0877,,,,1250.4376,1250.9375,1249.921,1250.4375,1249.1044,18,1249.921,1250.9375,1251.4375,1251.4375,1253.1209,1358.6,1253.121,5,1254.1208,5,24,174,10,1,0.8,0.3,Time
,,S16,611856,001,Female,30,2025-05-21_20h44.20.780,Serial_Dependence_U,2023.2.3,Win32,59.88023952,6599bf63f1a902105cb4f395,682cd3dfea4e15896da7c0a6,682dad9203229cb8b0066756,,,,,,,,,,,,1254.1211,5,1254.1211,,,,1256.8544,1257.3543,1256.3378,1256.8544,1255.1211,332,1256.3377,1257.3543,1257.8542,1257.8542,1259.421,1281.8,1259.4211,4,1260.421,5,25,175,2,1,1.2,0.3,Time
,,S16,611856,001,Female,30,2025-05-21_20h44.20.780,Serial_Dependence_U,2023.2.3,Win32,59.88023952,6599bf63f1a902105cb4f395,682cd3dfea4e15896da7c0a6,682dad9203229cb8b0066756,,,,,,,,,,,,1260.4212,5,1260.4214,,,,1262.7544,1263.2543,1262.2378,1262.7544,1261.4211,153,1262.2378,1263.2543,1263.7544,1263.7544,1265.0378,950.5,1265.0379,4,1266.0377,5,26,176,15,1,0.8,0.7,Time
,,S16,611856,001,Female,30,2025-05-21_20h44.20.780,Serial_Dependence_U,2023.2.3,Win32,59.88023952,6599bf63f1a902105cb4f395,682cd3dfea4e15896da7c0a6,682dad9203229cb8b0066756,,,,,,,,,,,,1266.0379,5,1266.0379,,,,1268.3712,1268.8711,1267.8546,1268.3712,1267.0379,351,1267.8545,1268.8711,1269.371,1269.371,1270.6546,987,1270.6547,4,1271.6544,5,27,177,20,1,0.8,0.3,Time
,,S16,611856,001,Female,30,2025-05-21_20h44.20.780,Serial_Dependence_U,2023.2.3,Win32,59.88023952,6599bf63f1a902105cb4f395,682cd3dfea4e15896da7c0a6,682dad9203229cb8b0066756,,,,,,,,,,,,1271.6546,5,1271.6546,,,,1274.3879,1274.8877,1273.8713,1274.3879,1272.6546,346,1273.8712,1274.8877,1275.3878,1275.3878,1277.088,1411.7,1277.0881,4,1278.0878,5,28,178,7,1,1.2,0.7,Time
,,S16,611856,001,Female,30,2025-05-21_20h44.20.780,Serial_Dependence_U,2023.2.3,Win32,59.88023952,6599bf63f1a902105cb4f395,682cd3dfea4e15896da7c0a6,682dad9203229cb8b0066756,,,,,,,,,,,,1278.0881,5,1278.0881,,,,1281.0381,1281.538,1280.5213,1281.038,1279.1047,334,1280.5213,1281.538,1282.0378,1282.0379,1283.788,1432.8,1283.788,3,1284.7878,5,29,179,8,1,1.4,0.7,Time
,,S16,611856,001,Female,30,2025-05-21_20h44.20.780,Serial_Dependence_U,2023.2.3,Win32,59.88023952,6599bf63f1a902105cb4f395,682cd3dfea4e15896da7c0a6,682dad9203229cb8b0066756,,,,,,,,,,,,1284.788,6,1290.8214,s,6.0089,,1293.5715,1294.0713,1293.0548,1293.5715,1291.8383,109,1293.0547,1294.0713,1294.5714,1294.5714,1296.2716,1405.9,1296.2718,4,1297.2714,6,0,180,7,1,1.2,0.7,Time
,,S16,611856,001,Female,30,2025-05-21_20h44.20.780,Serial_Dependence_U,2023.2.3,Win32,59.88023952,6599bf63f1a902105cb4f395,682cd3dfea4e15896da7c0a6,682dad9203229cb8b0066756,,,,,,,,,,,,1297.2716,6,1297.2725,,,,1300.0217,1300.5215,1299.505,1300.0216,1298.2883,87,1299.505,1300.5215,1301.0215,1301.0215,1302.6382,1404.5,1302.6383,4,1303.6382,6,1,181,22,1,1.2,0.3,Time
,,S16,611856,001,Female,30,2025-05-21_20h44.20.780,Serial_Dependence_U,2023.2.3,Win32,59.88023952,6599bf63f1a902105cb4f395,682cd3dfea4e15896da7c0a6,682dad9203229cb8b0066756,,,,,,,,,,,,1303.6383,6,1303.6384,,,,1306.7884,1307.2882,1306.2717,1306.7884,1304.655,92,1306.2717,1307.2882,1307.7882,1307.7882,1309.7051,1696.2,1309.7052,4,1310.7051,6,2,182,9,1,1.6,0.7,Time
,,S16,611856,001,Female,30,2025-05-21_20h44.20.780,Serial_Dependence_U,2023.2.3,Win32,59.88023952,6599bf63f1a902105cb4f395,682cd3dfea4e15896da7c0a6,682dad9203229cb8b0066756,,,,,,,,,,,,1310.7052,6,1310.7052,,,,1313.2385,1313.7383,1312.7218,1313.2384,1311.7051,131,1312.7218,1313.7383,1314.2383,1314.2383,1315.9551,1477.1,1315.9552,5,1316.9551,6,3,183,16,1,1,0.7,Time
,,S16,611856,001,Female,30,2025-05-21_20h44.20.780,Serial_Dependence_U,2023.2.3,Win32,59.88023952,6599bf63f1a902105cb4f395,682cd3dfea4e15896da7c0a6,682dad9203229cb8b0066756,,,,,,,,,,,,1316.9552,6,1316.9553,,,,1320.1052,1320.6051,1319.5885,1320.1052,1317.9718,87,1319.5884,1320.6051,1321.1051,1321.1051,1322.7885,1448.6,1322.7885,2,1323.7885,6,4,184,19,1,1.6,0.7,Time
,,S16,611856,001,Female,30,2025-05-21_20h44.20.780,Serial_Dependence_U,2023.2.3,Win32,59.88023952,6599bf63f1a902105cb4f395,682cd3dfea4e15896da7c0a6,682dad9203229cb8b0066756,,,,,,,,,,,,1323.7887,6,1323.7888,,,,1326.5386,1327.0385,1326.0221,1326.5386,1324.8053,62,1326.022,1327.0385,1327.5386,1327.5386,1329.322,1495.8,1329.3221,4,1330.3218,6,5,185,27,1,1.2,0.7,Time
,,S16,611856,001,Female,30,2025-05-21_20h44.20.780,Serial_Dependence_U,2023.2.3,Win32,59.88023952,6599bf63f1a902105cb4f395,682cd3dfea4e15896da7c0a6,682dad9203229cb8b0066756,,,,,,,,,,,,1330.322,6,1330.3222,,,,1332.8721,1333.3718,1332.3554,1332.872,1331.3388,251,1332.3554,1333.3718,1333.8719,1333.8719,1335.672,1434.9,1335.6721,5,1336.672,6,6,186,6,1,1,0.7,Time
,,S16,611856,001,Female,30,2025-05-21_20h44.20.780,Serial_Dependence_U,2023.2.3,Win32,59.88023952,6599bf63f1a902105cb4f395,682cd3dfea4e15896da7c0a6,682dad9203229cb8b0066756,,,,,,,,,,,,1336.6721,6,1336.6722,,,,1339.8054,1340.3053,1339.2887,1339.8054,1337.6748,252,1339.2887,1340.3053,1340.8053,1340.8053,1342.8888,1717.5,1342.8889,4,1343.8887,6,7,187,4,1,1.6,0.3,Time
,,S16,611856,001,Female,30,2025-05-21_20h44.20.780,Serial_Dependence_U,2023.2.3,Win32,59.88023952,6599bf63f1a902105cb4f395,682cd3dfea4e15896da7c0a6,682dad9203229cb8b0066756,,,,,,,,,,,,1343.889,6,1343.889,,,,1346.2391,1346.7387,1345.7222,1346.239,1344.9055,71,1345.7221,1346.7387,1347.2388,1347.2388,1348.8888,1350.9,1348.889,5,1349.8888,6,8,188,25,1,0.8,0.7,Time
,,S16,611856,001,Female,30,2025-05-21_20h44.20.780,Serial_Dependence_U,2023.2.3,Win32,59.88023952,6599bf63f1a902105cb4f395,682cd3dfea4e15896da7c0a6,682dad9203229cb8b0066756,,,,,,,,,,,,1349.8891,6,1349.8892,,,,1352.6389,1353.1387,1352.1223,1352.6389,1350.9055,303,1352.1223,1353.1388,1353.6388,1353.6388,1355.4889,1533.6,1355.4891,4,1356.4889,6,9,189,12,1,1.2,0.3,Time
,,S16,611856,001,Female,30,2025-05-21_20h44.20.780,Serial_Dependence_U,2023.2.3,Win32,59.88023952,6599bf63f1a902105cb4f395,682cd3dfea4e15896da7c0a6,682dad9203229cb8b0066756,,,,,,,,,,,,1356.4891,6,1356.4892,,,,1359.6391,1360.1389,1359.1224,1359.639,1357.5058,124,1359.1224,1360.139,1360.6389,1360.6389,1362.6057,1727.9,1362.6058,4,1363.6056,6,10,190,29,1,1.6,0.7,Time
,,S16,611856,001,Female,30,2025-05-21_20h44.20.780,Serial_Dependence_U,2023.2.3,Win32,59.88023952,6599bf63f1a902105cb4f395,682cd3dfea4e15896da7c0a6,682dad9203229cb8b0066756,,,,,,,,,,,,1363.6058,6,1363.6059,,,,1366.7558,1367.2557,1366.2392,1366.7558,1364.6226,324,1366.2392,1367.2557,1367.7557,1367.7557,1369.5558,1476.4,1369.5559,2,1370.5557,6,11,191,14,1,1.6,0.3,Time
,,S16,611856,001,Female,30,2025-05-21_20h44.20.780,Serial_Dependence_U,2023.2.3,Win32,59.88023952,6599bf63f1a902105cb4f395,682cd3dfea4e15896da7c0a6,682dad9203229cb8b0066756,,,,,,,,,,,,1370.5559,6,1370.556,,,,1373.5058,1374.0057,1372.9892,1373.5058,1371.5725,201,1372.9892,1374.0057,1374.5057,1374.5057,1376.1755,1394.9,1376.1755,3,1377.1724,6,12,192,3,1,1.4,0.3,Time
,,S16,611856,001,Female,30,2025-05-21_20h44.20.780,Serial_Dependence_U,2023.2.3,Win32,59.88023952,6599bf63f1a902105cb4f395,682cd3dfea4e15896da7c0a6,682dad9203229cb8b0066756,,,,,,,,,,,,1377.1726,6,1377.1727,,,,1379.5084,1380.0058,1379.006,1379.5084,1378.1896,262,1379.0059,1380.0059,1380.5059,1380.5059,1382.0227,1234.9,1382.0228,5,1383.0226,6,13,193,20,1,0.8,0.3,Time
,,S16,611856,001,Female,30,2025-05-21_20h44.20.780,Serial_Dependence_U,2023.2.3,Win32,59.88023952,6599bf63f1a902105cb4f395,682cd3dfea4e15896da7c0a6,682dad9203229cb8b0066756,,,,,,,,,,,,1383.0227,6,1383.0228,,,,1385.3562,1385.8559,1384.842,1385.3561,1384.0394,258,1384.842,1385.8559,1386.356,1386.356,1387.9062,1126.1,1387.9063,5,1388.9059,6,14,194,15,1,0.8,0.7,Time
,,S16,611856,001,Female,30,2025-05-21_20h44.20.780,Serial_Dependence_U,2023.2.3,Win32,59.88023952,6599bf63f1a902105cb4f395,682cd3dfea4e15896da7c0a6,682dad9203229cb8b0066756,,,,,,,,,,,,1388.9062,6,1388.9062,,,,1392.0561,1392.5559,1391.5395,1392.0561,1389.9229,50,1391.5395,1392.5559,1393.056,1393.056,1395.0895,1721.4,1395.0895,4,1396.0894,6,15,195,24,1,1.6,0.3,Time
,,S16,611856,001,Female,30,2025-05-21_20h44.20.780,Serial_Dependence_U,2023.2.3,Win32,59.88023952,6599bf63f1a902105cb4f395,682cd3dfea4e15896da7c0a6,682dad9203229cb8b0066756,,,,,,,,,,,,1396.0896,6,1396.0896,,,,1398.8396,1399.3394,1398.3229,1398.8395,1397.1062,23,1398.3229,1399.3394,1399.8395,1399.8395,1401.7396,1654.8,1401.7396,5,1402.7394,6,16,196,17,1,1.2,0.7,Time
,,S16,611856,001,Female,30,2025-05-21_20h44.20.780,Serial_Dependence_U,2023.2.3,Win32,59.88023952,6599bf63f1a902105cb4f395,682cd3dfea4e15896da7c0a6,682dad9203229cb8b0066756,,,,,,,,,,,,1402.7396,6,1402.7397,,,,1405.6896,1406.1896,1405.1731,1405.6896,1403.7563,303,1405.1731,1406.1896,1406.6902,1406.6903,1408.6897,1680.5,1408.6898,4,1409.6895,6,17,197,18,1,1.4,0.7,Time
,,S16,611856,001,Female,30,2025-05-21_20h44.20.780,Serial_Dependence_U,2023.2.3,Win32,59.88023952,6599bf63f1a902105cb4f395,682cd3dfea4e15896da7c0a6,682dad9203229cb8b0066756,,,,,,,,,,,,1409.6897,6,1409.6898,,,,1412.023,1412.5229,1411.5064,1412.023,1410.6897,133,1411.5064,1412.5229,1413.023,1413.023,1414.6066,1361,1414.6067,5,1415.6063,6,18,198,10,1,0.8,0.3,Time
,,S16,611856,001,Female,30,2025-05-21_20h44.20.780,Serial_Dependence_U,2023.2.3,Win32,59.88023952,6599bf63f1a902105cb4f395,682cd3dfea4e15896da7c0a6,682dad9203229cb8b0066756,,,,,,,,,,,,1415.6065,6,1415.6066,,,,1418.5566,1419.0564,1418.0398,1418.5565,1416.6231,98,1418.0398,1419.0564,1419.5564,1419.5564,1421.4565,1626.4,1421.4566,4,1422.4564,6,19,199,8,1,1.4,0.7,Time
,,S16,611856,001,Female,30,2025-05-21_20h44.20.780,Serial_Dependence_U,2023.2.3,Win32,59.88023952,6599bf63f1a902105cb4f395,682cd3dfea4e15896da7c0a6,682dad9203229cb8b0066756,,,,,,,,,,,,1422.4565,6,1422.4567,,,,1425.0066,1425.5064,1424.4899,1425.0066,1423.4732,325,1424.4899,1425.5064,1426.0065,1426.0065,1427.6399,1462.8,1427.64,5,1428.6398,6,20,200,1,1,1,0.3,Time
,,S16,611856,001,Female,30,2025-05-21_20h44.20.780,Serial_Dependence_U,2023.2.3,Win32,59.88023952,6599bf63f1a902105cb4f395,682cd3dfea4e15896da7c0a6,682dad9203229cb8b0066756,,,,,,,,,,,,1428.64,6,1428.6401,,,,1431.5901,1432.0898,1431.0734,1431.59,1429.6566,172,1431.0733,1432.0898,1432.59,1432.59,1434.3067,1434.3,1434.3067,3,1435.3066,6,21,201,28,1,1.4,0.7,Time
,,S16,611856,001,Female,30,2025-05-21_20h44.20.780,Serial_Dependence_U,2023.2.3,Win32,59.88023952,6599bf63f1a902105cb4f395,682cd3dfea4e15896da7c0a6,682dad9203229cb8b0066756,,,,,,,,,,,,1435.3067,6,1435.3067,,,,1438.2403,1438.74,1437.7234,1438.2402,1436.3068,320,1437.7234,1438.74,1439.2399,1439.2399,1441.1235,1609.9,1441.1235,4,1442.1233,6,22,202,13,1,1.4,0.3,Time
,,S16,611856,001,Female,30,2025-05-21_20h44.20.780,Serial_Dependence_U,2023.2.3,Win32,59.88023952,6599bf63f1a902105cb4f395,682cd3dfea4e15896da7c0a6,682dad9203229cb8b0066756,,,,,,,,,,,,1442.1235,6,1442.1236,,,,1445.0569,1445.5567,1444.5402,1445.0568,1443.1236,281,1444.5402,1445.5568,1446.0567,1446.0567,1448.0236,1681.4,1448.0236,4,1449.0233,6,23,203,23,1,1.4,0.3,Time
,,S16,611856,001,Female,30,2025-05-21_20h44.20.780,Serial_Dependence_U,2023.2.3,Win32,59.88023952,6599bf63f1a902105cb4f395,682cd3dfea4e15896da7c0a6,682dad9203229cb8b0066756,,,,,,,,,,,,1449.0236,6,1449.0236,,,,1451.557,1452.0568,1451.0402,1451.557,1450.0237,117,1451.0402,1452.0568,1452.5568,1452.5568,1454.1903,1461,1454.1904,5,1455.1903,6,24,204,21,1,1,0.3,Time
,,S16,611856,001,Female,30,2025-05-21_20h44.20.780,Serial_Dependence_U,2023.2.3,Win32,59.88023952,6599bf63f1a902105cb4f395,682cd3dfea4e15896da7c0a6,682dad9203229cb8b0066756,,,,,,,,,,,,1455.1903,6,1455.1904,,,,1457.5404,1458.0402,1457.0238,1457.5404,1456.2071,107,1457.0237,1458.0402,1458.5402,1458.5403,1459.8903,1018.8,1459.8905,4,1460.8903,6,25,205,5,1,0.8,0.7,Time
,,S16,611856,001,Female,30,2025-05-21_20h44.20.780,Serial_Dependence_U,2023.2.3,Win32,59.88023952,6599bf63f1a902105cb4f395,682cd3dfea4e15896da7c0a6,682dad9203229cb8b0066756,,,,,,,,,,,,1460.8906,6,1460.8906,,,,1463.6238,1464.1237,1463.1071,1463.6238,1461.8905,45,1463.107,1464.1237,1464.6237,1464.6237,1466.2935,1482.9,1466.2935,4,1467.2904,6,26,206,2,1,1.2,0.3,Time
,,S16,611856,001,Female,30,2025-05-21_20h44.20.780,Serial_Dependence_U,2023.2.3,Win32,59.88023952,6599bf63f1a902105cb4f395,682cd3dfea4e15896da7c0a6,682dad9203229cb8b0066756,,,,,,,,,,,,1467.2905,6,1467.2906,,,,1469.6406,1470.1403,1469.1239,1469.6405,1468.3072,60,1469.1238,1470.1404,1470.6404,1470.6404,1471.2905,228.4,1471.2905,1,1472.2904,6,27,207,0,1,0.8,0.3,Time
,,S16,611856,001,Female,30,2025-05-21_20h44.20.780,Serial_Dependence_U,2023.2.3,Win32,59.88023952,6599bf63f1a902105cb4f395,682cd3dfea4e15896da7c0a6,682dad9203229cb8b0066756,,,,,,,,,,,,1472.2906,6,1472.2907,,,,1474.824,1475.3238,1474.3073,1474.824,1473.2907,337,1474.3072,1475.3238,1475.8238,1475.8238,1477.474,1253,1477.474,4,1478.4739,6,28,208,26,1,1,0.7,Time
,,S16,611856,001,Female,30,2025-05-21_20h44.20.780,Serial_Dependence_U,2023.2.3,Win32,59.88023952,6599bf63f1a902105cb4f395,682cd3dfea4e15896da7c0a6,682dad9203229cb8b0066756,,,,,,,,,,,,1478.474,6,1478.4741,,,,1481.0243,1481.5238,1480.5073,1481.0242,1479.4907,315,1480.5073,1481.5238,1482.0239,1482.0239,1483.9573,1594.4,1483.9574,5,1484.9573,6,29,209,11,1,1,0.3,Time
,,S16,611856,001,Female,30,2025-05-21_20h44.20.780,Serial_Dependence_U,2023.2.3,Win32,59.88023952,6599bf63f1a902105cb4f395,682cd3dfea4e15896da7c0a6,682dad9203229cb8b0066756,,,,,,,,,,,,1484.9574,7,1487.724,s,2.7369,,1490.6741,1491.174,1490.1575,1490.6741,1488.7409,327,1490.1575,1491.174,1491.6741,1491.6741,1493.5075,1496.9,1493.5075,4,1494.5074,7,0,210,13,1,1.4,0.3,Time
,,S16,611856,001,Female,30,2025-05-21_20h44.20.780,Serial_Dependence_U,2023.2.3,Win32,59.88023952,6599bf63f1a902105cb4f395,682cd3dfea4e15896da7c0a6,682dad9203229cb8b0066756,,,,,,,,,,,,1494.5077,7,1494.5082,,,,1497.4409,1497.9407,1496.9242,1497.4409,1495.5076,176,1496.9242,1497.9407,1498.4407,1498.4407,1500.5242,1719.9,1500.5243,4,1501.5241,7,1,211,28,1,1.4,0.7,Time
,,S16,611856,001,Female,30,2025-05-21_20h44.20.780,Serial_Dependence_U,2023.2.3,Win32,59.88023952,6599bf63f1a902105cb4f395,682cd3dfea4e15896da7c0a6,682dad9203229cb8b0066756,,,,,,,,,,,,1501.5243,7,1501.5244,,,,1503.8744,1504.3742,1503.3576,1503.8743,1502.5416,277,1503.3576,1504.3742,1504.8741,1504.8741,1506.4076,1194.7,1506.4077,5,1507.4075,7,2,212,25,1,0.8,0.7,Time
,,S16,611856,001,Female,30,2025-05-21_20h44.20.780,Serial_Dependence_U,2023.2.3,Win32,59.88023952,6599bf63f1a902105cb4f395,682cd3dfea4e15896da7c0a6,682dad9203229cb8b0066756,,,,,,,,,,,,1507.4077,7,1507.4078,,,,1509.7578,1510.2576,1509.241,1509.7577,1508.4244,30,1509.2409,1510.2576,1510.7576,1510.7576,1512.341,1304.1,1512.3411,5,1513.3409,7,3,213,0,1,0.8,0.3,Time
,,S16,611856,001,Female,30,2025-05-21_20h44.20.780,Serial_Dependence_U,2023.2.3,Win32,59.88023952,6599bf63f1a902105cb4f395,682cd3dfea4e15896da7c0a6,682dad9203229cb8b0066756,,,,,,,,,,,,1513.3411,7,1513.3412,,,,1515.8911,1516.3909,1515.3745,1515.8911,1514.3578,171,1515.3745,1516.3909,1516.8909,1516.8909,1518.3606,1181.8,1518.3607,4,1519.3577,7,4,214,1,1,1,0.3,Time
,,S16,611856,001,Female,30,2025-05-21_20h44.20.780,Serial_Dependence_U,2023.2.3,Win32,59.88023952,6599bf63f1a902105cb4f395,682cd3dfea4e15896da7c0a6,682dad9203229cb8b0066756,,,,,,,,,,,,1519.3579,7,1519.3579,,,,1522.3079,1522.8078,1521.7913,1522.3079,1520.3747,131,1521.7911,1522.8078,1523.3078,1523.3078,1525.3412,1772.8,1525.3413,4,1526.3411,7,5,215,3,1,1.4,0.3,Time
,,S16,611856,001,Female,30,2025-05-21_20h44.20.780,Serial_Dependence_U,2023.2.3,Win32,59.88023952,6599bf63f1a902105cb4f395,682cd3dfea4e15896da7c0a6,682dad9203229cb8b0066756,,,,,,,,,,,,1526.3413,7,1526.3413,,,,1528.6746,1529.1745,1528.1579,1528.6746,1527.3413,125,1528.1579,1529.1745,1529.6745,1529.6746,1531.3746,1488.8,1531.3747,5,1532.3745,7,6,216,20,1,0.8,0.3,Time
,,S16,611856,001,Female,30,2025-05-21_20h44.20.780,Serial_Dependence_U,2023.2.3,Win32,59.88023952,6599bf63f1a902105cb4f395,682cd3dfea4e15896da7c0a6,682dad9203229cb8b0066756,,,,,,,,,,,,1532.3747,7,1532.3748,,,,1535.5248,1536.0246,1535.0081,1535.5247,1533.3914,98,1535.0081,1536.0247,1536.525,1536.525,1538.5414,1716.1,1538.5415,4,1539.5413,7,7,217,19,1,1.6,0.7,Time
,,S16,611856,001,Female,30,2025-05-21_20h44.20.780,Serial_Dependence_U,2023.2.3,Win32,59.88023952,6599bf63f1a902105cb4f395,682cd3dfea4e15896da7c0a6,682dad9203229cb8b0066756,,,,,,,,,,,,1539.5415,7,1539.5415,,,,1542.2916,1542.7914,1541.7749,1542.2915,1540.5582,275,1541.7749,1542.7914,1543.2914,1543.2914,1545.1582,1627.7,1545.1583,5,1546.158,7,8,218,2,1,1.2,0.3,Time
,,S16,611856,001,Female,30,2025-05-21_20h44.20.780,Serial_Dependence_U,2023.2.3,Win32,59.88023952,6599bf63f1a902105cb4f395,682cd3dfea4e15896da7c0a6,682dad9203229cb8b0066756,,,,,,,,,,,,1546.1583,7,1546.1584,,,,1548.7082,1549.2081,1548.1916,1548.7082,1547.175,257,1548.1915,1549.2081,1549.7081,1549.7081,1551.1085,1141.9,1551.1085,4,1552.1082,7,9,219,11,1,1,0.3,Time
,,S16,611856,001,Female,30,2025-05-21_20h44.20.780,Serial_Dependence_U,2023.2.3,Win32,59.88023952,6599bf63f1a902105cb4f395,682cd3dfea4e15896da7c0a6,682dad9203229cb8b0066756,,,,,,,,,,,,1552.1084,7,1552.1084,,,,1555.0583,1555.5582,1554.5416,1555.0583,1553.125,52,1554.5416,1555.5582,1556.0582,1556.0582,1557.8083,1479.5,1557.8084,4,1558.8083,7,10,220,23,1,1.4,0.3,Time
,,S16,611856,001,Female,30,2025-05-21_20h44.20.780,Serial_Dependence_U,2023.2.3,Win32,59.88023952,6599bf63f1a902105cb4f395,682cd3dfea4e15896da7c0a6,682dad9203229cb8b0066756,,,,,,,,,,,,1558.8084,7,1558.8085,,,,1561.9585,1562.4582,1561.4417,1561.9585,1559.8251,254,1561.4417,1562.4582,1562.9582,1562.9583,1564.5584,1297.8,1564.5584,2,1565.5583,7,11,221,29,1,1.6,0.7,Time
,,S16,611856,001,Female,30,2025-05-21_20h44.20.780,Serial_Dependence_U,2023.2.3,Win32,59.88023952,6599bf63f1a902105cb4f395,682cd3dfea4e15896da7c0a6,682dad9203229cb8b0066756,,,,,,,,,,,,1565.5584,7,1565.5585,,,,1568.4918,1568.9917,1567.9751,1568.4918,1566.5586,198,1567.9751,1568.9917,1569.4917,1569.4917,1571.1918,1388,1571.192,3,1572.1918,7,12,222,8,1,1.4,0.7,Time
,,S16,611856,001,Female,30,2025-05-21_20h44.20.780,Serial_Dependence_U,2023.2.3,Win32,59.88023952,6599bf63f1a902105cb4f395,682cd3dfea4e15896da7c0a6,682dad9203229cb8b0066756,,,,,,,,,,,,1572.1919,7,1572.192,,,,1574.7419,1575.2418,1574.2252,1574.7418,1573.2086,147,1574.2252,1575.2418,1575.7418,1575.7418,1577.3252,1250.1,1577.3253,4,1578.3251,7,13,223,21,1,1,0.3,Time
,,S16,611856,001,Female,30,2025-05-21_20h44.20.780,Serial_Dependence_U,2023.2.3,Win32,59.88023952,6599bf63f1a902105cb4f395,682cd3dfea4e15896da7c0a6,682dad9203229cb8b0066756,,,,,,,,,,,,1578.3253,7,1578.3254,,,,1581.4587,1581.9586,1580.9421,1581.4586,1579.3254,117,1580.9421,1581.9586,1582.4585,1582.4586,1584.3254,1552.6,1584.3255,3,1585.3253,7,14,224,4,1,1.6,0.3,Time
,,S16,611856,001,Female,30,2025-05-21_20h44.20.780,Serial_Dependence_U,2023.2.3,Win32,59.88023952,6599bf63f1a902105cb4f395,682cd3dfea4e15896da7c0a6,682dad9203229cb8b0066756,,,,,,,,,,,,1585.3255,7,1585.3255,,,,1587.6588,1588.1586,1587.1422,1587.6588,1586.3254,337,1587.1422,1588.1587,1588.6586,1588.6586,1589.9283,1017,1589.9284,4,1590.9254,7,15,225,15,1,0.8,0.7,Time
,,S16,611856,001,Female,30,2025-05-21_20h44.20.780,Serial_Dependence_U,2023.2.3,Win32,59.88023952,6599bf63f1a902105cb4f395,682cd3dfea4e15896da7c0a6,682dad9203229cb8b0066756,,,,,,,,,,,,1590.9256,7,1590.9256,,,,1593.4755,1593.9754,1592.9588,1593.4755,1591.9422,195,1592.9588,1593.9754,1594.4754,1594.4754,1595.8755,1181.6,1595.8756,4,1596.8755,7,16,226,6,1,1,0.7,Time
,,S16,611856,001,Female,30,2025-05-21_20h44.20.780,Serial_Dependence_U,2023.2.3,Win32,59.88023952,6599bf63f1a902105cb4f395,682cd3dfea4e15896da7c0a6,682dad9203229cb8b0066756,,,,,,,,,,,,1596.8758,7,1596.8758,,,,1599.6256,1600.1254,1599.109,1599.6255,1597.8923,306,1599.1089,1600.1254,1600.6254,1600.6254,1602.1257,1291.9,1602.1257,4,1603.1254,7,17,227,17,1,1.2,0.7,Time
,,S16,611856,001,Female,30,2025-05-21_20h44.20.780,Serial_Dependence_U,2023.2.3,Win32,59.88023952,6599bf63f1a902105cb4f395,682cd3dfea4e15896da7c0a6,682dad9203229cb8b0066756,,,,,,,,,,,,1603.1256,7,1603.1257,,,,1606.2757,1606.7754,1605.7591,1606.2757,1604.1423,290,1605.759,1606.7755,1607.2755,1607.2755,1609.3423,1827.5,1609.3424,4,1610.3422,7,18,228,9,1,1.6,0.7,Time
,,S16,611856,001,Female,30,2025-05-21_20h44.20.780,Serial_Dependence_U,2023.2.3,Win32,59.88023952,6599bf63f1a902105cb4f395,682cd3dfea4e15896da7c0a6,682dad9203229cb8b0066756,,,,,,,,,,,,1610.3424,7,1610.3425,,,,1613.4925,1613.9923,1612.9758,1613.4925,1611.3591,182,1612.9758,1613.9923,1614.4924,1614.4924,1616.7925,1979,1616.7926,4,1617.7924,7,19,229,14,1,1.6,0.3,Time
,,S16,611856,001,Female,30,2025-05-21_20h44.20.780,Serial_Dependence_U,2023.2.3,Win32,59.88023952,6599bf63f1a902105cb4f395,682cd3dfea4e15896da7c0a6,682dad9203229cb8b0066756,,,,,,,,,,,,1617.7926,7,1617.7926,,,,1620.3426,1620.8424,1619.8258,1620.3425,1618.8092,59,1619.8258,1620.8424,1621.3424,1621.3424,1622.9093,1312.5,1622.9094,5,1623.9091,7,20,230,16,1,1,0.7,Time
,,S16,611856,001,Female,30,2025-05-21_20h44.20.780,Serial_Dependence_U,2023.2.3,Win32,59.88023952,6599bf63f1a902105cb4f395,682cd3dfea4e15896da7c0a6,682dad9203229cb8b0066756,,,,,,,,,,,,1623.9093,7,1623.9093,,,,1626.2593,1626.7592,1625.7426,1626.2593,1624.9259,279,1625.7426,1626.7592,1627.2592,1627.2592,1628.5593,972.9,1628.5594,4,1629.5592,7,21,231,10,1,0.8,0.3,Time
,,S16,611856,001,Female,30,2025-05-21_20h44.20.780,Serial_Dependence_U,2023.2.3,Win32,59.88023952,6599bf63f1a902105cb4f395,682cd3dfea4e15896da7c0a6,682dad9203229cb8b0066756,,,,,,,,,,,,1629.5594,7,1629.5594,,,,1632.3093,1632.8092,1631.7927,1632.3093,1630.5761,17,1631.7927,1632.8092,1633.3092,1633.3093,1635.2594,1684.6,1635.2594,5,1636.2593,7,22,232,27,1,1.2,0.7,Time
,,S16,611856,001,Female,30,2025-05-21_20h44.20.780,Serial_Dependence_U,2023.2.3,Win32,59.88023952,6599bf63f1a902105cb4f395,682cd3dfea4e15896da7c0a6,682dad9203229cb8b0066756,,,,,,,,,,,,1636.2595,7,1636.2595,,,,1639.1928,1639.6928,1638.6761,1639.1928,1637.2597,91,1638.6761,1639.6928,1640.1927,1640.1927,1642.0761,1639.8,1642.0762,4,1643.0761,7,23,233,18,1,1.4,0.7,Time
,,S16,611856,001,Female,30,2025-05-21_20h44.20.780,Serial_Dependence_U,2023.2.3,Win32,59.88023952,6599bf63f1a902105cb4f395,682cd3dfea4e15896da7c0a6,682dad9203229cb8b0066756,,,,,,,,,,,,1643.0762,7,1643.0763,,,,1645.8262,1646.3261,1645.3096,1645.8261,1644.0929,67,1645.3095,1646.3261,1646.826,1646.826,1648.4096,1279.6,1648.4097,4,1649.4095,7,24,234,12,1,1.2,0.3,Time
,,S16,611856,001,Female,30,2025-05-21_20h44.20.780,Serial_Dependence_U,2023.2.3,Win32,59.88023952,6599bf63f1a902105cb4f395,682cd3dfea4e15896da7c0a6,682dad9203229cb8b0066756,,,,,,,,,,,,1649.4096,7,1649.4097,,,,1652.1597,1652.6595,1651.6432,1652.1596,1650.4262,107,1651.6431,1652.6595,1653.1595,1653.1595,1654.7263,1306.8,1654.7263,4,1655.7262,7,25,235,7,1,1.2,0.7,Time
,,S16,611856,001,Female,30,2025-05-21_20h44.20.780,Serial_Dependence_U,2023.2.3,Win32,59.88023952,6599bf63f1a902105cb4f395,682cd3dfea4e15896da7c0a6,682dad9203229cb8b0066756,,,,,,,,,,,,1655.7264,7,1655.7264,,,,1658.0763,1658.5763,1657.5597,1658.0763,1656.743,227,1657.5596,1658.5763,1659.0763,1659.0763,1660.3097,1027,1660.3098,4,1661.3095,7,26,236,5,1,0.8,0.7,Time
,,S16,611856,001,Female,30,2025-05-21_20h44.20.780,Serial_Dependence_U,2023.2.3,Win32,59.88023952,6599bf63f1a902105cb4f395,682cd3dfea4e15896da7c0a6,682dad9203229cb8b0066756,,,,,,,,,,,,1661.3097,7,1661.3099,,,,1664.0598,1664.5596,1663.5432,1664.0598,1662.3265,18,1663.5432,1664.5596,1665.0597,1665.0597,1666.8458,1519.6,1666.846,4,1667.843,7,27,237,22,1,1.2,0.3,Time
,,S16,611856,001,Female,30,2025-05-21_20h44.20.780,Serial_Dependence_U,2023.2.3,Win32,59.88023952,6599bf63f1a902105cb4f395,682cd3dfea4e15896da7c0a6,682dad9203229cb8b0066756,,,,,,,,,,,,1667.8433,7,1667.8433,,,,1670.3933,1670.8931,1669.8766,1670.3932,1668.8599,256,1669.8765,1670.8931,1671.393,1671.3931,1672.9599,1331.3,1672.9599,5,1673.9598,7,28,238,26,1,1,0.7,Time
,,S16,611856,001,Female,30,2025-05-21_20h44.20.780,Serial_Dependence_U,2023.2.3,Win32,59.88023952,6599bf63f1a902105cb4f395,682cd3dfea4e15896da7c0a6,682dad9203229cb8b0066756,,,,,,,,,,,,1673.96,7,1673.96,,,,1677.0933,1677.5932,1676.5767,1677.0933,1674.9601,188,1676.5766,1677.5932,1678.0931,1678.0931,1680.0933,1725.9,1680.0934,4,1681.0931,7,29,239,24,1,1.6,0.3,Time
,,S16,611856,001,Female,30,2025-05-21_20h44.20.780,Serial_Dependence_U,2023.2.3,Win32,59.88023952,6599bf63f1a902105cb4f395,682cd3dfea4e15896da7c0a6,682dad9203229cb8b0066756,,,,,,,,,,,,1681.0933,8,1683.9099,s,2.7961,,1686.4433,1686.9433,1685.9267,1686.4433,1684.9101,146,1685.9267,1686.9433,1687.4434,1687.4434,1689.1101,1458.7,1689.1102,5,1690.11,8,0,240,11,1,1,0.3,Time
,,S16,611856,001,Female,30,2025-05-21_20h44.20.780,Serial_Dependence_U,2023.2.3,Win32,59.88023952,6599bf63f1a902105cb4f395,682cd3dfea4e15896da7c0a6,682dad9203229cb8b0066756,,,,,,,,,,,,1690.1102,8,1690.1107,,,,1693.2435,1693.7433,1692.7269,1693.2435,1691.1101,226,1692.7269,1693.7433,1694.2434,1694.2435,1696.3602,1861.1,1696.3603,4,1697.3601,8,1,241,14,1,1.6,0.3,Time
,,S16,611856,001,Female,30,2025-05-21_20h44.20.780,Serial_Dependence_U,2023.2.3,Win32,59.88023952,6599bf63f1a902105cb4f395,682cd3dfea4e15896da7c0a6,682dad9203229cb8b0066756,,,,,,,,,,,,1697.3603,8,1697.3604,,,,1700.5103,1701.0101,1699.9936,1700.5102,1698.377,5,1699.9936,1701.0101,1701.5102,1701.5102,1703.5131,1813.9,1703.5131,4,1704.5101,8,2,242,29,1,1.6,0.7,Time
,,S16,611856,001,Female,30,2025-05-21_20h44.20.780,Serial_Dependence_U,2023.2.3,Win32,59.88023952,6599bf63f1a902105cb4f395,682cd3dfea4e15896da7c0a6,682dad9203229cb8b0066756,,,,,,,,,,,,1704.5104,8,1704.5104,,,,1706.8436,1707.3436,1706.3271,1706.8436,1705.5104,352,1706.327,1707.3437,1707.8435,1707.8436,1709.277,1225.8,1709.2771,5,1710.277,8,3,243,0,1,0.8,0.3,Time
,,S16,611856,001,Female,30,2025-05-21_20h44.20.780,Serial_Dependence_U,2023.2.3,Win32,59.88023952,6599bf63f1a902105cb4f395,682cd3dfea4e15896da7c0a6,682dad9203229cb8b0066756,,,,,,,,,,,,1710.2772,8,1710.2772,,,,1712.8271,1713.327,1712.3104,1712.8271,1711.2937,262,1712.3104,1713.327,1713.827,1713.827,1714.9466,994.4,1714.9468,3,1715.9437,8,4,244,21,1,1,0.3,Time
,,S16,611856,001,Female,30,2025-05-21_20h44.20.780,Serial_Dependence_U,2023.2.3,Win32,59.88023952,6599bf63f1a902105cb4f395,682cd3dfea4e15896da7c0a6,682dad9203229cb8b0066756,,,,,,,,,,,,1715.9438,8,1715.9439,,,,1718.8938,1719.3937,1718.3771,1718.8938,1716.9605,88,1718.3771,1719.3937,1719.8937,1719.8937,1721.4438,1246.6,1721.4438,2,1722.4437,8,5,245,13,1,1.4,0.3,Time
,,S16,611856,001,Female,30,2025-05-21_20h44.20.780,Serial_Dependence_U,2023.2.3,Win32,59.88023952,6599bf63f1a902105cb4f395,682cd3dfea4e15896da7c0a6,682dad9203229cb8b0066756,,,,,,,,,,,,1722.444,8,1722.444,,,,1725.394,1725.8938,1724.8773,1725.3939,1723.4606,71,1724.8772,1725.8938,1726.3938,1726.3938,1728.2105,1550.9,1728.2107,4,1729.2105,8,6,246,8,1,1.4,0.7,Time
,,S16,611856,001,Female,30,2025-05-21_20h44.20.780,Serial_Dependence_U,2023.2.3,Win32,59.88023952,6599bf63f1a902105cb4f395,682cd3dfea4e15896da7c0a6,682dad9203229cb8b0066756,,,,,,,,,,,,1729.2107,8,1729.2107,,,,1731.944,1732.4439,1731.4274,1731.944,1730.2107,347,1731.4273,1732.4439,1732.9439,1732.9439,1734.4772,1133.6,1734.4772,2,1735.4773,8,7,247,17,1,1.2,0.7,Time
,,S16,611856,001,Female,30,2025-05-21_20h44.20.780,Serial_Dependence_U,2023.2.3,Win32,59.88023952,6599bf63f1a902105cb4f395,682cd3dfea4e15896da7c0a6,682dad9203229cb8b0066756,,,,,,,,,,,,1735.4776,8,1735.4776,,,,1738.0108,1738.5106,1737.4941,1738.0108,1736.4775,29,1737.4941,1738.5107,1739.0106,1739.0106,1741.0274,1623.3,1741.0274,5,1742.0274,8,8,248,6,1,1,0.7,Time
,,S16,611856,001,Female,30,2025-05-21_20h44.20.780,Serial_Dependence_U,2023.2.3,Win32,59.88023952,6599bf63f1a902105cb4f395,682cd3dfea4e15896da7c0a6,682dad9203229cb8b0066756,,,,,,,,,,,,1742.0276,8,1742.0278,,,,1744.3775,1744.8774,1743.8607,1744.3774,1743.0442,115,1743.8607,1744.8774,1745.3774,1745.3774,1746.7108,1007.6,1746.7109,4,1747.7108,8,9,249,15,1,0.8,0.7,Time
,,S16,611856,001,Female,30,2025-05-21_20h44.20.780,Serial_Dependence_U,2023.2.3,Win32,59.88023952,6599bf63f1a902105cb4f395,682cd3dfea4e15896da7c0a6,682dad9203229cb8b0066756,,,,,,,,,,,,1747.711,8,1747.7111,,,,1750.661,1751.1608,1750.1443,1750.661,1748.7275,103,1750.1442,1751.1608,1751.6608,1751.6608,1753.711,1707.9,1753.7111,4,1754.7108,8,10,250,18,1,1.4,0.7,Time
,,S16,611856,001,Female,30,2025-05-21_20h44.20.780,Serial_Dependence_U,2023.2.3,Win32,59.88023952,6599bf63f1a902105cb4f395,682cd3dfea4e15896da7c0a6,682dad9203229cb8b0066756,,,,,,,,,,,,1754.711,8,1754.7111,,,,1757.0637,1757.5608,1756.5444,1757.0637,1755.7277,326,1756.5444,1757.5608,1758.0609,1758.0609,1759.3443,1260.6,1759.3444,5,1760.3442,8,11,251,10,1,0.8,0.3,Time
,,S16,611856,001,Female,30,2025-05-21_20h44.20.780,Serial_Dependence_U,2023.2.3,Win32,59.88023952,6599bf63f1a902105cb4f395,682cd3dfea4e15896da7c0a6,682dad9203229cb8b0066756,,,,,,,,,,,,1760.3445,8,1760.3445,,,,1763.0945,1763.5943,1762.5777,1763.0944,1761.3611,39,1762.5777,1763.5943,1764.0943,1764.0943,1765.9111,1460,1765.9111,4,1766.911,8,12,252,2,1,1.2,0.3,Time
,,S16,611856,001,Female,30,2025-05-21_20h44.20.780,Serial_Dependence_U,2023.2.3,Win32,59.88023952,6599bf63f1a902105cb4f395,682cd3dfea4e15896da7c0a6,682dad9203229cb8b0066756,,,,,,,,,,,,1766.9111,8,1766.9112,,,,1769.6611,1770.161,1769.1445,1769.6611,1767.9279,140,1769.1444,1770.161,1770.661,1770.6611,1772.3446,1366.8,1772.3447,4,1773.3444,8,13,253,27,1,1.2,0.7,Time
,,S16,611856,001,Female,30,2025-05-21_20h44.20.780,Serial_Dependence_U,2023.2.3,Win32,59.88023952,6599bf63f1a902105cb4f395,682cd3dfea4e15896da7c0a6,682dad9203229cb8b0066756,,,,,,,,,,,,1773.3446,8,1773.3447,,,,1775.6779,1776.1778,1775.1613,1775.6779,1774.3447,96,1775.1613,1776.1779,1776.6778,1776.6778,1778.0445,1126.1,1778.0446,5,1779.0445,8,14,254,20,1,0.8,0.3,Time
,,S16,611856,001,Female,30,2025-05-21_20h44.20.780,Serial_Dependence_U,2023.2.3,Win32,59.88023952,6599bf63f1a902105cb4f395,682cd3dfea4e15896da7c0a6,682dad9203229cb8b0066756,,,,,,,,,,,,1779.0448,8,1779.0449,,,,1782.178,1782.6778,1781.6613,1782.178,1780.0448,140,1781.6612,1782.6778,1783.1778,1783.1778,1785.1281,1766.5,1785.1281,4,1786.128,8,15,255,19,1,1.6,0.7,Time
,,S16,611856,001,Female,30,2025-05-21_20h44.20.780,Serial_Dependence_U,2023.2.3,Win32,59.88023952,6599bf63f1a902105cb4f395,682cd3dfea4e15896da7c0a6,682dad9203229cb8b0066756,,,,,,,,,,,,1786.1282,8,1786.1282,,,,1789.2782,1789.7779,1788.7614,1789.2782,1787.1448,272,1788.7614,1789.7779,1790.278,1790.278,1792.2115,1625.8,1792.2116,3,1793.2114,8,16,256,24,1,1.6,0.3,Time
,,S16,611856,001,Female,30,2025-05-21_20h44.20.780,Serial_Dependence_U,2023.2.3,Win32,59.88023952,6599bf63f1a902105cb4f395,682cd3dfea4e15896da7c0a6,682dad9203229cb8b0066756,,,,,,,,,,,,1793.2116,8,1793.2116,,,,1796.1616,1796.6613,1795.645,1796.1615,1794.2282,275,1795.6449,1796.6613,1797.1615,1797.1615,1798.8783,1433.5,1798.8784,3,1799.8781,8,17,257,23,1,1.4,0.3,Time
,,S16,611856,001,Female,30,2025-05-21_20h44.20.780,Serial_Dependence_U,2023.2.3,Win32,59.88023952,6599bf63f1a902105cb4f395,682cd3dfea4e15896da7c0a6,682dad9203229cb8b0066756,,,,,,,,,,,,1799.8783,8,1799.8783,,,,1802.4116,1802.9115,1801.895,1802.4116,1800.8783,259,1801.895,1802.9115,1803.4114,1803.4115,1804.8117,1092.9,1804.8117,4,1805.8116,8,18,258,16,1,1,0.7,Time
,,S16,611856,001,Female,30,2025-05-21_20h44.20.780,Serial_Dependence_U,2023.2.3,Win32,59.88023952,6599bf63f1a902105cb4f395,682cd3dfea4e15896da7c0a6,682dad9203229cb8b0066756,,,,,,,,,,,,1805.8118,8,1805.8118,,,,1808.545,1809.0449,1808.0284,1808.545,1806.8117,79,1808.0283,1809.0449,1809.5448,1809.5449,1811.2617,1425.5,1811.2618,4,1812.2616,8,19,259,7,1,1.2,0.7,Time
,,S16,611856,001,Female,30,2025-05-21_20h44.20.780,Serial_Dependence_U,2023.2.3,Win32,59.88023952,6599bf63f1a902105cb4f395,682cd3dfea4e15896da7c0a6,682dad9203229cb8b0066756,,,,,,,,,,,,1812.2618,8,1812.2619,,,,1815.4118,1815.9117,1814.8952,1815.4118,1813.2785,49,1814.8951,1815.9117,1816.4117,1816.4117,1818.2618,1566.9,1818.2618,3,1819.2617,8,20,260,4,1,1.6,0.3,Time
,,S16,611856,001,Female,30,2025-05-21_20h44.20.780,Serial_Dependence_U,2023.2.3,Win32,59.88023952,6599bf63f1a902105cb4f395,682cd3dfea4e15896da7c0a6,682dad9203229cb8b0066756,,,,,,,,,,,,1819.2619,8,1819.2619,,,,1822.0119,1822.5117,1821.4954,1822.0118,1820.2786,34,1821.4953,1822.5117,1823.0117,1823.0118,1824.5619,1424.5,1824.562,4,1825.5618,8,21,261,12,1,1.2,0.3,Time
,,S16,611856,001,Female,30,2025-05-21_20h44.20.780,Serial_Dependence_U,2023.2.3,Win32,59.88023952,6599bf63f1a902105cb4f395,682cd3dfea4e15896da7c0a6,682dad9203229cb8b0066756,,,,,,,,,,,,1825.5619,8,1825.562,,,,1828.0953,1828.5953,1827.5788,1828.0952,1826.5621,312,1827.5786,1828.5953,1829.0952,1829.0952,1830.612,1255.7,1830.6122,4,1831.612,8,22,262,26,1,1,0.7,Time
,,S16,611856,001,Female,30,2025-05-21_20h44.20.780,Serial_Dependence_U,2023.2.3,Win32,59.88023952,6599bf63f1a902105cb4f395,682cd3dfea4e15896da7c0a6,682dad9203229cb8b0066756,,,,,,,,,,,,1831.6122,8,1831.6122,,,,1834.5622,1835.0619,1834.0453,1834.5621,1832.6288,24,1834.0453,1835.0619,1835.5619,1835.5619,1837.4787,1696.2,1837.4788,4,1838.4787,8,23,263,3,1,1.4,0.3,Time
,,S16,611856,001,Female,30,2025-05-21_20h44.20.780,Serial_Dependence_U,2023.2.3,Win32,59.88023952,6599bf63f1a902105cb4f395,682cd3dfea4e15896da7c0a6,682dad9203229cb8b0066756,,,,,,,,,,,,1838.4788,8,1838.4789,,,,1841.0288,1841.5287,1840.5126,1841.0288,1839.4954,258,1840.5125,1841.5287,1842.0287,1842.0287,1843.7122,1400.1,1843.7122,5,1844.712,8,24,264,1,1,1,0.3,Time
,,S16,611856,001,Female,30,2025-05-21_20h44.20.780,Serial_Dependence_U,2023.2.3,Win32,59.88023952,6599bf63f1a902105cb4f395,682cd3dfea4e15896da7c0a6,682dad9203229cb8b0066756,,,,,,,,,,,,1844.7122,8,1844.7123,,,,1847.0622,1847.5622,1846.5456,1847.0622,1845.7289,321,1846.5456,1847.5622,1848.0621,1848.0622,1849.229,977.6,1849.2291,4,1850.2287,8,25,265,5,1,0.8,0.7,Time
,,S16,611856,001,Female,30,2025-05-21_20h44.20.780,Serial_Dependence_U,2023.2.3,Win32,59.88023952,6599bf63f1a902105cb4f395,682cd3dfea4e15896da7c0a6,682dad9203229cb8b0066756,,,,,,,,,,,,1850.229,8,1850.229,,,,1853.379,1853.8788,1852.8623,1853.379,1851.2457,192,1852.8622,1853.8789,1854.3788,1854.3788,1856.5317,1996.7,1856.5318,4,1857.5289,8,26,266,9,1,1.6,0.7,Time
,,S16,611856,001,Female,30,2025-05-21_20h44.20.780,Serial_Dependence_U,2023.2.3,Win32,59.88023952,6599bf63f1a902105cb4f395,682cd3dfea4e15896da7c0a6,682dad9203229cb8b0066756,,,,,,,,,,,,1857.5291,8,1857.5291,,,,1860.4625,1860.9623,1859.9457,1860.4624,1858.5291,201,1859.9457,1860.9623,1861.4623,1861.4623,1863.3291,1579.3,1863.3291,4,1864.3291,8,27,267,28,1,1.4,0.7,Time
,,S16,611856,001,Female,30,2025-05-21_20h44.20.780,Serial_Dependence_U,2023.2.3,Win32,59.88023952,6599bf63f1a902105cb4f395,682cd3dfea4e15896da7c0a6,682dad9203229cb8b0066756,,,,,,,,,,,,1864.3293,8,1864.3294,,,,1866.6792,1867.1789,1866.1624,1866.6792,1865.3458,105,1866.1624,1867.1789,1867.679,1867.679,1869.0124,1108.4,1869.0126,5,1870.0124,8,28,268,25,1,0.8,0.7,Time
,,S16,611856,001,Female,30,2025-05-21_20h44.20.780,Serial_Dependence_U,2023.2.3,Win32,59.88023952,6599bf63f1a902105cb4f395,682cd3dfea4e15896da7c0a6,682dad9203229cb8b0066756,,,,,,,,,,,,1870.0126,8,1870.0127,,,,1872.7626,1873.2624,1872.2459,1872.7625,1871.0292,53,1872.2459,1873.2624,1873.7625,1873.7625,1875.5961,1536.6,1875.5962,4,1876.5959,8,29,269,22,1,1.2,0.3,Time
