Scale_setup.started,Scale_setup.stopped,participant,session,sex,age,date,expName,psychopyVersion,OS,frameRate,Intro.started,Intro.stopped,key_resp_2.keys,key_resp_2.rt,key_resp_2.duration,block.started,direction,Block_id,block.stopped,trial_direction,Block_resp_2.keys,Block_resp_2.rt,Block_resp_2.duration,ITI.started,ITI.stopped,Mask_2.started,Mask_2.stopped,encoding.started,encoding.stopped,Cue.started,Cue.stopped,Response.started,Response.stopped,keyDuration,Feedback_Time.started,FeedbackID_T,Feedback_Time.stopped,trials.thisRepN,trials.thisTrialN,trials.thisN,trials.thisIndex,trials.ran,TimeDur,Coherence1,TrialType
0.0002999999970256,0.0005999999940513,S16,1,女,20,anonymized,Serial_Dependence_U,2023.2.3,Win32,59.88023952091634,,,,,,,,,,,,,,,,,,,,,,,,,,,,,,,,,,,
,,S16,1,女,20,anonymized,Serial_Dependence_U,2023.2.3,Win32,59.88023952091634,318.56329999999707,609.3712999999971,space,290.741700000003,,,,,,,,,,,,,,,,,,,,,,,,,,,,,,,
,,S16,1,女,20,anonymized,Serial_Dependence_U,2023.2.3,Win32,59.88023952091634,,,,,,609.394399999991,84.0,0.0,618.7440999999941,84.0,s,9.31469999998808,,622.330199999988,622.832399999991,621.8201999999881,622.3293999999911,619.7526999999881,621.82,622.8340000000001,623.333099999994,623.334299999997,626.573799999997,1475.0,626.5745000000001,5.0,627.5733999999911,0.0,0.0,0.0,1.0,1.0,1.0,0.3,Time
,,S16,1,女,20,anonymized,Serial_Dependence_U,2023.2.3,Win32,59.88023952091634,,,,,,627.576399999991,111.0,0.0,627.580799999997,111.0,,,,631.7390999999941,632.239199999988,631.2300999999941,631.739,628.592599999994,631.229699999988,632.2395,632.731899999991,632.732,635.153299999997,1854.0,635.1535,4.0,636.1496999999881,0.0,1.0,1.0,9.0,1.0,1.6,0.7,Time
,,S16,1,女,20,anonymized,Serial_Dependence_U,2023.2.3,Win32,59.88023952091634,,,,,,636.150799999997,320.0,0.0,636.151299999997,320.0,,,,639.510099999994,640.0073999999911,639.006299999997,639.5095999999941,637.160299999997,639.006099999994,640.007599999994,640.5085,640.508799999997,642.6176999999881,1656.0,642.617799999997,5.0,643.6175000000001,0.0,2.0,2.0,5.0,1.0,0.8,0.7,Time
,,S16,1,女,20,anonymized,Serial_Dependence_U,2023.2.3,Win32,59.88023952091634,,,,,,643.618699999988,5.0,0.0,643.619199999988,5.0,,,,647.378199999988,647.8745,646.8671999999881,647.377599999994,644.6290999999941,646.867099999994,647.8745999999941,648.3675000000001,648.367599999994,651.5078999999911,2226.0,651.5080999999941,5.0,652.507099999994,0.0,3.0,3.0,17.0,1.0,1.2,0.7,Time
,,S16,1,女,20,anonymized,Serial_Dependence_U,2023.2.3,Win32,59.88023952091634,,,,,,652.509299999997,107.0,0.0,652.509899999991,107.0,,,,655.8996999999881,656.3925999999941,655.387299999997,655.899599999994,653.5133999999911,655.387099999994,656.392699999988,656.8923999999911,656.8925,658.795099999994,1465.0,658.7955000000001,5.0,659.7975,0.0,4.0,4.0,0.0,1.0,0.8,0.3,Time
,,S16,1,女,20,anonymized,Serial_Dependence_U,2023.2.3,Win32,59.88023952091634,,,,,,659.7991999999881,183.0,0.0,659.7998999999911,183.0,,,,663.395099999994,663.8901999999881,662.881599999994,663.394399999991,660.8091999999881,662.8813999999911,663.8901999999881,664.3908999999911,664.3913999999911,667.392299999997,2954.0,667.3925,5.0,668.392299999997,0.0,5.0,5.0,11.0,1.0,1.0,0.3,Time
,,S16,1,女,20,anonymized,Serial_Dependence_U,2023.2.3,Win32,59.88023952091634,,,,,,668.3942999999971,295.0,0.0,668.396099999994,295.0,,,,672.3847999999971,672.874799999997,671.8763999999911,672.384399999991,669.4078999999911,671.876,672.874899999991,673.3723999999911,673.3723999999911,676.668399999991,2540.0,676.6685,5.0,677.667,0.0,6.0,6.0,23.0,1.0,1.4,0.3,Time
,,S16,1,女,20,anonymized,Serial_Dependence_U,2023.2.3,Win32,59.88023952091634,,,,,,677.6680999999941,224.0,0.0,677.6686999999881,224.0,,,,681.0296999999881,681.5336999999881,680.5178999999911,681.028899999991,678.678399999991,680.5173999999911,681.5337999999971,682.0328999999911,682.033,683.031099999994,883.0,683.031299999997,4.0,684.035099999994,0.0,7.0,7.0,15.0,1.0,0.8,0.7,Time
,,S16,1,女,20,anonymized,Serial_Dependence_U,2023.2.3,Win32,59.88023952091634,,,,,,684.0373999999911,321.0,0.0,684.0386999999881,321.0,,,,688.2243999999911,688.724699999988,687.7181999999881,688.224099999994,685.0458999999911,687.718,688.724799999997,689.225199999988,689.225399999991,691.423399999991,1786.0,691.423599999994,4.0,692.4225,0.0,8.0,8.0,14.0,1.0,1.6,0.3,Time
,,S16,1,女,20,anonymized,Serial_Dependence_U,2023.2.3,Win32,59.88023952091634,,,,,,692.4245,121.0,0.0,692.425299999997,121.0,,,,696.575299999997,697.0725,696.0598999999911,696.575,693.424,696.0596999999881,697.0725,697.568399999991,697.5685,699.958099999994,2061.0,699.9581999999881,4.0,700.947599999994,0.0,9.0,9.0,19.0,1.0,1.6,0.7,Time
,,S16,1,女,20,anonymized,Serial_Dependence_U,2023.2.3,Win32,59.88023952091634,,,,,,700.9498999999911,335.0,0.0,700.950699999988,335.0,,,,705.1263999999911,705.616,704.6223999999911,705.126,701.956399999991,704.622299999997,705.616099999994,706.1136999999881,706.1136999999881,708.947399999991,2315.0,708.9476999999881,5.0,709.939,0.0,10.0,10.0,4.0,1.0,1.6,0.3,Time
,,S16,1,女,20,anonymized,Serial_Dependence_U,2023.2.3,Win32,59.88023952091634,,,,,,709.940699999988,276.0,0.0,709.941299999997,276.0,,,,713.3393999999911,713.8410999999941,712.826,713.339,710.9633999999911,712.825799999997,713.841299999997,714.339699999988,714.3398999999911,716.308599999994,1235.0,716.3086999999881,5.0,717.308599999994,0.0,11.0,11.0,10.0,1.0,0.8,0.3,Time
,,S16,1,女,20,anonymized,Serial_Dependence_U,2023.2.3,Win32,59.88023952091634,,,,,,717.3132999999971,268.0,0.0,717.315099999994,268.0,,,,721.503299999997,722.0066999999881,720.9976999999881,721.502799999997,718.3260999999941,720.997599999994,722.006799999997,722.508199999988,722.5083999999911,725.1246999999881,2135.0,725.125,5.0,726.114199999988,0.0,12.0,12.0,24.0,1.0,1.6,0.3,Time
,,S16,1,女,20,anonymized,Serial_Dependence_U,2023.2.3,Win32,59.88023952091634,,,,,,726.115899999991,80.0,0.0,726.1166999999881,80.0,,,,729.7036999999881,730.193099999994,729.189599999994,729.7035,727.1171999999881,729.1895000000001,730.1931999999881,730.6791999999881,730.6793999999911,731.1731999999881,24.0,731.1732999999971,1.0,732.174099999994,0.0,13.0,13.0,21.0,1.0,1.0,0.3,Time
,,S16,1,女,20,anonymized,Serial_Dependence_U,2023.2.3,Win32,59.88023952091634,,,,,,732.175099999994,196.0,0.0,732.1753999999911,196.0,,,,736.1456999999881,736.648799999997,735.631099999994,736.1455,733.1855,735.630899999991,736.648899999991,737.149599999994,737.1496999999881,738.6770999999941,1136.0,738.6771999999881,2.0,739.6748999999911,0.0,14.0,14.0,8.0,1.0,1.4,0.7,Time
,,S16,1,女,20,anonymized,Serial_Dependence_U,2023.2.3,Win32,59.88023952091634,,,,,,739.6771999999881,179.0,0.0,739.6782999999971,179.0,,,,743.255599999994,743.755,742.7336999999881,743.2555,740.6898999999911,742.7331999999881,743.7551999999881,744.258199999988,744.258199999988,745.656299999997,983.0,745.6563999999911,3.0,746.658299999997,0.0,15.0,15.0,26.0,1.0,1.0,0.7,Time
,,S16,1,女,20,anonymized,Serial_Dependence_U,2023.2.3,Win32,59.88023952091634,,,,,,746.6601999999881,141.0,0.0,746.6608999999911,141.0,,,,750.415099999994,750.915599999994,749.899899999991,750.4147999999971,747.662199999988,749.8995,750.9158999999911,751.4136999999881,751.413899999991,752.839799999997,1045.0,752.839799999997,2.0,753.8336999999881,0.0,16.0,16.0,27.0,1.0,1.2,0.7,Time
,,S16,1,女,20,anonymized,Serial_Dependence_U,2023.2.3,Win32,59.88023952091634,,,,,,753.8355,234.0,0.0,753.8361999999881,234.0,,,,757.385,757.8833999999911,756.879,757.3845,754.843799999997,756.8785,757.8835,758.3795999999941,758.38,759.588599999994,835.0,759.588799999997,2.0,760.5822999999971,0.0,17.0,17.0,16.0,1.0,1.0,0.7,Time
,,S16,1,女,20,anonymized,Serial_Dependence_U,2023.2.3,Win32,59.88023952091634,,,,,,760.584099999994,133.0,0.0,760.584599999994,133.0,,,,764.747,765.244,764.235899999991,764.746799999997,761.5900999999941,764.2355999999941,765.244199999988,765.746599999994,765.746799999997,767.6062999999971,1391.0,767.606399999991,2.0,768.6056999999881,0.0,18.0,18.0,29.0,1.0,1.6,0.7,Time
,,S16,1,女,20,anonymized,Serial_Dependence_U,2023.2.3,Win32,59.88023952091634,,,,,,768.607799999997,162.0,0.0,768.6083999999911,162.0,,,,772.377299999997,772.875399999991,771.871799999997,772.3770000000001,769.6098999999911,771.8716999999881,772.8755,773.3750999999941,773.3752999999971,775.0586999999881,1224.0,775.0588999999911,3.0,776.059,0.0,19.0,19.0,2.0,1.0,1.2,0.3,Time
,,S16,1,女,20,anonymized,Serial_Dependence_U,2023.2.3,Win32,59.88023952091634,,,,,,776.0601999999881,37.0,0.0,776.060599999994,37.0,,,,779.448599999994,779.951299999997,778.9386999999881,779.4481999999881,777.063399999991,778.938599999994,779.9515,780.447899999991,780.448,782.0978999999911,913.0,782.098,4.0,783.091399999991,0.0,20.0,20.0,20.0,1.0,0.8,0.3,Time
,,S16,1,女,20,anonymized,Serial_Dependence_U,2023.2.3,Win32,59.88023952091634,,,,,,783.093599999994,95.0,0.0,783.095799999997,95.0,,,,787.093799999997,787.5883999999911,786.585799999997,787.0936999999881,784.113,786.585699999988,787.5885000000001,788.0915,788.0915999999941,790.580199999988,1808.0,790.580299999997,4.0,791.581,0.0,21.0,21.0,3.0,1.0,1.4,0.3,Time
,,S16,1,女,20,anonymized,Serial_Dependence_U,2023.2.3,Win32,59.88023952091634,,,,,,791.583299999997,255.0,0.0,791.5838999999911,255.0,,,,795.5720999999941,796.074299999997,795.064799999997,795.571799999997,792.6015,795.0645000000001,796.0743999999911,796.5681999999881,796.5682999999971,798.8531999999881,1789.0,798.8533999999911,4.0,799.8476999999881,0.0,22.0,22.0,13.0,1.0,1.4,0.3,Time
,,S16,1,女,20,anonymized,Serial_Dependence_U,2023.2.3,Win32,59.88023952091634,,,,,,799.8495999999941,230.0,0.0,799.8500999999941,230.0,,,,803.214099999994,803.715199999988,802.6972999999971,803.2138999999911,800.853799999997,802.6970999999941,803.7153999999911,804.2172999999971,804.217399999991,805.616599999994,816.0,805.616799999997,3.0,806.6056999999881,0.0,23.0,23.0,25.0,1.0,0.8,0.7,Time
,,S16,1,女,20,anonymized,Serial_Dependence_U,2023.2.3,Win32,59.88023952091634,,,,,,806.6075,344.0,0.0,806.6080000000001,344.0,,,,810.349099999994,810.8410999999941,809.8405999999941,810.349,807.608099999994,809.8403999999911,810.8411999999881,811.340199999988,811.3403999999911,812.668,865.0,812.668299999997,2.0,813.6665,0.0,24.0,24.0,7.0,1.0,1.2,0.7,Time
,,S16,1,女,20,anonymized,Serial_Dependence_U,2023.2.3,Win32,59.88023952091634,,,,,,813.6686999999881,197.0,0.0,813.669399999991,197.0,,,,817.4635000000001,817.967799999997,816.954299999997,817.463,814.676,816.9541999999881,817.9678999999911,818.457099999994,818.4571999999881,820.2720999999941,1052.0,820.2721999999882,2.0,821.268799999997,0.0,25.0,25.0,22.0,1.0,1.2,0.3,Time
,,S16,1,女,20,anonymized,Serial_Dependence_U,2023.2.3,Win32,59.88023952091634,,,,,,821.2710999999941,23.0,0.0,821.2721999999882,23.0,,,,825.2395999999941,825.734299999997,824.725,825.2385,822.283399999991,824.724699999988,825.734299999997,826.2302999999971,826.230799999997,828.2603999999911,1342.0,828.2605,3.0,829.2562999999969,0.0,26.0,26.0,18.0,1.0,1.4,0.7,Time
,,S16,1,女,20,anonymized,Serial_Dependence_U,2023.2.3,Win32,59.88023952091634,,,,,,829.2588999999911,255.0,0.0,829.2596999999881,255.0,,,,833.2210000000001,833.7105999999941,832.7140999999941,833.220799999997,830.274299999997,832.714,833.710799999997,834.2068999999912,834.207,835.788799999997,1104.0,835.788899999991,2.0,836.7769999999999,0.0,27.0,27.0,28.0,1.0,1.4,0.7,Time
,,S16,1,女,20,anonymized,Serial_Dependence_U,2023.2.3,Win32,59.88023952091634,,,,,,836.7790000000001,61.0,0.0,836.7800999999941,61.0,,,,840.3581999999882,840.8511999999881,839.8456999999881,840.3580999999941,837.8000999999941,839.8455999999941,840.851399999991,841.348299999997,841.3486999999881,842.772,846.0,842.7721999999882,2.0,843.7662999999969,0.0,28.0,28.0,6.0,1.0,1.0,0.7,Time
,,S16,1,女,20,anonymized,Serial_Dependence_U,2023.2.3,Win32,59.88023952091634,,,,,,843.768199999988,177.0,0.0,843.7690000000001,177.0,,,,847.5580999999939,848.0517999999971,847.0476999999881,847.5576999999881,844.7765,847.0475999999941,848.0518999999912,848.5473999999912,848.5475,850.6415999999941,1520.0,850.641799999997,4.0,851.644199999988,0.0,29.0,29.0,12.0,1.0,1.2,0.3,Time
,,S16,1,女,20,anonymized,Serial_Dependence_U,2023.2.3,Win32,59.88023952091634,,,,,,851.6471999999882,81.0,1.0,1025.2842999999968,81.0,s,173.59989999999107,,1029.069599999994,1029.567599999994,1028.564599999994,1029.069,1026.2953999999909,1028.5645,1029.567699999988,1030.065599999994,1030.065799999997,1032.261399999991,1566.0,1032.2617999999968,5.0,1032.263199999988,1.0,0.0,30.0,2.0,1.0,1.2,0.3,Time
,,S16,1,女,20,anonymized,Serial_Dependence_U,2023.2.3,Win32,59.88023952091634,,,,,,1032.264099999994,200.0,1.0,1032.266699999988,200.0,,,,1035.8275,1036.315799999997,1035.3155,1035.8270999999938,1033.272099999994,1035.315199999988,1036.3159999999998,1036.8077999999969,1036.807899999991,1038.568199999988,1253.0,1038.568299999997,4.0,1038.5687999999968,1.0,1.0,31.0,26.0,1.0,1.0,0.7,Time
,,S16,1,女,20,anonymized,Serial_Dependence_U,2023.2.3,Win32,59.88023952091634,,,,,,1038.569399999991,98.0,1.0,1038.570299999997,98.0,,,,1042.348399999991,1042.849099999994,1041.840799999997,1042.348199999988,1039.572399999991,1041.8404999999998,1042.849199999988,1043.341899999991,1043.342,1045.3377999999968,1304.0,1045.337899999991,4.0,1045.3384999999998,1.0,2.0,32.0,22.0,1.0,1.2,0.3,Time
,,S16,1,女,20,anonymized,Serial_Dependence_U,2023.2.3,Win32,59.88023952091634,,,,,,1045.339199999988,201.0,1.0,1045.339599999994,201.0,,,,1048.7289999999998,1049.2283999999909,1048.2154999999998,1048.728799999997,1046.347699999988,1048.215099999994,1049.228699999988,1049.725099999994,1049.725099999994,1051.4102999999968,1211.0,1051.4105,5.0,1051.411199999988,1.0,3.0,33.0,0.0,1.0,0.8,0.3,Time
,,S16,1,女,20,anonymized,Serial_Dependence_U,2023.2.3,Win32,59.88023952091634,,,,,,1051.412299999997,211.0,1.0,1051.412699999988,211.0,,,,1055.198599999994,1055.700799999997,1054.6875999999938,1055.1982999999968,1052.414199999988,1054.687399999991,1055.700899999991,1056.195299999997,1056.195399999991,1057.999599999994,1363.0,1057.9997999999969,4.0,1058.000299999997,1.0,4.0,34.0,12.0,1.0,1.2,0.3,Time
,,S16,1,女,20,anonymized,Serial_Dependence_U,2023.2.3,Win32,59.88023952091634,,,,,,1058.001199999988,311.0,1.0,1058.0017999999968,311.0,,,,1061.959599999994,1062.4505,1061.4437999999968,1061.959099999994,1059.009899999991,1061.443399999991,1062.450699999988,1062.937699999988,1062.937699999988,1064.754399999991,1304.0,1064.7545,2.0,1064.755,1.0,5.0,35.0,18.0,1.0,1.4,0.7,Time
,,S16,1,女,20,anonymized,Serial_Dependence_U,2023.2.3,Win32,59.88023952091634,,,,,,1064.755799999997,156.0,1.0,1064.7562999999968,156.0,,,,1068.126099999994,1068.625,1067.622899999991,1068.125699999988,1065.755899999991,1067.622699999988,1068.6250999999938,1069.1192999999969,1069.1194999999998,1070.163399999991,514.0,1070.1635,1.0,1070.164099999994,1.0,6.0,36.0,20.0,1.0,0.8,0.3,Time
,,S16,1,女,20,anonymized,Serial_Dependence_U,2023.2.3,Win32,59.88023952091634,,,,,,1070.165099999994,98.0,1.0,1070.165399999991,98.0,,,,1073.923,1074.4164999999998,1073.4047999999968,1073.9227999999969,1071.166599999994,1073.4045,1074.416599999994,1074.917799999997,1074.918099999994,1076.942199999988,1482.0,1076.942299999997,4.0,1076.9435,1.0,7.0,37.0,17.0,1.0,1.2,0.7,Time
,,S16,1,女,20,anonymized,Serial_Dependence_U,2023.2.3,Win32,59.88023952091634,,,,,,1076.945,205.0,1.0,1076.945399999991,205.0,,,,1081.139399999991,1081.63,1080.623599999994,1081.139199999988,1077.9534999999998,1080.623199999988,1081.63,1082.124899999991,1082.124899999991,1084.1055,1463.0,1084.1057999999969,2.0,1084.107099999994,1.0,8.0,38.0,14.0,1.0,1.6,0.3,Time
,,S16,1,女,20,anonymized,Serial_Dependence_U,2023.2.3,Win32,59.88023952091634,,,,,,1084.108199999988,263.0,1.0,1084.1084999999998,263.0,,,,1087.501099999994,1087.998899999991,1086.991099999994,1087.5007999999968,1085.122799999997,1086.991099999994,1087.999099999994,1088.498799999997,1088.4989999999998,1090.222599999994,1360.0,1090.2227999999968,5.0,1090.223299999997,1.0,9.0,39.0,10.0,1.0,0.8,0.3,Time
,,S16,1,女,20,anonymized,Serial_Dependence_U,2023.2.3,Win32,59.88023952091634,,,,,,1090.224099999994,119.0,1.0,1090.224599999994,119.0,,,,1093.998199999988,1094.491599999994,1093.481399999991,1093.997799999997,1091.2379999999998,1093.481199999988,1094.491699999988,1094.983599999994,1094.983699999988,1096.688399999991,1231.0,1096.688599999994,3.0,1096.6893999999909,1.0,10.0,40.0,7.0,1.0,1.2,0.7,Time
,,S16,1,女,20,anonymized,Serial_Dependence_U,2023.2.3,Win32,59.88023952091634,,,,,,1096.6905,162.0,1.0,1096.690699999988,162.0,,,,1100.858399999991,1101.354899999991,1100.3443999999909,1100.858,1097.7075,1100.3439999999998,1101.3549999999998,1101.8547999999969,1101.8549999999998,1104.005699999988,1490.0,1104.005799999997,2.0,1104.006199999988,1.0,11.0,41.0,19.0,1.0,1.6,0.7,Time
,,S16,1,女,20,anonymized,Serial_Dependence_U,2023.2.3,Win32,59.88023952091634,,,,,,1104.006799999997,359.0,1.0,1104.006899999991,359.0,,,,1107.997899999991,1108.4997999999969,1107.491599999994,1107.997899999991,1105.023099999994,1107.491299999997,1108.499899999991,1109.000699999988,1109.0007999999968,1111.3909999999998,1750.0,1111.391099999994,4.0,1111.391699999988,1.0,12.0,42.0,13.0,1.0,1.4,0.3,Time
,,S16,1,女,20,anonymized,Serial_Dependence_U,2023.2.3,Win32,59.88023952091634,,,,,,1111.3925,299.0,1.0,1111.393299999997,299.0,,,,1114.9824999999998,1115.476199999988,1114.467599999994,1114.982199999988,1112.402299999997,1114.467199999988,1115.476399999991,1115.967099999994,1115.967199999988,1117.907,1476.0,1117.907099999994,5.0,1117.9074999999998,1.0,13.0,43.0,21.0,1.0,1.0,0.3,Time
,,S16,1,女,20,anonymized,Serial_Dependence_U,2023.2.3,Win32,59.88023952091634,,,,,,1117.908,281.0,1.0,1117.908199999988,281.0,,,,1121.911599999994,1122.416299999997,1121.398099999994,1121.911199999988,1118.915,1121.397899999991,1122.416399999991,1122.911199999988,1122.911599999994,1125.079399999991,1543.0,1125.0794999999998,4.0,1125.080099999994,1.0,14.0,44.0,23.0,1.0,1.4,0.3,Time
,,S16,1,女,20,anonymized,Serial_Dependence_U,2023.2.3,Win32,59.88023952091634,,,,,,1125.080699999988,61.0,1.0,1125.081,61.0,,,,1129.268299999997,1129.767299999997,1128.756699999988,1129.268099999994,1126.086899999991,1128.7565,1129.767299999997,1130.2634999999998,1130.264,1132.852699999988,2038.0,1132.8532999999968,4.0,1132.854599999994,1.0,15.0,45.0,24.0,1.0,1.6,0.3,Time
,,S16,1,女,20,anonymized,Serial_Dependence_U,2023.2.3,Win32,59.88023952091634,,,,,,1132.855699999988,153.0,1.0,1132.8560999999938,153.0,,,,1137.017899999991,1137.509399999991,1136.5065,1137.0173999999909,1133.8655,1136.506399999991,1137.5095,1138.000199999988,1138.000299999997,1138.7465,303.0,1138.7473999999909,1.0,1138.748299999997,1.0,16.0,46.0,29.0,1.0,1.6,0.7,Time
,,S16,1,女,20,anonymized,Serial_Dependence_U,2023.2.3,Win32,59.88023952091634,,,,,,1138.750199999988,94.0,1.0,1138.7507999999968,94.0,,,,1142.714799999997,1143.206,1142.209699999988,1142.714699999988,1139.766699999988,1142.2093999999909,1143.206099999994,1143.710399999991,1143.710399999991,1145.948699999988,1739.0,1145.948799999997,4.0,1145.9493999999909,1.0,17.0,47.0,28.0,1.0,1.4,0.7,Time
,,S16,1,女,20,anonymized,Serial_Dependence_U,2023.2.3,Win32,59.88023952091634,,,,,,1145.950199999988,153.0,1.0,1145.9505,153.0,,,,1150.139699999988,1150.642299999997,1149.6305,1150.139,1146.9665,1149.630099999994,1150.6423999999909,1151.138599999994,1151.138599999994,1153.422699999988,1684.0,1153.4227999999969,4.0,1153.423299999997,1.0,18.0,48.0,4.0,1.0,1.6,0.3,Time
,,S16,1,女,20,anonymized,Serial_Dependence_U,2023.2.3,Win32,59.88023952091634,,,,,,1153.4245,345.0,1.0,1153.425,345.0,,,,1157.376399999991,1157.873899999991,1156.873199999988,1157.376,1154.440199999988,1156.873099999994,1157.873899999991,1158.371799999997,1158.372099999994,1160.583799999997,1673.0,1160.583899999991,4.0,1160.584299999997,1.0,19.0,49.0,8.0,1.0,1.4,0.7,Time
,,S16,1,女,20,anonymized,Serial_Dependence_U,2023.2.3,Win32,59.88023952091634,,,,,,1160.5849999999998,32.0,1.0,1160.585299999997,32.0,,,,1164.1647999999968,1164.6592999999968,1163.6519999999998,1164.164399999991,1161.589399999991,1163.651899999991,1164.6592999999968,1165.149899999991,1165.15,1167.215299999997,1422.0,1167.215399999991,5.0,1167.215899999991,1.0,20.0,50.0,11.0,1.0,1.0,0.3,Time
,,S16,1,女,20,anonymized,Serial_Dependence_U,2023.2.3,Win32,59.88023952091634,,,,,,1167.216699999988,314.0,1.0,1167.217099999994,314.0,,,,1171.3719999999998,1171.873699999988,1170.860699999988,1171.371599999994,1168.2175,1170.8605,1171.873799999997,1172.3655,1172.365599999994,1174.557399999991,1732.0,1174.5575,4.0,1174.557899999991,1.0,21.0,51.0,9.0,1.0,1.6,0.7,Time
,,S16,1,女,20,anonymized,Serial_Dependence_U,2023.2.3,Win32,59.88023952091634,,,,,,1174.5594999999998,65.0,1.0,1174.560199999988,65.0,,,,1177.932399999991,1178.432599999994,1177.415599999994,1177.932199999988,1175.580599999994,1177.415399999991,1178.432699999988,1178.9303999999909,1178.9303999999909,1181.398799999997,1674.0,1181.398899999991,5.0,1181.3992999999969,1.0,22.0,52.0,25.0,1.0,0.8,0.7,Time
,,S16,1,女,20,anonymized,Serial_Dependence_U,2023.2.3,Win32,59.88023952091634,,,,,,1181.399799999997,344.0,1.0,1181.4002999999968,344.0,,,,1184.959599999994,1185.464099999994,1184.4472999999969,1184.959199999988,1182.406799999997,1184.447099999994,1185.464199999988,1185.964399999991,1185.964699999988,1188.025099999994,1432.0,1188.025399999991,5.0,1188.026199999988,1.0,23.0,53.0,16.0,1.0,1.0,0.7,Time
,,S16,1,女,20,anonymized,Serial_Dependence_U,2023.2.3,Win32,59.88023952091634,,,,,,1188.027599999994,68.0,1.0,1188.028199999988,68.0,,,,1191.392799999997,1191.8819999999998,1190.890099999994,1191.3925,1189.046299999997,1190.889899999991,1191.8819999999998,1192.3765,1192.376599999994,1194.348799999997,1366.0,1194.3488999999909,5.0,1194.349399999991,1.0,24.0,54.0,5.0,1.0,0.8,0.7,Time
,,S16,1,女,20,anonymized,Serial_Dependence_U,2023.2.3,Win32,59.88023952091634,,,,,,1194.350199999988,55.0,1.0,1194.350399999991,55.0,,,,1198.340899999991,1198.8349999999998,1197.835299999997,1198.340599999994,1195.360199999988,1197.835099999994,1198.835099999994,1199.326399999991,1199.326399999991,1201.383199999988,1527.0,1201.383199999988,4.0,1201.383699999988,1.0,25.0,55.0,3.0,1.0,1.4,0.3,Time
,,S16,1,女,20,anonymized,Serial_Dependence_U,2023.2.3,Win32,59.88023952091634,,,,,,1201.384299999997,335.0,1.0,1201.384599999994,335.0,,,,1205.148099999994,1205.6425,1204.631699999988,1205.148,1202.395899999991,1204.631599999994,1205.6425,1206.1367999999968,1206.1368999999909,1208.523199999988,1846.0,1208.5232999999969,5.0,1208.523699999988,1.0,26.0,56.0,27.0,1.0,1.2,0.7,Time
,,S16,1,女,20,anonymized,Serial_Dependence_U,2023.2.3,Win32,59.88023952091634,,,,,,1208.524799999997,24.0,1.0,1208.525599999994,24.0,,,,1212.1177999999968,1212.607599999994,1211.606599999994,1212.1174999999998,1209.532899999991,1211.606399999991,1212.607599999994,1213.096699999988,1213.096899999991,1215.3574999999998,1693.0,1215.357699999988,5.0,1215.358199999988,1.0,27.0,57.0,1.0,1.0,1.0,0.3,Time
,,S16,1,女,20,anonymized,Serial_Dependence_U,2023.2.3,Win32,59.88023952091634,,,,,,1215.358799999997,349.0,1.0,1215.359199999988,349.0,,,,1218.927,1219.426,1218.417,1218.926799999997,1216.3805,1218.416799999997,1219.426,1219.917,1219.917,1222.4415,2029.0,1222.441699999988,5.0,1222.442399999991,1.0,28.0,58.0,6.0,1.0,1.0,0.7,Time
,,S16,1,女,20,anonymized,Serial_Dependence_U,2023.2.3,Win32,59.88023952091634,,,,,,1222.443199999988,155.0,1.0,1222.4435,155.0,,,,1225.797199999988,1226.299599999994,1225.2895,1225.796899999991,1223.441399999991,1225.289399999991,1226.299699999988,1226.797099999994,1226.797199999988,1228.572,1336.0,1228.572099999994,5.0,1228.5725999999938,1.0,29.0,59.0,15.0,1.0,0.8,0.7,Time
,,S16,1,女,20,anonymized,Serial_Dependence_U,2023.2.3,Win32,59.88023952091634,,,,,,1228.573099999994,73.0,2.0,1335.32,73.0,s,106.72309999999402,,1338.9035,1339.405599999994,1338.397699999988,1338.902899999991,1336.325599999994,1338.397599999994,1339.4057999999968,1339.907899999991,1339.908099999994,1342.1239999999998,1608.0,1342.124099999994,5.0,1342.125599999994,2.0,0.0,60.0,21.0,1.0,1.0,0.3,Time
,,S16,1,女,20,anonymized,Serial_Dependence_U,2023.2.3,Win32,59.88023952091634,,,,,,1342.127199999988,37.0,2.0,1342.131199999988,37.0,,,,1345.502,1345.993299999997,1345.001,1345.5017999999968,1343.131799999997,1345.000899999991,1345.993399999991,1346.487899999991,1346.488099999994,1348.316399999991,1262.0,1348.316599999994,5.0,1348.317299999997,2.0,1.0,61.0,0.0,1.0,0.8,0.3,Time
,,S16,1,女,20,anonymized,Serial_Dependence_U,2023.2.3,Win32,59.88023952091634,,,,,,1348.318199999988,15.0,2.0,1348.318599999994,15.0,,,,1352.3108999999909,1352.8077999999969,1351.8008999999909,1352.310599999994,1349.335299999997,1351.800699999988,1352.8077999999969,1353.3085,1353.308599999994,1355.475699999988,1772.0,1355.475899999991,4.0,1355.4765,2.0,2.0,62.0,3.0,1.0,1.4,0.3,Time
,,S16,1,女,20,anonymized,Serial_Dependence_U,2023.2.3,Win32,59.88023952091634,,,,,,1355.478899999991,313.0,2.0,1355.479299999997,313.0,,,,1359.268599999994,1359.7718999999909,1358.758399999991,1359.268199999988,1356.491399999991,1358.758099999994,1359.772,1360.2663999999909,1360.2665,1361.955199999988,1298.0,1361.955299999997,4.0,1361.955699999988,2.0,3.0,63.0,2.0,1.0,1.2,0.3,Time
,,S16,1,女,20,anonymized,Serial_Dependence_U,2023.2.3,Win32,59.88023952091634,,,,,,1361.956199999988,207.0,2.0,1361.9565,207.0,,,,1365.573199999988,1366.073899999991,1365.0563999999908,1365.573199999988,1362.9755999999938,1365.056299999997,1366.073899999991,1366.573799999997,1366.573899999991,1368.676899999991,1499.0,1368.677,5.0,1368.677899999991,2.0,4.0,64.0,11.0,1.0,1.0,0.3,Time
,,S16,1,女,20,anonymized,Serial_Dependence_U,2023.2.3,Win32,59.88023952091634,,,,,,1368.679099999994,64.0,2.0,1368.679699999988,64.0,,,,1372.236899999991,1372.7385,1371.7215,1372.235899999991,1369.678899999991,1371.721299999997,1372.7385,1373.242,1373.242099999994,1374.866299999997,1141.0,1374.8665,4.0,1374.867,2.0,5.0,65.0,6.0,1.0,1.0,0.7,Time
,,S16,1,女,20,anonymized,Serial_Dependence_U,2023.2.3,Win32,59.88023952091634,,,,,,1374.868399999991,186.0,2.0,1374.8688999999908,186.0,,,,1378.833699999988,1379.329799999997,1378.331099999994,1378.833399999991,1375.868099999994,1378.331,1379.33,1379.829599999994,1379.8298999999909,1382.105099999994,1594.0,1382.105299999997,4.0,1382.105699999988,2.0,6.0,66.0,23.0,1.0,1.4,0.3,Time
,,S16,1,女,20,anonymized,Serial_Dependence_U,2023.2.3,Win32,59.88023952091634,,,,,,1382.106199999988,19.0,2.0,1382.1065,19.0,,,,1386.063099999994,1386.565199999988,1385.554199999988,1386.063,1383.1178999999909,1385.553899999991,1386.565299999997,1387.059599999994,1387.059599999994,1389.592599999994,1671.0,1389.592699999988,4.0,1389.5933999999909,2.0,7.0,67.0,8.0,1.0,1.4,0.7,Time
,,S16,1,女,20,anonymized,Serial_Dependence_U,2023.2.3,Win32,59.88023952091634,,,,,,1389.594199999988,172.0,2.0,1389.595099999994,172.0,,,,1393.1482999999969,1393.6515,1392.645599999994,1393.147899999991,1390.610099999994,1392.6455,1393.651599999994,1394.148899999991,1394.149199999988,1396.8067999999969,1796.0,1396.8067999999969,5.0,1396.807299999997,2.0,8.0,68.0,16.0,1.0,1.0,0.7,Time
,,S16,1,女,20,anonymized,Serial_Dependence_U,2023.2.3,Win32,59.88023952091634,,,,,,1396.807899999991,40.0,2.0,1396.808199999988,40.0,,,,1400.553,1401.0549999999998,1400.041799999997,1400.5525,1397.8065,1400.0414999999998,1401.055099999994,1401.543399999991,1401.5435,1403.807199999988,1766.0,1403.807199999988,5.0,1403.807599999994,2.0,9.0,69.0,7.0,1.0,1.2,0.7,Time
,,S16,1,女,20,anonymized,Serial_Dependence_U,2023.2.3,Win32,59.88023952091634,,,,,,1403.808299999997,24.0,2.0,1403.808699999988,24.0,,,,1407.198,1407.691899999991,1406.689799999997,1407.197899999991,1404.816099999994,1406.689599999994,1407.691899999991,1408.196899999991,1408.197199999988,1410.1709999999998,1503.0,1410.171099999994,5.0,1410.171799999997,2.0,10.0,70.0,20.0,1.0,0.8,0.3,Time
,,S16,1,女,20,anonymized,Serial_Dependence_U,2023.2.3,Win32,59.88023952091634,,,,,,1410.172399999991,186.0,2.0,1410.172699999988,186.0,,,,1414.3612999999968,1414.858099999994,1413.854699999988,1414.360699999988,1411.179799999997,1413.854599999994,1414.858099999994,1415.349299999997,1415.349399999991,1417.726399999991,1653.0,1417.7265,3.0,1417.727099999994,2.0,11.0,71.0,14.0,1.0,1.6,0.3,Time
,,S16,1,女,20,anonymized,Serial_Dependence_U,2023.2.3,Win32,59.88023952091634,,,,,,1417.7283999999909,212.0,2.0,1417.728599999994,212.0,,,,1421.919199999988,1422.415599999994,1421.406799999997,1421.918799999997,1418.729899999991,1421.406699999988,1422.415699999988,1422.9213999999909,1422.9215,1425.1989999999998,1833.0,1425.199099999994,4.0,1425.1995,2.0,12.0,72.0,4.0,1.0,1.6,0.3,Time
,,S16,1,女,20,anonymized,Serial_Dependence_U,2023.2.3,Win32,59.88023952091634,,,,,,1425.200099999994,28.0,2.0,1425.2005,28.0,,,,1429.3532999999968,1429.838,1428.848099999994,1429.352899999991,1426.2089999999998,1428.847899999991,1429.838099999994,1430.339,1430.339099999994,1432.876199999988,1871.0,1432.876399999991,4.0,1432.877199999988,2.0,13.0,73.0,29.0,1.0,1.6,0.7,Time
,,S16,1,女,20,anonymized,Serial_Dependence_U,2023.2.3,Win32,59.88023952091634,,,,,,1432.878299999997,313.0,2.0,1432.878599999994,313.0,,,,1436.6645,1437.1654999999998,1436.148,1436.664299999997,1433.879399999991,1436.147799999997,1437.1654999999998,1437.661899999991,1437.662199999988,1439.8412999999969,1635.0,1439.8415,5.0,1439.842099999994,2.0,14.0,74.0,22.0,1.0,1.2,0.3,Time
,,S16,1,女,20,anonymized,Serial_Dependence_U,2023.2.3,Win32,59.88023952091634,,,,,,1439.8435,2.0,2.0,1439.8439999999998,2.0,,,,1443.210599999994,1443.705,1442.7062999999969,1443.210199999988,1440.8605999999938,1442.706199999988,1443.705099999994,1444.2017999999969,1444.201899999991,1445.871,1261.0,1445.871099999994,5.0,1445.871399999991,2.0,15.0,75.0,15.0,1.0,0.8,0.7,Time
,,S16,1,女,20,anonymized,Serial_Dependence_U,2023.2.3,Win32,59.88023952091634,,,,,,1445.8719999999998,77.0,2.0,1445.872199999988,77.0,,,,1449.840899999991,1450.338,1449.3315,1449.840599999994,1446.880099999994,1449.3312999999969,1450.338,1450.836899999991,1450.837199999988,1452.645099999994,1729.0,1452.645199999988,4.0,1452.647099999994,2.0,16.0,76.0,18.0,1.0,1.4,0.7,Time
,,S16,1,女,20,anonymized,Serial_Dependence_U,2023.2.3,Win32,59.88023952091634,,,,,,1452.6482999999969,32.0,2.0,1452.648799999997,32.0,,,,1456.032199999988,1456.5335,1455.5155,1456.032,1453.651099999994,1455.515399999991,1456.5335,1457.034699999988,1457.034699999988,1459.232199999988,1697.0,1459.232399999991,5.0,1459.2328999999909,2.0,17.0,77.0,10.0,1.0,0.8,0.3,Time
,,S16,1,女,20,anonymized,Serial_Dependence_U,2023.2.3,Win32,59.88023952091634,,,,,,1459.233599999994,15.0,2.0,1459.2338999999909,15.0,,,,1462.584099999994,1463.088199999988,1462.0798999999909,1462.583699999988,1460.237199999988,1462.079699999988,1463.088299999997,1463.592199999988,1463.5922999999968,1465.6247999999969,1504.0,1465.6247999999969,5.0,1465.625199999988,2.0,18.0,78.0,25.0,1.0,0.8,0.7,Time
,,S16,1,女,20,anonymized,Serial_Dependence_U,2023.2.3,Win32,59.88023952091634,,,,,,1465.6257999999968,219.0,2.0,1465.626099999994,219.0,,,,1468.975199999988,1469.467799999997,1468.464,1468.974799999997,1466.6219999999998,1468.463699999988,1469.467899999991,1469.965899999991,1469.966,1471.915199999988,1476.0,1471.915399999991,5.0,1471.9157999999968,2.0,19.0,79.0,5.0,1.0,0.8,0.7,Time
,,S16,1,女,20,anonymized,Serial_Dependence_U,2023.2.3,Win32,59.88023952091634,,,,,,1471.916399999991,4.0,2.0,1471.916699999988,4.0,,,,1475.6772999999969,1476.176099999994,1475.172899999991,1475.676899999991,1472.930899999991,1475.172699999988,1476.176299999997,1476.668199999988,1476.6682999999969,1478.0832999999968,1021.0,1478.083399999991,2.0,1478.0839999999998,2.0,20.0,80.0,27.0,1.0,1.2,0.7,Time
,,S16,1,女,20,anonymized,Serial_Dependence_U,2023.2.3,Win32,59.88023952091634,,,,,,1478.084799999997,163.0,2.0,1478.085099999994,163.0,,,,1482.258399999991,1482.756699999988,1481.744399999991,1482.258099999994,1479.105899999991,1481.744099999994,1482.756799999997,1483.260699999988,1483.260699999988,1485.560599999994,1811.0,1485.560799999997,4.0,1485.5625999999938,2.0,21.0,81.0,19.0,1.0,1.6,0.7,Time
,,S16,1,女,20,anonymized,Serial_Dependence_U,2023.2.3,Win32,59.88023952091634,,,,,,1485.563799999997,68.0,2.0,1485.5642999999968,68.0,,,,1489.524899999991,1490.0224999999998,1489.012099999994,1489.5235999999938,1486.577599999994,1489.011,1490.022599999994,1490.5190999999938,1490.519299999997,1493.114399999991,1254.0,1493.1145,2.0,1493.1150999999938,2.0,22.0,82.0,28.0,1.0,1.4,0.7,Time
,,S16,1,女,20,anonymized,Serial_Dependence_U,2023.2.3,Win32,59.88023952091634,,,,,,1493.115899999991,36.0,2.0,1493.116399999991,36.0,,,,1496.867699999988,1497.367699999988,1496.364399999991,1496.867299999997,1494.118,1496.364299999997,1497.3677999999968,1497.865699999988,1497.8657999999969,1500.385699999988,1835.0,1500.3857999999968,5.0,1500.387599999994,2.0,23.0,83.0,17.0,1.0,1.2,0.7,Time
,,S16,1,女,20,anonymized,Serial_Dependence_U,2023.2.3,Win32,59.88023952091634,,,,,,1500.389399999991,130.0,2.0,1500.389899999991,130.0,,,,1503.976099999994,1504.4665999999938,1503.458899999991,1503.9755999999938,1501.391799999997,1503.458699999988,1504.466699999988,1504.966399999991,1504.9665,1506.8242999999968,1299.0,1506.8245,4.0,1506.8249999999998,2.0,24.0,84.0,1.0,1.0,1.0,0.3,Time
,,S16,1,女,20,anonymized,Serial_Dependence_U,2023.2.3,Win32,59.88023952091634,,,,,,1506.825799999997,54.0,2.0,1506.826299999997,54.0,,,,1510.599599999994,1511.090899999991,1510.095099999994,1510.599299999997,1507.8275,1510.094299999997,1511.090899999991,1511.5822999999968,1511.582399999991,1513.483,1323.0,1513.483099999994,4.0,1513.485,2.0,25.0,85.0,12.0,1.0,1.2,0.3,Time
,,S16,1,女,20,anonymized,Serial_Dependence_U,2023.2.3,Win32,59.88023952091634,,,,,,1513.487199999988,259.0,2.0,1513.487799999997,259.0,,,,1517.4638999999909,1517.9644999999998,1516.950299999997,1517.463699999988,1514.485,1516.9499999999998,1517.964699999988,1518.464099999994,1518.464199999988,1519.749399999991,1257.0,1519.7495,2.0,1519.749899999991,2.0,26.0,86.0,13.0,1.0,1.4,0.3,Time
,,S16,1,女,20,anonymized,Serial_Dependence_U,2023.2.3,Win32,59.88023952091634,,,,,,1519.750599999994,140.0,2.0,1519.751099999994,140.0,,,,1523.923,1524.418799999997,1523.4102999999968,1523.922699999988,1520.771799999997,1523.409899999991,1524.418799999997,1524.916599999994,1524.916599999994,1527.080599999994,1857.0,1527.080699999988,4.0,1527.081099999994,2.0,27.0,87.0,9.0,1.0,1.6,0.7,Time
,,S16,1,女,20,anonymized,Serial_Dependence_U,2023.2.3,Win32,59.88023952091634,,,,,,1527.082,161.0,2.0,1527.0825,161.0,,,,1530.635199999988,1531.134199999988,1530.1215,1530.6347999999969,1528.088199999988,1530.1212999999968,1531.134299999997,1531.635699999988,1531.635699999988,1533.656299999997,1475.0,1533.656399999991,5.0,1533.656799999997,2.0,28.0,88.0,26.0,1.0,1.0,0.7,Time
,,S16,1,女,20,anonymized,Serial_Dependence_U,2023.2.3,Win32,59.88023952091634,,,,,,1533.657599999994,314.0,2.0,1533.657899999991,314.0,,,,1537.8633999999909,1538.3578999999909,1537.344899999991,1537.863299999997,1534.6685,1537.344699999988,1538.358,1538.855399999991,1538.8557999999969,1540.842699999988,1432.0,1540.842799999997,2.0,1540.843699999988,2.0,29.0,89.0,24.0,1.0,1.6,0.3,Time
,,S16,1,女,20,anonymized,Serial_Dependence_U,2023.2.3,Win32,59.88023952091634,,,,,,1540.844899999991,351.0,3.0,1687.9019999999998,351.0,s,147.029700000003,,1692.064599999994,1692.563099999994,1691.557199999988,1692.0642999999968,1688.922599999994,1691.5567999999969,1692.563199999988,1693.063099999994,1693.063199999988,1695.036599999994,1420.0,1695.036699999988,2.0,1695.037699999988,3.0,0.0,90.0,19.0,1.0,1.6,0.7,Time
,,S16,1,女,20,anonymized,Serial_Dependence_U,2023.2.3,Win32,59.88023952091634,,,,,,1695.039099999994,198.0,3.0,1695.043,198.0,,,,1698.609699999988,1699.101899999991,1698.0965,1698.609399999991,1696.053599999994,1698.096399999991,1699.102,1699.596899999991,1699.597,1701.198099999994,1206.0,1701.1982999999968,4.0,1701.198699999988,3.0,1.0,91.0,6.0,1.0,1.0,0.7,Time
,,S16,1,女,20,anonymized,Serial_Dependence_U,2023.2.3,Win32,59.88023952091634,,,,,,1701.1992999999968,317.0,3.0,1701.199599999994,317.0,,,,1705.138399999991,1705.633099999994,1704.633399999991,1705.138,1702.196099999994,1704.633099999994,1705.633199999988,1706.1245,1706.1245,1707.8165,1186.0,1707.816599999994,2.0,1707.8170999999938,3.0,2.0,92.0,8.0,1.0,1.4,0.7,Time
,,S16,1,女,20,anonymized,Serial_Dependence_U,2023.2.3,Win32,59.88023952091634,,,,,,1707.8177999999969,127.0,3.0,1707.818299999997,127.0,,,,1711.7963999999909,1712.297099999994,1711.292599999994,1711.796299999997,1708.818599999994,1711.292399999991,1712.297199999988,1712.797199999988,1712.797199999988,1714.821,1584.0,1714.821099999994,4.0,1714.821599999994,3.0,3.0,93.0,13.0,1.0,1.4,0.3,Time
,,S16,1,女,20,anonymized,Serial_Dependence_U,2023.2.3,Win32,59.88023952091634,,,,,,1714.8225999999938,307.0,3.0,1714.823199999988,307.0,,,,1718.775699999988,1719.2718999999909,1718.262,1718.7752999999968,1715.8255,1718.2618999999909,1719.272,1719.7665,1719.766599999994,1721.923199999988,1595.0,1721.923199999988,4.0,1721.923699999988,3.0,4.0,94.0,18.0,1.0,1.4,0.7,Time
,,S16,1,女,20,anonymized,Serial_Dependence_U,2023.2.3,Win32,59.88023952091634,,,,,,1721.924399999991,118.0,3.0,1721.924699999988,118.0,,,,1725.3235,1725.821599999994,1724.810399999991,1725.3232999999968,1722.935099999994,1724.810199999988,1725.821599999994,1726.321199999988,1726.321399999991,1728.248299999997,1448.0,1728.2483999999909,5.0,1728.248899999991,3.0,5.0,95.0,0.0,1.0,0.8,0.3,Time
,,S16,1,女,20,anonymized,Serial_Dependence_U,2023.2.3,Win32,59.88023952091634,,,,,,1728.249399999991,334.0,3.0,1728.2497999999969,334.0,,,,1731.641899999991,1732.1409999999998,1731.130899999991,1731.6413999999909,1729.251599999994,1731.130799999997,1732.1409999999998,1732.641899999991,1732.6419999999998,1735.015099999994,1490.0,1735.015199999988,5.0,1735.015799999997,3.0,6.0,96.0,10.0,1.0,0.8,0.3,Time
,,S16,1,女,20,anonymized,Serial_Dependence_U,2023.2.3,Win32,59.88023952091634,,,,,,1735.0163999999909,49.0,3.0,1735.016799999997,49.0,,,,1739.201399999991,1739.702399999991,1738.698399999991,1739.2009999999998,1736.027099999994,1738.698099999994,1739.7025,1740.197199999988,1740.197199999988,1742.522199999988,1748.0,1742.522399999991,4.0,1742.523,3.0,7.0,97.0,14.0,1.0,1.6,0.3,Time
,,S16,1,女,20,anonymized,Serial_Dependence_U,2023.2.3,Win32,59.88023952091634,,,,,,1742.5235999999938,119.0,3.0,1742.523899999991,119.0,,,,1746.0725,1746.560299999997,1745.5665,1746.072099999994,1743.528599999994,1745.566199999988,1746.560399999991,1747.054899999991,1747.054899999991,1749.219799999997,1527.0,1749.2199999999998,5.0,1749.220599999994,3.0,8.0,98.0,16.0,1.0,1.0,0.7,Time
,,S16,1,女,20,anonymized,Serial_Dependence_U,2023.2.3,Win32,59.88023952091634,,,,,,1749.221399999991,13.0,3.0,1749.221899999991,13.0,,,,1752.8067999999969,1753.308299999997,1752.297599999994,1752.8065,1750.2297999999969,1752.297399999991,1753.308399999991,1753.808899999991,1753.809099999994,1755.223599999994,1296.0,1755.223699999988,4.0,1755.224099999994,3.0,9.0,99.0,1.0,1.0,1.0,0.3,Time
,,S16,1,女,20,anonymized,Serial_Dependence_U,2023.2.3,Win32,59.88023952091634,,,,,,1755.224699999988,42.0,3.0,1755.224899999991,42.0,,,,1759.3733999999909,1759.877599999994,1758.8635,1759.373099999994,1756.230699999988,1758.863299999997,1759.877799999997,1760.376,1760.376,1762.395899999991,1586.0,1762.396,3.0,1762.3964999999998,3.0,10.0,100.0,9.0,1.0,1.6,0.7,Time
,,S16,1,女,20,anonymized,Serial_Dependence_U,2023.2.3,Win32,59.88023952091634,,,,,,1762.397299999997,32.0,3.0,1762.397599999994,32.0,,,,1766.555899999991,1767.058899999991,1766.043099999994,1766.555599999994,1763.397399999991,1766.042799999997,1767.058899999991,1767.5585,1767.558599999994,1769.331899999991,1316.0,1769.332,2.0,1769.3325,3.0,11.0,101.0,29.0,1.0,1.6,0.7,Time
,,S16,1,女,20,anonymized,Serial_Dependence_U,2023.2.3,Win32,59.88023952091634,,,,,,1769.333599999994,139.0,3.0,1769.334199999988,139.0,,,,1772.911699999988,1773.413899999991,1772.406399999991,1772.910899999991,1770.3398999999908,1772.406,1773.414599999994,1773.916799999997,1773.9168999999908,1775.83,1260.0,1775.830199999988,4.0,1775.830599999994,3.0,12.0,102.0,11.0,1.0,1.0,0.3,Time
,,S16,1,女,20,anonymized,Serial_Dependence_U,2023.2.3,Win32,59.88023952091634,,,,,,1775.831199999988,65.0,3.0,1775.8315,65.0,,,,1780.035799999997,1780.528699999988,1779.522599999994,1780.035399999991,1776.848399999991,1779.522599999994,1780.528899999991,1781.025699999988,1781.025799999997,1782.8974999999998,1640.0,1782.897699999988,3.0,1782.898199999988,3.0,13.0,103.0,24.0,1.0,1.6,0.3,Time
,,S16,1,女,20,anonymized,Serial_Dependence_U,2023.2.3,Win32,59.88023952091634,,,,,,1782.898899999991,57.0,3.0,1782.899099999994,57.0,,,,1786.487899999991,1786.984399999991,1785.980199999988,1786.487599999994,1783.9145,1785.9799999999998,1786.984399999991,1787.488899999991,1787.488899999991,1789.4305,1489.0,1789.4305,5.0,1789.4309999999998,3.0,14.0,104.0,21.0,1.0,1.0,0.3,Time
,,S16,1,女,20,anonymized,Serial_Dependence_U,2023.2.3,Win32,59.88023952091634,,,,,,1789.431599999994,51.0,3.0,1789.432099999994,51.0,,,,1793.193599999994,1793.682599999994,1792.680099999994,1793.193299999997,1790.437799999997,1792.679599999994,1793.682599999994,1794.180199999988,1794.1802999999968,1796.409799999997,1708.0,1796.409899999991,5.0,1796.410399999991,3.0,15.0,105.0,27.0,1.0,1.2,0.7,Time
,,S16,1,女,20,anonymized,Serial_Dependence_U,2023.2.3,Win32,59.88023952091634,,,,,,1796.411699999988,29.0,3.0,1796.412399999991,29.0,,,,1800.1964999999998,1800.684099999994,1799.6899999999998,1800.196,1797.4135,1799.689899999991,1800.684199999988,1801.1803999999909,1801.180699999988,1803.134399999991,1316.0,1803.134599999994,4.0,1803.1350999999936,3.0,16.0,106.0,12.0,1.0,1.2,0.3,Time
,,S16,1,女,20,anonymized,Serial_Dependence_U,2023.2.3,Win32,59.88023952091634,,,,,,1803.135599999994,177.0,3.0,1803.1365,177.0,,,,1807.3142999999968,1807.8135,1806.797599999994,1807.314199999988,1804.131099999994,1806.797199999988,1807.813599999994,1808.305599999994,1808.305699999988,1810.331099999994,1399.0,1810.3312999999969,2.0,1810.331899999991,3.0,17.0,107.0,4.0,1.0,1.6,0.3,Time
,,S16,1,女,20,anonymized,Serial_Dependence_U,2023.2.3,Win32,59.88023952091634,,,,,,1810.333199999988,318.0,3.0,1810.333799999997,318.0,,,,1814.127099999994,1814.618299999997,1813.616199999988,1814.126599999994,1811.343899999991,1813.615899999991,1814.618299999997,1815.117099999994,1815.117199999988,1817.448599999994,1458.0,1817.448799999997,4.0,1817.450799999997,3.0,18.0,108.0,22.0,1.0,1.2,0.3,Time
,,S16,1,女,20,anonymized,Serial_Dependence_U,2023.2.3,Win32,59.88023952091634,,,,,,1817.4525,338.0,3.0,1817.4535,338.0,,,,1821.399799999997,1821.903699999988,1820.8902999999968,1821.3995999999936,1818.452,1820.890099999994,1821.9037999999969,1822.407299999997,1822.407299999997,1824.782399999991,1749.0,1824.7825999999936,4.0,1824.783099999994,3.0,19.0,109.0,28.0,1.0,1.4,0.7,Time
,,S16,1,女,20,anonymized,Serial_Dependence_U,2023.2.3,Win32,59.88023952091634,,,,,,1824.783899999991,17.0,3.0,1824.784199999988,17.0,,,,1828.351599999994,1828.8522999999968,1827.8357999999969,1828.351199999988,1825.791,1827.8355,1828.8522999999968,1829.3415,1829.341699999988,1831.280199999988,1431.0,1831.280399999991,5.0,1831.2808999999909,3.0,20.0,110.0,26.0,1.0,1.0,0.7,Time
,,S16,1,女,20,anonymized,Serial_Dependence_U,2023.2.3,Win32,59.88023952091634,,,,,,1831.281699999988,202.0,3.0,1831.282299999997,202.0,,,,1835.033799999997,1835.532799999997,1834.531299999997,1835.0335999999936,1832.2935,1834.531199999988,1835.533,1836.0295,1836.029599999994,1838.024799999997,1557.0,1838.025,4.0,1838.025599999994,3.0,21.0,111.0,17.0,1.0,1.2,0.7,Time
,,S16,1,女,20,anonymized,Serial_Dependence_U,2023.2.3,Win32,59.88023952091634,,,,,,1838.026199999988,149.0,3.0,1838.026599999994,149.0,,,,1841.3767999999968,1841.8767999999968,1840.865899999991,1841.376399999991,1839.031599999994,1840.8655,1841.8768999999909,1842.3798999999908,1842.38,1844.358,1554.0,1844.358199999988,5.0,1844.358699999988,3.0,22.0,112.0,25.0,1.0,0.8,0.7,Time
,,S16,1,女,20,anonymized,Serial_Dependence_U,2023.2.3,Win32,59.88023952091634,,,,,,1844.359299999997,351.0,3.0,1844.3595999999936,351.0,,,,1848.353,1848.847,1847.8395999999937,1848.3525999999936,1845.367199999988,1847.839199999988,1848.847099999994,1849.3427999999967,1849.3427999999967,1851.650099999994,1477.0,1851.650299999997,4.0,1851.650699999988,3.0,23.0,113.0,3.0,1.0,1.4,0.3,Time
,,S16,1,女,20,anonymized,Serial_Dependence_U,2023.2.3,Win32,59.88023952091634,,,,,,1851.6512999999968,359.0,3.0,1851.651699999988,359.0,,,,1855.6293999999912,1856.123799999997,1855.118799999997,1855.6290999999935,1852.647699999988,1855.1185999999936,1856.123799999997,1856.6242999999968,1856.624699999988,1859.1415,1551.0,1859.141599999994,4.0,1859.142099999994,3.0,24.0,114.0,23.0,1.0,1.4,0.3,Time
,,S16,1,女,20,anonymized,Serial_Dependence_U,2023.2.3,Win32,59.88023952091634,,,,,,1859.1425999999935,155.0,3.0,1859.1430999999936,155.0,,,,1862.501599999994,1862.997199999988,1861.9983999999909,1862.5012999999967,1860.1563999999908,1861.998199999988,1862.9972999999968,1863.499,1863.499099999994,1865.4415,1390.0,1865.441699999988,5.0,1865.442,3.0,25.0,115.0,5.0,1.0,0.8,0.7,Time
,,S16,1,女,20,anonymized,Serial_Dependence_U,2023.2.3,Win32,59.88023952091634,,,,,,1865.442599999994,102.0,3.0,1865.443,102.0,,,,1869.213399999991,1869.7100999999936,1868.704699999988,1869.213,1866.439199999988,1868.704599999994,1869.7100999999936,1870.211399999991,1870.2115,1872.3917999999967,1653.0,1872.392,5.0,1872.392799999997,3.0,26.0,116.0,2.0,1.0,1.2,0.3,Time
,,S16,1,女,20,anonymized,Serial_Dependence_U,2023.2.3,Win32,59.88023952091634,,,,,,1872.394099999994,102.0,3.0,1872.3953999999908,102.0,,,,1876.148199999988,1876.6408999999908,1875.6442999999967,1876.147699999988,1873.400599999994,1875.644,1876.641,1877.146399999991,1877.1465,1879.342199999988,1743.0,1879.342299999997,5.0,1879.3458999999912,3.0,27.0,117.0,7.0,1.0,1.2,0.7,Time
,,S16,1,女,20,anonymized,Serial_Dependence_U,2023.2.3,Win32,59.88023952091634,,,,,,1879.347399999991,225.0,3.0,1879.3477999999968,225.0,,,,1882.698199999988,1883.197,1882.193599999994,1882.698199999988,1880.3565999999944,1882.193399999991,1883.197099999994,1883.6850999999936,1883.685199999988,1885.911299999997,1611.0,1885.911599999994,5.0,1885.912199999988,3.0,28.0,118.0,15.0,1.0,0.8,0.7,Time
,,S16,1,女,20,anonymized,Serial_Dependence_U,2023.2.3,Win32,59.88023952091634,,,,,,1885.913,262.0,3.0,1885.914699999988,262.0,,,,1889.314699999988,1889.809,1888.806899999991,1889.3145999999936,1886.9232999999967,1888.806699999988,1889.809099999994,1890.305199999988,1890.3055,1892.390199999988,1444.0,1892.390199999988,5.0,1892.3905999999936,3.0,29.0,119.0,20.0,1.0,0.8,0.3,Time
,,S16,1,女,20,anonymized,Serial_Dependence_U,2023.2.3,Win32,59.88023952091634,,,,,,1892.391199999988,279.0,4.0,2071.453299999997,279.0,s,179.0375999999942,,2075.205899999991,2075.700699999988,2074.689799999997,2075.2055,2072.451599999994,2074.689599999994,2075.700699999988,2076.196699999988,2076.196799999997,2078.0535,1381.0,2078.053599999994,4.0,2078.054399999991,4.0,0.0,120.0,7.0,1.0,1.2,0.7,Time
,,S16,1,女,20,anonymized,Serial_Dependence_U,2023.2.3,Win32,59.88023952091634,,,,,,2078.056599999994,346.0,4.0,2078.060799999997,346.0,,,,2082.244899999991,2082.740399999991,2081.734299999997,2082.243799999997,2079.0685,2081.734,2082.7405999999937,2083.241399999991,2083.2415,2084.965399999991,1263.0,2084.965599999994,2.0,2084.9660999999937,4.0,1.0,121.0,4.0,1.0,1.6,0.3,Time
,,S16,1,女,20,anonymized,Serial_Dependence_U,2023.2.3,Win32,59.88023952091634,,,,,,2084.966899999991,335.0,4.0,2084.9675,335.0,,,,2089.117599999994,2089.6135,2088.614699999988,2089.117199999988,2085.980199999988,2088.614599999994,2089.6135999999938,2090.116399999991,2090.1165,2092.273199999988,1678.0,2092.273399999991,3.0,2092.2737999999968,4.0,2.0,122.0,19.0,1.0,1.6,0.7,Time
,,S16,1,女,20,anonymized,Serial_Dependence_U,2023.2.3,Win32,59.88023952091634,,,,,,2092.2745,20.0,4.0,2092.274899999991,20.0,,,,2096.2675999999938,2096.765199999988,2095.756399999991,2096.2675,2093.279699999988,2095.756299999997,2096.765399999991,2097.256099999994,2097.256099999994,2099.155,1416.0,2099.155099999994,3.0,2099.1555,4.0,3.0,123.0,23.0,1.0,1.4,0.3,Time
,,S16,1,女,20,anonymized,Serial_Dependence_U,2023.2.3,Win32,59.88023952091634,,,,,,2099.156,118.0,4.0,2099.1565,118.0,,,,2103.317699999988,2103.818099999994,2102.807,2103.317299999997,2100.158799999997,2102.806799999997,2103.8182999999967,2104.313099999994,2104.313199999988,2106.6615,1812.0,2106.661699999988,4.0,2106.662799999997,4.0,4.0,124.0,9.0,1.0,1.6,0.7,Time
,,S16,1,女,20,anonymized,Serial_Dependence_U,2023.2.3,Win32,59.88023952091634,,,,,,2106.664599999994,71.0,4.0,2106.665199999988,71.0,,,,2110.235899999991,2110.730099999994,2109.7312999999967,2110.235399999991,2107.668899999991,2109.731199999988,2110.730199999988,2111.234299999997,2111.234599999994,2113.299299999997,1508.0,2113.299399999991,5.0,2113.3,4.0,5.0,125.0,21.0,1.0,1.0,0.3,Time
,,S16,1,女,20,anonymized,Serial_Dependence_U,2023.2.3,Win32,59.88023952091634,,,,,,2113.300899999991,165.0,4.0,2113.303199999988,165.0,,,,2117.279099999994,2117.782099999994,2116.773099999994,2117.278699999988,2114.303,2116.772899999991,2117.782199999988,2118.281899999991,2118.282,2120.393299999997,1573.0,2120.393399999991,4.0,2120.393699999988,4.0,6.0,126.0,3.0,1.0,1.4,0.3,Time
,,S16,1,女,20,anonymized,Serial_Dependence_U,2023.2.3,Win32,59.88023952091634,,,,,,2120.395,277.0,4.0,2120.395599999994,277.0,,,,2124.177299999997,2124.6735,2123.669899999991,2124.177099999994,2121.398299999997,2123.6695,2124.6735,2125.173099999994,2125.173099999994,2127.052699999988,1329.0,2127.053,4.0,2127.053899999991,4.0,7.0,127.0,22.0,1.0,1.2,0.3,Time
,,S16,1,女,20,anonymized,Serial_Dependence_U,2023.2.3,Win32,59.88023952091634,,,,,,2127.054899999991,260.0,4.0,2127.055399999991,260.0,,,,2130.638799999997,2131.132899999991,2130.129599999994,2130.638699999988,2128.066199999988,2130.129399999991,2131.132899999991,2131.633099999994,2131.633399999991,2133.457599999994,1322.0,2133.457799999997,5.0,2133.458299999997,4.0,8.0,128.0,11.0,1.0,1.0,0.3,Time
,,S16,1,女,20,anonymized,Serial_Dependence_U,2023.2.3,Win32,59.88023952091634,,,,,,2133.459099999994,308.0,4.0,2133.4595999999938,308.0,,,,2137.459099999994,2137.9575,2136.9435,2137.4587999999967,2134.474199999988,2136.943399999991,2137.957599999994,2138.455299999997,2138.455299999997,2140.327599999994,1426.0,2140.328099999994,3.0,2140.328799999997,4.0,9.0,129.0,13.0,1.0,1.4,0.3,Time
,,S16,1,女,20,anonymized,Serial_Dependence_U,2023.2.3,Win32,59.88023952091634,,,,,,2140.329699999988,0.0,4.0,2140.330199999988,0.0,,,,2143.730399999991,2144.233599999994,2143.216899999991,2143.730199999988,2141.344199999988,2143.216699999988,2144.233599999994,2144.739399999991,2144.7395,2146.5295,1187.0,2146.529799999997,5.0,2146.531199999988,4.0,10.0,130.0,10.0,1.0,0.8,0.3,Time
,,S16,1,女,20,anonymized,Serial_Dependence_U,2023.2.3,Win32,59.88023952091634,,,,,,2146.532599999994,105.0,4.0,2146.5330999999937,105.0,,,,2150.494299999997,2150.9915,2149.987199999988,2150.494099999994,2147.5515,2149.987099999994,2150.991599999994,2151.496899999991,2151.497,2153.6808999999907,1692.0,2153.681099999994,4.0,2153.681699999988,4.0,11.0,131.0,28.0,1.0,1.4,0.7,Time
,,S16,1,女,20,anonymized,Serial_Dependence_U,2023.2.3,Win32,59.88023952091634,,,,,,2153.682399999991,19.0,4.0,2153.683299999997,19.0,,,,2157.062199999988,2157.557399999991,2156.552099999994,2157.0620999999937,2154.689799999997,2156.551899999991,2157.5575,2158.063099999994,2158.063199999988,2159.9643999999907,1446.0,2159.964599999994,5.0,2159.966,4.0,12.0,132.0,20.0,1.0,0.8,0.3,Time
,,S16,1,女,20,anonymized,Serial_Dependence_U,2023.2.3,Win32,59.88023952091634,,,,,,2159.967099999994,307.0,4.0,2159.967399999991,307.0,,,,2163.940899999991,2164.441099999994,2163.431099999994,2163.940399999991,2160.976699999988,2163.431099999994,2164.441099999994,2164.943099999994,2164.943199999988,2166.895299999997,1481.0,2166.8955,4.0,2166.896699999988,4.0,13.0,133.0,8.0,1.0,1.4,0.7,Time
,,S16,1,女,20,anonymized,Serial_Dependence_U,2023.2.3,Win32,59.88023952091634,,,,,,2166.898,214.0,4.0,2166.8985,214.0,,,,2170.461,2170.965199999988,2169.9565,2170.460599999994,2167.892099999994,2169.956299999997,2170.965199999988,2171.466199999988,2171.466299999997,2173.453299999997,1479.0,2173.4535,5.0,2173.4545,4.0,14.0,134.0,1.0,1.0,1.0,0.3,Time
,,S16,1,女,20,anonymized,Serial_Dependence_U,2023.2.3,Win32,59.88023952091634,,,,,,2173.4550999999938,74.0,4.0,2173.455299999997,74.0,,,,2177.226,2177.716299999997,2176.714,2177.225599999994,2174.4645,2176.713799999997,2177.716299999997,2178.2045,2178.204599999994,2180.425,1659.0,2180.425099999994,5.0,2180.425599999994,4.0,15.0,135.0,17.0,1.0,1.2,0.7,Time
,,S16,1,女,20,anonymized,Serial_Dependence_U,2023.2.3,Win32,59.88023952091634,,,,,,2180.426199999988,4.0,4.0,2180.426599999994,4.0,,,,2184.192799999997,2184.688699999988,2183.6895,2184.192699999988,2181.440299999997,2183.689299999997,2184.688899999991,2185.186699999988,2185.1867999999968,2187.5502999999967,1811.0,2187.550599999994,5.0,2187.551899999991,4.0,16.0,136.0,27.0,1.0,1.2,0.7,Time
,,S16,1,女,20,anonymized,Serial_Dependence_U,2023.2.3,Win32,59.88023952091634,,,,,,2187.5535,298.0,4.0,2187.554699999988,298.0,,,,2191.489599999994,2191.971399999991,2190.9875,2191.489099999994,2188.5455,2190.9875,2191.9715,2192.469,2192.469099999994,2194.587099999994,1686.0,2194.587199999988,4.0,2194.587699999988,4.0,17.0,137.0,18.0,1.0,1.4,0.7,Time
,,S16,1,女,20,anonymized,Serial_Dependence_U,2023.2.3,Win32,59.88023952091634,,,,,,2194.5882999999967,99.0,4.0,2194.589,99.0,,,,2198.751599999994,2199.250799999997,2198.247,2198.751399999991,2195.593,2198.246899999991,2199.250799999997,2199.750899999991,2199.751099999994,2202.518599999994,1977.0,2202.519,4.0,2202.521099999994,4.0,18.0,138.0,29.0,1.0,1.6,0.7,Time
,,S16,1,女,20,anonymized,Serial_Dependence_U,2023.2.3,Win32,59.88023952091634,,,,,,2202.522799999997,35.0,4.0,2202.523199999988,35.0,,,,2206.081399999991,2206.5795,2205.576299999997,2206.080899999991,2203.537099999994,2205.576099999994,2206.579599999994,2207.067699999988,2207.068099999994,2209.292,1680.0,2209.2920999999938,5.0,2209.2925,4.0,19.0,139.0,26.0,1.0,1.0,0.7,Time
,,S16,1,女,20,anonymized,Serial_Dependence_U,2023.2.3,Win32,59.88023952091634,,,,,,2209.293099999994,260.0,4.0,2209.293199999988,260.0,,,,2213.090199999988,2213.590599999994,2212.576899999991,2213.09,2210.3027999999968,2212.576699999988,2213.590699999988,2214.097199999988,2214.0975,2216.188099999994,1718.0,2216.188199999988,5.0,2216.188699999988,4.0,20.0,140.0,2.0,1.0,1.2,0.3,Time
,,S16,1,女,20,anonymized,Serial_Dependence_U,2023.2.3,Win32,59.88023952091634,,,,,,2216.189299999997,14.0,4.0,2216.189599999994,14.0,,,,2219.5385,2220.0403999999908,2219.027399999991,2219.538099999994,2217.191799999997,2219.027299999997,2220.0405,2220.538299999997,2220.538299999997,2222.865899999991,1881.0,2222.866099999994,5.0,2222.8665,4.0,21.0,141.0,15.0,1.0,0.8,0.7,Time
,,S16,1,女,20,anonymized,Serial_Dependence_U,2023.2.3,Win32,59.88023952091634,,,,,,2222.867099999994,167.0,4.0,2222.8675,167.0,,,,2226.224099999994,2226.720099999994,2225.714899999991,2226.223799999997,2223.8815,2225.7145,2226.720199999988,2227.224399999991,2227.2245,2228.8985,1175.0,2228.898599999994,5.0,2228.8990999999937,4.0,22.0,142.0,25.0,1.0,0.8,0.7,Time
,,S16,1,女,20,anonymized,Serial_Dependence_U,2023.2.3,Win32,59.88023952091634,,,,,,2228.9,243.0,4.0,2228.9005,243.0,,,,2232.701199999988,2233.198599999994,2232.19,2232.700899999991,2229.917,2232.1898999999908,2233.198599999994,2233.692599999994,2233.693,2235.841699999988,1664.0,2235.842599999994,5.0,2235.844099999994,4.0,23.0,143.0,12.0,1.0,1.2,0.3,Time
,,S16,1,女,20,anonymized,Serial_Dependence_U,2023.2.3,Win32,59.88023952091634,,,,,,2235.845699999988,164.0,4.0,2235.846299999997,164.0,,,,2239.406,2239.902,2238.897899999991,2239.405699999988,2236.8495,2238.897699999988,2239.902099999994,2240.391699999988,2240.3917999999967,2242.3117999999968,1510.0,2242.312,5.0,2242.312799999997,4.0,24.0,144.0,16.0,1.0,1.0,0.7,Time
,,S16,1,女,20,anonymized,Serial_Dependence_U,2023.2.3,Win32,59.88023952091634,,,,,,2242.314,96.0,4.0,2242.314599999994,96.0,,,,2246.502,2246.992199999988,2245.989899999991,2246.501899999991,2243.319,2245.989699999988,2246.9922999999967,2247.4840999999938,2247.4840999999938,2249.7825,1709.0,2249.7825,4.0,2249.7830999999937,4.0,25.0,145.0,24.0,1.0,1.6,0.3,Time
,,S16,1,女,20,anonymized,Serial_Dependence_U,2023.2.3,Win32,59.88023952091634,,,,,,2249.783699999988,300.0,4.0,2249.784099999994,300.0,,,,2253.138199999988,2253.630099999994,2252.631599999994,2253.137699999988,2250.783399999991,2252.6315,2253.630099999994,2254.1215,2254.121599999994,2255.7035,1174.0,2255.7035,5.0,2255.7045,4.0,26.0,146.0,5.0,1.0,0.8,0.7,Time
,,S16,1,女,20,anonymized,Serial_Dependence_U,2023.2.3,Win32,59.88023952091634,,,,,,2255.706099999994,150.0,4.0,2255.706599999994,150.0,,,,2259.8897999999967,2260.3880999999938,2259.384299999997,2259.889399999991,2256.716899999991,2259.383899999991,2260.3880999999938,2260.876399999991,2260.876699999988,2263.113099999994,1477.0,2263.113099999994,2.0,2263.1135999999938,4.0,27.0,147.0,14.0,1.0,1.6,0.3,Time
,,S16,1,女,20,anonymized,Serial_Dependence_U,2023.2.3,Win32,59.88023952091634,,,,,,2263.114199999988,227.0,4.0,2263.1145,227.0,,,,2266.480599999994,2266.972,2265.9767999999967,2266.480299999997,2264.110099999994,2265.976699999988,2266.972,2267.465599999994,2267.465599999994,2268.999099999994,1150.0,2268.999199999988,5.0,2268.999699999988,4.0,28.0,148.0,0.0,1.0,0.8,0.3,Time
,,S16,1,女,20,anonymized,Serial_Dependence_U,2023.2.3,Win32,59.88023952091634,,,,,,2269.0005,300.0,4.0,2269.000799999997,300.0,,,,2272.554599999994,2273.042599999994,2272.0510999999938,2272.554199999988,2270.006299999997,2272.050899999991,2273.042599999994,2273.538599999994,2273.538599999994,2275.4995999999937,1517.0,2275.499699999988,5.0,2275.500199999988,4.0,29.0,149.0,6.0,1.0,1.0,0.7,Time
,,S16,1,女,20,anonymized,Serial_Dependence_U,2023.2.3,Win32,59.88023952091634,,,,,,2275.500899999991,238.0,5.0,2344.6760999999938,238.0,s,69.15070000000287,,2348.234699999988,2348.7305,2347.731,2348.234399999991,2345.688699999988,2347.730799999997,2348.730599999994,2349.226299999997,2349.226399999991,2350.741,1087.0,2350.741099999994,4.0,2350.742099999994,5.0,0.0,150.0,6.0,1.0,1.0,0.7,Time
,,S16,1,女,20,anonymized,Serial_Dependence_U,2023.2.3,Win32,59.88023952091634,,,,,,2350.743599999994,85.0,5.0,2350.747799999997,85.0,,,,2354.326699999988,2354.818,2353.814699999988,2354.326399999991,2351.742799999997,2353.814599999994,2354.818,2355.318799999997,2355.319,2357.171399999991,1295.0,2357.171399999991,4.0,2357.1725,5.0,1.0,151.0,1.0,1.0,1.0,0.3,Time
,,S16,1,女,20,anonymized,Serial_Dependence_U,2023.2.3,Win32,59.88023952091634,,,,,,2357.174,54.0,5.0,2357.1745,54.0,,,,2360.755099999994,2361.251399999991,2360.251699999988,2360.754899999991,2358.187399999991,2360.2515,2361.251399999991,2361.750299999997,2361.750599999994,2363.347,1076.0,2363.3472999999967,4.0,2363.348099999994,5.0,2.0,152.0,21.0,1.0,1.0,0.3,Time
,,S16,1,女,20,anonymized,Serial_Dependence_U,2023.2.3,Win32,59.88023952091634,,,,,,2363.349199999988,151.0,5.0,2363.3495,151.0,,,,2367.145199999988,2367.648699999988,2366.631199999988,2367.145,2364.351099999994,2366.631099999994,2367.6487999999968,2368.143599999994,2368.143699999988,2370.106899999991,1324.0,2370.107,4.0,2370.107799999997,5.0,3.0,153.0,2.0,1.0,1.2,0.3,Time
,,S16,1,女,20,anonymized,Serial_Dependence_U,2023.2.3,Win32,59.88023952091634,,,,,,2370.109599999994,312.0,5.0,2370.110199999988,312.0,,,,2374.105799999997,2374.601599999994,2373.584,2374.105799999997,2371.117099999994,2373.583399999991,2374.601699999988,2375.0965,2375.096599999994,2377.142099999994,1564.0,2377.142199999988,4.0,2377.1425999999938,5.0,4.0,154.0,3.0,1.0,1.4,0.3,Time
,,S16,1,女,20,anonymized,Serial_Dependence_U,2023.2.3,Win32,59.88023952091634,,,,,,2377.143299999997,191.0,5.0,2377.144099999994,191.0,,,,2380.502699999988,2380.993699999988,2379.998899999991,2380.5023999999908,2378.152699999988,2379.998799999997,2380.993699999988,2381.4885999999938,2381.488799999997,2383.374799999997,1339.0,2383.374899999991,5.0,2383.3755,5.0,5.0,155.0,15.0,1.0,0.8,0.7,Time
,,S16,1,女,20,anonymized,Serial_Dependence_U,2023.2.3,Win32,59.88023952091634,,,,,,2383.376199999988,280.0,5.0,2383.376699999988,280.0,,,,2386.7740999999937,2387.262599999994,2386.258699999988,2386.772899999991,2384.393899999991,2386.2585999999937,2387.262699999988,2387.765399999991,2387.765399999991,2389.447,1311.0,2389.447099999994,5.0,2389.448199999988,5.0,6.0,156.0,0.0,1.0,0.8,0.3,Time
,,S16,1,女,20,anonymized,Serial_Dependence_U,2023.2.3,Win32,59.88023952091634,,,,,,2389.4488999999908,128.0,5.0,2389.449199999988,128.0,,,,2393.2205999999937,2393.724599999994,2392.717299999997,2393.2202999999968,2390.453399999991,2392.716899999991,2393.724699999988,2394.224199999988,2394.224299999997,2395.663399999991,1056.0,2395.6635,2.0,2395.664,5.0,7.0,157.0,12.0,1.0,1.2,0.3,Time
,,S16,1,女,20,anonymized,Serial_Dependence_U,2023.2.3,Win32,59.88023952091634,,,,,,2395.664699999988,256.0,5.0,2395.665199999988,256.0,,,,2399.808199999988,2400.306699999988,2399.303899999991,2399.807899999991,2396.669,2399.303599999994,2400.306799999997,2400.807399999991,2400.8075,2403.169399999991,1917.0,2403.169599999994,4.0,2403.170699999988,5.0,8.0,158.0,9.0,1.0,1.6,0.7,Time
,,S16,1,女,20,anonymized,Serial_Dependence_U,2023.2.3,Win32,59.88023952091634,,,,,,2403.172399999991,168.0,5.0,2403.172799999997,168.0,,,,2406.534699999988,2407.029899999991,2406.024399999991,2406.534299999997,2404.1835,2406.024199999988,2407.030099999994,2407.528399999991,2407.5285999999937,2409.567699999988,1527.0,2409.567899999991,5.0,2409.5682999999967,5.0,9.0,159.0,5.0,1.0,0.8,0.7,Time
,,S16,1,女,20,anonymized,Serial_Dependence_U,2023.2.3,Win32,59.88023952091634,,,,,,2409.569,37.0,5.0,2409.571899999991,37.0,,,,2413.736699999988,2414.238699999988,2413.224599999994,2413.7365,2410.583599999994,2413.224199999988,2414.238699999988,2414.741599999994,2414.741699999988,2416.794699999988,1928.0,2416.794899999991,4.0,2416.796,5.0,10.0,160.0,29.0,1.0,1.6,0.7,Time
,,S16,1,女,20,anonymized,Serial_Dependence_U,2023.2.3,Win32,59.88023952091634,,,,,,2416.797,217.0,5.0,2416.797299999997,217.0,,,,2420.954799999997,2421.455199999988,2420.436399999991,2420.954599999994,2417.796699999988,2420.436299999997,2421.4553999999907,2421.953099999994,2421.953199999988,2424.910599999994,2370.0,2424.910799999997,5.0,2424.911899999991,5.0,11.0,161.0,19.0,1.0,1.6,0.7,Time
,,S16,1,女,20,anonymized,Serial_Dependence_U,2023.2.3,Win32,59.88023952091634,,,,,,2424.913,230.0,5.0,2424.913399999991,230.0,,,,2428.462899999991,2428.965599999994,2427.954099999994,2428.462799999997,2425.921299999997,2427.953899999991,2428.965699999988,2429.466699999988,2429.466799999997,2431.649,1633.0,2431.6490999999937,5.0,2431.649699999988,5.0,12.0,162.0,16.0,1.0,1.0,0.7,Time
,,S16,1,女,20,anonymized,Serial_Dependence_U,2023.2.3,Win32,59.88023952091634,,,,,,2431.6505,208.0,5.0,2431.651699999988,208.0,,,,2435.035799999997,2435.533,2434.525199999988,2435.0355,2432.652099999994,2434.525,2435.533199999988,2436.0295,2436.0295,2437.624099999994,1191.0,2437.624199999988,5.0,2437.624699999988,5.0,13.0,163.0,10.0,1.0,0.8,0.3,Time
,,S16,1,女,20,anonymized,Serial_Dependence_U,2023.2.3,Win32,59.88023952091634,,,,,,2437.625799999997,212.0,5.0,2437.6262999999967,212.0,,,,2441.637399999991,2442.135899999991,2441.1225,2441.637099999994,2438.642799999997,2441.122399999991,2442.136099999994,2442.626699999988,2442.626699999988,2444.641099999994,1455.0,2444.641199999988,3.0,2444.641699999988,5.0,14.0,164.0,13.0,1.0,1.4,0.3,Time
,,S16,1,女,20,anonymized,Serial_Dependence_U,2023.2.3,Win32,59.88023952091634,,,,,,2444.642399999991,299.0,5.0,2444.642799999997,299.0,,,,2448.023899999991,2448.529799999997,2447.518299999997,2448.0235,2445.650099999994,2447.518,2448.529799999997,2449.034199999988,2449.034399999991,2450.899199999988,1284.0,2450.899299999997,5.0,2450.899799999997,5.0,15.0,165.0,20.0,1.0,0.8,0.3,Time
,,S16,1,女,20,anonymized,Serial_Dependence_U,2023.2.3,Win32,59.88023952091634,,,,,,2450.900399999991,222.0,5.0,2450.900599999994,222.0,,,,2454.653899999991,2455.157399999991,2454.145899999991,2454.6535999999937,2451.906099999994,2454.145799999997,2455.1575,2455.652099999994,2455.652199999988,2457.7635,1445.0,2457.763599999994,4.0,2457.764099999994,5.0,16.0,166.0,17.0,1.0,1.2,0.7,Time
,,S16,1,女,20,anonymized,Serial_Dependence_U,2023.2.3,Win32,59.88023952091634,,,,,,2457.765,268.0,5.0,2457.7655,268.0,,,,2461.3395,2461.833099999994,2460.831399999991,2461.339199999988,2458.7675,2460.831,2461.833099999994,2462.329899999991,2462.3300999999938,2464.6575,1505.0,2464.657599999994,5.0,2464.657899999991,5.0,17.0,167.0,11.0,1.0,1.0,0.3,Time
,,S16,1,女,20,anonymized,Serial_Dependence_U,2023.2.3,Win32,59.88023952091634,,,,,,2464.658699999988,50.0,5.0,2464.659099999994,50.0,,,,2468.606,2469.105099999994,2468.098199999988,2468.605599999994,2465.665899999991,2468.098,2469.105099999994,2469.603799999997,2469.604,2471.958,1726.0,2471.958199999988,4.0,2471.958699999988,5.0,18.0,168.0,18.0,1.0,1.4,0.7,Time
,,S16,1,女,20,anonymized,Serial_Dependence_U,2023.2.3,Win32,59.88023952091634,,,,,,2471.959299999997,77.0,5.0,2471.959799999997,77.0,,,,2475.714899999991,2476.21,2475.2125,2475.714799999997,2472.9643999999907,2475.212399999991,2476.21,2476.710099999994,2476.710199999988,2479.239199999988,1650.0,2479.239299999997,5.0,2479.239899999991,5.0,19.0,169.0,27.0,1.0,1.2,0.7,Time
,,S16,1,女,20,anonymized,Serial_Dependence_U,2023.2.3,Win32,59.88023952091634,,,,,,2479.2405999999937,171.0,5.0,2479.240899999991,171.0,,,,2482.605399999991,2483.105399999991,2482.0927999999967,2482.604899999991,2480.257,2482.092299999997,2483.1055,2483.604299999997,2483.604399999991,2485.390399999991,1265.0,2485.390599999994,5.0,2485.391099999994,5.0,20.0,170.0,25.0,1.0,0.8,0.7,Time
,,S16,1,女,20,anonymized,Serial_Dependence_U,2023.2.3,Win32,59.88023952091634,,,,,,2485.392099999994,125.0,5.0,2485.3925999999938,125.0,,,,2489.358599999994,2489.858099999994,2488.848699999988,2489.358099999994,2486.406099999994,2488.8485,2489.858399999991,2490.353399999991,2490.353799999997,2493.05,1937.0,2493.050099999994,5.0,2493.050799999997,5.0,21.0,171.0,28.0,1.0,1.4,0.7,Time
,,S16,1,女,20,anonymized,Serial_Dependence_U,2023.2.3,Win32,59.88023952091634,,,,,,2493.052199999988,172.0,5.0,2493.052599999994,172.0,,,,2497.229399999991,2497.732199999988,2496.714099999994,2497.229,2494.046099999994,2496.713899999991,2497.732299999997,2498.224099999994,2498.224099999994,2501.409699999988,1887.0,2501.4097999999967,4.0,2501.410399999991,5.0,22.0,172.0,4.0,1.0,1.6,0.3,Time
,,S16,1,女,20,anonymized,Serial_Dependence_U,2023.2.3,Win32,59.88023952091634,,,,,,2501.411799999997,144.0,5.0,2501.412,144.0,,,,2505.594299999997,2506.088399999991,2505.0895,2505.594099999994,2502.418399999991,2505.0893999999907,2506.0885,2506.591699999988,2506.591799999997,2508.763299999997,1923.0,2508.7635,4.0,2508.763899999991,5.0,23.0,173.0,24.0,1.0,1.6,0.3,Time
,,S16,1,女,20,anonymized,Serial_Dependence_U,2023.2.3,Win32,59.88023952091634,,,,,,2508.7647999999967,327.0,5.0,2508.765399999991,327.0,,,,2512.718199999988,2513.213099999994,2512.2075,2512.718,2509.761899999991,2512.207299999997,2513.213099999994,2513.701399999991,2513.7015,2516.1155999999937,1862.0,2516.115699999988,5.0,2516.116099999994,5.0,24.0,174.0,8.0,1.0,1.4,0.7,Time
,,S16,1,女,20,anonymized,Serial_Dependence_U,2023.2.3,Win32,59.88023952091634,,,,,,2516.117,54.0,5.0,2516.117599999994,54.0,,,,2520.309899999991,2520.805199999988,2519.800799999997,2520.309399999991,2517.128299999997,2519.8005,2520.805299999997,2521.3072999999968,2521.307399999991,2523.985399999991,2053.0,2523.985699999988,4.0,2523.987,5.0,25.0,175.0,14.0,1.0,1.6,0.3,Time
,,S16,1,女,20,anonymized,Serial_Dependence_U,2023.2.3,Win32,59.88023952091634,,,,,,2523.988,197.0,5.0,2523.9885,197.0,,,,2527.7715,2528.273099999994,2527.2655,2527.771199999988,2524.987,2527.265299999997,2528.273099999994,2528.762299999997,2528.7625,2531.751599999994,1884.0,2531.751899999991,5.0,2531.753099999994,5.0,26.0,176.0,22.0,1.0,1.2,0.3,Time
,,S16,1,女,20,anonymized,Serial_Dependence_U,2023.2.3,Win32,59.88023952091634,,,,,,2531.754199999988,33.0,5.0,2531.754599999994,33.0,,,,2535.728299999997,2536.217399999991,2535.2215,2535.727699999988,2532.755099999994,2535.221299999997,2536.217599999994,2536.713099999994,2536.713399999991,2539.294099999994,1971.0,2539.294299999997,5.0,2539.295399999991,5.0,27.0,177.0,23.0,1.0,1.4,0.3,Time
,,S16,1,女,20,anonymized,Serial_Dependence_U,2023.2.3,Win32,59.88023952091634,,,,,,2539.297199999988,337.0,5.0,2539.297599999994,337.0,,,,2543.056699999988,2543.559399999991,2542.548699999988,2543.056399999991,2540.306799999997,2542.5485999999937,2543.559399999991,2544.055599999994,2544.0558999999907,2546.012899999991,1516.0,2546.013199999988,4.0,2546.013899999991,5.0,28.0,178.0,7.0,1.0,1.2,0.7,Time
,,S16,1,女,20,anonymized,Serial_Dependence_U,2023.2.3,Win32,59.88023952091634,,,,,,2546.0147999999967,256.0,5.0,2546.015099999994,256.0,,,,2549.574399999991,2550.071899999991,2549.060899999991,2549.574099999994,2547.024799999997,2549.060599999994,2550.072,2550.579599999994,2550.579599999994,2552.5240999999937,1707.0,2552.524199999988,5.0,2552.5245,5.0,29.0,179.0,26.0,1.0,1.0,0.7,Time
,,S16,1,女,20,anonymized,Serial_Dependence_U,2023.2.3,Win32,59.88023952091634,,,,,,2552.525299999997,153.0,6.0,2589.336199999988,153.0,s,36.78690000000597,,2593.297599999994,2593.793,2592.7845,2593.297599999994,2590.3393999999907,2592.784399999991,2593.793099999994,2594.284399999991,2594.2845,2596.121399999991,1429.0,2596.121399999991,3.0,2596.122,6.0,0.0,180.0,18.0,1.0,1.4,0.7,Time
,,S16,1,女,20,anonymized,Serial_Dependence_U,2023.2.3,Win32,59.88023952091634,,,,,,2596.123,232.0,6.0,2596.127599999994,232.0,,,,2599.493099999994,2599.988699999988,2598.981799999997,2599.492699999988,2597.138299999997,2598.981599999994,2599.9888999999907,2600.490399999991,2600.490399999991,2602.257899999991,1361.0,2602.258,5.0,2602.258699999988,6.0,1.0,181.0,5.0,1.0,0.8,0.7,Time
,,S16,1,女,20,anonymized,Serial_Dependence_U,2023.2.3,Win32,59.88023952091634,,,,,,2602.260399999991,93.0,6.0,2602.260799999997,93.0,,,,2605.648099999994,2606.1487999999968,2605.143299999997,2605.647799999997,2603.271699999988,2605.143,2606.148899999991,2606.642,2606.642199999988,2608.190699999988,1172.0,2608.190899999991,5.0,2608.1915,6.0,2.0,182.0,0.0,1.0,0.8,0.3,Time
,,S16,1,女,20,anonymized,Serial_Dependence_U,2023.2.3,Win32,59.88023952091634,,,,,,2608.192699999988,328.0,6.0,2608.1932999999967,328.0,,,,2611.993799999997,2612.4885999999938,2611.489599999994,2611.9935,2609.212399999991,2611.4895,2612.488799999997,2612.992399999991,2612.992399999991,2615.011299999997,1473.0,2615.0115,4.0,2615.012199999988,6.0,3.0,183.0,2.0,1.0,1.2,0.3,Time
,,S16,1,女,20,anonymized,Serial_Dependence_U,2023.2.3,Win32,59.88023952091634,,,,,,2615.012899999991,130.0,6.0,2615.013299999997,130.0,,,,2618.359399999991,2618.856099999994,2617.853599999994,2618.359,2616.015399999991,2617.853199999988,2618.856199999988,2619.350399999991,2619.350599999994,2621.176799999997,1211.0,2621.176899999991,5.0,2621.178599999994,6.0,4.0,184.0,25.0,1.0,0.8,0.7,Time
,,S16,1,女,20,anonymized,Serial_Dependence_U,2023.2.3,Win32,59.88023952091634,,,,,,2621.1797999999967,286.0,6.0,2621.180199999988,286.0,,,,2624.933399999991,2625.430099999994,2624.4297999999967,2624.932799999997,2622.186199999988,2624.429599999994,2625.430099999994,2625.924,2625.924099999994,2628.220199999988,1750.0,2628.220399999991,5.0,2628.221199999988,6.0,5.0,185.0,17.0,1.0,1.2,0.7,Time
,,S16,1,女,20,anonymized,Serial_Dependence_U,2023.2.3,Win32,59.88023952091634,,,,,,2628.222199999988,280.0,6.0,2628.222699999988,280.0,,,,2632.000099999994,2632.502,2631.493299999997,2631.999699999988,2629.231399999991,2631.493199999988,2632.502,2632.99,2632.990199999988,2635.231399999991,1668.0,2635.2315,5.0,2635.232099999994,6.0,6.0,186.0,12.0,1.0,1.2,0.3,Time
,,S16,1,女,20,anonymized,Serial_Dependence_U,2023.2.3,Win32,59.88023952091634,,,,,,2635.233,328.0,6.0,2635.233399999991,328.0,,,,2639.176299999997,2639.676599999994,2638.673099999994,2639.1760999999938,2636.24,2638.673,2639.676599999994,2640.167599999994,2640.167599999994,2641.748399999991,1236.0,2641.7485,2.0,2641.748899999991,6.0,7.0,187.0,8.0,1.0,1.4,0.7,Time
,,S16,1,女,20,anonymized,Serial_Dependence_U,2023.2.3,Win32,59.88023952091634,,,,,,2641.7495,341.0,6.0,2641.749799999997,341.0,,,,2645.9260999999938,2646.4245,2645.422799999997,2645.925599999994,2642.750299999997,2645.422599999994,2646.424599999994,2646.918899999991,2646.919,2650.0983999999908,2139.0,2650.0983999999908,5.0,2650.098899999991,6.0,8.0,188.0,4.0,1.0,1.6,0.3,Time
,,S16,1,女,20,anonymized,Serial_Dependence_U,2023.2.3,Win32,59.88023952091634,,,,,,2650.099399999991,90.0,6.0,2650.099699999988,90.0,,,,2653.846299999997,2654.335299999997,2653.331699999988,2653.846,2651.0995,2653.3315,2654.335399999991,2654.831,2654.831,2657.190599999994,1865.0,2657.190699999988,5.0,2657.191199999988,6.0,9.0,189.0,27.0,1.0,1.2,0.7,Time
,,S16,1,女,20,anonymized,Serial_Dependence_U,2023.2.3,Win32,59.88023952091634,,,,,,2657.192,168.0,6.0,2657.192799999997,168.0,,,,2660.762699999988,2661.2575,2660.259,2660.762599999994,2658.191199999988,2660.258899999991,2661.257599999994,2661.760399999991,2661.7605,2664.013699999988,1713.0,2664.013899999991,5.0,2664.014399999991,6.0,10.0,190.0,21.0,1.0,1.0,0.3,Time
,,S16,1,女,20,anonymized,Serial_Dependence_U,2023.2.3,Win32,59.88023952091634,,,,,,2664.015299999997,313.0,6.0,2664.016299999997,313.0,,,,2668.169199999988,2668.668199999988,2667.664599999994,2668.168699999988,2665.0205,2667.6645,2668.668199999988,2669.1655,2669.165599999994,2671.735,2100.0,2671.735099999994,5.0,2671.735699999988,6.0,11.0,191.0,9.0,1.0,1.6,0.7,Time
,,S16,1,女,20,anonymized,Serial_Dependence_U,2023.2.3,Win32,59.88023952091634,,,,,,2671.738,203.0,6.0,2671.738799999997,203.0,,,,2675.9308999999907,2676.4342999999967,2675.428799999997,2675.930699999988,2672.754599999994,2675.428599999994,2676.4342999999967,2676.933799999997,2676.933899999991,2679.566199999988,1951.0,2679.5662999999968,4.0,2679.566799999997,6.0,12.0,192.0,24.0,1.0,1.6,0.3,Time
,,S16,1,女,20,anonymized,Serial_Dependence_U,2023.2.3,Win32,59.88023952091634,,,,,,2679.567899999991,342.0,6.0,2679.568699999988,342.0,,,,2683.543899999991,2684.035099999994,2683.035,2683.5437999999967,2680.571399999991,2683.034699999988,2684.035199999988,2684.5325,2684.532599999994,2686.869699999988,1689.0,2686.869899999991,4.0,2686.8705,6.0,13.0,193.0,3.0,1.0,1.4,0.3,Time
,,S16,1,女,20,anonymized,Serial_Dependence_U,2023.2.3,Win32,59.88023952091634,,,,,,2686.872199999988,294.0,6.0,2686.873199999988,294.0,,,,2690.859699999988,2691.356899999991,2690.348599999994,2690.859299999997,2687.876599999994,2690.348299999997,2691.357199999988,2691.858599999994,2691.858599999994,2693.782699999988,1455.0,2693.7827999999968,3.0,2693.783399999991,6.0,14.0,194.0,13.0,1.0,1.4,0.3,Time
,,S16,1,女,20,anonymized,Serial_Dependence_U,2023.2.3,Win32,59.88023952091634,,,,,,2693.7845,171.0,6.0,2693.785299999997,171.0,,,,2697.538399999991,2698.04,2697.0335,2697.538099999994,2694.790299999997,2697.033399999991,2698.040099999994,2698.5435,2698.543599999994,2700.272899999991,1281.0,2700.273,4.0,2700.2735,6.0,15.0,195.0,7.0,1.0,1.2,0.7,Time
,,S16,1,女,20,anonymized,Serial_Dependence_U,2023.2.3,Win32,59.88023952091634,,,,,,2700.274299999997,359.0,6.0,2700.274899999991,359.0,,,,2703.866899999991,2704.361299999997,2703.356399999991,2703.8665,2701.285099999994,2703.3562999999967,2704.3615,2704.864399999991,2704.8645,2706.782099999994,1298.0,2706.782199999988,4.0,2706.7825,6.0,16.0,196.0,11.0,1.0,1.0,0.3,Time
,,S16,1,女,20,anonymized,Serial_Dependence_U,2023.2.3,Win32,59.88023952091634,,,,,,2706.7830999999937,275.0,6.0,2706.783399999991,275.0,,,,2710.357199999988,2710.857299999997,2709.854699999988,2710.356899999991,2707.781899999991,2709.8545999999938,2710.857399999991,2711.357699999988,2711.357799999997,2712.942199999988,1126.0,2712.942399999991,4.0,2712.942799999997,6.0,17.0,197.0,1.0,1.0,1.0,0.3,Time
,,S16,1,女,20,anonymized,Serial_Dependence_U,2023.2.3,Win32,59.88023952091634,,,,,,2712.9432999999967,84.0,6.0,2712.944799999997,84.0,,,,2716.499799999997,2717.0045,2715.985,2716.4995,2713.947,2715.984699999988,2717.004599999994,2717.507299999997,2717.507399999991,2719.585599999994,1491.0,2719.585799999997,5.0,2719.586899999991,6.0,18.0,198.0,26.0,1.0,1.0,0.7,Time
,,S16,1,女,20,anonymized,Serial_Dependence_U,2023.2.3,Win32,59.88023952091634,,,,,,2719.588399999991,88.0,6.0,2719.589199999988,88.0,,,,2723.546,2724.036199999988,2723.037,2723.545699999988,2720.599599999994,2723.036799999997,2724.036299999997,2724.5345,2724.534599999994,2726.620799999997,1586.0,2726.621,4.0,2726.6215,6.0,19.0,199.0,28.0,1.0,1.4,0.7,Time
,,S16,1,女,20,anonymized,Serial_Dependence_U,2023.2.3,Win32,59.88023952091634,,,,,,2726.622399999991,341.0,6.0,2726.622799999997,341.0,,,,2730.4015,2730.8995,2729.888799999997,2730.401199999988,2727.6172999999967,2729.8885,2730.899899999991,2731.391899999991,2731.392199999988,2733.217399999991,1442.0,2733.217599999994,4.0,2733.218299999997,6.0,20.0,200.0,22.0,1.0,1.2,0.3,Time
,,S16,1,女,20,anonymized,Serial_Dependence_U,2023.2.3,Win32,59.88023952091634,,,,,,2733.2195,231.0,6.0,2733.220099999994,231.0,,,,2737.392699999988,2737.898,2736.884799999997,2737.392299999997,2734.218,2736.884599999994,2737.898,2738.400199999988,2738.400299999997,2741.1470999999938,1380.0,2741.147299999997,2.0,2741.148699999988,6.0,21.0,201.0,14.0,1.0,1.6,0.3,Time
,,S16,1,女,20,anonymized,Serial_Dependence_U,2023.2.3,Win32,59.88023952091634,,,,,,2741.15,12.0,6.0,2741.151099999994,12.0,,,,2745.144899999991,2745.633799999997,2744.6315,2745.143799999997,2742.155099999994,2744.631299999997,2745.633899999991,2746.129199999988,2746.129399999991,2747.783,1402.0,2747.783199999988,3.0,2747.783699999988,6.0,22.0,202.0,23.0,1.0,1.4,0.3,Time
,,S16,1,女,20,anonymized,Serial_Dependence_U,2023.2.3,Win32,59.88023952091634,,,,,,2747.7845,209.0,6.0,2747.785299999997,209.0,,,,2751.130399999991,2751.627099999994,2750.625699999988,2751.130199999988,2748.789,2750.625599999994,2751.627299999997,2752.132099999994,2752.132099999994,2754.1005,1439.0,2754.100599999994,5.0,2754.101099999994,6.0,23.0,203.0,15.0,1.0,0.8,0.7,Time
,,S16,1,女,20,anonymized,Serial_Dependence_U,2023.2.3,Win32,59.88023952091634,,,,,,2754.103299999997,87.0,6.0,2754.104299999997,87.0,,,,2757.668899999991,2758.161799999997,2757.1642999999967,2757.668699999988,2755.114299999997,2757.164099999994,2758.161799999997,2758.6495,2758.649599999994,2760.207299999997,1133.0,2760.207299999997,4.0,2760.207799999997,6.0,24.0,204.0,16.0,1.0,1.0,0.7,Time
,,S16,1,女,20,anonymized,Serial_Dependence_U,2023.2.3,Win32,59.88023952091634,,,,,,2760.208299999997,183.0,6.0,2760.209,183.0,,,,2764.370699999988,2764.873,2763.863699999988,2764.370199999988,2761.222699999988,2763.8635999999938,2764.873099999994,2765.371099999994,2765.371199999988,2767.410299999997,1576.0,2767.410399999991,3.0,2767.411899999991,6.0,25.0,205.0,29.0,1.0,1.6,0.7,Time
,,S16,1,女,20,anonymized,Serial_Dependence_U,2023.2.3,Win32,59.88023952091634,,,,,,2767.412699999988,108.0,6.0,2767.413099999994,108.0,,,,2770.8015,2771.3013999999907,2770.288699999988,2770.801199999988,2768.413799999997,2770.2885,2771.3015,2771.805099999994,2771.805399999991,2773.819299999997,1613.0,2773.819599999994,5.0,2773.820399999991,6.0,26.0,206.0,20.0,1.0,0.8,0.3,Time
,,S16,1,女,20,anonymized,Serial_Dependence_U,2023.2.3,Win32,59.88023952091634,,,,,,2773.8210999999937,9.0,6.0,2773.8215,9.0,,,,2777.977599999994,2778.4735,2777.471599999994,2777.977299999997,2774.8317999999967,2777.4715,2778.4735,2778.9722999999967,2778.972399999991,2781.0803999999907,1565.0,2781.0805,3.0,2781.080899999991,6.0,27.0,207.0,19.0,1.0,1.6,0.7,Time
,,S16,1,女,20,anonymized,Serial_Dependence_U,2023.2.3,Win32,59.88023952091634,,,,,,2781.081899999991,349.0,6.0,2781.082799999997,349.0,,,,2784.4553999999907,2784.951699999988,2783.951399999991,2784.455299999997,2782.083099999994,2783.951299999997,2784.951799999997,2785.456199999988,2785.456299999997,2787.32,1417.0,2787.320199999988,5.0,2787.320799999997,6.0,28.0,208.0,10.0,1.0,0.8,0.3,Time
,,S16,1,女,20,anonymized,Serial_Dependence_U,2023.2.3,Win32,59.88023952091634,,,,,,2787.322599999994,150.0,6.0,2787.323399999991,150.0,,,,2790.889599999994,2791.382399999991,2790.372199999988,2790.8895,2788.3292999999967,2790.372099999994,2791.3825,2791.883,2791.883099999994,2794.021099999994,1594.0,2794.021399999991,5.0,2794.0225,6.0,29.0,209.0,6.0,1.0,1.0,0.7,Time
,,S16,1,女,20,anonymized,Serial_Dependence_U,2023.2.3,Win32,59.88023952091634,,,,,,2794.0237999999968,68.0,7.0,2859.352099999994,68.0,s,65.30260000000908,,2863.104,2863.592599999994,2862.597399999991,2863.103799999997,2860.363399999991,2862.597199999988,2863.592599999994,2864.091399999991,2864.091699999988,2865.9165,1210.0,2865.916599999994,3.0,2865.9170999999938,7.0,0.0,210.0,17.0,1.0,1.2,0.7,Time
,,S16,1,女,20,anonymized,Serial_Dependence_U,2023.2.3,Win32,59.88023952091634,,,,,,2865.918099999994,146.0,7.0,2865.923699999988,146.0,,,,2869.484899999991,2869.988099999994,2868.976599999994,2869.4845,2866.935799999997,2868.9765,2869.988199999988,2870.476099999994,2870.476099999994,2872.242,1253.0,2872.242099999994,4.0,2872.242899999991,7.0,1.0,211.0,16.0,1.0,1.0,0.7,Time
,,S16,1,女,20,anonymized,Serial_Dependence_U,2023.2.3,Win32,59.88023952091634,,,,,,2872.243699999988,6.0,7.0,2872.244899999991,6.0,,,,2875.979299999997,2876.483199999988,2875.473299999997,2875.979099999994,2873.239699999988,2875.473099999994,2876.483299999997,2876.983,2876.983099999994,2878.605099999994,1056.0,2878.6055,2.0,2878.606699999988,7.0,2.0,212.0,7.0,1.0,1.2,0.7,Time
,,S16,1,女,20,anonymized,Serial_Dependence_U,2023.2.3,Win32,59.88023952091634,,,,,,2878.607799999997,138.0,7.0,2878.6085,138.0,,,,2882.764899999991,2883.262699999988,2882.247799999997,2882.764699999988,2879.608699999988,2882.247399999991,2883.262899999991,2883.7585,2883.758699999988,2885.616399999991,1400.0,2885.616599999994,2.0,2885.6175,7.0,3.0,213.0,9.0,1.0,1.6,0.7,Time
,,S16,1,女,20,anonymized,Serial_Dependence_U,2023.2.3,Win32,59.88023952091634,,,,,,2885.618299999997,239.0,7.0,2885.618699999988,239.0,,,,2889.804099999994,2890.2985999999937,2889.296299999997,2889.8035,2886.626,2889.296199999988,2890.2985999999937,2890.787,2890.787199999988,2892.759199999988,1357.0,2892.759199999988,2.0,2892.759899999991,7.0,4.0,214.0,4.0,1.0,1.6,0.3,Time
,,S16,1,女,20,anonymized,Serial_Dependence_U,2023.2.3,Win32,59.88023952091634,,,,,,2892.760799999997,274.0,7.0,2892.762099999994,274.0,,,,2896.742199999988,2897.240899999991,2896.240099999994,2896.741799999997,2893.774199999988,2896.239899999991,2897.241099999994,2897.740899999991,2897.741,2899.980099999994,1443.0,2899.980099999994,3.0,2899.980699999988,7.0,5.0,215.0,3.0,1.0,1.4,0.3,Time
,,S16,1,女,20,anonymized,Serial_Dependence_U,2023.2.3,Win32,59.88023952091634,,,,,,2899.981899999991,75.0,7.0,2899.982699999988,75.0,,,,2904.135,2904.624,2903.6325,2904.134599999994,2900.996199999988,2903.632199999988,2904.624099999994,2905.116099999994,2905.116199999988,2907.033399999991,1414.0,2907.033699999988,2.0,2907.035099999994,7.0,6.0,216.0,29.0,1.0,1.6,0.7,Time
,,S16,1,女,20,anonymized,Serial_Dependence_U,2023.2.3,Win32,59.88023952091634,,,,,,2907.036899999991,255.0,7.0,2907.037799999997,255.0,,,,2910.396399999991,2910.890799999997,2909.884799999997,2910.396199999988,2908.039799999997,2909.884599999994,2910.891,2911.383,2911.383099999994,2913.340699999988,1391.0,2913.3407999999968,5.0,2913.341399999991,7.0,7.0,217.0,5.0,1.0,0.8,0.7,Time
,,S16,1,女,20,anonymized,Serial_Dependence_U,2023.2.3,Win32,59.88023952091634,,,,,,2913.346399999991,162.0,7.0,2913.346899999991,162.0,,,,2916.737399999991,2917.231899999991,2916.223799999997,2916.737,2914.360399999991,2916.2233999999908,2917.232099999994,2917.732699999988,2917.732799999997,2919.848899999991,1173.0,2919.849,5.0,2919.8495,7.0,8.0,218.0,10.0,1.0,0.8,0.3,Time
,,S16,1,女,20,anonymized,Serial_Dependence_U,2023.2.3,Win32,59.88023952091634,,,,,,2919.850399999991,148.0,7.0,2919.853899999991,148.0,,,,2923.824199999988,2924.322,2923.308599999994,2923.8238999999908,2920.868,2923.308199999988,2924.322,2924.8165,2924.8165,2926.999899999991,1710.0,2927.000099999994,4.0,2927.000599999994,7.0,9.0,219.0,8.0,1.0,1.4,0.7,Time
,,S16,1,女,20,anonymized,Serial_Dependence_U,2023.2.3,Win32,59.88023952091634,,,,,,2927.001199999988,104.0,7.0,2927.001599999994,104.0,,,,2930.595099999994,2931.0895,2930.089099999994,2930.594099999994,2928.0102999999967,2930.089,2931.0895,2931.583199999988,2931.583199999988,2933.473799999997,1252.0,2933.473899999991,4.0,2933.474199999988,7.0,10.0,220.0,11.0,1.0,1.0,0.3,Time
,,S16,1,女,20,anonymized,Serial_Dependence_U,2023.2.3,Win32,59.88023952091634,,,,,,2933.474899999991,108.0,7.0,2933.475399999991,108.0,,,,2936.821,2937.316099999994,2936.316199999988,2936.820799999997,2934.471799999997,2936.315799999997,2937.316199999988,2937.821,2937.821199999988,2939.433799999997,1177.0,2939.433899999991,5.0,2939.434899999991,7.0,11.0,221.0,25.0,1.0,0.8,0.7,Time
,,S16,1,女,20,anonymized,Serial_Dependence_U,2023.2.3,Win32,59.88023952091634,,,,,,2939.436299999997,97.0,7.0,2939.437399999991,97.0,,,,2943.614399999991,2944.1095,2943.1110999999937,2943.614099999994,2940.4455,2943.110599999994,2944.1095,2944.6105,2944.610599999994,2946.363799999997,1305.0,2946.3638999999907,2.0,2946.3645,7.0,12.0,222.0,14.0,1.0,1.6,0.3,Time
,,S16,1,女,20,anonymized,Serial_Dependence_U,2023.2.3,Win32,59.88023952091634,,,,,,2946.365199999988,337.0,7.0,2946.365899999991,337.0,,,,2950.558399999991,2951.055,2950.055799999997,2950.558099999994,2947.380399999991,2950.055699999988,2951.055,2951.562899999991,2951.563,2953.480799999997,1411.0,2953.480899999991,2.0,2953.4812999999967,7.0,13.0,223.0,24.0,1.0,1.6,0.3,Time
,,S16,1,女,20,anonymized,Serial_Dependence_U,2023.2.3,Win32,59.88023952091634,,,,,,2953.481799999997,345.0,7.0,2953.482099999994,345.0,,,,2957.032599999994,2957.5375999999937,2956.523,2957.032299999997,2954.489199999988,2956.522899999991,2957.537699999988,2958.042199999988,2958.042199999988,2959.708299999997,1280.0,2959.708399999991,4.0,2959.709099999994,7.0,14.0,224.0,6.0,1.0,1.0,0.7,Time
,,S16,1,女,20,anonymized,Serial_Dependence_U,2023.2.3,Win32,59.88023952091634,,,,,,2959.710299999997,276.0,7.0,2959.712599999994,276.0,,,,2963.6905,2964.190699999988,2963.186899999991,2963.690199999988,2960.7160999999937,2963.1867999999968,2964.190799999997,2964.688299999997,2964.688599999994,2966.782199999988,1616.0,2966.782299999997,4.0,2966.782699999988,7.0,15.0,225.0,23.0,1.0,1.4,0.3,Time
,,S16,1,女,20,anonymized,Serial_Dependence_U,2023.2.3,Win32,59.88023952091634,,,,,,2966.783599999994,261.0,7.0,2966.784299999997,261.0,,,,2970.159099999994,2970.650699999988,2969.648399999991,2970.158799999997,2967.7845,2969.648299999997,2970.650699999988,2971.151699999988,2971.1518999999907,2972.975,1318.0,2972.9750999999937,5.0,2972.975799999997,7.0,16.0,226.0,0.0,1.0,0.8,0.3,Time
,,S16,1,女,20,anonymized,Serial_Dependence_U,2023.2.3,Win32,59.88023952091634,,,,,,2972.976899999991,73.0,7.0,2972.9778999999908,73.0,,,,2976.770099999994,2977.266399999991,2976.263,2976.769699999988,2973.989099999994,2976.262899999991,2977.2665,2977.7723999999907,2977.772699999988,2979.582899999991,1321.0,2979.583,4.0,2979.584799999997,7.0,17.0,227.0,2.0,1.0,1.2,0.3,Time
,,S16,1,女,20,anonymized,Serial_Dependence_U,2023.2.3,Win32,59.88023952091634,,,,,,2979.5865999999937,58.0,7.0,2979.587599999994,58.0,,,,2982.948599999994,2983.449399999991,2982.44,2982.948299999997,2980.597899999991,2982.4398999999908,2983.4495,2983.953299999997,2983.9535,2985.846299999997,1452.0,2985.846399999991,5.0,2985.846799999997,7.0,18.0,228.0,15.0,1.0,0.8,0.7,Time
,,S16,1,女,20,anonymized,Serial_Dependence_U,2023.2.3,Win32,59.88023952091634,,,,,,2985.847899999991,283.0,7.0,2985.848599999994,283.0,,,,2989.636699999988,2990.133399999991,2989.131799999997,2989.636299999997,2986.8635999999938,2989.131599999994,2990.1335,2990.632199999988,2990.632299999997,2992.522899999991,1395.0,2992.523,4.0,2992.5235,7.0,19.0,229.0,12.0,1.0,1.2,0.3,Time
,,S16,1,女,20,anonymized,Serial_Dependence_U,2023.2.3,Win32,59.88023952091634,,,,,,2992.5240999999937,355.0,7.0,2992.525,355.0,,,,2996.519099999994,2997.016899999991,2996.014299999997,2996.518799999997,2993.546,2996.014199999988,2997.016899999991,2997.5135,2997.5135,2999.358299999997,1413.0,2999.358299999997,3.0,2999.358699999988,7.0,20.0,230.0,13.0,1.0,1.4,0.3,Time
,,S16,1,女,20,anonymized,Serial_Dependence_U,2023.2.3,Win32,59.88023952091634,,,,,,2999.359399999991,338.0,7.0,2999.359699999988,338.0,,,,3003.506599999994,3004.004699999988,3003.000599999994,3003.506299999997,3000.357099999994,3003.000399999991,3004.004799999997,3004.500099999994,3004.500099999994,3006.566,1663.0,3006.566099999994,3.0,3006.5665999999937,7.0,21.0,231.0,19.0,1.0,1.6,0.7,Time
,,S16,1,女,20,anonymized,Serial_Dependence_U,2023.2.3,Win32,59.88023952091634,,,,,,3006.569199999988,149.0,7.0,3006.570599999994,149.0,,,,3010.511599999994,3011.007899999991,3010.006,3010.510799999997,3007.5735,3010.005699999988,3011.007899999991,3011.504899999991,3011.505099999994,3013.961,1978.0,3013.961099999994,5.0,3013.961899999991,7.0,22.0,232.0,28.0,1.0,1.4,0.7,Time
,,S16,1,女,20,anonymized,Serial_Dependence_U,2023.2.3,Win32,59.88023952091634,,,,,,3013.962699999988,146.0,7.0,3013.963199999988,146.0,,,,3017.546199999988,3018.041299999997,3017.031,3017.546099999994,3014.9685,3017.030799999997,3018.041399999991,3018.540899999991,3018.541,3020.566699999988,1576.0,3020.566799999997,5.0,3020.567399999991,7.0,23.0,233.0,1.0,1.0,1.0,0.3,Time
,,S16,1,女,20,anonymized,Serial_Dependence_U,2023.2.3,Win32,59.88023952091634,,,,,,3020.5682999999967,197.0,7.0,3020.5693999999908,197.0,,,,3024.348699999988,3024.843199999988,3023.842299999997,3024.3483999999908,3021.576199999988,3023.842199999988,3024.843199999988,3025.332899999991,3025.333099999994,3027.4018999999907,1436.0,3027.402,4.0,3027.402899999991,7.0,24.0,234.0,22.0,1.0,1.2,0.3,Time
,,S16,1,女,20,anonymized,Serial_Dependence_U,2023.2.3,Win32,59.88023952091634,,,,,,3027.403899999991,270.0,7.0,3027.4045,270.0,,,,3031.154299999997,3031.6485,3030.642099999994,3031.153799999997,3028.408899999991,3030.641899999991,3031.6485,3032.144099999994,3032.144099999994,3033.9905999999937,1385.0,3033.990799999997,4.0,3033.991099999994,7.0,25.0,235.0,27.0,1.0,1.2,0.7,Time
,,S16,1,女,20,anonymized,Serial_Dependence_U,2023.2.3,Win32,59.88023952091634,,,,,,3033.991599999994,189.0,7.0,3033.992,189.0,,,,3037.589199999988,3038.090899999991,3037.075399999991,3037.588799999997,3035.007599999994,3037.074899999991,3038.090899999991,3038.5882999999967,3038.5882999999967,3040.468699999988,1406.0,3040.468799999997,5.0,3040.47,7.0,26.0,236.0,21.0,1.0,1.0,0.3,Time
,,S16,1,女,20,anonymized,Serial_Dependence_U,2023.2.3,Win32,59.88023952091634,,,,,,3040.470899999991,182.0,7.0,3040.471199999988,182.0,,,,3043.856099999994,3044.355399999991,3043.348199999988,3043.855699999988,3041.471699999988,3043.348,3044.355399999991,3044.854199999988,3044.854399999991,3046.879699999988,1332.0,3046.879799999997,5.0,3046.880199999988,7.0,27.0,237.0,20.0,1.0,0.8,0.3,Time
,,S16,1,女,20,anonymized,Serial_Dependence_U,2023.2.3,Win32,59.88023952091634,,,,,,3046.881099999994,151.0,7.0,3046.881799999997,151.0,,,,3050.848299999997,3051.349199999988,3050.342299999997,3050.848099999994,3047.896799999997,3050.342099999994,3051.349299999997,3051.846899999991,3051.847,3054.290599999994,1812.0,3054.290699999988,4.0,3054.292599999994,7.0,28.0,238.0,18.0,1.0,1.4,0.7,Time
,,S16,1,女,20,anonymized,Serial_Dependence_U,2023.2.3,Win32,59.88023952091634,,,,,,3054.2937999999967,85.0,7.0,3054.294699999988,85.0,,,,3057.855399999991,3058.353,3057.335799999997,3057.855299999997,3055.299299999997,3057.335399999991,3058.353199999988,3058.858399999991,3058.8585,3060.913099999994,1405.0,3060.913199999988,5.0,3060.913899999991,7.0,29.0,239.0,26.0,1.0,1.0,0.7,Time
,,S16,1,女,20,anonymized,Serial_Dependence_U,2023.2.3,Win32,59.88023952091634,,,,,,3060.915199999988,101.0,8.0,3155.194299999997,101.0,s,94.25380000001178,,3158.997399999991,3159.492099999994,3158.482899999991,3158.997199999988,3156.208099999994,3158.482599999994,3159.492199999988,3159.992799999997,3159.992899999991,3161.794199999988,1429.0,3161.7945,4.0,3161.795599999994,8.0,0.0,240.0,2.0,1.0,1.2,0.3,Time
,,S16,1,女,20,anonymized,Serial_Dependence_U,2023.2.3,Win32,59.88023952091634,,,,,,3161.797199999988,329.0,8.0,3161.800399999991,329.0,,,,3165.780899999991,3166.279599999994,3165.275199999988,3165.780799999997,3162.813899999991,3165.275099999994,3166.279699999988,3166.774399999991,3166.774399999991,3168.5313999999908,1321.0,3168.531699999988,2.0,3168.532399999991,8.0,1.0,241.0,13.0,1.0,1.4,0.3,Time
,,S16,1,女,20,anonymized,Serial_Dependence_U,2023.2.3,Win32,59.88023952091634,,,,,,3168.533899999991,19.0,8.0,3168.534399999991,19.0,,,,3172.708299999997,3173.199399999991,3172.197699999988,3172.708,3169.547099999994,3172.197599999994,3173.1995,3173.691399999991,3173.691399999991,3176.241199999988,1980.0,3176.241299999997,4.0,3176.241799999997,8.0,2.0,242.0,29.0,1.0,1.6,0.7,Time
,,S16,1,女,20,anonymized,Serial_Dependence_U,2023.2.3,Win32,59.88023952091634,,,,,,3176.244699999988,214.0,8.0,3176.245599999994,214.0,,,,3180.209799999997,3180.7050999999938,3179.696299999997,3180.2095,3177.254799999997,3179.695899999991,3180.705199999988,3181.199699999988,3181.199799999997,3183.098,1526.0,3183.098199999988,4.0,3183.0985,8.0,3.0,243.0,28.0,1.0,1.4,0.7,Time
,,S16,1,女,20,anonymized,Serial_Dependence_U,2023.2.3,Win32,59.88023952091634,,,,,,3183.099199999988,229.0,8.0,3183.099599999994,229.0,,,,3187.255299999997,3187.754699999988,3186.748199999988,3187.255199999988,3184.0995,3186.748,3187.754899999991,3188.248899999991,3188.249,3190.432199999988,1774.0,3190.4322999999968,4.0,3190.432799999997,8.0,4.0,244.0,19.0,1.0,1.6,0.7,Time
,,S16,1,女,20,anonymized,Serial_Dependence_U,2023.2.3,Win32,59.88023952091634,,,,,,3190.433399999991,329.0,8.0,3190.434,329.0,,,,3193.799599999994,3194.305299999997,3193.293199999988,3193.799299999997,3191.4505999999938,3193.293,3194.305399999991,3194.808099999994,3194.808099999994,3196.7478999999908,1424.0,3196.748,5.0,3196.7485,8.0,5.0,245.0,5.0,1.0,0.8,0.7,Time
,,S16,1,女,20,anonymized,Serial_Dependence_U,2023.2.3,Win32,59.88023952091634,,,,,,3196.749399999991,285.0,8.0,3196.750099999994,285.0,,,,3200.134799999997,3200.625099999994,3199.622799999997,3200.134399999991,3197.760099999994,3199.622699999988,3200.625199999988,3201.121699999988,3201.121899999991,3202.683199999988,1175.0,3202.683599999994,5.0,3202.684699999988,8.0,6.0,246.0,20.0,1.0,0.8,0.3,Time
,,S16,1,女,20,anonymized,Serial_Dependence_U,2023.2.3,Win32,59.88023952091634,,,,,,3202.686299999997,324.0,8.0,3202.6865,324.0,,,,3206.063599999994,3206.560599999994,3205.556099999994,3206.0635,3203.689199999988,3205.555799999997,3206.561,3207.057199999988,3207.0572999999968,3209.1262999999967,1411.0,3209.126399999991,5.0,3209.127,8.0,7.0,247.0,10.0,1.0,0.8,0.3,Time
,,S16,1,女,20,anonymized,Serial_Dependence_U,2023.2.3,Win32,59.88023952091634,,,,,,3209.128199999988,139.0,8.0,3209.129,139.0,,,,3212.495799999997,3212.9925,3211.9835,3212.4955,3210.143099999994,3211.983199999988,3212.9925,3213.4825,3213.482599999994,3215.239599999994,1289.0,3215.240099999994,5.0,3215.241599999994,8.0,8.0,248.0,15.0,1.0,0.8,0.7,Time
,,S16,1,女,20,anonymized,Serial_Dependence_U,2023.2.3,Win32,59.88023952091634,,,,,,3215.243,126.0,8.0,3215.243599999994,126.0,,,,3218.817599999994,3219.309699999988,3218.306799999997,3218.817199999988,3216.264699999988,3218.3065,3219.309799999997,3219.799899999991,3219.8,3221.576399999991,1245.0,3221.5765,4.0,3221.577099999994,8.0,9.0,249.0,16.0,1.0,1.0,0.7,Time
,,S16,1,女,20,anonymized,Serial_Dependence_U,2023.2.3,Win32,59.88023952091634,,,,,,3221.578799999997,52.0,8.0,3221.579799999997,52.0,,,,3225.167799999997,3225.664899999991,3224.6575,3225.167299999997,3222.581899999991,3224.657299999997,3225.665,3226.163399999991,3226.1635,3227.421099999994,545.0,3227.4215,1.0,3227.423,8.0,10.0,250.0,11.0,1.0,1.0,0.3,Time
,,S16,1,女,20,anonymized,Serial_Dependence_U,2023.2.3,Win32,59.88023952091634,,,,,,3227.424699999988,54.0,8.0,3227.4252999999967,54.0,,,,3231.386299999997,3231.875699999988,3230.869099999994,3231.385799999997,3228.428299999997,3230.868799999997,3231.875799999997,3232.373799999997,3232.374,3234.780399999991,1848.0,3234.780399999991,5.0,3234.781099999994,8.0,11.0,251.0,18.0,1.0,1.4,0.7,Time
,,S16,1,女,20,anonymized,Serial_Dependence_U,2023.2.3,Win32,59.88023952091634,,,,,,3234.782199999988,9.0,8.0,3234.782899999991,9.0,,,,3238.589,3239.097199999988,3238.0675,3238.588899999991,3235.7937999999967,3238.067399999991,3239.097199999988,3239.597099999994,3239.597199999988,3241.8715,1637.0,3241.871599999994,5.0,3241.8725,8.0,12.0,252.0,22.0,1.0,1.2,0.3,Time
,,S16,1,女,20,anonymized,Serial_Dependence_U,2023.2.3,Win32,59.88023952091634,,,,,,3241.873399999991,178.0,8.0,3241.874399999991,178.0,,,,3245.479299999997,3245.981799999997,3244.964299999997,3245.478899999991,3242.879899999991,3244.964199999988,3245.981799999997,3246.471699999988,3246.471899999991,3248.593199999988,1518.0,3248.593299999997,5.0,3248.595799999997,8.0,13.0,253.0,1.0,1.0,1.0,0.3,Time
,,S16,1,女,20,anonymized,Serial_Dependence_U,2023.2.3,Win32,59.88023952091634,,,,,,3248.5965,195.0,8.0,3248.596699999988,195.0,,,,3252.182199999988,3252.683599999994,3251.667799999997,3252.181899999991,3249.604899999991,3251.6675,3252.683699999988,3253.174599999994,3253.174699999988,3255.038,1338.0,3255.038099999994,5.0,3255.038599999994,8.0,14.0,254.0,21.0,1.0,1.0,0.3,Time
,,S16,1,女,20,anonymized,Serial_Dependence_U,2023.2.3,Win32,59.88023952091634,,,,,,3255.039199999988,314.0,8.0,3255.039799999997,314.0,,,,3259.029799999997,3259.533199999988,3258.514399999991,3259.0295,3256.0482999999967,3258.514299999997,3259.533299999997,3260.0355,3260.0358999999908,3262.7585999999937,1459.0,3262.758699999988,3.0,3262.759199999988,8.0,15.0,255.0,3.0,1.0,1.4,0.3,Time
,,S16,1,女,20,anonymized,Serial_Dependence_U,2023.2.3,Win32,59.88023952091634,,,,,,3262.7605,276.0,8.0,3262.7615,276.0,,,,3266.523,3267.015699999988,3266.015199999988,3266.522799999997,3263.773099999994,3266.0147999999967,3267.015799999997,3267.515399999991,3267.5155,3269.608799999997,1643.0,3269.608899999991,5.0,3269.6095,8.0,16.0,256.0,27.0,1.0,1.2,0.7,Time
,,S16,1,女,20,anonymized,Serial_Dependence_U,2023.2.3,Win32,59.88023952091634,,,,,,3269.610199999988,168.0,8.0,3269.610699999988,168.0,,,,3272.967,3273.4675,3272.454199999988,3272.966699999988,3270.6175,3272.454099999994,3273.4675,3273.957199999988,3273.957299999997,3276.157599999994,1667.0,3276.157699999988,5.0,3276.158299999997,8.0,17.0,257.0,25.0,1.0,0.8,0.7,Time
,,S16,1,女,20,anonymized,Serial_Dependence_U,2023.2.3,Win32,59.88023952091634,,,,,,3276.158899999991,135.0,8.0,3276.159399999991,135.0,,,,3280.116299999997,3280.613699999988,3279.6125,3280.116099999994,3277.1642999999967,3279.612399999991,3280.6138999999907,3281.109899999991,3281.110099999994,3283.6075,2014.0,3283.607599999994,5.0,3283.608099999994,8.0,18.0,258.0,8.0,1.0,1.4,0.7,Time
,,S16,1,女,20,anonymized,Serial_Dependence_U,2023.2.3,Win32,59.88023952091634,,,,,,3283.6090999999938,324.0,8.0,3283.609699999988,324.0,,,,3287.592699999988,3288.0882999999967,3287.089,3287.592399999991,3284.608599999994,3287.088799999997,3288.0885,3288.581899999991,3288.5820999999937,3290.4750999999937,1467.0,3290.475299999997,3.0,3290.476099999994,8.0,19.0,259.0,23.0,1.0,1.4,0.3,Time
,,S16,1,女,20,anonymized,Serial_Dependence_U,2023.2.3,Win32,59.88023952091634,,,,,,3290.4775,119.0,8.0,3290.4785,119.0,,,,3293.860299999997,3294.357599999994,3293.3517999999967,3293.859899999991,3291.483099999994,3293.3515,3294.357699999988,3294.846299999997,3294.8465,3296.369199999988,1432.0,3296.369599999994,5.0,3296.370599999994,8.0,20.0,260.0,0.0,1.0,0.8,0.3,Time
