Scale_setup.started,Scale_setup.stopped,participant,expid,session,sex,age,date,expName,psychopyVersion,OS,frameRate,screen_scale_keys.started,screen_scale_keys.stopped,X Scale,Y Scale,rectangel_keys.started,rectangel_keys.stopped,Intro.started,Intro.stopped,key_resp_2.keys,key_resp_2.rt,key_resp_2.duration,block.started,Block_id,block.stopped,Block_resp_2.keys,Block_resp_2.rt,Block_resp_2.duration,ITI.started,ITI.stopped,Mask_2.started,Mask_2.stopped,M2.started,direction,M2.stopped,Cue.started,Cue.stopped,Response.started,Response.stopped,keyDuration,Feedback_Time.started,FeedbackID_T,Feedback_Time.stopped,trials.thisRepN,trials.thisTrialN,trials.thisN,trials.thisIndex,trials.ran,TimeDur,Coherence1,TrialType
0.0006,0.001,S17,624708,1,male,28,anonymized,Serial_Dependence_U,2023.2.3,Win32,60.60606061,,,,,,,,,,,,,,,,,,,,,,,,,,,,,,,,,,,,,,,,
,,S17,624708,1,male,28,anonymized,Serial_Dependence_U,2023.2.3,Win32,60.60606061,0.0046,73.4014,0.0556,0.0501,73.4029,87.3898,87.3915,178.2986,space,90.8317,,,,,,,,,,,,,,,,,,,,,,,,,,,,,,
,,S17,624708,1,male,28,anonymized,Serial_Dependence_U,2023.2.3,Win32,60.60606061,,,,,,,,,,,,178.3243,0.0,181.6774,s,3.3055,,184.6278,185.1232,184.1094,184.627,182.6954,223.0,184.109,185.1243,185.6239,185.6266,191.6376,9999.0,191.6406,0.0,192.6338,0.0,0.0,0.0,23.0,1.0,1.4,0.3,Time
,,S17,624708,1,male,28,anonymized,Serial_Dependence_U,2023.2.3,Win32,60.60606061,,,,,,,,,,,,192.6371,0.0,192.6443,,,,195.3976,195.8956,194.8817,195.3974,193.6686,271.0,194.8814,195.8957,196.3958,196.3961,202.412,9999.0,202.4128,0.0,203.4052,0.0,1.0,1.0,27.0,1.0,1.2,0.7,Time
,,S17,624708,1,male,28,anonymized,Serial_Dependence_U,2023.2.3,Win32,60.60606061,,,,,,,,,,,,203.4089,0.0,203.4108,,,,205.9574,206.452,205.4449,205.9568,204.4252,98.0,205.4404,206.4522,206.9517,206.9519,210.7822,1159.7,210.7827,4.0,211.7809,0.0,2.0,2.0,11.0,1.0,1.0,0.3,Time
,,S17,624708,1,male,28,anonymized,Serial_Dependence_U,2023.2.3,Win32,60.60606061,,,,,,,,,,,,211.7829,0.0,211.7852,,,,214.5168,215.0119,214.0011,214.5163,212.7986,15.0,214.0007,215.0121,215.5104,215.5112,221.0616,5501.8,221.062,5.0,222.0539,0.0,3.0,3.0,7.0,1.0,1.2,0.7,Time
,,S17,624708,1,male,28,anonymized,Serial_Dependence_U,2023.2.3,Win32,60.60606061,,,,,,,,,,,,222.0562,0.0,222.0582,,,,224.6038,225.1007,224.0887,224.6036,223.0746,55.0,224.0882,225.1009,225.6012,225.6014,227.0881,1461.5,227.0885,5.0,228.0814,0.0,4.0,4.0,1.0,1.0,1.0,0.3,Time
,,S17,624708,1,male,28,anonymized,Serial_Dependence_U,2023.2.3,Win32,60.60606061,,,,,,,,,,,,228.0838,0.0,228.0855,,,,231.0127,231.5112,230.4959,231.0126,229.0849,329.0,230.4957,231.5114,232.0097,232.0099,233.4438,568.5,233.4444,1.0,234.4423,0.0,5.0,5.0,3.0,1.0,1.4,0.3,Time
,,S17,624708,1,male,28,anonymized,Serial_Dependence_U,2023.2.3,Win32,60.60606061,,,,,,,,,,,,234.4443,0.0,234.4471,,,,237.1901,237.6884,236.6724,237.1899,235.4585,219.0,236.6722,237.6888,238.1881,238.1883,240.8531,660.3,240.8538,1.0,241.8496,0.0,6.0,6.0,12.0,1.0,1.2,0.3,Time
,,S17,624708,1,male,28,anonymized,Serial_Dependence_U,2023.2.3,Win32,60.60606061,,,,,,,,,,,,241.8501,0.0,241.8506,,,,244.4034,244.8977,243.8886,244.403,242.8693,17.0,243.8865,244.898,245.3976,245.3979,250.6639,5223.3,250.6646,5.0,251.6581,0.0,7.0,7.0,6.0,1.0,1.0,0.7,Time
,,S17,624708,1,male,28,anonymized,Serial_Dependence_U,2023.2.3,Win32,60.60606061,,,,,,,,,,,,251.6604,0.0,251.6626,,,,254.2093,254.7046,253.6901,254.209,252.6754,120.0,253.6899,254.7047,255.2042,255.2044,256.637,554.1,256.6375,1.0,257.6351,0.0,8.0,8.0,16.0,1.0,1.0,0.7,Time
,,S17,624708,1,male,28,anonymized,Serial_Dependence_U,2023.2.3,Win32,60.60606061,,,,,,,,,,,,257.6368,0.0,257.6381,,,,260.371,260.8663,259.8587,260.3708,258.6557,352.0,259.8583,260.8663,261.3657,261.3659,264.6794,1380.2,264.68,4.0,265.6778,0.0,9.0,9.0,22.0,1.0,1.2,0.3,Time
,,S17,624708,1,male,28,anonymized,Serial_Dependence_U,2023.2.3,Win32,60.60606061,,,,,,,,,,,,265.6796,0.0,265.6812,,,,268.8252,269.3238,268.3096,268.825,266.6952,324.0,268.3095,269.3239,269.8235,269.8238,271.6441,906.2,271.6449,1.0,272.6372,0.0,10.0,10.0,29.0,1.0,1.6,0.7,Time
,,S17,624708,1,male,28,anonymized,Serial_Dependence_U,2023.2.3,Win32,60.60606061,,,,,,,,,,,,272.6388,0.0,272.6401,,,,275.5742,276.0671,275.0696,275.574,273.6568,278.0,275.0695,276.0672,276.5668,276.567,279.9703,616.5,279.971,1.0,280.9624,0.0,11.0,11.0,13.0,1.0,1.4,0.3,Time
,,S17,624708,1,male,28,anonymized,Serial_Dependence_U,2023.2.3,Win32,60.60606061,,,,,,,,,,,,280.9645,0.0,280.9667,,,,284.1153,284.6098,283.5954,284.115,281.9852,301.0,283.5952,284.6101,285.1081,285.1086,290.1379,1391.3,290.1384,2.0,291.136,0.0,12.0,12.0,9.0,1.0,1.6,0.7,Time
,,S17,624708,1,male,28,anonymized,Serial_Dependence_U,2023.2.3,Win32,60.60606061,,,,,,,,,,,,291.138,0.0,291.1397,,,,293.485,293.9829,292.9687,293.4848,292.1565,0.0,292.9686,293.983,294.4824,294.4826,297.3801,2855.7,297.3805,5.0,298.3788,0.0,13.0,13.0,0.0,1.0,0.8,0.3,Time
,,S17,624708,1,male,28,anonymized,Serial_Dependence_U,2023.2.3,Win32,60.60606061,,,,,,,,,,,,298.38,0.0,298.3812,,,,300.7279,301.2255,300.2131,300.7277,299.3957,149.0,300.2111,301.2255,301.7254,301.726,302.4597,687.1,302.46,2.0,303.4569,0.0,14.0,14.0,5.0,1.0,0.8,0.7,Time
,,S17,624708,1,male,28,anonymized,Serial_Dependence_U,2023.2.3,Win32,60.60606061,,,,,,,,,,,,303.4586,0.0,303.4601,,,,306.0059,306.5044,305.4898,306.0058,304.4741,37.0,305.4897,306.5045,307.0035,307.0038,308.5032,874.3,308.5039,2.0,309.5021,0.0,15.0,15.0,26.0,1.0,1.0,0.7,Time
,,S17,624708,1,male,28,anonymized,Serial_Dependence_U,2023.2.3,Win32,60.60606061,,,,,,,,,,,,309.5047,0.0,309.5062,,,,312.0339,312.5313,311.5177,312.0338,310.5067,233.0,311.5175,312.5316,313.0312,313.0314,314.8682,517.9,314.8687,1.0,315.8617,0.0,16.0,16.0,21.0,1.0,1.0,0.3,Time
,,S17,624708,1,male,28,anonymized,Serial_Dependence_U,2023.2.3,Win32,60.60606061,,,,,,,,,,,,315.8641,0.0,315.8662,,,,318.7824,319.2784,318.2782,318.7821,316.8652,317.0,318.278,319.2785,319.7754,319.7757,320.8303,1004.7,320.8308,2.0,321.8214,0.0,17.0,17.0,28.0,1.0,1.4,0.7,Time
,,S17,624708,1,male,28,anonymized,Serial_Dependence_U,2023.2.3,Win32,60.60606061,,,,,,,,,,,,321.8222,0.0,321.8227,,,,324.571,325.0692,324.0548,324.5708,322.8391,309.0,324.0546,325.0694,325.5691,325.5694,327.1201,1503.9,327.1216,4.0,328.1163,0.0,18.0,18.0,17.0,1.0,1.2,0.7,Time
,,S17,624708,1,male,28,anonymized,Serial_Dependence_U,2023.2.3,Win32,60.60606061,,,,,,,,,,,,328.1185,0.0,328.1203,,,,331.2639,331.7629,330.7519,331.2637,329.1369,178.0,330.7516,331.7631,332.2626,332.2628,333.3845,1098.4,333.385,1.0,334.3769,0.0,19.0,19.0,24.0,1.0,1.6,0.3,Time
,,S17,624708,1,male,28,anonymized,Serial_Dependence_U,2023.2.3,Win32,60.60606061,,,,,,,,,,,,334.3789,0.0,334.3817,,,,337.513,338.0063,336.9984,337.5127,335.38,309.0,336.9981,338.0064,338.5064,338.5066,339.7181,1161.6,339.7193,2.0,340.7204,0.0,20.0,20.0,4.0,1.0,1.6,0.3,Time
,,S17,624708,1,male,28,anonymized,Serial_Dependence_U,2023.2.3,Win32,60.60606061,,,,,,,,,,,,340.7232,0.0,340.7255,,,,343.07,343.5681,342.5559,343.0699,341.7384,289.0,342.5555,343.5683,344.0686,344.0689,346.4511,2334.0,346.452,5.0,347.4484,0.0,21.0,21.0,10.0,1.0,0.8,0.3,Time
,,S17,624708,1,male,28,anonymized,Serial_Dependence_U,2023.2.3,Win32,60.60606061,,,,,,,,,,,,347.4513,0.0,347.4531,,,,350.5783,351.0768,350.0653,350.5781,348.4514,174.0,350.0649,351.077,351.5758,351.5759,352.5258,914.0,352.5264,1.0,353.5245,0.0,22.0,22.0,19.0,1.0,1.6,0.7,Time
,,S17,624708,1,male,28,anonymized,Serial_Dependence_U,2023.2.3,Win32,60.60606061,,,,,,,,,,,,353.5267,0.0,353.5285,,,,355.8601,356.3553,355.3443,355.8596,354.5277,208.0,355.344,356.3554,356.8546,356.855,359.0211,1611.5,359.0215,5.0,360.0189,0.0,23.0,23.0,20.0,1.0,0.8,0.3,Time
,,S17,624708,1,male,28,anonymized,Serial_Dependence_U,2023.2.3,Win32,60.60606061,,,,,,,,,,,,360.0217,0.0,360.0231,,,,362.3513,362.8487,361.8372,362.3511,361.0258,24.0,361.8367,362.8488,363.3495,363.3499,364.4818,1089.2,364.4822,5.0,365.4799,0.0,24.0,24.0,15.0,1.0,0.8,0.7,Time
,,S17,624708,1,male,28,anonymized,Serial_Dependence_U,2023.2.3,Win32,60.60606061,,,,,,,,,,,,365.4821,0.0,365.484,,,,368.4161,368.9094,367.9122,368.4157,366.4968,269.0,367.912,368.9095,369.4094,369.4098,370.7436,890.0,370.7447,1.0,371.7399,0.0,25.0,25.0,18.0,1.0,1.4,0.7,Time
,,S17,624708,1,male,28,anonymized,Serial_Dependence_U,2023.2.3,Win32,60.60606061,,,,,,,,,,,,371.7422,0.0,371.7442,,,,374.8885,375.3863,374.3751,374.8883,372.761,96.0,374.3748,375.3867,375.8884,375.8887,377.1221,1177.3,377.1224,2.0,378.1171,0.0,26.0,26.0,14.0,1.0,1.6,0.3,Time
,,S17,624708,1,male,28,anonymized,Serial_Dependence_U,2023.2.3,Win32,60.60606061,,,,,,,,,,,,378.1192,0.0,378.1211,,,,380.854,381.348,380.3395,380.8535,379.1372,44.0,380.3392,381.3484,381.8464,381.8465,383.4512,1559.8,383.4515,4.0,384.4447,0.0,27.0,27.0,2.0,1.0,1.2,0.3,Time
,,S17,624708,1,male,28,anonymized,Serial_Dependence_U,2023.2.3,Win32,60.60606061,,,,,,,,,,,,384.447,0.0,384.4487,,,,386.7962,387.2922,386.2804,386.796,385.4639,358.0,386.2802,387.2926,387.7916,387.7918,388.1938,380.8,388.1948,1.0,389.1899,0.0,28.0,28.0,25.0,1.0,0.8,0.7,Time
,,S17,624708,1,male,28,anonymized,Serial_Dependence_U,2023.2.3,Win32,60.60606061,,,,,,,,,,,,389.1919,0.0,389.1936,,,,392.1416,392.6361,391.6248,392.1407,390.2096,211.0,391.6245,392.6362,393.1361,393.1364,398.9803,4798.2,398.9808,5.0,399.9796,0.0,29.0,29.0,8.0,1.0,1.4,0.7,Time
,,S17,624708,1,male,28,anonymized,Serial_Dependence_U,2023.2.3,Win32,60.60606061,,,,,,,,,,,,399.9817,1.0,403.5937,s,3.5582,,406.1444,406.6393,405.6277,406.1438,404.6123,264.0,405.6272,406.6394,407.1401,407.1402,409.0883,1916.9,409.0887,5.0,410.0859,1.0,0.0,30.0,11.0,1.0,1.0,0.3,Time
,,S17,624708,1,male,28,anonymized,Serial_Dependence_U,2023.2.3,Win32,60.60606061,,,,,,,,,,,,410.0882,1.0,410.0947,,,,412.4344,412.9331,411.9247,412.4343,411.1066,304.0,411.921,412.9335,413.433,413.4333,414.3837,925.2,414.3841,4.0,415.3811,1.0,1.0,31.0,20.0,1.0,0.8,0.3,Time
,,S17,624708,1,male,28,anonymized,Serial_Dependence_U,2023.2.3,Win32,60.60606061,,,,,,,,,,,,415.3831,1.0,415.385,,,,417.9191,418.412,417.405,417.9188,416.3861,356.0,417.4003,418.4121,418.9117,418.912,420.4103,1472.2,420.4107,5.0,421.4085,1.0,2.0,32.0,6.0,1.0,1.0,0.7,Time
,,S17,624708,1,male,28,anonymized,Serial_Dependence_U,2023.2.3,Win32,60.60606061,,,,,,,,,,,,421.411,1.0,421.4129,,,,424.5565,425.055,424.0405,424.5564,422.4278,218.0,424.0403,425.0551,425.5547,425.5551,427.1694,782.5,427.1698,1.0,428.1683,1.0,3.0,33.0,4.0,1.0,1.6,0.3,Time
,,S17,624708,1,male,28,anonymized,Serial_Dependence_U,2023.2.3,Win32,60.60606061,,,,,,,,,,,,428.1702,1.0,428.1715,,,,431.3021,431.7996,430.7998,431.302,429.188,337.0,430.7997,431.7998,432.2978,432.298,433.5191,781.8,433.5195,1.0,434.512,1.0,4.0,34.0,24.0,1.0,1.6,0.3,Time
,,S17,624708,1,male,28,anonymized,Serial_Dependence_U,2023.2.3,Win32,60.60606061,,,,,,,,,,,,434.5142,1.0,434.516,,,,437.2658,437.7593,436.7473,437.2655,435.5317,88.0,436.747,437.7595,438.2582,438.2586,440.1645,1869.2,440.1647,5.0,441.1558,1.0,5.0,35.0,22.0,1.0,1.2,0.3,Time
,,S17,624708,1,male,28,anonymized,Serial_Dependence_U,2023.2.3,Win32,60.60606061,,,,,,,,,,,,441.1581,1.0,441.1601,,,,443.6869,444.1862,443.1778,443.6867,442.1596,73.0,443.1739,444.1863,444.6857,444.686,446.6869,1948.7,446.6876,5.0,447.6824,1.0,6.0,36.0,16.0,1.0,1.0,0.7,Time
,,S17,624708,1,male,28,anonymized,Serial_Dependence_U,2023.2.3,Win32,60.60606061,,,,,,,,,,,,447.6847,1.0,447.6868,,,,450.6364,451.129,450.1169,450.6361,448.7029,104.0,450.1161,451.1294,451.6291,451.6293,452.3655,699.2,452.3658,1.0,453.3602,1.0,7.0,37.0,23.0,1.0,1.4,0.3,Time
,,S17,624708,1,male,28,anonymized,Serial_Dependence_U,2023.2.3,Win32,60.60606061,,,,,,,,,,,,453.3624,1.0,453.3645,,,,455.9086,456.4071,455.3912,455.9085,454.3799,276.0,455.3911,456.4072,456.9065,456.907,457.7458,791.3,457.7463,2.0,458.7384,1.0,8.0,38.0,26.0,1.0,1.0,0.7,Time
,,S17,624708,1,male,28,anonymized,Serial_Dependence_U,2023.2.3,Win32,60.60606061,,,,,,,,,,,,458.7413,1.0,458.7436,,,,461.0899,461.5853,460.5744,461.0896,459.7591,207.0,460.5739,461.5854,462.0843,462.0845,464.3157,1868.9,464.3162,5.0,465.3141,1.0,9.0,39.0,25.0,1.0,0.8,0.7,Time
,,S17,624708,1,male,28,anonymized,Serial_Dependence_U,2023.2.3,Win32,60.60606061,,,,,,,,,,,,465.3147,1.0,465.3151,,,,468.4506,468.9447,467.9479,468.4504,466.3353,320.0,467.9476,468.945,469.4445,469.4449,471.3789,1881.0,471.3797,4.0,472.3752,1.0,10.0,40.0,19.0,1.0,1.6,0.7,Time
,,S17,624708,1,male,28,anonymized,Serial_Dependence_U,2023.2.3,Win32,60.60606061,,,,,,,,,,,,472.3779,1.0,472.3799,,,,475.3233,475.821,474.8078,475.3231,473.3924,293.0,474.8076,475.821,476.3214,476.3216,477.9055,1541.1,477.9058,4.0,478.9018,1.0,11.0,41.0,13.0,1.0,1.4,0.3,Time
,,S17,624708,1,male,28,anonymized,Serial_Dependence_U,2023.2.3,Win32,60.60606061,,,,,,,,,,,,478.9043,1.0,478.9063,,,,481.6369,482.1318,481.122,481.6367,479.9063,39.0,481.1216,482.1319,482.6316,482.632,484.832,2140.9,484.8331,5.0,485.8288,1.0,12.0,42.0,7.0,1.0,1.2,0.7,Time
,,S17,624708,1,male,28,anonymized,Serial_Dependence_U,2023.2.3,Win32,60.60606061,,,,,,,,,,,,485.8308,1.0,485.8326,,,,488.5722,489.0751,488.0633,488.5714,486.8483,334.0,488.0632,489.0753,489.575,489.5753,491.1273,1511.6,491.1279,4.0,492.1229,1.0,13.0,43.0,12.0,1.0,1.2,0.3,Time
,,S17,624708,1,male,28,anonymized,Serial_Dependence_U,2023.2.3,Win32,60.60606061,,,,,,,,,,,,492.1255,1.0,492.1274,,,,495.0551,495.552,494.5534,495.055,493.1394,318.0,494.5532,495.552,496.0517,496.0519,500.1655,1912.5,500.1663,5.0,501.164,1.0,14.0,44.0,8.0,1.0,1.4,0.7,Time
,,S17,624708,1,male,28,anonymized,Serial_Dependence_U,2023.2.3,Win32,60.60606061,,,,,,,,,,,,501.1663,1.0,501.1679,,,,504.2835,504.7777,503.7801,504.2834,502.1694,13.0,503.7798,504.7779,505.2769,505.2771,507.6257,2028.1,507.6264,4.0,508.6239,1.0,15.0,45.0,9.0,1.0,1.6,0.7,Time
,,S17,624708,1,male,28,anonymized,Serial_Dependence_U,2023.2.3,Win32,60.60606061,,,,,,,,,,,,508.6269,1.0,508.6283,,,,511.177,511.6699,510.6581,511.1768,509.6425,292.0,510.6578,511.6701,512.1692,512.1695,513.3683,1173.4,513.3688,4.0,514.3675,1.0,16.0,46.0,21.0,1.0,1.0,0.3,Time
,,S17,624708,1,male,28,anonymized,Serial_Dependence_U,2023.2.3,Win32,60.60606061,,,,,,,,,,,,514.3699,1.0,514.3714,,,,516.7024,517.1974,516.186,516.7021,515.3704,20.0,516.1856,517.1976,517.6971,517.6974,518.5371,792.1,518.5378,3.0,519.5294,1.0,17.0,47.0,15.0,1.0,0.8,0.7,Time
,,S17,624708,1,male,28,anonymized,Serial_Dependence_U,2023.2.3,Win32,60.60606061,,,,,,,,,,,,519.5321,1.0,519.5336,,,,521.8817,522.3758,521.3648,521.8814,520.5464,157.0,521.3646,522.3761,522.8758,522.8761,523.295,372.9,523.2953,1.0,524.2907,1.0,18.0,48.0,10.0,1.0,0.8,0.3,Time
,,S17,624708,1,male,28,anonymized,Serial_Dependence_U,2023.2.3,Win32,60.60606061,,,,,,,,,,,,524.2932,1.0,524.2951,,,,527.0135,527.5055,526.5053,527.0132,525.2946,350.0,526.505,527.5056,528.0049,528.0051,529.8775,1827.7,529.8781,5.0,530.8675,1.0,19.0,49.0,17.0,1.0,1.2,0.7,Time
,,S17,624708,1,male,28,anonymized,Serial_Dependence_U,2023.2.3,Win32,60.60606061,,,,,,,,,,,,530.8699,1.0,530.8715,,,,533.4194,533.9145,532.9031,533.419,531.885,243.0,532.9027,533.9145,534.4144,534.4145,536.2493,841.0,536.2516,2.0,537.2447,1.0,20.0,50.0,1.0,1.0,1.0,0.3,Time
,,S17,624708,1,male,28,anonymized,Serial_Dependence_U,2023.2.3,Win32,60.60606061,,,,,,,,,,,,537.2472,1.0,537.2489,,,,540.3975,540.8908,539.879,540.3973,538.2651,269.0,539.8789,540.8909,541.3905,541.3909,543.1757,1117.2,543.1765,1.0,544.1715,1.0,21.0,51.0,14.0,1.0,1.6,0.3,Time
,,S17,624708,1,male,28,anonymized,Serial_Dependence_U,2023.2.3,Win32,60.60606061,,,,,,,,,,,,544.1739,1.0,544.176,,,,546.9224,547.4182,546.4024,546.922,545.191,153.0,546.4023,547.4183,547.9179,547.9181,550.0565,1174.3,550.0571,3.0,551.0478,1.0,22.0,52.0,27.0,1.0,1.2,0.7,Time
,,S17,624708,1,male,28,anonymized,Serial_Dependence_U,2023.2.3,Win32,60.60606061,,,,,,,,,,,,551.0503,1.0,551.0521,,,,553.9966,554.4942,553.4805,553.9964,552.0692,72.0,553.4803,554.4942,554.9941,554.9944,557.0933,1598.3,557.0937,4.0,558.0928,1.0,23.0,53.0,18.0,1.0,1.4,0.7,Time
,,S17,624708,1,male,28,anonymized,Serial_Dependence_U,2023.2.3,Win32,60.60606061,,,,,,,,,,,,558.0954,1.0,558.0964,,,,560.4217,560.9216,559.9096,560.4215,559.0945,315.0,559.9094,560.9219,561.421,561.4214,563.6874,1626.8,563.6877,5.0,564.6844,1.0,24.0,54.0,0.0,1.0,0.8,0.3,Time
,,S17,624708,1,male,28,anonymized,Serial_Dependence_U,2023.2.3,Win32,60.60606061,,,,,,,,,,,,564.6873,1.0,564.6891,,,,567.6357,568.1316,567.1169,567.6353,565.7077,172.0,567.1167,568.1317,568.6309,568.6312,570.5791,1043.6,570.5796,2.0,571.5777,1.0,25.0,55.0,28.0,1.0,1.4,0.7,Time
,,S17,624708,1,male,28,anonymized,Serial_Dependence_U,2023.2.3,Win32,60.60606061,,,,,,,,,,,,571.5801,1.0,571.5819,,,,574.7254,575.2239,574.2129,574.7252,572.5977,327.0,574.2126,575.2241,575.7241,575.7245,577.7065,1378.8,577.7069,2.0,578.7038,1.0,26.0,56.0,29.0,1.0,1.6,0.7,Time
,,S17,624708,1,male,28,anonymized,Serial_Dependence_U,2023.2.3,Win32,60.60606061,,,,,,,,,,,,578.7057,1.0,578.707,,,,581.4531,581.9502,580.9369,581.4529,579.721,7.0,580.9367,581.9502,582.4511,582.4514,585.6849,1305.9,585.6852,4.0,586.6798,1.0,27.0,57.0,2.0,1.0,1.2,0.3,Time
,,S17,624708,1,male,28,anonymized,Serial_Dependence_U,2023.2.3,Win32,60.60606061,,,,,,,,,,,,586.6822,1.0,586.6842,,,,589.6166,590.1096,589.1129,589.6164,587.6992,293.0,589.1126,590.1098,590.6095,590.6099,595.2554,1715.0,595.2557,4.0,596.2537,1.0,28.0,58.0,3.0,1.0,1.4,0.3,Time
,,S17,624708,1,male,28,anonymized,Serial_Dependence_U,2023.2.3,Win32,60.60606061,,,,,,,,,,,,596.2563,1.0,596.2581,,,,598.5859,599.0841,598.0699,598.5857,597.2547,217.0,598.0697,599.0842,599.5827,599.5827,601.8345,1747.6,601.8353,5.0,602.8306,1.0,29.0,59.0,5.0,1.0,0.8,0.7,Time
,,S17,624708,1,male,28,anonymized,Serial_Dependence_U,2023.2.3,Win32,60.60606061,,,,,,,,,,,,602.833,2.0,607.1109,s,4.2353,,609.8611,610.3566,609.3447,609.8607,608.1316,277.0,609.3443,610.3568,610.8563,610.8566,612.6217,1047.5,612.6221,2.0,613.6202,2.0,0.0,60.0,7.0,1.0,1.2,0.7,Time
,,S17,624708,1,male,28,anonymized,Serial_Dependence_U,2023.2.3,Win32,60.60606061,,,,,,,,,,,,613.6226,2.0,613.63,,,,616.371,616.8674,615.859,616.3707,614.6401,140.0,615.8543,616.8676,617.3662,617.3665,618.8325,878.7,618.8327,2.0,619.8312,2.0,1.0,61.0,17.0,1.0,1.2,0.7,Time
,,S17,624708,1,male,28,anonymized,Serial_Dependence_U,2023.2.3,Win32,60.60606061,,,,,,,,,,,,619.8334,2.0,619.8351,,,,622.3631,622.8623,621.8455,622.3629,620.8355,64.0,621.8454,622.8625,623.3604,623.3607,624.6926,542.3,624.6931,1.0,625.6913,2.0,2.0,62.0,16.0,1.0,1.0,0.7,Time
,,S17,624708,1,male,28,anonymized,Serial_Dependence_U,2023.2.3,Win32,60.60606061,,,,,,,,,,,,625.6937,2.0,625.6963,,,,628.6093,629.1045,628.1064,628.6089,626.696,98.0,628.1062,629.1047,629.6042,629.6046,631.7056,1535.9,631.706,4.0,632.7012,2.0,3.0,63.0,8.0,1.0,1.4,0.7,Time
,,S17,624708,1,male,28,anonymized,Serial_Dependence_U,2023.2.3,Win32,60.60606061,,,,,,,,,,,,632.7036,2.0,632.7054,,,,635.6521,636.1478,635.1366,635.6517,633.7209,179.0,635.1364,636.1479,636.6475,636.6479,638.7956,1073.7,638.796,2.0,639.7942,2.0,4.0,64.0,3.0,1.0,1.4,0.3,Time
,,S17,624708,1,male,28,anonymized,Serial_Dependence_U,2023.2.3,Win32,60.60606061,,,,,,,,,,,,639.7982,2.0,639.7993,,,,642.7444,643.2407,642.23,642.7443,640.8132,19.0,642.2298,643.2408,643.7409,643.7413,647.0765,1509.0,647.0768,4.0,648.0711,2.0,5.0,65.0,13.0,1.0,1.4,0.3,Time
,,S17,624708,1,male,28,anonymized,Serial_Dependence_U,2023.2.3,Win32,60.60606061,,,,,,,,,,,,648.0739,2.0,648.0747,,,,650.8187,651.3161,650.3047,650.8186,649.0896,305.0,650.3044,651.3162,651.815,651.8152,653.6149,685.4,653.6156,1.0,654.6132,2.0,6.0,66.0,12.0,1.0,1.2,0.3,Time
,,S17,624708,1,male,28,anonymized,Serial_Dependence_U,2023.2.3,Win32,60.60606061,,,,,,,,,,,,654.6151,2.0,654.616,,,,657.7476,658.2432,657.231,657.7474,655.616,255.0,657.2307,658.2433,658.7424,658.7427,659.8439,1067.4,659.8451,1.0,660.8404,2.0,7.0,67.0,4.0,1.0,1.6,0.3,Time
,,S17,624708,1,male,28,anonymized,Serial_Dependence_U,2023.2.3,Win32,60.60606061,,,,,,,,,,,,660.8427,2.0,660.8448,,,,663.5901,664.09,663.0746,663.5898,661.861,342.0,663.0745,664.0902,664.5878,664.5882,666.4531,1815.1,666.4538,5.0,667.4507,2.0,8.0,68.0,2.0,1.0,1.2,0.3,Time
,,S17,624708,1,male,28,anonymized,Serial_Dependence_U,2023.2.3,Win32,60.60606061,,,,,,,,,,,,667.453,2.0,667.4548,,,,669.9868,670.4808,669.4694,669.9865,668.467,285.0,669.469,670.4809,670.9805,670.9807,671.7529,551.4,671.7538,1.0,672.7453,2.0,9.0,69.0,1.0,1.0,1.0,0.3,Time
,,S17,624708,1,male,28,anonymized,Serial_Dependence_U,2023.2.3,Win32,60.60606061,,,,,,,,,,,,672.7477,2.0,672.7489,,,,675.495,675.9923,674.978,675.4947,673.7636,228.0,674.9778,675.9924,676.4916,676.4919,679.0295,1403.7,679.0298,4.0,680.023,2.0,10.0,70.0,22.0,1.0,1.2,0.3,Time
,,S17,624708,1,male,28,anonymized,Serial_Dependence_U,2023.2.3,Win32,60.60606061,,,,,,,,,,,,680.0253,2.0,680.0268,,,,682.3432,682.8368,681.8396,682.3429,681.0282,41.0,681.8392,682.8374,683.3359,683.3364,688.9367,1554.5,688.9373,5.0,689.9284,2.0,11.0,71.0,25.0,1.0,0.8,0.7,Time
,,S17,624708,1,male,28,anonymized,Serial_Dependence_U,2023.2.3,Win32,60.60606061,,,,,,,,,,,,689.9306,2.0,689.9325,,,,692.2784,692.776,691.7639,692.2782,690.949,187.0,691.7636,692.7762,693.2755,693.2757,694.51,1204.7,694.5111,5.0,695.5069,2.0,12.0,72.0,5.0,1.0,0.8,0.7,Time
,,S17,624708,1,male,28,anonymized,Serial_Dependence_U,2023.2.3,Win32,60.60606061,,,,,,,,,,,,695.5092,2.0,695.511,,,,698.059,698.5533,697.5414,698.0587,696.5262,330.0,697.5412,698.5534,699.0533,699.0535,699.9917,450.7,699.9975,1.0,701.0012,2.0,13.0,73.0,26.0,1.0,1.0,0.7,Time
,,S17,624708,1,male,28,anonymized,Serial_Dependence_U,2023.2.3,Win32,60.60606061,,,,,,,,,,,,701.0035,2.0,701.0055,,,,704.1313,704.6308,703.6191,704.1312,702.0164,359.0,703.6188,704.631,705.1303,705.1305,707.0293,1340.2,707.03,2.0,708.0275,2.0,14.0,74.0,19.0,1.0,1.6,0.7,Time
,,S17,624708,1,male,28,anonymized,Serial_Dependence_U,2023.2.3,Win32,60.60606061,,,,,,,,,,,,708.0291,2.0,708.0303,,,,710.377,710.8746,709.8613,710.3766,709.0445,321.0,709.861,710.8748,711.3739,711.3742,714.3222,1527.0,714.3225,5.0,715.3202,2.0,15.0,75.0,15.0,1.0,0.8,0.7,Time
,,S17,624708,1,male,28,anonymized,Serial_Dependence_U,2023.2.3,Win32,60.60606061,,,,,,,,,,,,715.3223,2.0,715.3237,,,,718.4522,718.9501,717.9352,718.4521,716.3248,109.0,717.9351,718.9501,719.4498,719.45,722.5637,1315.2,722.5644,2.0,723.5625,2.0,16.0,76.0,9.0,1.0,1.6,0.7,Time
,,S17,624708,1,male,28,anonymized,Serial_Dependence_U,2023.2.3,Win32,60.60606061,,,,,,,,,,,,723.5644,2.0,723.5657,,,,726.1112,726.6098,725.5957,726.1111,724.5801,183.0,725.5955,726.6099,727.1091,727.1094,732.2434,1113.3,732.2438,4.0,733.2361,2.0,17.0,77.0,21.0,1.0,1.0,0.3,Time
,,S17,624708,1,male,28,anonymized,Serial_Dependence_U,2023.2.3,Win32,60.60606061,,,,,,,,,,,,733.2384,2.0,733.2399,,,,735.586,736.0833,735.0719,735.5856,734.2568,86.0,735.0716,736.0835,736.5827,736.583,738.7207,1735.6,738.7212,5.0,739.7131,2.0,18.0,78.0,10.0,1.0,0.8,0.3,Time
,,S17,624708,1,male,28,anonymized,Serial_Dependence_U,2023.2.3,Win32,60.60606061,,,,,,,,,,,,739.7147,2.0,739.7155,,,,742.0657,742.5601,741.5504,742.0654,740.7339,7.0,741.5501,742.5601,743.0597,743.0601,744.0981,647.4,744.0986,2.0,745.0913,2.0,19.0,79.0,20.0,1.0,0.8,0.3,Time
,,S17,624708,1,male,28,anonymized,Serial_Dependence_U,2023.2.3,Win32,60.60606061,,,,,,,,,,,,745.0938,2.0,745.0954,,,,747.4264,747.9215,746.9102,747.4262,746.0952,306.0,746.9098,747.9217,748.4213,748.4215,749.9923,1113.4,749.9927,5.0,750.9853,2.0,20.0,80.0,0.0,1.0,0.8,0.3,Time
,,S17,624708,1,male,28,anonymized,Serial_Dependence_U,2023.2.3,Win32,60.60606061,,,,,,,,,,,,750.9878,2.0,750.9898,,,,753.9322,754.4326,753.4202,753.9321,752.0052,295.0,753.4198,754.4328,754.932,754.9323,756.8293,1491.5,756.8296,4.0,757.8294,2.0,21.0,81.0,18.0,1.0,1.4,0.7,Time
,,S17,624708,1,male,28,anonymized,Serial_Dependence_U,2023.2.3,Win32,60.60606061,,,,,,,,,,,,757.8324,2.0,757.8339,,,,760.7614,761.2595,760.2484,760.7611,758.8452,319.0,760.2481,761.2597,761.7601,761.7604,763.3976,1230.9,763.3983,2.0,764.3888,2.0,22.0,82.0,28.0,1.0,1.4,0.7,Time
,,S17,624708,1,male,28,anonymized,Serial_Dependence_U,2023.2.3,Win32,60.60606061,,,,,,,,,,,,764.3911,2.0,764.3938,,,,767.5031,768.002,766.9913,767.5028,765.3884,267.0,766.991,768.0024,768.5017,768.5021,770.6163,1630.8,770.6169,3.0,771.6151,2.0,23.0,83.0,24.0,1.0,1.6,0.3,Time
,,S17,624708,1,male,28,anonymized,Serial_Dependence_U,2023.2.3,Win32,60.60606061,,,,,,,,,,,,771.6176,2.0,771.6196,,,,774.5649,775.0619,774.0482,774.5647,772.6326,242.0,774.0479,775.0625,775.5623,775.5624,777.4603,1314.4,777.4606,2.0,778.4588,2.0,24.0,84.0,23.0,1.0,1.4,0.3,Time
,,S17,624708,1,male,28,anonymized,Serial_Dependence_U,2023.2.3,Win32,60.60606061,,,,,,,,,,,,778.4614,2.0,778.4629,,,,781.6077,782.1042,781.0915,781.6075,779.4763,347.0,781.0913,782.1043,782.6043,782.6047,785.0868,1614.6,785.0871,3.0,786.0843,2.0,25.0,85.0,29.0,1.0,1.6,0.7,Time
,,S17,624708,1,male,28,anonymized,Serial_Dependence_U,2023.2.3,Win32,60.60606061,,,,,,,,,,,,786.0868,2.0,786.0884,,,,789.2198,789.714,788.7168,789.2196,787.1043,78.0,788.7166,789.7141,790.214,790.2142,792.0804,1419.2,792.0808,2.0,793.0779,2.0,26.0,86.0,14.0,1.0,1.6,0.3,Time
,,S17,624708,1,male,28,anonymized,Serial_Dependence_U,2023.2.3,Win32,60.60606061,,,,,,,,,,,,793.0804,2.0,793.0822,,,,795.7983,796.2911,795.2959,795.7981,794.0815,40.0,795.2955,796.2912,796.791,796.7913,798.8611,1617.5,798.8617,5.0,799.8542,2.0,27.0,87.0,27.0,1.0,1.2,0.7,Time
,,S17,624708,1,male,28,anonymized,Serial_Dependence_U,2023.2.3,Win32,60.60606061,,,,,,,,,,,,799.8566,2.0,799.8583,,,,802.4069,802.901,801.8895,802.4068,800.8757,170.0,801.889,802.9012,803.401,803.4014,805.4495,895.3,805.4502,2.0,806.4481,2.0,28.0,88.0,11.0,1.0,1.0,0.3,Time
,,S17,624708,1,male,28,anonymized,Serial_Dependence_U,2023.2.3,Win32,60.60606061,,,,,,,,,,,,806.4503,2.0,806.4523,,,,808.9787,809.4782,808.4634,808.9786,807.4516,100.0,808.4632,809.4782,809.978,809.9782,811.3605,867.1,811.361,2.0,812.3592,2.0,29.0,89.0,6.0,1.0,1.0,0.7,Time
,,S17,624708,1,male,28,anonymized,Serial_Dependence_U,2023.2.3,Win32,60.60606061,,,,,,,,,,,,812.3614,3.0,815.3233,s,2.9215,,818.2701,818.7693,817.7554,818.2701,816.3397,308.0,817.7553,818.7694,819.2684,819.2687,821.0163,932.0,821.0166,1.0,822.0157,3.0,0.0,90.0,3.0,1.0,1.4,0.3,Time
,,S17,624708,1,male,28,anonymized,Serial_Dependence_U,2023.2.3,Win32,60.60606061,,,,,,,,,,,,822.0173,3.0,822.0222,,,,824.5648,825.0633,824.0495,824.5646,823.0339,42.0,824.0493,825.0635,825.5623,825.5626,828.0276,1783.8,828.028,5.0,829.026,3.0,1.0,91.0,11.0,1.0,1.0,0.3,Time
,,S17,624708,1,male,28,anonymized,Serial_Dependence_U,2023.2.3,Win32,60.60606061,,,,,,,,,,,,829.0277,3.0,829.029,,,,832.158,832.6557,831.6414,832.1578,830.0287,45.0,831.6412,832.6557,833.1553,833.1555,834.9425,839.9,834.9428,1.0,835.9368,3.0,2.0,92.0,24.0,1.0,1.6,0.3,Time
,,S17,624708,1,male,28,anonymized,Serial_Dependence_U,2023.2.3,Win32,60.60606061,,,,,,,,,,,,835.9389,3.0,835.9403,,,,838.4908,838.9837,837.9718,838.4905,836.9588,107.0,837.9711,838.9841,839.4839,839.4841,842.1144,1729.3,842.1151,5.0,843.1118,3.0,3.0,93.0,6.0,1.0,1.0,0.7,Time
,,S17,624708,1,male,28,anonymized,Serial_Dependence_U,2023.2.3,Win32,60.60606061,,,,,,,,,,,,843.1145,3.0,843.1168,,,,846.048,846.5422,845.544,846.0479,844.1316,21.0,845.5438,846.5424,847.0426,847.0429,848.1292,613.2,848.1296,1.0,849.122,3.0,4.0,94.0,18.0,1.0,1.4,0.7,Time
,,S17,624708,1,male,28,anonymized,Serial_Dependence_U,2023.2.3,Win32,60.60606061,,,,,,,,,,,,849.1224,3.0,849.1229,,,,852.07,852.572,851.5554,852.07,850.1395,48.0,851.5552,852.572,853.0692,853.0695,854.6027,1118.3,854.6029,2.0,855.5989,3.0,5.0,95.0,28.0,1.0,1.4,0.7,Time
,,S17,624708,1,male,28,anonymized,Serial_Dependence_U,2023.2.3,Win32,60.60606061,,,,,,,,,,,,855.6003,3.0,855.6013,,,,858.1363,858.6299,857.6315,858.1358,856.6208,85.0,857.6313,858.63,859.1294,859.1298,860.636,875.2,860.6365,2.0,861.6273,3.0,6.0,96.0,1.0,1.0,1.0,0.3,Time
,,S17,624708,1,male,28,anonymized,Serial_Dependence_U,2023.2.3,Win32,60.60606061,,,,,,,,,,,,861.6299,3.0,861.6321,,,,864.3756,864.8733,863.8595,864.3755,862.6442,229.0,863.8594,864.8734,865.3738,865.3742,866.9894,1162.9,866.9897,3.0,867.9874,3.0,7.0,97.0,17.0,1.0,1.2,0.7,Time
,,S17,624708,1,male,28,anonymized,Serial_Dependence_U,2023.2.3,Win32,60.60606061,,,,,,,,,,,,867.989,3.0,867.9903,,,,870.9095,871.4006,870.4062,870.9093,868.9924,348.0,870.4059,871.4007,871.9001,871.9005,873.6886,1048.0,873.6897,2.0,874.6809,3.0,8.0,98.0,23.0,1.0,1.4,0.3,Time
,,S17,624708,1,male,28,anonymized,Serial_Dependence_U,2023.2.3,Win32,60.60606061,,,,,,,,,,,,874.6833,3.0,874.6851,,,,877.8326,878.3271,877.3154,877.8322,875.7005,193.0,877.3151,878.3273,878.8267,878.827,880.728,1440.7,880.7295,2.0,881.7239,3.0,9.0,99.0,29.0,1.0,1.6,0.7,Time
,,S17,624708,1,male,28,anonymized,Serial_Dependence_U,2023.2.3,Win32,60.60606061,,,,,,,,,,,,881.7265,3.0,881.7284,,,,884.0593,884.5548,883.5431,884.0589,882.7281,161.0,883.5426,884.5549,885.054,885.0544,887.9178,1432.8,887.9183,5.0,888.9169,3.0,10.0,100.0,15.0,1.0,0.8,0.7,Time
,,S17,624708,1,male,28,anonymized,Serial_Dependence_U,2023.2.3,Win32,60.60606061,,,,,,,,,,,,888.9192,3.0,888.9212,,,,891.4703,891.9644,890.9525,891.4699,889.9369,126.0,890.9521,891.9645,892.4635,892.4638,896.1275,1480.0,896.1278,5.0,897.126,3.0,11.0,101.0,26.0,1.0,1.0,0.7,Time
,,S17,624708,1,male,28,anonymized,Serial_Dependence_U,2023.2.3,Win32,60.60606061,,,,,,,,,,,,897.128,3.0,897.1298,,,,899.875,900.3725,899.3608,899.8747,898.146,234.0,899.3605,900.3727,900.8717,900.8719,904.2202,1527.6,904.2204,4.0,905.2183,3.0,12.0,102.0,12.0,1.0,1.2,0.3,Time
,,S17,624708,1,male,28,anonymized,Serial_Dependence_U,2023.2.3,Win32,60.60606061,,,,,,,,,,,,905.2204,3.0,905.2222,,,,907.5722,908.0663,907.0557,907.572,906.2388,23.0,907.0555,908.0664,908.5656,908.5658,910.4498,1155.7,910.4506,5.0,911.4447,3.0,13.0,103.0,25.0,1.0,0.8,0.7,Time
,,S17,624708,1,male,28,anonymized,Serial_Dependence_U,2023.2.3,Win32,60.60606061,,,,,,,,,,,,911.4474,3.0,911.449,,,,914.1753,914.675,913.6644,914.1752,912.4508,66.0,913.6637,914.675,915.175,915.1752,921.1869,9999.0,921.1872,0.0,922.1846,3.0,14.0,104.0,2.0,1.0,1.2,0.3,Time
,,S17,624708,1,male,28,anonymized,Serial_Dependence_U,2023.2.3,Win32,60.60606061,,,,,,,,,,,,922.1869,3.0,922.1885,,,,924.5198,925.0152,924.0009,924.5195,923.1898,126.0,924.0006,925.0153,925.5145,925.5148,927.1319,1177.4,927.1322,5.0,928.1292,3.0,15.0,105.0,0.0,1.0,0.8,0.3,Time
,,S17,624708,1,male,28,anonymized,Serial_Dependence_U,2023.2.3,Win32,60.60606061,,,,,,,,,,,,928.1325,3.0,928.1337,,,,930.8628,931.3586,930.3463,930.8626,929.1329,119.0,930.3457,931.3587,931.8583,931.8587,933.2911,913.9,933.2918,2.0,934.2898,3.0,16.0,106.0,22.0,1.0,1.2,0.3,Time
,,S17,624708,1,male,28,anonymized,Serial_Dependence_U,2023.2.3,Win32,60.60606061,,,,,,,,,,,,934.2923,3.0,934.294,,,,936.6415,937.1363,936.1244,936.6409,935.3066,26.0,936.124,937.1364,937.6365,937.6366,939.1372,740.7,939.1384,2.0,940.1338,3.0,17.0,107.0,5.0,1.0,0.8,0.7,Time
,,S17,624708,1,male,28,anonymized,Serial_Dependence_U,2023.2.3,Win32,60.60606061,,,,,,,,,,,,940.1353,3.0,940.1366,,,,943.27,943.7638,942.7658,943.2698,941.1512,32.0,942.7656,943.7639,944.2631,944.2633,946.2629,1045.9,946.2633,1.0,947.26,3.0,18.0,108.0,14.0,1.0,1.6,0.3,Time
,,S17,624708,1,male,28,anonymized,Serial_Dependence_U,2023.2.3,Win32,60.60606061,,,,,,,,,,,,947.2624,3.0,947.2641,,,,949.609,950.107,949.0934,949.6088,948.2774,19.0,949.0932,950.1073,950.6068,950.6071,954.6247,1263.5,954.6252,5.0,955.6182,3.0,19.0,109.0,10.0,1.0,0.8,0.3,Time
,,S17,624708,1,male,28,anonymized,Serial_Dependence_U,2023.2.3,Win32,60.60606061,,,,,,,,,,,,955.6199,3.0,955.6211,,,,958.7533,959.248,958.2342,958.753,956.6237,308.0,958.234,959.2481,959.7475,959.7479,961.382,1140.6,961.3831,2.0,962.3787,3.0,20.0,110.0,4.0,1.0,1.6,0.3,Time
,,S17,624708,1,male,28,anonymized,Serial_Dependence_U,2023.2.3,Win32,60.60606061,,,,,,,,,,,,962.381,3.0,962.3829,,,,964.9101,965.4088,964.3973,964.91,963.3838,321.0,964.3969,965.4089,965.9085,965.9088,967.6134,1105.2,967.6139,4.0,968.6059,3.0,21.0,111.0,16.0,1.0,1.0,0.7,Time
,,S17,624708,1,male,28,anonymized,Serial_Dependence_U,2023.2.3,Win32,60.60606061,,,,,,,,,,,,968.6081,3.0,968.6099,,,,971.3537,971.8518,970.8378,971.3535,969.6253,250.0,970.8377,971.8518,972.3524,972.3527,973.8583,847.3,973.8589,2.0,974.8497,3.0,22.0,112.0,27.0,1.0,1.2,0.7,Time
,,S17,624708,1,male,28,anonymized,Serial_Dependence_U,2023.2.3,Win32,60.60606061,,,,,,,,,,,,974.8523,3.0,974.8542,,,,977.999,978.4958,977.4825,977.9987,975.8665,51.0,977.4823,978.4959,978.9952,978.9955,980.8945,1148.9,980.8949,2.0,981.8924,3.0,23.0,113.0,9.0,1.0,1.6,0.7,Time
,,S17,624708,1,male,28,anonymized,Serial_Dependence_U,2023.2.3,Win32,60.60606061,,,,,,,,,,,,981.8935,3.0,981.8944,,,,984.8331,985.3247,984.3264,984.8329,982.9109,194.0,984.3259,985.3248,985.8233,985.8235,989.1868,1718.8,989.1873,4.0,990.1849,3.0,24.0,114.0,8.0,1.0,1.4,0.7,Time
,,S17,624708,1,male,28,anonymized,Serial_Dependence_U,2023.2.3,Win32,60.60606061,,,,,,,,,,,,990.1872,3.0,990.1888,,,,993.333,993.8307,992.8191,993.3328,991.2054,94.0,992.8188,993.8309,994.3306,994.3308,999.7261,3945.2,999.7264,5.0,1000.7238,3.0,25.0,115.0,19.0,1.0,1.6,0.7,Time
,,S17,624708,1,male,28,anonymized,Serial_Dependence_U,2023.2.3,Win32,60.60606061,,,,,,,,,,,,1000.7252,3.0,1000.726,,,,1003.4771,1003.9708,1002.9593,1003.4767,1001.7442,238.0,1002.959,1003.9709,1004.4704,1004.4707,1005.1213,68.39999999,1005.1215,1.0,1006.1192,3.0,26.0,116.0,7.0,1.0,1.2,0.7,Time
,,S17,624708,1,male,28,anonymized,Serial_Dependence_U,2023.2.3,Win32,60.60606061,,,,,,,,,,,,1006.1216,3.0,1006.1235,,,,1008.6716,1009.1657,1008.1541,1008.6714,1007.1385,128.0,1008.1537,1009.1658,1009.6662,1009.6665,1010.619,396.2,1010.6193,1.0,1011.6136,3.0,27.0,117.0,21.0,1.0,1.0,0.3,Time
,,S17,624708,1,male,28,anonymized,Serial_Dependence_U,2023.2.3,Win32,60.60606061,,,,,,,,,,,,1011.6163,3.0,1011.6181,,,,1013.9643,1014.4606,1013.449,1013.9641,1012.6331,237.0,1013.4487,1014.4607,1014.9602,1014.9605,1016.2602,788.6,1016.2605,3.0,1017.258,3.0,28.0,118.0,20.0,1.0,0.8,0.3,Time
,,S17,624708,1,male,28,anonymized,Serial_Dependence_U,2023.2.3,Win32,60.60606061,,,,,,,,,,,,1017.2603,3.0,1017.2622,,,,1020.19,1020.6877,1019.6762,1020.1898,1018.2612,191.0,1019.6757,1020.6879,1021.1874,1021.1877,1022.6735,665.1,1022.6745,1.0,1023.6683,3.0,29.0,119.0,13.0,1.0,1.4,0.3,Time
,,S17,624708,1,male,28,anonymized,Serial_Dependence_U,2023.2.3,Win32,60.60606061,,,,,,,,,,,,1023.6708,4.0,1025.5011,s,1.7848,,1028.6353,1029.1288,1028.118,1028.635,1026.5073,43.0,1028.1175,1029.1288,1029.63,1029.6301,1032.7123,1486.3,1032.7133,2.0,1033.7087,4.0,0.0,120.0,9.0,1.0,1.6,0.7,Time
,,S17,624708,1,male,28,anonymized,Serial_Dependence_U,2023.2.3,Win32,60.60606061,,,,,,,,,,,,1033.7112,4.0,1033.7177,,,,1036.427,1036.922,1035.9248,1036.4267,1034.713,207.0,1035.9246,1036.9221,1037.4215,1037.4218,1038.7257,815.4,1038.726,1.0,1039.7193,4.0,1.0,121.0,2.0,1.0,1.2,0.3,Time
,,S17,624708,1,male,28,anonymized,Serial_Dependence_U,2023.2.3,Win32,60.60606061,,,,,,,,,,,,1039.7216,4.0,1039.7239,,,,1042.0513,1042.5504,1041.5383,1042.0511,1040.725,29.0,1041.5379,1042.5504,1043.0496,1043.05,1044.5186,1062.7,1044.519,5.0,1045.5142,4.0,2.0,122.0,25.0,1.0,0.8,0.7,Time
,,S17,624708,1,male,28,anonymized,Serial_Dependence_U,2023.2.3,Win32,60.60606061,,,,,,,,,,,,1045.5166,4.0,1045.5185,,,,1048.2494,1048.7436,1047.7318,1048.2492,1046.5184,119.0,1047.7315,1048.7437,1049.2434,1049.2437,1050.7157,876.0,1050.716,2.0,1051.7095,4.0,3.0,123.0,12.0,1.0,1.2,0.3,Time
,,S17,624708,1,male,28,anonymized,Serial_Dependence_U,2023.2.3,Win32,60.60606061,,,,,,,,,,,,1051.7112,4.0,1051.7118,,,,1054.6569,1055.1551,1054.1408,1054.6566,1052.7252,127.0,1054.1406,1055.1552,1055.6543,1055.6547,1057.1199,866.6,1057.1204,1.0,1058.1182,4.0,4.0,124.0,13.0,1.0,1.4,0.3,Time
,,S17,624708,1,male,28,anonymized,Serial_Dependence_U,2023.2.3,Win32,60.60606061,,,,,,,,,,,,1058.1204,4.0,1058.1228,,,,1061.067,1061.5645,1060.5527,1061.0668,1059.14,112.0,1060.5523,1061.5646,1062.0635,1062.0636,1063.3472,832.8,1063.3475,1.0,1064.345,4.0,5.0,125.0,28.0,1.0,1.4,0.7,Time
,,S17,624708,1,male,28,anonymized,Serial_Dependence_U,2023.2.3,Win32,60.60606061,,,,,,,,,,,,1064.3464,4.0,1064.3475,,,,1066.898,1067.392,1066.3799,1066.8978,1065.3656,290.0,1066.3797,1067.3921,1067.8916,1067.8919,1069.6404,1308.0,1069.6408,5.0,1070.6394,4.0,6.0,126.0,1.0,1.0,1.0,0.3,Time
,,S17,624708,1,male,28,anonymized,Serial_Dependence_U,2023.2.3,Win32,60.60606061,,,,,,,,,,,,1070.6417,4.0,1070.644,,,,1073.1748,1073.6694,1072.6575,1073.1746,1071.6436,38.0,1072.6572,1073.6695,1074.1689,1074.1693,1076.3034,1073.9,1076.3043,4.0,1077.2994,4.0,7.0,127.0,26.0,1.0,1.0,0.7,Time
,,S17,624708,1,male,28,anonymized,Serial_Dependence_U,2023.2.3,Win32,60.60606061,,,,,,,,,,,,1077.3023,4.0,1077.3037,,,,1080.45,1080.9454,1079.9328,1080.4497,1078.3166,105.0,1079.9326,1080.9455,1081.4452,1081.4456,1083.0996,1258.0,1083.0999,2.0,1084.094,4.0,8.0,128.0,19.0,1.0,1.6,0.7,Time
,,S17,624708,1,male,28,anonymized,Serial_Dependence_U,2023.2.3,Win32,60.60606061,,,,,,,,,,,,1084.0969,4.0,1084.0977,,,,1086.6105,1087.1082,1086.1081,1086.6103,1085.0976,141.0,1086.1079,1087.1082,1087.6069,1087.6071,1089.0082,898.2,1089.0084,2.0,1090.0046,4.0,9.0,129.0,21.0,1.0,1.0,0.3,Time
,,S17,624708,1,male,28,anonymized,Serial_Dependence_U,2023.2.3,Win32,60.60606061,,,,,,,,,,,,1090.0079,4.0,1090.0088,,,,1092.5576,1093.0505,1092.0394,1092.5573,1091.0218,252.0,1092.0388,1093.0505,1093.5523,1093.5525,1096.5721,1042.6,1096.5728,3.0,1097.5629,4.0,10.0,130.0,6.0,1.0,1.0,0.7,Time
,,S17,624708,1,male,28,anonymized,Serial_Dependence_U,2023.2.3,Win32,60.60606061,,,,,,,,,,,,1097.5652,4.0,1097.5666,,,,1099.9148,1100.4099,1099.3986,1099.9145,1098.5804,178.0,1099.3982,1100.4099,1100.9095,1100.9098,1102.175,1114.4,1102.1755,5.0,1103.1738,4.0,11.0,131.0,20.0,1.0,0.8,0.3,Time
,,S17,624708,1,male,28,anonymized,Serial_Dependence_U,2023.2.3,Win32,60.60606061,,,,,,,,,,,,1103.1762,4.0,1103.1782,,,,1105.9071,1106.4039,1105.4048,1105.9068,1104.1924,228.0,1105.4046,1106.4041,1106.9035,1106.9038,1108.2892,740.4,1108.29,1.0,1109.2846,4.0,12.0,132.0,7.0,1.0,1.2,0.7,Time
,,S17,624708,1,male,28,anonymized,Serial_Dependence_U,2023.2.3,Win32,60.60606061,,,,,,,,,,,,1109.2871,4.0,1109.2889,,,,1112.2357,1112.7311,1111.7171,1112.2353,1110.3047,84.0,1111.7168,1112.7312,1113.2308,1113.2312,1114.8486,1213.4,1114.8488,2.0,1115.8456,4.0,13.0,133.0,8.0,1.0,1.4,0.7,Time
,,S17,624708,1,male,28,anonymized,Serial_Dependence_U,2023.2.3,Win32,60.60606061,,,,,,,,,,,,1115.8486,4.0,1115.8509,,,,1118.7961,1119.2915,1118.2777,1118.7956,1116.8649,216.0,1118.2774,1119.2917,1119.7912,1119.7916,1121.8959,1206.0,1121.8963,2.0,1122.8895,4.0,14.0,134.0,3.0,1.0,1.4,0.3,Time
,,S17,624708,1,male,28,anonymized,Serial_Dependence_U,2023.2.3,Win32,60.60606061,,,,,,,,,,,,1122.892,4.0,1122.8932,,,,1125.4409,1125.935,1124.9239,1125.4407,1123.9106,323.0,1124.9235,1125.9351,1126.4335,1126.4335,1129.3205,1348.1,1129.3209,5.0,1130.3151,4.0,15.0,135.0,16.0,1.0,1.0,0.7,Time
,,S17,624708,1,male,28,anonymized,Serial_Dependence_U,2023.2.3,Win32,60.60606061,,,,,,,,,,,,1130.3168,4.0,1130.3175,,,,1133.2675,1133.7622,1132.7496,1133.2672,1131.3319,322.0,1132.749,1133.7623,1134.2615,1134.2616,1137.0713,1039.3,1137.0716,2.0,1138.0729,4.0,16.0,136.0,23.0,1.0,1.4,0.3,Time
,,S17,624708,1,male,28,anonymized,Serial_Dependence_U,2023.2.3,Win32,60.60606061,,,,,,,,,,,,1138.0755,4.0,1138.0778,,,,1141.2217,1141.7193,1140.7078,1141.2216,1139.093,337.0,1140.7076,1141.7193,1142.2189,1142.2192,1143.9183,1312.6,1143.9188,2.0,1144.9164,4.0,17.0,137.0,14.0,1.0,1.6,0.3,Time
,,S17,624708,1,male,28,anonymized,Serial_Dependence_U,2023.2.3,Win32,60.60606061,,,,,,,,,,,,1144.9188,4.0,1144.9205,,,,1147.6674,1148.1631,1147.153,1147.6673,1145.9367,182.0,1147.1527,1148.1632,1148.6627,1148.6629,1150.0807,975.5,1150.0817,2.0,1151.0775,4.0,18.0,138.0,27.0,1.0,1.2,0.7,Time
,,S17,624708,1,male,28,anonymized,Serial_Dependence_U,2023.2.3,Win32,60.60606061,,,,,,,,,,,,1151.0801,4.0,1151.0815,,,,1153.429,1153.924,1152.9124,1153.4287,1152.0972,47.0,1152.9121,1153.924,1154.4239,1154.4243,1157.0239,957.1,1157.025,4.0,1158.0201,4.0,19.0,139.0,5.0,1.0,0.8,0.7,Time
,,S17,624708,1,male,28,anonymized,Serial_Dependence_U,2023.2.3,Win32,60.60606061,,,,,,,,,,,,1158.0224,4.0,1158.0244,,,,1160.7691,1161.2668,1160.2553,1160.7689,1159.0367,147.0,1160.2549,1161.2669,1161.7665,1161.7668,1163.4994,1259.5,1163.4998,3.0,1164.4969,4.0,20.0,140.0,22.0,1.0,1.2,0.3,Time
,,S17,624708,1,male,28,anonymized,Serial_Dependence_U,2023.2.3,Win32,60.60606061,,,,,,,,,,,,1164.4986,4.0,1164.4997,,,,1167.6299,1168.1272,1167.1129,1167.6296,1165.4984,189.0,1167.1127,1168.1273,1168.6276,1168.6278,1170.4611,1202.7,1170.4613,2.0,1171.4573,4.0,21.0,141.0,4.0,1.0,1.6,0.3,Time
,,S17,624708,1,male,28,anonymized,Serial_Dependence_U,2023.2.3,Win32,60.60606061,,,,,,,,,,,,1171.4597,4.0,1171.462,,,,1174.2064,1174.7042,1173.6905,1174.2062,1172.4741,6.0,1173.6902,1174.7043,1175.2033,1175.2037,1177.0187,1101.8,1177.0191,2.0,1178.0182,4.0,22.0,142.0,17.0,1.0,1.2,0.7,Time
,,S17,624708,1,male,28,anonymized,Serial_Dependence_U,2023.2.3,Win32,60.60606061,,,,,,,,,,,,1178.0204,4.0,1178.0218,,,,1180.3368,1180.8309,1179.8339,1180.3367,1179.0216,25.0,1179.8337,1180.8311,1181.3306,1181.3309,1183.1132,1305.7,1183.114,5.0,1184.1113,4.0,23.0,143.0,15.0,1.0,0.8,0.7,Time
,,S17,624708,1,male,28,anonymized,Serial_Dependence_U,2023.2.3,Win32,60.60606061,,,,,,,,,,,,1184.1137,4.0,1184.1157,,,,1187.2432,1187.7409,1186.7314,1187.2429,1185.1275,5.0,1186.7311,1187.7409,1188.2407,1188.2411,1189.8406,1230.5,1189.8409,2.0,1190.8381,4.0,24.0,144.0,24.0,1.0,1.6,0.3,Time
,,S17,624708,1,male,28,anonymized,Serial_Dependence_U,2023.2.3,Win32,60.60606061,,,,,,,,,,,,1190.8404,4.0,1190.8423,,,,1193.1711,1193.6686,1192.6575,1193.1708,1191.8535,50.0,1192.6572,1193.6686,1194.1682,1194.1686,1195.95,1307.3,1195.9504,5.0,1196.9489,4.0,25.0,145.0,0.0,1.0,0.8,0.3,Time
,,S17,624708,1,male,28,anonymized,Serial_Dependence_U,2023.2.3,Win32,60.60606061,,,,,,,,,,,,1196.9512,4.0,1196.9535,,,,1200.0834,1200.5784,1199.5791,1200.083,1197.9683,253.0,1199.5791,1200.5786,1201.0782,1201.0785,1202.0774,524.7,1202.0778,1.0,1203.0759,4.0,26.0,146.0,29.0,1.0,1.6,0.7,Time
,,S17,624708,1,male,28,anonymized,Serial_Dependence_U,2023.2.3,Win32,60.60606061,,,,,,,,,,,,1203.0781,4.0,1203.0796,,,,1205.6276,1206.1231,1205.1088,1205.6272,1204.0932,303.0,1205.1086,1206.1233,1206.6226,1206.6228,1208.4626,1249.3,1208.4631,4.0,1209.4531,4.0,27.0,147.0,11.0,1.0,1.0,0.3,Time
,,S17,624708,1,male,28,anonymized,Serial_Dependence_U,2023.2.3,Win32,60.60606061,,,,,,,,,,,,1209.4554,4.0,1209.4569,,,,1211.8027,1212.3005,1211.2906,1211.8025,1210.4753,153.0,1211.2904,1212.3006,1212.7998,1212.8,1214.8806,1543.4,1214.881,5.0,1215.8804,4.0,28.0,148.0,10.0,1.0,0.8,0.3,Time
,,S17,624708,1,male,28,anonymized,Serial_Dependence_U,2023.2.3,Win32,60.60606061,,,,,,,,,,,,1215.8829,4.0,1215.8851,,,,1218.8146,1219.31,1218.2961,1218.8142,1216.8838,257.0,1218.2959,1219.3101,1219.8099,1219.8103,1222.5751,1511.6,1222.5753,4.0,1223.5735,4.0,29.0,149.0,18.0,1.0,1.4,0.7,Time
,,S17,624708,1,male,28,anonymized,Serial_Dependence_U,2023.2.3,Win32,60.60606061,,,,,,,,,,,,1223.5756,5.0,1225.7714,s,2.1531,,1228.3036,1228.8012,1227.7897,1228.3033,1226.7754,193.0,1227.7892,1228.8013,1229.3007,1229.3008,1232.564,1576.2,1232.5646,5.0,1233.5632,5.0,0.0,150.0,26.0,1.0,1.0,0.7,Time
,,S17,624708,1,male,28,anonymized,Serial_Dependence_U,2023.2.3,Win32,60.60606061,,,,,,,,,,,,1233.5656,5.0,1233.5713,,,,1236.5162,1237.0097,1235.9981,1236.516,1234.5835,3.0,1235.9978,1237.0098,1237.5092,1237.5095,1239.2613,1364.6,1239.2616,3.0,1240.2563,5.0,1.0,151.0,13.0,1.0,1.4,0.3,Time
,,S17,624708,1,male,28,anonymized,Serial_Dependence_U,2023.2.3,Win32,60.60606061,,,,,,,,,,,,1240.2587,5.0,1240.2605,,,,1242.6085,1243.1035,1242.0916,1242.6082,1241.277,129.0,1242.0912,1243.1036,1243.6029,1243.6032,1245.0861,1011.4,1245.0865,4.0,1246.0838,5.0,2.0,152.0,25.0,1.0,0.8,0.7,Time
,,S17,624708,1,male,28,anonymized,Serial_Dependence_U,2023.2.3,Win32,60.60606061,,,,,,,,,,,,1246.0858,5.0,1246.0873,,,,1248.8328,1249.3307,1248.3167,1248.8326,1247.1022,127.0,1248.3165,1249.3307,1249.8306,1249.8309,1251.5698,1274.0,1251.5704,4.0,1252.5611,5.0,3.0,153.0,27.0,1.0,1.2,0.7,Time
,,S17,624708,1,male,28,anonymized,Serial_Dependence_U,2023.2.3,Win32,60.60606061,,,,,,,,,,,,1252.5645,5.0,1252.5656,,,,1255.1104,1255.6085,1254.5951,1255.1101,1253.578,287.0,1254.5949,1255.6087,1256.1079,1256.1083,1257.6902,1148.4,1257.6907,4.0,1258.6883,5.0,4.0,154.0,16.0,1.0,1.0,0.7,Time
,,S17,624708,1,male,28,anonymized,Serial_Dependence_U,2023.2.3,Win32,60.60606061,,,,,,,,,,,,1258.6906,5.0,1258.6924,,,,1261.8384,1262.3348,1261.3206,1261.8382,1259.7047,316.0,1261.3204,1262.3348,1262.8343,1262.8347,1263.4349,530.6,1263.4352,1.0,1264.4328,5.0,5.0,155.0,19.0,1.0,1.6,0.7,Time
,,S17,624708,1,male,28,anonymized,Serial_Dependence_U,2023.2.3,Win32,60.60606061,,,,,,,,,,,,1264.435,5.0,1264.4367,,,,1267.1805,1267.6794,1266.6654,1267.1803,1265.4529,354.0,1266.6652,1267.6798,1268.1789,1268.1793,1270.3825,1783.9,1270.383,5.0,1271.3758,5.0,6.0,156.0,22.0,1.0,1.2,0.3,Time
,,S17,624708,1,male,28,anonymized,Serial_Dependence_U,2023.2.3,Win32,60.60606061,,,,,,,,,,,,1271.3784,5.0,1271.3802,,,,1273.7242,1274.2231,1273.2088,1273.7241,1272.3957,184.0,1273.2084,1274.2233,1274.7224,1274.7228,1276.1556,1001.6,1276.1559,4.0,1277.1537,5.0,7.0,157.0,15.0,1.0,0.8,0.7,Time
,,S17,624708,1,male,28,anonymized,Serial_Dependence_U,2023.2.3,Win32,60.60606061,,,,,,,,,,,,1277.156,5.0,1277.1578,,,,1280.3017,1280.7998,1279.7852,1280.3016,1278.1717,256.0,1279.785,1280.7999,1281.2993,1281.2995,1283.1651,1446.2,1283.1656,2.0,1284.1637,5.0,8.0,158.0,9.0,1.0,1.6,0.7,Time
,,S17,624708,1,male,28,anonymized,Serial_Dependence_U,2023.2.3,Win32,60.60606061,,,,,,,,,,,,1284.1664,5.0,1284.1682,,,,1286.9121,1287.4099,1286.3991,1286.912,1285.1814,359.0,1286.3987,1287.41,1287.9095,1287.9098,1289.8261,1449.6,1289.8267,4.0,1290.8237,5.0,9.0,159.0,2.0,1.0,1.2,0.3,Time
,,S17,624708,1,male,28,anonymized,Serial_Dependence_U,2023.2.3,Win32,60.60606061,,,,,,,,,,,,1290.826,5.0,1290.8269,,,,1293.5749,1294.0701,1293.0553,1293.5745,1291.8402,195.0,1293.055,1294.0702,1294.5697,1294.5701,1296.3238,1245.6,1296.3243,3.0,1297.3173,5.0,10.0,160.0,12.0,1.0,1.2,0.3,Time
,,S17,624708,1,male,28,anonymized,Serial_Dependence_U,2023.2.3,Win32,60.60606061,,,,,,,,,,,,1297.3196,5.0,1297.3214,,,,1300.2702,1300.7635,1299.7519,1300.2698,1298.3336,172.0,1299.7516,1300.7635,1301.2634,1301.2637,1303.8965,1391.8,1303.8976,3.0,1304.8931,5.0,11.0,161.0,3.0,1.0,1.4,0.3,Time
,,S17,624708,1,male,28,anonymized,Serial_Dependence_U,2023.2.3,Win32,60.60606061,,,,,,,,,,,,1304.8957,5.0,1304.8975,,,,1307.6292,1308.1231,1307.1113,1307.6288,1305.8968,299.0,1307.1109,1308.1232,1308.6232,1308.6238,1311.7538,1769.7,1311.754,5.0,1312.7519,5.0,12.0,162.0,17.0,1.0,1.2,0.7,Time
,,S17,624708,1,male,28,anonymized,Serial_Dependence_U,2023.2.3,Win32,60.60606061,,,,,,,,,,,,1312.7542,5.0,1312.7559,,,,1315.1037,1315.5991,1314.5867,1315.1033,1313.7728,92.0,1314.586,1315.5992,1316.0987,1316.099,1318.083,1419.8,1318.0833,5.0,1319.0799,5.0,13.0,163.0,10.0,1.0,0.8,0.3,Time
,,S17,624708,1,male,28,anonymized,Serial_Dependence_U,2023.2.3,Win32,60.60606061,,,,,,,,,,,,1319.0822,5.0,1319.0837,,,,1321.4139,1321.9101,1320.8983,1321.4135,1320.0856,356.0,1320.898,1321.9102,1322.4098,1322.4099,1324.1265,1154.8,1324.1268,5.0,1325.124,5.0,14.0,164.0,20.0,1.0,0.8,0.3,Time
,,S17,624708,1,male,28,anonymized,Serial_Dependence_U,2023.2.3,Win32,60.60606061,,,,,,,,,,,,1325.1256,5.0,1325.1261,,,,1327.474,1327.9713,1326.9565,1327.4735,1326.1403,351.0,1326.9562,1327.9714,1328.4716,1328.4718,1328.553,49.39999999,1328.5533,1.0,1329.5545,5.0,15.0,165.0,0.0,1.0,0.8,0.3,Time
,,S17,624708,1,male,28,anonymized,Serial_Dependence_U,2023.2.3,Win32,60.60606061,,,,,,,,,,,,1329.557,5.0,1329.558,,,,1332.073,1332.5673,1331.5706,1332.0728,1330.5592,306.0,1331.5704,1332.5674,1333.067,1333.0672,1335.632,1501.0,1335.6324,5.0,1336.6288,5.0,16.0,166.0,6.0,1.0,1.0,0.7,Time
,,S17,624708,1,male,28,anonymized,Serial_Dependence_U,2023.2.3,Win32,60.60606061,,,,,,,,,,,,1336.6307,5.0,1336.6321,,,,1339.1775,1339.6756,1338.6617,1339.1774,1337.6452,286.0,1338.6615,1339.6759,1340.1755,1340.1758,1341.7411,469.3,1341.7417,1.0,1342.7393,5.0,17.0,167.0,1.0,1.0,1.0,0.3,Time
,,S17,624708,1,male,28,anonymized,Serial_Dependence_U,2023.2.3,Win32,60.60606061,,,,,,,,,,,,1342.7413,5.0,1342.743,,,,1345.2894,1345.7862,1344.773,1345.2892,1343.7571,30.0,1344.7728,1345.7864,1346.2864,1346.2866,1348.7845,1298.2,1348.7849,4.0,1349.7824,5.0,18.0,168.0,21.0,1.0,1.0,0.3,Time
,,S17,624708,1,male,28,anonymized,Serial_Dependence_U,2023.2.3,Win32,60.60606061,,,,,,,,,,,,1349.7842,5.0,1349.7855,,,,1352.7344,1353.2293,1352.2171,1352.7341,1350.8038,320.0,1352.2168,1353.2295,1353.7284,1353.7288,1359.7436,9999.0,1359.744,0.0,1360.7387,5.0,19.0,169.0,28.0,1.0,1.4,0.7,Time
,,S17,624708,1,male,28,anonymized,Serial_Dependence_U,2023.2.3,Win32,60.60606061,,,,,,,,,,,,1360.7419,5.0,1360.7433,,,,1363.2899,1363.785,1362.7736,1363.2896,1361.7585,252.0,1362.7732,1363.785,1364.2849,1364.2851,1366.0335,1360.9,1366.0337,5.0,1367.0319,5.0,20.0,170.0,11.0,1.0,1.0,0.3,Time
,,S17,624708,1,male,28,anonymized,Serial_Dependence_U,2023.2.3,Win32,60.60606061,,,,,,,,,,,,1367.0332,5.0,1367.0339,,,,1369.9835,1370.4789,1369.4687,1369.9833,1368.0493,96.0,1369.4685,1370.4789,1370.9786,1370.9788,1372.6787,1218.0,1372.6791,2.0,1373.6756,5.0,21.0,171.0,23.0,1.0,1.4,0.3,Time
,,S17,624708,1,male,28,anonymized,Serial_Dependence_U,2023.2.3,Win32,60.60606061,,,,,,,,,,,,1373.6785,5.0,1373.6804,,,,1376.8143,1377.3057,1376.294,1376.8141,1374.6808,328.0,1376.2936,1377.3057,1377.8051,1377.8052,1379.5195,1202.4,1379.5197,2.0,1380.5188,5.0,22.0,172.0,29.0,1.0,1.6,0.7,Time
,,S17,624708,1,male,28,anonymized,Serial_Dependence_U,2023.2.3,Win32,60.60606061,,,,,,,,,,,,1380.5212,5.0,1380.523,,,,1382.8684,1383.3664,1382.3522,1382.8683,1381.5388,298.0,1382.3519,1383.3666,1383.8659,1383.8661,1385.535,1252.4,1385.5353,5.0,1386.5296,5.0,23.0,173.0,5.0,1.0,0.8,0.7,Time
,,S17,624708,1,male,28,anonymized,Serial_Dependence_U,2023.2.3,Win32,60.60606061,,,,,,,,,,,,1386.5326,5.0,1386.5344,,,,1389.4831,1389.9762,1388.9649,1389.4829,1387.5471,255.0,1388.9644,1389.9762,1390.4757,1390.476,1392.3133,1196.3,1392.3137,2.0,1393.3063,5.0,24.0,174.0,18.0,1.0,1.4,0.7,Time
,,S17,624708,1,male,28,anonymized,Serial_Dependence_U,2023.2.3,Win32,60.60606061,,,,,,,,,,,,1393.3088,5.0,1393.3102,,,,1396.2543,1396.753,1395.7414,1396.2541,1394.3242,19.0,1395.741,1396.7532,1397.2534,1397.2536,1401.2067,1532.3,1401.2071,4.0,1402.1976,5.0,25.0,175.0,8.0,1.0,1.4,0.7,Time
,,S17,624708,1,male,28,anonymized,Serial_Dependence_U,2023.2.3,Win32,60.60606061,,,,,,,,,,,,1402.2,5.0,1402.2018,,,,1404.949,1405.4443,1404.4304,1404.9486,1403.2175,117.0,1404.4299,1405.4445,1405.9446,1405.9449,1409.4076,1694.2,1409.4081,5.0,1410.4074,5.0,26.0,176.0,7.0,1.0,1.2,0.7,Time
,,S17,624708,1,male,28,anonymized,Serial_Dependence_U,2023.2.3,Win32,60.60606061,,,,,,,,,,,,1410.4101,5.0,1410.411,,,,1413.5306,1414.0207,1413.0226,1413.5304,1411.4128,348.0,1413.0224,1414.0208,1414.5203,1414.5208,1415.6438,1047.9,1415.6443,1.0,1416.6335,5.0,27.0,177.0,24.0,1.0,1.6,0.3,Time
,,S17,624708,1,male,28,anonymized,Serial_Dependence_U,2023.2.3,Win32,60.60606061,,,,,,,,,,,,1416.6363,5.0,1416.6384,,,,1419.7826,1420.2799,1419.266,1419.7825,1417.6531,338.0,1419.2657,1420.2802,1420.7798,1420.78,1423.334,1878.9,1423.3346,4.0,1424.3261,5.0,28.0,178.0,14.0,1.0,1.6,0.3,Time
,,S17,624708,1,male,28,anonymized,Serial_Dependence_U,2023.2.3,Win32,60.60606061,,,,,,,,,,,,1424.3285,5.0,1424.3306,,,,1427.4606,1427.9556,1426.9416,1427.4603,1425.3296,330.0,1426.9412,1427.9557,1428.4552,1428.4555,1430.9055,1882.8,1430.9058,4.0,1431.9022,5.0,29.0,179.0,4.0,1.0,1.6,0.3,Time
,,S17,624708,1,male,28,anonymized,Serial_Dependence_U,2023.2.3,Win32,60.60606061,,,,,,,,,,,,1431.9048,6.0,1433.9734,s,2.0388,,1437.1211,1437.6125,1436.6023,1437.1208,1434.9872,258.0,1436.6016,1437.6126,1438.1145,1438.1149,1440.4445,1696.3,1440.445,4.0,1441.4439,6.0,0.0,180.0,24.0,1.0,1.6,0.3,Time
,,S17,624708,1,male,28,anonymized,Serial_Dependence_U,2023.2.3,Win32,60.60606061,,,,,,,,,,,,1441.4464,6.0,1441.4518,,,,1444.1983,1444.6904,1443.6787,1444.198,1442.4639,52.0,1443.6781,1444.6907,1445.1902,1445.1904,1447.3419,1670.1,1447.3424,5.0,1448.3357,6.0,1.0,181.0,27.0,1.0,1.2,0.7,Time
,,S17,624708,1,male,28,anonymized,Serial_Dependence_U,2023.2.3,Win32,60.60606061,,,,,,,,,,,,1448.338,6.0,1448.3398,,,,1451.4638,1451.9665,1450.9544,1451.4636,1449.3387,3.0,1450.954,1451.9667,1452.4663,1452.4664,1453.8546,1028.7,1453.8553,1.0,1454.8461,6.0,2.0,182.0,14.0,1.0,1.6,0.3,Time
,,S17,624708,1,male,28,anonymized,Serial_Dependence_U,2023.2.3,Win32,60.60606061,,,,,,,,,,,,1454.8486,6.0,1454.8502,,,,1457.7979,1458.293,1457.2814,1457.7978,1455.8634,261.0,1457.2811,1458.2933,1458.7924,1458.7925,1460.9064,1548.0,1460.9067,4.0,1461.9056,6.0,3.0,183.0,23.0,1.0,1.4,0.3,Time
,,S17,624708,1,male,28,anonymized,Serial_Dependence_U,2023.2.3,Win32,60.60606061,,,,,,,,,,,,1461.907,6.0,1461.9078,,,,1464.2535,1464.7521,1463.7372,1464.2534,1462.9213,196.0,1463.737,1464.7521,1465.2516,1465.2517,1467.1336,1474.0,1467.1337,5.0,1468.1321,6.0,4.0,184.0,20.0,1.0,0.8,0.3,Time
,,S17,624708,1,male,28,anonymized,Serial_Dependence_U,2023.2.3,Win32,60.60606061,,,,,,,,,,,,1468.1326,6.0,1468.133,,,,1470.6804,1471.1793,1470.1655,1470.6803,1469.1486,239.0,1470.1654,1471.1793,1471.6788,1471.6788,1473.544,1442.1,1473.5443,5.0,1474.5425,6.0,5.0,185.0,26.0,1.0,1.0,0.7,Time
,,S17,624708,1,male,28,anonymized,Serial_Dependence_U,2023.2.3,Win32,60.60606061,,,,,,,,,,,,1474.5432,6.0,1474.5435,,,,1477.4904,1477.9891,1476.9743,1477.4903,1475.559,311.0,1476.9743,1477.9892,1478.4888,1478.4889,1480.6038,1412.4,1480.604,3.0,1481.6023,6.0,6.0,186.0,8.0,1.0,1.4,0.7,Time
,,S17,624708,1,male,28,anonymized,Serial_Dependence_U,2023.2.3,Win32,60.60606061,,,,,,,,,,,,1481.6028,6.0,1481.6033,,,,1484.3505,1484.8493,1483.8342,1484.3504,1482.6187,5.0,1483.8341,1484.8493,1485.3491,1485.3492,1487.7147,1864.9,1487.7153,5.0,1488.7135,6.0,7.0,187.0,12.0,1.0,1.2,0.3,Time
,,S17,624708,1,male,28,anonymized,Serial_Dependence_U,2023.2.3,Win32,60.60606061,,,,,,,,,,,,1488.716,6.0,1488.7177,,,,1491.2671,1491.7612,1490.7503,1491.267,1489.7329,207.0,1490.75,1491.7617,1492.2608,1492.262,1494.4146,1679.3,1494.4151,5.0,1495.4078,6.0,8.0,188.0,6.0,1.0,1.0,0.7,Time
,,S17,624708,1,male,28,anonymized,Serial_Dependence_U,2023.2.3,Win32,60.60606061,,,,,,,,,,,,1495.4101,6.0,1495.4111,,,,1497.9592,1498.4544,1497.443,1497.9589,1496.4279,8.0,1497.4427,1498.4544,1498.9541,1498.9543,1500.4201,978.0,1500.4205,3.0,1501.4176,6.0,9.0,189.0,21.0,1.0,1.0,0.3,Time
,,S17,624708,1,male,28,anonymized,Serial_Dependence_U,2023.2.3,Win32,60.60606061,,,,,,,,,,,,1501.42,6.0,1501.4214,,,,1503.7526,1504.2477,1503.2504,1503.7523,1502.437,288.0,1503.2502,1504.248,1504.7472,1504.7476,1507.5112,1296.1,1507.5117,5.0,1508.5105,6.0,10.0,190.0,25.0,1.0,0.8,0.7,Time
,,S17,624708,1,male,28,anonymized,Serial_Dependence_U,2023.2.3,Win32,60.60606061,,,,,,,,,,,,1508.5136,6.0,1508.515,,,,1510.8627,1511.3574,1510.3465,1510.8623,1509.5306,347.0,1510.346,1511.3575,1511.8571,1511.8574,1513.4465,1124.1,1513.447,5.0,1514.4378,6.0,11.0,191.0,10.0,1.0,0.8,0.3,Time
,,S17,624708,1,male,28,anonymized,Serial_Dependence_U,2023.2.3,Win32,60.60606061,,,,,,,,,,,,1514.44,6.0,1514.4417,,,,1517.1733,1517.6695,1516.6581,1517.1726,1515.4427,52.0,1516.6578,1517.6697,1518.1686,1518.1687,1520.5008,1625.2,1520.5012,5.0,1521.4985,6.0,12.0,192.0,2.0,1.0,1.2,0.3,Time
,,S17,624708,1,male,28,anonymized,Serial_Dependence_U,2023.2.3,Win32,60.60606061,,,,,,,,,,,,1521.5014,6.0,1521.5023,,,,1524.6326,1525.1287,1524.117,1524.632,1522.4988,154.0,1524.1167,1525.1288,1525.6282,1525.6284,1527.4488,1249.9,1527.4491,2.0,1528.4424,6.0,13.0,193.0,19.0,1.0,1.6,0.7,Time
,,S17,624708,1,male,28,anonymized,Serial_Dependence_U,2023.2.3,Win32,60.60606061,,,,,,,,,,,,1528.4447,6.0,1528.4459,,,,1530.7754,1531.2729,1530.2609,1530.7751,1529.4469,339.0,1530.2605,1531.273,1531.7721,1531.7722,1533.9061,1140.8,1533.9068,5.0,1534.901,6.0,14.0,194.0,0.0,1.0,0.8,0.3,Time
,,S17,624708,1,male,28,anonymized,Serial_Dependence_U,2023.2.3,Win32,60.60606061,,,,,,,,,,,,1534.9034,6.0,1534.9052,,,,1537.4371,1537.9313,1536.9176,1537.4368,1535.9058,146.0,1536.9171,1537.9315,1538.4312,1538.4316,1540.8701,1165.6,1540.8708,4.0,1541.8611,6.0,15.0,195.0,16.0,1.0,1.0,0.7,Time
,,S17,624708,1,male,28,anonymized,Serial_Dependence_U,2023.2.3,Win32,60.60606061,,,,,,,,,,,,1541.8637,6.0,1541.8655,,,,1544.6132,1545.1081,1544.0969,1544.6129,1542.8805,74.0,1544.0966,1545.1084,1545.6071,1545.6075,1547.5452,1118.6,1547.5455,2.0,1548.538,6.0,16.0,196.0,17.0,1.0,1.2,0.7,Time
,,S17,624708,1,male,28,anonymized,Serial_Dependence_U,2023.2.3,Win32,60.60606061,,,,,,,,,,,,1548.5402,6.0,1548.5429,,,,1550.8708,1551.3682,1550.358,1550.8706,1549.5416,80.0,1550.3576,1551.3682,1551.8678,1551.8682,1553.8667,1407.9,1553.8673,5.0,1554.8647,6.0,17.0,197.0,5.0,1.0,0.8,0.7,Time
,,S17,624708,1,male,28,anonymized,Serial_Dependence_U,2023.2.3,Win32,60.60606061,,,,,,,,,,,,1554.8692,6.0,1554.871,,,,1558.016,1558.5112,1557.5007,1558.0156,1555.8826,74.0,1557.5001,1558.5114,1559.0108,1559.0111,1560.8783,1416.7,1560.8793,2.0,1561.8746,6.0,18.0,198.0,4.0,1.0,1.6,0.3,Time
,,S17,624708,1,male,28,anonymized,Serial_Dependence_U,2023.2.3,Win32,60.60606061,,,,,,,,,,,,1561.8769,6.0,1561.8786,,,,1564.8091,1565.3046,1564.3062,1564.8088,1562.8919,52.0,1564.306,1565.3046,1565.8045,1565.8046,1567.7074,1239.8,1567.7081,2.0,1568.7014,6.0,19.0,199.0,13.0,1.0,1.4,0.3,Time
,,S17,624708,1,male,28,anonymized,Serial_Dependence_U,2023.2.3,Win32,60.60606061,,,,,,,,,,,,1568.7039,6.0,1568.7058,,,,1571.2383,1571.7324,1570.7199,1571.238,1569.7177,359.0,1570.7196,1571.7325,1572.2314,1572.2317,1573.9964,1263.8,1573.9969,4.0,1574.9956,6.0,20.0,200.0,11.0,1.0,1.0,0.3,Time
,,S17,624708,1,male,28,anonymized,Serial_Dependence_U,2023.2.3,Win32,60.60606061,,,,,,,,,,,,1574.9976,6.0,1574.999,,,,1577.5441,1578.0418,1577.0278,1577.544,1576.013,348.0,1577.0276,1578.0418,1578.5418,1578.5419,1580.5099,1277.9,1580.5106,4.0,1581.5059,6.0,21.0,201.0,1.0,1.0,1.0,0.3,Time
,,S17,624708,1,male,28,anonymized,Serial_Dependence_U,2023.2.3,Win32,60.60606061,,,,,,,,,,,,1581.5086,6.0,1581.5104,,,,1584.6551,1585.1522,1584.1378,1584.6548,1582.5224,316.0,1584.1376,1585.1524,1585.6518,1585.6521,1588.6663,1315.5,1588.6667,2.0,1589.6634,6.0,22.0,202.0,29.0,1.0,1.6,0.7,Time
,,S17,624708,1,male,28,anonymized,Serial_Dependence_U,2023.2.3,Win32,60.60606061,,,,,,,,,,,,1589.6641,6.0,1589.6646,,,,1592.3831,1592.8775,1591.8809,1592.3829,1590.6704,13.0,1591.8806,1592.8776,1593.3773,1593.3777,1595.4931,1489.6,1595.4936,4.0,1596.4909,6.0,23.0,203.0,7.0,1.0,1.2,0.7,Time
,,S17,624708,1,male,28,anonymized,Serial_Dependence_U,2023.2.3,Win32,60.60606061,,,,,,,,,,,,1596.4932,6.0,1596.496,,,,1599.6421,1600.1362,1599.1262,1599.6417,1597.5082,63.0,1599.1259,1600.1363,1600.6367,1600.637,1602.6689,1257.5,1602.6694,2.0,1603.6677,6.0,24.0,204.0,9.0,1.0,1.6,0.7,Time
,,S17,624708,1,male,28,anonymized,Serial_Dependence_U,2023.2.3,Win32,60.60606061,,,,,,,,,,,,1603.67,6.0,1603.6717,,,,1606.6146,1607.1138,1606.0991,1606.6145,1604.6842,282.0,1606.0989,1607.1139,1607.6135,1607.6138,1610.3941,1263.7,1610.3945,2.0,1611.3928,6.0,25.0,205.0,3.0,1.0,1.4,0.3,Time
,,S17,624708,1,male,28,anonymized,Serial_Dependence_U,2023.2.3,Win32,60.60606061,,,,,,,,,,,,1611.3953,6.0,1611.3968,,,,1614.1442,1614.6396,1613.6281,1614.1439,1612.4129,13.0,1613.6279,1614.6396,1615.1394,1615.1398,1617.3404,1563.8,1617.3406,5.0,1618.336,6.0,26.0,206.0,22.0,1.0,1.2,0.3,Time
,,S17,624708,1,male,28,anonymized,Serial_Dependence_U,2023.2.3,Win32,60.60606061,,,,,,,,,,,,1618.3383,6.0,1618.3402,,,,1620.6691,1621.1666,1620.1547,1620.6688,1619.3407,205.0,1620.1544,1621.1667,1621.6652,1621.6652,1624.0984,1364.9,1624.0987,5.0,1625.0964,6.0,27.0,207.0,15.0,1.0,0.8,0.7,Time
,,S17,624708,1,male,28,anonymized,Serial_Dependence_U,2023.2.3,Win32,60.60606061,,,,,,,,,,,,1625.0981,6.0,1625.0994,,,,1628.0479,1628.5427,1627.5311,1628.0476,1626.116,66.0,1627.5307,1628.543,1629.0421,1629.0424,1630.8074,842.6,1630.8077,1.0,1631.8067,6.0,28.0,208.0,18.0,1.0,1.4,0.7,Time
,,S17,624708,1,male,28,anonymized,Serial_Dependence_U,2023.2.3,Win32,60.60606061,,,,,,,,,,,,1631.8093,6.0,1631.8109,,,,1634.741,1635.2361,1634.2246,1634.7407,1632.8094,169.0,1634.2242,1635.2364,1635.7364,1635.7366,1637.753,1207.4,1637.7542,2.0,1638.7493,6.0,29.0,209.0,28.0,1.0,1.4,0.7,Time
,,S17,624708,1,male,28,anonymized,Serial_Dependence_U,2023.2.3,Win32,60.60606061,,,,,,,,,,,,1638.7517,7.0,1645.76,s,6.9727,,1648.9105,1649.4093,1648.3925,1648.9102,1646.7794,22.0,1648.3924,1649.4095,1649.9051,1649.9054,1651.4871,1140.6,1651.4877,2.0,1652.4863,7.0,0.0,210.0,24.0,1.0,1.6,0.3,Time
,,S17,624708,1,male,28,anonymized,Serial_Dependence_U,2023.2.3,Win32,60.60606061,,,,,,,,,,,,1652.4886,7.0,1652.4961,,,,1655.6204,1656.1157,1655.1181,1655.6201,1653.5036,65.0,1655.1177,1656.1159,1656.6151,1656.6154,1658.5,1397.3,1658.5007,2.0,1659.4962,7.0,1.0,211.0,19.0,1.0,1.6,0.7,Time
,,S17,624708,1,male,28,anonymized,Serial_Dependence_U,2023.2.3,Win32,60.60606061,,,,,,,,,,,,1659.4991,7.0,1659.5005,,,,1662.4437,1662.9419,1661.9308,1662.4436,1660.5162,136.0,1661.9304,1662.942,1663.4421,1663.4422,1665.6266,1564.3,1665.6273,4.0,1666.6221,7.0,2.0,212.0,23.0,1.0,1.4,0.3,Time
,,S17,624708,1,male,28,anonymized,Serial_Dependence_U,2023.2.3,Win32,60.60606061,,,,,,,,,,,,1666.6244,7.0,1666.6266,,,,1668.9695,1669.4683,1668.4533,1668.9694,1667.6383,273.0,1668.4532,1669.4684,1669.9698,1669.97,1672.1676,1432.0,1672.1683,5.0,1673.1662,7.0,3.0,213.0,25.0,1.0,0.8,0.7,Time
,,S17,624708,1,male,28,anonymized,Serial_Dependence_U,2023.2.3,Win32,60.60606061,,,,,,,,,,,,1673.1688,7.0,1673.1705,,,,1675.9144,1676.4124,1675.3987,1675.9143,1674.1856,262.0,1675.3985,1676.4125,1676.9117,1676.9119,1678.6443,1225.8,1678.645,3.0,1679.6434,7.0,4.0,214.0,2.0,1.0,1.2,0.3,Time
,,S17,624708,1,male,28,anonymized,Serial_Dependence_U,2023.2.3,Win32,60.60606061,,,,,,,,,,,,1679.6447,7.0,1679.6454,,,,1682.1799,1682.6742,1681.6598,1682.1797,1680.6488,239.0,1681.6596,1682.6743,1683.174,1683.1742,1685.51,1407.1,1685.5104,5.0,1686.5025,7.0,5.0,215.0,6.0,1.0,1.0,0.7,Time
,,S17,624708,1,male,28,anonymized,Serial_Dependence_U,2023.2.3,Win32,60.60606061,,,,,,,,,,,,1686.505,7.0,1686.5059,,,,1689.2564,1689.7494,1688.7376,1689.256,1687.5238,327.0,1688.7373,1689.7494,1690.249,1690.2493,1691.8852,1163.5,1691.8858,3.0,1692.8802,7.0,6.0,216.0,17.0,1.0,1.2,0.7,Time
,,S17,624708,1,male,28,anonymized,Serial_Dependence_U,2023.2.3,Win32,60.60606061,,,,,,,,,,,,1692.8823,7.0,1692.8839,,,,1696.0165,1696.5112,1695.5017,1696.0164,1693.8866,356.0,1695.5013,1696.512,1697.0106,1697.0107,1698.3778,792.1,1698.3786,1.0,1699.3736,7.0,7.0,217.0,29.0,1.0,1.6,0.7,Time
,,S17,624708,1,male,28,anonymized,Serial_Dependence_U,2023.2.3,Win32,60.60606061,,,,,,,,,,,,1699.3754,7.0,1699.3762,,,,1702.1249,1702.6201,1701.6089,1702.1245,1700.393,334.0,1701.6086,1702.6202,1703.1196,1703.12,1704.7689,1226.7,1704.7694,3.0,1705.7673,7.0,8.0,218.0,27.0,1.0,1.2,0.7,Time
,,S17,624708,1,male,28,anonymized,Serial_Dependence_U,2023.2.3,Win32,60.60606061,,,,,,,,,,,,1705.7696,7.0,1705.7714,,,,1708.3027,1708.7974,1707.8003,1708.3024,1706.7863,16.0,1707.8001,1708.7975,1709.297,1709.2973,1711.6533,1321.7,1711.6537,5.0,1712.6436,7.0,9.0,219.0,11.0,1.0,1.0,0.3,Time
,,S17,624708,1,male,28,anonymized,Serial_Dependence_U,2023.2.3,Win32,60.60606061,,,,,,,,,,,,1712.6461,7.0,1712.6477,,,,1714.9933,1715.4912,1714.4768,1714.9931,1713.6636,6.0,1714.4766,1715.4913,1715.991,1715.9911,1717.5575,1094.2,1717.5579,5.0,1718.5545,7.0,10.0,220.0,15.0,1.0,0.8,0.7,Time
,,S17,624708,1,male,28,anonymized,Serial_Dependence_U,2023.2.3,Win32,60.60606061,,,,,,,,,,,,1718.5566,7.0,1718.5584,,,,1721.0923,1721.586,1720.5742,1721.0919,1719.5619,63.0,1720.5736,1721.5861,1722.0853,1722.0855,1723.6668,1036.5,1723.6675,3.0,1724.6652,7.0,11.0,221.0,1.0,1.0,1.0,0.3,Time
,,S17,624708,1,male,28,anonymized,Serial_Dependence_U,2023.2.3,Win32,60.60606061,,,,,,,,,,,,1724.6676,7.0,1724.6698,,,,1727.8146,1728.3135,1727.2977,1727.8145,1725.6828,89.0,1727.2974,1728.3136,1728.8134,1728.8135,1731.1611,1161.4,1731.1618,2.0,1732.1584,7.0,12.0,222.0,4.0,1.0,1.6,0.3,Time
,,S17,624708,1,male,28,anonymized,Serial_Dependence_U,2023.2.3,Win32,60.60606061,,,,,,,,,,,,1732.161,7.0,1732.1631,,,,1734.4948,1734.9885,1733.9911,1734.4945,1733.1755,148.0,1733.9908,1734.9888,1735.4888,1735.489,1737.5041,1278.1,1737.5044,5.0,1738.5031,7.0,13.0,223.0,20.0,1.0,0.8,0.3,Time
,,S17,624708,1,male,28,anonymized,Serial_Dependence_U,2023.2.3,Win32,60.60606061,,,,,,,,,,,,1738.5055,7.0,1738.5065,,,,1741.4367,1741.9328,1740.9222,1741.4364,1739.5069,124.0,1740.922,1741.933,1742.4333,1742.4336,1744.136,1119.2,1744.1365,2.0,1745.1285,7.0,14.0,224.0,18.0,1.0,1.4,0.7,Time
,,S17,624708,1,male,28,anonymized,Serial_Dependence_U,2023.2.3,Win32,60.60606061,,,,,,,,,,,,1745.131,7.0,1745.133,,,,1747.4621,1747.9596,1746.948,1747.462,1746.1439,237.0,1746.9477,1747.9597,1748.4588,1748.4592,1750.3096,1316.5,1750.3107,5.0,1751.3066,7.0,15.0,225.0,10.0,1.0,0.8,0.3,Time
,,S17,624708,1,male,28,anonymized,Serial_Dependence_U,2023.2.3,Win32,60.60606061,,,,,,,,,,,,1751.3092,7.0,1751.3109,,,,1753.8414,1754.3367,1753.3387,1753.8414,1752.3268,137.0,1753.3384,1754.3368,1754.8356,1754.836,1756.5379,1262.3,1756.5384,4.0,1757.5335,7.0,16.0,226.0,21.0,1.0,1.0,0.3,Time
,,S17,624708,1,male,28,anonymized,Serial_Dependence_U,2023.2.3,Win32,60.60606061,,,,,,,,,,,,1757.5368,7.0,1757.5377,,,,1760.0655,1760.5634,1759.5528,1760.0654,1758.5384,18.0,1759.5525,1760.5636,1761.0629,1761.0632,1763.0453,1443.1,1763.0457,5.0,1764.0436,7.0,17.0,227.0,26.0,1.0,1.0,0.7,Time
,,S17,624708,1,male,28,anonymized,Serial_Dependence_U,2023.2.3,Win32,60.60606061,,,,,,,,,,,,1764.046,7.0,1764.0477,,,,1766.9951,1767.49,1766.4785,1766.9948,1765.0645,319.0,1766.4781,1767.4901,1767.9895,1767.9897,1769.6381,1217.3,1769.6386,2.0,1770.6368,7.0,18.0,228.0,3.0,1.0,1.4,0.3,Time
,,S17,624708,1,male,28,anonymized,Serial_Dependence_U,2023.2.3,Win32,60.60606061,,,,,,,,,,,,1770.6392,7.0,1770.6409,,,,1773.3844,1773.8838,1772.8701,1773.3843,1771.6576,315.0,1772.8699,1773.8839,1774.3835,1774.3839,1776.2818,1312.5,1776.2822,4.0,1777.2804,7.0,19.0,229.0,12.0,1.0,1.2,0.3,Time
,,S17,624708,1,male,28,anonymized,Serial_Dependence_U,2023.2.3,Win32,60.60606061,,,,,,,,,,,,1777.2831,7.0,1777.2849,,,,1780.2172,1780.7104,1779.6989,1780.2169,1778.2845,221.0,1779.6985,1780.7107,1781.2098,1781.2102,1782.9972,1265.2,1782.9977,2.0,1783.9904,7.0,20.0,230.0,8.0,1.0,1.4,0.7,Time
,,S17,624708,1,male,28,anonymized,Serial_Dependence_U,2023.2.3,Win32,60.60606061,,,,,,,,,,,,1783.9932,7.0,1783.9949,,,,1786.3236,1786.8206,1785.809,1786.3235,1784.9951,6.0,1785.8087,1786.8207,1787.3205,1787.3209,1789.1737,1248.8,1789.1741,5.0,1790.1679,7.0,21.0,231.0,0.0,1.0,0.8,0.3,Time
,,S17,624708,1,male,28,anonymized,Serial_Dependence_U,2023.2.3,Win32,60.60606061,,,,,,,,,,,,1790.1702,7.0,1790.1721,,,,1792.9169,1793.415,1792.3997,1792.9167,1791.1874,139.0,1792.3995,1793.4151,1793.9141,1793.9144,1795.3806,1031.1,1795.3813,2.0,1796.3784,7.0,22.0,232.0,22.0,1.0,1.2,0.3,Time
,,S17,624708,1,male,28,anonymized,Serial_Dependence_U,2023.2.3,Win32,60.60606061,,,,,,,,,,,,1796.3805,7.0,1796.3825,,,,1798.7145,1799.2093,1798.1977,1798.7142,1797.3826,174.0,1798.1974,1799.2096,1799.7075,1799.7076,1801.2296,1159.4,1801.2302,5.0,1802.2228,7.0,23.0,233.0,5.0,1.0,0.8,0.7,Time
,,S17,624708,1,male,28,anonymized,Serial_Dependence_U,2023.2.3,Win32,60.60606061,,,,,,,,,,,,1802.2251,7.0,1802.227,,,,1805.1706,1805.6693,1804.6577,1805.1705,1803.2424,261.0,1804.6573,1805.6694,1806.1691,1806.1692,1808.8005,1529.5,1808.8008,4.0,1809.7988,7.0,24.0,234.0,28.0,1.0,1.4,0.7,Time
,,S17,624708,1,male,28,anonymized,Serial_Dependence_U,2023.2.3,Win32,60.60606061,,,,,,,,,,,,1809.8012,7.0,1809.8032,,,,1812.3339,1812.8288,1811.8314,1812.3336,1810.8153,57.0,1811.8313,1812.8289,1813.3287,1813.3289,1816.0482,1296.8,1816.0487,4.0,1817.0418,7.0,25.0,235.0,16.0,1.0,1.0,0.7,Time
,,S17,624708,1,male,28,anonymized,Serial_Dependence_U,2023.2.3,Win32,60.60606061,,,,,,,,,,,,1817.0441,7.0,1817.0463,,,,1819.9765,1820.4715,1819.4742,1819.9763,1818.0611,157.0,1819.4739,1820.4717,1820.9716,1820.9719,1822.8871,1275.1,1822.8877,2.0,1823.8848,7.0,26.0,236.0,13.0,1.0,1.4,0.3,Time
,,S17,624708,1,male,28,anonymized,Serial_Dependence_U,2023.2.3,Win32,60.60606061,,,,,,,,,,,,1823.8872,7.0,1823.8895,,,,1827.0209,1827.5145,1826.5167,1827.0207,1824.9049,163.0,1826.5166,1827.5145,1828.0148,1828.015,1829.9487,1178.4,1829.9489,2.0,1830.9449,7.0,27.0,237.0,14.0,1.0,1.6,0.3,Time
,,S17,624708,1,male,28,anonymized,Serial_Dependence_U,2023.2.3,Win32,60.60606061,,,,,,,,,,,,1830.9477,7.0,1830.9497,,,,1834.0956,1834.5909,1833.587,1834.0953,1831.9646,78.0,1833.5868,1834.591,1835.0907,1835.091,1837.2558,1214.5,1837.2563,2.0,1838.254,7.0,28.0,238.0,9.0,1.0,1.6,0.7,Time
,,S17,624708,1,male,28,anonymized,Serial_Dependence_U,2023.2.3,Win32,60.60606061,,,,,,,,,,,,1838.2562,7.0,1838.2577,,,,1840.9904,1841.4845,1840.4747,1840.9901,1839.2715,277.0,1840.4744,1841.4845,1841.9831,1841.9833,1844.1377,1662.7,1844.1384,5.0,1845.1306,7.0,29.0,239.0,7.0,1.0,1.2,0.7,Time
,,S17,624708,1,male,28,anonymized,Serial_Dependence_U,2023.2.3,Win32,60.60606061,,,,,,,,,,,,1845.1338,8.0,1848.0627,s,2.9005,,1850.6128,1851.108,1850.0962,1850.6124,1849.0819,344.0,1850.0958,1851.1081,1851.6076,1851.6079,1854.9054,674.2,1854.9061,1.0,1855.9036,8.0,0.0,240.0,11.0,1.0,1.0,0.3,Time
,,S17,624708,1,male,28,anonymized,Serial_Dependence_U,2023.2.3,Win32,60.60606061,,,,,,,,,,,,1855.9047,8.0,1855.9105,,,,1858.4525,1858.9506,1857.936,1858.4523,1856.9194,194.0,1857.9358,1858.9507,1859.4501,1859.4504,1861.919,1112.7,1861.9196,4.0,1862.9131,8.0,1.0,241.0,21.0,1.0,1.0,0.3,Time
,,S17,624708,1,male,28,anonymized,Serial_Dependence_U,2023.2.3,Win32,60.60606061,,,,,,,,,,,,1862.9153,8.0,1862.9167,,,,1865.6646,1866.1596,1865.1465,1865.6643,1863.9301,189.0,1865.1462,1866.1596,1866.6597,1866.6601,1868.5924,1385.3,1868.5931,4.0,1869.5901,8.0,2.0,242.0,27.0,1.0,1.2,0.7,Time
,,S17,624708,1,male,28,anonymized,Serial_Dependence_U,2023.2.3,Win32,60.60606061,,,,,,,,,,,,1869.5916,8.0,1869.5929,,,,1871.9392,1872.4366,1871.4218,1871.9391,1870.6072,138.0,1871.4216,1872.4366,1872.9371,1872.9375,1876.1021,881.8,1876.1026,4.0,1877.0996,8.0,3.0,243.0,25.0,1.0,0.8,0.7,Time
,,S17,624708,1,male,28,anonymized,Serial_Dependence_U,2023.2.3,Win32,60.60606061,,,,,,,,,,,,1877.1007,8.0,1877.1015,,,,1879.6486,1880.1462,1879.1321,1879.6485,1878.1165,344.0,1879.132,1880.1464,1880.6459,1880.6462,1882.6787,1289.1,1882.679,4.0,1883.6765,8.0,4.0,244.0,1.0,1.0,1.0,0.3,Time
,,S17,624708,1,male,28,anonymized,Serial_Dependence_U,2023.2.3,Win32,60.60606061,,,,,,,,,,,,1883.6781,8.0,1883.6793,,,,1886.8243,1887.3229,1886.3094,1886.8242,1884.6944,50.0,1886.3091,1887.323,1887.8224,1887.8228,1889.5723,1258.5,1889.5725,2.0,1890.5697,8.0,5.0,245.0,14.0,1.0,1.6,0.3,Time
,,S17,624708,1,male,28,anonymized,Serial_Dependence_U,2023.2.3,Win32,60.60606061,,,,,,,,,,,,1890.5719,8.0,1890.5739,,,,1893.7179,1894.2162,1893.2022,1893.7178,1891.5872,330.0,1893.202,1894.2164,1894.7156,1894.716,1896.5151,1314.5,1896.5155,2.0,1897.5119,8.0,6.0,246.0,4.0,1.0,1.6,0.3,Time
,,S17,624708,1,male,28,anonymized,Serial_Dependence_U,2023.2.3,Win32,60.60606061,,,,,,,,,,,,1897.5123,8.0,1897.5127,,,,1900.0629,1900.5602,1899.5459,1900.0626,1898.5293,228.0,1899.5457,1900.5602,1901.0594,1901.0597,1904.257,1379.6,1904.2575,5.0,1905.2552,8.0,7.0,247.0,16.0,1.0,1.0,0.7,Time
,,S17,624708,1,male,28,anonymized,Serial_Dependence_U,2023.2.3,Win32,60.60606061,,,,,,,,,,,,1905.2563,8.0,1905.2569,,,,1907.6043,1908.1025,1907.0883,1907.6041,1906.2724,193.0,1907.0882,1908.1026,1908.6017,1908.602,1910.2011,1180.4,1910.2016,5.0,1911.1992,8.0,8.0,248.0,20.0,1.0,0.8,0.3,Time
,,S17,624708,1,male,28,anonymized,Serial_Dependence_U,2023.2.3,Win32,60.60606061,,,,,,,,,,,,1911.2013,8.0,1911.2029,,,,1914.1351,1914.6299,1913.6196,1914.1349,1912.2033,141.0,1913.6193,1914.63,1915.1301,1915.1302,1916.495,825.3,1916.4957,1.0,1917.4939,8.0,9.0,249.0,3.0,1.0,1.4,0.3,Time
,,S17,624708,1,male,28,anonymized,Serial_Dependence_U,2023.2.3,Win32,60.60606061,,,,,,,,,,,,1917.4961,8.0,1917.4978,,,,1919.8456,1920.3406,1919.3284,1919.8452,1918.5097,321.0,1919.328,1920.3408,1920.8398,1920.8402,1922.261,816.3,1922.2614,3.0,1923.2544,8.0,10.0,250.0,15.0,1.0,0.8,0.7,Time
,,S17,624708,1,male,28,anonymized,Serial_Dependence_U,2023.2.3,Win32,60.60606061,,,,,,,,,,,,1923.257,8.0,1923.2581,,,,1925.5896,1926.0845,1925.0738,1925.5893,1924.2715,335.0,1925.0734,1926.0846,1926.5841,1926.5845,1927.9721,914.8,1927.9726,4.0,1928.9647,8.0,11.0,251.0,5.0,1.0,0.8,0.7,Time
,,S17,624708,1,male,28,anonymized,Serial_Dependence_U,2023.2.3,Win32,60.60606061,,,,,,,,,,,,1928.9661,8.0,1928.9671,,,,1931.7147,1932.2125,1931.1976,1931.7146,1929.982,301.0,1931.1975,1932.2126,1932.712,1932.7124,1934.2617,1047.8,1934.2624,2.0,1935.2596,8.0,12.0,252.0,17.0,1.0,1.2,0.7,Time
,,S17,624708,1,male,28,anonymized,Serial_Dependence_U,2023.2.3,Win32,60.60606061,,,,,,,,,,,,1935.2631,8.0,1935.264,,,,1938.4084,1938.9063,1937.8915,1938.4081,1936.2774,86.0,1937.8913,1938.9064,1939.4066,1939.4068,1942.4035,994.0,1942.4039,1.0,1943.4015,8.0,13.0,253.0,19.0,1.0,1.6,0.7,Time
,,S17,624708,1,male,28,anonymized,Serial_Dependence_U,2023.2.3,Win32,60.60606061,,,,,,,,,,,,1943.4034,8.0,1943.4045,,,,1946.5357,1947.0315,1946.0194,1946.5354,1944.4064,5.0,1946.0191,1947.0318,1947.5334,1947.5338,1948.9148,938.2,1948.916,1.0,1949.9117,8.0,14.0,254.0,9.0,1.0,1.6,0.7,Time
,,S17,624708,1,male,28,anonymized,Serial_Dependence_U,2023.2.3,Win32,60.60606061,,,,,,,,,,,,1949.9146,8.0,1949.9167,,,,1952.4468,1952.9421,1951.9306,1952.4466,1950.9155,180.0,1951.9302,1952.9425,1953.442,1953.4422,1955.6138,752.6,1955.6143,2.0,1956.6049,8.0,15.0,255.0,26.0,1.0,1.0,0.7,Time
,,S17,624708,1,male,28,anonymized,Serial_Dependence_U,2023.2.3,Win32,60.60606061,,,,,,,,,,,,1956.6075,8.0,1956.6091,,,,1959.339,1959.835,1958.8374,1959.3388,1957.6246,101.0,1958.8373,1959.8351,1960.3345,1960.3349,1961.5731,799.2,1961.5735,1.0,1962.566,8.0,16.0,256.0,7.0,1.0,1.2,0.7,Time
,,S17,624708,1,male,28,anonymized,Serial_Dependence_U,2023.2.3,Win32,60.60606061,,,,,,,,,,,,1962.5681,8.0,1962.569,,,,1965.5158,1966.0122,1964.9988,1965.5155,1963.584,191.0,1964.9986,1966.0122,1966.5118,1966.512,1968.1099,1120.0,1968.1101,2.0,1969.1092,8.0,17.0,257.0,8.0,1.0,1.4,0.7,Time
,,S17,624708,1,male,28,anonymized,Serial_Dependence_U,2023.2.3,Win32,60.60606061,,,,,,,,,,,,1969.1109,8.0,1969.1118,,,,1972.0421,1972.5393,1971.528,1972.0419,1970.1139,283.0,1971.5279,1972.5397,1973.0388,1973.0389,1974.9431,1050.6,1974.9438,2.0,1975.9361,8.0,18.0,258.0,23.0,1.0,1.4,0.3,Time
,,S17,624708,1,male,28,anonymized,Serial_Dependence_U,2023.2.3,Win32,60.60606061,,,,,,,,,,,,1975.9391,8.0,1975.9404,,,,1979.0871,1979.5822,1978.5707,1979.0868,1976.9568,20.0,1978.5704,1979.5823,1980.0818,1980.0822,1981.0547,302.3,1981.055,1.0,1982.0469,8.0,19.0,259.0,24.0,1.0,1.6,0.3,Time
,,S17,624708,1,male,28,anonymized,Serial_Dependence_U,2023.2.3,Win32,60.60606061,,,,,,,,,,,,1982.0497,8.0,1982.0511,,,,1984.9996,1985.4933,1984.4815,1984.9994,1983.0666,186.0,1984.4812,1985.4935,1985.9926,1985.9929,1987.6248,1208.3,1987.6252,2.0,1988.6237,8.0,20.0,260.0,13.0,1.0,1.4,0.3,Time
,,S17,624708,1,male,28,anonymized,Serial_Dependence_U,2023.2.3,Win32,60.60606061,,,,,,,,,,,,1988.6262,8.0,1988.6279,,,,1991.575,1992.0704,1991.059,1991.5747,1989.6435,156.0,1991.0586,1992.0707,1992.5702,1992.5705,1993.5758,571.4,1993.5764,1.0,1994.5694,8.0,21.0,261.0,28.0,1.0,1.4,0.7,Time
,,S17,624708,1,male,28,anonymized,Serial_Dependence_U,2023.2.3,Win32,60.60606061,,,,,,,,,,,,1994.5718,8.0,1994.5725,,,,1996.9043,1997.3994,1996.3881,1996.9039,1995.5733,259.0,1996.3878,1997.3995,1997.8989,1997.8991,2000.3455,766.2,2000.3459,3.0,2001.3447,8.0,22.0,262.0,10.0,1.0,0.8,0.3,Time
,,S17,624708,1,male,28,anonymized,Serial_Dependence_U,2023.2.3,Win32,60.60606061,,,,,,,,,,,,2001.3475,8.0,2001.3487,,,,2004.4968,2004.9909,2003.9787,2004.4966,2002.364,26.0,2003.9783,2004.991,2005.4906,2005.4908,2007.3414,1387.2,2007.3416,2.0,2008.3375,8.0,23.0,263.0,29.0,1.0,1.6,0.7,Time
,,S17,624708,1,male,28,anonymized,Serial_Dependence_U,2023.2.3,Win32,60.60606061,,,,,,,,,,,,2008.3398,8.0,2008.3416,,,,2011.2887,2011.7844,2010.7729,2011.2883,2009.3548,297.0,2010.7726,2011.7846,2012.2827,2012.2828,2013.5163,881.5,2013.5167,1.0,2014.5151,8.0,24.0,264.0,18.0,1.0,1.4,0.7,Time
,,S17,624708,1,male,28,anonymized,Serial_Dependence_U,2023.2.3,Win32,60.60606061,,,,,,,,,,,,2014.5176,8.0,2014.5193,,,,2016.8681,2017.362,2016.3483,2016.8676,2015.5358,303.0,2016.3481,2017.3621,2017.8617,2017.8622,2019.4629,1147.5,2019.4633,5.0,2020.4593,8.0,25.0,265.0,0.0,1.0,0.8,0.3,Time
,,S17,624708,1,male,28,anonymized,Serial_Dependence_U,2023.2.3,Win32,60.60606061,,,,,,,,,,,,2020.4617,8.0,2020.4637,,,,2023.1949,2023.689,2022.6926,2023.1947,2021.4786,77.0,2022.6923,2023.689,2024.1886,2024.1887,2025.8056,1236.0,2025.806,3.0,2026.803,8.0,26.0,266.0,22.0,1.0,1.2,0.3,Time
,,S17,624708,1,male,28,anonymized,Serial_Dependence_U,2023.2.3,Win32,60.60606061,,,,,,,,,,,,2026.8053,8.0,2026.8071,,,,2029.5377,2030.034,2029.0232,2029.5375,2027.8097,150.0,2029.0227,2030.0342,2030.5346,2030.5348,2032.2507,1166.0,2032.2511,3.0,2033.248,8.0,27.0,267.0,12.0,1.0,1.2,0.3,Time
,,S17,624708,1,male,28,anonymized,Serial_Dependence_U,2023.2.3,Win32,60.60606061,,,,,,,,,,,,2033.2506,8.0,2033.252,,,,2035.7978,2036.2935,2035.2837,2035.7976,2034.2679,105.0,2035.2833,2036.2937,2036.7931,2036.7935,2038.9655,1388.9,2038.9659,5.0,2039.9559,8.0,28.0,268.0,6.0,1.0,1.0,0.7,Time
,,S17,624708,1,male,28,anonymized,Serial_Dependence_U,2023.2.3,Win32,60.60606061,,,,,,,,,,,,2039.9568,8.0,2039.9576,,,,2042.7061,2043.2033,2042.191,2042.7059,2040.9739,336.0,2042.1907,2043.2034,2043.703,2043.7031,2045.4187,1398.3,2045.4193,4.0,2046.417,8.0,29.0,269.0,2.0,1.0,1.2,0.3,Time
