Scale_setup.started,Scale_setup.stopped,participant,session,sex,age,date,expName,psychopyVersion,OS,frameRate,Intro.started,Intro.stopped,key_resp_2.keys,key_resp_2.rt,key_resp_2.duration,block.started,direction,Block_id,block.stopped,trial_direction,Block_resp_2.keys,Block_resp_2.rt,Block_resp_2.duration,ITI.started,ITI.stopped,Mask_2.started,Mask_2.stopped,encoding.started,encoding.stopped,Cue.started,Cue.stopped,Response.started,Response.stopped,keyDuration,Feedback_Time.started,FeedbackID_T,Feedback_Time.stopped,trials.thisRepN,trials.thisTrialN,trials.thisN,trials.thisIndex,trials.ran,TimeDur,Coherence1,TrialType
0.0001999998092614,0.0003999998569454,S17,1,female,24,anonymized,Serial_Dependence_U,2023.2.3,Win32,59.88023952096852,,,,,,,,,,,,,,,,,,,,,,,,,,,,,,,,,,,
,,S17,1,female,24,anonymized,Serial_Dependence_U,2023.2.3,Win32,59.88023952096852,160.8947999999523,313.9347999999523,space,152.98629999995234,,,,,,,,,,,,,,,,,,,,,,,,,,,,,,,
,,S17,1,female,24,anonymized,Serial_Dependence_U,2023.2.3,Win32,59.88023952096852,,,,,,313.9602999999523,355.0,0.0,327.6825,355.0,s,13.68950000000001,,331.47359999990465,331.9715,330.958,331.4732999999523,328.68909999990467,330.957899999857,331.971899999857,332.4638999998569,332.46439999985694,336.48879999995233,98.0,336.4895,1.0,337.479399999857,0.0,0.0,0.0,2.0,1.0,1.2,0.3,Time
,,S17,1,female,24,anonymized,Serial_Dependence_U,2023.2.3,Win32,59.88023952096852,,,,,,337.48139999985693,297.0,0.0,337.48579999995235,297.0,,,,340.879,341.37829999995233,340.3627999999523,340.87869999980927,338.4956999998093,340.36259999990466,341.37850000000003,341.87789999985694,341.87809999990463,343.67939999985697,103.0,343.6795,1.0,344.6772999999523,0.0,1.0,1.0,0.0,1.0,0.8,0.3,Time
,,S17,1,female,24,anonymized,Serial_Dependence_U,2023.2.3,Win32,59.88023952096852,,,,,,344.67839999985694,243.0,0.0,344.6786999998093,243.0,,,,348.22789999985696,348.7265,347.71319999980926,348.2277999999523,345.6785,347.713,348.72659999990464,349.2257999999523,349.226,374.7717999999524,155.0,374.772,1.0,375.7715,0.0,2.0,2.0,16.0,1.0,1.0,0.7,Time
,,S17,1,female,24,anonymized,Serial_Dependence_U,2023.2.3,Win32,59.88023952096852,,,,,,375.773,92.0,0.0,375.77369999980925,92.0,,,,379.3731999998093,379.870899999857,378.8557999999524,379.37289999985694,376.7882999999523,378.8555,379.871,380.3701999998093,380.37039999985694,383.2042999999524,1937.0,383.20439999985695,5.0,384.20279999995233,0.0,3.0,3.0,11.0,1.0,1.0,0.3,Time
,,S17,1,female,24,anonymized,Serial_Dependence_U,2023.2.3,Win32,59.88023952096852,,,,,,384.20389999985696,314.0,0.0,384.2042999999524,314.0,,,,387.60289999985696,388.102,387.0875999999046,387.60269999980926,385.2215,387.087399999857,388.1020999999046,388.6020999999046,388.60239999985697,393.0021999998093,4147.0,393.00239999985695,5.0,394.001,0.0,4.0,4.0,10.0,1.0,0.8,0.3,Time
,,S17,1,female,24,anonymized,Serial_Dependence_U,2023.2.3,Win32,59.88023952096852,,,,,,394.0022999999524,166.0,0.0,394.00289999985694,166.0,,,,397.97539999985696,398.46679999995234,397.459,397.97519999980926,395.01139999985696,397.4587999999523,398.4668999998569,398.9665,398.9666999998093,403.6270999999047,3100.0,403.6271999998093,5.0,404.6161999998093,0.0,5.0,5.0,18.0,1.0,1.4,0.7,Time
,,S17,1,female,24,anonymized,Serial_Dependence_U,2023.2.3,Win32,59.88023952096852,,,,,,404.61809999990464,10.0,0.0,404.619,10.0,,,,408.8275,409.3165999999047,408.309,408.8271999998093,405.6432999999523,408.3086999998093,409.3167999999523,409.8212999999523,409.8215,417.3641999998093,7415.0,417.3642999999523,5.0,418.36789999985695,0.0,6.0,6.0,24.0,1.0,1.6,0.3,Time
,,S17,1,female,24,anonymized,Serial_Dependence_U,2023.2.3,Win32,59.88023952096852,,,,,,418.369,14.0,0.0,418.3695999999047,14.0,,,,422.522,423.0132999999523,422.0053999998569,422.52189999985694,419.37289999985694,422.0051999998093,423.0135,423.5115999999047,423.5117999999523,429.2871999998093,5532.0,429.287399999857,5.0,430.2835,0.0,7.0,7.0,19.0,1.0,1.6,0.7,Time
,,S17,1,female,24,anonymized,Serial_Dependence_U,2023.2.3,Win32,59.88023952096852,,,,,,430.284399999857,251.0,0.0,430.285,251.0,,,,433.8726999998093,434.38239999985694,433.3706999998093,433.8725999999047,431.3047999999523,433.3705,434.38239999985694,434.876,434.8761999998093,441.5866999998093,5984.0,441.58689999985694,5.0,442.5755999999046,0.0,8.0,8.0,1.0,1.0,1.0,0.3,Time
,,S17,1,female,24,anonymized,Serial_Dependence_U,2023.2.3,Win32,59.88023952096852,,,,,,442.5765999999047,271.0,0.0,442.577,271.0,,,,446.757899999857,447.25689999985696,446.24329999995234,446.75779999995234,443.59429999995234,446.24309999990464,447.257,447.75779999995234,447.75809999990463,456.724,7636.0,456.7241999998093,5.0,457.7226999998093,0.0,9.0,9.0,29.0,1.0,1.6,0.7,Time
,,S17,1,female,24,anonymized,Serial_Dependence_U,2023.2.3,Win32,59.88023952096852,,,,,,457.7235999999046,19.0,0.0,457.724,19.0,,,,461.1235999999047,461.6227999999523,460.6056999998093,461.123399999857,458.7395999999047,460.60550000000006,461.622899999857,462.1225999999046,462.1226999998093,469.7542999999523,5749.0,469.7543999998569,5.0,470.7538999998569,0.0,10.0,10.0,20.0,1.0,0.8,0.3,Time
,,S17,1,female,24,anonymized,Serial_Dependence_U,2023.2.3,Win32,59.88023952096852,,,,,,470.7550999999046,109.0,0.0,470.7552999999523,109.0,,,,474.5367999999522,475.0353999998569,474.02139999985695,474.53659999990464,471.77199999999993,474.02119999980926,475.0355,475.53579999995225,475.536,479.6526999998092,480.0,479.6527999999523,1.0,480.651,0.0,11.0,11.0,7.0,1.0,1.2,0.7,Time
,,S17,1,female,24,anonymized,Serial_Dependence_U,2023.2.3,Win32,59.88023952096852,,,,,,480.65199999999993,146.0,0.0,480.6522999999522,146.0,,,,484.8353999998569,485.33369999980926,484.319,484.8350999999046,481.6525999999046,484.31869999980927,485.33369999980926,485.8333999998569,485.83359999990455,495.71789999985685,8400.0,495.71809999990455,5.0,496.7147999999522,0.0,12.0,12.0,14.0,1.0,1.6,0.3,Time
,,S17,1,female,24,anonymized,Serial_Dependence_U,2023.2.3,Win32,59.88023952096852,,,,,,496.7157999999523,330.0,0.0,496.7160999999046,330.0,,,,500.6811999998092,501.1805,500.16539999985696,500.68109999990463,497.73209999990456,500.16519999980926,501.18059999990464,501.6817999999523,501.6819999999999,512.6140999999046,10020.0,512.6143999998569,5.0,513.6131999998092,0.0,13.0,13.0,8.0,1.0,1.4,0.7,Time
,,S17,1,female,24,anonymized,Serial_Dependence_U,2023.2.3,Win32,59.88023952096852,,,,,,513.6140999999046,130.0,0.0,513.6142999999523,130.0,,,,517.4135,517.9124999999999,516.8967999999522,517.4132999999523,514.6305,516.8966999998092,517.9125999999046,518.4105,518.4106999998093,528.4257999999522,9581.0,528.4258999998569,5.0,529.425399999857,0.0,14.0,14.0,22.0,1.0,1.2,0.3,Time
,,S17,1,female,24,anonymized,Serial_Dependence_U,2023.2.3,Win32,59.88023952096852,,,,,,529.4266999998092,302.0,0.0,529.4271999998092,302.0,,,,533.4095,533.9085999999046,532.8929999999999,533.409,530.4266999998092,532.8927999999522,533.9086999998092,534.4088999998569,534.409,541.6565999999046,6527.0,541.6565999999046,5.0,542.6572999999522,0.0,15.0,15.0,3.0,1.0,1.4,0.3,Time
,,S17,1,female,24,anonymized,Serial_Dependence_U,2023.2.3,Win32,59.88023952096852,,,,,,542.6581999998092,241.0,0.0,542.6583999998569,241.0,,,,546.4246999998093,546.9226999998092,545.9081999998092,546.4245,543.6579999999999,545.9079999999999,546.9228999998569,547.4223999998569,547.4224999999999,558.4540999999045,6013.0,558.4541999998092,5.0,559.4530999999046,0.0,16.0,16.0,17.0,1.0,1.2,0.7,Time
,,S17,1,female,24,anonymized,Serial_Dependence_U,2023.2.3,Win32,59.88023952096852,,,,,,559.454,319.0,0.0,559.4544999999999,319.0,,,,563.2200999999046,563.718899999857,562.7035,563.2198999998569,560.4546999998092,562.7032999999523,563.7189999999999,564.2173999998569,564.2175,619.0247999999523,12901.0,619.0248999998569,5.0,620.0235999999046,0.0,17.0,17.0,27.0,1.0,1.2,0.7,Time
,,S17,1,female,24,anonymized,Serial_Dependence_U,2023.2.3,Win32,59.88023952096852,,,,,,620.0243999998569,270.0,0.0,620.0247999999523,270.0,,,,623.6084999999999,624.1066999998092,623.107,623.6083999998569,621.040899999857,623.1068999998569,624.1066999998092,624.6061999998092,624.6062999999523,627.5390999999046,2896.0,627.5391999998092,5.0,628.5388999998569,0.0,18.0,18.0,21.0,1.0,1.0,0.3,Time
,,S17,1,female,24,anonymized,Serial_Dependence_U,2023.2.3,Win32,59.88023952096852,,,,,,628.5397999999523,69.0,0.0,628.54,69.0,,,,632.0920999999046,632.5899999999999,631.591,632.0918999998569,629.5566999998092,631.5908999998569,632.5899999999999,633.0891999998092,633.0894999999999,634.3546999998092,47.0,634.3547999999523,1.0,635.3549999999999,0.0,19.0,19.0,26.0,1.0,1.0,0.7,Time
,,S17,1,female,24,anonymized,Serial_Dependence_U,2023.2.3,Win32,59.88023952096852,,,,,,635.356,246.0,0.0,635.3561999998092,246.0,,,,639.3549999999999,639.8538999998569,638.8387999999522,639.3547999999523,636.3731999998092,638.8385999999045,639.8539999999999,640.3535999999045,640.3536999998092,650.285,9217.0,650.2850999999046,5.0,651.2846999998093,0.0,20.0,20.0,23.0,1.0,1.4,0.3,Time
,,S17,1,female,24,anonymized,Serial_Dependence_U,2023.2.3,Win32,59.88023952096852,,,,,,651.2853999998568,64.0,0.0,651.2855999999045,64.0,,,,655.2850999999046,655.7838999998569,654.7695,655.2848999998569,652.303,654.7692999999523,655.7840999999046,656.2843999998569,656.2845,663.5659999999999,6086.0,663.5660999999046,5.0,664.5652999999522,0.0,21.0,21.0,13.0,1.0,1.4,0.3,Time
,,S17,1,female,24,anonymized,Serial_Dependence_U,2023.2.3,Win32,59.88023952096852,,,,,,664.5665999999046,24.0,0.0,664.5668999998569,24.0,,,,668.7657999999523,669.2646999998092,668.2489999999999,668.7656999998093,665.5832999999523,668.2487999999523,669.2647999999523,669.7648999998569,669.765,671.5825999999046,247.0,671.5826999998092,1.0,672.5816999998092,0.0,22.0,22.0,4.0,1.0,1.6,0.3,Time
,,S17,1,female,24,anonymized,Serial_Dependence_U,2023.2.3,Win32,59.88023952096852,,,,,,672.5826999998092,287.0,0.0,672.5828999998569,287.0,,,,675.9318999998569,676.4301999998092,675.4147999999523,675.9315999999046,673.5818999998569,675.4145999999046,676.430399999857,676.9310999999046,676.9310999999046,678.1635999999046,317.0,678.1637999999523,1.0,679.1623999998569,0.0,23.0,23.0,25.0,1.0,0.8,0.7,Time
,,S17,1,female,24,anonymized,Serial_Dependence_U,2023.2.3,Win32,59.88023952096852,,,,,,679.1635999999046,246.0,0.0,679.164,246.0,,,,682.9640999999045,683.463,682.4473999998569,682.963899999857,680.180399999857,682.447,683.4630999999046,683.962,683.9625999999046,686.8453999998569,649.0,686.8454999999999,1.0,687.8444999999999,0.0,24.0,24.0,12.0,1.0,1.2,0.3,Time
,,S17,1,female,24,anonymized,Serial_Dependence_U,2023.2.3,Win32,59.88023952096852,,,,,,687.8456999998092,138.0,0.0,687.846,138.0,,,,691.2125999999046,691.7121999998092,690.6959999999999,691.2125,688.8625,690.6957999999523,691.7122999999523,692.2112999999523,692.2113999998569,699.6582999999523,1469.0,699.6583999998569,5.0,700.6581999998092,0.0,25.0,25.0,5.0,1.0,0.8,0.7,Time
,,S17,1,female,24,anonymized,Serial_Dependence_U,2023.2.3,Win32,59.88023952096852,,,,,,700.6593999998569,328.0,0.0,700.6595999999046,328.0,,,,704.0256999998093,704.5243999998569,703.5097999999523,704.0255,701.6764999999999,703.5095999999046,704.5245,705.0242999999523,705.0243999998569,712.5235999999046,6335.0,712.5238999998569,5.0,713.5226999998092,0.0,26.0,26.0,15.0,1.0,0.8,0.7,Time
,,S17,1,female,24,anonymized,Serial_Dependence_U,2023.2.3,Win32,59.88023952096852,,,,,,713.5232999999523,317.0,0.0,713.5234999999999,317.0,,,,717.0737999999523,717.573,716.5569999999999,717.0735999999046,714.5245,716.5568999998569,717.5730999999046,718.0722999999523,718.0723999998569,723.9209999999999,4952.0,723.9210999999046,5.0,724.9210999999046,0.0,27.0,27.0,6.0,1.0,1.0,0.7,Time
,,S17,1,female,24,anonymized,Serial_Dependence_U,2023.2.3,Win32,59.88023952096852,,,,,,724.9225999999046,328.0,0.0,724.9230999999046,328.0,,,,729.0878999998569,729.5860999999046,728.572,729.0876999998093,725.9221999998092,728.5716999998092,729.5861999998092,730.0859999999999,730.0860999999046,732.3700999999046,1166.0,732.3702999999523,2.0,733.3686999998092,0.0,28.0,28.0,9.0,1.0,1.6,0.7,Time
,,S17,1,female,24,anonymized,Serial_Dependence_U,2023.2.3,Win32,59.88023952096852,,,,,,733.3695999999046,151.0,0.0,733.3702999999523,151.0,,,,737.3355999999046,737.8345999999046,736.819399999857,737.3353999998569,734.3860999999046,736.8190999999046,737.8346999998092,738.3352999999523,738.3355999999046,741.8342999999522,2264.0,741.8343999998569,5.0,742.8336999998093,0.0,29.0,29.0,28.0,1.0,1.4,0.7,Time
,,S17,1,female,24,anonymized,Serial_Dependence_U,2023.2.3,Win32,59.88023952096852,,,,,,742.8348999998569,199.0,1.0,843.9325999999046,199.0,s,101.07690000009528,,847.3146999998092,847.8142999999523,846.7976999998092,847.3145999999045,844.9498999998569,846.7974999999999,847.8142999999523,848.3128999998569,848.3128999998569,852.0806999998092,2080.0,852.0808999998569,5.0,852.0950999999046,1.0,0.0,30.0,15.0,1.0,0.8,0.7,Time
,,S17,1,female,24,anonymized,Serial_Dependence_U,2023.2.3,Win32,59.88023952096852,,,,,,852.0958999998569,98.0,1.0,852.0990999999046,98.0,,,,855.6466999998092,856.1452999999523,855.1300999999046,855.6465,853.097,855.1296999998092,856.1453999998569,856.645,856.6450999999046,861.0615999999046,1576.0,861.0617999999523,5.0,861.0759999999999,1.0,1.0,31.0,6.0,1.0,1.0,0.7,Time
,,S17,1,female,24,anonymized,Serial_Dependence_U,2023.2.3,Win32,59.88023952096852,,,,,,861.0768999998569,220.0,1.0,861.0775,220.0,,,,864.8265999999046,865.3266999998092,864.3121999998092,864.8265,862.079,864.312,865.3268999998569,865.8265,865.8268999998569,872.1761999998092,4649.0,872.1762999999522,5.0,872.1913999998569,1.0,2.0,32.0,7.0,1.0,1.2,0.7,Time
,,S17,1,female,24,anonymized,Serial_Dependence_U,2023.2.3,Win32,59.88023952096852,,,,,,872.1922999999523,278.0,1.0,872.1925,278.0,,,,876.160899999857,876.6578999998569,875.659,876.1606999998093,873.1937999999523,875.6587999999523,876.6578999998569,877.1577999999523,877.1578999998569,880.1577999999523,1316.0,880.1578999998569,2.0,880.1717999999523,1.0,3.0,33.0,23.0,1.0,1.4,0.3,Time
,,S17,1,female,24,anonymized,Serial_Dependence_U,2023.2.3,Win32,59.88023952096852,,,,,,880.1726999998092,125.0,1.0,880.1730999999046,125.0,,,,884.1425999999046,884.6395999999046,883.6238999998569,884.1423999998569,881.1757999999522,883.6236999998092,884.6403999998569,885.1405,885.1405999999046,890.3556999998092,4397.0,890.3557999999523,5.0,890.3707999999523,1.0,4.0,34.0,28.0,1.0,1.4,0.7,Time
,,S17,1,female,24,anonymized,Serial_Dependence_U,2023.2.3,Win32,59.88023952096852,,,,,,890.3715,166.0,1.0,890.3717999999523,166.0,,,,893.7722999999522,894.2707999999523,893.2555999999046,893.7720999999046,891.3888999998569,893.2553999998569,894.2708999998569,894.7715,894.7716999998092,902.337,5998.0,902.3370999999046,5.0,902.3530999999044,1.0,5.0,35.0,0.0,1.0,0.8,0.3,Time
,,S17,1,female,24,anonymized,Serial_Dependence_U,2023.2.3,Win32,59.88023952096852,,,,,,902.3537999999522,105.0,1.0,902.354,105.0,,,,906.5365999999046,907.0353999998568,906.0201999998092,906.5363999998568,903.3712999999524,906.0198999998568,907.0355999999044,907.535899999857,907.5360999999044,914.4346999998093,5731.0,914.434899999857,5.0,914.4500999999046,1.0,6.0,36.0,29.0,1.0,1.6,0.7,Time
,,S17,1,female,24,anonymized,Serial_Dependence_U,2023.2.3,Win32,59.88023952096852,,,,,,914.4507999999524,41.0,1.0,914.4510999999046,41.0,,,,918.2177999999524,918.7166999998092,917.701,918.2176999998092,915.4525,917.7007999999524,918.7166999998092,919.2152999999524,919.2153999998568,925.3002999999522,6021.0,925.3005,5.0,925.3132999999524,1.0,7.0,37.0,27.0,1.0,1.2,0.7,Time
,,S17,1,female,24,anonymized,Serial_Dependence_U,2023.2.3,Win32,59.88023952096852,,,,,,925.3140999999046,300.0,1.0,925.314399999857,300.0,,,,929.2658999998569,929.7645999999046,928.7496999998092,929.2656999998092,926.3167999999524,928.7493999998568,929.7645999999046,930.2652999999524,930.2655,937.4466999998092,6381.0,937.4468999998568,5.0,937.4617999999524,1.0,8.0,38.0,8.0,1.0,1.4,0.7,Time
,,S17,1,female,24,anonymized,Serial_Dependence_U,2023.2.3,Win32,59.88023952096852,,,,,,937.4625,210.0,1.0,937.4626999998092,210.0,,,,940.8290999999044,941.33,940.3147999999522,940.828899999857,938.4790999999046,940.3145,941.3300999999046,941.8306999998092,941.8308999998568,948.9608999998568,7115.0,948.961,5.0,948.9745999999046,1.0,9.0,39.0,25.0,1.0,0.8,0.7,Time
,,S17,1,female,24,anonymized,Serial_Dependence_U,2023.2.3,Win32,59.88023952096852,,,,,,948.975,148.0,1.0,948.9751999998092,148.0,,,,953.178,953.676,952.6615,953.1776999998092,949.9943999998568,952.6613999998568,953.6761999998092,954.1765,954.1766999998092,960.0256999998091,4430.0,960.0257999999524,5.0,960.0397999999524,1.0,10.0,40.0,4.0,1.0,1.6,0.3,Time
,,S17,1,female,24,anonymized,Serial_Dependence_U,2023.2.3,Win32,59.88023952096852,,,,,,960.0406999998092,57.0,1.0,960.041,57.0,,,,963.8091999998092,964.3075999999046,963.2922999999524,963.809,961.0446999998092,963.2921999998092,964.3076999998092,964.8075,964.8075999999046,982.1882999999522,236.0,982.1882999999522,1.0,982.205,1.0,11.0,41.0,17.0,1.0,1.2,0.7,Time
,,S17,1,female,24,anonymized,Serial_Dependence_U,2023.2.3,Win32,59.88023952096852,,,,,,982.2055999999046,279.0,1.0,982.2057999999524,279.0,,,,986.2035999999048,986.7027999999522,985.6887999999524,986.203399999857,983.2230999999044,985.6885999999046,986.7027999999522,987.203,987.2030999999046,1001.1512999999524,652.0,1001.1512999999524,1.0,1001.1667999999524,1.0,12.0,42.0,3.0,1.0,1.4,0.3,Time
,,S17,1,female,24,anonymized,Serial_Dependence_U,2023.2.3,Win32,59.88023952096852,,,,,,1001.1675999999046,245.0,1.0,1001.1677999999524,245.0,,,,1005.1677999999524,1005.666,1004.6511999998093,1005.1675999999046,1002.1847999999524,1004.6510999999048,1005.6661999998092,1006.1658999998568,1006.1665,1028.1216999998094,3962.0,1028.1216999998094,5.0,1028.1350999999047,1.0,13.0,43.0,13.0,1.0,1.4,0.3,Time
,,S17,1,female,24,anonymized,Serial_Dependence_U,2023.2.3,Win32,59.88023952096852,,,,,,1028.1355999999048,345.0,1.0,1028.1357999999525,345.0,,,,1032.312,1032.8100000000002,1031.7950999999048,1032.3117999999524,1029.129399999857,1031.794899999857,1032.8100000000002,1033.3107999999525,1033.310899999857,1035.8605,349.0,1035.8606999998094,1.0,1035.872399999857,1.0,14.0,44.0,14.0,1.0,1.6,0.3,Time
,,S17,1,female,24,anonymized,Serial_Dependence_U,2023.2.3,Win32,59.88023952096852,,,,,,1035.8727999999523,141.0,1.0,1035.873,141.0,,,,1040.0270999999047,1040.5265000000002,1039.511,1040.027,1036.876899999857,1039.5107999999525,1040.5265999999046,1041.0255,1041.025599999905,1043.558899999857,333.0,1043.559,1.0,1043.5707999999524,1.0,15.0,45.0,9.0,1.0,1.6,0.7,Time
,,S17,1,female,24,anonymized,Serial_Dependence_U,2023.2.3,Win32,59.88023952096852,,,,,,1043.5712999999523,178.0,1.0,1043.571399999857,178.0,,,,1047.1271999998094,1047.6251999998094,1046.6105,1047.1267999999525,1044.5765,1046.6102999999523,1047.625399999857,1048.1247999999523,1048.1247999999523,1049.8745,80.0,1049.8745999999046,1.0,1049.8885999999047,1.0,16.0,46.0,16.0,1.0,1.0,0.7,Time
,,S17,1,female,24,anonymized,Serial_Dependence_U,2023.2.3,Win32,59.88023952096852,,,,,,1049.8896999998094,179.0,1.0,1049.890599999905,179.0,,,,1054.0908999998571,1054.59,1053.5745999999046,1054.0906999998094,1050.9092999999525,1053.5745000000002,1054.5900999999046,1055.0908999998571,1055.0910999999046,1058.2397999999523,1864.0,1058.239899999857,4.0,1058.2526999998092,1.0,17.0,47.0,24.0,1.0,1.6,0.3,Time
,,S17,1,female,24,anonymized,Serial_Dependence_U,2023.2.3,Win32,59.88023952096852,,,,,,1058.2530999999046,329.0,1.0,1058.253199999809,329.0,,,,1062.0570999999047,1062.5546999998094,1061.540399999857,1062.056899999857,1059.2735999999047,1061.5401999998094,1062.554899999857,1063.0551999998092,1063.055399999857,1064.505,726.0,1064.5051999998093,1.0,1064.517399999857,1.0,18.0,48.0,2.0,1.0,1.2,0.3,Time
,,S17,1,female,24,anonymized,Serial_Dependence_U,2023.2.3,Win32,59.88023952096852,,,,,,1064.517899999857,303.0,1.0,1064.518,303.0,,,,1067.9052999999524,1068.4036999998093,1067.3888999998571,1067.905099999905,1065.5230999999046,1067.3886999998094,1068.403899999857,1068.9036999998093,1068.9036999998093,1070.0211999998094,380.0,1070.0215,1.0,1070.0347999999524,1.0,19.0,49.0,20.0,1.0,0.8,0.3,Time
,,S17,1,female,24,anonymized,Serial_Dependence_U,2023.2.3,Win32,59.88023952096852,,,,,,1070.0352999999525,29.0,1.0,1070.0356999998094,29.0,,,,1073.837,1074.3355999999046,1073.3212999999523,1073.836899999857,1071.054599999905,1073.321199999809,1074.335699999809,1074.8376999998093,1074.8377999999525,1077.8025999999047,1337.0,1077.8026999998094,4.0,1077.815899999857,1.0,20.0,50.0,12.0,1.0,1.2,0.3,Time
,,S17,1,female,24,anonymized,Serial_Dependence_U,2023.2.3,Win32,59.88023952096852,,,,,,1077.8162999999524,290.0,1.0,1077.816399999857,290.0,,,,1081.9861999998093,1082.4860999999048,1081.4697999999523,1081.9857999999524,1078.835699999809,1081.4695999999046,1082.4862999999525,1082.9855,1082.9855,1084.4185,567.0,1084.4187999999524,1.0,1084.4355,1.0,21.0,51.0,19.0,1.0,1.6,0.7,Time
,,S17,1,female,24,anonymized,Serial_Dependence_U,2023.2.3,Win32,59.88023952096852,,,,,,1084.4360999999046,43.0,1.0,1084.4362999999523,43.0,,,,1088.0345,1088.5335,1087.5190999999047,1088.0342999999525,1085.4513999998571,1087.5187999999523,1088.5336999998094,1089.032899999857,1089.032899999857,1090.883899999857,354.0,1090.883899999857,1.0,1090.8966999998092,1.0,22.0,52.0,21.0,1.0,1.0,0.3,Time
,,S17,1,female,24,anonymized,Serial_Dependence_U,2023.2.3,Win32,59.88023952096852,,,,,,1090.8970999999046,297.0,1.0,1090.8971999998091,297.0,,,,1094.6823999998571,1095.1817999999523,1094.1676999998094,1094.6822999999524,1091.9012999999525,1094.1675999999047,1095.1817999999523,1095.681699999809,1095.6817999999523,1098.3315,167.0,1098.3315999999047,1.0,1098.3440999999048,1.0,23.0,53.0,22.0,1.0,1.2,0.3,Time
,,S17,1,female,24,anonymized,Serial_Dependence_U,2023.2.3,Win32,59.88023952096852,,,,,,1098.3445999999046,178.0,1.0,1098.344699999809,178.0,,,,1101.9155,1102.4135999999046,1101.3977999999524,1101.915399999857,1099.3647999999523,1101.3977999999524,1102.4136999998093,1102.9136999998093,1102.913899999857,1105.0641999998093,1117.0,1105.0641999998093,4.0,1105.0772999999524,1.0,24.0,54.0,26.0,1.0,1.0,0.7,Time
,,S17,1,female,24,anonymized,Serial_Dependence_U,2023.2.3,Win32,59.88023952096852,,,,,,1105.0777999999525,305.0,1.0,1105.077899999857,305.0,,,,1108.448599999905,1108.946199999809,1107.931399999857,1108.4485,1106.0972999999524,1107.9312999999524,1108.9462999999523,1109.448,1109.448,1119.2277999999524,4185.0,1119.227899999857,5.0,1119.2416999998093,1.0,25.0,55.0,5.0,1.0,0.8,0.7,Time
,,S17,1,female,24,anonymized,Serial_Dependence_U,2023.2.3,Win32,59.88023952096852,,,,,,1119.2421999998094,167.0,1.0,1119.242399999857,167.0,,,,1122.6285999999047,1123.126899999857,1122.1117999999524,1122.6285,1120.245899999857,1122.1116999998094,1123.1270999999049,1123.6272999999524,1123.6272999999524,1125.061,366.0,1125.0610999999046,1.0,1125.073399999857,1.0,26.0,56.0,10.0,1.0,0.8,0.3,Time
,,S17,1,female,24,anonymized,Serial_Dependence_U,2023.2.3,Win32,59.88023952096852,,,,,,1125.0736999998094,149.0,1.0,1125.073899999857,149.0,,,,1129.0270999999047,1129.525399999857,1128.5107999999525,1129.026899999857,1126.0776999998093,1128.5105999999048,1129.525399999857,1130.025899999857,1130.026,1131.7592999999524,895.0,1131.7596999998093,1.0,1131.7761999998093,1.0,27.0,57.0,18.0,1.0,1.4,0.7,Time
,,S17,1,female,24,anonymized,Serial_Dependence_U,2023.2.3,Win32,59.88023952096852,,,,,,1131.7767999999523,189.0,1.0,1131.7770999999047,189.0,,,,1135.3757999999525,1135.8741999998094,1134.8590000000002,1135.3755999999048,1132.7931999998093,1134.8587999999525,1135.8742999999524,1136.373699999809,1136.3740999999047,1138.093,890.0,1138.0930999999048,2.0,1138.1062999999524,1.0,28.0,58.0,1.0,1.0,1.0,0.3,Time
,,S17,1,female,24,anonymized,Serial_Dependence_U,2023.2.3,Win32,59.88023952096852,,,,,,1138.106899999857,316.0,1.0,1138.1072999999524,316.0,,,,1141.6915999999046,1142.1890999999048,1141.173899999857,1141.691399999857,1139.1087999999525,1141.1736999998093,1142.1891999998093,1142.6895000000002,1142.6895999999049,1143.573399999857,864.0,1143.5735,2.0,1143.5875,1.0,29.0,59.0,11.0,1.0,1.0,0.3,Time
,,S17,1,female,24,anonymized,Serial_Dependence_U,2023.2.3,Win32,59.88023952096852,,,,,,1143.588099999905,301.0,2.0,1147.0191999998094,301.0,s,3.3934000000954256,,1150.5895,1151.088099999905,1150.072399999857,1150.5892999999523,1148.0325999999047,1150.0721999998093,1151.088399999857,1151.587899999857,1151.588099999905,1154.0715999999047,1585.0,1154.0716999998094,5.0,1154.0877999999525,2.0,0.0,60.0,26.0,1.0,1.0,0.7,Time
,,S17,1,female,24,anonymized,Serial_Dependence_U,2023.2.3,Win32,59.88023952096852,,,,,,1154.088399999857,123.0,2.0,1154.0915999999047,123.0,,,,1157.4545999999048,1157.9535,1156.9387999999524,1157.454399999857,1155.1050999999047,1156.938599999905,1157.9535999999048,1158.4522999999524,1158.4525,1159.636899999857,329.0,1159.6370000000002,1.0,1159.650899999857,2.0,1.0,61.0,15.0,1.0,0.8,0.7,Time
,,S17,1,female,24,anonymized,Serial_Dependence_U,2023.2.3,Win32,59.88023952096852,,,,,,1159.6512999999525,169.0,2.0,1159.6516999998094,169.0,,,,1163.4367999999524,1163.9355999999048,1162.9205000000002,1163.4366999998094,1160.6720999999047,1162.920399999857,1163.9355999999048,1164.435899999857,1164.436,1165.8191999998094,509.0,1165.8192999999524,1.0,1165.8342999999525,2.0,2.0,62.0,7.0,1.0,1.2,0.7,Time
,,S17,1,female,24,anonymized,Serial_Dependence_U,2023.2.3,Win32,59.88023952096852,,,,,,1165.8351999998094,168.0,2.0,1165.8355999999046,168.0,,,,1169.2191999998092,1169.716899999857,1168.703399999857,1169.2190999999048,1166.835899999857,1168.7031999998094,1169.717,1170.2176999998094,1170.2177999999524,1172.6355,1606.0,1172.6355999999048,5.0,1172.6471999998091,2.0,3.0,63.0,10.0,1.0,0.8,0.3,Time
,,S17,1,female,24,anonymized,Serial_Dependence_U,2023.2.3,Win32,59.88023952096852,,,,,,1172.647399999857,113.0,2.0,1172.6475,113.0,,,,1176.6340999999047,1177.1327999999523,1176.117399999857,1176.6340999999047,1173.6685999999047,1176.1172999999524,1177.132899999857,1177.6325999999046,1177.6325999999046,1180.533,1446.0,1180.5331999998093,3.0,1180.5477999999523,2.0,4.0,64.0,18.0,1.0,1.4,0.7,Time
,,S17,1,female,24,anonymized,Serial_Dependence_U,2023.2.3,Win32,59.88023952096852,,,,,,1180.5485,89.0,2.0,1180.548899999857,89.0,,,,1184.698899999857,1185.198599999905,1184.1826999998093,1184.698899999857,1181.5502999999524,1184.1825999999046,1185.1987999999524,1185.698,1185.6980999999048,1186.4650999999046,549.0,1186.465199999809,1.0,1186.4785999999046,2.0,5.0,65.0,9.0,1.0,1.6,0.7,Time
,,S17,1,female,24,anonymized,Serial_Dependence_U,2023.2.3,Win32,59.88023952096852,,,,,,1186.479,128.0,2.0,1186.4791999998092,128.0,,,,1190.6325000000002,1191.130899999857,1190.1155,1190.6322999999525,1187.482899999857,1190.1151999998094,1191.131,1191.630399999857,1191.6306999998094,1193.2145,316.0,1193.2145999999047,1.0,1193.232099999905,2.0,6.0,66.0,19.0,1.0,1.6,0.7,Time
,,S17,1,female,24,anonymized,Serial_Dependence_U,2023.2.3,Win32,59.88023952096852,,,,,,1193.2327999999525,171.0,2.0,1193.233399999857,171.0,,,,1197.4133999998571,1197.9115999999046,1196.8975,1197.4131999998094,1194.2312999999524,1196.8972999999523,1197.9116999998091,1198.4115999999046,1198.4117999999523,1200.495899999857,445.0,1200.4960999999048,1.0,1200.5127999999524,2.0,7.0,67.0,24.0,1.0,1.6,0.3,Time
,,S17,1,female,24,anonymized,Serial_Dependence_U,2023.2.3,Win32,59.88023952096852,,,,,,1200.5132999999523,290.0,2.0,1200.5135,290.0,,,,1204.5062999999525,1205.001399999857,1203.9897999999523,1204.5060999999048,1201.521899999857,1203.9895999999046,1205.0015,1205.5021999998094,1205.5022999999524,1206.555,250.0,1206.5552999999525,1.0,1206.5700000000002,2.0,8.0,68.0,3.0,1.0,1.4,0.3,Time
,,S17,1,female,24,anonymized,Serial_Dependence_U,2023.2.3,Win32,59.88023952096852,,,,,,1206.5705999999047,269.0,2.0,1206.5707999999524,269.0,,,,1209.9525,1210.4490999999048,1209.4360999999046,1209.9522999999524,1207.5701999998091,1209.435899999857,1210.4492999999525,1210.950699999809,1210.9507999999523,1212.8155999999046,946.0,1212.815699999809,4.0,1212.825399999857,2.0,9.0,69.0,20.0,1.0,0.8,0.3,Time
,,S17,1,female,24,anonymized,Serial_Dependence_U,2023.2.3,Win32,59.88023952096852,,,,,,1212.825899999857,57.0,2.0,1212.826,57.0,,,,1216.4181999998093,1216.9081999998093,1215.9015999999046,1216.418,1213.8315999999047,1215.901399999857,1216.9082999999523,1217.4081999998093,1217.408399999857,1218.3177999999525,133.0,1218.3177999999525,1.0,1218.3310999999046,2.0,10.0,70.0,1.0,1.0,1.0,0.3,Time
,,S17,1,female,24,anonymized,Serial_Dependence_U,2023.2.3,Win32,59.88023952096852,,,,,,1218.3315999999047,97.0,2.0,1218.3317999999524,97.0,,,,1221.8817999999524,1222.3730999999048,1221.3672999999524,1221.881599999905,1219.331,1221.367099999905,1222.3730999999048,1222.873899999857,1222.8740999999047,1225.766899999857,185.0,1225.7670999999048,1.0,1225.7826999998094,2.0,11.0,71.0,16.0,1.0,1.0,0.7,Time
,,S17,1,female,24,anonymized,Serial_Dependence_U,2023.2.3,Win32,59.88023952096852,,,,,,1225.7832999999523,68.0,2.0,1225.7835999999047,68.0,,,,1229.973099999905,1230.471899999857,1229.4575999999047,1229.973,1226.791399999857,1229.457399999857,1230.471899999857,1230.9721999998094,1230.9721999998094,1231.922899999857,135.0,1231.923,1.0,1231.9357999999525,2.0,12.0,72.0,14.0,1.0,1.6,0.3,Time
,,S17,1,female,24,anonymized,Serial_Dependence_U,2023.2.3,Win32,59.88023952096852,,,,,,1231.936399999857,276.0,2.0,1231.9365999999047,276.0,,,,1235.7316999998093,1236.2226999998093,1235.214899999857,1235.7315,1232.948399999857,1235.2147999999524,1236.222899999857,1236.7205999999046,1236.7206999998093,1244.8127999999524,6364.0,1244.812899999857,5.0,1244.828099999905,2.0,13.0,73.0,2.0,1.0,1.2,0.3,Time
,,S17,1,female,24,anonymized,Serial_Dependence_U,2023.2.3,Win32,59.88023952096852,,,,,,1244.8285999999048,347.0,2.0,1244.8286999998093,347.0,,,,1248.8032999999523,1249.3026999998094,1248.2865000000002,1248.803,1245.822899999857,1248.286399999857,1249.3026999998094,1249.802,1249.8020999999046,1259.484199999809,9299.0,1259.4842999999523,5.0,1259.5005999999048,2.0,14.0,74.0,13.0,1.0,1.4,0.3,Time
,,S17,1,female,24,anonymized,Serial_Dependence_U,2023.2.3,Win32,59.88023952096852,,,,,,1259.5015999999048,273.0,2.0,1259.501899999857,273.0,,,,1262.8505,1263.3491999998091,1262.3345999999046,1262.850399999857,1260.5015999999048,1262.334399999857,1263.3491999998091,1263.849399999857,1263.8495,1265.932,345.0,1265.9320999999047,1.0,1265.9397999999524,2.0,15.0,75.0,5.0,1.0,0.8,0.7,Time
,,S17,1,female,24,anonymized,Serial_Dependence_U,2023.2.3,Win32,59.88023952096852,,,,,,1265.9400999999048,143.0,2.0,1265.9401999998092,143.0,,,,1269.9002999999525,1270.3988999998571,1269.3832999999524,1269.9000999999048,1266.9487999999524,1269.3831999998092,1270.399,1270.8971999998091,1270.897399999857,1273.515399999857,749.0,1273.5155,1.0,1273.5315999999048,2.0,16.0,76.0,8.0,1.0,1.4,0.7,Time
,,S17,1,female,24,anonymized,Serial_Dependence_U,2023.2.3,Win32,59.88023952096852,,,,,,1273.5325,250.0,2.0,1273.5327999999524,250.0,,,,1276.9315,1277.4297999999524,1276.4147999999525,1276.9310999999047,1274.5492999999524,1276.4145999999048,1277.429899999857,1277.9310999999047,1277.9311999998092,1279.0145999999047,265.0,1279.0146999998094,1.0,1279.0312999999524,2.0,17.0,77.0,0.0,1.0,0.8,0.3,Time
,,S17,1,female,24,anonymized,Serial_Dependence_U,2023.2.3,Win32,59.88023952096852,,,,,,1279.0320999999046,227.0,2.0,1279.0322999999523,227.0,,,,1282.6302999999525,1283.128399999857,1282.114,1282.6302999999525,1280.047899999857,1282.1137999999523,1283.1285,1283.631,1283.6310999999048,1284.7295999999046,320.0,1284.7297999999523,1.0,1284.7426999998092,2.0,18.0,78.0,11.0,1.0,1.0,0.3,Time
,,S17,1,female,24,anonymized,Serial_Dependence_U,2023.2.3,Win32,59.88023952096852,,,,,,1284.7430000000002,176.0,2.0,1284.7430999999046,176.0,,,,1288.329399999857,1288.8277999999525,1287.813,1288.3290999999049,1285.747,1287.8127999999524,1288.827899999857,1289.328399999857,1289.328399999857,1295.2437999999524,3383.0,1295.243899999857,5.0,1295.260899999857,2.0,19.0,79.0,21.0,1.0,1.0,0.3,Time
,,S17,1,female,24,anonymized,Serial_Dependence_U,2023.2.3,Win32,59.88023952096852,,,,,,1295.2615999999048,137.0,2.0,1295.261899999857,137.0,,,,1299.0595,1299.5605999999048,1298.5440999999048,1299.0592999999524,1296.2775,1298.543899999857,1299.560899999857,1300.0591999998094,1300.0595,1301.6420999999048,1068.0,1301.6420999999048,2.0,1301.6555,2.0,20.0,80.0,12.0,1.0,1.2,0.3,Time
,,S17,1,female,24,anonymized,Serial_Dependence_U,2023.2.3,Win32,59.88023952096852,,,,,,1301.655899999857,264.0,2.0,1301.6560999999049,264.0,,,,1305.2261999998093,1305.724399999857,1304.709899999857,1305.2258999998571,1302.6765,1304.7095000000002,1305.724399999857,1306.2246999998094,1306.2250999999046,1312.556899999857,4580.0,1312.5570999999047,5.0,1312.5767999999523,2.0,21.0,81.0,6.0,1.0,1.0,0.7,Time
,,S17,1,female,24,anonymized,Serial_Dependence_U,2023.2.3,Win32,59.88023952096852,,,,,,1312.5775999999048,141.0,2.0,1312.5777999999525,141.0,,,,1316.341399999857,1316.8385999999048,1315.824,1316.3410999999046,1313.590199999809,1315.8237999999524,1316.8385999999048,1317.3405,1317.3405999999047,1318.6556999998093,453.0,1318.655899999857,1.0,1318.6686999998094,2.0,22.0,82.0,27.0,1.0,1.2,0.7,Time
,,S17,1,female,24,anonymized,Serial_Dependence_U,2023.2.3,Win32,59.88023952096852,,,,,,1318.6691999998093,229.0,2.0,1318.669399999857,229.0,,,,1322.4726999998093,1322.9722999999524,1321.9562999999523,1322.4725999999048,1319.6896999998094,1321.956,1322.972399999857,1323.472899999857,1323.4732999999524,1324.9046999998093,667.0,1324.9047999999525,1.0,1324.918399999857,2.0,23.0,83.0,22.0,1.0,1.2,0.3,Time
,,S17,1,female,24,anonymized,Serial_Dependence_U,2023.2.3,Win32,59.88023952096852,,,,,,1324.918899999857,100.0,2.0,1324.9191999998093,100.0,,,,1328.8726999998094,1329.371399999857,1328.3555,1328.8725999999049,1325.923,1328.3552999999524,1329.3715,1329.8706999998094,1329.8707999999524,1331.187899999857,498.0,1331.188,1.0,1331.2025999999048,2.0,24.0,84.0,28.0,1.0,1.4,0.7,Time
,,S17,1,female,24,anonymized,Serial_Dependence_U,2023.2.3,Win32,59.88023952096852,,,,,,1331.2032999999524,271.0,2.0,1331.2035,271.0,,,,1334.9555,1335.4517999999523,1334.437399999857,1334.955199999809,1332.2040000000002,1334.4371999998093,1335.451899999857,1335.9520999999047,1335.9520999999047,1337.5021999998094,682.0,1337.502399999857,1.0,1337.5171999998092,2.0,25.0,85.0,17.0,1.0,1.2,0.7,Time
,,S17,1,female,24,anonymized,Serial_Dependence_U,2023.2.3,Win32,59.88023952096852,,,,,,1337.5177999999523,247.0,2.0,1337.5182999999524,247.0,,,,1340.885899999857,1341.3845999999046,1340.368399999857,1340.8857999999525,1338.5355,1340.3681999998091,1341.3845999999046,1341.8842999999524,1341.8845,1345.4505999999046,437.0,1345.450699999809,1.0,1345.4667999999524,2.0,26.0,86.0,25.0,1.0,0.8,0.7,Time
,,S17,1,female,24,anonymized,Serial_Dependence_U,2023.2.3,Win32,59.88023952096852,,,,,,1345.467599999905,251.0,2.0,1345.467899999857,251.0,,,,1349.6347999999523,1350.1317999999524,1349.1180000000002,1349.6345999999046,1346.4847999999524,1349.1177999999525,1350.1320999999048,1350.631599999905,1350.631899999857,1352.0165000000002,1165.0,1352.0165999999049,2.0,1352.0327999999524,2.0,27.0,87.0,29.0,1.0,1.6,0.7,Time
,,S17,1,female,24,anonymized,Serial_Dependence_U,2023.2.3,Win32,59.88023952096852,,,,,,1352.0335,143.0,2.0,1352.0336999998094,143.0,,,,1356.016399999857,1356.515399999857,1355.499,1356.0161999998093,1353.0341999998093,1355.499,1356.515399999857,1357.0145,1357.0145999999047,1363.896899999857,6298.0,1363.896899999857,5.0,1363.9106999998094,2.0,28.0,88.0,23.0,1.0,1.4,0.3,Time
,,S17,1,female,24,anonymized,Serial_Dependence_U,2023.2.3,Win32,59.88023952096852,,,,,,1363.9111999998092,149.0,2.0,1363.911399999857,149.0,,,,1368.1137999999523,1368.6122999999525,1367.5971999998094,1368.1135999999046,1364.9311999998092,1367.597,1368.6125000000002,1369.1127999999524,1369.1127999999524,1370.6286999998094,732.0,1370.6287999999524,1.0,1370.6441999998094,2.0,29.0,89.0,4.0,1.0,1.6,0.3,Time
,,S17,1,female,24,anonymized,Serial_Dependence_U,2023.2.3,Win32,59.88023952096852,,,,,,1370.6450999999047,171.0,3.0,1483.519899999857,171.0,s,112.84329999995224,,1487.1171999998094,1487.6055,1486.5992999999523,1487.117,1484.5342999999525,1486.5990999999046,1487.6055,1488.111,1488.1110999999048,1490.465,1815.0,1490.465199999809,5.0,1490.4780999999048,3.0,0.0,90.0,1.0,1.0,1.0,0.3,Time
,,S17,1,female,24,anonymized,Serial_Dependence_U,2023.2.3,Win32,59.88023952096852,,,,,,1490.4785000000002,148.0,3.0,1490.4800999999047,148.0,,,,1493.8540999999047,1494.354,1493.3455,1493.8540999999047,1491.4795999999046,1493.345399999857,1494.354,1494.8536999998094,1494.8536999998094,1496.3215999999047,387.0,1496.3217999999524,1.0,1496.335399999857,3.0,1.0,91.0,20.0,1.0,0.8,0.3,Time
,,S17,1,female,24,anonymized,Serial_Dependence_U,2023.2.3,Win32,59.88023952096852,,,,,,1496.3357999999523,131.0,3.0,1496.335899999857,131.0,,,,1500.2965000000002,1500.7865000000002,1499.7807999999525,1500.2962999999525,1497.3475,1499.7805999999048,1500.7866999998091,1501.2926999998094,1501.2926999998094,1503.2303999998571,265.0,1503.2305,1.0,1503.245399999857,3.0,2.0,92.0,18.0,1.0,1.4,0.7,Time
,,S17,1,female,24,anonymized,Serial_Dependence_U,2023.2.3,Win32,59.88023952096852,,,,,,1503.246,5.0,3.0,1503.246,5.0,,,,1506.5807999999524,1507.0767999999523,1506.070899999857,1506.5805999999047,1504.2371999998093,1506.0706999998092,1507.076899999857,1507.5757999999523,1507.576,1508.5450999999048,318.0,1508.5451999998093,1.0,1508.5595999999048,3.0,3.0,93.0,25.0,1.0,0.8,0.7,Time
,,S17,1,female,24,anonymized,Serial_Dependence_U,2023.2.3,Win32,59.88023952096852,,,,,,1508.5601999998094,136.0,3.0,1508.5602999999523,136.0,,,,1512.717899999857,1513.2177999999524,1512.2025999999048,1512.7177999999524,1509.5536999998094,1512.202399999857,1513.2177999999524,1513.717399999857,1513.7175,1517.184399999857,2400.0,1517.1845,5.0,1517.198399999857,3.0,4.0,94.0,29.0,1.0,1.6,0.7,Time
,,S17,1,female,24,anonymized,Serial_Dependence_U,2023.2.3,Win32,59.88023952096852,,,,,,1517.198899999857,234.0,3.0,1517.199899999857,234.0,,,,1520.7835,1521.2826999998094,1520.266899999857,1520.783399999857,1518.2035,1520.2666999998094,1521.2827999999524,1521.7827999999524,1521.782899999857,1529.3656999998093,7566.0,1529.365899999857,5.0,1529.3806999998094,3.0,5.0,95.0,11.0,1.0,1.0,0.3,Time
,,S17,1,female,24,anonymized,Serial_Dependence_U,2023.2.3,Win32,59.88023952096852,,,,,,1529.3812999999525,139.0,3.0,1529.381599999905,139.0,,,,1532.9472999999523,1533.4472999999523,1532.4315999999046,1532.9470999999046,1530.3827999999523,1532.431399999857,1533.447399999857,1533.9472999999523,1533.947399999857,1534.8802999999525,897.0,1534.880399999857,2.0,1534.8941999998094,3.0,6.0,96.0,26.0,1.0,1.0,0.7,Time
,,S17,1,female,24,anonymized,Serial_Dependence_U,2023.2.3,Win32,59.88023952096852,,,,,,1534.8946999998093,134.0,3.0,1534.894899999857,134.0,,,,1538.6635,1539.1621999998094,1538.1486999998094,1538.6632999999524,1535.9141999998094,1538.1485,1539.1622999999524,1539.6627999999523,1539.662899999857,1546.045399999857,5453.0,1546.0455000000002,5.0,1546.059099999905,3.0,7.0,97.0,7.0,1.0,1.2,0.7,Time
,,S17,1,female,24,anonymized,Serial_Dependence_U,2023.2.3,Win32,59.88023952096852,,,,,,1546.0597999999525,240.0,3.0,1546.0605,240.0,,,,1550.2285999999046,1550.726899999857,1549.7125999999048,1550.2285000000002,1547.079399999857,1549.712399999857,1550.726899999857,1551.2265999999047,1551.2265999999047,1555.4930999999046,3646.0,1555.4931999998091,5.0,1555.509,3.0,8.0,98.0,9.0,1.0,1.6,0.7,Time
,,S17,1,female,24,anonymized,Serial_Dependence_U,2023.2.3,Win32,59.88023952096852,,,,,,1555.5095,226.0,3.0,1555.5096999998093,226.0,,,,1558.9105,1559.409,1558.3935,1558.910399999857,1556.527,1558.3932999999524,1559.4090999999048,1559.9087999999524,1559.908899999857,1566.124399999857,5533.0,1566.1245,5.0,1566.1400999999048,3.0,9.0,99.0,10.0,1.0,0.8,0.3,Time
,,S17,1,female,24,anonymized,Serial_Dependence_U,2023.2.3,Win32,59.88023952096852,,,,,,1566.1407999999524,152.0,3.0,1566.1411999998093,152.0,,,,1569.7067999999524,1570.2062999999523,1569.190699999809,1569.7065999999047,1567.158,1569.190399999857,1570.2062999999523,1570.7081999998093,1570.708399999857,1576.572,5051.0,1576.5720999999046,5.0,1576.5887999999525,3.0,10.0,100.0,16.0,1.0,1.0,0.7,Time
,,S17,1,female,24,anonymized,Serial_Dependence_U,2023.2.3,Win32,59.88023952096852,,,,,,1576.5897999999524,342.0,3.0,1576.59,342.0,,,,1580.1877999999524,1580.688399999857,1579.6715000000002,1580.1876999998094,1577.6052999999524,1579.671399999857,1580.688399999857,1581.188,1581.1882999999525,1587.0705999999047,5015.0,1587.0707999999524,5.0,1587.0851999998094,3.0,11.0,101.0,21.0,1.0,1.0,0.3,Time
,,S17,1,female,24,anonymized,Serial_Dependence_U,2023.2.3,Win32,59.88023952096852,,,,,,1587.085899999857,116.0,3.0,1587.0863999998571,116.0,,,,1591.271099999905,1591.7690999999047,1590.7532999999523,1591.270899999857,1588.0881999998094,1590.7530999999046,1591.7690999999047,1592.2690999999047,1592.2692999999524,1596.6515999999046,3550.0,1596.6516999998094,5.0,1596.6655999999048,3.0,12.0,102.0,4.0,1.0,1.6,0.3,Time
,,S17,1,female,24,anonymized,Serial_Dependence_U,2023.2.3,Win32,59.88023952096852,,,,,,1596.6660000000002,280.0,3.0,1596.6660999999046,280.0,,,,1600.6355999999048,1601.133699999809,1600.1192999999523,1600.635399999857,1597.6850999999049,1600.1187999999524,1601.1337999999523,1601.633399999857,1601.633399999857,1606.566699999809,4166.0,1606.5667999999523,5.0,1606.582899999857,3.0,13.0,103.0,28.0,1.0,1.4,0.7,Time
,,S17,1,female,24,anonymized,Serial_Dependence_U,2023.2.3,Win32,59.88023952096852,,,,,,1606.5835,77.0,3.0,1606.5836999998094,77.0,,,,1610.383399999857,1610.8821999998092,1609.8672999999524,1610.383399999857,1607.6005,1609.867099999905,1610.8822999999525,1611.3811999998093,1611.3812999999525,1615.9985,4020.0,1615.9985999999046,5.0,1616.0132999999523,3.0,14.0,104.0,2.0,1.0,1.2,0.3,Time
,,S17,1,female,24,anonymized,Serial_Dependence_U,2023.2.3,Win32,59.88023952096852,,,,,,1616.0140999999046,28.0,3.0,1616.014399999857,28.0,,,,1619.7817999999525,1620.2815,1619.2646999998094,1619.7815,1617.031899999857,1619.2645999999047,1620.2815999999048,1620.7825,1620.7825,1625.7957999999524,4415.0,1625.795899999857,5.0,1625.812,3.0,15.0,105.0,17.0,1.0,1.2,0.7,Time
,,S17,1,female,24,anonymized,Serial_Dependence_U,2023.2.3,Win32,59.88023952096852,,,,,,1625.812899999857,44.0,3.0,1625.8130999999048,44.0,,,,1630.0127999999524,1630.5120999999046,1629.496899999857,1630.0125999999048,1626.8316999998094,1629.496599999905,1630.5121999998094,1631.0106999998093,1631.010899999857,1647.8920999999048,1182.0,1647.8922999999525,2.0,1647.910899999857,3.0,16.0,106.0,14.0,1.0,1.6,0.3,Time
,,S17,1,female,24,anonymized,Serial_Dependence_U,2023.2.3,Win32,59.88023952096852,,,,,,1647.9115999999046,237.0,3.0,1647.9117999999523,237.0,,,,1651.890899999857,1652.390399999857,1651.3745,1651.8907999999524,1648.909599999905,1651.3742999999524,1652.3905,1652.8917999999524,1652.891899999857,1872.8935,218023.0,1872.8935,5.0,1872.908,3.0,17.0,107.0,23.0,1.0,1.4,0.3,Time
,,S17,1,female,24,anonymized,Serial_Dependence_U,2023.2.3,Win32,59.88023952096852,,,,,,1872.9085999999047,346.0,3.0,1872.9086999998092,346.0,,,,1876.882,1877.3801999998093,1876.365,1876.8817999999524,1873.9,1876.3647999999523,1877.3802999999525,1877.8802999999525,1877.880399999857,1878.7471999998093,831.0,1878.7472999999525,1.0,1878.762899999857,3.0,18.0,108.0,13.0,1.0,1.4,0.3,Time
,,S17,1,female,24,anonymized,Serial_Dependence_U,2023.2.3,Win32,59.88023952096852,,,,,,1878.7635,277.0,3.0,1878.7636999998092,277.0,,,,1882.9386999998092,1883.4350999999049,1882.4212999999525,1882.9385,1879.756899999857,1882.4212999999525,1883.4350999999049,1883.936199999809,1883.9362999999523,1892.1217999999524,7631.0,1892.122,5.0,1892.1365,3.0,19.0,109.0,24.0,1.0,1.6,0.3,Time
,,S17,1,female,24,anonymized,Serial_Dependence_U,2023.2.3,Win32,59.88023952096852,,,,,,1892.136899999857,15.0,3.0,1892.137,15.0,,,,1895.8782999999523,1896.3765999999048,1895.371899999857,1895.8780999999049,1893.1375,1895.3716999998092,1896.3766999998093,1896.877899999857,1896.877899999857,1901.4425999999048,3902.0,1901.4425999999048,5.0,1901.4565,3.0,20.0,110.0,27.0,1.0,1.2,0.7,Time
,,S17,1,female,24,anonymized,Serial_Dependence_U,2023.2.3,Win32,59.88023952096852,,,,,,1901.4571999998093,228.0,3.0,1901.4575999999047,228.0,,,,1905.2596999998093,1905.7585999999048,1904.743399999857,1905.259399999857,1902.477899999857,1904.7431999998091,1905.758699999809,1906.259899999857,1906.26,1909.8742999999524,703.0,1909.8745,1.0,1909.888899999857,3.0,21.0,111.0,22.0,1.0,1.2,0.3,Time
,,S17,1,female,24,anonymized,Serial_Dependence_U,2023.2.3,Win32,59.88023952096852,,,,,,1909.89,93.0,3.0,1909.890399999857,93.0,,,,1913.8745999999048,1914.3727999999523,1913.358399999857,1913.874399999857,1910.8931999998092,1913.3581999998091,1914.3727999999523,1914.8726999998091,1914.873,1916.6066999998093,1250.0,1916.6067999999525,2.0,1916.6220999999048,3.0,22.0,112.0,3.0,1.0,1.4,0.3,Time
,,S17,1,female,24,anonymized,Serial_Dependence_U,2023.2.3,Win32,59.88023952096852,,,,,,1916.623,349.0,3.0,1916.6232999999525,349.0,,,,1920.790899999857,1921.2896999998093,1920.2897999999525,1920.7907999999525,1917.6415,1920.2895999999048,1921.2896999998093,1921.7891999998092,1921.7892999999524,1922.9401999998088,311.0,1922.9402999999525,1.0,1922.955399999857,3.0,23.0,113.0,19.0,1.0,1.6,0.7,Time
,,S17,1,female,24,anonymized,Serial_Dependence_U,2023.2.3,Win32,59.88023952096852,,,,,,1922.9557999999524,353.0,3.0,1922.956,353.0,,,,1926.3057999999523,1926.8036999998092,1925.790099999905,1926.3055999999049,1923.9566999998092,1925.789899999857,1926.8037999999524,1927.303399999857,1927.3035,1930.1057999999523,67.0,1930.105899999857,1.0,1930.122899999857,3.0,24.0,114.0,15.0,1.0,0.8,0.7,Time
,,S17,1,female,24,anonymized,Serial_Dependence_U,2023.2.3,Win32,59.88023952096852,,,,,,1930.123399999857,46.0,3.0,1930.1235,46.0,,,,1933.5207999999525,1934.0200999999047,1933.0051999998093,1933.5205999999048,1931.138,1933.005,1934.0200999999047,1934.521099999905,1934.5211999998091,1938.3195999999048,1464.0,1938.3196999998088,5.0,1938.3347999999523,3.0,25.0,115.0,0.0,1.0,0.8,0.3,Time
,,S17,1,female,24,anonymized,Serial_Dependence_U,2023.2.3,Win32,59.88023952096852,,,,,,1938.335699999809,123.0,3.0,1938.335899999857,123.0,,,,1941.718399999857,1942.2176999998092,1941.2025,1941.7181999998093,1939.3542999999524,1941.2022999999524,1942.2180999999048,1942.7175,1942.7177999999524,1944.768399999857,1333.0,1944.7685999999048,5.0,1944.7841999998093,3.0,26.0,116.0,5.0,1.0,0.8,0.7,Time
,,S17,1,female,24,anonymized,Serial_Dependence_U,2023.2.3,Win32,59.88023952096852,,,,,,1944.7846999998092,167.0,3.0,1944.785,167.0,,,,1948.7345,1949.2331999998091,1948.218,1948.7342999999523,1945.7850999999048,1948.2177999999524,1949.2331999998091,1949.7335999999048,1949.7335999999048,1954.7155999999047,2712.0,1954.7156999998092,5.0,1954.7276999998091,3.0,27.0,117.0,8.0,1.0,1.4,0.7,Time
,,S17,1,female,24,anonymized,Serial_Dependence_U,2023.2.3,Win32,59.88023952096852,,,,,,1954.728,81.0,3.0,1954.7281999998088,81.0,,,,1958.2997999999525,1958.7981999998092,1957.7825999999047,1958.2995999999048,1955.748399999857,1957.782399999857,1958.7981999998092,1959.297899999857,1959.2985999999048,1962.8325,3173.0,1962.8325999999047,5.0,1962.8475999999048,3.0,28.0,118.0,6.0,1.0,1.0,0.7,Time
,,S17,1,female,24,anonymized,Serial_Dependence_U,2023.2.3,Win32,59.88023952096852,,,,,,1962.8482999999524,351.0,3.0,1962.8485999999048,351.0,,,,1966.648,1967.1462999999524,1966.1317999999524,1966.6477999999524,1963.8647999999523,1966.1316999998091,1967.1462999999524,1967.6476999998092,1967.6477999999524,1968.9296999998091,421.0,1968.9297999999524,1.0,1968.943,3.0,29.0,119.0,12.0,1.0,1.2,0.3,Time
,,S17,1,female,24,anonymized,Serial_Dependence_U,2023.2.3,Win32,59.88023952096852,,,,,,1968.9435,285.0,4.0,1973.6602999999525,285.0,s,4.680699999809349,,1977.845399999857,1978.3445,1977.3295999999048,1977.8450999999047,1974.6806999998091,1977.329399999857,1978.344699999809,1978.8445999999049,1978.844699999809,1983.8107999999525,4163.0,1983.8107999999525,5.0,1983.8250999999048,4.0,0.0,120.0,9.0,1.0,1.6,0.7,Time
,,S17,1,female,24,anonymized,Serial_Dependence_U,2023.2.3,Win32,59.88023952096852,,,,,,1983.825699999809,189.0,4.0,1983.8287999999525,189.0,,,,1987.5935,1988.0917999999524,1987.078099999905,1987.593399999857,1984.8445999999049,1987.078,1988.092,1988.5915999999047,1988.5920999999048,1993.7250999999048,4532.0,1993.725199999809,5.0,1993.7411999998092,4.0,1.0,121.0,7.0,1.0,1.2,0.7,Time
,,S17,1,female,24,anonymized,Serial_Dependence_U,2023.2.3,Win32,59.88023952096852,,,,,,1993.7418999998567,4.0,4.0,1993.7421999998087,4.0,,,,1997.6922999999524,1998.1910000000005,1997.1755999999043,1997.6921999998092,1994.7422999999528,1997.1753999998568,1998.1910999999045,1998.6905999999049,1998.690699999809,2002.1071999998092,2649.0,2002.1072999999524,5.0,2002.1251999998092,4.0,2.0,122.0,18.0,1.0,1.4,0.7,Time
,,S17,1,female,24,anonymized,Serial_Dependence_U,2023.2.3,Win32,59.88023952096852,,,,,,2002.1256999998093,116.0,4.0,2002.1257999999525,116.0,,,,2005.7065,2006.2055999999047,2005.191299999952,2005.7063999998568,2003.1240000000005,2005.1911999998088,2006.2055999999047,2006.7055999999047,2006.7055999999047,2012.2886999998093,4899.0,2012.2887999999523,5.0,2012.3043999998567,4.0,3.0,123.0,11.0,1.0,1.0,0.3,Time
,,S17,1,female,24,anonymized,Serial_Dependence_U,2023.2.3,Win32,59.88023952096852,,,,,,2012.3050999999043,278.0,4.0,2012.305399999857,278.0,,,,2016.2545999999047,2016.753199999809,2015.7387999999523,2016.254399999857,2013.3051999998088,2015.7385,2016.753199999809,2017.2535999999045,2017.253899999857,2020.919899999857,2982.0,2020.9200999999048,5.0,2020.9377999999524,4.0,4.0,124.0,28.0,1.0,1.4,0.7,Time
,,S17,1,female,24,anonymized,Serial_Dependence_U,2023.2.3,Win32,59.88023952096852,,,,,,2020.9385,326.0,4.0,2020.938599999905,326.0,,,,2024.9363999998568,2025.4345,2024.4196999998092,2024.9361999998096,2021.953,2024.4195,2025.4345999999043,2025.934799999952,2025.934899999857,2030.9526999998093,4249.0,2030.9527999999525,5.0,2030.9655,4.0,5.0,125.0,13.0,1.0,1.4,0.3,Time
,,S17,1,female,24,anonymized,Serial_Dependence_U,2023.2.3,Win32,59.88023952096852,,,,,,2030.9662999999523,141.0,4.0,2030.966899999857,141.0,,,,2034.9336999998093,2035.4335999999048,2034.4177999999524,2034.9335,2031.9853999998568,2034.4176999998092,2035.4336999998093,2035.932899999857,2035.933,2040.9988999998568,4266.0,2040.9988999998568,5.0,2041.012199999809,4.0,6.0,126.0,8.0,1.0,1.4,0.7,Time
,,S17,1,female,24,anonymized,Serial_Dependence_U,2023.2.3,Win32,59.88023952096852,,,,,,2041.012799999952,141.0,4.0,2041.012899999857,141.0,,,,2044.4162999999528,2044.9145999999048,2043.9003999998567,2044.4160999999049,2042.0330999999048,2043.9001999998093,2044.9147999999525,2045.4152999999524,2045.4152999999524,2051.4165999999045,5409.0,2051.416799999952,5.0,2051.4325,4.0,7.0,127.0,20.0,1.0,0.8,0.3,Time
,,S17,1,female,24,anonymized,Serial_Dependence_U,2023.2.3,Win32,59.88023952096852,,,,,,2051.433,79.0,4.0,2051.4330999999047,79.0,,,,2054.7817999999525,2055.279899999857,2054.280399999857,2054.7815999999048,2052.431599999905,2054.2802999999526,2055.2802999999526,2055.7795,2055.7795,2061.163699999809,4815.0,2061.1637999999525,5.0,2061.176399999857,4.0,8.0,128.0,25.0,1.0,0.8,0.7,Time
,,S17,1,female,24,anonymized,Serial_Dependence_U,2023.2.3,Win32,59.88023952096852,,,,,,2061.177099999905,271.0,4.0,2061.177699999809,271.0,,,,2064.979899999857,2065.479199999809,2064.461899999857,2064.9796999998093,2062.1955000000003,2064.4615999999046,2065.479299999952,2065.978,2065.9782999999525,2071.076899999857,4366.0,2071.0770999999045,5.0,2071.0957999999523,4.0,9.0,129.0,12.0,1.0,1.2,0.3,Time
,,S17,1,female,24,anonymized,Serial_Dependence_U,2023.2.3,Win32,59.88023952096852,,,,,,2071.0962999999524,83.0,4.0,2071.096399999857,83.0,,,,2074.4925999999045,2074.991899999857,2073.976199999809,2074.492399999857,2072.111899999857,2073.976099999905,2074.992199999809,2075.491899999857,2075.492,2080.7745999999047,4714.0,2080.7746999998094,5.0,2080.788699999809,4.0,10.0,130.0,10.0,1.0,0.8,0.3,Time
,,S17,1,female,24,anonymized,Serial_Dependence_U,2023.2.3,Win32,59.88023952096852,,,,,,2080.789299999952,40.0,4.0,2080.7897999999523,40.0,,,,2084.3750999999047,2084.874199999809,2083.858099999905,2084.374899999857,2081.7932999999525,2083.857899999857,2084.874299999952,2085.373799999953,2085.374199999809,2090.939399999857,5049.0,2090.9395,5.0,2090.954899999857,4.0,11.0,131.0,21.0,1.0,1.0,0.3,Time
,,S17,1,female,24,anonymized,Serial_Dependence_U,2023.2.3,Win32,59.88023952096852,,,,,,2090.9555,123.0,4.0,2090.955699999809,123.0,,,,2094.323,2094.8217999999524,2093.8060999999047,2094.322699999809,2091.9731999998094,2093.805899999857,2094.821899999857,2095.3216999998094,2095.322,2100.938099999905,4896.0,2100.938199999809,5.0,2100.953899999857,4.0,12.0,132.0,5.0,1.0,0.8,0.7,Time
,,S17,1,female,24,anonymized,Serial_Dependence_U,2023.2.3,Win32,59.88023952096852,,,,,,2100.9545999999045,107.0,4.0,2100.954799999952,107.0,,,,2104.7215,2105.220299999952,2104.2045000000003,2104.721399999857,2101.971399999857,2104.204399999857,2105.220399999857,2105.719799999953,2105.7200000000003,2111.552399999857,5059.0,2111.5525,5.0,2111.568399999857,4.0,13.0,133.0,27.0,1.0,1.2,0.7,Time
,,S17,1,female,24,anonymized,Serial_Dependence_U,2023.2.3,Win32,59.88023952096852,,,,,,2111.569399999857,355.0,4.0,2111.5697999999525,355.0,,,,2115.169399999857,2115.667699999809,2114.6522999999524,2115.1690999999046,2112.585,2114.6520999999047,2115.6677999999524,2116.167899999857,2116.168099999905,2195.753099999905,5434.0,2195.753199999809,5.0,2195.768,4.0,14.0,134.0,1.0,1.0,1.0,0.3,Time
,,S17,1,female,24,anonymized,Serial_Dependence_U,2023.2.3,Win32,59.88023952096852,,,,,,2195.7685,239.0,4.0,2195.768899999857,239.0,,,,2199.5352999999523,2200.0347999999526,2199.019,2199.5351999998093,2196.786699999809,2199.0187999999525,2200.0347999999526,2200.535,2200.535,2237.0565,7331.0,2237.0565,5.0,2237.072099999905,4.0,15.0,135.0,17.0,1.0,1.2,0.7,Time
,,S17,1,female,24,anonymized,Serial_Dependence_U,2023.2.3,Win32,59.88023952096852,,,,,,2237.0725,169.0,4.0,2237.072699999809,169.0,,,,2240.627899999857,2241.125899999857,2240.111899999857,2240.627399999857,2238.078699999809,2240.1116999998094,2241.125899999857,2241.625599999905,2241.6257999999525,2246.8920000000003,1639.0,2246.8920999999045,5.0,2246.9047999999525,4.0,16.0,136.0,16.0,1.0,1.0,0.7,Time
,,S17,1,female,24,anonymized,Serial_Dependence_U,2023.2.3,Win32,59.88023952096852,,,,,,2246.9052999999526,325.0,4.0,2246.9055,325.0,,,,2251.0747999999526,2251.5747999999526,2250.5595999999045,2251.074599999905,2247.911899999857,2250.559399999857,2251.574899999857,2252.0747999999526,2252.074899999857,2291.1670999999046,6250.0,2291.1672999999523,5.0,2291.181599999905,4.0,17.0,137.0,29.0,1.0,1.6,0.7,Time
,,S17,1,female,24,anonymized,Serial_Dependence_U,2023.2.3,Win32,59.88023952096852,,,,,,2291.1832999999524,140.0,4.0,2291.183699999809,140.0,,,,2295.184099999905,2295.682399999857,2294.667399999857,2295.183899999857,2292.201399999857,2294.6671999998093,2295.682399999857,2296.1826999998093,2296.1827999999523,2296.3835999999046,180.0,2296.3836999998093,1.0,2296.399399999857,4.0,18.0,138.0,23.0,1.0,1.4,0.3,Time
,,S17,1,female,24,anonymized,Serial_Dependence_U,2023.2.3,Win32,59.88023952096852,,,,,,2296.4,64.0,4.0,2296.400199999809,64.0,,,,2299.967099999905,2300.4655,2299.4531999998094,2299.967,2297.400699999809,2299.453,2300.4655999999045,2300.9662999999523,2300.966399999857,2302.8322999999523,1852.0,2302.832399999857,5.0,2302.8476999998093,4.0,19.0,139.0,6.0,1.0,1.0,0.7,Time
,,S17,1,female,24,anonymized,Serial_Dependence_U,2023.2.3,Win32,59.88023952096852,,,,,,2302.8485999999048,165.0,4.0,2302.848899999857,165.0,,,,2307.0477999999525,2307.547399999857,2306.5315,2307.047599999905,2303.8655999999046,2306.531399999857,2307.5475,2308.0467999999523,2308.046899999857,2315.912399999857,7369.0,2315.9125,5.0,2315.929099999905,4.0,20.0,140.0,4.0,1.0,1.6,0.3,Time
,,S17,1,female,24,anonymized,Serial_Dependence_U,2023.2.3,Win32,59.88023952096852,,,,,,2315.929899999857,131.0,4.0,2315.930199999809,131.0,,,,2319.7145999999047,2320.211399999857,2319.195899999857,2319.714399999857,2316.9300000000003,2319.195799999952,2320.2115999999046,2320.712,2320.7120999999047,2327.460199999809,1285.0,2327.4602999999524,4.0,2327.476399999857,4.0,21.0,141.0,2.0,1.0,1.2,0.3,Time
,,S17,1,female,24,anonymized,Serial_Dependence_U,2023.2.3,Win32,59.88023952096852,,,,,,2327.477099999905,247.0,4.0,2327.477399999857,247.0,,,,2331.460899999857,2331.958899999857,2330.943399999857,2331.460599999905,2328.4782999999525,2330.943299999952,2331.9590000000003,2332.4595,2332.4595999999046,2389.4980999999048,51822.0,2389.498199999809,5.0,2389.513899999857,4.0,22.0,142.0,3.0,1.0,1.4,0.3,Time
,,S17,1,female,24,anonymized,Serial_Dependence_U,2023.2.3,Win32,59.88023952096852,,,,,,2389.5145999999045,153.0,4.0,2389.514899999857,153.0,,,,2393.0567999999525,2393.555299999952,2392.541699999809,2393.056599999905,2390.5090999999047,2392.5415000000003,2393.555399999857,2394.0535,2394.0535,2570.373899999857,176301.0,2570.3740000000003,5.0,2570.387,4.0,23.0,143.0,26.0,1.0,1.0,0.7,Time
,,S17,1,female,24,anonymized,Serial_Dependence_U,2023.2.3,Win32,59.88023952096852,,,,,,2570.387399999857,265.0,4.0,2570.3875999999045,265.0,,,,2573.769399999857,2574.262099999905,2573.256099999905,2573.769299999952,2571.3902999999523,2573.255899999857,2574.262199999809,2574.7697999999523,2574.769899999857,2582.303899999857,1167.0,2582.304,5.0,2582.319,4.0,24.0,144.0,0.0,1.0,0.8,0.3,Time
,,S17,1,female,24,anonymized,Serial_Dependence_U,2023.2.3,Win32,59.88023952096852,,,,,,2582.3195,136.0,4.0,2582.319699999809,136.0,,,,2586.5115,2587.009399999857,2585.994899999857,2586.511399999857,2583.3275,2585.994799999952,2587.0095,2587.51,2587.510199999809,2588.326199999809,632.0,2588.326199999809,1.0,2588.3415,4.0,25.0,145.0,14.0,1.0,1.6,0.3,Time
,,S17,1,female,24,anonymized,Serial_Dependence_U,2023.2.3,Win32,59.88023952096852,,,,,,2588.342,334.0,4.0,2588.3422999999525,334.0,,,,2592.135,2592.6255,2591.6185999999047,2592.1347999999525,2589.3530999999048,2591.6185,2592.6255,2593.1250999999047,2593.1251999998094,2600.0017999999523,5467.0,2600.002,5.0,2600.016699999809,4.0,26.0,146.0,22.0,1.0,1.2,0.3,Time
,,S17,1,female,24,anonymized,Serial_Dependence_U,2023.2.3,Win32,59.88023952096852,,,,,,2600.017199999809,264.0,4.0,2600.0175,264.0,,,,2603.3585000000003,2603.8557999999525,2602.842,2603.3582999999526,2601.0087999999523,2602.8417999999524,2603.855899999857,2604.3555,2604.3557999999525,2611.204899999857,2352.0,2611.205,5.0,2611.2187999999524,4.0,27.0,147.0,15.0,1.0,0.8,0.7,Time
,,S17,1,female,24,anonymized,Serial_Dependence_U,2023.2.3,Win32,59.88023952096852,,,,,,2611.2192999999525,291.0,4.0,2611.219399999857,291.0,,,,2615.405,2615.903399999857,2614.89,2615.4047999999525,2612.2226999998093,2614.8895999999045,2615.903399999857,2616.4036999998093,2616.403899999857,2629.7516999998093,3448.0,2629.751899999857,5.0,2629.7675,4.0,28.0,148.0,24.0,1.0,1.6,0.3,Time
,,S17,1,female,24,anonymized,Serial_Dependence_U,2023.2.3,Win32,59.88023952096852,,,,,,2629.768,177.0,4.0,2629.768199999809,177.0,,,,2633.9352999999523,2634.434099999905,2633.4191999998093,2633.9350999999047,2630.785399999857,2633.419,2634.434099999905,2634.932899999857,2634.9331999998094,2640.166099999905,101.0,2640.166199999809,1.0,2640.1837999999525,4.0,29.0,149.0,19.0,1.0,1.6,0.7,Time
,,S17,1,female,24,anonymized,Serial_Dependence_U,2023.2.3,Win32,59.88023952096852,,,,,,2640.1842999999526,197.0,5.0,2897.498399999857,197.0,s,257.2840000000001,,2901.266899999857,2901.7645999999045,2900.7501999998094,2901.266599999905,2898.5091999998094,2900.7500999999047,2901.764699999809,2902.265,2902.2650999999046,2907.197399999857,4217.0,2907.1975,5.0,2907.2141999998094,5.0,0.0,150.0,7.0,1.0,1.2,0.7,Time
,,S17,1,female,24,anonymized,Serial_Dependence_U,2023.2.3,Win32,59.88023952096852,,,,,,2907.2147999999524,316.0,5.0,2907.2182999999523,316.0,,,,2911.206,2911.695799999952,2910.690399999857,2911.205899999857,2908.224099999905,2910.690199999809,2911.695899999857,2912.187,2912.187,2912.9557999999524,83.0,2912.956,1.0,2912.9732999999524,5.0,1.0,151.0,3.0,1.0,1.4,0.3,Time
,,S17,1,female,24,anonymized,Serial_Dependence_U,2023.2.3,Win32,59.88023952096852,,,,,,2912.9737999999525,337.0,5.0,2912.974099999905,337.0,,,,2916.3397999999524,2916.8301999998093,2915.838099999905,2916.339699999809,2913.9730999999047,2915.838,2916.8301999998093,2917.338,2917.338,2919.5232999999525,2167.0,2919.523399999857,5.0,2919.5407999999525,5.0,2.0,152.0,20.0,1.0,0.8,0.3,Time
,,S17,1,female,24,anonymized,Serial_Dependence_U,2023.2.3,Win32,59.88023952096852,,,,,,2919.541299999953,275.0,5.0,2919.541399999857,275.0,,,,2923.703699999809,2924.201,2923.195099999905,2923.703599999905,2920.5622999999523,2923.195099999905,2924.201,2924.702,2924.7020999999045,2924.902199999809,166.0,2924.902199999809,1.0,2924.9112999999525,5.0,3.0,153.0,19.0,1.0,1.6,0.7,Time
,,S17,1,female,24,anonymized,Serial_Dependence_U,2023.2.3,Win32,59.88023952096852,,,,,,2924.9115,97.0,5.0,2924.911599999905,97.0,,,,2928.669399999857,2929.1765999999047,2928.152899999857,2928.6692999999523,2925.9202999999525,2928.1527999999525,2929.176699999809,2929.6675999999047,2929.668,2933.438699999809,3750.0,2933.4387999999526,5.0,2933.453899999857,5.0,4.0,154.0,27.0,1.0,1.2,0.7,Time
,,S17,1,female,24,anonymized,Serial_Dependence_U,2023.2.3,Win32,59.88023952096852,,,,,,2933.454399999857,47.0,5.0,2933.454699999809,47.0,,,,2937.0427999999524,2937.541199999809,2936.5257999999526,2937.042699999809,2934.4600999999047,2936.525699999809,2937.541199999809,2938.040699999809,2938.040699999809,2948.839399999857,10160.0,2948.8395,5.0,2948.856899999857,5.0,5.0,155.0,11.0,1.0,1.0,0.3,Time
,,S17,1,female,24,anonymized,Serial_Dependence_U,2023.2.3,Win32,59.88023952096852,,,,,,2948.857699999809,232.0,5.0,2948.8577999999525,232.0,,,,2952.6561999998094,2953.154599999905,2952.140899999857,2952.6560999999047,2949.8730999999048,2952.1406999998094,2953.154899999857,2953.654599999905,2953.654699999809,2954.205,518.0,2954.2050999999046,1.0,2954.219199999809,5.0,6.0,156.0,22.0,1.0,1.2,0.3,Time
,,S17,1,female,24,anonymized,Serial_Dependence_U,2023.2.3,Win32,59.88023952096852,,,,,,2954.219599999905,165.0,5.0,2954.219699999809,165.0,,,,2957.8057999999523,2958.3047999999526,2957.289899999857,2957.8055999999046,2955.222199999809,2957.2896999998093,2958.3047999999526,2958.8032999999523,2958.803399999857,2963.7327999999525,4514.0,2963.7327999999525,5.0,2963.748799999953,5.0,7.0,157.0,21.0,1.0,1.0,0.3,Time
,,S17,1,female,24,anonymized,Serial_Dependence_U,2023.2.3,Win32,59.88023952096852,,,,,,2963.749299999952,229.0,5.0,2963.749399999857,229.0,,,,2967.112899999857,2967.602099999905,2966.5961999998094,2967.112699999809,2964.7470999999045,2966.5960999999047,2967.602399999857,2968.1090999999046,2968.1090999999046,2971.7632999999523,1400.0,2971.763399999857,5.0,2971.78,5.0,8.0,158.0,15.0,1.0,0.8,0.7,Time
,,S17,1,female,24,anonymized,Serial_Dependence_U,2023.2.3,Win32,59.88023952096852,,,,,,2971.780399999857,32.0,5.0,2971.7805,32.0,,,,2975.7517999999523,2976.2502999999524,2975.2352999999525,2975.7516999998093,2972.8025999999045,2975.235099999905,2976.250399999857,2976.7502999999524,2976.750399999857,2988.326,8095.0,2988.3260999999047,5.0,2988.340699999809,5.0,9.0,159.0,18.0,1.0,1.4,0.7,Time
,,S17,1,female,24,anonymized,Serial_Dependence_U,2023.2.3,Win32,59.88023952096852,,,,,,2988.3411999998093,172.0,5.0,2988.3412999999523,172.0,,,,2992.5170999999045,2993.0135999999047,2992.0002999999524,2992.5167999999526,2989.333,2992.0,2993.0135999999047,2993.5131999998093,2993.5132999999523,2994.347399999857,157.0,2994.347399999857,1.0,2994.360399999857,5.0,10.0,160.0,24.0,1.0,1.6,0.3,Time
,,S17,1,female,24,anonymized,Serial_Dependence_U,2023.2.3,Win32,59.88023952096852,,,,,,2994.360899999857,149.0,5.0,2994.360899999857,149.0,,,,2998.163399999857,2998.662299999952,2997.648,2998.1631999998094,2995.380699999809,2997.6477999999524,2998.6625,2999.1635,2999.163599999905,3007.854899999857,5528.0,3007.855,5.0,3007.869699999809,5.0,11.0,161.0,12.0,1.0,1.2,0.3,Time
,,S17,1,female,24,anonymized,Serial_Dependence_U,2023.2.3,Win32,59.88023952096852,,,,,,3007.8700999999046,83.0,5.0,3007.8702999999523,83.0,,,,3011.2611999998094,3011.7597999999525,3010.745,3011.261,3008.8797999999524,3010.744899999857,3011.7597999999525,3012.259899999857,3012.26,3033.1071999998094,5915.0,3033.1072999999524,5.0,3033.123599999905,5.0,12.0,162.0,10.0,1.0,0.8,0.3,Time
,,S17,1,female,24,anonymized,Serial_Dependence_U,2023.2.3,Win32,59.88023952096852,,,,,,3033.124299999952,216.0,5.0,3033.124399999857,216.0,,,,3036.690799999953,3037.1891999998093,3036.173899999857,3036.690599999905,3034.1257999999525,3036.1736999998093,3037.1895,3037.6897999999524,3037.689899999857,3045.3545999999046,6858.0,3045.3546999998093,5.0,3045.372899999857,5.0,13.0,163.0,26.0,1.0,1.0,0.7,Time
,,S17,1,female,24,anonymized,Serial_Dependence_U,2023.2.3,Win32,59.88023952096852,,,,,,3045.373399999857,220.0,5.0,3045.373599999905,220.0,,,,3048.7712999999526,3049.27,3048.255099999905,3048.771099999905,3046.3892999999525,3048.2547999999524,3049.2701999998094,3049.7696999998093,3049.7697999999523,3064.0177999999523,3365.0,3064.018,5.0,3064.034599999905,5.0,14.0,164.0,0.0,1.0,0.8,0.3,Time
,,S17,1,female,24,anonymized,Serial_Dependence_U,2023.2.3,Win32,59.88023952096852,,,,,,3064.0352999999523,35.0,5.0,3064.0355,35.0,,,,3068.000699999809,3068.4995999999046,3067.483399999857,3068.000599999905,3065.0512999999523,3067.4832999999526,3068.4996999998093,3068.9990999999045,3068.999299999952,3081.764199999809,11481.0,3081.764199999809,5.0,3081.780199999809,5.0,15.0,165.0,28.0,1.0,1.4,0.7,Time
,,S17,1,female,24,anonymized,Serial_Dependence_U,2023.2.3,Win32,59.88023952096852,,,,,,3081.7807999999523,247.0,5.0,3081.780899999857,247.0,,,,3085.3385000000003,3085.835699999809,3084.822699999809,3085.3382999999526,3082.786699999809,3084.822399999857,3085.8357999999525,3086.3365,3086.3365,3095.8212999999523,1982.0,3095.821399999857,5.0,3095.837699999809,5.0,16.0,166.0,16.0,1.0,1.0,0.7,Time
,,S17,1,female,24,anonymized,Serial_Dependence_U,2023.2.3,Win32,59.88023952096852,,,,,,3095.838199999809,24.0,5.0,3095.8382999999526,24.0,,,,3100.0117999999525,3100.5087999999523,3099.494799999952,3100.011599999905,3096.8455,3099.494699999809,3100.508899999857,3101.0095,3101.009599999905,3107.6755999999045,5833.0,3107.675699999809,5.0,3107.6905,5.0,17.0,167.0,9.0,1.0,1.6,0.7,Time
,,S17,1,female,24,anonymized,Serial_Dependence_U,2023.2.3,Win32,59.88023952096852,,,,,,3107.6910999999045,2.0,5.0,3107.691199999809,2.0,,,,3111.2855999999047,3111.782199999809,3110.775599999905,3111.285399999857,3108.7105,3110.775399999857,3111.782299999953,3112.283,3112.283,3115.617899999857,3299.0,3115.6180999999046,5.0,3115.6347999999525,5.0,18.0,168.0,1.0,1.0,1.0,0.3,Time
,,S17,1,female,24,anonymized,Serial_Dependence_U,2023.2.3,Win32,59.88023952096852,,,,,,3115.635399999857,181.0,5.0,3115.6356999998093,181.0,,,,3118.999899999857,3119.490899999857,3118.4832999999526,3118.9995999999046,3116.644899999857,3118.483199999809,3119.490899999857,3119.996099999905,3119.996099999905,3128.9152999999524,8447.0,3128.9155,5.0,3128.930199999809,5.0,19.0,169.0,25.0,1.0,0.8,0.7,Time
,,S17,1,female,24,anonymized,Serial_Dependence_U,2023.2.3,Win32,59.88023952096852,,,,,,3128.9305999999046,199.0,5.0,3128.9306999998093,199.0,,,,3132.920399999857,3133.4190999999046,3132.404699999809,3132.920199999809,3129.9392999999523,3132.404599999905,3133.4191999998093,3133.9195999999047,3133.9197999999524,3135.087599999905,249.0,3135.087699999809,1.0,3135.1015,5.0,20.0,170.0,23.0,1.0,1.4,0.3,Time
,,S17,1,female,24,anonymized,Serial_Dependence_U,2023.2.3,Win32,59.88023952096852,,,,,,3135.1021999998093,286.0,5.0,3135.1025,286.0,,,,3138.462399999857,3138.9610999999045,3137.948399999857,3138.462,3136.112899999857,3137.9481999998093,3138.9610999999045,3139.46,3139.460199999809,3143.963099999905,4484.0,3143.963199999809,5.0,3143.9775,5.0,21.0,171.0,5.0,1.0,0.8,0.7,Time
,,S17,1,female,24,anonymized,Serial_Dependence_U,2023.2.3,Win32,59.88023952096852,,,,,,3143.977899999857,64.0,5.0,3143.9780999999048,64.0,,,,3148.1355,3148.6340999999047,3147.618899999857,3148.135299999952,3144.9855999999045,3147.6187999999524,3148.6341999998094,3149.1335,3149.1335999999046,3152.1335999999046,632.0,3152.1336999998093,1.0,3152.1502999999525,5.0,22.0,172.0,29.0,1.0,1.6,0.7,Time
,,S17,1,female,24,anonymized,Serial_Dependence_U,2023.2.3,Win32,59.88023952096852,,,,,,3152.150699999809,213.0,5.0,3152.150899999857,213.0,,,,3156.11,3156.6025999999047,3155.601199999809,3156.109899999857,3153.167,3155.601,3156.6026999998094,3157.098899999857,3157.099,3158.310399999857,334.0,3158.3105,1.0,3158.3276999998093,5.0,23.0,173.0,8.0,1.0,1.4,0.7,Time
,,S17,1,female,24,anonymized,Serial_Dependence_U,2023.2.3,Win32,59.88023952096852,,,,,,3158.328399999857,238.0,5.0,3158.3285,238.0,,,,3162.532099999905,3163.030599999905,3162.0165,3162.532,3159.349199999809,3162.0162999999525,3163.0306999998093,3163.5305,3163.530599999905,3173.0625999999047,7380.0,3173.0627999999524,5.0,3173.080399999857,5.0,24.0,174.0,14.0,1.0,1.6,0.3,Time
,,S17,1,female,24,anonymized,Serial_Dependence_U,2023.2.3,Win32,59.88023952096852,,,,,,3173.080899999857,98.0,5.0,3173.081099999905,98.0,,,,3177.263399999857,3177.761699999809,3176.747,3177.2631999998093,3174.079399999857,3176.747,3177.761899999857,3178.261699999809,3178.261699999809,3179.628299999953,1354.0,3179.628299999953,2.0,3179.641099999905,5.0,25.0,175.0,4.0,1.0,1.6,0.3,Time
,,S17,1,female,24,anonymized,Serial_Dependence_U,2023.2.3,Win32,59.88023952096852,,,,,,3179.641599999905,240.0,5.0,3179.641899999857,240.0,,,,3183.4447999999525,3183.9435,3182.9285999999047,3183.4445999999048,3180.6612999999525,3182.928399999857,3183.9435,3184.443199999809,3184.443299999952,3188.6430999999047,3383.0,3188.643199999809,5.0,3188.6575000000003,5.0,26.0,176.0,2.0,1.0,1.2,0.3,Time
,,S17,1,female,24,anonymized,Serial_Dependence_U,2023.2.3,Win32,59.88023952096852,,,,,,3188.6581999998093,73.0,5.0,3188.6585,73.0,,,,3192.643399999857,3193.1417999999526,3192.1255,3192.643199999809,3189.661199999809,3192.125399999857,3193.141899999857,3193.6420000000003,3193.642199999809,3201.5852999999524,6092.0,3201.5855,5.0,3201.601,5.0,27.0,177.0,13.0,1.0,1.4,0.3,Time
,,S17,1,female,24,anonymized,Serial_Dependence_U,2023.2.3,Win32,59.88023952096852,,,,,,3201.6015,348.0,5.0,3201.601599999905,348.0,,,,3205.3665,3205.860699999809,3204.857,3205.3662999999524,3202.6085000000003,3204.8567999999523,3205.860899999857,3206.357,3206.3570999999047,3210.2155999999045,749.0,3210.215799999952,1.0,3210.2315999999046,5.0,28.0,178.0,17.0,1.0,1.2,0.7,Time
,,S17,1,female,24,anonymized,Serial_Dependence_U,2023.2.3,Win32,59.88023952096852,,,,,,3210.2320999999047,162.0,5.0,3210.2321999998094,162.0,,,,3213.8056999998093,3214.304,3213.289599999905,3213.8055999999046,3211.2415,3213.289399999857,3214.304,3214.8045,3214.8045,3217.838199999809,3016.0,3217.8382999999526,5.0,3217.8521999998093,5.0,29.0,179.0,6.0,1.0,1.0,0.7,Time
,,S17,1,female,24,anonymized,Serial_Dependence_U,2023.2.3,Win32,59.88023952096852,,,,,,3217.8527999999524,183.0,6.0,10595.473299999952,183.0,s,7377.599,,10599.0495,10599.547099999903,10598.534,10599.049299999951,10596.4865,10598.533899999857,10599.547099999903,10600.047099999903,10600.04719999981,10603.38069999981,2116.0,10603.380799999954,5.0,10603.390299999954,6.0,0.0,180.0,26.0,1.0,1.0,0.7,Time
,,S17,1,female,24,anonymized,Serial_Dependence_U,2023.2.3,Win32,59.88023952096852,,,,,,10603.390699999807,295.0,6.0,10603.393299999952,295.0,,,,10606.73969999981,10607.238799999954,10606.23,10606.73969999981,10604.3975,10606.23,10607.238799999954,10607.738599999906,10607.738599999906,10613.04819999981,4751.0,10613.04819999981,5.0,10613.060699999807,6.0,1.0,181.0,25.0,1.0,0.8,0.7,Time
,,S17,1,female,24,anonymized,Serial_Dependence_U,2023.2.3,Win32,59.88023952096852,,,,,,10613.061099999904,312.0,6.0,10613.06119999981,312.0,,,,10617.221,10617.72019999981,10616.711,10617.220899999858,10614.078799999952,10616.711,10617.720299999954,10618.22019999981,10618.22019999981,10624.196299999952,4285.0,10624.196299999952,5.0,10624.2175,6.0,2.0,182.0,9.0,1.0,1.6,0.7,Time
,,S17,1,female,24,anonymized,Serial_Dependence_U,2023.2.3,Win32,59.88023952096852,,,,,,10624.217899999858,2.0,6.0,10624.218,2.0,,,,10628.369,10628.868,10627.852799999951,10628.368799999953,10625.219599999906,10627.8525,10628.868099999903,10629.367799999953,10629.367899999856,10632.73569999981,2552.0,10632.735899999858,5.0,10632.75119999981,6.0,3.0,183.0,19.0,1.0,1.6,0.7,Time
,,S17,1,female,24,anonymized,Serial_Dependence_U,2023.2.3,Win32,59.88023952096852,,,,,,10632.751799999953,136.0,6.0,10632.751899999856,136.0,,,,10636.3345,10636.83969999981,10635.826,10636.334399999858,10633.759799999953,10635.825899999858,10636.83969999981,10637.333299999951,10637.333299999951,10640.092899999858,1736.0,10640.093,5.0,10640.107399999855,6.0,4.0,184.0,21.0,1.0,1.0,0.3,Time
,,S17,1,female,24,anonymized,Serial_Dependence_U,2023.2.3,Win32,59.88023952096852,,,,,,10640.107799999952,120.0,6.0,10640.108,120.0,,,,10644.074099999903,10644.56569999981,10643.558599999906,10644.073899999858,10641.109899999858,10643.558399999858,10644.565799999951,10645.055099999903,10645.055299999953,10647.02219999981,798.0,10647.022299999951,1.0,10647.03119999981,6.0,5.0,185.0,8.0,1.0,1.4,0.7,Time
,,S17,1,female,24,anonymized,Serial_Dependence_U,2023.2.3,Win32,59.88023952096852,,,,,,10647.03169999981,115.0,6.0,10647.031799999952,115.0,,,,10650.98819999981,10651.486399999858,10650.471699999807,10650.988,10648.038399999858,10650.4715,10651.4865,10651.980299999952,10651.980299999952,10653.705599999905,666.0,10653.70569999981,1.0,10653.71769999981,6.0,6.0,186.0,28.0,1.0,1.4,0.7,Time
,,S17,1,female,24,anonymized,Serial_Dependence_U,2023.2.3,Win32,59.88023952096852,,,,,,10653.718099999904,166.0,6.0,10653.71819999981,166.0,,,,10657.2965,10657.795799999953,10656.787799999953,10657.296399999856,10654.721899999857,10656.78769999981,10657.795799999953,10658.29569999981,10658.295799999953,10660.4065,1118.0,10660.406599999906,4.0,10660.4195,6.0,7.0,187.0,11.0,1.0,1.0,0.3,Time
,,S17,1,female,24,anonymized,Serial_Dependence_U,2023.2.3,Win32,59.88023952096852,,,,,,10660.419899999855,115.0,6.0,10660.42019999981,115.0,,,,10664.16869999981,10664.667899999857,10663.65369999981,10664.168599999904,10661.42,10663.6535,10664.668,10665.161,10665.161,10668.6555,1819.0,10668.65569999981,5.0,10668.67369999981,6.0,8.0,188.0,27.0,1.0,1.2,0.7,Time
,,S17,1,female,24,anonymized,Serial_Dependence_U,2023.2.3,Win32,59.88023952096852,,,,,,10668.6745,172.0,6.0,10668.675299999952,172.0,,,,10672.2615,10672.759899999855,10671.744899999858,10672.261299999953,10669.696099999905,10671.7445,10672.76,10673.26,10673.26,10674.73819999981,450.0,10674.738299999954,1.0,10674.753599999904,6.0,9.0,189.0,16.0,1.0,1.0,0.7,Time
,,S17,1,female,24,anonymized,Serial_Dependence_U,2023.2.3,Win32,59.88023952096852,,,,,,10674.754,121.0,6.0,10674.754099999906,121.0,,,,10678.129399999858,10678.617299999953,10677.620899999858,10678.12919999981,10675.750299999952,10677.620099999906,10678.617399999855,10679.1155,10679.115599999905,10681.17569999981,730.0,10681.176,2.0,10681.19169999981,6.0,10.0,190.0,0.0,1.0,0.8,0.3,Time
,,S17,1,female,24,anonymized,Serial_Dependence_U,2023.2.3,Win32,59.88023952096852,,,,,,10681.192399999858,129.0,6.0,10681.192399999858,129.0,,,,10684.935299999954,10685.431299999953,10684.429599999905,10684.93419999981,10682.193399999858,10684.429299999952,10685.431299999953,10685.92469999981,10685.92469999981,10687.033699999807,133.0,10687.033799999952,1.0,10687.04669999981,6.0,11.0,191.0,17.0,1.0,1.2,0.7,Time
,,S17,1,female,24,anonymized,Serial_Dependence_U,2023.2.3,Win32,59.88023952096852,,,,,,10687.047099999903,167.0,6.0,10687.04719999981,167.0,,,,10691.009799999953,10691.5075,10690.501,10691.0095,10688.052399999857,10690.500899999855,10691.507599999904,10692.006399999858,10692.0065,10695.450799999951,2048.0,10695.450899999858,5.0,10695.468099999904,6.0,12.0,192.0,18.0,1.0,1.4,0.7,Time
,,S17,1,female,24,anonymized,Serial_Dependence_U,2023.2.3,Win32,59.88023952096852,,,,,,10695.46869999981,221.0,6.0,10695.468899999858,221.0,,,,10699.665399999858,10700.155399999858,10699.148299999952,10699.66519999981,10696.48219999981,10699.148099999906,10700.1555,10700.657,10700.657099999906,10703.393399999855,2096.0,10703.393399999855,5.0,10703.409599999904,6.0,13.0,193.0,4.0,1.0,1.6,0.3,Time
,,S17,1,female,24,anonymized,Serial_Dependence_U,2023.2.3,Win32,59.88023952096852,,,,,,10703.41,269.0,6.0,10703.41019999981,269.0,,,,10706.779399999858,10707.277799999953,10706.262799999951,10706.779299999953,10704.415399999858,10706.26269999981,10707.278,10707.769899999856,10707.769899999856,10713.063899999855,3301.0,10713.064,5.0,10713.077299999954,6.0,14.0,194.0,5.0,1.0,0.8,0.7,Time
,,S17,1,female,24,anonymized,Serial_Dependence_U,2023.2.3,Win32,59.88023952096852,,,,,,10713.07769999981,319.0,6.0,10713.077899999858,319.0,,,,10716.85219999981,10717.351099999903,10716.337299999952,10716.852,10714.087899999857,10716.337,10717.35119999981,10717.85119999981,10717.8515,10719.868299999953,366.0,10719.868399999858,1.0,10719.882,6.0,15.0,195.0,7.0,1.0,1.2,0.7,Time
,,S17,1,female,24,anonymized,Serial_Dependence_U,2023.2.3,Win32,59.88023952096852,,,,,,10719.8825,68.0,6.0,10719.88269999981,68.0,,,,10723.4685,10723.96669999981,10722.953199999807,10723.468299999951,10720.902899999855,10722.953,10723.96669999981,10724.466899999858,10724.467,10727.250599999905,2112.0,10727.25069999981,5.0,10727.2665,6.0,16.0,196.0,6.0,1.0,1.0,0.7,Time
,,S17,1,female,24,anonymized,Serial_Dependence_U,2023.2.3,Win32,59.88023952096852,,,,,,10727.267099999905,195.0,6.0,10727.267299999952,195.0,,,,10731.04919999981,10731.548299999951,10730.534399999857,10731.049,10728.267299999952,10730.534099999904,10731.548299999951,10732.0485,10732.048599999904,10734.4485,1640.0,10734.448599999903,5.0,10734.460399999858,6.0,17.0,197.0,22.0,1.0,1.2,0.3,Time
,,S17,1,female,24,anonymized,Serial_Dependence_U,2023.2.3,Win32,59.88023952096852,,,,,,10734.460899999858,348.0,6.0,10734.461,348.0,,,,10738.649,10739.147,10738.148,10738.648899999858,10735.483299999953,10738.147899999858,10739.147099999906,10739.647099999906,10739.647099999906,10741.013899999858,666.0,10741.014,1.0,10741.0285,6.0,18.0,198.0,24.0,1.0,1.6,0.3,Time
,,S17,1,female,24,anonymized,Serial_Dependence_U,2023.2.3,Win32,59.88023952096852,,,,,,10741.028899999856,153.0,6.0,10741.029,153.0,,,,10744.815299999951,10745.313399999855,10744.298399999858,10744.815,10742.031899999858,10744.29819999981,10745.313399999855,10745.812899999855,10745.813099999905,10749.412599999903,2038.0,10749.41269999981,5.0,10749.42769999981,6.0,19.0,199.0,12.0,1.0,1.2,0.3,Time
,,S17,1,female,24,anonymized,Serial_Dependence_U,2023.2.3,Win32,59.88023952096852,,,,,,10749.428299999952,110.0,6.0,10749.42869999981,110.0,,,,10752.779799999951,10753.277899999855,10752.262899999858,10752.779599999903,10750.430299999953,10752.26269999981,10753.278,10753.77769999981,10753.778,10755.061299999952,348.0,10755.061299999952,1.0,10755.075799999951,6.0,20.0,200.0,15.0,1.0,0.8,0.7,Time
,,S17,1,female,24,anonymized,Serial_Dependence_U,2023.2.3,Win32,59.88023952096852,,,,,,10755.076299999952,280.0,6.0,10755.076399999858,280.0,,,,10759.0775,10759.576799999952,10758.56119999981,10759.077399999858,10756.096599999904,10758.561,10759.576799999952,10760.077099999906,10760.07719999981,10764.09319999981,3732.0,10764.093299999951,5.0,10764.107299999952,6.0,21.0,201.0,13.0,1.0,1.4,0.3,Time
,,S17,1,female,24,anonymized,Serial_Dependence_U,2023.2.3,Win32,59.88023952096852,,,,,,10764.10769999981,152.0,6.0,10764.108299999953,152.0,,,,10767.69319999981,10768.191799999951,10767.176299999954,10767.693,10765.110599999904,10767.176199999809,10768.191799999951,10768.692399999858,10768.6925,10770.559599999906,1243.0,10770.559799999954,4.0,10770.574099999903,6.0,22.0,202.0,1.0,1.0,1.0,0.3,Time
,,S17,1,female,24,anonymized,Serial_Dependence_U,2023.2.3,Win32,59.88023952096852,,,,,,10770.575,41.0,6.0,10770.57519999981,41.0,,,,10774.57619999981,10775.073099999903,10774.05869999981,10774.576,10771.59319999981,10774.058399999858,10775.07319999981,10775.5745,10775.574799999951,10777.223599999905,936.0,10777.223799999952,1.0,10777.238,6.0,23.0,203.0,3.0,1.0,1.4,0.3,Time
,,S17,1,female,24,anonymized,Serial_Dependence_U,2023.2.3,Win32,59.88023952096852,,,,,,10777.2385,60.0,6.0,10777.238599999906,60.0,,,,10780.62419999981,10781.122699999809,10780.122699999809,10780.623899999857,10778.258399999855,10780.122599999906,10781.122799999954,10781.622899999857,10781.623,10782.922799999951,666.0,10782.922899999858,2.0,10782.938099999905,6.0,24.0,204.0,10.0,1.0,0.8,0.3,Time
,,S17,1,female,24,anonymized,Serial_Dependence_U,2023.2.3,Win32,59.88023952096852,,,,,,10782.93869999981,115.0,6.0,10782.939099999903,115.0,,,,10786.738799999954,10787.238,10786.22369999981,10786.738699999809,10783.957099999903,10786.223399999855,10787.238099999906,10787.737599999906,10787.73769999981,10789.122,600.0,10789.122099999906,1.0,10789.135899999856,6.0,25.0,205.0,2.0,1.0,1.2,0.3,Time
,,S17,1,female,24,anonymized,Serial_Dependence_U,2023.2.3,Win32,59.88023952096852,,,,,,10789.136299999953,100.0,6.0,10789.136799999951,100.0,,,,10793.305599999903,10793.803399999855,10792.788599999903,10793.305299999953,10790.155099999904,10792.788399999858,10793.8035,10794.303399999855,10794.3035,10795.671899999856,816.0,10795.672,1.0,10795.685399999857,6.0,26.0,206.0,29.0,1.0,1.6,0.7,Time
,,S17,1,female,24,anonymized,Serial_Dependence_U,2023.2.3,Win32,59.88023952096852,,,,,,10795.686,166.0,6.0,10795.686399999857,166.0,,,,10799.88719999981,10800.385899999856,10799.370399999858,10799.887,10796.704299999952,10799.37019999981,10800.386,10800.88669999981,10800.886799999951,10804.369299999951,2682.0,10804.3695,5.0,10804.3835,6.0,27.0,207.0,14.0,1.0,1.6,0.3,Time
,,S17,1,female,24,anonymized,Serial_Dependence_U,2023.2.3,Win32,59.88023952096852,,,,,,10804.384099999905,297.0,6.0,10804.384799999953,297.0,,,,10807.785599999905,10808.285099999905,10807.269599999903,10807.785299999952,10805.402299999952,10807.269399999856,10808.28569999981,10808.784799999952,10808.785,10813.817099999906,4343.0,10813.81719999981,5.0,10813.832799999953,6.0,28.0,208.0,20.0,1.0,0.8,0.3,Time
,,S17,1,female,24,anonymized,Serial_Dependence_U,2023.2.3,Win32,59.88023952096852,,,,,,10813.833399999858,305.0,6.0,10813.833599999904,305.0,,,,10817.833599999904,10818.334099999904,10817.317099999906,10817.833399999858,10814.850299999953,10817.317,10818.33419999981,10818.8325,10818.83269999981,10819.96669999981,413.0,10819.966899999858,1.0,10819.980899999857,6.0,29.0,209.0,23.0,1.0,1.4,0.3,Time
,,S17,1,female,24,anonymized,Serial_Dependence_U,2023.2.3,Win32,59.88023952096852,,,,,,10819.981599999905,263.0,7.0,10821.881599999906,263.0,s,1.8790999999037008,,10825.283399999858,10825.781599999906,10824.766199999807,10825.283099999906,10822.900599999904,10824.766,10825.781799999952,10826.280599999904,10826.28069999981,10827.563899999855,834.0,10827.564099999903,3.0,10827.5785,7.0,0.0,210.0,10.0,1.0,0.8,0.3,Time
,,S17,1,female,24,anonymized,Serial_Dependence_U,2023.2.3,Win32,59.88023952096852,,,,,,10827.579299999952,244.0,7.0,10827.582599999903,244.0,,,,10831.368299999953,10831.863099999906,10830.8645,10831.368099999903,10828.59719999981,10830.864299999952,10831.863099999906,10832.362599999906,10832.362799999952,10834.679299999952,1780.0,10834.679399999855,5.0,10834.693399999858,7.0,1.0,211.0,12.0,1.0,1.2,0.3,Time
,,S17,1,female,24,anonymized,Serial_Dependence_U,2023.2.3,Win32,59.88023952096852,,,,,,10834.693799999954,121.0,7.0,10834.693899999858,121.0,,,,10838.8805,10839.380799999954,10838.363299999954,10838.880299999952,10835.699,10838.363,10839.380899999858,10839.87869999981,10839.878799999951,10844.59569999981,4198.0,10844.596099999904,5.0,10844.609,7.0,2.0,212.0,4.0,1.0,1.6,0.3,Time
,,S17,1,female,24,anonymized,Serial_Dependence_U,2023.2.3,Win32,59.88023952096852,,,,,,10844.609599999903,188.0,7.0,10844.61,188.0,,,,10848.577899999858,10849.077599999906,10848.061,10848.57769999981,10845.627899999858,10848.060899999857,10849.077599999906,10849.57619999981,10849.57619999981,10851.642399999855,1448.0,10851.642399999855,3.0,10851.652799999953,7.0,3.0,213.0,18.0,1.0,1.4,0.7,Time
,,S17,1,female,24,anonymized,Serial_Dependence_U,2023.2.3,Win32,59.88023952096852,,,,,,10851.65319999981,140.0,7.0,10851.65319999981,140.0,,,,10855.412,10855.908599999904,10854.909399999857,10855.411899999855,10852.6435,10854.909199999807,10855.908799999952,10856.40969999981,10856.409899999857,10857.50819999981,334.0,10857.508299999952,1.0,10857.522899999858,7.0,4.0,214.0,2.0,1.0,1.2,0.3,Time
,,S17,1,female,24,anonymized,Serial_Dependence_U,2023.2.3,Win32,59.88023952096852,,,,,,10857.523399999858,343.0,7.0,10857.523799999954,343.0,,,,10861.10969999981,10861.60819999981,10860.592299999951,10861.1095,10858.527399999855,10860.592,10861.608299999953,10862.107599999905,10862.10769999981,10863.6405,930.0,10863.640599999906,2.0,10863.65419999981,7.0,5.0,215.0,11.0,1.0,1.0,0.3,Time
,,S17,1,female,24,anonymized,Serial_Dependence_U,2023.2.3,Win32,59.88023952096852,,,,,,10863.654599999903,242.0,7.0,10863.654799999951,242.0,,,,10867.6245,10868.1225,10867.108,10867.624299999952,10864.674599999906,10867.107899999855,10868.122599999906,10868.621799999954,10868.622,10869.457799999953,257.0,10869.457899999858,1.0,10869.469599999906,7.0,6.0,216.0,28.0,1.0,1.4,0.7,Time
,,S17,1,female,24,anonymized,Serial_Dependence_U,2023.2.3,Win32,59.88023952096852,,,,,,10869.469899999858,327.0,7.0,10869.470099999906,327.0,,,,10872.872899999857,10873.3715,10872.357,10872.872799999954,10870.489399999857,10872.356799999952,10873.371599999906,10873.871,10873.871,10874.772799999952,183.0,10874.773,1.0,10874.78669999981,7.0,7.0,217.0,0.0,1.0,0.8,0.3,Time
,,S17,1,female,24,anonymized,Serial_Dependence_U,2023.2.3,Win32,59.88023952096852,,,,,,10874.78769999981,16.0,7.0,10874.788099999903,16.0,,,,10878.15569999981,10878.65369999981,10877.640099999906,10878.1555,10875.80569999981,10877.639799999954,10878.654099999903,10879.153599999903,10879.153599999903,10880.2545,351.0,10880.254799999952,1.0,10880.268099999905,7.0,8.0,218.0,5.0,1.0,0.8,0.7,Time
,,S17,1,female,24,anonymized,Serial_Dependence_U,2023.2.3,Win32,59.88023952096852,,,,,,10880.268599999905,179.0,7.0,10880.26869999981,179.0,,,,10883.837699999807,10884.337299999952,10883.320299999952,10883.837599999904,10881.28719999981,10883.320099999904,10884.337299999952,10884.837699999807,10884.837799999952,10887.153099999903,517.0,10887.15319999981,1.0,10887.170599999905,7.0,9.0,219.0,26.0,1.0,1.0,0.7,Time
,,S17,1,female,24,anonymized,Serial_Dependence_U,2023.2.3,Win32,59.88023952096852,,,,,,10887.171299999953,88.0,7.0,10887.171399999856,88.0,,,,10890.517799999952,10891.017799999952,10890.00319999981,10890.517799999952,10888.169899999855,10890.003,10891.017899999855,10891.517899999855,10891.518,10893.518099999905,550.0,10893.51819999981,1.0,10893.530099999904,7.0,10.0,220.0,15.0,1.0,0.8,0.7,Time
,,S17,1,female,24,anonymized,Serial_Dependence_U,2023.2.3,Win32,59.88023952096852,,,,,,10893.5305,239.0,7.0,10893.53069999981,239.0,,,,10897.71819999981,10898.216799999953,10897.201299999952,10897.718,10894.55369999981,10897.201,10898.216899999858,10898.717,10898.717099999903,10900.833899999858,1550.0,10900.834,3.0,10900.8485,7.0,11.0,221.0,19.0,1.0,1.6,0.7,Time
,,S17,1,female,24,anonymized,Serial_Dependence_U,2023.2.3,Win32,59.88023952096852,,,,,,10900.849099999905,74.0,7.0,10900.849599999903,74.0,,,,10904.850099999903,10905.348299999952,10904.333599999904,10904.85,10901.867599999903,10904.3335,10905.348399999855,10905.848299999952,10905.848399999855,10907.349,870.0,10907.34919999981,1.0,10907.365399999857,7.0,12.0,222.0,13.0,1.0,1.4,0.3,Time
,,S17,1,female,24,anonymized,Serial_Dependence_U,2023.2.3,Win32,59.88023952096852,,,,,,10907.36619999981,78.0,7.0,10907.3665,78.0,,,,10911.115799999952,10911.615099999904,10910.599299999953,10911.115599999905,10908.3665,10910.599,10911.61519999981,10912.114,10912.114299999952,10921.129899999858,8164.0,10921.130099999906,5.0,10921.149699999807,7.0,13.0,223.0,17.0,1.0,1.2,0.7,Time
,,S17,1,female,24,anonymized,Serial_Dependence_U,2023.2.3,Win32,59.88023952096852,,,,,,10921.15069999981,322.0,7.0,10921.150799999952,322.0,,,,10924.7135,10925.211299999954,10924.197899999856,10924.713299999952,10922.148299999952,10924.19769999981,10925.2115,10925.710899999858,10925.711,10932.06,5930.0,10932.060199999809,5.0,10932.0745,7.0,14.0,224.0,16.0,1.0,1.0,0.7,Time
,,S17,1,female,24,anonymized,Serial_Dependence_U,2023.2.3,Win32,59.88023952096852,,,,,,10932.075,122.0,7.0,10932.075099999904,122.0,,,,10936.23169999981,10936.725899999858,10935.719299999952,10936.2315,10933.086,10935.719099999906,10936.726,10937.225799999953,10937.225899999858,10941.4025,3632.0,10941.402599999905,5.0,10941.415599999906,7.0,15.0,225.0,9.0,1.0,1.6,0.7,Time
,,S17,1,female,24,anonymized,Serial_Dependence_U,2023.2.3,Win32,59.88023952096852,,,,,,10941.416,25.0,7.0,10941.416099999906,25.0,,,,10945.403799999953,10945.914399999858,10944.887299999951,10945.403599999903,10942.417699999807,10944.886899999858,10945.914399999858,10946.407,10946.40719999981,10950.7835,3866.0,10950.783599999904,5.0,10950.796299999953,7.0,16.0,226.0,3.0,1.0,1.4,0.3,Time
,,S17,1,female,24,anonymized,Serial_Dependence_U,2023.2.3,Win32,59.88023952096852,,,,,,10950.79669999981,329.0,7.0,10950.796899999856,329.0,,,,10954.9895,10955.488799999954,10954.47369999981,10954.989399999857,10951.79969999981,10954.4735,10955.488899999857,10955.989,10955.989099999904,10960.904399999858,4264.0,10960.904599999903,5.0,10960.918599999904,7.0,17.0,227.0,14.0,1.0,1.6,0.3,Time
,,S17,1,female,24,anonymized,Serial_Dependence_U,2023.2.3,Win32,59.88023952096852,,,,,,10960.919,48.0,7.0,10960.91919999981,48.0,,,,10964.4725,10964.97019999981,10963.96419999981,10964.472399999857,10961.929299999952,10963.964,10964.970299999954,10965.478599999906,10965.478599999906,10969.64669999981,3564.0,10969.646799999951,5.0,10969.659299999952,7.0,18.0,228.0,6.0,1.0,1.0,0.7,Time
,,S17,1,female,24,anonymized,Serial_Dependence_U,2023.2.3,Win32,59.88023952096852,,,,,,10969.659599999904,295.0,7.0,10969.659799999952,295.0,,,,10973.412099999903,10973.90719999981,10972.893799999953,10973.412,10970.661099999905,10972.893599999905,10973.907299999952,10974.403599999903,10974.40369999981,10979.345899999858,4399.0,10979.346,5.0,10979.359299999953,7.0,19.0,229.0,7.0,1.0,1.2,0.7,Time
,,S17,1,female,24,anonymized,Serial_Dependence_U,2023.2.3,Win32,59.88023952096852,,,,,,10979.35969999981,173.0,7.0,10979.359899999858,173.0,,,,10982.73569999981,10983.234,10982.219099999906,10982.735399999858,10980.35369999981,10982.218799999951,10983.234099999903,10983.734,10983.734099999903,10990.368099999903,5605.0,10990.368299999953,5.0,10990.38119999981,7.0,20.0,230.0,20.0,1.0,0.8,0.3,Time
,,S17,1,female,24,anonymized,Serial_Dependence_U,2023.2.3,Win32,59.88023952096852,,,,,,10990.381699999807,9.0,7.0,10990.382199999807,9.0,,,,10994.366799999952,10994.8655,10993.850599999903,10994.3665,10991.383399999855,10993.850299999953,10994.86569999981,10995.364899999857,10995.365,11000.663899999858,4631.0,11000.664099999904,5.0,11000.68019999981,7.0,21.0,231.0,23.0,1.0,1.4,0.3,Time
,,S17,1,female,24,anonymized,Serial_Dependence_U,2023.2.3,Win32,59.88023952096852,,,,,,11000.68069999981,309.0,7.0,11000.680899999858,309.0,,,,11004.648399999858,11005.1475,11004.131,11004.64819999981,11001.698099999903,11004.130899999858,11005.147599999906,11005.647099999906,11005.64719999981,11007.89619999981,1617.0,11007.89619999981,4.0,11007.909099999904,7.0,22.0,232.0,8.0,1.0,1.4,0.7,Time
,,S17,1,female,24,anonymized,Serial_Dependence_U,2023.2.3,Win32,59.88023952096852,,,,,,11007.909599999904,305.0,7.0,11007.90969999981,305.0,,,,11012.078799999952,11012.577599999906,11011.564099999903,11012.0785,11008.9295,11011.563899999855,11012.577599999906,11013.077799999954,11013.077899999858,11016.261,2400.0,11016.261099999903,5.0,11016.272899999858,7.0,23.0,233.0,29.0,1.0,1.6,0.7,Time
,,S17,1,female,24,anonymized,Serial_Dependence_U,2023.2.3,Win32,59.88023952096852,,,,,,11016.27319999981,186.0,7.0,11016.273299999952,186.0,,,,11019.879299999951,11020.37669999981,11019.361799999951,11019.879099999906,11017.2965,11019.3615,11020.376799999953,11020.877299999953,11020.877399999858,11023.1275,1682.0,11023.12769999981,5.0,11023.143099999905,7.0,24.0,234.0,1.0,1.0,1.0,0.3,Time
,,S17,1,female,24,anonymized,Serial_Dependence_U,2023.2.3,Win32,59.88023952096852,,,,,,11023.143799999953,258.0,7.0,11023.144,258.0,,,,11026.909,11027.408799999952,11026.394899999856,11026.908799999952,11024.1455,11026.39419999981,11027.409,11027.907899999858,11027.908099999906,11032.140299999954,3096.0,11032.140299999954,5.0,11032.151399999855,7.0,25.0,235.0,27.0,1.0,1.2,0.7,Time
,,S17,1,female,24,anonymized,Serial_Dependence_U,2023.2.3,Win32,59.88023952096852,,,,,,11032.151799999952,280.0,7.0,11032.151799999952,280.0,,,,11036.341099999903,11036.840099999905,11035.825399999858,11036.341,11033.158299999954,11035.825299999951,11036.840099999905,11037.340399999855,11037.34069999981,11047.038399999858,9469.0,11047.0385,5.0,11047.051799999952,7.0,26.0,236.0,24.0,1.0,1.6,0.3,Time
,,S17,1,female,24,anonymized,Serial_Dependence_U,2023.2.3,Win32,59.88023952096852,,,,,,11047.052299999952,354.0,7.0,11047.052399999857,354.0,,,,11050.63819999981,11051.136799999951,11050.122,11050.638,11048.056,11050.121899999858,11051.136899999858,11051.636399999858,11051.636399999858,11057.039399999858,4771.0,11057.0395,5.0,11057.055399999856,7.0,27.0,237.0,21.0,1.0,1.0,0.3,Time
,,S17,1,female,24,anonymized,Serial_Dependence_U,2023.2.3,Win32,59.88023952096852,,,,,,11057.055899999858,235.0,7.0,11057.055899999858,235.0,,,,11060.42919999981,11060.925599999906,11059.9115,11060.429099999905,11058.078199999807,11059.911299999952,11060.92569999981,11061.4185,11061.41869999981,11067.685,5403.0,11067.685099999906,5.0,11067.702799999954,7.0,28.0,238.0,25.0,1.0,0.8,0.7,Time
,,S17,1,female,24,anonymized,Serial_Dependence_U,2023.2.3,Win32,59.88023952096852,,,,,,11067.703399999857,68.0,7.0,11067.7035,68.0,,,,11071.50119999981,11071.999299999952,11070.985099999903,11071.501,11068.718299999951,11070.984799999953,11071.999299999952,11072.4995,11072.4995,11078.848599999905,5786.0,11078.84869999981,5.0,11078.861399999858,7.0,29.0,239.0,22.0,1.0,1.2,0.3,Time
,,S17,1,female,24,anonymized,Serial_Dependence_U,2023.2.3,Win32,59.88023952096852,,,,,,11078.861799999951,174.0,8.0,11082.127899999858,174.0,s,3.2352999999529857,,11085.915599999906,11086.414299999951,11085.397599999906,11085.915299999951,11083.149399999858,11085.3975,11086.4145,11086.913799999951,11086.913799999951,11089.813,315.0,11089.813099999905,1.0,11089.828,8.0,0.0,240.0,7.0,1.0,1.2,0.7,Time
,,S17,1,female,24,anonymized,Serial_Dependence_U,2023.2.3,Win32,59.88023952096852,,,,,,11089.828599999904,148.0,8.0,11089.831399999855,148.0,,,,11094.01419999981,11094.5115,11093.497299999954,11094.014,11090.831,11093.49719999981,11094.5115,11095.012099999904,11095.01219999981,11101.428799999952,5881.0,11101.428799999952,5.0,11101.43969999981,8.0,1.0,241.0,4.0,1.0,1.6,0.3,Time
,,S17,1,female,24,anonymized,Serial_Dependence_U,2023.2.3,Win32,59.88023952096852,,,,,,11101.44,341.0,8.0,11101.44,341.0,,,,11105.245599999906,11105.74319999981,11104.7285,11105.245099999906,11102.461799999954,11104.72819999981,11105.743299999953,11106.245399999858,11106.2455,11107.045,786.0,11107.045099999905,1.0,11107.05719999981,8.0,2.0,242.0,22.0,1.0,1.2,0.3,Time
,,S17,1,female,24,anonymized,Serial_Dependence_U,2023.2.3,Win32,59.88023952096852,,,,,,11107.057599999906,88.0,8.0,11107.05769999981,88.0,,,,11110.843299999951,11111.3415,11110.328899999857,11110.843099999904,11108.0785,11110.328699999807,11111.341599999903,11111.84219999981,11111.842599999904,11112.409,551.0,11112.409,1.0,11112.42219999981,8.0,3.0,243.0,27.0,1.0,1.2,0.7,Time
,,S17,1,female,24,anonymized,Serial_Dependence_U,2023.2.3,Win32,59.88023952096852,,,,,,11112.422599999903,163.0,8.0,11112.422799999951,163.0,,,,11115.976899999858,11116.474599999903,11115.459399999858,11115.976599999904,11113.425899999858,11115.459299999951,11116.47469999981,11116.974899999856,11116.975,11120.0075,1548.0,11120.007599999904,5.0,11120.027299999952,8.0,4.0,244.0,26.0,1.0,1.0,0.7,Time
,,S17,1,female,24,anonymized,Serial_Dependence_U,2023.2.3,Win32,59.88023952096852,,,,,,11120.028099999903,266.0,8.0,11120.028299999953,266.0,,,,11123.792699999807,11124.2895,11123.275099999904,11123.7925,11121.0415,11123.275,11124.289599999904,11124.78919999981,11124.789299999951,11125.74019999981,369.0,11125.740399999857,1.0,11125.755799999954,8.0,5.0,245.0,17.0,1.0,1.2,0.7,Time
,,S17,1,female,24,anonymized,Serial_Dependence_U,2023.2.3,Win32,59.88023952096852,,,,,,11125.756599999906,140.0,8.0,11125.757,140.0,,,,11129.33919999981,11129.838799999952,11128.82319999981,11129.339,11126.756299999954,11128.822899999856,11129.838799999952,11130.338299999952,11130.338399999857,11134.37169999981,3016.0,11134.371899999858,5.0,11134.3865,8.0,6.0,246.0,11.0,1.0,1.0,0.3,Time
,,S17,1,female,24,anonymized,Serial_Dependence_U,2023.2.3,Win32,59.88023952096852,,,,,,11134.387099999904,144.0,8.0,11134.387599999904,144.0,,,,11137.988399999858,11138.486299999951,11137.471599999904,11137.988099999906,11135.404899999858,11137.471399999857,11138.486399999858,11138.987399999858,11138.9875,11140.003899999858,571.0,11140.004099999906,1.0,11140.01769999981,8.0,7.0,247.0,1.0,1.0,1.0,0.3,Time
,,S17,1,female,24,anonymized,Serial_Dependence_U,2023.2.3,Win32,59.88023952096852,,,,,,11140.018299999952,240.0,8.0,11140.01919999981,240.0,,,,11143.569899999857,11144.0685,11143.054799999953,11143.569799999952,11141.021399999858,11143.0545,11144.0685,11144.56869999981,11144.56869999981,11147.53769999981,2370.0,11147.537799999953,5.0,11147.550599999906,8.0,8.0,248.0,6.0,1.0,1.0,0.7,Time
,,S17,1,female,24,anonymized,Serial_Dependence_U,2023.2.3,Win32,59.88023952096852,,,,,,11147.551099999906,298.0,8.0,11147.551599999904,298.0,,,,11151.552299999952,11152.050799999954,11151.03619999981,11151.552,11148.569799999952,11151.035899999855,11152.050799999954,11152.550899999858,11152.551199999809,11154.46719999981,1501.0,11154.467299999951,4.0,11154.480399999857,8.0,9.0,249.0,23.0,1.0,1.4,0.3,Time
,,S17,1,female,24,anonymized,Serial_Dependence_U,2023.2.3,Win32,59.88023952096852,,,,,,11154.481099999904,176.0,8.0,11154.481299999952,176.0,,,,11158.484599999903,11158.982,11157.9675,11158.484399999856,11155.5015,11157.967299999951,11158.982099999905,11159.48269999981,11159.482899999855,11165.199,3929.0,11165.199099999903,5.0,11165.211,8.0,10.0,250.0,3.0,1.0,1.4,0.3,Time
,,S17,1,female,24,anonymized,Serial_Dependence_U,2023.2.3,Win32,59.88023952096852,,,,,,11165.211399999858,16.0,8.0,11165.2115,16.0,,,,11168.598399999855,11169.097399999857,11168.083299999951,11168.59819999981,11166.217399999858,11168.083099999903,11169.0975,11169.597799999952,11169.597899999855,11171.949599999904,1869.0,11171.949599999904,5.0,11171.962899999857,8.0,11.0,251.0,10.0,1.0,0.8,0.3,Time
,,S17,1,female,24,anonymized,Serial_Dependence_U,2023.2.3,Win32,59.88023952096852,,,,,,11171.964399999855,291.0,8.0,11171.964799999952,291.0,,,,11175.348299999952,11175.84569999981,11174.83119999981,11175.348099999905,11172.966099999903,11174.831,11175.845799999954,11176.347,11176.347099999904,11177.696299999952,831.0,11177.696399999855,3.0,11177.709299999951,8.0,12.0,252.0,0.0,1.0,0.8,0.3,Time
