Scale_setup.started,Scale_setup.stopped,participant,expid,session,sex,age,date,expName,psychopyVersion,OS,frameRate,PROLIFIC_PID,STUDY_ID,SESSION_ID,screen_scale_keys.started,screen_scale_keys.stopped,X Scale,Y Scale,rectangel_keys.started,rectangel_keys.stopped,Intro.started,Intro.stopped,key_resp_2.keys,key_resp_2.rt,key_resp_2.duration,block.started,Block_id,block.stopped,Block_resp_2.keys,Block_resp_2.rt,Block_resp_2.duration,ITI.started,ITI.stopped,Mask_2.started,Mask_2.stopped,M2.started,direction,M2.stopped,Cue.started,Cue.stopped,Response.started,Response.stopped,keyDuration,Feedback_Time.started,FeedbackID_T,Feedback_Time.stopped,trials.thisRepN,trials.thisTrialN,trials.thisN,trials.thisIndex,trials.ran,TimeDur,Coherence1,TrialType
0.0005,0.0009,S18,742322,001,FEMALE,35,2025-05-21_06h23.40.551,Serial_Dependence_U,2023.2.3,Win32,59.88023952,67e184908b8cd53c87ac90a2,682cd3dfea4e15896da7c0a6,682da963736b6d0aea59f348,,,,,,,,,,,,,,,,,,,,,,,,,,,,,,,,,,,,,,,,
,,S18,742322,001,FEMALE,35,2025-05-21_06h23.40.551,Serial_Dependence_U,2023.2.3,Win32,59.88023952,67e184908b8cd53c87ac90a2,682cd3dfea4e15896da7c0a6,682da963736b6d0aea59f348,0.0032,71.4588,0.0606,0.0584,71.459,84.8718,84.8722,199.1403,space,114.2271,,,,,,,,,,,,,,,,,,,,,,,,,,,,,,
,,S18,742322,001,FEMALE,35,2025-05-21_06h23.40.551,Serial_Dependence_U,2023.2.3,Win32,59.88023952,67e184908b8cd53c87ac90a2,682cd3dfea4e15896da7c0a6,682da963736b6d0aea59f348,,,,,,,,,,,,199.1494,0,204.1555,s,4.9953,,206.5049,207.0044,205.9885,206.5047,205.1723,27,205.9884,207.0046,207.5043,207.5047,213.5197,9999,213.5201,0,214.5191,0,0,0,0,1,0.8,0.3,Time
,,S18,742322,001,FEMALE,35,2025-05-21_06h23.40.551,Serial_Dependence_U,2023.2.3,Win32,59.88023952,67e184908b8cd53c87ac90a2,682cd3dfea4e15896da7c0a6,682da963736b6d0aea59f348,,,,,,,,,,,,214.5197,0,214.5216,,,,216.8687,217.3681,216.3521,216.8685,215.5357,34,216.352,217.3682,217.8679,217.8679,222.2009,1563.3,222.2011,5,223.1998,0,1,1,10,1,0.8,0.3,Time
,,S18,742322,001,FEMALE,35,2025-05-21_06h23.40.551,Serial_Dependence_U,2023.2.3,Win32,59.88023952,67e184908b8cd53c87ac90a2,682cd3dfea4e15896da7c0a6,682da963736b6d0aea59f348,,,,,,,,,,,,223.2001,0,223.2003,,,,225.9495,226.4488,225.4329,225.9494,224.2166,177,225.4328,226.4488,226.9488,226.9489,229.0486,784.6,229.0488,1,230.0479,0,2,2,7,1,1.2,0.7,Time
,,S18,742322,001,FEMALE,35,2025-05-21_06h23.40.551,Serial_Dependence_U,2023.2.3,Win32,59.88023952,67e184908b8cd53c87ac90a2,682cd3dfea4e15896da7c0a6,682da963736b6d0aea59f348,,,,,,,,,,,,230.0485,0,230.0488,,,,232.5813,233.0804,232.0689,232.5811,231.0525,142,232.0688,233.0804,233.5802,233.5802,235.135,1049.7,235.1351,3,236.1295,0,3,3,1,1,1,0.3,Time
,,S18,742322,001,FEMALE,35,2025-05-21_06h23.40.551,Serial_Dependence_U,2023.2.3,Win32,59.88023952,67e184908b8cd53c87ac90a2,682cd3dfea4e15896da7c0a6,682da963736b6d0aea59f348,,,,,,,,,,,,236.13,0,236.1302,,,,238.6674,239.162,238.1629,238.6673,237.1511,32,238.1627,239.1621,239.662,239.6621,241.05,966.3,241.0501,3,242.0446,0,4,4,26,1,1,0.7,Time
,,S18,742322,001,FEMALE,35,2025-05-21_06h23.40.551,Serial_Dependence_U,2023.2.3,Win32,59.88023952,67e184908b8cd53c87ac90a2,682cd3dfea4e15896da7c0a6,682da963736b6d0aea59f348,,,,,,,,,,,,242.045,0,242.0452,,,,244.3656,244.8604,243.8642,244.3656,243.0618,187,243.8641,244.8604,245.3605,245.3605,246.7936,791.3,246.7941,3,247.793,0,5,5,5,1,0.8,0.7,Time
,,S18,742322,001,FEMALE,35,2025-05-21_06h23.40.551,Serial_Dependence_U,2023.2.3,Win32,59.88023952,67e184908b8cd53c87ac90a2,682cd3dfea4e15896da7c0a6,682da963736b6d0aea59f348,,,,,,,,,,,,247.7935,0,247.7938,,,,250.5141,251.0088,250.0125,250.514,248.7935,278,250.0125,251.0088,251.5086,251.5087,252.2817,202,252.2823,1,253.2748,0,6,6,22,1,1.2,0.3,Time
,,S18,742322,001,FEMALE,35,2025-05-21_06h23.40.551,Serial_Dependence_U,2023.2.3,Win32,59.88023952,67e184908b8cd53c87ac90a2,682cd3dfea4e15896da7c0a6,682da963736b6d0aea59f348,,,,,,,,,,,,253.2752,0,253.2756,,,,256.5445,257.0404,256.0249,256.5443,254.4224,180,256.0247,257.0404,257.5403,257.5403,259.3615,1210.8,259.3617,2,260.3394,0,7,7,24,1,1.6,0.3,Time
,,S18,742322,001,FEMALE,35,2025-05-21_06h23.40.551,Serial_Dependence_U,2023.2.3,Win32,59.88023952,67e184908b8cd53c87ac90a2,682cd3dfea4e15896da7c0a6,682da963736b6d0aea59f348,,,,,,,,,,,,260.3402,0,260.3404,,,,263.2726,263.7718,262.7561,263.2724,261.3444,241,262.756,263.7719,264.2717,264.2719,266.3262,1461.4,266.3265,3,267.3209,0,8,8,8,1,1.4,0.7,Time
,,S18,742322,001,FEMALE,35,2025-05-21_06h23.40.551,Serial_Dependence_U,2023.2.3,Win32,59.88023952,67e184908b8cd53c87ac90a2,682cd3dfea4e15896da7c0a6,682da963736b6d0aea59f348,,,,,,,,,,,,267.3214,0,267.3217,,,,269.8753,270.37,269.3542,269.8752,268.3423,73,269.354,270.3701,270.8698,270.8699,272.3866,970.9,272.387,3,273.3859,0,9,9,6,1,1,0.7,Time
,,S18,742322,001,FEMALE,35,2025-05-21_06h23.40.551,Serial_Dependence_U,2023.2.3,Win32,59.88023952,67e184908b8cd53c87ac90a2,682cd3dfea4e15896da7c0a6,682da963736b6d0aea59f348,,,,,,,,,,,,273.3864,0,273.3866,,,,276.5218,277.0181,276.007,276.5216,274.4029,337,276.0069,277.0181,277.518,277.5181,279.318,1386.3,279.3182,2,280.3174,0,10,10,4,1,1.6,0.3,Time
,,S18,742322,001,FEMALE,35,2025-05-21_06h23.40.551,Serial_Dependence_U,2023.2.3,Win32,59.88023952,67e184908b8cd53c87ac90a2,682cd3dfea4e15896da7c0a6,682da963736b6d0aea59f348,,,,,,,,,,,,280.3179,0,280.3183,,,,282.6673,283.1665,282.1506,282.6671,281.3388,327,282.1504,283.1666,283.6665,283.6665,285.2044,1111.9,285.2046,5,286.1991,0,11,11,20,1,0.8,0.3,Time
,,S18,742322,001,FEMALE,35,2025-05-21_06h23.40.551,Serial_Dependence_U,2023.2.3,Win32,59.88023952,67e184908b8cd53c87ac90a2,682cd3dfea4e15896da7c0a6,682da963736b6d0aea59f348,,,,,,,,,,,,286.1995,0,286.1997,,,,289.3366,289.8313,288.8351,289.3365,287.2161,169,288.835,289.8313,290.3312,290.3312,292.2145,1448.8,292.2149,2,293.2137,0,12,12,29,1,1.6,0.7,Time
,,S18,742322,001,FEMALE,35,2025-05-21_06h23.40.551,Serial_Dependence_U,2023.2.3,Win32,59.88023952,67e184908b8cd53c87ac90a2,682cd3dfea4e15896da7c0a6,682da963736b6d0aea59f348,,,,,,,,,,,,293.2141,0,293.2143,,,,295.9339,296.4294,295.4333,295.9338,294.2186,308,295.4332,296.4294,296.9294,296.9294,298.951,1032.8,298.9511,2,299.9452,0,13,13,17,1,1.2,0.7,Time
,,S18,742322,001,FEMALE,35,2025-05-21_06h23.40.551,Serial_Dependence_U,2023.2.3,Win32,59.88023952,67e184908b8cd53c87ac90a2,682cd3dfea4e15896da7c0a6,682da963736b6d0aea59f348,,,,,,,,,,,,299.9457,0,299.946,,,,303.0828,303.5774,302.5662,303.0828,300.9623,311,302.5661,303.5774,304.0775,304.0775,305.6823,1201.5,305.6825,2,306.6766,0,14,14,9,1,1.6,0.7,Time
,,S18,742322,001,FEMALE,35,2025-05-21_06h23.40.551,Serial_Dependence_U,2023.2.3,Win32,59.88023952,67e184908b8cd53c87ac90a2,682cd3dfea4e15896da7c0a6,682da963736b6d0aea59f348,,,,,,,,,,,,306.677,0,306.6772,,,,309.4102,309.9089,308.898,309.4098,307.6937,319,308.8978,309.909,310.4089,310.4089,312.3304,1331,312.3306,4,313.3249,0,15,15,12,1,1.2,0.3,Time
,,S18,742322,001,FEMALE,35,2025-05-21_06h23.40.551,Serial_Dependence_U,2023.2.3,Win32,59.88023952,67e184908b8cd53c87ac90a2,682cd3dfea4e15896da7c0a6,682da963736b6d0aea59f348,,,,,,,,,,,,313.3254,0,313.3255,,,,316.4743,316.9738,315.9579,316.4742,314.3415,327,315.9578,316.9738,317.4736,317.4737,319.3903,1383.1,319.3905,2,320.3894,0,16,16,14,1,1.6,0.3,Time
,,S18,742322,001,FEMALE,35,2025-05-21_06h23.40.551,Serial_Dependence_U,2023.2.3,Win32,59.88023952,67e184908b8cd53c87ac90a2,682cd3dfea4e15896da7c0a6,682da963736b6d0aea59f348,,,,,,,,,,,,320.3898,0,320.39,,,,323.3395,323.8385,322.8229,323.3393,321.4109,265,322.8226,323.8385,324.3384,324.3384,326.2595,1481.6,326.2597,4,327.2542,0,17,17,18,1,1.4,0.7,Time
,,S18,742322,001,FEMALE,35,2025-05-21_06h23.40.551,Serial_Dependence_U,2023.2.3,Win32,59.88023952,67e184908b8cd53c87ac90a2,682cd3dfea4e15896da7c0a6,682da963736b6d0aea59f348,,,,,,,,,,,,327.2547,0,327.2549,,,,330.207,330.7034,329.6876,330.2069,328.2741,109,329.6874,330.7034,331.2032,331.2033,332.9748,1159.3,332.975,2,333.969,0,18,18,28,1,1.4,0.7,Time
,,S18,742322,001,FEMALE,35,2025-05-21_06h23.40.551,Serial_Dependence_U,2023.2.3,Win32,59.88023952,67e184908b8cd53c87ac90a2,682cd3dfea4e15896da7c0a6,682da963736b6d0aea59f348,,,,,,,,,,,,333.9694,0,333.9697,,,,337.107,337.6014,336.5885,337.1068,334.9862,171,336.5885,337.6015,338.1013,338.1014,340.2392,1525,340.2393,3,341.2338,0,19,19,19,1,1.6,0.7,Time
,,S18,742322,001,FEMALE,35,2025-05-21_06h23.40.551,Serial_Dependence_U,2023.2.3,Win32,59.88023952,67e184908b8cd53c87ac90a2,682cd3dfea4e15896da7c0a6,682da963736b6d0aea59f348,,,,,,,,,,,,341.2343,0,341.2346,,,,343.9866,344.4828,343.4701,343.9865,342.251,355,343.47,344.4829,344.9827,344.9827,346.7877,1356.3,346.7878,4,347.7819,0,20,20,27,1,1.2,0.7,Time
,,S18,742322,001,FEMALE,35,2025-05-21_06h23.40.551,Serial_Dependence_U,2023.2.3,Win32,59.88023952,67e184908b8cd53c87ac90a2,682cd3dfea4e15896da7c0a6,682da963736b6d0aea59f348,,,,,,,,,,,,347.7824,0,347.7828,,,,350.3199,350.8144,349.8035,350.3198,348.799,333,349.8034,350.8144,351.3142,351.3143,352.5361,683.4,352.5363,1,353.5303,0,21,21,21,1,1,0.3,Time
,,S18,742322,001,FEMALE,35,2025-05-21_06h23.40.551,Serial_Dependence_U,2023.2.3,Win32,59.88023952,67e184908b8cd53c87ac90a2,682cd3dfea4e15896da7c0a6,682da963736b6d0aea59f348,,,,,,,,,,,,353.5308,0,353.5311,,,,355.8804,356.3795,355.3683,355.8802,354.552,238,355.3682,356.3795,356.8793,356.8794,358.4177,1048.5,358.4178,5,359.4121,0,22,22,15,1,0.8,0.7,Time
,,S18,742322,001,FEMALE,35,2025-05-21_06h23.40.551,Serial_Dependence_U,2023.2.3,Win32,59.88023952,67e184908b8cd53c87ac90a2,682cd3dfea4e15896da7c0a6,682da963736b6d0aea59f348,,,,,,,,,,,,359.4126,0,359.4128,,,,361.9498,362.4446,361.4456,361.9497,360.4337,235,361.4455,362.4446,362.9444,362.9444,364.716,1116.1,364.7163,4,365.7103,0,23,23,16,1,1,0.7,Time
,,S18,742322,001,FEMALE,35,2025-05-21_06h23.40.551,Serial_Dependence_U,2023.2.3,Win32,59.88023952,67e184908b8cd53c87ac90a2,682cd3dfea4e15896da7c0a6,682da963736b6d0aea59f348,,,,,,,,,,,,365.7109,0,365.7111,,,,368.0481,368.5427,367.5272,368.048,366.715,40,367.5269,368.5428,369.0427,369.0427,371.164,1448.4,371.1641,5,372.1585,0,24,24,25,1,0.8,0.7,Time
,,S18,742322,001,FEMALE,35,2025-05-21_06h23.40.551,Serial_Dependence_U,2023.2.3,Win32,59.88023952,67e184908b8cd53c87ac90a2,682cd3dfea4e15896da7c0a6,682da963736b6d0aea59f348,,,,,,,,,,,,372.159,0,372.1593,,,,374.9128,375.4076,374.3917,374.9127,373.1799,154,374.3916,375.4077,375.9074,375.9074,377.6243,1142.9,377.6246,3,378.6234,0,25,25,2,1,1.2,0.3,Time
,,S18,742322,001,FEMALE,35,2025-05-21_06h23.40.551,Serial_Dependence_U,2023.2.3,Win32,59.88023952,67e184908b8cd53c87ac90a2,682cd3dfea4e15896da7c0a6,682da963736b6d0aea59f348,,,,,,,,,,,,378.6238,0,378.624,,,,381.1564,381.6559,380.6401,381.1563,379.6267,152,380.6399,381.6559,382.1557,382.1558,383.9723,1319.5,383.9726,5,384.9717,0,26,26,11,1,1,0.3,Time
,,S18,742322,001,FEMALE,35,2025-05-21_06h23.40.551,Serial_Dependence_U,2023.2.3,Win32,59.88023952,67e184908b8cd53c87ac90a2,682cd3dfea4e15896da7c0a6,682da963736b6d0aea59f348,,,,,,,,,,,,384.9722,0,384.9724,,,,387.9095,388.404,387.405,387.9094,385.9888,283,387.4047,388.404,388.9039,388.9039,390.5206,1066.4,390.5209,2,391.5198,0,27,27,13,1,1.4,0.3,Time
,,S18,742322,001,FEMALE,35,2025-05-21_06h23.40.551,Serial_Dependence_U,2023.2.3,Win32,59.88023952,67e184908b8cd53c87ac90a2,682cd3dfea4e15896da7c0a6,682da963736b6d0aea59f348,,,,,,,,,,,,391.5201,0,391.5203,,,,394.474,394.9688,393.9531,394.4739,392.537,45,393.9528,394.9688,395.4686,395.4686,396.7739,776.6,396.7741,1,397.768,0,28,28,23,1,1.4,0.3,Time
,,S18,742322,001,FEMALE,35,2025-05-21_06h23.40.551,Serial_Dependence_U,2023.2.3,Win32,59.88023952,67e184908b8cd53c87ac90a2,682cd3dfea4e15896da7c0a6,682da963736b6d0aea59f348,,,,,,,,,,,,397.7686,0,397.7689,,,,400.6873,401.1838,400.1846,400.6873,398.7722,247,400.1845,401.1838,401.6836,401.6837,403.7705,1242,403.7707,2,404.766,0,29,29,3,1,1.4,0.3,Time
,,S18,742322,001,FEMALE,35,2025-05-21_06h23.40.551,Serial_Dependence_U,2023.2.3,Win32,59.88023952,67e184908b8cd53c87ac90a2,682cd3dfea4e15896da7c0a6,682da963736b6d0aea59f348,,,,,,,,,,,,404.7665,1,408.2986,s,3.5008,,410.8515,411.3476,410.3317,410.8514,409.3155,232,410.3315,411.3476,411.8474,411.8475,413.3177,904.9,413.3179,2,414.3134,1,0,30,1,1,1,0.3,Time
,,S18,742322,001,FEMALE,35,2025-05-21_06h23.40.551,Serial_Dependence_U,2023.2.3,Win32,59.88023952,67e184908b8cd53c87ac90a2,682cd3dfea4e15896da7c0a6,682da963736b6d0aea59f348,,,,,,,,,,,,414.3146,1,414.317,,,,417.4465,417.9458,416.9336,417.4462,415.3168,204,416.9335,417.9458,418.4457,418.4457,420.116,1053.3,420.1161,1,421.1116,1,1,31,24,1,1.6,0.3,Time
,,S18,742322,001,FEMALE,35,2025-05-21_06h23.40.551,Serial_Dependence_U,2023.2.3,Win32,59.88023952,67e184908b8cd53c87ac90a2,682cd3dfea4e15896da7c0a6,682da963736b6d0aea59f348,,,,,,,,,,,,421.1121,1,421.1126,,,,423.6614,424.1607,423.148,423.6612,422.1319,324,423.1479,424.1608,424.6605,424.6606,425.2444,5.599999994,425.2449,1,426.2435,1,2,32,6,1,1,0.7,Time
,,S18,742322,001,FEMALE,35,2025-05-21_06h23.40.551,Serial_Dependence_U,2023.2.3,Win32,59.88023952,67e184908b8cd53c87ac90a2,682cd3dfea4e15896da7c0a6,682da963736b6d0aea59f348,,,,,,,,,,,,426.244,1,426.2443,,,,428.9769,429.4759,428.4637,428.9768,427.2476,359,428.4636,429.476,429.9758,429.9758,431.8958,983.2,431.896,2,432.8917,1,3,33,27,1,1.2,0.7,Time
,,S18,742322,001,FEMALE,35,2025-05-21_06h23.40.551,Serial_Dependence_U,2023.2.3,Win32,59.88023952,67e184908b8cd53c87ac90a2,682cd3dfea4e15896da7c0a6,682da963736b6d0aea59f348,,,,,,,,,,,,432.8925,1,432.8929,,,,435.8418,436.3408,435.3253,435.8416,433.9109,185,435.3251,436.3408,436.8407,436.8408,439.3439,1080.4,439.3441,2,440.3396,1,4,34,8,1,1.4,0.7,Time
,,S18,742322,001,FEMALE,35,2025-05-21_06h23.40.551,Serial_Dependence_U,2023.2.3,Win32,59.88023952,67e184908b8cd53c87ac90a2,682cd3dfea4e15896da7c0a6,682da963736b6d0aea59f348,,,,,,,,,,,,440.34,1,440.3403,,,,442.873,443.3721,442.3565,442.8727,441.3424,151,442.3562,443.3721,443.8719,443.872,445.4054,1117,445.4057,4,446.4046,1,5,35,11,1,1,0.3,Time
,,S18,742322,001,FEMALE,35,2025-05-21_06h23.40.551,Serial_Dependence_U,2023.2.3,Win32,59.88023952,67e184908b8cd53c87ac90a2,682cd3dfea4e15896da7c0a6,682da963736b6d0aea59f348,,,,,,,,,,,,446.405,1,446.4052,,,,449.1422,449.637,448.6416,449.142,447.4215,42,448.6414,449.637,450.1369,450.1369,451.4372,773.2,451.4375,1,452.4363,1,6,36,2,1,1.2,0.3,Time
,,S18,742322,001,FEMALE,35,2025-05-21_06h23.40.551,Serial_Dependence_U,2023.2.3,Win32,59.88023952,67e184908b8cd53c87ac90a2,682cd3dfea4e15896da7c0a6,682da963736b6d0aea59f348,,,,,,,,,,,,452.4369,1,452.4372,,,,455.5694,456.0686,455.0558,455.5692,453.4535,45,455.0557,456.0687,456.5685,456.5685,458.09,1065.9,458.0902,1,459.0845,1,7,37,19,1,1.6,0.7,Time
,,S18,742322,001,FEMALE,35,2025-05-21_06h23.40.551,Serial_Dependence_U,2023.2.3,Win32,59.88023952,67e184908b8cd53c87ac90a2,682cd3dfea4e15896da7c0a6,682da963736b6d0aea59f348,,,,,,,,,,,,459.0851,1,459.0853,,,,462.2213,462.7168,461.7178,462.2212,460.106,43,461.7176,462.7168,463.2166,463.2167,464.8214,1174.4,464.8216,2,465.8159,1,8,38,14,1,1.6,0.3,Time
,,S18,742322,001,FEMALE,35,2025-05-21_06h23.40.551,Serial_Dependence_U,2023.2.3,Win32,59.88023952,67e184908b8cd53c87ac90a2,682cd3dfea4e15896da7c0a6,682da963736b6d0aea59f348,,,,,,,,,,,,465.8164,1,465.8168,,,,468.3491,468.8484,467.8327,468.3489,466.8207,122,467.8324,468.8484,469.3483,469.3483,471.4698,1116.1,471.4699,4,472.4641,1,9,39,26,1,1,0.7,Time
,,S18,742322,001,FEMALE,35,2025-05-21_06h23.40.551,Serial_Dependence_U,2023.2.3,Win32,59.88023952,67e184908b8cd53c87ac90a2,682cd3dfea4e15896da7c0a6,682da963736b6d0aea59f348,,,,,,,,,,,,472.4646,1,472.4649,,,,474.8142,475.3132,474.2976,474.8139,473.4812,264,474.2974,475.3132,475.8131,475.8132,477.7463,1227.8,477.7467,5,478.7456,1,10,40,15,1,0.8,0.7,Time
,,S18,742322,001,FEMALE,35,2025-05-21_06h23.40.551,Serial_Dependence_U,2023.2.3,Win32,59.88023952,67e184908b8cd53c87ac90a2,682cd3dfea4e15896da7c0a6,682da963736b6d0aea59f348,,,,,,,,,,,,478.7461,1,478.7463,,,,481.0956,481.595,480.5791,481.0954,479.767,252,480.5789,481.595,482.0947,482.0947,483.0663,948.8,483.0665,4,484.0609,1,11,41,10,1,0.8,0.3,Time
,,S18,742322,001,FEMALE,35,2025-05-21_06h23.40.551,Serial_Dependence_U,2023.2.3,Win32,59.88023952,67e184908b8cd53c87ac90a2,682cd3dfea4e15896da7c0a6,682da963736b6d0aea59f348,,,,,,,,,,,,484.0613,1,484.0616,,,,487.0134,487.5098,486.4996,487.0133,485.0824,317,486.4985,487.5098,488.0097,488.0097,489.6144,1132.3,489.6146,2,490.609,1,12,42,3,1,1.4,0.3,Time
,,S18,742322,001,FEMALE,35,2025-05-21_06h23.40.551,Serial_Dependence_U,2023.2.3,Win32,59.88023952,67e184908b8cd53c87ac90a2,682cd3dfea4e15896da7c0a6,682da963736b6d0aea59f348,,,,,,,,,,,,490.6094,1,490.6098,,,,493.7466,494.2413,493.2424,493.7465,491.6306,75,493.2423,494.2413,494.7412,494.7413,496.396,1216.2,496.3961,2,497.3905,1,13,43,4,1,1.6,0.3,Time
,,S18,742322,001,FEMALE,35,2025-05-21_06h23.40.551,Serial_Dependence_U,2023.2.3,Win32,59.88023952,67e184908b8cd53c87ac90a2,682cd3dfea4e15896da7c0a6,682da963736b6d0aea59f348,,,,,,,,,,,,497.391,1,497.3913,,,,499.9234,500.4229,499.4126,499.9234,498.3937,85,499.4115,500.423,500.9228,500.9228,502.8277,660.4,502.8279,1,503.822,1,14,44,21,1,1,0.3,Time
,,S18,742322,001,FEMALE,35,2025-05-21_06h23.40.551,Serial_Dependence_U,2023.2.3,Win32,59.88023952,67e184908b8cd53c87ac90a2,682cd3dfea4e15896da7c0a6,682da963736b6d0aea59f348,,,,,,,,,,,,503.8225,1,503.8228,,,,506.7583,507.2545,506.2551,506.7582,504.8389,293,506.255,507.2545,507.7543,507.7544,509.7577,1331.7,509.7577,3,510.7535,1,15,45,13,1,1.4,0.3,Time
,,S18,742322,001,FEMALE,35,2025-05-21_06h23.40.551,Serial_Dependence_U,2023.2.3,Win32,59.88023952,67e184908b8cd53c87ac90a2,682cd3dfea4e15896da7c0a6,682da963736b6d0aea59f348,,,,,,,,,,,,510.7541,1,510.7544,,,,513.6868,514.1858,513.1746,513.6865,511.7705,161,513.1745,514.1858,514.6856,514.6857,516.7906,1351,516.7908,3,517.7849,1,16,46,28,1,1.4,0.7,Time
,,S18,742322,001,FEMALE,35,2025-05-21_06h23.40.551,Serial_Dependence_U,2023.2.3,Win32,59.88023952,67e184908b8cd53c87ac90a2,682cd3dfea4e15896da7c0a6,682da963736b6d0aea59f348,,,,,,,,,,,,517.7857,1,517.7862,,,,520.3227,520.8173,519.8183,520.3225,518.8017,359,519.8181,520.8173,521.3172,521.3172,523.5717,1132.8,523.5718,4,524.5663,1,17,47,16,1,1,0.7,Time
,,S18,742322,001,FEMALE,35,2025-05-21_06h23.40.551,Serial_Dependence_U,2023.2.3,Win32,59.88023952,67e184908b8cd53c87ac90a2,682cd3dfea4e15896da7c0a6,682da963736b6d0aea59f348,,,,,,,,,,,,524.5668,1,524.567,,,,527.3206,527.8154,526.7996,527.3205,525.5876,163,526.7993,527.8154,528.3152,528.3153,530.4152,986.5,530.4155,2,531.4144,1,18,48,17,1,1.2,0.7,Time
,,S18,742322,001,FEMALE,35,2025-05-21_06h23.40.551,Serial_Dependence_U,2023.2.3,Win32,59.88023952,67e184908b8cd53c87ac90a2,682cd3dfea4e15896da7c0a6,682da963736b6d0aea59f348,,,,,,,,,,,,531.4148,1,531.4152,,,,533.7523,534.2469,533.2478,533.7522,532.4316,82,533.2477,534.2469,534.7468,534.7468,536.5183,1166.4,536.5184,5,537.5127,1,19,49,20,1,0.8,0.3,Time
,,S18,742322,001,FEMALE,35,2025-05-21_06h23.40.551,Serial_Dependence_U,2023.2.3,Win32,59.88023952,67e184908b8cd53c87ac90a2,682cd3dfea4e15896da7c0a6,682da963736b6d0aea59f348,,,,,,,,,,,,537.5132,1,537.5134,,,,540.2655,540.7618,539.7504,540.2654,538.5342,349,539.7503,540.7619,541.2617,541.2617,542.9993,1232.4,542.9994,3,543.9941,1,20,50,7,1,1.2,0.7,Time
,,S18,742322,001,FEMALE,35,2025-05-21_06h23.40.551,Serial_Dependence_U,2023.2.3,Win32,59.88023952,67e184908b8cd53c87ac90a2,682cd3dfea4e15896da7c0a6,682da963736b6d0aea59f348,,,,,,,,,,,,543.9944,1,543.9946,,,,546.9322,547.4266,546.4109,546.932,544.9981,35,546.4107,547.4266,547.9265,547.9266,549.981,1326.3,549.9812,2,550.9757,1,21,51,18,1,1.4,0.7,Time
,,S18,742322,001,FEMALE,35,2025-05-21_06h23.40.551,Serial_Dependence_U,2023.2.3,Win32,59.88023952,67e184908b8cd53c87ac90a2,682cd3dfea4e15896da7c0a6,682da963736b6d0aea59f348,,,,,,,,,,,,550.9763,1,550.9765,,,,553.7299,554.2247,553.2091,553.7299,551.9925,93,553.2089,554.2247,554.7246,554.7246,556.696,1281.5,556.6961,4,557.6904,1,22,52,22,1,1.2,0.3,Time
,,S18,742322,001,FEMALE,35,2025-05-21_06h23.40.551,Serial_Dependence_U,2023.2.3,Win32,59.88023952,67e184908b8cd53c87ac90a2,682cd3dfea4e15896da7c0a6,682da963736b6d0aea59f348,,,,,,,,,,,,557.6908,1,557.6911,,,,560.6432,561.1395,560.1281,560.643,558.7074,222,560.1279,561.1395,561.6394,561.6394,563.7605,1499.2,563.7607,4,564.7552,1,23,53,23,1,1.4,0.3,Time
,,S18,742322,001,FEMALE,35,2025-05-21_06h23.40.551,Serial_Dependence_U,2023.2.3,Win32,59.88023952,67e184908b8cd53c87ac90a2,682cd3dfea4e15896da7c0a6,682da963736b6d0aea59f348,,,,,,,,,,,,564.7559,1,564.7561,,,,567.8927,568.3874,567.3763,567.8926,565.7722,219,567.3761,568.3874,568.8874,568.8875,570.8587,1365,570.8588,2,571.8532,1,24,54,9,1,1.6,0.7,Time
,,S18,742322,001,FEMALE,35,2025-05-21_06h23.40.551,Serial_Dependence_U,2023.2.3,Win32,59.88023952,67e184908b8cd53c87ac90a2,682cd3dfea4e15896da7c0a6,682da963736b6d0aea59f348,,,,,,,,,,,,571.8538,1,571.854,,,,574.2077,574.7023,573.6869,574.2075,572.87,143,573.6868,574.7023,575.2022,575.2023,576.9738,1165.3,576.974,5,577.9681,1,25,55,5,1,0.8,0.7,Time
,,S18,742322,001,FEMALE,35,2025-05-21_06h23.40.551,Serial_Dependence_U,2023.2.3,Win32,59.88023952,67e184908b8cd53c87ac90a2,682cd3dfea4e15896da7c0a6,682da963736b6d0aea59f348,,,,,,,,,,,,577.9687,1,577.9688,,,,580.7051,581.2007,580.1894,580.705,578.9852,37,580.1893,581.2007,581.7005,581.7006,582.7007,528.5,582.701,1,583.7,1,26,56,12,1,1.2,0.3,Time
,,S18,742322,001,FEMALE,35,2025-05-21_06h23.40.551,Serial_Dependence_U,2023.2.3,Win32,59.88023952,67e184908b8cd53c87ac90a2,682cd3dfea4e15896da7c0a6,682da963736b6d0aea59f348,,,,,,,,,,,,583.7004,1,583.7007,,,,586.0334,586.5325,585.5212,586.0331,584.7004,143,585.5211,586.5325,587.0323,587.0323,588.3159,938.6,588.3162,4,589.315,1,27,57,25,1,0.8,0.7,Time
,,S18,742322,001,FEMALE,35,2025-05-21_06h23.40.551,Serial_Dependence_U,2023.2.3,Win32,59.88023952,67e184908b8cd53c87ac90a2,682cd3dfea4e15896da7c0a6,682da963736b6d0aea59f348,,,,,,,,,,,,589.3154,1,589.3157,,,,592.4526,592.9472,591.9358,592.4525,590.3322,178,591.9357,592.9473,593.4472,593.4473,595.102,1108.9,595.1021,1,596.0965,1,28,58,29,1,1.6,0.7,Time
,,S18,742322,001,FEMALE,35,2025-05-21_06h23.40.551,Serial_Dependence_U,2023.2.3,Win32,59.88023952,67e184908b8cd53c87ac90a2,682cd3dfea4e15896da7c0a6,682da963736b6d0aea59f348,,,,,,,,,,,,596.0969,1,596.0972,,,,598.4341,598.9289,597.9299,598.434,597.1179,230,597.9297,598.929,599.4288,599.4289,600.8835,1015.2,600.8837,4,601.8782,1,29,59,0,1,0.8,0.3,Time
,,S18,742322,001,FEMALE,35,2025-05-21_06h23.40.551,Serial_Dependence_U,2023.2.3,Win32,59.88023952,67e184908b8cd53c87ac90a2,682cd3dfea4e15896da7c0a6,682da963736b6d0aea59f348,,,,,,,,,,,,601.8787,2,605.7106,s,3.7989,,608.6646,609.1595,608.1438,608.6645,606.7275,103,608.1436,609.1595,609.6593,609.6594,611.3307,1172.9,611.3309,2,612.3253,2,0,60,8,1,1.4,0.7,Time
,,S18,742322,001,FEMALE,35,2025-05-21_06h23.40.551,Serial_Dependence_U,2023.2.3,Win32,59.88023952,67e184908b8cd53c87ac90a2,682cd3dfea4e15896da7c0a6,682da963736b6d0aea59f348,,,,,,,,,,,,612.3257,2,612.3276,,,,615.478,615.9743,614.9584,615.4779,613.3468,194,614.9583,615.9743,616.4741,616.4742,618.2743,1320.8,618.2746,2,619.2733,2,1,61,4,1,1.6,0.3,Time
,,S18,742322,001,FEMALE,35,2025-05-21_06h23.40.551,Serial_Dependence_U,2023.2.3,Win32,59.88023952,67e184908b8cd53c87ac90a2,682cd3dfea4e15896da7c0a6,682da963736b6d0aea59f348,,,,,,,,,,,,619.2738,2,619.274,,,,622.2096,622.7057,621.7067,622.2095,620.2901,276,621.7066,622.7057,623.2056,623.2056,625.044,1367.7,625.0442,3,626.0381,2,2,62,28,1,1.4,0.7,Time
,,S18,742322,001,FEMALE,35,2025-05-21_06h23.40.551,Serial_Dependence_U,2023.2.3,Win32,59.88023952,67e184908b8cd53c87ac90a2,682cd3dfea4e15896da7c0a6,682da963736b6d0aea59f348,,,,,,,,,,,,626.0386,2,626.0387,,,,629.188,629.6871,628.6711,629.1878,627.0596,89,628.671,629.6871,630.187,630.187,632.3537,1722.9,632.3539,4,633.3528,2,3,63,9,1,1.6,0.7,Time
,,S18,742322,001,FEMALE,35,2025-05-21_06h23.40.551,Serial_Dependence_U,2023.2.3,Win32,59.88023952,67e184908b8cd53c87ac90a2,682cd3dfea4e15896da7c0a6,682da963736b6d0aea59f348,,,,,,,,,,,,633.3534,2,633.3536,,,,635.6859,636.1853,635.1695,635.6857,634.3576,148,635.1693,636.1853,636.6852,636.6852,638.4565,1201,638.4567,5,639.451,2,4,64,20,1,0.8,0.3,Time
,,S18,742322,001,FEMALE,35,2025-05-21_06h23.40.551,Serial_Dependence_U,2023.2.3,Win32,59.88023952,67e184908b8cd53c87ac90a2,682cd3dfea4e15896da7c0a6,682da963736b6d0aea59f348,,,,,,,,,,,,639.4514,2,639.4516,,,,642.0054,642.5002,641.4855,642.0053,640.4726,325,641.4842,642.5003,643.0001,643.0002,644.8335,1341.7,644.8338,5,645.8327,2,5,65,11,1,1,0.3,Time
,,S18,742322,001,FEMALE,35,2025-05-21_06h23.40.551,Serial_Dependence_U,2023.2.3,Win32,59.88023952,67e184908b8cd53c87ac90a2,682cd3dfea4e15896da7c0a6,682da963736b6d0aea59f348,,,,,,,,,,,,645.8332,2,645.8334,,,,648.1659,648.6653,647.6493,648.1656,646.8362,13,647.6491,648.6653,649.1652,649.1652,650.8696,1099.5,650.8698,5,651.8643,2,6,66,15,1,0.8,0.7,Time
,,S18,742322,001,FEMALE,35,2025-05-21_06h23.40.551,Serial_Dependence_U,2023.2.3,Win32,59.88023952,67e184908b8cd53c87ac90a2,682cd3dfea4e15896da7c0a6,682da963736b6d0aea59f348,,,,,,,,,,,,651.8647,2,651.8649,,,,654.1858,654.6802,653.6811,654.1857,652.8692,265,653.681,654.6802,655.1801,655.1801,656.8683,1041.4,656.8685,5,657.8626,2,7,67,0,1,0.8,0.3,Time
,,S18,742322,001,FEMALE,35,2025-05-21_06h23.40.551,Serial_Dependence_U,2023.2.3,Win32,59.88023952,67e184908b8cd53c87ac90a2,682cd3dfea4e15896da7c0a6,682da963736b6d0aea59f348,,,,,,,,,,,,657.863,2,657.8632,,,,660.8172,661.3116,660.3004,660.817,658.8843,151,660.3003,661.3117,661.8116,661.8116,662.6831,366.3,662.6834,1,663.6777,2,8,68,13,1,1.4,0.3,Time
,,S18,742322,001,FEMALE,35,2025-05-21_06h23.40.551,Serial_Dependence_U,2023.2.3,Win32,59.88023952,67e184908b8cd53c87ac90a2,682cd3dfea4e15896da7c0a6,682da963736b6d0aea59f348,,,,,,,,,,,,663.6783,2,663.6788,,,,666.8152,667.31,666.2943,666.8151,664.6809,159,666.2941,667.31,667.8099,667.8099,669.9646,1449.6,669.9648,2,670.9591,2,9,69,24,1,1.6,0.3,Time
,,S18,742322,001,FEMALE,35,2025-05-21_06h23.40.551,Serial_Dependence_U,2023.2.3,Win32,59.88023952,67e184908b8cd53c87ac90a2,682cd3dfea4e15896da7c0a6,682da963736b6d0aea59f348,,,,,,,,,,,,670.9595,2,670.9596,,,,673.7089,674.2081,673.1935,673.7087,671.9807,262,673.1921,674.2082,674.708,674.708,677.0129,1632.5,677.0131,5,678.0071,2,10,70,22,1,1.2,0.3,Time
,,S18,742322,001,FEMALE,35,2025-05-21_06h23.40.551,Serial_Dependence_U,2023.2.3,Win32,59.88023952,67e184908b8cd53c87ac90a2,682cd3dfea4e15896da7c0a6,682da963736b6d0aea59f348,,,,,,,,,,,,678.0077,2,678.0081,,,,680.9447,681.4395,680.4417,680.9445,679.0241,110,680.4401,681.4395,681.9393,681.9393,683.7941,1349.6,683.7943,3,684.7885,2,11,71,18,1,1.4,0.7,Time
,,S18,742322,001,FEMALE,35,2025-05-21_06h23.40.551,Serial_Dependence_U,2023.2.3,Win32,59.88023952,67e184908b8cd53c87ac90a2,682cd3dfea4e15896da7c0a6,682da963736b6d0aea59f348,,,,,,,,,,,,684.789,2,684.7893,,,,687.9382,688.4375,687.4217,687.9379,685.8054,251,687.4215,688.4375,688.9374,688.9375,691.7251,1292.7,691.7252,2,692.7196,2,12,72,14,1,1.6,0.3,Time
,,S18,742322,001,FEMALE,35,2025-05-21_06h23.40.551,Serial_Dependence_U,2023.2.3,Win32,59.88023952,67e184908b8cd53c87ac90a2,682cd3dfea4e15896da7c0a6,682da963736b6d0aea59f348,,,,,,,,,,,,692.7202,2,692.7204,,,,695.2698,695.7688,694.7528,695.2697,693.7411,92,694.7527,695.7688,696.2686,696.2687,698.5218,1409.2,698.522,5,699.5177,2,13,73,21,1,1,0.3,Time
,,S18,742322,001,FEMALE,35,2025-05-21_06h23.40.551,Serial_Dependence_U,2023.2.3,Win32,59.88023952,67e184908b8cd53c87ac90a2,682cd3dfea4e15896da7c0a6,682da963736b6d0aea59f348,,,,,,,,,,,,699.5183,2,699.5185,,,,702.0678,702.5668,701.5512,702.0676,700.5391,71,701.5509,702.5669,703.0667,703.0668,704.5835,1067.6,704.5838,4,705.5827,2,14,74,26,1,1,0.7,Time
,,S18,742322,001,FEMALE,35,2025-05-21_06h23.40.551,Serial_Dependence_U,2023.2.3,Win32,59.88023952,67e184908b8cd53c87ac90a2,682cd3dfea4e15896da7c0a6,682da963736b6d0aea59f348,,,,,,,,,,,,705.5831,2,705.5834,,,,708.1373,708.6319,707.6163,708.1372,706.5999,235,707.6161,708.632,709.1318,709.1319,710.803,1210.2,710.8032,4,711.7977,2,15,75,6,1,1,0.7,Time
,,S18,742322,001,FEMALE,35,2025-05-21_06h23.40.551,Serial_Dependence_U,2023.2.3,Win32,59.88023952,67e184908b8cd53c87ac90a2,682cd3dfea4e15896da7c0a6,682da963736b6d0aea59f348,,,,,,,,,,,,711.7983,2,711.7985,,,,714.514,715.0135,714.0022,714.5138,712.801,177,714.0021,715.0135,715.5134,715.5134,717.3347,1300.3,717.3349,4,718.3292,2,16,76,7,1,1.2,0.7,Time
,,S18,742322,001,FEMALE,35,2025-05-21_06h23.40.551,Serial_Dependence_U,2023.2.3,Win32,59.88023952,67e184908b8cd53c87ac90a2,682cd3dfea4e15896da7c0a6,682da963736b6d0aea59f348,,,,,,,,,,,,718.3296,2,718.3299,,,,721.4623,721.9615,720.9458,721.4622,719.334,28,720.9456,721.9615,722.4614,722.4615,724.333,1166.3,724.3331,2,725.3272,2,17,77,29,1,1.6,0.7,Time
,,S18,742322,001,FEMALE,35,2025-05-21_06h23.40.551,Serial_Dependence_U,2023.2.3,Win32,59.88023952,67e184908b8cd53c87ac90a2,682cd3dfea4e15896da7c0a6,682da963736b6d0aea59f348,,,,,,,,,,,,725.3276,2,725.328,,,,727.665,728.1598,727.1484,727.665,726.3473,60,727.1483,728.1598,728.6598,728.6598,730.4981,1199,730.4982,5,731.4922,2,18,78,25,1,0.8,0.7,Time
,,S18,742322,001,FEMALE,35,2025-05-21_06h23.40.551,Serial_Dependence_U,2023.2.3,Win32,59.88023952,67e184908b8cd53c87ac90a2,682cd3dfea4e15896da7c0a6,682da963736b6d0aea59f348,,,,,,,,,,,,731.4927,2,731.493,,,,734.0088,734.5081,733.4968,734.0086,732.4955,42,733.4967,734.5081,735.008,735.008,736.7796,1048.6,736.7798,3,737.7739,2,19,79,16,1,1,0.7,Time
,,S18,742322,001,FEMALE,35,2025-05-21_06h23.40.551,Serial_Dependence_U,2023.2.3,Win32,59.88023952,67e184908b8cd53c87ac90a2,682cd3dfea4e15896da7c0a6,682da963736b6d0aea59f348,,,,,,,,,,,,737.7744,2,737.7746,,,,740.107,740.6064,739.5952,740.1069,738.7909,227,739.5951,740.6064,741.1063,741.1063,743.1775,934.4,743.1777,4,744.1721,2,20,80,5,1,0.8,0.7,Time
,,S18,742322,001,FEMALE,35,2025-05-21_06h23.40.551,Serial_Dependence_U,2023.2.3,Win32,59.88023952,67e184908b8cd53c87ac90a2,682cd3dfea4e15896da7c0a6,682da963736b6d0aea59f348,,,,,,,,,,,,744.1726,2,744.1728,,,,746.7221,747.2212,746.2099,746.7218,745.1889,154,746.2098,747.2212,747.7211,747.7212,749.2712,673.9,749.2716,1,750.2705,2,21,81,1,1,1,0.3,Time
,,S18,742322,001,FEMALE,35,2025-05-21_06h23.40.551,Serial_Dependence_U,2023.2.3,Win32,59.88023952,67e184908b8cd53c87ac90a2,682cd3dfea4e15896da7c0a6,682da963736b6d0aea59f348,,,,,,,,,,,,750.271,2,750.2713,,,,753.0067,753.5028,752.4916,753.0066,751.2873,179,752.4915,753.5028,754.0026,754.0026,755.8744,858.1,755.8745,2,756.8685,2,22,82,17,1,1.2,0.7,Time
,,S18,742322,001,FEMALE,35,2025-05-21_06h23.40.551,Serial_Dependence_U,2023.2.3,Win32,59.88023952,67e184908b8cd53c87ac90a2,682cd3dfea4e15896da7c0a6,682da963736b6d0aea59f348,,,,,,,,,,,,756.869,2,756.8692,,,,759.6064,760.101,759.1019,759.6063,757.8857,105,759.1017,760.101,760.6008,760.6009,762.1889,666.3,762.1891,1,763.1835,2,23,83,27,1,1.2,0.7,Time
,,S18,742322,001,FEMALE,35,2025-05-21_06h23.40.551,Serial_Dependence_U,2023.2.3,Win32,59.88023952,67e184908b8cd53c87ac90a2,682cd3dfea4e15896da7c0a6,682da963736b6d0aea59f348,,,,,,,,,,,,763.1841,2,763.1843,,,,765.517,766.016,765.0002,765.5168,764.1881,97,764.9999,766.0161,766.5159,766.5159,767.7377,833,767.7379,3,768.7319,2,24,84,10,1,0.8,0.3,Time
,,S18,742322,001,FEMALE,35,2025-05-21_06h23.40.551,Serial_Dependence_U,2023.2.3,Win32,59.88023952,67e184908b8cd53c87ac90a2,682cd3dfea4e15896da7c0a6,682da963736b6d0aea59f348,,,,,,,,,,,,768.7324,2,768.7327,,,,771.685,772.1809,771.1652,771.6849,769.7532,261,771.165,772.181,772.6809,772.681,774.8022,894,774.8023,1,775.7966,2,25,85,3,1,1.4,0.3,Time
,,S18,742322,001,FEMALE,35,2025-05-21_06h23.40.551,Serial_Dependence_U,2023.2.3,Win32,59.88023952,67e184908b8cd53c87ac90a2,682cd3dfea4e15896da7c0a6,682da963736b6d0aea59f348,,,,,,,,,,,,775.7972,2,775.7974,,,,778.9509,779.4457,778.4298,778.9508,776.8136,227,778.4296,779.4457,779.9455,779.9455,782.4502,1283.2,782.4503,2,783.4446,2,26,86,19,1,1.6,0.7,Time
,,S18,742322,001,FEMALE,35,2025-05-21_06h23.40.551,Serial_Dependence_U,2023.2.3,Win32,59.88023952,67e184908b8cd53c87ac90a2,682cd3dfea4e15896da7c0a6,682da963736b6d0aea59f348,,,,,,,,,,,,783.4452,2,783.4454,,,,786.1639,786.6604,785.6612,786.1639,784.4479,249,785.661,786.6604,787.1601,787.1602,789.2982,1360.7,789.2984,4,790.2927,2,27,87,12,1,1.2,0.3,Time
,,S18,742322,001,FEMALE,35,2025-05-21_06h23.40.551,Serial_Dependence_U,2023.2.3,Win32,59.88023952,67e184908b8cd53c87ac90a2,682cd3dfea4e15896da7c0a6,682da963736b6d0aea59f348,,,,,,,,,,,,790.2931,2,790.2932,,,,793.0426,793.5417,792.5258,793.0425,791.3144,30,792.5256,793.5418,794.0416,794.0416,795.9749,1240.2,795.9752,3,796.9742,2,28,88,2,1,1.2,0.3,Time
,,S18,742322,001,FEMALE,35,2025-05-21_06h23.40.551,Serial_Dependence_U,2023.2.3,Win32,59.88023952,67e184908b8cd53c87ac90a2,682cd3dfea4e15896da7c0a6,682da963736b6d0aea59f348,,,,,,,,,,,,796.9745,2,796.9747,,,,799.9117,800.4065,799.3908,799.9116,797.979,140,799.3906,800.4065,800.9063,800.9065,802.8562,1193.1,802.8564,2,803.8556,2,29,89,23,1,1.4,0.3,Time
,,S18,742322,001,FEMALE,35,2025-05-21_06h23.40.551,Serial_Dependence_U,2023.2.3,Win32,59.88023952,67e184908b8cd53c87ac90a2,682cd3dfea4e15896da7c0a6,682da963736b6d0aea59f348,,,,,,,,,,,,803.856,3,806.2385,s,2.3704,,809.1878,809.6874,808.6713,809.1878,807.2558,84,808.6712,809.6874,810.1871,810.1872,812.8035,1103.3,812.8038,2,813.8028,3,0,90,3,1,1.4,0.3,Time
,,S18,742322,001,FEMALE,35,2025-05-21_06h23.40.551,Serial_Dependence_U,2023.2.3,Win32,59.88023952,67e184908b8cd53c87ac90a2,682cd3dfea4e15896da7c0a6,682da963736b6d0aea59f348,,,,,,,,,,,,813.8032,3,813.8045,,,,816.7524,817.3876,816.2359,816.7523,814.8195,311,816.2359,817.3877,817.7683,817.7683,819.5901,1233.1,819.5903,2,820.5842,3,1,91,23,1,1.4,0.3,Time
,,S18,742322,001,FEMALE,35,2025-05-21_06h23.40.551,Serial_Dependence_U,2023.2.3,Win32,59.88023952,67e184908b8cd53c87ac90a2,682cd3dfea4e15896da7c0a6,682da963736b6d0aea59f348,,,,,,,,,,,,820.5847,3,820.5849,,,,822.9053,823.4002,822.401,822.9051,821.5848,272,822.4008,823.4002,823.8999,823.8999,825.9712,1317.1,825.9713,5,826.9657,3,2,92,20,1,0.8,0.3,Time
,,S18,742322,001,FEMALE,35,2025-05-21_06h23.40.551,Serial_Dependence_U,2023.2.3,Win32,59.88023952,67e184908b8cd53c87ac90a2,682cd3dfea4e15896da7c0a6,682da963736b6d0aea59f348,,,,,,,,,,,,826.9663,3,826.9665,,,,829.7156,830.2149,829.2038,829.7155,827.9827,226,829.2038,830.2149,830.7148,830.7148,832.5362,1173.2,832.5363,3,833.5307,3,3,93,12,1,1.2,0.3,Time
,,S18,742322,001,FEMALE,35,2025-05-21_06h23.40.551,Serial_Dependence_U,2023.2.3,Win32,59.88023952,67e184908b8cd53c87ac90a2,682cd3dfea4e15896da7c0a6,682da963736b6d0aea59f348,,,,,,,,,,,,833.5313,3,833.5315,,,,836.6681,837.163,836.1472,836.668,834.5339,225,836.1471,837.163,837.6629,837.6629,839.7677,1182.9,839.7678,2,840.7621,3,4,94,14,1,1.6,0.3,Time
,,S18,742322,001,FEMALE,35,2025-05-21_06h23.40.551,Serial_Dependence_U,2023.2.3,Win32,59.88023952,67e184908b8cd53c87ac90a2,682cd3dfea4e15896da7c0a6,682da963736b6d0aea59f348,,,,,,,,,,,,840.7628,3,840.7632,,,,843.9118,844.411,843.3997,843.9115,841.782,186,843.3996,844.411,844.9108,844.9109,847.1488,1876.7,847.1489,4,848.1433,3,5,95,9,1,1.6,0.7,Time
,,S18,742322,001,FEMALE,35,2025-05-21_06h23.40.551,Serial_Dependence_U,2023.2.3,Win32,59.88023952,67e184908b8cd53c87ac90a2,682cd3dfea4e15896da7c0a6,682da963736b6d0aea59f348,,,,,,,,,,,,848.1437,3,848.144,,,,850.4767,850.9759,849.96,850.4765,849.1466,48,849.9598,850.9759,851.4756,851.4757,853.0922,1043.3,853.0926,5,854.0916,3,6,96,25,1,0.8,0.7,Time
,,S18,742322,001,FEMALE,35,2025-05-21_06h23.40.551,Serial_Dependence_U,2023.2.3,Win32,59.88023952,67e184908b8cd53c87ac90a2,682cd3dfea4e15896da7c0a6,682da963736b6d0aea59f348,,,,,,,,,,,,854.0922,3,854.0923,,,,856.4459,856.9408,855.9283,856.4459,855.113,327,855.9281,856.9409,857.4407,857.4407,859.3956,1441.1,859.3958,5,860.3899,3,7,97,0,1,0.8,0.3,Time
,,S18,742322,001,FEMALE,35,2025-05-21_06h23.40.551,Serial_Dependence_U,2023.2.3,Win32,59.88023952,67e184908b8cd53c87ac90a2,682cd3dfea4e15896da7c0a6,682da963736b6d0aea59f348,,,,,,,,,,,,860.3902,3,860.3905,,,,863.3093,863.8056,862.8066,863.3092,861.3947,38,862.8064,863.8057,864.3054,864.3055,866.4601,1447.4,866.4602,3,867.4547,3,8,98,18,1,1.4,0.7,Time
,,S18,742322,001,FEMALE,35,2025-05-21_06h23.40.551,Serial_Dependence_U,2023.2.3,Win32,59.88023952,67e184908b8cd53c87ac90a2,682cd3dfea4e15896da7c0a6,682da963736b6d0aea59f348,,,,,,,,,,,,867.4553,3,867.4555,,,,869.974,870.4706,869.4712,869.974,868.4595,311,869.471,870.4706,870.9702,870.9704,872.9247,1173.1,872.9249,4,873.9194,3,9,99,1,1,1,0.3,Time
,,S18,742322,001,FEMALE,35,2025-05-21_06h23.40.551,Serial_Dependence_U,2023.2.3,Win32,59.88023952,67e184908b8cd53c87ac90a2,682cd3dfea4e15896da7c0a6,682da963736b6d0aea59f348,,,,,,,,,,,,873.9199,3,873.9201,,,,876.2742,876.7687,875.7574,876.2739,874.9363,96,875.7573,876.7688,877.2685,877.2685,879.1231,1134.6,879.1232,5,880.1178,3,10,100,15,1,0.8,0.7,Time
,,S18,742322,001,FEMALE,35,2025-05-21_06h23.40.551,Serial_Dependence_U,2023.2.3,Win32,59.88023952,67e184908b8cd53c87ac90a2,682cd3dfea4e15896da7c0a6,682da963736b6d0aea59f348,,,,,,,,,,,,880.1183,3,880.1185,,,,882.8555,883.3501,882.3515,882.8554,881.1349,236,882.3512,883.3501,883.85,883.85,886.3381,1382.7,886.3383,4,887.3323,3,11,101,17,1,1.2,0.7,Time
,,S18,742322,001,FEMALE,35,2025-05-21_06h23.40.551,Serial_Dependence_U,2023.2.3,Win32,59.88023952,67e184908b8cd53c87ac90a2,682cd3dfea4e15896da7c0a6,682da963736b6d0aea59f348,,,,,,,,,,,,887.3328,3,887.333,,,,890.07,890.5648,889.5689,890.0699,888.3539,53,889.5688,890.5648,891.0647,891.0648,893.2479,1350.9,893.2481,4,894.2472,3,12,102,27,1,1.2,0.7,Time
,,S18,742322,001,FEMALE,35,2025-05-21_06h23.40.551,Serial_Dependence_U,2023.2.3,Win32,59.88023952,67e184908b8cd53c87ac90a2,682cd3dfea4e15896da7c0a6,682da963736b6d0aea59f348,,,,,,,,,,,,894.2477,3,894.2479,,,,897.197,897.6962,896.6806,897.1968,895.268,134,896.6805,897.6962,898.1961,898.1961,900.5673,1399.3,900.5674,3,901.5619,3,13,103,8,1,1.4,0.7,Time
,,S18,742322,001,FEMALE,35,2025-05-21_06h23.40.551,Serial_Dependence_U,2023.2.3,Win32,59.88023952,67e184908b8cd53c87ac90a2,682cd3dfea4e15896da7c0a6,682da963736b6d0aea59f348,,,,,,,,,,,,901.5624,3,901.5626,,,,904.4828,904.9775,903.9784,904.4827,902.5671,25,903.9781,904.9776,905.4774,905.4774,906.6775,634.1,906.6779,1,907.6768,3,14,104,28,1,1.4,0.7,Time
,,S18,742322,001,FEMALE,35,2025-05-21_06h23.40.551,Serial_Dependence_U,2023.2.3,Win32,59.88023952,67e184908b8cd53c87ac90a2,682cd3dfea4e15896da7c0a6,682da963736b6d0aea59f348,,,,,,,,,,,,907.6773,3,907.6775,,,,910.7976,911.2924,910.2965,910.7976,908.6814,72,910.2965,911.2925,911.7923,911.7924,913.7135,1491,913.7137,2,914.7082,3,15,105,24,1,1.6,0.3,Time
,,S18,742322,001,FEMALE,35,2025-05-21_06h23.40.551,Serial_Dependence_U,2023.2.3,Win32,59.88023952,67e184908b8cd53c87ac90a2,682cd3dfea4e15896da7c0a6,682da963736b6d0aea59f348,,,,,,,,,,,,914.7088,3,914.7091,,,,917.2293,917.724,916.725,917.2292,915.7131,216,916.7248,917.724,918.2239,918.2239,920.6455,1549.4,920.6456,5,921.6395,3,16,106,26,1,1,0.7,Time
,,S18,742322,001,FEMALE,35,2025-05-21_06h23.40.551,Serial_Dependence_U,2023.2.3,Win32,59.88023952,67e184908b8cd53c87ac90a2,682cd3dfea4e15896da7c0a6,682da963736b6d0aea59f348,,,,,,,,,,,,921.64,3,921.6402,,,,924.5728,925.072,924.0591,924.5726,922.6428,342,924.0591,925.072,925.5718,925.5719,927.8883,1539.7,927.8885,4,928.8875,3,17,107,13,1,1.4,0.3,Time
,,S18,742322,001,FEMALE,35,2025-05-21_06h23.40.551,Serial_Dependence_U,2023.2.3,Win32,59.88023952,67e184908b8cd53c87ac90a2,682cd3dfea4e15896da7c0a6,682da963736b6d0aea59f348,,,,,,,,,,,,928.8879,3,928.888,,,,931.2374,931.7368,930.7209,931.2373,929.9044,144,930.7207,931.7368,932.2368,932.2368,934.4579,1298.1,934.4581,5,935.4524,3,18,108,5,1,0.8,0.7,Time
,,S18,742322,001,FEMALE,35,2025-05-21_06h23.40.551,Serial_Dependence_U,2023.2.3,Win32,59.88023952,67e184908b8cd53c87ac90a2,682cd3dfea4e15896da7c0a6,682da963736b6d0aea59f348,,,,,,,,,,,,935.4528,3,935.4532,,,,937.9902,938.4849,937.4857,937.9901,936.4693,150,937.4856,938.485,938.9848,938.9849,940.556,1049.5,940.5561,3,941.5508,3,19,109,6,1,1,0.7,Time
,,S18,742322,001,FEMALE,35,2025-05-21_06h23.40.551,Serial_Dependence_U,2023.2.3,Win32,59.88023952,67e184908b8cd53c87ac90a2,682cd3dfea4e15896da7c0a6,682da963736b6d0aea59f348,,,,,,,,,,,,941.5512,3,941.5515,,,,944.1037,944.5998,943.584,944.1036,942.5714,190,943.5838,944.5998,945.0997,945.0997,947.3046,1181.7,947.3048,4,948.2988,3,20,110,21,1,1,0.3,Time
,,S18,742322,001,FEMALE,35,2025-05-21_06h23.40.551,Serial_Dependence_U,2023.2.3,Win32,59.88023952,67e184908b8cd53c87ac90a2,682cd3dfea4e15896da7c0a6,682da963736b6d0aea59f348,,,,,,,,,,,,948.2993,3,948.2994,,,,950.6322,951.1314,950.1202,950.632,949.3161,338,950.1201,951.1314,951.6313,951.6313,953.4348,1209.9,953.4349,5,954.4305,3,21,111,10,1,0.8,0.3,Time
,,S18,742322,001,FEMALE,35,2025-05-21_06h23.40.551,Serial_Dependence_U,2023.2.3,Win32,59.88023952,67e184908b8cd53c87ac90a2,682cd3dfea4e15896da7c0a6,682da963736b6d0aea59f348,,,,,,,,,,,,954.4308,3,954.431,,,,957.1682,957.663,956.6636,957.1681,955.4519,272,956.6635,957.663,958.1629,958.1629,959.2845,572.8,959.2846,1,960.2788,3,22,112,22,1,1.2,0.3,Time
,,S18,742322,001,FEMALE,35,2025-05-21_06h23.40.551,Serial_Dependence_U,2023.2.3,Win32,59.88023952,67e184908b8cd53c87ac90a2,682cd3dfea4e15896da7c0a6,682da963736b6d0aea59f348,,,,,,,,,,,,960.2792,3,960.2794,,,,963.0288,963.528,962.5122,963.0286,961.2961,92,962.512,963.528,964.0278,964.0278,965.5662,1048.8,965.5663,2,966.5605,3,23,113,7,1,1.2,0.7,Time
,,S18,742322,001,FEMALE,35,2025-05-21_06h23.40.551,Serial_Dependence_U,2023.2.3,Win32,59.88023952,67e184908b8cd53c87ac90a2,682cd3dfea4e15896da7c0a6,682da963736b6d0aea59f348,,,,,,,,,,,,966.5609,3,966.561,,,,969.0979,969.5929,968.5938,969.0979,967.5776,213,968.5936,969.5929,970.0929,970.0929,972.7805,1449.1,972.7807,5,973.7751,3,24,114,16,1,1,0.7,Time
,,S18,742322,001,FEMALE,35,2025-05-21_06h23.40.551,Serial_Dependence_U,2023.2.3,Win32,59.88023952,67e184908b8cd53c87ac90a2,682cd3dfea4e15896da7c0a6,682da963736b6d0aea59f348,,,,,,,,,,,,973.7758,3,973.7759,,,,976.8957,977.3908,976.3946,976.8956,974.7922,285,976.3945,977.3908,977.8907,977.8907,979.8287,1476.9,979.8288,2,980.8232,3,25,115,4,1,1.6,0.3,Time
,,S18,742322,001,FEMALE,35,2025-05-21_06h23.40.551,Serial_Dependence_U,2023.2.3,Win32,59.88023952,67e184908b8cd53c87ac90a2,682cd3dfea4e15896da7c0a6,682da963736b6d0aea59f348,,,,,,,,,,,,980.8238,3,980.8242,,,,983.944,984.4388,983.4398,983.9439,981.8278,160,983.4397,984.4389,984.9387,984.9387,986.9267,1474.7,986.9269,2,987.9213,3,26,116,29,1,1.6,0.7,Time
,,S18,742322,001,FEMALE,35,2025-05-21_06h23.40.551,Serial_Dependence_U,2023.2.3,Win32,59.88023952,67e184908b8cd53c87ac90a2,682cd3dfea4e15896da7c0a6,682da963736b6d0aea59f348,,,,,,,,,,,,987.9217,3,987.922,,,,990.4588,990.9537,989.9379,990.4588,988.9245,300,989.9377,990.9537,991.4536,991.4536,993.7413,1525.2,993.7416,5,994.7359,3,27,117,11,1,1,0.3,Time
,,S18,742322,001,FEMALE,35,2025-05-21_06h23.40.551,Serial_Dependence_U,2023.2.3,Win32,59.88023952,67e184908b8cd53c87ac90a2,682cd3dfea4e15896da7c0a6,682da963736b6d0aea59f348,,,,,,,,,,,,994.7365,3,994.7367,,,,997.8693,998.3683,997.357,997.8691,995.7394,357,997.3569,998.3683,998.8681,998.8683,1001.1728,1530.7,1001.1729,3,1002.1672,3,28,118,19,1,1.6,0.7,Time
,,S18,742322,001,FEMALE,35,2025-05-21_06h23.40.551,Serial_Dependence_U,2023.2.3,Win32,59.88023952,67e184908b8cd53c87ac90a2,682cd3dfea4e15896da7c0a6,682da963736b6d0aea59f348,,,,,,,,,,,,1002.168,3,1002.1683,,,,1004.9217,1005.4165,1004.4003,1004.9216,1003.1872,175,1004.4002,1005.4165,1005.9162,1005.9162,1007.8378,1451.2,1007.8378,4,1008.8321,3,29,119,2,1,1.2,0.3,Time
,,S18,742322,001,FEMALE,35,2025-05-21_06h23.40.551,Serial_Dependence_U,2023.2.3,Win32,59.88023952,67e184908b8cd53c87ac90a2,682cd3dfea4e15896da7c0a6,682da963736b6d0aea59f348,,,,,,,,,,,,1008.8324,4,1023.8948,s,15.0292,,1026.2446,1026.7437,1025.7281,1026.2444,1024.916,235,1025.7279,1026.7438,1027.2436,1027.2437,1028.6994,833.1,1028.6996,3,1029.693,4,0,120,5,1,0.8,0.7,Time
,,S18,742322,001,FEMALE,35,2025-05-21_06h23.40.551,Serial_Dependence_U,2023.2.3,Win32,59.88023952,67e184908b8cd53c87ac90a2,682cd3dfea4e15896da7c0a6,682da963736b6d0aea59f348,,,,,,,,,,,,1029.6933,4,1029.6954,,,,1032.6263,1033.1254,1032.114,1032.626,1030.698,48,1032.1139,1033.1255,1033.6253,1033.6253,1035.73,1314.8,1035.7301,2,1036.7243,4,1,121,28,1,1.4,0.7,Time
,,S18,742322,001,FEMALE,35,2025-05-21_06h23.40.551,Serial_Dependence_U,2023.2.3,Win32,59.88023952,67e184908b8cd53c87ac90a2,682cd3dfea4e15896da7c0a6,682da963736b6d0aea59f348,,,,,,,,,,,,1036.7251,4,1036.7253,,,,1039.0743,1039.5736,1038.5579,1039.074,1037.7414,164,1038.5577,1039.5736,1040.0734,1040.0734,1042.1782,1182.7,1042.1783,5,1043.1726,4,2,122,25,1,0.8,0.7,Time
,,S18,742322,001,FEMALE,35,2025-05-21_06h23.40.551,Serial_Dependence_U,2023.2.3,Win32,59.88023952,67e184908b8cd53c87ac90a2,682cd3dfea4e15896da7c0a6,682da963736b6d0aea59f348,,,,,,,,,,,,1043.173,4,1043.1732,,,,1046.1102,1046.605,1045.5891,1046.11,1044.1778,85,1045.5889,1046.6051,1047.1048,1047.1049,1048.6097,1116.4,1048.6099,2,1049.6042,4,3,123,8,1,1.4,0.7,Time
,,S18,742322,001,FEMALE,35,2025-05-21_06h23.40.551,Serial_Dependence_U,2023.2.3,Win32,59.88023952,67e184908b8cd53c87ac90a2,682cd3dfea4e15896da7c0a6,682da963736b6d0aea59f348,,,,,,,,,,,,1049.6047,4,1049.6049,,,,1052.5418,1053.0365,1052.0374,1052.5418,1050.6211,351,1052.0371,1053.0365,1053.5364,1053.5365,1055.9411,1510.8,1055.9413,4,1056.9354,4,4,124,3,1,1.4,0.3,Time
,,S18,742322,001,FEMALE,35,2025-05-21_06h23.40.551,Serial_Dependence_U,2023.2.3,Win32,59.88023952,67e184908b8cd53c87ac90a2,682cd3dfea4e15896da7c0a6,682da963736b6d0aea59f348,,,,,,,,,,,,1056.9359,4,1056.9361,,,,1059.2731,1059.7679,1058.7553,1059.273,1057.9387,154,1058.7552,1059.7679,1060.2678,1060.2678,1062.4892,1316.3,1062.4893,5,1063.4837,4,5,125,0,1,0.8,0.3,Time
,,S18,742322,001,FEMALE,35,2025-05-21_06h23.40.551,Serial_Dependence_U,2023.2.3,Win32,59.88023952,67e184908b8cd53c87ac90a2,682cd3dfea4e15896da7c0a6,682da963736b6d0aea59f348,,,,,,,,,,,,1063.4842,4,1063.4845,,,,1066.4334,1066.9327,1065.917,1066.4332,1064.5052,150,1065.9169,1066.9327,1067.4325,1067.4326,1069.8205,1547.9,1069.8208,4,1070.8149,4,6,126,18,1,1.4,0.7,Time
,,S18,742322,001,FEMALE,35,2025-05-21_06h23.40.551,Serial_Dependence_U,2023.2.3,Win32,59.88023952,67e184908b8cd53c87ac90a2,682cd3dfea4e15896da7c0a6,682da963736b6d0aea59f348,,,,,,,,,,,,1070.8157,4,1070.816,,,,1073.3529,1073.8473,1072.8362,1073.3528,1071.8197,230,1072.8362,1073.8473,1074.3472,1074.3472,1077.5683,1643.8,1077.5685,5,1078.5628,4,7,127,11,1,1,0.3,Time
,,S18,742322,001,FEMALE,35,2025-05-21_06h23.40.551,Serial_Dependence_U,2023.2.3,Win32,59.88023952,67e184908b8cd53c87ac90a2,682cd3dfea4e15896da7c0a6,682da963736b6d0aea59f348,,,,,,,,,,,,1078.5635,4,1078.5638,,,,1080.9004,1081.3954,1080.3841,1080.9003,1079.5678,273,1080.384,1081.3954,1081.8952,1081.8952,1084.0666,1382.8,1084.0667,5,1085.061,4,8,128,20,1,0.8,0.3,Time
,,S18,742322,001,FEMALE,35,2025-05-21_06h23.40.551,Serial_Dependence_U,2023.2.3,Win32,59.88023952,67e184908b8cd53c87ac90a2,682cd3dfea4e15896da7c0a6,682da963736b6d0aea59f348,,,,,,,,,,,,1085.0615,4,1085.0617,,,,1088.1943,1088.6933,1087.6819,1088.1941,1086.0781,263,1087.6818,1088.6933,1089.1932,1089.1932,1091.0314,1171.5,1091.0316,2,1092.0257,4,9,129,9,1,1.6,0.7,Time
,,S18,742322,001,FEMALE,35,2025-05-21_06h23.40.551,Serial_Dependence_U,2023.2.3,Win32,59.88023952,67e184908b8cd53c87ac90a2,682cd3dfea4e15896da7c0a6,682da963736b6d0aea59f348,,,,,,,,,,,,1092.0264,4,1092.0266,,,,1094.9758,1095.4748,1094.4592,1094.9756,1093.0471,238,1094.459,1095.4748,1095.9747,1095.9749,1098.0463,1668,1098.0465,4,1099.0405,4,10,130,23,1,1.4,0.3,Time
,,S18,742322,001,FEMALE,35,2025-05-21_06h23.40.551,Serial_Dependence_U,2023.2.3,Win32,59.88023952,67e184908b8cd53c87ac90a2,682cd3dfea4e15896da7c0a6,682da963736b6d0aea59f348,,,,,,,,,,,,1099.041,4,1099.0412,,,,1101.5617,1102.0562,1101.0485,1101.5616,1100.0453,184,1101.0484,1102.0563,1102.5562,1102.5562,1104.9274,1331.3,1104.9277,5,1105.9218,4,11,131,16,1,1,0.7,Time
,,S18,742322,001,FEMALE,35,2025-05-21_06h23.40.551,Serial_Dependence_U,2023.2.3,Win32,59.88023952,67e184908b8cd53c87ac90a2,682cd3dfea4e15896da7c0a6,682da963736b6d0aea59f348,,,,,,,,,,,,1105.9224,4,1105.9227,,,,1108.676,1109.171,1108.1599,1108.6759,1106.9391,207,1108.1597,1109.1711,1109.6708,1109.6709,1111.5425,1184.8,1111.5427,3,1112.5367,4,12,132,7,1,1.2,0.7,Time
,,S18,742322,001,FEMALE,35,2025-05-21_06h23.40.551,Serial_Dependence_U,2023.2.3,Win32,59.88023952,67e184908b8cd53c87ac90a2,682cd3dfea4e15896da7c0a6,682da963736b6d0aea59f348,,,,,,,,,,,,1112.5372,4,1112.5375,,,,1115.2746,1115.7691,1114.7701,1115.2745,1113.5579,189,1114.7699,1115.7691,1116.269,1116.2691,1117.5572,1133.1,1117.5574,2,1118.5517,4,13,133,27,1,1.2,0.7,Time
,,S18,742322,001,FEMALE,35,2025-05-21_06h23.40.551,Serial_Dependence_U,2023.2.3,Win32,59.88023952,67e184908b8cd53c87ac90a2,682cd3dfea4e15896da7c0a6,682da963736b6d0aea59f348,,,,,,,,,,,,1118.5525,4,1118.5529,,,,1121.0894,1121.5842,1120.5853,1121.0893,1119.5733,63,1120.5852,1121.5843,1122.0842,1122.0842,1123.7209,1273.6,1123.7211,4,1124.7167,4,14,134,1,1,1,0.3,Time
,,S18,742322,001,FEMALE,35,2025-05-21_06h23.40.551,Serial_Dependence_U,2023.2.3,Win32,59.88023952,67e184908b8cd53c87ac90a2,682cd3dfea4e15896da7c0a6,682da963736b6d0aea59f348,,,,,,,,,,,,1124.7172,4,1124.7175,,,,1127.6667,1128.1658,1127.1545,1127.6665,1125.7383,113,1127.1544,1128.1658,1128.6656,1128.6656,1130.0325,1267,1130.0328,2,1131.0316,4,15,135,13,1,1.4,0.3,Time
,,S18,742322,001,FEMALE,35,2025-05-21_06h23.40.551,Serial_Dependence_U,2023.2.3,Win32,59.88023952,67e184908b8cd53c87ac90a2,682cd3dfea4e15896da7c0a6,682da963736b6d0aea59f348,,,,,,,,,,,,1131.0322,4,1131.0325,,,,1133.3485,1133.8474,1132.836,1133.3483,1132.0351,270,1132.8359,1133.8474,1134.3472,1134.3474,1136.1357,1266.4,1136.1359,5,1137.1299,4,16,136,10,1,0.8,0.3,Time
,,S18,742322,001,FEMALE,35,2025-05-21_06h23.40.551,Serial_Dependence_U,2023.2.3,Win32,59.88023952,67e184908b8cd53c87ac90a2,682cd3dfea4e15896da7c0a6,682da963736b6d0aea59f348,,,,,,,,,,,,1137.1306,4,1137.1309,,,,1139.6493,1140.1457,1139.1467,1139.6492,1138.1333,282,1139.1465,1140.1458,1140.6455,1140.6456,1141.6176,916.4,1141.6177,2,1142.6117,4,17,137,26,1,1,0.7,Time
,,S18,742322,001,FEMALE,35,2025-05-21_06h23.40.551,Serial_Dependence_U,2023.2.3,Win32,59.88023952,67e184908b8cd53c87ac90a2,682cd3dfea4e15896da7c0a6,682da963736b6d0aea59f348,,,,,,,,,,,,1142.6122,4,1142.6125,,,,1145.345,1145.8441,1144.8329,1145.3447,1143.6168,322,1144.8328,1145.8442,1146.344,1146.3441,1148.0155,1294.4,1148.0157,4,1149.01,4,18,138,12,1,1.2,0.3,Time
,,S18,742322,001,FEMALE,35,2025-05-21_06h23.40.551,Serial_Dependence_U,2023.2.3,Win32,59.88023952,67e184908b8cd53c87ac90a2,682cd3dfea4e15896da7c0a6,682da963736b6d0aea59f348,,,,,,,,,,,,1149.0107,4,1149.0111,,,,1152.1599,1152.6589,1151.6477,1152.1597,1150.0315,249,1151.6475,1152.6589,1153.1587,1153.1588,1154.7304,1110.5,1154.7306,1,1155.7248,4,19,139,24,1,1.6,0.3,Time
,,S18,742322,001,FEMALE,35,2025-05-21_06h23.40.551,Serial_Dependence_U,2023.2.3,Win32,59.88023952,67e184908b8cd53c87ac90a2,682cd3dfea4e15896da7c0a6,682da963736b6d0aea59f348,,,,,,,,,,,,1155.7254,4,1155.7257,,,,1158.4747,1158.9739,1157.9625,1158.4745,1156.7463,158,1157.9624,1158.9739,1159.4737,1159.4738,1162.0783,1116.1,1162.0785,2,1163.0727,4,20,140,22,1,1.2,0.3,Time
,,S18,742322,001,FEMALE,35,2025-05-21_06h23.40.551,Serial_Dependence_U,2023.2.3,Win32,59.88023952,67e184908b8cd53c87ac90a2,682cd3dfea4e15896da7c0a6,682da963736b6d0aea59f348,,,,,,,,,,,,1163.0734,4,1163.0736,,,,1165.7923,1166.2884,1165.2897,1165.7922,1164.0776,232,1165.2895,1166.2885,1166.7883,1166.7884,1168.51,1384.6,1168.5102,4,1169.5043,4,21,141,2,1,1.2,0.3,Time
,,S18,742322,001,FEMALE,35,2025-05-21_06h23.40.551,Serial_Dependence_U,2023.2.3,Win32,59.88023952,67e184908b8cd53c87ac90a2,682cd3dfea4e15896da7c0a6,682da963736b6d0aea59f348,,,,,,,,,,,,1169.505,4,1169.5052,,,,1172.0587,1172.5534,1171.5422,1172.0586,1170.5257,120,1171.5422,1172.5535,1173.0532,1173.0534,1175.0246,1259.1,1175.0247,4,1176.0191,4,22,142,6,1,1,0.7,Time
,,S18,742322,001,FEMALE,35,2025-05-21_06h23.40.551,Serial_Dependence_U,2023.2.3,Win32,59.88023952,67e184908b8cd53c87ac90a2,682cd3dfea4e15896da7c0a6,682da963736b6d0aea59f348,,,,,,,,,,,,1176.0199,4,1176.0203,,,,1178.7402,1179.2349,1178.2235,1178.7402,1177.0226,123,1178.2235,1179.2349,1179.7348,1179.7348,1181.4064,1151.2,1181.4066,3,1182.4007,4,23,143,17,1,1.2,0.7,Time
,,S18,742322,001,FEMALE,35,2025-05-21_06h23.40.551,Serial_Dependence_U,2023.2.3,Win32,59.88023952,67e184908b8cd53c87ac90a2,682cd3dfea4e15896da7c0a6,682da963736b6d0aea59f348,,,,,,,,,,,,1182.4013,4,1182.4015,,,,1185.5368,1186.033,1185.034,1185.5367,1183.4224,188,1185.0339,1186.033,1186.5329,1186.5329,1188.5879,1584.6,1188.588,3,1189.582,4,24,144,19,1,1.6,0.7,Time
,,S18,742322,001,FEMALE,35,2025-05-21_06h23.40.551,Serial_Dependence_U,2023.2.3,Win32,59.88023952,67e184908b8cd53c87ac90a2,682cd3dfea4e15896da7c0a6,682da963736b6d0aea59f348,,,,,,,,,,,,1189.5828,4,1189.5831,,,,1191.9155,1192.4145,1191.4035,1191.9153,1190.5867,291,1191.4034,1192.4146,1192.9145,1192.9146,1194.8026,1215.1,1194.8027,5,1195.797,4,25,145,15,1,0.8,0.7,Time
,,S18,742322,001,FEMALE,35,2025-05-21_06h23.40.551,Serial_Dependence_U,2023.2.3,Win32,59.88023952,67e184908b8cd53c87ac90a2,682cd3dfea4e15896da7c0a6,682da963736b6d0aea59f348,,,,,,,,,,,,1195.7975,4,1195.7978,,,,1198.9181,1199.4126,1198.4165,1198.918,1196.8017,60,1198.4164,1199.4126,1199.9125,1199.9125,1201.9174,1466.9,1201.9175,2,1202.9116,4,26,146,14,1,1.6,0.3,Time
,,S18,742322,001,FEMALE,35,2025-05-21_06h23.40.551,Serial_Dependence_U,2023.2.3,Win32,59.88023952,67e184908b8cd53c87ac90a2,682cd3dfea4e15896da7c0a6,682da963736b6d0aea59f348,,,,,,,,,,,,1202.9121,4,1202.9124,,,,1206.045,1206.544,1205.5328,1206.0448,1203.9166,13,1205.5328,1206.544,1207.0439,1207.0439,1209.2654,1599.4,1209.2655,3,1210.2597,4,27,147,4,1,1.6,0.3,Time
,,S18,742322,001,FEMALE,35,2025-05-21_06h23.40.551,Serial_Dependence_U,2023.2.3,Win32,59.88023952,67e184908b8cd53c87ac90a2,682cd3dfea4e15896da7c0a6,682da963736b6d0aea59f348,,,,,,,,,,,,1210.2602,4,1210.2605,,,,1213.3972,1213.892,1212.8808,1213.3971,1211.2645,158,1212.8807,1213.892,1214.3918,1214.3919,1216.2799,1360.2,1216.2801,2,1217.2745,4,28,148,29,1,1.6,0.7,Time
,,S18,742322,001,FEMALE,35,2025-05-21_06h23.40.551,Serial_Dependence_U,2023.2.3,Win32,59.88023952,67e184908b8cd53c87ac90a2,682cd3dfea4e15896da7c0a6,682da963736b6d0aea59f348,,,,,,,,,,,,1217.275,4,1217.2753,,,,1219.8121,1220.3069,1219.308,1219.812,1218.2943,271,1219.3078,1220.307,1220.8068,1220.8068,1223.378,1616.2,1223.3782,5,1224.3726,4,29,149,21,1,1,0.3,Time
,,S18,742322,001,FEMALE,35,2025-05-21_06h23.40.551,Serial_Dependence_U,2023.2.3,Win32,59.88023952,67e184908b8cd53c87ac90a2,682cd3dfea4e15896da7c0a6,682da963736b6d0aea59f348,,,,,,,,,,,,1224.3734,5,1240.1848,s,15.7847,,1242.9178,1243.4171,1242.4012,1242.9176,1241.1894,136,1242.401,1243.4172,1243.917,1243.917,1247.5878,1256.3,1247.5879,3,1248.5823,5,0,150,22,1,1.2,0.3,Time
,,S18,742322,001,FEMALE,35,2025-05-21_06h23.40.551,Serial_Dependence_U,2023.2.3,Win32,59.88023952,67e184908b8cd53c87ac90a2,682cd3dfea4e15896da7c0a6,682da963736b6d0aea59f348,,,,,,,,,,,,1248.5827,5,1248.5846,,,,1251.1156,1251.6148,1250.599,1251.1155,1249.5874,238,1250.5988,1251.6149,1252.1146,1252.1147,1254.1362,1189.9,1254.1363,4,1255.1305,5,1,151,16,1,1,0.7,Time
,,S18,742322,001,FEMALE,35,2025-05-21_06h23.40.551,Serial_Dependence_U,2023.2.3,Win32,59.88023952,67e184908b8cd53c87ac90a2,682cd3dfea4e15896da7c0a6,682da963736b6d0aea59f348,,,,,,,,,,,,1255.1309,5,1255.1312,,,,1257.4638,1257.963,1256.9474,1257.4636,1256.1354,343,1256.9471,1257.9631,1258.4629,1258.463,1260.0008,978.9,1260.001,4,1260.9956,5,2,152,25,1,0.8,0.7,Time
,,S18,742322,001,FEMALE,35,2025-05-21_06h23.40.551,Serial_Dependence_U,2023.2.3,Win32,59.88023952,67e184908b8cd53c87ac90a2,682cd3dfea4e15896da7c0a6,682da963736b6d0aea59f348,,,,,,,,,,,,1260.9962,5,1260.9963,,,,1264.133,1264.6278,1263.6288,1264.1329,1262.0125,48,1263.6286,1264.6278,1265.1278,1265.1278,1266.8494,1124,1266.8494,2,1267.8436,5,3,153,9,1,1.6,0.7,Time
,,S18,742322,001,FEMALE,35,2025-05-21_06h23.40.551,Serial_Dependence_U,2023.2.3,Win32,59.88023952,67e184908b8cd53c87ac90a2,682cd3dfea4e15896da7c0a6,682da963736b6d0aea59f348,,,,,,,,,,,,1267.844,5,1267.8442,,,,1270.5981,1271.0927,1270.0768,1270.5979,1268.8654,43,1270.0766,1271.0927,1271.5926,1271.5927,1273.8807,1067.9,1273.8808,2,1274.8751,5,4,154,2,1,1.2,0.3,Time
,,S18,742322,001,FEMALE,35,2025-05-21_06h23.40.551,Serial_Dependence_U,2023.2.3,Win32,59.88023952,67e184908b8cd53c87ac90a2,682cd3dfea4e15896da7c0a6,682da963736b6d0aea59f348,,,,,,,,,,,,1274.8755,5,1274.8757,,,,1277.8111,1278.3074,1277.3085,1277.811,1275.8918,299,1277.3084,1278.3075,1278.8073,1278.8074,1280.7787,1216.2,1280.7789,2,1281.7731,5,5,155,18,1,1.4,0.7,Time
,,S18,742322,001,FEMALE,35,2025-05-21_06h23.40.551,Serial_Dependence_U,2023.2.3,Win32,59.88023952,67e184908b8cd53c87ac90a2,682cd3dfea4e15896da7c0a6,682da963736b6d0aea59f348,,,,,,,,,,,,1281.7736,5,1281.7738,,,,1284.1067,1284.6056,1283.5928,1284.1065,1282.7902,53,1283.5927,1284.6056,1285.1055,1285.1055,1286.4392,984.2,1286.4395,4,1287.4382,5,6,156,10,1,0.8,0.3,Time
,,S18,742322,001,FEMALE,35,2025-05-21_06h23.40.551,Serial_Dependence_U,2023.2.3,Win32,59.88023952,67e184908b8cd53c87ac90a2,682cd3dfea4e15896da7c0a6,682da963736b6d0aea59f348,,,,,,,,,,,,1287.4387,5,1287.439,,,,1290.1714,1290.6706,1289.6594,1290.1712,1288.4554,183,1289.6593,1290.6706,1291.1705,1291.1705,1292.9421,1315,1292.9423,4,1293.9364,5,7,157,12,1,1.2,0.3,Time
,,S18,742322,001,FEMALE,35,2025-05-21_06h23.40.551,Serial_Dependence_U,2023.2.3,Win32,59.88023952,67e184908b8cd53c87ac90a2,682cd3dfea4e15896da7c0a6,682da963736b6d0aea59f348,,,,,,,,,,,,1293.9369,5,1293.9371,,,,1296.8698,1297.3688,1296.3575,1296.8696,1294.9536,335,1296.3573,1297.3688,1297.8687,1297.8687,1299.6402,1199.7,1299.6403,2,1300.6346,5,8,158,8,1,1.4,0.7,Time
,,S18,742322,001,FEMALE,35,2025-05-21_06h23.40.551,Serial_Dependence_U,2023.2.3,Win32,59.88023952,67e184908b8cd53c87ac90a2,682cd3dfea4e15896da7c0a6,682da963736b6d0aea59f348,,,,,,,,,,,,1300.635,5,1300.6352,,,,1303.7539,1304.2502,1303.2512,1303.7538,1301.6393,110,1303.251,1304.2502,1304.7501,1304.7501,1306.1717,1366.4,1306.1718,2,1307.1662,5,9,159,4,1,1.6,0.3,Time
,,S18,742322,001,FEMALE,35,2025-05-21_06h23.40.551,Serial_Dependence_U,2023.2.3,Win32,59.88023952,67e184908b8cd53c87ac90a2,682cd3dfea4e15896da7c0a6,682da963736b6d0aea59f348,,,,,,,,,,,,1307.1666,5,1307.1669,,,,1310.0994,1310.5984,1309.583,1310.0993,1308.1709,297,1309.5828,1310.5984,1311.0982,1311.0984,1312.8698,1383,1312.87,3,1313.8642,5,10,160,3,1,1.4,0.3,Time
,,S18,742322,001,FEMALE,35,2025-05-21_06h23.40.551,Serial_Dependence_U,2023.2.3,Win32,59.88023952,67e184908b8cd53c87ac90a2,682cd3dfea4e15896da7c0a6,682da963736b6d0aea59f348,,,,,,,,,,,,1313.8647,5,1313.8649,,,,1317.0143,1317.5132,1316.4976,1317.014,1314.8813,178,1316.4974,1317.5132,1318.013,1318.0131,1320.3177,1516.2,1320.3178,2,1321.3122,5,11,161,24,1,1.6,0.3,Time
,,S18,742322,001,FEMALE,35,2025-05-21_06h23.40.551,Serial_Dependence_U,2023.2.3,Win32,59.88023952,67e184908b8cd53c87ac90a2,682cd3dfea4e15896da7c0a6,682da963736b6d0aea59f348,,,,,,,,,,,,1321.3127,5,1321.313,,,,1324.4494,1324.9445,1323.933,1324.4494,1322.3292,206,1323.933,1324.9445,1325.4443,1325.4444,1327.4823,1527.5,1327.4824,3,1328.4768,5,12,162,14,1,1.6,0.3,Time
,,S18,742322,001,FEMALE,35,2025-05-21_06h23.40.551,Serial_Dependence_U,2023.2.3,Win32,59.88023952,67e184908b8cd53c87ac90a2,682cd3dfea4e15896da7c0a6,682da963736b6d0aea59f348,,,,,,,,,,,,1328.4773,5,1328.4776,,,,1331.41,1331.9092,1330.8979,1331.4098,1329.4938,58,1330.8978,1331.9092,1332.4092,1332.4092,1335.6299,1322.4,1335.63,2,1336.6246,5,13,163,23,1,1.4,0.3,Time
,,S18,742322,001,FEMALE,35,2025-05-21_06h23.40.551,Serial_Dependence_U,2023.2.3,Win32,59.88023952,67e184908b8cd53c87ac90a2,682cd3dfea4e15896da7c0a6,682da963736b6d0aea59f348,,,,,,,,,,,,1336.6249,5,1336.6251,,,,1339.1575,1339.6571,1338.6428,1339.1574,1337.6287,255,1338.6425,1339.6571,1340.157,1340.157,1342.2402,1343,1342.2404,5,1343.2394,5,14,164,26,1,1,0.7,Time
,,S18,742322,001,FEMALE,35,2025-05-21_06h23.40.551,Serial_Dependence_U,2023.2.3,Win32,59.88023952,67e184908b8cd53c87ac90a2,682cd3dfea4e15896da7c0a6,682da963736b6d0aea59f348,,,,,,,,,,,,1343.24,5,1343.2401,,,,1345.5755,1346.072,1345.0727,1345.5755,1344.2609,49,1345.0726,1346.0721,1346.5718,1346.5719,1348.2269,1182.6,1348.227,5,1349.2211,5,15,165,15,1,0.8,0.7,Time
,,S18,742322,001,FEMALE,35,2025-05-21_06h23.40.551,Serial_Dependence_U,2023.2.3,Win32,59.88023952,67e184908b8cd53c87ac90a2,682cd3dfea4e15896da7c0a6,682da963736b6d0aea59f348,,,,,,,,,,,,1349.2215,5,1349.2218,,,,1352.3586,1352.8535,1351.8572,1352.3585,1350.2381,276,1351.8571,1352.8535,1353.3533,1353.3533,1355.4081,1527.2,1355.4084,3,1356.4025,5,16,166,19,1,1.6,0.7,Time
,,S18,742322,001,FEMALE,35,2025-05-21_06h23.40.551,Serial_Dependence_U,2023.2.3,Win32,59.88023952,67e184908b8cd53c87ac90a2,682cd3dfea4e15896da7c0a6,682da963736b6d0aea59f348,,,,,,,,,,,,1356.4032,5,1356.4035,,,,1358.7402,1359.235,1358.222,1358.74,1357.4056,329,1358.222,1359.235,1359.7348,1359.7349,1362.0895,1431.3,1362.0897,5,1363.0839,5,17,167,0,1,0.8,0.3,Time
,,S18,742322,001,FEMALE,35,2025-05-21_06h23.40.551,Serial_Dependence_U,2023.2.3,Win32,59.88023952,67e184908b8cd53c87ac90a2,682cd3dfea4e15896da7c0a6,682da963736b6d0aea59f348,,,,,,,,,,,,1363.0842,5,1363.0847,,,,1366.0216,1366.5163,1365.5006,1366.0215,1364.0887,122,1365.5004,1366.5163,1367.0162,1367.0162,1368.333,1288.7,1368.3333,2,1369.3322,5,18,168,13,1,1.4,0.3,Time
,,S18,742322,001,FEMALE,35,2025-05-21_06h23.40.551,Serial_Dependence_U,2023.2.3,Win32,59.88023952,67e184908b8cd53c87ac90a2,682cd3dfea4e15896da7c0a6,682da963736b6d0aea59f348,,,,,,,,,,,,1369.3325,5,1369.333,,,,1372.2818,1372.7811,1371.7683,1372.2816,1370.3493,242,1371.7682,1372.7812,1373.2811,1373.2811,1375.6189,1408.9,1375.619,3,1376.6136,5,19,169,28,1,1.4,0.7,Time
,,S18,742322,001,FEMALE,35,2025-05-21_06h23.40.551,Serial_Dependence_U,2023.2.3,Win32,59.88023952,67e184908b8cd53c87ac90a2,682cd3dfea4e15896da7c0a6,682da963736b6d0aea59f348,,,,,,,,,,,,1376.6141,5,1376.6143,,,,1378.968,1379.4627,1378.4498,1378.968,1377.6309,101,1378.4497,1379.4628,1379.9626,1379.9626,1382.5004,1098.7,1382.5006,5,1383.495,5,20,170,5,1,0.8,0.7,Time
,,S18,742322,001,FEMALE,35,2025-05-21_06h23.40.551,Serial_Dependence_U,2023.2.3,Win32,59.88023952,67e184908b8cd53c87ac90a2,682cd3dfea4e15896da7c0a6,682da963736b6d0aea59f348,,,,,,,,,,,,1383.4954,5,1383.4956,,,,1386.0281,1386.5274,1385.5159,1386.0279,1384.5121,107,1385.5158,1386.5274,1387.0273,1387.0273,1388.9486,1404.5,1388.9488,5,1389.9432,5,21,171,1,1,1,0.3,Time
,,S18,742322,001,FEMALE,35,2025-05-21_06h23.40.551,Serial_Dependence_U,2023.2.3,Win32,59.88023952,67e184908b8cd53c87ac90a2,682cd3dfea4e15896da7c0a6,682da963736b6d0aea59f348,,,,,,,,,,,,1389.9438,5,1389.944,,,,1392.6976,1393.1922,1392.1764,1392.6974,1390.9603,265,1392.1763,1393.1922,1393.6922,1393.6922,1395.6969,1541.4,1395.6971,4,1396.6913,5,22,172,17,1,1.2,0.7,Time
,,S18,742322,001,FEMALE,35,2025-05-21_06h23.40.551,Serial_Dependence_U,2023.2.3,Win32,59.88023952,67e184908b8cd53c87ac90a2,682cd3dfea4e15896da7c0a6,682da963736b6d0aea59f348,,,,,,,,,,,,1396.6919,5,1396.6921,,,,1399.8273,1400.3236,1399.3081,1399.8272,1397.6962,41,1399.3079,1400.3236,1400.8236,1400.8236,1403.3114,1484.6,1403.3115,2,1404.3059,5,23,173,29,1,1.6,0.7,Time
,,S18,742322,001,FEMALE,35,2025-05-21_06h23.40.551,Serial_Dependence_U,2023.2.3,Win32,59.88023952,67e184908b8cd53c87ac90a2,682cd3dfea4e15896da7c0a6,682da963736b6d0aea59f348,,,,,,,,,,,,1404.3063,5,1404.3066,,,,1406.8389,1407.3384,1406.3269,1406.8388,1405.3063,193,1406.3269,1407.3384,1407.8382,1407.8382,1411.0076,1264.6,1411.0078,4,1412.0037,5,24,174,11,1,1,0.3,Time
,,S18,742322,001,FEMALE,35,2025-05-21_06h23.40.551,Serial_Dependence_U,2023.2.3,Win32,59.88023952,67e184908b8cd53c87ac90a2,682cd3dfea4e15896da7c0a6,682da963736b6d0aea59f348,,,,,,,,,,,,1412.0041,5,1412.0043,,,,1414.3415,1414.8363,1413.837,1414.3413,1413.0252,40,1413.8368,1414.8363,1415.3362,1415.3362,1417.0575,1201.1,1417.0577,5,1418.052,5,25,175,20,1,0.8,0.3,Time
,,S18,742322,001,FEMALE,35,2025-05-21_06h23.40.551,Serial_Dependence_U,2023.2.3,Win32,59.88023952,67e184908b8cd53c87ac90a2,682cd3dfea4e15896da7c0a6,682da963736b6d0aea59f348,,,,,,,,,,,,1418.0524,5,1418.0527,,,,1420.8065,1421.301,1420.2882,1420.8065,1419.0737,38,1420.2881,1421.3011,1421.801,1421.801,1423.7043,1426.8,1423.7045,4,1424.7002,5,26,176,27,1,1.2,0.7,Time
,,S18,742322,001,FEMALE,35,2025-05-21_06h23.40.551,Serial_Dependence_U,2023.2.3,Win32,59.88023952,67e184908b8cd53c87ac90a2,682cd3dfea4e15896da7c0a6,682da963736b6d0aea59f348,,,,,,,,,,,,1424.7006,5,1424.7008,,,,1427.25,1427.7493,1426.7335,1427.2498,1425.7173,348,1426.7333,1427.7493,1428.2492,1428.2492,1429.8707,1204.7,1429.8708,4,1430.8652,5,27,177,21,1,1,0.3,Time
,,S18,742322,001,FEMALE,35,2025-05-21_06h23.40.551,Serial_Dependence_U,2023.2.3,Win32,59.88023952,67e184908b8cd53c87ac90a2,682cd3dfea4e15896da7c0a6,682da963736b6d0aea59f348,,,,,,,,,,,,1430.8658,5,1430.8661,,,,1433.6028,1434.0976,1433.0863,1433.6027,1431.8685,24,1433.0862,1434.0976,1434.5974,1434.5974,1436.2857,1232.4,1436.2857,3,1437.28,5,28,178,7,1,1.2,0.7,Time
,,S18,742322,001,FEMALE,35,2025-05-21_06h23.40.551,Serial_Dependence_U,2023.2.3,Win32,59.88023952,67e184908b8cd53c87ac90a2,682cd3dfea4e15896da7c0a6,682da963736b6d0aea59f348,,,,,,,,,,,,1437.2804,5,1437.2806,,,,1439.8177,1440.3125,1439.3137,1439.8176,1438.3015,338,1439.3135,1440.3126,1440.8124,1440.8125,1443.0657,1398.3,1443.0659,5,1444.0615,5,29,179,6,1,1,0.7,Time
,,S18,742322,001,FEMALE,35,2025-05-21_06h23.40.551,Serial_Dependence_U,2023.2.3,Win32,59.88023952,67e184908b8cd53c87ac90a2,682cd3dfea4e15896da7c0a6,682da963736b6d0aea59f348,,,,,,,,,,,,1444.0618,6,1450.6598,s,6.5762,,1453.5972,1454.092,1453.0808,1453.5971,1451.6639,324,1453.0808,1454.0921,1454.5918,1454.592,1456.7966,1383,1456.7968,3,1457.7911,6,0,180,18,1,1.4,0.7,Time
,,S18,742322,001,FEMALE,35,2025-05-21_06h23.40.551,Serial_Dependence_U,2023.2.3,Win32,59.88023952,67e184908b8cd53c87ac90a2,682cd3dfea4e15896da7c0a6,682da963736b6d0aea59f348,,,,,,,,,,,,1457.7917,6,1457.7936,,,,1460.9286,1461.4234,1460.4244,1460.9285,1458.8079,88,1460.4242,1461.4234,1461.9232,1461.9233,1463.7945,1257.9,1463.7946,2,1464.7891,6,1,181,19,1,1.6,0.7,Time
,,S18,742322,001,FEMALE,35,2025-05-21_06h23.40.551,Serial_Dependence_U,2023.2.3,Win32,59.88023952,67e184908b8cd53c87ac90a2,682cd3dfea4e15896da7c0a6,682da963736b6d0aea59f348,,,,,,,,,,,,1464.7896,6,1464.7899,,,,1467.51,1468.0048,1467.0056,1467.5099,1465.7923,246,1467.0055,1468.0048,1468.5047,1468.5047,1469.5747,188.8,1469.5748,1,1470.5708,6,2,182,2,1,1.2,0.3,Time
,,S18,742322,001,FEMALE,35,2025-05-21_06h23.40.551,Serial_Dependence_U,2023.2.3,Win32,59.88023952,67e184908b8cd53c87ac90a2,682cd3dfea4e15896da7c0a6,682da963736b6d0aea59f348,,,,,,,,,,,,1470.5712,6,1470.5715,,,,1472.9086,1473.4033,1472.4042,1472.9085,1471.5878,318,1472.404,1473.4033,1473.9033,1473.9033,1475.508,1166.3,1475.5081,5,1476.5025,6,3,183,5,1,0.8,0.7,Time
,,S18,742322,001,FEMALE,35,2025-05-21_06h23.40.551,Serial_Dependence_U,2023.2.3,Win32,59.88023952,67e184908b8cd53c87ac90a2,682cd3dfea4e15896da7c0a6,682da963736b6d0aea59f348,,,,,,,,,,,,1476.5029,6,1476.5031,,,,1479.6402,1480.1348,1479.1355,1479.6401,1477.5197,58,1479.1354,1480.1348,1480.6346,1480.6347,1482.7179,1443.9,1482.7182,2,1483.7172,6,4,184,14,1,1.6,0.3,Time
,,S18,742322,001,FEMALE,35,2025-05-21_06h23.40.551,Serial_Dependence_U,2023.2.3,Win32,59.88023952,67e184908b8cd53c87ac90a2,682cd3dfea4e15896da7c0a6,682da963736b6d0aea59f348,,,,,,,,,,,,1483.7181,6,1483.7184,,,,1486.2386,1486.733,1485.7339,1486.2385,1484.722,53,1485.7336,1486.733,1487.2328,1487.2329,1489.9873,1316.2,1489.9874,5,1490.9819,6,5,185,26,1,1,0.7,Time
,,S18,742322,001,FEMALE,35,2025-05-21_06h23.40.551,Serial_Dependence_U,2023.2.3,Win32,59.88023952,67e184908b8cd53c87ac90a2,682cd3dfea4e15896da7c0a6,682da963736b6d0aea59f348,,,,,,,,,,,,1490.9822,6,1490.9825,,,,1493.3151,1493.8144,1492.803,1493.3149,1491.999,152,1492.8029,1493.8144,1494.3143,1494.3143,1496.5976,1413.1,1496.5978,5,1497.5967,6,6,186,10,1,0.8,0.3,Time
,,S18,742322,001,FEMALE,35,2025-05-21_06h23.40.551,Serial_Dependence_U,2023.2.3,Win32,59.88023952,67e184908b8cd53c87ac90a2,682cd3dfea4e15896da7c0a6,682da963736b6d0aea59f348,,,,,,,,,,,,1497.5971,6,1497.5973,,,,1500.1344,1500.6291,1499.6302,1500.1344,1498.6166,173,1499.63,1500.6291,1501.129,1501.129,1503.0324,1425.5,1503.0325,5,1504.0281,6,7,187,11,1,1,0.3,Time
,,S18,742322,001,FEMALE,35,2025-05-21_06h23.40.551,Serial_Dependence_U,2023.2.3,Win32,59.88023952,67e184908b8cd53c87ac90a2,682cd3dfea4e15896da7c0a6,682da963736b6d0aea59f348,,,,,,,,,,,,1504.0285,6,1504.0288,,,,1506.3781,1506.8774,1505.8617,1506.378,1505.0451,50,1505.8616,1506.8774,1507.3772,1507.3773,1509.5488,1330.8,1509.549,5,1510.543,6,8,188,25,1,0.8,0.7,Time
,,S18,742322,001,FEMALE,35,2025-05-21_06h23.40.551,Serial_Dependence_U,2023.2.3,Win32,59.88023952,67e184908b8cd53c87ac90a2,682cd3dfea4e15896da7c0a6,682da963736b6d0aea59f348,,,,,,,,,,,,1510.5436,6,1510.5439,,,,1513.2929,1513.7922,1512.7766,1513.2927,1511.5646,174,1512.7765,1513.7922,1514.292,1514.292,1516.8301,1521.5,1516.8303,4,1517.8244,6,9,189,7,1,1.2,0.7,Time
,,S18,742322,001,FEMALE,35,2025-05-21_06h23.40.551,Serial_Dependence_U,2023.2.3,Win32,59.88023952,67e184908b8cd53c87ac90a2,682cd3dfea4e15896da7c0a6,682da963736b6d0aea59f348,,,,,,,,,,,,1517.825,6,1517.8253,,,,1520.9575,1521.4569,1520.4409,1520.9572,1518.8293,123,1520.4408,1521.4569,1521.9566,1521.9566,1524.1944,1334.3,1524.1946,2,1525.1891,6,10,190,4,1,1.6,0.3,Time
,,S18,742322,001,FEMALE,35,2025-05-21_06h23.40.551,Serial_Dependence_U,2023.2.3,Win32,59.88023952,67e184908b8cd53c87ac90a2,682cd3dfea4e15896da7c0a6,682da963736b6d0aea59f348,,,,,,,,,,,,1525.1898,6,1525.19,,,,1527.5271,1528.0216,1527.0223,1527.527,1526.2105,296,1527.0221,1528.0216,1528.5214,1528.5215,1530.643,1441.7,1530.6431,5,1531.6372,6,11,191,15,1,0.8,0.7,Time
,,S18,742322,001,FEMALE,35,2025-05-21_06h23.40.551,Serial_Dependence_U,2023.2.3,Win32,59.88023952,67e184908b8cd53c87ac90a2,682cd3dfea4e15896da7c0a6,682da963736b6d0aea59f348,,,,,,,,,,,,1531.6377,6,1531.638,,,,1534.758,1535.2529,1534.2568,1534.7579,1532.6543,326,1534.2567,1535.2529,1535.7529,1535.7529,1539.2905,1384.4,1539.2907,2,1540.2848,6,12,192,29,1,1.6,0.7,Time
,,S18,742322,001,FEMALE,35,2025-05-21_06h23.40.551,Serial_Dependence_U,2023.2.3,Win32,59.88023952,67e184908b8cd53c87ac90a2,682cd3dfea4e15896da7c0a6,682da963736b6d0aea59f348,,,,,,,,,,,,1540.2852,6,1540.2853,,,,1543.0182,1543.5173,1542.5013,1543.018,1541.2853,231,1542.5011,1543.5173,1544.0172,1544.0172,1546.4218,1564,1546.422,5,1547.4162,6,13,193,12,1,1.2,0.3,Time
,,S18,742322,001,FEMALE,35,2025-05-21_06h23.40.551,Serial_Dependence_U,2023.2.3,Win32,59.88023952,67e184908b8cd53c87ac90a2,682cd3dfea4e15896da7c0a6,682da963736b6d0aea59f348,,,,,,,,,,,,1547.4168,6,1547.417,,,,1550.3707,1550.8653,1549.8494,1550.3706,1548.4362,29,1549.8492,1550.8653,1551.3651,1551.3652,1553.3532,1440.5,1553.3534,3,1554.3476,6,14,194,23,1,1.4,0.3,Time
,,S18,742322,001,FEMALE,35,2025-05-21_06h23.40.551,Serial_Dependence_U,2023.2.3,Win32,59.88023952,67e184908b8cd53c87ac90a2,682cd3dfea4e15896da7c0a6,682da963736b6d0aea59f348,,,,,,,,,,,,1554.3481,6,1554.3483,,,,1557.0976,1557.5967,1556.5853,1557.0975,1555.3644,336,1556.5852,1557.5967,1558.0965,1558.0966,1560.851,1232.8,1560.8511,3,1561.8455,6,15,195,22,1,1.2,0.3,Time
,,S18,742322,001,FEMALE,35,2025-05-21_06h23.40.551,Serial_Dependence_U,2023.2.3,Win32,59.88023952,67e184908b8cd53c87ac90a2,682cd3dfea4e15896da7c0a6,682da963736b6d0aea59f348,,,,,,,,,,,,1561.8459,6,1561.8462,,,,1564.1788,1564.678,1563.6652,1564.1786,1562.8625,100,1563.665,1564.6781,1565.1779,1565.178,1566.766,1111.4,1566.7661,5,1567.7606,6,16,196,20,1,0.8,0.3,Time
,,S18,742322,001,FEMALE,35,2025-05-21_06h23.40.551,Serial_Dependence_U,2023.2.3,Win32,59.88023952,67e184908b8cd53c87ac90a2,682cd3dfea4e15896da7c0a6,682da963736b6d0aea59f348,,,,,,,,,,,,1567.7609,6,1567.7611,,,,1570.6936,1571.1928,1570.1814,1570.6935,1568.7656,223,1570.1813,1571.1929,1571.6928,1571.6928,1574.0312,1548.8,1574.0313,4,1575.0252,6,17,197,28,1,1.4,0.7,Time
,,S18,742322,001,FEMALE,35,2025-05-21_06h23.40.551,Serial_Dependence_U,2023.2.3,Win32,59.88023952,67e184908b8cd53c87ac90a2,682cd3dfea4e15896da7c0a6,682da963736b6d0aea59f348,,,,,,,,,,,,1575.0258,6,1575.0261,,,,1577.9582,1578.4576,1577.4463,1577.958,1576.0422,158,1577.4462,1578.4577,1578.9574,1578.9575,1581.0121,1333.6,1581.0123,3,1582.0067,6,18,198,13,1,1.4,0.3,Time
,,S18,742322,001,FEMALE,35,2025-05-21_06h23.40.551,Serial_Dependence_U,2023.2.3,Win32,59.88023952,67e184908b8cd53c87ac90a2,682cd3dfea4e15896da7c0a6,682da963736b6d0aea59f348,,,,,,,,,,,,1582.0072,6,1582.0074,,,,1584.5567,1585.0557,1584.0399,1584.5565,1583.0236,273,1584.0397,1585.0558,1585.5556,1585.5557,1587.8768,1399.6,1587.8769,5,1588.8713,6,19,199,21,1,1,0.3,Time
,,S18,742322,001,FEMALE,35,2025-05-21_06h23.40.551,Serial_Dependence_U,2023.2.3,Win32,59.88023952,67e184908b8cd53c87ac90a2,682cd3dfea4e15896da7c0a6,682da963736b6d0aea59f348,,,,,,,,,,,,1588.8718,6,1588.8721,,,,1591.6074,1592.1038,1591.1047,1591.6074,1589.8884,73,1591.1045,1592.1038,1592.6038,1592.6038,1594.775,1348.6,1594.7751,4,1595.7694,6,20,200,27,1,1.2,0.7,Time
,,S18,742322,001,FEMALE,35,2025-05-21_06h23.40.551,Serial_Dependence_U,2023.2.3,Win32,59.88023952,67e184908b8cd53c87ac90a2,682cd3dfea4e15896da7c0a6,682da963736b6d0aea59f348,,,,,,,,,,,,1595.7699,6,1595.7702,,,,1598.3194,1598.8185,1597.8059,1598.3192,1596.791,262,1597.8058,1598.8186,1599.3184,1599.3185,1601.4398,1645.8,1601.4399,5,1602.4343,6,21,201,1,1,1,0.3,Time
,,S18,742322,001,FEMALE,35,2025-05-21_06h23.40.551,Serial_Dependence_U,2023.2.3,Win32,59.88023952,67e184908b8cd53c87ac90a2,682cd3dfea4e15896da7c0a6,682da963736b6d0aea59f348,,,,,,,,,,,,1602.4348,6,1602.435,,,,1604.9843,1605.4835,1604.4676,1604.9842,1603.4513,351,1604.4674,1605.4835,1605.9832,1605.9832,1607.8715,1394,1607.8716,5,1608.8658,6,22,202,6,1,1,0.7,Time
,,S18,742322,001,FEMALE,35,2025-05-21_06h23.40.551,Serial_Dependence_U,2023.2.3,Win32,59.88023952,67e184908b8cd53c87ac90a2,682cd3dfea4e15896da7c0a6,682da963736b6d0aea59f348,,,,,,,,,,,,1608.8662,6,1608.8665,,,,1611.8024,1612.2982,1611.2992,1611.8022,1609.8874,272,1611.2989,1612.2983,1612.7981,1612.7981,1613.4151,46.5,1613.4154,1,1614.4143,6,23,203,3,1,1.4,0.3,Time
,,S18,742322,001,FEMALE,35,2025-05-21_06h23.40.551,Serial_Dependence_U,2023.2.3,Win32,59.88023952,67e184908b8cd53c87ac90a2,682cd3dfea4e15896da7c0a6,682da963736b6d0aea59f348,,,,,,,,,,,,1614.4147,6,1614.4149,,,,1617.1477,1617.6467,1616.6311,1617.1475,1615.4189,106,1616.6308,1617.6468,1618.1466,1618.1466,1620.3177,1689.8,1620.3177,5,1621.3124,6,24,204,17,1,1.2,0.7,Time
,,S18,742322,001,FEMALE,35,2025-05-21_06h23.40.551,Serial_Dependence_U,2023.2.3,Win32,59.88023952,67e184908b8cd53c87ac90a2,682cd3dfea4e15896da7c0a6,682da963736b6d0aea59f348,,,,,,,,,,,,1621.3129,6,1621.3131,,,,1623.6335,1624.1282,1623.129,1623.6334,1622.313,153,1623.1289,1624.1282,1624.6281,1624.6281,1626.9827,1441.3,1626.9829,5,1627.9772,6,25,205,0,1,0.8,0.3,Time
,,S18,742322,001,FEMALE,35,2025-05-21_06h23.40.551,Serial_Dependence_U,2023.2.3,Win32,59.88023952,67e184908b8cd53c87ac90a2,682cd3dfea4e15896da7c0a6,682da963736b6d0aea59f348,,,,,,,,,,,,1627.9775,6,1627.9778,,,,1630.9269,1631.4261,1630.4105,1630.9267,1628.9988,55,1630.4103,1631.4262,1631.9262,1631.9262,1634.0807,1256.7,1634.0809,2,1635.0753,6,26,206,8,1,1.4,0.7,Time
,,S18,742322,001,FEMALE,35,2025-05-21_06h23.40.551,Serial_Dependence_U,2023.2.3,Win32,59.88023952,67e184908b8cd53c87ac90a2,682cd3dfea4e15896da7c0a6,682da963736b6d0aea59f348,,,,,,,,,,,,1635.0757,6,1635.076,,,,1638.2251,1638.7242,1637.7129,1638.2249,1636.0924,113,1637.7129,1638.7243,1639.224,1639.2241,1641.6781,1360.6,1641.6783,2,1642.6731,6,27,207,9,1,1.6,0.7,Time
,,S18,742322,001,FEMALE,35,2025-05-21_06h23.40.551,Serial_Dependence_U,2023.2.3,Win32,59.88023952,67e184908b8cd53c87ac90a2,682cd3dfea4e15896da7c0a6,682da963736b6d0aea59f348,,,,,,,,,,,,1642.6735,6,1642.6737,,,,1645.2231,1645.7223,1644.7076,1645.2229,1643.6903,158,1644.7075,1645.7223,1646.2221,1646.2221,1648.4601,1268,1648.4603,4,1649.4546,6,28,208,16,1,1,0.7,Time
,,S18,742322,001,FEMALE,35,2025-05-21_06h23.40.551,Serial_Dependence_U,2023.2.3,Win32,59.88023952,67e184908b8cd53c87ac90a2,682cd3dfea4e15896da7c0a6,682da963736b6d0aea59f348,,,,,,,,,,,,1649.4551,6,1649.4553,,,,1652.6043,1653.1035,1652.0924,1652.6041,1650.4716,232,1652.0924,1653.1035,1653.6034,1653.6034,1656.158,1380.4,1656.1581,2,1657.1524,6,29,209,24,1,1.6,0.3,Time
,,S18,742322,001,FEMALE,35,2025-05-21_06h23.40.551,Serial_Dependence_U,2023.2.3,Win32,59.88023952,67e184908b8cd53c87ac90a2,682cd3dfea4e15896da7c0a6,682da963736b6d0aea59f348,,,,,,,,,,,,1657.153,7,1660.8016,s,3.6177,,1663.1392,1663.634,1662.6211,1663.139,1661.8064,140,1662.621,1663.634,1664.1338,1664.1338,1666.0886,1165.2,1666.0887,5,1667.083,7,0,210,5,1,0.8,0.7,Time
,,S18,742322,001,FEMALE,35,2025-05-21_06h23.40.551,Serial_Dependence_U,2023.2.3,Win32,59.88023952,67e184908b8cd53c87ac90a2,682cd3dfea4e15896da7c0a6,682da963736b6d0aea59f348,,,,,,,,,,,,1667.0834,7,1667.0853,,,,1670.0039,1670.4988,1669.4996,1670.0038,1668.0881,306,1669.4994,1670.4988,1670.9986,1670.9987,1673.0533,1716.1,1673.0535,4,1674.0478,7,1,211,13,1,1.4,0.3,Time
,,S18,742322,001,FEMALE,35,2025-05-21_06h23.40.551,Serial_Dependence_U,2023.2.3,Win32,59.88023952,67e184908b8cd53c87ac90a2,682cd3dfea4e15896da7c0a6,682da963736b6d0aea59f348,,,,,,,,,,,,1674.0482,7,1674.0485,,,,1676.5978,1677.097,1676.0809,1676.5976,1675.0648,73,1676.0808,1677.0971,1677.5967,1677.5968,1679.3181,1399.4,1679.3183,5,1680.3127,7,2,212,21,1,1,0.3,Time
,,S18,742322,001,FEMALE,35,2025-05-21_06h23.40.551,Serial_Dependence_U,2023.2.3,Win32,59.88023952,67e184908b8cd53c87ac90a2,682cd3dfea4e15896da7c0a6,682da963736b6d0aea59f348,,,,,,,,,,,,1680.3132,7,1680.3134,,,,1682.6461,1683.1452,1682.134,1682.646,1681.3298,255,1682.1339,1683.1453,1683.6451,1683.6451,1685.6485,1381.7,1685.6487,5,1686.6443,7,3,213,20,1,0.8,0.3,Time
,,S18,742322,001,FEMALE,35,2025-05-21_06h23.40.551,Serial_Dependence_U,2023.2.3,Win32,59.88023952,67e184908b8cd53c87ac90a2,682cd3dfea4e15896da7c0a6,682da963736b6d0aea59f348,,,,,,,,,,,,1686.6447,7,1686.6449,,,,1689.3986,1689.8934,1688.8776,1689.3985,1687.6658,12,1688.8774,1689.8934,1690.3932,1690.3933,1691.0985,147.3,1691.0987,1,1692.0927,7,4,214,2,1,1.2,0.3,Time
,,S18,742322,001,FEMALE,35,2025-05-21_06h23.40.551,Serial_Dependence_U,2023.2.3,Win32,59.88023952,67e184908b8cd53c87ac90a2,682cd3dfea4e15896da7c0a6,682da963736b6d0aea59f348,,,,,,,,,,,,1692.0934,7,1692.0937,,,,1694.8305,1695.3252,1694.3139,1694.8304,1693.0979,143,1694.3139,1695.3252,1695.825,1695.8251,1697.8962,1449.5,1697.8965,4,1698.8909,7,5,215,27,1,1.2,0.7,Time
,,S18,742322,001,FEMALE,35,2025-05-21_06h23.40.551,Serial_Dependence_U,2023.2.3,Win32,59.88023952,67e184908b8cd53c87ac90a2,682cd3dfea4e15896da7c0a6,682da963736b6d0aea59f348,,,,,,,,,,,,1698.8913,7,1698.8916,,,,1701.4409,1701.94,1700.9286,1701.4408,1699.9081,219,1700.9285,1701.9401,1702.4406,1702.4406,1704.5777,1316.1,1704.5779,5,1705.5725,7,6,216,11,1,1,0.3,Time
,,S18,742322,001,FEMALE,35,2025-05-21_06h23.40.551,Serial_Dependence_U,2023.2.3,Win32,59.88023952,67e184908b8cd53c87ac90a2,682cd3dfea4e15896da7c0a6,682da963736b6d0aea59f348,,,,,,,,,,,,1705.5728,7,1705.573,,,,1708.725,1709.2214,1708.2099,1708.7249,1706.5938,134,1708.2099,1709.2214,1709.7211,1709.7212,1711.8258,1696,1711.826,4,1712.8204,7,7,217,9,1,1.6,0.7,Time
,,S18,742322,001,FEMALE,35,2025-05-21_06h23.40.551,Serial_Dependence_U,2023.2.3,Win32,59.88023952,67e184908b8cd53c87ac90a2,682cd3dfea4e15896da7c0a6,682da963736b6d0aea59f348,,,,,,,,,,,,1712.8208,7,1712.821,,,,1715.9743,1716.4693,1715.4536,1715.9741,1713.8373,30,1715.4535,1716.4693,1716.9692,1716.9692,1718.9558,1547.9,1718.9559,3,1719.9517,7,8,218,14,1,1.6,0.3,Time
,,S18,742322,001,FEMALE,35,2025-05-21_06h23.40.551,Serial_Dependence_U,2023.2.3,Win32,59.88023952,67e184908b8cd53c87ac90a2,682cd3dfea4e15896da7c0a6,682da963736b6d0aea59f348,,,,,,,,,,,,1719.952,7,1719.9523,,,,1722.3062,1722.801,1721.7852,1722.3061,1720.9719,91,1721.785,1722.801,1723.3008,1723.3008,1725.0055,1199.6,1725.0055,5,1726,7,9,219,0,1,0.8,0.3,Time
,,S18,742322,001,FEMALE,35,2025-05-21_06h23.40.551,Serial_Dependence_U,2023.2.3,Win32,59.88023952,67e184908b8cd53c87ac90a2,682cd3dfea4e15896da7c0a6,682da963736b6d0aea59f348,,,,,,,,,,,,1726.0005,7,1726.0007,,,,1728.9211,1729.4157,1728.4167,1728.921,1727.0048,232,1728.4165,1729.4158,1729.9156,1729.9157,1731.3875,1233.3,1731.3877,2,1732.3817,7,10,220,3,1,1.4,0.3,Time
,,S18,742322,001,FEMALE,35,2025-05-21_06h23.40.551,Serial_Dependence_U,2023.2.3,Win32,59.88023952,67e184908b8cd53c87ac90a2,682cd3dfea4e15896da7c0a6,682da963736b6d0aea59f348,,,,,,,,,,,,1732.3821,7,1732.3824,,,,1735.5358,1736.0307,1735.0193,1735.5358,1733.3985,246,1735.0192,1736.0307,1736.5304,1736.5305,1738.1518,1399.6,1738.1519,2,1739.1464,7,11,221,4,1,1.6,0.3,Time
,,S18,742322,001,FEMALE,35,2025-05-21_06h23.40.551,Serial_Dependence_U,2023.2.3,Win32,59.88023952,67e184908b8cd53c87ac90a2,682cd3dfea4e15896da7c0a6,682da963736b6d0aea59f348,,,,,,,,,,,,1739.1468,7,1739.147,,,,1741.8796,1742.3788,1741.366,1741.8794,1740.1511,95,1741.3659,1742.3789,1742.8787,1742.8787,1744.8,1282.4,1744.8002,4,1745.7946,7,12,222,7,1,1.2,0.7,Time
,,S18,742322,001,FEMALE,35,2025-05-21_06h23.40.551,Serial_Dependence_U,2023.2.3,Win32,59.88023952,67e184908b8cd53c87ac90a2,682cd3dfea4e15896da7c0a6,682da963736b6d0aea59f348,,,,,,,,,,,,1745.7951,7,1745.7953,,,,1748.5277,1749.027,1748.0155,1748.5275,1746.8115,158,1748.0154,1749.027,1749.5269,1749.5269,1751.3816,1362.9,1751.3817,4,1752.3761,7,13,223,12,1,1.2,0.3,Time
,,S18,742322,001,FEMALE,35,2025-05-21_06h23.40.551,Serial_Dependence_U,2023.2.3,Win32,59.88023952,67e184908b8cd53c87ac90a2,682cd3dfea4e15896da7c0a6,682da963736b6d0aea59f348,,,,,,,,,,,,1752.3766,7,1752.3769,,,,1755.1137,1755.6085,1754.5973,1755.1136,1753.3766,58,1754.5973,1755.6085,1756.1084,1756.1084,1757.7967,1311,1757.7968,4,1758.7909,7,14,224,17,1,1.2,0.7,Time
,,S18,742322,001,FEMALE,35,2025-05-21_06h23.40.551,Serial_Dependence_U,2023.2.3,Win32,59.88023952,67e184908b8cd53c87ac90a2,682cd3dfea4e15896da7c0a6,682da963736b6d0aea59f348,,,,,,,,,,,,1758.7913,7,1758.7915,,,,1761.5076,1762.0067,1760.9955,1761.5074,1759.7944,224,1760.9954,1762.0067,1762.5067,1762.5068,1764.878,1732.6,1764.8781,5,1765.8723,7,15,225,22,1,1.2,0.3,Time
,,S18,742322,001,FEMALE,35,2025-05-21_06h23.40.551,Serial_Dependence_U,2023.2.3,Win32,59.88023952,67e184908b8cd53c87ac90a2,682cd3dfea4e15896da7c0a6,682da963736b6d0aea59f348,,,,,,,,,,,,1765.8728,7,1765.8729,,,,1768.4222,1768.9215,1767.9103,1768.422,1766.894,158,1767.9101,1768.9215,1769.4214,1769.4215,1771.1096,1199.6,1771.1097,4,1772.1039,7,16,226,1,1,1,0.3,Time
,,S18,742322,001,FEMALE,35,2025-05-21_06h23.40.551,Serial_Dependence_U,2023.2.3,Win32,59.88023952,67e184908b8cd53c87ac90a2,682cd3dfea4e15896da7c0a6,682da963736b6d0aea59f348,,,,,,,,,,,,1772.1046,7,1772.1049,,,,1774.4372,1774.9365,1773.9208,1774.437,1773.1087,347,1773.9206,1774.9366,1775.4363,1775.4364,1777.1247,1298.8,1777.1249,5,1778.1188,7,17,227,25,1,0.8,0.7,Time
,,S18,742322,001,FEMALE,35,2025-05-21_06h23.40.551,Serial_Dependence_U,2023.2.3,Win32,59.88023952,67e184908b8cd53c87ac90a2,682cd3dfea4e15896da7c0a6,682da963736b6d0aea59f348,,,,,,,,,,,,1778.1192,7,1778.1194,,,,1781.0354,1781.5346,1780.527,1781.0351,1779.1239,323,1780.5269,1781.5347,1782.0345,1782.0346,1784.1223,1645.2,1784.1225,4,1785.1171,7,18,228,28,1,1.4,0.7,Time
,,S18,742322,001,FEMALE,35,2025-05-21_06h23.40.551,Serial_Dependence_U,2023.2.3,Win32,59.88023952,67e184908b8cd53c87ac90a2,682cd3dfea4e15896da7c0a6,682da963736b6d0aea59f348,,,,,,,,,,,,1785.1176,7,1785.1178,,,,1788.2544,1788.7493,1787.7334,1788.2544,1786.1253,41,1787.7332,1788.7493,1789.2492,1789.2492,1791.0208,1333.1,1791.021,2,1792.0151,7,19,229,19,1,1.6,0.7,Time
,,S18,742322,001,FEMALE,35,2025-05-21_06h23.40.551,Serial_Dependence_U,2023.2.3,Win32,59.88023952,67e184908b8cd53c87ac90a2,682cd3dfea4e15896da7c0a6,682da963736b6d0aea59f348,,,,,,,,,,,,1792.0157,7,1792.016,,,,1795.1687,1795.1858,1794.0527,1795.1685,1793.0323,24,1794.0527,1795.1858,1795.1859,1795.1859,1796.7311,7,1796.7313,1,1798.0884,7,20,230,6,1,1,0.7,Time
,,S18,742322,001,FEMALE,35,2025-05-21_06h23.40.551,Serial_Dependence_U,2023.2.3,Win32,59.88023952,67e184908b8cd53c87ac90a2,682cd3dfea4e15896da7c0a6,682da963736b6d0aea59f348,,,,,,,,,,,,1798.0889,7,1798.0891,,,,1800.5465,1801.0459,1800.0299,1800.5464,1798.6136,207,1800.0298,1801.0459,1801.5457,1801.5457,1803.2289,1272.3,1803.2291,2,1804.2283,7,21,231,23,1,1.4,0.3,Time
,,S18,742322,001,FEMALE,35,2025-05-21_06h23.40.551,Serial_Dependence_U,2023.2.3,Win32,59.88023952,67e184908b8cd53c87ac90a2,682cd3dfea4e15896da7c0a6,682da963736b6d0aea59f348,,,,,,,,,,,,1804.2288,7,1804.2289,,,,1806.5781,1807.0776,1806.0616,1806.5781,1805.2452,40,1806.0614,1807.0776,1807.5773,1807.5775,1811.0653,1163.6,1811.0655,5,1812.0595,7,22,232,10,1,0.8,0.3,Time
,,S18,742322,001,FEMALE,35,2025-05-21_06h23.40.551,Serial_Dependence_U,2023.2.3,Win32,59.88023952,67e184908b8cd53c87ac90a2,682cd3dfea4e15896da7c0a6,682da963736b6d0aea59f348,,,,,,,,,,,,1812.06,7,1812.0602,,,,1815.197,1815.6918,1814.6762,1815.197,1813.0643,205,1814.676,1815.6918,1816.1918,1816.1918,1817.9952,1358.1,1817.9954,2,1818.9909,7,23,233,24,1,1.6,0.3,Time
,,S18,742322,001,FEMALE,35,2025-05-21_06h23.40.551,Serial_Dependence_U,2023.2.3,Win32,59.88023952,67e184908b8cd53c87ac90a2,682cd3dfea4e15896da7c0a6,682da963736b6d0aea59f348,,,,,,,,,,,,1818.9914,7,1818.9916,,,,1822.1238,1822.6233,1821.6074,1822.1237,1819.9957,74,1821.6073,1822.6234,1823.1231,1823.1231,1825.0228,1315.6,1825.0229,2,1826.0224,7,24,234,29,1,1.6,0.7,Time
,,S18,742322,001,FEMALE,35,2025-05-21_06h23.40.551,Serial_Dependence_U,2023.2.3,Win32,59.88023952,67e184908b8cd53c87ac90a2,682cd3dfea4e15896da7c0a6,682da963736b6d0aea59f348,,,,,,,,,,,,1826.0227,7,1826.0229,,,,1828.9719,1829.4713,1828.4556,1828.9718,1827.0391,53,1828.4554,1829.4713,1829.9713,1829.9713,1832.2043,1428.4,1832.2045,3,1833.2037,7,25,235,18,1,1.4,0.7,Time
,,S18,742322,001,FEMALE,35,2025-05-21_06h23.40.551,Serial_Dependence_U,2023.2.3,Win32,59.88023952,67e184908b8cd53c87ac90a2,682cd3dfea4e15896da7c0a6,682da963736b6d0aea59f348,,,,,,,,,,,,1833.2042,7,1833.2043,,,,1835.5534,1836.0529,1835.0368,1835.5533,1834.2206,72,1835.0368,1836.0529,1836.5527,1836.5528,1838.1193,916.9,1838.1194,4,1839.1186,7,26,236,15,1,0.8,0.7,Time
,,S18,742322,001,FEMALE,35,2025-05-21_06h23.40.551,Serial_Dependence_U,2023.2.3,Win32,59.88023952,67e184908b8cd53c87ac90a2,682cd3dfea4e15896da7c0a6,682da963736b6d0aea59f348,,,,,,,,,,,,1839.1189,7,1839.119,,,,1841.6684,1842.1679,1841.1518,1841.6683,1840.1356,331,1841.1518,1842.1679,1842.6677,1842.6677,1844.4842,935.5,1844.4843,2,1845.4836,7,27,237,26,1,1,0.7,Time
,,S18,742322,001,FEMALE,35,2025-05-21_06h23.40.551,Serial_Dependence_U,2023.2.3,Win32,59.88023952,67e184908b8cd53c87ac90a2,682cd3dfea4e15896da7c0a6,682da963736b6d0aea59f348,,,,,,,,,,,,1845.484,7,1845.4841,,,,1848.0334,1848.5327,1847.5167,1848.0333,1846.5004,306,1847.5166,1848.5327,1849.0326,1849.0327,1850.5327,883,1850.5329,2,1851.532,7,28,238,16,1,1,0.7,Time
,,S18,742322,001,FEMALE,35,2025-05-21_06h23.40.551,Serial_Dependence_U,2023.2.3,Win32,59.88023952,67e184908b8cd53c87ac90a2,682cd3dfea4e15896da7c0a6,682da963736b6d0aea59f348,,,,,,,,,,,,1851.5324,7,1851.5326,,,,1854.4815,1854.9809,1853.965,1854.4814,1852.5488,47,1853.9649,1854.9809,1855.4808,1855.4809,1857.2808,1285.9,1857.2809,2,1858.28,7,29,239,8,1,1.4,0.7,Time
,,S18,742322,001,FEMALE,35,2025-05-21_06h23.40.551,Serial_Dependence_U,2023.2.3,Win32,59.88023952,67e184908b8cd53c87ac90a2,682cd3dfea4e15896da7c0a6,682da963736b6d0aea59f348,,,,,,,,,,,,1858.2805,8,1860.1297,s,1.8355,,1862.8792,1863.3786,1862.3628,1862.8791,1861.1466,73,1862.3627,1863.3786,1863.8785,1863.8785,1866.2115,1440.3,1866.2116,4,1867.2109,8,0,240,7,1,1.2,0.7,Time
,,S18,742322,001,FEMALE,35,2025-05-21_06h23.40.551,Serial_Dependence_U,2023.2.3,Win32,59.88023952,67e184908b8cd53c87ac90a2,682cd3dfea4e15896da7c0a6,682da963736b6d0aea59f348,,,,,,,,,,,,1867.2113,8,1867.2124,,,,1869.5606,1870.0601,1869.0442,1869.5606,1868.2277,241,1869.0441,1870.0601,1870.56,1870.56,1872.0933,1009.6,1872.0935,4,1873.0927,8,1,241,10,1,0.8,0.3,Time
,,S18,742322,001,FEMALE,35,2025-05-21_06h23.40.551,Serial_Dependence_U,2023.2.3,Win32,59.88023952,67e184908b8cd53c87ac90a2,682cd3dfea4e15896da7c0a6,682da963736b6d0aea59f348,,,,,,,,,,,,1873.0931,8,1873.0932,,,,1876.0423,1876.5416,1875.5256,1876.0422,1874.1095,350,1875.5256,1876.5416,1877.0415,1877.0415,1878.9914,1282.9,1878.9915,2,1879.9906,8,2,242,8,1,1.4,0.7,Time
,,S18,742322,001,FEMALE,35,2025-05-21_06h23.40.551,Serial_Dependence_U,2023.2.3,Win32,59.88023952,67e184908b8cd53c87ac90a2,682cd3dfea4e15896da7c0a6,682da963736b6d0aea59f348,,,,,,,,,,,,1879.991,8,1879.9911,,,,1882.7403,1883.2398,1882.224,1882.7403,1881.0075,258,1882.2239,1883.2398,1883.7396,1883.7396,1885.4895,1200.7,1885.4897,3,1886.4889,8,3,243,17,1,1.2,0.7,Time
,,S18,742322,001,FEMALE,35,2025-05-21_06h23.40.551,Serial_Dependence_U,2023.2.3,Win32,59.88023952,67e184908b8cd53c87ac90a2,682cd3dfea4e15896da7c0a6,682da963736b6d0aea59f348,,,,,,,,,,,,1886.4893,8,1886.4894,,,,1889.0386,1889.538,1888.5221,1889.0386,1887.5057,73,1888.522,1889.538,1890.038,1890.038,1891.6212,1056.8,1891.6213,4,1892.6206,8,4,244,26,1,1,0.7,Time
,,S18,742322,001,FEMALE,35,2025-05-21_06h23.40.551,Serial_Dependence_U,2023.2.3,Win32,59.88023952,67e184908b8cd53c87ac90a2,682cd3dfea4e15896da7c0a6,682da963736b6d0aea59f348,,,,,,,,,,,,1892.6209,8,1892.6211,,,,1895.5701,1896.0695,1895.0536,1895.5699,1893.6372,316,1895.0535,1896.0696,1896.5695,1896.5695,1898.1528,995.2,1898.1529,2,1899.152,8,5,245,18,1,1.4,0.7,Time
,,S18,742322,001,FEMALE,35,2025-05-21_06h23.40.551,Serial_Dependence_U,2023.2.3,Win32,59.88023952,67e184908b8cd53c87ac90a2,682cd3dfea4e15896da7c0a6,682da963736b6d0aea59f348,,,,,,,,,,,,1899.1524,8,1899.1526,,,,1902.3016,1902.801,1901.7851,1902.3015,1900.1689,17,1901.785,1902.8011,1903.3009,1903.3009,1904.9842,1263.2,1904.9843,2,1905.9835,8,6,246,4,1,1.6,0.3,Time
,,S18,742322,001,FEMALE,35,2025-05-21_06h23.40.551,Serial_Dependence_U,2023.2.3,Win32,59.88023952,67e184908b8cd53c87ac90a2,682cd3dfea4e15896da7c0a6,682da963736b6d0aea59f348,,,,,,,,,,,,1905.984,8,1905.9841,,,,1908.5166,1909.016,1907.9999,1908.5166,1906.9838,62,1907.9999,1909.016,1909.5159,1909.516,1911.3488,1234.2,1911.3491,4,1912.3484,8,7,247,1,1,1,0.3,Time
,,S18,742322,001,FEMALE,35,2025-05-21_06h23.40.551,Serial_Dependence_U,2023.2.3,Win32,59.88023952,67e184908b8cd53c87ac90a2,682cd3dfea4e15896da7c0a6,682da963736b6d0aea59f348,,,,,,,,,,,,1912.3488,8,1912.3489,,,,1915.0814,1915.5808,1914.5649,1915.0812,1913.3487,290,1914.5649,1915.5808,1916.0807,1916.0807,1917.764,1198.5,1917.7642,3,1918.7634,8,8,248,22,1,1.2,0.3,Time
,,S18,742322,001,FEMALE,35,2025-05-21_06h23.40.551,Serial_Dependence_U,2023.2.3,Win32,59.88023952,67e184908b8cd53c87ac90a2,682cd3dfea4e15896da7c0a6,682da963736b6d0aea59f348,,,,,,,,,,,,1918.7638,8,1918.7639,,,,1921.9129,1922.4123,1921.3962,1921.9128,1919.78,288,1921.3961,1922.4123,1922.9122,1922.9122,1924.812,1429.1,1924.8122,2,1925.8114,8,9,249,14,1,1.6,0.3,Time
,,S18,742322,001,FEMALE,35,2025-05-21_06h23.40.551,Serial_Dependence_U,2023.2.3,Win32,59.88023952,67e184908b8cd53c87ac90a2,682cd3dfea4e15896da7c0a6,682da963736b6d0aea59f348,,,,,,,,,,,,1925.8117,8,1925.8119,,,,1928.7609,1929.2604,1928.2443,1928.7608,1926.8282,333,1928.2442,1929.2604,1929.7603,1929.7604,1931.6934,1142.9,1931.6936,2,1932.6927,8,10,250,28,1,1.4,0.7,Time
,,S18,742322,001,FEMALE,35,2025-05-21_06h23.40.551,Serial_Dependence_U,2023.2.3,Win32,59.88023952,67e184908b8cd53c87ac90a2,682cd3dfea4e15896da7c0a6,682da963736b6d0aea59f348,,,,,,,,,,,,1932.6931,8,1932.6933,,,,1935.8422,1936.3418,1935.326,1935.8421,1933.7097,69,1935.3259,1936.3418,1936.8417,1936.8418,1939.0581,1481,1939.0583,2,1940.0573,8,11,251,29,1,1.6,0.7,Time
,,S18,742322,001,FEMALE,35,2025-05-21_06h23.40.551,Serial_Dependence_U,2023.2.3,Win32,59.88023952,67e184908b8cd53c87ac90a2,682cd3dfea4e15896da7c0a6,682da963736b6d0aea59f348,,,,,,,,,,,,1940.0578,8,1940.058,,,,1942.6072,1943.1065,1942.0905,1942.6072,1941.0744,243,1942.0904,1943.1065,1943.6064,1943.6065,1945.573,1446,1945.5732,5,1946.5722,8,12,252,11,1,1,0.3,Time
,,S18,742322,001,FEMALE,35,2025-05-21_06h23.40.551,Serial_Dependence_U,2023.2.3,Win32,59.88023952,67e184908b8cd53c87ac90a2,682cd3dfea4e15896da7c0a6,682da963736b6d0aea59f348,,,,,,,,,,,,1946.5725,8,1946.5726,,,,1949.5218,1950.0213,1949.0053,1949.5218,1947.589,23,1949.0052,1950.0213,1950.5211,1950.5212,1952.4377,1213.7,1952.4378,2,1953.4371,8,13,253,23,1,1.4,0.3,Time
,,S18,742322,001,FEMALE,35,2025-05-21_06h23.40.551,Serial_Dependence_U,2023.2.3,Win32,59.88023952,67e184908b8cd53c87ac90a2,682cd3dfea4e15896da7c0a6,682da963736b6d0aea59f348,,,,,,,,,,,,1953.4375,8,1953.4377,,,,1956.1868,1956.6861,1955.6701,1956.1867,1954.4539,117,1955.67,1956.6862,1957.1859,1957.186,1959.3024,1349.5,1959.3025,4,1960.3018,8,14,254,12,1,1.2,0.3,Time
,,S18,742322,001,FEMALE,35,2025-05-21_06h23.40.551,Serial_Dependence_U,2023.2.3,Win32,59.88023952,67e184908b8cd53c87ac90a2,682cd3dfea4e15896da7c0a6,682da963736b6d0aea59f348,,,,,,,,,,,,1960.3022,8,1960.3024,,,,1963.4513,1963.9508,1962.9349,1963.4512,1961.3187,61,1962.9349,1963.9508,1964.4507,1964.4507,1967.1167,1721.6,1967.1169,4,1968.1163,8,15,255,19,1,1.6,0.7,Time
,,S18,742322,001,FEMALE,35,2025-05-21_06h23.40.551,Serial_Dependence_U,2023.2.3,Win32,59.88023952,67e184908b8cd53c87ac90a2,682cd3dfea4e15896da7c0a6,682da963736b6d0aea59f348,,,,,,,,,,,,1968.1168,8,1968.117,,,,1970.8659,1971.3653,1970.3493,1970.8657,1969.1331,107,1970.3492,1971.3653,1971.8653,1971.8653,1973.082,1031,1973.0821,2,1974.0813,8,16,256,27,1,1.2,0.7,Time
,,S18,742322,001,FEMALE,35,2025-05-21_06h23.40.551,Serial_Dependence_U,2023.2.3,Win32,59.88023952,67e184908b8cd53c87ac90a2,682cd3dfea4e15896da7c0a6,682da963736b6d0aea59f348,,,,,,,,,,,,1974.0818,8,1974.0819,,,,1977.031,1977.5303,1976.5144,1977.0309,1975.0981,46,1976.5143,1977.5303,1978.0302,1978.0302,1980.2466,1350.5,1980.2468,3,1981.246,8,17,257,13,1,1.4,0.3,Time
,,S18,742322,001,FEMALE,35,2025-05-21_06h23.40.551,Serial_Dependence_U,2023.2.3,Win32,59.88023952,67e184908b8cd53c87ac90a2,682cd3dfea4e15896da7c0a6,682da963736b6d0aea59f348,,,,,,,,,,,,1981.2462,8,1981.2463,,,,1983.5958,1984.0951,1983.0791,1983.5957,1982.2627,79,1983.079,1984.0952,1984.595,1984.595,1986.0283,777.8,1986.0285,3,1987.0277,8,18,258,15,1,0.8,0.7,Time
,,S18,742322,001,FEMALE,35,2025-05-21_06h23.40.551,Serial_Dependence_U,2023.2.3,Win32,59.88023952,67e184908b8cd53c87ac90a2,682cd3dfea4e15896da7c0a6,682da963736b6d0aea59f348,,,,,,,,,,,,1987.0281,8,1987.0282,,,,1989.5776,1990.0769,1989.061,1989.5774,1988.0445,95,1989.0609,1990.077,1990.5767,1990.5767,1992.1434,816.9,1992.1435,2,1993.1427,8,19,259,21,1,1,0.3,Time
,,S18,742322,001,FEMALE,35,2025-05-21_06h23.40.551,Serial_Dependence_U,2023.2.3,Win32,59.88023952,67e184908b8cd53c87ac90a2,682cd3dfea4e15896da7c0a6,682da963736b6d0aea59f348,,,,,,,,,,,,1993.143,8,1993.1432,,,,1995.6925,1996.1918,1995.1758,1995.6924,1994.1595,154,1995.1757,1996.1918,1996.6917,1996.6917,1998.3417,809.6,1998.3418,2,1999.3409,8,20,260,6,1,1,0.7,Time
,,S18,742322,001,FEMALE,35,2025-05-21_06h23.40.551,Serial_Dependence_U,2023.2.3,Win32,59.88023952,67e184908b8cd53c87ac90a2,682cd3dfea4e15896da7c0a6,682da963736b6d0aea59f348,,,,,,,,,,,,1999.3414,8,1999.3415,,,,2001.6907,2002.1901,2001.1743,2001.6906,2000.3578,284,2001.1741,2002.1901,2002.6901,2002.6901,2004.0567,883.4,2004.0568,4,2005.056,8,21,261,20,1,0.8,0.3,Time
,,S18,742322,001,FEMALE,35,2025-05-21_06h23.40.551,Serial_Dependence_U,2023.2.3,Win32,59.88023952,67e184908b8cd53c87ac90a2,682cd3dfea4e15896da7c0a6,682da963736b6d0aea59f348,,,,,,,,,,,,2005.0565,8,2005.0567,,,,2007.6057,2008.1051,2007.0893,2007.6057,2006.0737,75,2007.0892,2008.1052,2008.6051,2008.6051,2010.7549,1066.7,2010.7551,4,2011.7542,8,22,262,16,1,1,0.7,Time
,,S18,742322,001,FEMALE,35,2025-05-21_06h23.40.551,Serial_Dependence_U,2023.2.3,Win32,59.88023952,67e184908b8cd53c87ac90a2,682cd3dfea4e15896da7c0a6,682da963736b6d0aea59f348,,,,,,,,,,,,2011.7546,8,2011.7547,,,,2014.104,2014.6034,2013.5875,2014.1039,2012.7711,48,2013.5873,2014.6034,2015.1032,2015.1033,2016.6698,849.8,2016.67,4,2017.6692,8,23,263,25,1,0.8,0.7,Time
,,S18,742322,001,FEMALE,35,2025-05-21_06h23.40.551,Serial_Dependence_U,2023.2.3,Win32,59.88023952,67e184908b8cd53c87ac90a2,682cd3dfea4e15896da7c0a6,682da963736b6d0aea59f348,,,,,,,,,,,,2017.6696,8,2017.6698,,,,2020.8188,2021.3182,2020.3023,2020.8187,2018.686,260,2020.3022,2021.3182,2021.818,2021.818,2025.3342,2180.4,2025.3344,5,2026.3335,8,24,264,9,1,1.6,0.7,Time
,,S18,742322,001,FEMALE,35,2025-05-21_06h23.40.551,Serial_Dependence_U,2023.2.3,Win32,59.88023952,67e184908b8cd53c87ac90a2,682cd3dfea4e15896da7c0a6,682da963736b6d0aea59f348,,,,,,,,,,,,2026.3338,8,2026.3339,,,,2029.083,2029.5826,2028.5666,2029.083,2027.3503,138,2028.5665,2029.5826,2030.0824,2030.0825,2032.1657,1649.5,2032.1659,5,2033.1649,8,25,265,2,1,1.2,0.3,Time
,,S18,742322,001,FEMALE,35,2025-05-21_06h23.40.551,Serial_Dependence_U,2023.2.3,Win32,59.88023952,67e184908b8cd53c87ac90a2,682cd3dfea4e15896da7c0a6,682da963736b6d0aea59f348,,,,,,,,,,,,2033.1653,8,2033.1654,,,,2035.5147,2036.0142,2034.9983,2035.5146,2034.1818,182,2034.9981,2036.0142,2036.514,2036.5141,2038.4471,1242.5,2038.4472,5,2039.4465,8,26,266,0,1,0.8,0.3,Time
,,S18,742322,001,FEMALE,35,2025-05-21_06h23.40.551,Serial_Dependence_U,2023.2.3,Win32,59.88023952,67e184908b8cd53c87ac90a2,682cd3dfea4e15896da7c0a6,682da963736b6d0aea59f348,,,,,,,,,,,,2039.4469,8,2039.4472,,,,2041.7963,2042.2958,2041.2799,2041.7962,2040.4633,82,2041.2798,2042.2958,2042.7956,2042.7956,2044.3788,822.1,2044.379,3,2045.3781,8,27,267,5,1,0.8,0.7,Time
,,S18,742322,001,FEMALE,35,2025-05-21_06h23.40.551,Serial_Dependence_U,2023.2.3,Win32,59.88023952,67e184908b8cd53c87ac90a2,682cd3dfea4e15896da7c0a6,682da963736b6d0aea59f348,,,,,,,,,,,,2045.3786,8,2045.3788,,,,2048.5276,2049.0272,2048.0112,2048.5276,2046.3951,147,2048.0111,2049.0272,2049.5271,2049.5271,2051.5269,1468.1,2051.5271,2,2052.5263,8,28,268,24,1,1.6,0.3,Time
,,S18,742322,001,FEMALE,35,2025-05-21_06h23.40.551,Serial_Dependence_U,2023.2.3,Win32,59.88023952,67e184908b8cd53c87ac90a2,682cd3dfea4e15896da7c0a6,682da963736b6d0aea59f348,,,,,,,,,,,,2052.5266,8,2052.5268,,,,2055.4759,2055.9753,2054.9594,2055.4758,2053.5432,99,2054.9593,2055.9753,2056.4751,2056.4752,2058.8748,1738,2058.875,4,2059.8742,8,29,269,3,1,1.4,0.3,Time
