Scale_setup.started,Scale_setup.stopped,participant,session,sex,age,date,expName,psychopyVersion,OS,frameRate,Intro.started,Intro.stopped,key_resp_2.keys,key_resp_2.rt,key_resp_2.duration,block.started,direction,Block_id,block.stopped,trial_direction,Block_resp_2.keys,Block_resp_2.rt,Block_resp_2.duration,ITI.started,ITI.stopped,Mask_2.started,Mask_2.stopped,encoding.started,encoding.stopped,Cue.started,Cue.stopped,Response.started,Response.stopped,keyDuration,Feedback_Time.started,FeedbackID_T,Feedback_Time.stopped,trials.thisRepN,trials.thisTrialN,trials.thisN,trials.thisIndex,trials.ran,TimeDur,Coherence1,TrialType
0.0003000000000525,0.0004000000001411,S18,1,女,21,anonymized,Serial_Dependence_U,2023.2.3,Win32,120.48192771080112,,,,,,,,,,,,,,,,,,,,,,,,,,,,,,,,,,,
,,S18,1,女,21,anonymized,Serial_Dependence_U,2023.2.3,Win32,120.48192771080112,9.7736000000001,15.285800000000052,space,5.491400000000141,,,,,,,,,,,,,,,,,,,,,,,,,,,,,,,
,,S18,1,女,21,anonymized,Serial_Dependence_U,2023.2.3,Win32,120.48192771080112,,,,,,15.289100000000104,147.0,0.0,18.10630000000006,147.0,s,2.801400000000143,,22.057699999999954,22.55990000000014,21.55390000000014,22.057500000000005,19.1155,21.55380000000005,22.56010000000009,23.060900000000142,23.061000000000007,23.62890000000016,516.0,23.629100000000108,1.0,24.62369999999996,0.0,0.0,0.0,28.0,1.0,1.4,0.7,Time
,,S18,1,女,21,anonymized,Serial_Dependence_U,2023.2.3,Win32,120.48192771080112,,,,,,24.624199999999945,317.0,0.0,24.625900000000144,317.0,,,,28.803400000000156,29.301400000000143,28.295400000000143,28.803400000000156,25.628300000000053,28.29530000000005,29.301400000000143,29.80210000000011,29.80210000000011,60.486600000000095,1558.0,60.486600000000095,3.0,61.48090000000013,0.0,1.0,1.0,24.0,1.0,1.6,0.3,Time
,,S18,1,女,21,anonymized,Serial_Dependence_U,2023.2.3,Win32,120.48192771080112,,,,,,61.4816000000001,121.0,0.0,61.482,121.0,,,,64.85610000000008,65.35569999999996,64.35230000000004,64.85610000000008,62.486800000000045,64.35210000000009,65.35580000000004,65.8555,65.8556000000001,66.3556000000001,433.0,66.35569999999996,1.0,67.356,0.0,2.0,2.0,20.0,1.0,0.8,0.3,Time
,,S18,1,女,21,anonymized,Serial_Dependence_U,2023.2.3,Win32,120.48192771080112,,,,,,67.3566000000001,358.0,0.0,67.35669999999996,358.0,,,,71.0975,71.59730000000005,70.58930000000004,71.09740000000014,68.35610000000008,70.58919999999995,71.59730000000005,72.09719999999996,72.09730000000005,92.72190000000016,1208.0,92.722,3.0,93.722,0.0,3.0,3.0,17.0,1.0,1.2,0.7,Time
,,S18,1,女,21,anonymized,Serial_Dependence_U,2023.2.3,Win32,120.48192771080112,,,,,,93.72240000000014,78.0,0.0,93.72260000000009,78.0,,,,97.3055,97.80519999999996,96.79740000000017,97.30540000000012,94.73040000000016,96.79730000000006,97.80519999999996,98.30519999999996,98.30530000000005,121.06080000000006,1475.0,121.06090000000016,5.0,122.06330000000004,0.0,4.0,4.0,21.0,1.0,1.0,0.3,Time
,,S18,1,女,21,anonymized,Serial_Dependence_U,2023.2.3,Win32,120.48192771080112,,,,,,122.06390000000012,171.0,0.0,122.06419999999996,171.0,,,,125.4421000000001,125.93790000000016,124.9355,125.442,123.06890000000016,124.93540000000016,125.93790000000016,126.43780000000004,126.43800000000002,129.87619999999995,362.0,129.87640000000013,1.0,130.87719999999996,0.0,5.0,5.0,10.0,1.0,0.8,0.3,Time
,,S18,1,女,21,anonymized,Serial_Dependence_U,2023.2.3,Win32,120.48192771080112,,,,,,130.8775,252.0,0.0,130.87780000000006,252.0,,,,134.827,135.3211000000001,134.3215,134.82690000000014,131.8855,134.32130000000006,135.32119999999995,135.82119999999995,135.82119999999995,137.46869999999996,410.0,137.46880000000004,1.0,138.46290000000013,0.0,6.0,6.0,8.0,1.0,1.4,0.7,Time
,,S18,1,女,21,anonymized,Serial_Dependence_U,2023.2.3,Win32,120.48192771080112,,,,,,138.46330000000006,95.0,0.0,138.4636000000001,95.0,,,,142.43819999999994,142.93790000000013,141.9296000000001,142.43819999999994,139.46430000000004,141.9296000000001,142.93790000000013,143.43780000000004,143.43780000000004,146.22930000000002,850.0,146.22950000000003,1.0,147.22930000000002,0.0,7.0,7.0,23.0,1.0,1.4,0.3,Time
,,S18,1,女,21,anonymized,Serial_Dependence_U,2023.2.3,Win32,120.48192771080112,,,,,,147.22960000000012,201.0,0.0,147.22980000000007,201.0,,,,151.01030000000003,151.5091000000001,150.5046000000001,151.01019999999994,148.23790000000014,150.50440000000015,151.5091000000001,152.0091000000001,152.00919999999996,154.1271000000001,1149.0,154.12719999999996,3.0,155.12650000000002,0.0,8.0,8.0,22.0,1.0,1.2,0.3,Time
,,S18,1,女,21,anonymized,Serial_Dependence_U,2023.2.3,Win32,120.48192771080112,,,,,,155.127,254.0,0.0,155.12730000000005,254.0,,,,159.30450000000002,159.80419999999998,158.79619999999994,159.30440000000016,156.13069999999993,158.79619999999994,159.80430000000007,160.30410000000012,160.30419999999998,163.24569999999994,1425.0,163.24580000000003,2.0,164.24569999999994,0.0,9.0,9.0,4.0,1.0,1.6,0.3,Time
,,S18,1,女,21,anonymized,Serial_Dependence_U,2023.2.3,Win32,120.48192771080112,,,,,,164.24630000000008,49.0,0.0,164.24650000000003,49.0,,,,167.5961000000001,168.09569999999997,167.08760000000012,167.596,165.25440000000015,167.08760000000012,168.09569999999997,168.59590000000014,168.59590000000014,170.74569999999994,1266.0,170.74569999999994,5.0,171.74569999999994,0.0,10.0,10.0,5.0,1.0,0.8,0.7,Time
,,S18,1,女,21,anonymized,Serial_Dependence_U,2023.2.3,Win32,120.48192771080112,,,,,,171.74610000000007,68.0,0.0,171.74619999999993,68.0,,,,175.901,176.39569999999998,175.39300000000003,175.901,172.75430000000006,175.39290000000017,176.39569999999998,176.89980000000003,176.89980000000003,178.8845,1084.0,178.8845,1.0,179.88269999999994,0.0,11.0,11.0,9.0,1.0,1.6,0.7,Time
,,S18,1,女,21,anonymized,Serial_Dependence_U,2023.2.3,Win32,120.48192771080112,,,,,,179.88310000000007,273.0,0.0,179.88319999999993,273.0,,,,183.66940000000017,184.17040000000011,183.1505,183.66940000000017,180.8845,183.15030000000007,184.1705,184.6706000000001,184.67069999999995,186.0621000000001,666.0,186.0621000000001,1.0,187.0621000000001,0.0,12.0,12.0,2.0,1.0,1.2,0.3,Time
,,S18,1,女,21,anonymized,Serial_Dependence_U,2023.2.3,Win32,120.48192771080112,,,,,,187.0625,30.0,0.0,187.06269999999995,30.0,,,,191.21230000000003,191.71219999999997,190.704,191.21219999999997,188.0705,190.7038000000001,191.71219999999997,192.21210000000008,192.21219999999997,194.58680000000004,1358.0,194.58680000000004,2.0,195.5874000000001,0.0,13.0,13.0,29.0,1.0,1.6,0.7,Time
,,S18,1,女,21,anonymized,Serial_Dependence_U,2023.2.3,Win32,120.48192771080112,,,,,,195.58790000000016,99.0,0.0,195.5882,99.0,,,,199.13490000000013,199.6336000000001,198.6266000000001,199.13490000000013,196.5926000000001,198.6265,199.6336000000001,200.13319999999996,200.13330000000008,202.201,1300.0,202.2011000000001,5.0,203.1955,0.0,14.0,14.0,6.0,1.0,1.0,0.7,Time
,,S18,1,女,21,anonymized,Serial_Dependence_U,2023.2.3,Win32,120.48192771080112,,,,,,203.1962,85.0,0.0,203.1965,85.0,,,,206.76280000000003,207.2619000000001,206.2592,206.76280000000003,204.1924000000001,206.2591000000001,207.262,207.75760000000008,207.75769999999997,209.34219999999996,725.0,209.3423,2.0,210.33680000000004,0.0,15.0,15.0,11.0,1.0,1.0,0.3,Time
,,S18,1,女,21,anonymized,Serial_Dependence_U,2023.2.3,Win32,120.48192771080112,,,,,,210.33719999999997,86.0,0.0,210.3374000000001,86.0,,,,214.2845,214.7905,213.77130000000005,214.28430000000003,211.33919999999995,213.7711000000001,214.7906000000001,215.29130000000004,215.29140000000007,217.4007,1200.0,217.4007,2.0,218.3949000000001,0.0,16.0,16.0,18.0,1.0,1.4,0.7,Time
,,S18,1,女,21,anonymized,Serial_Dependence_U,2023.2.3,Win32,120.48192771080112,,,,,,218.39540000000017,5.0,0.0,218.3956000000001,5.0,,,,221.77530000000007,222.27219999999997,221.26740000000007,221.7752,219.4005,221.26730000000003,222.27219999999997,222.76980000000003,222.7699000000001,224.267,579.0,224.267,2.0,225.2663000000001,0.0,17.0,17.0,0.0,1.0,0.8,0.3,Time
,,S18,1,女,21,anonymized,Serial_Dependence_U,2023.2.3,Win32,120.48192771080112,,,,,,225.2667,242.0,0.0,225.2669000000001,242.0,,,,229.237,229.73319999999995,228.72950000000003,229.23690000000016,226.26730000000003,228.72940000000017,229.73319999999995,230.2282,230.22830000000005,232.09250000000003,1141.0,232.09250000000003,2.0,233.09480000000008,0.0,18.0,18.0,3.0,1.0,1.4,0.3,Time
,,S18,1,女,21,anonymized,Serial_Dependence_U,2023.2.3,Win32,120.48192771080112,,,,,,233.0955,305.0,0.0,233.0957,305.0,,,,237.2422,237.7364000000001,236.73380000000003,237.2422,234.0951000000001,236.73369999999997,237.7365,238.23619999999997,238.23630000000003,240.57530000000003,1658.0,240.57530000000003,3.0,241.56969999999995,0.0,19.0,19.0,19.0,1.0,1.6,0.7,Time
,,S18,1,女,21,anonymized,Serial_Dependence_U,2023.2.3,Win32,120.48192771080112,,,,,,241.57019999999997,63.0,0.0,241.57069999999996,63.0,,,,245.745,246.2447,245.24180000000007,245.74490000000011,242.5744000000001,245.24180000000007,246.24480000000003,246.74,246.74,248.79169999999996,1447.0,248.79169999999996,2.0,249.7861000000001,0.0,20.0,20.0,14.0,1.0,1.6,0.3,Time
,,S18,1,女,21,anonymized,Serial_Dependence_U,2023.2.3,Win32,120.48192771080112,,,,,,249.78669999999997,197.0,0.0,249.7869000000001,197.0,,,,253.52460000000008,254.01940000000013,253.023,253.5245,250.79160000000007,253.023,254.01940000000013,254.5156000000001,254.5156000000001,256.7252,1417.0,256.72530000000006,4.0,257.71930000000003,0.0,21.0,21.0,27.0,1.0,1.2,0.7,Time
,,S18,1,女,21,anonymized,Serial_Dependence_U,2023.2.3,Win32,120.48192771080112,,,,,,257.7198000000001,223.0,0.0,257.72,223.0,,,,261.7078000000001,262.20760000000007,261.2,261.70769999999993,258.7331000000001,261.1999000000001,262.20760000000007,262.70769999999993,262.70769999999993,264.49180000000007,1175.0,264.49180000000007,2.0,265.48580000000004,0.0,22.0,22.0,13.0,1.0,1.4,0.3,Time
,,S18,1,女,21,anonymized,Serial_Dependence_U,2023.2.3,Win32,120.48192771080112,,,,,,265.4863,176.0,0.0,265.4865,176.0,,,,268.836,269.33580000000006,268.3278,268.8359000000001,266.49150000000003,268.32769999999994,269.3359000000001,269.8357,269.83580000000006,271.1442,633.0,271.1442,2.0,272.144,0.0,23.0,23.0,15.0,1.0,0.8,0.7,Time
,,S18,1,女,21,anonymized,Serial_Dependence_U,2023.2.3,Win32,120.48192771080112,,,,,,272.14440000000013,287.0,0.0,272.1445,287.0,,,,275.49430000000007,275.9942,274.98590000000013,275.4941000000001,273.1526000000001,274.98580000000004,275.9942,276.4942,276.49430000000007,278.3106000000001,1141.0,278.31069999999994,5.0,279.31069999999994,0.0,24.0,24.0,25.0,1.0,0.8,0.7,Time
,,S18,1,女,21,anonymized,Serial_Dependence_U,2023.2.3,Win32,120.48192771080112,,,,,,279.311,131.0,0.0,279.3112,131.0,,,,282.86090000000013,283.36069999999995,282.3526000000001,282.86090000000013,280.3192,282.3526000000001,283.36080000000004,283.86069999999995,283.86080000000004,285.45230000000004,941.0,285.45230000000004,2.0,286.45219999999995,0.0,25.0,25.0,26.0,1.0,1.0,0.7,Time
,,S18,1,女,21,anonymized,Serial_Dependence_U,2023.2.3,Win32,120.48192771080112,,,,,,286.4525,350.0,0.0,286.45269999999994,350.0,,,,290.2024000000001,290.70230000000004,289.6941000000001,290.20230000000004,287.4606000000001,289.694,290.70230000000004,291.20230000000004,291.20230000000004,293.1021000000001,1443.0,293.1021000000001,4.0,294.1022,0.0,26.0,26.0,7.0,1.0,1.2,0.7,Time
,,S18,1,女,21,anonymized,Serial_Dependence_U,2023.2.3,Win32,120.48192771080112,,,,,,294.1025,196.0,0.0,294.10280000000006,196.0,,,,297.6856000000001,298.18540000000013,297.17740000000015,297.6856000000001,295.11080000000004,297.17730000000006,298.18540000000013,298.6855,298.6855,300.21880000000004,908.0,300.21880000000004,2.0,301.21880000000004,0.0,27.0,27.0,1.0,1.0,1.0,0.3,Time
,,S18,1,女,21,anonymized,Serial_Dependence_U,2023.2.3,Win32,120.48192771080112,,,,,,301.21919999999994,49.0,0.0,301.2195,49.0,,,,305.00230000000005,305.50190000000015,304.4941000000001,305.00230000000005,302.22730000000007,304.4941000000001,305.502,306.00190000000015,306.002,308.19390000000016,1625.0,308.194,5.0,309.19350000000003,0.0,28.0,28.0,12.0,1.0,1.2,0.3,Time
,,S18,1,女,21,anonymized,Serial_Dependence_U,2023.2.3,Win32,120.48192771080112,,,,,,309.19390000000016,77.0,0.0,309.1942,77.0,,,,312.7438000000001,313.2436000000001,312.23569999999995,312.74369999999993,310.2021000000001,312.2356000000001,313.2436000000001,313.7436000000001,313.744,315.42680000000007,933.0,315.42690000000016,2.0,316.42690000000016,0.0,29.0,29.0,16.0,1.0,1.0,0.7,Time
,,S18,1,女,21,anonymized,Serial_Dependence_U,2023.2.3,Win32,120.48192771080112,,,,,,316.42730000000006,17.0,1.0,332.69319999999993,17.0,s,16.254699999999957,,336.4768,336.9764000000001,335.97369999999995,336.4768,333.7015,335.97369999999995,336.9764000000001,337.4764000000001,337.4766000000001,339.41540000000015,1325.0,339.41540000000015,4.0,339.41580000000005,1.0,0.0,30.0,22.0,1.0,1.2,0.3,Time
,,S18,1,女,21,anonymized,Serial_Dependence_U,2023.2.3,Win32,120.48192771080112,,,,,,339.41590000000014,88.0,1.0,339.4166000000001,88.0,,,,343.1619000000001,343.6595,342.6575,343.1618,340.4235,342.65740000000017,343.6596000000001,344.15490000000017,344.15500000000003,345.8346000000001,1168.0,345.83469999999994,3.0,345.83480000000003,1.0,1.0,31.0,7.0,1.0,1.2,0.7,Time
,,S18,1,女,21,anonymized,Serial_Dependence_U,2023.2.3,Win32,120.48192771080112,,,,,,345.8349000000001,76.0,1.0,345.835,76.0,,,,350.0133000000001,350.50980000000004,349.51,350.0133000000001,346.8432,349.50980000000004,350.50990000000013,351.00969999999995,351.00969999999995,352.9102,1300.0,352.91030000000006,2.0,352.9106000000001,1.0,2.0,32.0,4.0,1.0,1.6,0.3,Time
,,S18,1,女,21,anonymized,Serial_Dependence_U,2023.2.3,Win32,120.48192771080112,,,,,,352.91090000000014,353.0,1.0,352.911,353.0,,,,356.8597,357.3597,356.3514000000001,356.8597,353.918,356.35130000000004,357.3597,357.85940000000016,357.8595,360.06769999999995,1566.0,360.06780000000003,4.0,360.0679000000001,1.0,3.0,33.0,28.0,1.0,1.4,0.7,Time
,,S18,1,女,21,anonymized,Serial_Dependence_U,2023.2.3,Win32,120.48192771080112,,,,,,360.06819999999993,303.0,1.0,360.06840000000017,303.0,,,,363.45130000000006,363.951,362.9427,363.4512,361.0765,362.9427,363.9511000000001,364.4511000000001,364.4511000000001,366.10919999999993,967.0,366.1093000000001,4.0,366.10940000000016,1.0,4.0,34.0,10.0,1.0,0.8,0.3,Time
,,S18,1,女,21,anonymized,Serial_Dependence_U,2023.2.3,Win32,120.48192771080112,,,,,,366.1096000000001,113.0,1.0,366.1097,113.0,,,,369.6595,370.1593,369.15140000000014,369.6595,367.1181000000001,369.15140000000014,370.1593,370.6594000000001,370.6595,372.6341000000001,1325.0,372.6342,5.0,372.63440000000014,1.0,5.0,35.0,6.0,1.0,1.0,0.7,Time
,,S18,1,女,21,anonymized,Serial_Dependence_U,2023.2.3,Win32,120.48192771080112,,,,,,372.6347,315.0,1.0,372.6348,315.0,,,,376.1742,376.6722,375.6652,376.174,373.63190000000014,375.6652,376.6722,377.1721000000001,377.1722,378.907,1083.0,378.907,4.0,378.90719999999993,1.0,6.0,36.0,26.0,1.0,1.0,0.7,Time
,,S18,1,女,21,anonymized,Serial_Dependence_U,2023.2.3,Win32,120.48192771080112,,,,,,378.9075,49.0,1.0,378.9075,49.0,,,,383.09030000000007,383.5888000000001,382.5818,383.0902,379.9145,382.5817,383.5888000000001,384.089,384.0891000000001,386.18119999999993,1358.0,386.18119999999993,2.0,386.1816000000001,1.0,7.0,37.0,24.0,1.0,1.6,0.3,Time
,,S18,1,女,21,anonymized,Serial_Dependence_U,2023.2.3,Win32,120.48192771080112,,,,,,386.18180000000007,205.0,1.0,386.18180000000007,205.0,,,,389.7512,390.2506000000001,389.2425,389.7512,387.18,389.2425,390.2508,390.7507,390.7507,392.5422,1117.0,392.5422,4.0,392.54230000000007,1.0,8.0,38.0,1.0,1.0,1.0,0.3,Time
,,S18,1,女,21,anonymized,Serial_Dependence_U,2023.2.3,Win32,120.48192771080112,,,,,,392.5425,90.0,1.0,392.5427,90.0,,,,396.6924000000001,397.1922,396.1841000000001,396.6924000000001,393.5509000000001,396.184,397.1923000000001,397.6923000000001,397.6923000000001,400.2255,1807.0,400.2255,4.0,400.2256999999999,1.0,9.0,39.0,29.0,1.0,1.6,0.7,Time
,,S18,1,女,21,anonymized,Serial_Dependence_U,2023.2.3,Win32,120.48192771080112,,,,,,400.22610000000014,185.0,1.0,400.2262,185.0,,,,404.0091999999999,404.5086999999999,403.5008000000001,404.0091000000001,401.234,403.5007,404.5086999999999,405.0086999999999,405.0088,406.9264000000001,1444.0,406.92660000000006,4.0,406.9266999999999,1.0,10.0,40.0,2.0,1.0,1.2,0.3,Time
,,S18,1,女,21,anonymized,Serial_Dependence_U,2023.2.3,Win32,120.48192771080112,,,,,,406.9271999999999,146.0,1.0,406.9271999999999,146.0,,,,410.6674000000001,411.167,410.15910000000014,410.6673,407.9259000000001,410.1590000000001,411.167,411.6669000000001,411.667,413.49180000000007,1326.0,413.49180000000007,4.0,413.492,1.0,11.0,41.0,27.0,1.0,1.2,0.7,Time
,,S18,1,女,21,anonymized,Serial_Dependence_U,2023.2.3,Win32,120.48192771080112,,,,,,413.49240000000015,146.0,1.0,413.4925,146.0,,,,417.6423,418.1419000000001,417.1336999999999,417.6422,414.5003000000001,417.1336999999999,418.1419000000001,418.6419000000001,418.6419000000001,420.9596000000001,1652.0,420.9597,3.0,420.9599000000001,1.0,12.0,42.0,9.0,1.0,1.6,0.7,Time
,,S18,1,女,21,anonymized,Serial_Dependence_U,2023.2.3,Win32,120.48192771080112,,,,,,420.96019999999993,260.0,1.0,420.96019999999993,260.0,,,,424.7421000000001,425.2417,424.2337,424.742,421.9668000000001,424.2335,425.24180000000007,425.74180000000007,425.74190000000016,427.6333,1025.0,427.6334000000001,2.0,427.6335,1.0,13.0,43.0,12.0,1.0,1.2,0.3,Time
,,S18,1,女,21,anonymized,Serial_Dependence_U,2023.2.3,Win32,120.48192771080112,,,,,,427.6339000000001,125.0,1.0,427.634,125.0,,,,431.217,431.71660000000014,430.7086000000001,431.2169000000002,428.642,430.7085,431.7167,432.2169000000002,432.2169000000002,433.2915,550.0,433.2916000000001,1.0,433.2918,1.0,14.0,44.0,21.0,1.0,1.0,0.3,Time
,,S18,1,女,21,anonymized,Serial_Dependence_U,2023.2.3,Win32,120.48192771080112,,,,,,433.29210000000006,50.0,1.0,433.2921999999999,50.0,,,,436.65850000000006,437.1534000000001,436.15580000000006,436.65850000000006,434.2938000000001,436.1557,437.1534000000001,437.6539000000002,437.6539000000002,439.0887,698.0,439.0888000000001,2.0,439.0891000000001,1.0,15.0,45.0,0.0,1.0,0.8,0.3,Time
,,S18,1,女,21,anonymized,Serial_Dependence_U,2023.2.3,Win32,120.48192771080112,,,,,,439.0893,222.0,1.0,439.0894000000001,222.0,,,,443.0305,443.52540000000016,442.52990000000017,443.03040000000016,440.0973000000001,442.52990000000017,443.5255,444.02760000000006,444.0276999999999,446.3080000000001,1567.0,446.3080000000001,4.0,446.3082,1.0,16.0,46.0,8.0,1.0,1.4,0.7,Time
,,S18,1,女,21,anonymized,Serial_Dependence_U,2023.2.3,Win32,120.48192771080112,,,,,,446.3086000000001,329.0,1.0,446.3086000000001,329.0,,,,449.6584000000002,450.158,449.1502,449.6583,447.3166000000001,449.1501000000001,450.158,450.6583,450.6583,452.2828,933.0,452.2829000000001,4.0,452.283,1.0,17.0,47.0,5.0,1.0,0.8,0.7,Time
,,S18,1,女,21,anonymized,Serial_Dependence_U,2023.2.3,Win32,120.48192771080112,,,,,,452.2834000000002,246.0,1.0,452.28350000000006,246.0,,,,456.4667,456.9661999999999,455.95840000000015,456.46660000000014,453.2916000000001,455.95830000000007,456.9661999999999,457.4663000000001,457.4663000000001,459.5828000000001,1591.0,459.5828000000001,3.0,459.583,1.0,18.0,48.0,14.0,1.0,1.6,0.3,Time
,,S18,1,女,21,anonymized,Serial_Dependence_U,2023.2.3,Win32,120.48192771080112,,,,,,459.58330000000007,296.0,1.0,459.5835,296.0,,,,463.1663,463.6663,462.6583,463.1663,460.5913000000001,462.6583,463.6664000000001,464.1665,464.1665,465.8077,1055.0,465.8077,4.0,465.8080000000001,1.0,19.0,49.0,11.0,1.0,1.0,0.3,Time
,,S18,1,女,21,anonymized,Serial_Dependence_U,2023.2.3,Win32,120.48192771080112,,,,,,465.8083000000001,324.0,1.0,465.8085,324.0,,,,469.7833,470.2826999999999,469.2745000000001,469.7831999999999,466.8082,469.2745000000001,470.2826999999999,470.783,470.783,472.758,1566.0,472.758,4.0,472.7583,1.0,20.0,50.0,23.0,1.0,1.4,0.3,Time
,,S18,1,女,21,anonymized,Serial_Dependence_U,2023.2.3,Win32,120.48192771080112,,,,,,472.75860000000006,260.0,1.0,472.7586999999999,260.0,,,,476.3080000000001,476.8077,475.7997,476.3079000000002,473.7662,475.7996000000001,476.8077,477.3075,477.3075,478.6576999999999,700.0,478.6576999999999,1.0,478.6578,1.0,21.0,51.0,16.0,1.0,1.0,0.7,Time
,,S18,1,女,21,anonymized,Serial_Dependence_U,2023.2.3,Win32,120.48192771080112,,,,,,478.6581999999999,269.0,1.0,478.6583,269.0,,,,482.60790000000014,483.1076000000001,482.0994000000001,482.60780000000005,479.6662,482.0994000000001,483.1076000000001,483.60780000000005,483.60780000000005,485.7159000000001,1476.0,485.7159000000001,4.0,485.71610000000015,1.0,22.0,52.0,18.0,1.0,1.4,0.7,Time
,,S18,1,女,21,anonymized,Serial_Dependence_U,2023.2.3,Win32,120.48192771080112,,,,,,485.71660000000014,313.0,1.0,485.7167,313.0,,,,489.0579000000002,489.5574000000002,488.5495,489.0578000000001,486.71650000000005,488.5495,489.5574000000002,490.0574000000002,490.0575,491.5824000000002,967.0,491.5824000000002,4.0,491.5826000000001,1.0,23.0,53.0,15.0,1.0,0.8,0.7,Time
,,S18,1,女,21,anonymized,Serial_Dependence_U,2023.2.3,Win32,120.48192771080112,,,,,,491.58290000000017,68.0,1.0,491.5831000000001,68.0,,,,494.9324000000002,495.4323,494.4242,494.9324000000002,492.591,494.4242,495.4323,495.9321999999999,495.9321999999999,496.8242,141.0,496.8243000000001,1.0,496.8245,1.0,24.0,54.0,25.0,1.0,0.8,0.7,Time
,,S18,1,女,21,anonymized,Serial_Dependence_U,2023.2.3,Win32,120.48192771080112,,,,,,496.8249000000001,3.0,1.0,496.8252,3.0,,,,500.8077,501.3073,500.29940000000016,500.8075,497.8324000000002,500.2993000000001,501.3073,501.8071000000001,501.8071000000001,503.1821000000001,883.0,503.1821000000001,1.0,503.1824000000002,1.0,25.0,55.0,3.0,1.0,1.4,0.3,Time
,,S18,1,女,21,anonymized,Serial_Dependence_U,2023.2.3,Win32,120.48192771080112,,,,,,503.1828000000001,215.0,1.0,503.1829000000002,215.0,,,,507.1658000000001,507.6655,506.6573,507.1657,504.1909000000001,506.65719999999993,507.6656000000001,508.1655,508.1656000000001,510.0072,1267.0,510.0072,2.0,510.0073,1.0,26.0,56.0,13.0,1.0,1.4,0.3,Time
,,S18,1,女,21,anonymized,Serial_Dependence_U,2023.2.3,Win32,120.48192771080112,,,,,,510.0075,50.0,1.0,510.0076000000001,50.0,,,,513.7574000000002,514.2571,513.2489,513.7572,511.0157,513.2489,514.2571,514.7572,514.7572,516.6153000000002,1234.0,516.6153000000002,3.0,516.6153000000002,1.0,27.0,57.0,17.0,1.0,1.2,0.7,Time
,,S18,1,女,21,anonymized,Serial_Dependence_U,2023.2.3,Win32,120.48192771080112,,,,,,516.6157000000001,208.0,1.0,516.6158,208.0,,,,520.7656999999999,521.2653,520.2574999999999,520.7656999999999,517.624,520.2574000000002,521.2653,521.7653,521.7654000000002,524.315,2016.0,524.3151,4.0,524.3153,1.0,28.0,58.0,19.0,1.0,1.6,0.7,Time
,,S18,1,女,21,anonymized,Serial_Dependence_U,2023.2.3,Win32,120.48192771080112,,,,,,524.3154999999999,140.0,1.0,524.3156999999999,140.0,,,,527.6990000000001,528.1985,527.1902,527.6989000000001,525.3236999999999,527.1902,528.1985,528.6992,528.6992,529.9484000000002,849.0,529.9484000000002,4.0,529.9485,1.0,29.0,59.0,20.0,1.0,0.8,0.3,Time
,,S18,1,女,21,anonymized,Serial_Dependence_U,2023.2.3,Win32,120.48192771080112,,,,,,529.9489000000001,237.0,2.0,545.1711,237.0,s,15.215199999999982,,548.5483000000002,549.048,548.0453,548.5481000000002,546.1794000000002,548.0452,549.0481000000002,549.5519000000002,549.5519999999999,551.1039000000001,1018.0,551.104,4.0,551.1042,2.0,0.0,60.0,0.0,1.0,0.8,0.3,Time
,,S18,1,女,21,anonymized,Serial_Dependence_U,2023.2.3,Win32,120.48192771080112,,,,,,551.1043,213.0,2.0,551.105,213.0,,,,554.8458,555.3436999999999,554.3371000000002,554.8458,552.1042,554.3371000000002,555.3438000000001,555.8438000000001,555.8438000000001,557.9451999999999,1475.0,557.9453000000001,4.0,557.9455,2.0,1.0,61.0,17.0,1.0,1.2,0.7,Time
,,S18,1,女,21,anonymized,Serial_Dependence_U,2023.2.3,Win32,120.48192771080112,,,,,,557.9456,296.0,2.0,557.9456,296.0,,,,561.912,562.4066,561.4105,561.9118000000001,558.9458,561.4104000000002,562.4066,562.9024000000002,562.9024999999999,565.0787,1466.0,565.0787,3.0,565.0789000000002,2.0,2.0,62.0,23.0,1.0,1.4,0.3,Time
,,S18,1,女,21,anonymized,Serial_Dependence_U,2023.2.3,Win32,120.48192771080112,,,,,,565.0791999999999,196.0,2.0,565.0793000000001,196.0,,,,569.0286999999998,569.5234,568.5201999999999,569.0284999999999,566.0869000000002,568.5201999999999,569.5234,570.0231000000001,570.0231999999999,571.6206999999999,1168.0,571.6208000000001,2.0,571.6208000000001,2.0,3.0,63.0,28.0,1.0,1.4,0.7,Time
,,S18,1,女,21,anonymized,Serial_Dependence_U,2023.2.3,Win32,120.48192771080112,,,,,,571.6210000000001,132.0,2.0,571.6211000000001,132.0,,,,575.8044000000002,576.3061,575.2956000000001,575.8041000000001,572.6287,575.2956000000001,576.3061,576.8016,576.8016,579.3868,1658.0,579.3868,3.0,579.3869000000002,2.0,4.0,64.0,14.0,1.0,1.6,0.3,Time
,,S18,1,女,21,anonymized,Serial_Dependence_U,2023.2.3,Win32,120.48192771080112,,,,,,579.3873000000001,65.0,2.0,579.3873000000001,65.0,,,,582.9396999999999,583.4391,582.4369000000002,582.9396000000002,580.3954000000001,582.4367,583.4391,583.9392,583.9393,585.7955,1267.0,585.7955,4.0,585.7956999999999,2.0,5.0,65.0,6.0,1.0,1.0,0.7,Time
,,S18,1,女,21,anonymized,Serial_Dependence_U,2023.2.3,Win32,120.48192771080112,,,,,,585.796,306.0,2.0,585.796,306.0,,,,589.9414999999999,590.4426000000001,589.4366,589.9414000000002,586.8032000000001,589.4366,590.4426000000001,590.9428,590.9428,593.0621000000001,1467.0,593.0621000000001,2.0,593.0624000000003,2.0,6.0,66.0,19.0,1.0,1.6,0.7,Time
,,S18,1,女,21,anonymized,Serial_Dependence_U,2023.2.3,Win32,120.48192771080112,,,,,,593.0627,251.0,2.0,593.0627,251.0,,,,596.8366000000001,597.3309000000002,596.3356000000001,596.8366000000001,594.0699999999999,596.3354999999999,597.3309000000002,597.8274000000001,597.8275000000001,599.3697,968.0,599.3697999999999,2.0,599.3699999999999,2.0,7.0,67.0,12.0,1.0,1.2,0.3,Time
,,S18,1,女,21,anonymized,Serial_Dependence_U,2023.2.3,Win32,120.48192771080112,,,,,,599.3704000000002,319.0,2.0,599.3704000000002,319.0,,,,602.7180000000001,603.2181,602.2118,602.7179000000001,600.3784,602.2118,603.2181,603.7185,603.7185,605.2189000000001,907.0,605.2189000000001,4.0,605.2191,2.0,8.0,68.0,25.0,1.0,0.8,0.7,Time
,,S18,1,女,21,anonymized,Serial_Dependence_U,2023.2.3,Win32,120.48192771080112,,,,,,605.2194000000002,283.0,2.0,605.2194999999999,283.0,,,,608.5946000000001,609.0889000000002,608.0867000000001,608.5944999999999,606.2196999999999,608.0867000000001,609.0889000000002,609.5889999999999,609.5891000000001,610.8054999999999,724.0,610.8056000000001,2.0,610.8056999999999,2.0,9.0,69.0,20.0,1.0,0.8,0.3,Time
,,S18,1,女,21,anonymized,Serial_Dependence_U,2023.2.3,Win32,120.48192771080112,,,,,,610.806,40.0,2.0,610.8062,40.0,,,,614.989,615.4889000000001,614.4806000000001,614.9889000000001,611.8144000000002,614.4806000000001,615.4889000000001,615.9889000000001,615.9889000000001,618.2721000000001,1541.0,618.2721999999999,3.0,618.2724000000001,2.0,10.0,70.0,4.0,1.0,1.6,0.3,Time
,,S18,1,女,21,anonymized,Serial_Dependence_U,2023.2.3,Win32,120.48192771080112,,,,,,618.2727,343.0,2.0,618.2729000000002,343.0,,,,622.0227,622.5221999999999,621.5141999999998,622.0226,619.281,621.5141000000001,622.5221999999999,623.0221999999999,623.0221999999999,624.9553000000001,1383.0,624.9553000000001,4.0,624.9555,2.0,11.0,71.0,7.0,1.0,1.2,0.7,Time
,,S18,1,女,21,anonymized,Serial_Dependence_U,2023.2.3,Win32,120.48192771080112,,,,,,624.9557,150.0,2.0,624.9558,150.0,,,,628.9058,629.4054000000001,628.3971000000001,628.9057,625.9637,628.3971000000001,629.4055000000001,629.9053000000001,629.9054000000001,631.9551999999999,1418.0,631.9553000000001,3.0,631.9555,2.0,12.0,72.0,8.0,1.0,1.4,0.7,Time
,,S18,1,女,21,anonymized,Serial_Dependence_U,2023.2.3,Win32,120.48192771080112,,,,,,631.9559000000002,339.0,2.0,631.9561000000001,339.0,,,,635.9391,636.4386000000002,635.4304000000002,635.9386999999999,632.9638,635.4304000000002,636.4386000000002,636.9386000000002,636.9386000000002,638.6718000000001,1326.0,638.6718000000001,2.0,638.672,2.0,13.0,73.0,13.0,1.0,1.4,0.3,Time
,,S18,1,女,21,anonymized,Serial_Dependence_U,2023.2.3,Win32,120.48192771080112,,,,,,638.6723,111.0,2.0,638.6724000000002,111.0,,,,642.6469000000002,643.1468,642.1385,642.6469000000002,639.6719,642.1384,643.1468,643.6468,643.6468,645.1634000000001,993.0,645.1635000000001,2.0,645.1636000000001,2.0,14.0,74.0,3.0,1.0,1.4,0.3,Time
,,S18,1,女,21,anonymized,Serial_Dependence_U,2023.2.3,Win32,120.48192771080112,,,,,,645.1639000000002,58.0,2.0,645.164,58.0,,,,648.9471000000001,649.4467999999999,648.4388000000001,648.9470000000001,646.1718000000001,648.4388000000001,649.4467999999999,649.9472000000001,649.9473,651.8299000000002,1384.0,651.8299999999999,4.0,651.8301000000001,2.0,15.0,75.0,22.0,1.0,1.2,0.3,Time
,,S18,1,女,21,anonymized,Serial_Dependence_U,2023.2.3,Win32,120.48192771080112,,,,,,651.8303000000001,73.0,2.0,651.8304,73.0,,,,655.3734999999999,655.8716999999999,654.8695,655.3734000000002,652.836,654.8695,655.8718000000001,656.3668,656.3668,657.9773,1142.0,657.9774000000002,4.0,657.9776999999999,2.0,16.0,76.0,26.0,1.0,1.0,0.7,Time
,,S18,1,女,21,anonymized,Serial_Dependence_U,2023.2.3,Win32,120.48192771080112,,,,,,657.9779000000001,302.0,2.0,657.9779000000001,302.0,,,,661.5553,662.0507,661.0516,661.5552,658.9854000000003,661.0516,662.0507,662.5464999999999,662.5466000000001,664.0773000000002,1084.0,664.0773000000002,4.0,664.0775000000001,2.0,17.0,77.0,11.0,1.0,1.0,0.3,Time
,,S18,1,女,21,anonymized,Serial_Dependence_U,2023.2.3,Win32,120.48192771080112,,,,,,664.0777,318.0,2.0,664.0778,318.0,,,,667.4693,667.9712,666.9609,667.4692,665.094,666.9606999999999,667.9712,668.4712,668.4712,669.9602,1033.0,669.9603,4.0,669.9606000000001,2.0,18.0,78.0,10.0,1.0,0.8,0.3,Time
,,S18,1,女,21,anonymized,Serial_Dependence_U,2023.2.3,Win32,120.48192771080112,,,,,,669.9606999999999,191.0,2.0,669.9609,191.0,,,,673.5426,674.038,673.0342,673.5425,670.9684000000002,673.0341000000001,674.038,674.5404000000001,674.5405000000001,676.1689000000001,1150.0,676.1689000000001,4.0,676.1691000000001,2.0,19.0,79.0,1.0,1.0,1.0,0.3,Time
,,S18,1,女,21,anonymized,Serial_Dependence_U,2023.2.3,Win32,120.48192771080112,,,,,,676.1693,325.0,2.0,676.1694000000002,325.0,,,,679.5145,680.0171,679.0105000000001,679.5144000000003,677.1724999999999,679.0105000000001,680.0171,680.5127,680.5127,681.8934000000002,900.0,681.8934999999999,4.0,681.8936000000001,2.0,20.0,80.0,15.0,1.0,0.8,0.7,Time
,,S18,1,女,21,anonymized,Serial_Dependence_U,2023.2.3,Win32,120.48192771080112,,,,,,681.894,162.0,2.0,681.8941000000002,162.0,,,,685.4851000000001,685.9794000000002,684.9765,685.4849999999999,682.9099000000001,684.9765,685.9794999999999,686.4744000000001,686.4744000000001,688.0686000000001,909.0,688.0687,2.0,688.0689000000002,2.0,21.0,81.0,21.0,1.0,1.0,0.3,Time
,,S18,1,女,21,anonymized,Serial_Dependence_U,2023.2.3,Win32,120.48192771080112,,,,,,688.0691000000002,85.0,2.0,688.0691999999999,85.0,,,,692.0268000000001,692.521,691.5183,692.0268000000001,689.0766999999998,691.5181,692.521,693.0171,693.0172,694.6684000000002,1325.0,694.6684000000002,2.0,694.6687,2.0,22.0,82.0,18.0,1.0,1.4,0.7,Time
,,S18,1,女,21,anonymized,Serial_Dependence_U,2023.2.3,Win32,120.48192771080112,,,,,,694.6690000000001,62.0,2.0,694.6691000000001,62.0,,,,698.8510000000001,699.346,698.3434000000002,698.8510000000001,695.6766,698.3433,699.346,699.8498,699.8498,701.6598000000001,1467.0,701.6598000000001,2.0,701.6600000000001,2.0,23.0,83.0,24.0,1.0,1.6,0.3,Time
,,S18,1,女,21,anonymized,Serial_Dependence_U,2023.2.3,Win32,120.48192771080112,,,,,,701.6604000000002,16.0,2.0,701.6604000000002,16.0,,,,705.0016,705.4961000000001,704.4931999999999,705.0016,702.6599000000001,704.4931000000001,705.4961000000001,705.9911999999999,705.9913000000001,707.6683,1208.0,707.6684000000002,5.0,707.6687,2.0,24.0,84.0,5.0,1.0,0.8,0.7,Time
,,S18,1,女,21,anonymized,Serial_Dependence_U,2023.2.3,Win32,120.48192771080112,,,,,,707.6688000000001,19.0,2.0,707.6689000000001,19.0,,,,711.2081000000001,711.7076999999999,710.7018,711.2080000000001,708.6669999999999,710.7018,711.7076999999999,712.2,712.2,713.9095,1272.0,713.9095,4.0,713.9096999999999,2.0,25.0,85.0,16.0,1.0,1.0,0.7,Time
,,S18,1,女,21,anonymized,Serial_Dependence_U,2023.2.3,Win32,120.48192771080112,,,,,,713.9099000000001,228.0,2.0,713.9100000000001,228.0,,,,718.0594000000001,718.5539000000001,717.5513000000001,718.0594000000001,714.9185,717.5513000000001,718.5540000000001,719.0540000000001,719.0540000000001,721.0264999999999,1591.0,721.0266000000001,3.0,721.0268000000001,2.0,26.0,86.0,9.0,1.0,1.6,0.7,Time
,,S18,1,女,21,anonymized,Serial_Dependence_U,2023.2.3,Win32,120.48192771080112,,,,,,721.027,242.0,2.0,721.0271,242.0,,,,724.8015,725.2956999999999,724.2933,724.8014000000001,722.0263,724.2932000000001,725.2958000000001,725.7956000000001,725.7956000000001,727.8844000000001,1617.0,727.8845000000001,5.0,727.8847000000001,2.0,27.0,87.0,2.0,1.0,1.2,0.3,Time
,,S18,1,女,21,anonymized,Serial_Dependence_U,2023.2.3,Win32,120.48192771080112,,,,,,727.885,206.0,2.0,727.885,206.0,,,,732.0266999999999,732.5329999999999,731.5178000000001,732.0266000000001,728.8842999999999,731.5176999999999,732.5331000000001,733.0284999999999,733.0286000000001,735.1429,1630.0,735.1429,3.0,735.1433,2.0,28.0,88.0,29.0,1.0,1.6,0.7,Time
,,S18,1,女,21,anonymized,Serial_Dependence_U,2023.2.3,Win32,120.48192771080112,,,,,,735.1434999999999,73.0,2.0,735.1436000000001,73.0,,,,738.8918000000001,739.387,738.3846000000001,738.8918000000001,736.1510000000001,738.3845000000001,739.3871000000001,739.8869000000002,739.8869000000002,741.7846000000002,1481.0,741.7846000000002,4.0,741.7849000000001,2.0,29.0,89.0,27.0,1.0,1.2,0.7,Time
,,S18,1,女,21,anonymized,Serial_Dependence_U,2023.2.3,Win32,120.48192771080112,,,,,,741.7850000000001,339.0,3.0,767.2180000000001,339.0,s,25.42570000000001,,770.9984999999999,771.4949000000001,770.4925000000001,770.9984000000002,768.2251999999999,770.4924000000001,771.4949999999999,771.9949000000001,771.9949000000001,774.0423000000001,1567.0,774.0423000000001,5.0,774.0426,3.0,0.0,90.0,2.0,1.0,1.2,0.3,Time
,,S18,1,女,21,anonymized,Serial_Dependence_U,2023.2.3,Win32,120.48192771080112,,,,,,774.0427,272.0,3.0,774.0434000000002,272.0,,,,778.2008000000001,778.6947,777.692,778.2006999999999,775.0504000000001,777.6919,778.6948,779.1947,779.1947,781.4028000000001,1733.0,781.4028000000001,4.0,781.403,3.0,1.0,91.0,9.0,1.0,1.6,0.7,Time
,,S18,1,女,21,anonymized,Serial_Dependence_U,2023.2.3,Win32,120.48192771080112,,,,,,781.4034999999999,96.0,3.0,781.4036000000001,96.0,,,,785.1536000000001,785.653,784.6447000000001,785.1534999999999,782.4116000000001,784.6446000000001,785.653,786.1528000000001,786.1528000000001,787.9194000000002,1383.0,787.9194000000002,4.0,787.9196000000002,3.0,2.0,92.0,17.0,1.0,1.2,0.7,Time
,,S18,1,女,21,anonymized,Serial_Dependence_U,2023.2.3,Win32,120.48192771080112,,,,,,787.9199000000001,153.0,3.0,787.9201,153.0,,,,791.2613000000001,791.7611000000002,790.7531000000001,791.2611999999999,788.9196999999999,790.7529999999999,791.7611000000002,792.2611000000002,792.2611000000002,793.4612999999999,784.0,793.4614000000001,3.0,793.4618,3.0,3.0,93.0,25.0,1.0,0.8,0.7,Time
,,S18,1,女,21,anonymized,Serial_Dependence_U,2023.2.3,Win32,120.48192771080112,,,,,,793.4621000000002,37.0,3.0,793.4621000000002,37.0,,,,797.0110999999999,797.5110000000002,796.5029000000002,797.0110000000002,794.4698000000001,796.5028,797.5110000000002,798.0110000000002,798.0110000000002,799.7443000000001,1199.0,799.7444,4.0,799.7445000000002,3.0,4.0,94.0,26.0,1.0,1.0,0.7,Time
,,S18,1,女,21,anonymized,Serial_Dependence_U,2023.2.3,Win32,120.48192771080112,,,,,,799.7449000000001,167.0,3.0,799.7450999999999,167.0,,,,803.9280000000003,804.4279000000001,803.4195000000002,803.9279000000001,800.7528,803.4194000000002,804.4279000000001,804.9275999999998,804.9275999999998,806.9775000000002,1683.0,806.9775000000002,4.0,806.9775999999999,3.0,5.0,95.0,24.0,1.0,1.6,0.3,Time
,,S18,1,女,21,anonymized,Serial_Dependence_U,2023.2.3,Win32,120.48192771080112,,,,,,806.9779000000001,158.0,3.0,806.9780000000003,158.0,,,,810.7611999999999,811.2610000000002,810.2527,810.7610999999999,807.9860000000003,810.2525999999998,811.2610000000002,811.7608,811.7608,813.5273,1325.0,813.5274000000002,4.0,813.5275000000001,3.0,6.0,96.0,12.0,1.0,1.2,0.3,Time
,,S18,1,女,21,anonymized,Serial_Dependence_U,2023.2.3,Win32,120.48192771080112,,,,,,813.5278000000001,110.0,3.0,813.5278000000001,110.0,,,,817.5114000000001,818.0108,817.0025000000003,817.5113000000001,814.5360999999998,817.0025000000003,818.0108,818.5107,818.5108,820.6190999999999,1483.0,820.6190999999999,4.0,820.6194,3.0,7.0,97.0,23.0,1.0,1.4,0.3,Time
,,S18,1,女,21,anonymized,Serial_Dependence_U,2023.2.3,Win32,120.48192771080112,,,,,,820.6197,155.0,3.0,820.6197999999999,155.0,,,,823.9693,824.4690000000003,823.4609,823.9693,821.6274000000001,823.4608000000001,824.4690999999998,824.9690000000003,824.9690000000003,826.5438000000001,1116.0,826.5438000000001,5.0,826.5440000000003,3.0,8.0,98.0,5.0,1.0,0.8,0.7,Time
,,S18,1,女,21,anonymized,Serial_Dependence_U,2023.2.3,Win32,120.48192771080112,,,,,,826.5444000000002,80.0,3.0,826.5445000000002,80.0,,,,830.2946,830.7938000000001,829.7858000000001,830.2944000000002,827.5523000000001,829.7856999999999,830.7939000000001,831.2940000000003,831.2940000000003,832.9855000000002,1266.0,832.9855000000002,4.0,832.9857,3.0,9.0,99.0,7.0,1.0,1.2,0.7,Time
,,S18,1,女,21,anonymized,Serial_Dependence_U,2023.2.3,Win32,120.48192771080112,,,,,,832.9860000000003,165.0,3.0,832.9860999999999,165.0,,,,837.1358,837.6353000000001,836.6275000000003,837.1358,833.9940000000001,836.6274000000001,837.6353000000001,838.1354000000001,838.1354000000001,840.1270999999999,1567.0,840.1271999999999,3.0,840.1274000000001,3.0,10.0,100.0,19.0,1.0,1.6,0.7,Time
,,S18,1,女,21,anonymized,Serial_Dependence_U,2023.2.3,Win32,120.48192771080112,,,,,,840.1277,55.0,3.0,840.1278,55.0,,,,843.9023,844.4020000000003,843.3938,843.9022,841.1274000000001,843.3936999999999,844.4020000000003,844.9020000000003,844.9020000000003,846.4520000000002,843.0,846.4520000000002,2.0,846.4524000000001,3.0,11.0,101.0,22.0,1.0,1.2,0.3,Time
,,S18,1,女,21,anonymized,Serial_Dependence_U,2023.2.3,Win32,120.48192771080112,,,,,,846.4527,265.0,3.0,846.4529000000002,265.0,,,,850.0358000000001,850.5354000000002,849.5273,850.0358000000001,847.4605000000001,849.5272,850.5354000000002,851.0353,851.0353,852.5436,1033.0,852.5436,3.0,852.5439000000001,3.0,12.0,102.0,11.0,1.0,1.0,0.3,Time
,,S18,1,女,21,anonymized,Serial_Dependence_U,2023.2.3,Win32,120.48192771080112,,,,,,852.5442,167.0,3.0,852.5444000000002,167.0,,,,856.0942,856.5935000000002,855.5855000000001,856.0940999999998,853.5520000000001,855.5854000000002,856.5935000000002,857.0934000000002,857.0934000000002,858.5100000000002,1030.0,858.5100000000002,3.0,858.5101999999999,3.0,13.0,103.0,16.0,1.0,1.0,0.7,Time
,,S18,1,女,21,anonymized,Serial_Dependence_U,2023.2.3,Win32,120.48192771080112,,,,,,858.5105000000003,335.0,3.0,858.5107,335.0,,,,862.0935999999999,862.5933,861.5854000000002,862.0935999999999,859.5186999999999,861.5854000000002,862.5933,863.0934000000002,863.0934000000002,864.5184000000002,1058.0,864.5184000000002,4.0,864.5185999999999,3.0,14.0,104.0,1.0,1.0,1.0,0.3,Time
,,S18,1,女,21,anonymized,Serial_Dependence_U,2023.2.3,Win32,120.48192771080112,,,,,,864.5189,333.0,3.0,864.5190999999998,333.0,,,,867.9019000000001,868.4016999999999,867.3935000000001,867.9019000000001,865.5269000000001,867.3935000000001,868.4016999999999,868.9015999999999,868.9016999999999,870.4180999999999,1025.0,870.4180999999999,4.0,870.4184000000002,3.0,15.0,105.0,0.0,1.0,0.8,0.3,Time
,,S18,1,女,21,anonymized,Serial_Dependence_U,2023.2.3,Win32,120.48192771080112,,,,,,870.4187,22.0,3.0,870.4188000000001,22.0,,,,873.8020000000001,874.3015000000003,873.2935000000002,873.8019000000002,871.4267,873.2934000000002,874.3015000000003,874.8015999999998,874.8017,876.1764000000001,939.0,876.1764000000001,4.0,876.1765000000003,3.0,16.0,106.0,10.0,1.0,0.8,0.3,Time
,,S18,1,女,21,anonymized,Serial_Dependence_U,2023.2.3,Win32,120.48192771080112,,,,,,876.1770000000001,67.0,3.0,876.1770999999999,67.0,,,,880.1265999999998,880.6264000000001,879.6181999999999,880.1265999999998,877.1850000000002,879.6181999999999,880.6264000000001,881.1265999999998,881.1265999999998,883.1430000000003,1443.0,883.1430999999998,3.0,883.1433,3.0,17.0,107.0,28.0,1.0,1.4,0.7,Time
,,S18,1,女,21,anonymized,Serial_Dependence_U,2023.2.3,Win32,120.48192771080112,,,,,,883.1435999999999,71.0,3.0,883.1436999999999,71.0,,,,887.3266999999998,887.8265000000001,886.8183000000001,887.3266999999998,884.1515999999999,886.8181999999999,887.8265999999999,888.3263,888.3264000000001,890.2095999999999,1275.0,890.2095999999999,2.0,890.2100000000003,3.0,18.0,108.0,4.0,1.0,1.6,0.3,Time
,,S18,1,女,21,anonymized,Serial_Dependence_U,2023.2.3,Win32,120.48192771080112,,,,,,890.2104000000002,202.0,3.0,890.2105999999999,202.0,,,,894.1931,894.6930000000002,893.6847,894.1930000000002,891.2183,893.6847,894.6931,895.1928,895.1928,897.4344000000001,1657.0,897.4345000000003,4.0,897.4345999999998,3.0,19.0,109.0,3.0,1.0,1.4,0.3,Time
,,S18,1,女,21,anonymized,Serial_Dependence_U,2023.2.3,Win32,120.48192771080112,,,,,,897.4351999999999,91.0,3.0,897.4351999999999,91.0,,,,901.3846,901.8843,900.8764,901.3845000000003,898.4429000000002,900.8762,901.8844,902.3845000000003,902.3846,904.3677,1599.0,904.3677,4.0,904.3679000000002,3.0,20.0,110.0,8.0,1.0,1.4,0.7,Time
,,S18,1,女,21,anonymized,Serial_Dependence_U,2023.2.3,Win32,120.48192771080112,,,,,,904.3683,42.0,3.0,904.3684,42.0,,,,908.1184,908.6178,907.6095000000004,908.1182,905.3762,907.6095000000004,908.6178,909.1175999999998,909.1177,910.9925000000004,1417.0,910.9925999999998,4.0,910.9927,3.0,21.0,111.0,27.0,1.0,1.2,0.7,Time
,,S18,1,女,21,anonymized,Serial_Dependence_U,2023.2.3,Win32,120.48192771080112,,,,,,910.9929000000002,195.0,3.0,910.9931,195.0,,,,915.1429,915.6425000000002,914.6346,915.1428,912.0012,914.6345,915.6426,916.1426,916.1427,918.5424,1932.0,918.5424,4.0,918.5425999999998,3.0,22.0,112.0,29.0,1.0,1.6,0.7,Time
,,S18,1,女,21,anonymized,Serial_Dependence_U,2023.2.3,Win32,120.48192771080112,,,,,,918.5428,35.0,3.0,918.543,35.0,,,,922.1260000000002,922.6256999999998,921.6175000000004,922.1260000000002,919.5508,921.6174,922.6256999999998,923.1256999999998,923.1256999999998,924.8924000000002,1235.0,924.8924000000002,4.0,924.8926,3.0,23.0,113.0,21.0,1.0,1.0,0.3,Time
,,S18,1,女,21,anonymized,Serial_Dependence_U,2023.2.3,Win32,120.48192771080112,,,,,,924.8930000000004,87.0,3.0,924.8930999999998,87.0,,,,928.8759,929.3756999999998,928.3675999999998,928.8759,925.9010999999998,928.3675000000004,929.3756999999998,929.8758,929.8758,931.8587,1594.0,931.8588,4.0,931.8590000000002,3.0,24.0,114.0,13.0,1.0,1.4,0.3,Time
,,S18,1,女,21,anonymized,Serial_Dependence_U,2023.2.3,Win32,120.48192771080112,,,,,,931.8594,283.0,3.0,931.8594,283.0,,,,935.8090999999996,936.3088,935.3009000000002,935.8090999999996,932.8675999999998,935.3008,936.3090000000002,936.8089,936.8089,938.8170000000002,1566.0,938.8170000000002,4.0,938.8173,3.0,25.0,115.0,18.0,1.0,1.4,0.7,Time
,,S18,1,女,21,anonymized,Serial_Dependence_U,2023.2.3,Win32,120.48192771080112,,,,,,938.8176,227.0,3.0,938.8176999999998,227.0,,,,942.9924,943.4920000000002,942.4920999999996,942.9924,939.8256,942.4920999999996,943.4920999999996,943.9920999999996,943.9920999999996,945.5504,1208.0,945.5504,2.0,945.5505999999998,3.0,26.0,116.0,14.0,1.0,1.6,0.3,Time
,,S18,1,女,21,anonymized,Serial_Dependence_U,2023.2.3,Win32,120.48192771080112,,,,,,945.5509000000002,350.0,3.0,945.5510000000002,350.0,,,,949.1005000000002,949.6004,948.5923,949.1005000000002,946.5589,948.5921999999998,949.6005000000002,950.1005000000002,950.1005000000002,951.5669,1084.0,951.5669,4.0,951.5670000000002,3.0,27.0,117.0,6.0,1.0,1.0,0.7,Time
,,S18,1,女,21,anonymized,Serial_Dependence_U,2023.2.3,Win32,120.48192771080112,,,,,,951.5673,267.0,3.0,951.5675,267.0,,,,954.9505,955.4505,954.4422,954.9504000000002,952.5754000000002,954.4420999999998,955.4505,955.9503,955.9503,957.4667,1058.0,957.4668,5.0,957.4669,3.0,28.0,118.0,20.0,1.0,0.8,0.3,Time
,,S18,1,女,21,anonymized,Serial_Dependence_U,2023.2.3,Win32,120.48192771080112,,,,,,957.4674,112.0,3.0,957.4675999999996,112.0,,,,960.8170999999998,961.3169,960.3086999999998,960.8170999999998,958.4755999999998,960.3085999999998,961.3169,961.8168,961.8169,963.1917,935.0,963.1917,4.0,963.1918,3.0,29.0,119.0,15.0,1.0,0.8,0.7,Time
,,S18,1,女,21,anonymized,Serial_Dependence_U,2023.2.3,Win32,120.48192771080112,,,,,,963.1920999999998,76.0,4.0,985.8497,76.0,s,22.647899999999936,,989.6330999999998,990.1329,989.1249,989.6330000000004,986.8584,989.1249,990.1330000000004,990.6333,990.6333,992.4497,1443.0,992.4497,4.0,992.4500000000004,4.0,0.0,120.0,22.0,1.0,1.2,0.3,Time
,,S18,1,女,21,anonymized,Serial_Dependence_U,2023.2.3,Win32,120.48192771080112,,,,,,992.4503,3.0,4.0,992.4515,3.0,,,,996.6170000000002,997.1163,996.1162,996.6169,993.4499,996.1162,997.1163,997.6160999999996,997.6160999999996,999.6744,1626.0,999.6744,3.0,999.6745999999998,4.0,1.0,121.0,24.0,1.0,1.6,0.3,Time
,,S18,1,女,21,anonymized,Serial_Dependence_U,2023.2.3,Win32,120.48192771080112,,,,,,999.6748,187.0,4.0,999.6750000000002,187.0,,,,1003.8250999999998,1004.3244000000002,1003.3170000000002,1003.8250000000004,1000.6828,1003.3169,1004.3245000000002,1004.8246,1004.8247,1006.6160000000002,1389.0,1006.6160999999996,2.0,1006.6163,4.0,2.0,122.0,9.0,1.0,1.6,0.7,Time
,,S18,1,女,21,anonymized,Serial_Dependence_U,2023.2.3,Win32,120.48192771080112,,,,,,1006.6165999999998,317.0,4.0,1006.6166999999998,317.0,,,,1010.7664,1011.2660999999998,1010.2580000000004,1010.7663,1007.6246,1010.2579,1011.2660999999998,1011.766,1011.7660999999998,1013.9493,1775.0,1013.9495000000002,4.0,1013.9496,4.0,3.0,123.0,19.0,1.0,1.6,0.7,Time
,,S18,1,女,21,anonymized,Serial_Dependence_U,2023.2.3,Win32,120.48192771080112,,,,,,1013.9500000000004,73.0,4.0,1013.9500999999998,73.0,,,,1017.8997,1018.3991999999998,1017.3911999999998,1017.8995000000002,1014.958,1017.3910999999998,1018.3991999999998,1018.8995000000002,1018.8995000000002,1020.8909,1542.0,1020.891,4.0,1020.8914,4.0,4.0,124.0,8.0,1.0,1.4,0.7,Time
,,S18,1,女,21,anonymized,Serial_Dependence_U,2023.2.3,Win32,120.48192771080112,,,,,,1020.8917,274.0,4.0,1020.8918,274.0,,,,1024.2744,1024.7741999999998,1023.766,1024.2743,1021.8994,1023.766,1024.7741999999998,1025.2741999999998,1025.2741999999998,1026.6240999999998,883.0,1026.6242,4.0,1026.6244000000002,4.0,5.0,125.0,10.0,1.0,0.8,0.3,Time
,,S18,1,女,21,anonymized,Serial_Dependence_U,2023.2.3,Win32,120.48192771080112,,,,,,1026.6248,281.0,4.0,1026.6249,281.0,,,,1030.5743,1031.0741999999998,1030.0660999999998,1030.5743,1027.6327,1030.0660000000005,1031.0741999999998,1031.5740999999998,1031.5740999999998,1033.8572,1834.0,1033.8573,5.0,1033.8575999999998,4.0,6.0,126.0,28.0,1.0,1.4,0.7,Time
,,S18,1,女,21,anonymized,Serial_Dependence_U,2023.2.3,Win32,120.48192771080112,,,,,,1033.8579000000002,89.0,4.0,1033.8580999999997,89.0,,,,1038.0410000000002,1038.5406999999998,1037.5323,1038.0409000000002,1034.8659,1037.5322,1038.5410000000002,1039.0405999999998,1039.0406999999998,1041.2489,1841.0,1041.2490000000005,4.0,1041.2490999999998,4.0,7.0,127.0,14.0,1.0,1.6,0.3,Time
,,S18,1,女,21,anonymized,Serial_Dependence_U,2023.2.3,Win32,120.48192771080112,,,,,,1041.2495,175.0,4.0,1041.2496999999998,175.0,,,,1044.5991,1045.0988,1044.091,1044.5989000000002,1042.2576,1044.0909,1045.0989000000002,1045.5989000000002,1045.5990000000002,1047.0155000000002,883.0,1047.0155000000002,4.0,1047.0158,4.0,8.0,128.0,25.0,1.0,0.8,0.7,Time
,,S18,1,女,21,anonymized,Serial_Dependence_U,2023.2.3,Win32,120.48192771080112,,,,,,1047.0161999999998,120.0,4.0,1047.0164,120.0,,,,1050.5660000000005,1051.0655000000002,1050.0574,1050.5659,1048.0241,1050.0573,1051.0655000000002,1051.5655000000002,1051.5655000000002,1053.4155000000003,1443.0,1053.4155999999998,5.0,1053.4158,4.0,9.0,129.0,26.0,1.0,1.0,0.7,Time
,,S18,1,女,21,anonymized,Serial_Dependence_U,2023.2.3,Win32,120.48192771080112,,,,,,1053.4162,339.0,4.0,1053.4164,339.0,,,,1057.3989,1057.8987,1056.8904,1057.3989,1054.4239,1056.8903,1057.8987,1058.3988,1058.3988,1060.2986,1475.0,1060.2986,4.0,1060.2986999999998,4.0,10.0,130.0,13.0,1.0,1.4,0.3,Time
,,S18,1,女,21,anonymized,Serial_Dependence_U,2023.2.3,Win32,120.48192771080112,,,,,,1060.2990999999995,59.0,4.0,1060.2993,59.0,,,,1063.8488,1064.3487,1063.3404,1063.8487,1061.3072,1063.3403,1064.3488,1064.8485999999998,1064.8487,1066.5570999999998,1208.0,1066.5570999999998,4.0,1066.5574,4.0,11.0,131.0,16.0,1.0,1.0,0.7,Time
,,S18,1,女,21,anonymized,Serial_Dependence_U,2023.2.3,Win32,120.48192771080112,,,,,,1066.5576999999998,236.0,4.0,1066.5578,236.0,,,,1070.7071,1071.2067,1070.1985999999995,1070.7071,1067.5653,1070.1985000000002,1071.2067,1071.7069,1071.7069,1073.8234,1633.0,1073.8235000000002,3.0,1073.8238,4.0,12.0,132.0,29.0,1.0,1.6,0.7,Time
,,S18,1,女,21,anonymized,Serial_Dependence_U,2023.2.3,Win32,120.48192771080112,,,,,,1073.8240999999998,159.0,4.0,1073.8243,159.0,,,,1077.3738,1077.8734000000002,1076.8654,1077.3738,1074.8319,1076.8653,1077.8735,1078.3734000000002,1078.3734000000002,1080.0815999999998,1215.0,1080.0815999999998,4.0,1080.0819,4.0,13.0,133.0,6.0,1.0,1.0,0.7,Time
,,S18,1,女,21,anonymized,Serial_Dependence_U,2023.2.3,Win32,120.48192771080112,,,,,,1080.0823,289.0,4.0,1080.0823,289.0,,,,1083.6655999999998,1084.1650999999997,1083.1571,1083.6655000000003,1081.0904,1083.1569000000002,1084.1652,1084.6650000000002,1084.6650999999997,1086.3819,1327.0,1086.3820999999998,5.0,1086.3822,4.0,14.0,134.0,21.0,1.0,1.0,0.3,Time
,,S18,1,女,21,anonymized,Serial_Dependence_U,2023.2.3,Win32,120.48192771080112,,,,,,1086.3826,99.0,4.0,1086.3827,99.0,,,,1090.3652,1090.8648,1089.8570000000002,1090.3652,1087.3900999999998,1089.8569,1090.8648,1091.3649,1091.3650000000002,1093.3482,1624.0,1093.3483,4.0,1093.3485000000005,4.0,15.0,135.0,3.0,1.0,1.4,0.3,Time
,,S18,1,女,21,anonymized,Serial_Dependence_U,2023.2.3,Win32,120.48192771080112,,,,,,1093.3488,120.0,4.0,1093.3490000000002,120.0,,,,1097.1319,1097.6315000000002,1096.6236,1097.1318,1094.3572,1096.6235,1097.6315000000002,1098.1315000000002,1098.1315000000002,1099.6395999999995,1110.0,1099.6395999999995,2.0,1099.6398,4.0,16.0,136.0,12.0,1.0,1.2,0.3,Time
,,S18,1,女,21,anonymized,Serial_Dependence_U,2023.2.3,Win32,120.48192771080112,,,,,,1099.6401999999998,213.0,4.0,1099.6403,213.0,,,,1103.0149,1103.5147,1102.5065999999997,1103.0149,1100.64,1102.5065000000002,1103.5147,1104.0145999999995,1104.0145999999995,1105.7312,1267.0,1105.7312,5.0,1105.7314,4.0,17.0,137.0,20.0,1.0,0.8,0.3,Time
,,S18,1,女,21,anonymized,Serial_Dependence_U,2023.2.3,Win32,120.48192771080112,,,,,,1105.7316999999998,191.0,4.0,1105.7318,191.0,,,,1109.9148,1110.4145,1109.4064,1109.9148,1106.7398,1109.4063,1110.4145,1110.9148,1110.9148,1112.8728,1566.0,1112.8729,3.0,1112.8730000000005,4.0,18.0,138.0,4.0,1.0,1.6,0.3,Time
,,S18,1,女,21,anonymized,Serial_Dependence_U,2023.2.3,Win32,120.48192771080112,,,,,,1112.8733,233.0,4.0,1112.8734000000002,233.0,,,,1116.8233,1117.3228,1116.3148,1116.8231999999998,1113.8813,1116.3148,1117.3228,1117.823,1117.823,1119.8987,1627.0,1119.8987,4.0,1119.899,4.0,19.0,139.0,18.0,1.0,1.4,0.7,Time
,,S18,1,女,21,anonymized,Serial_Dependence_U,2023.2.3,Win32,120.48192771080112,,,,,,1119.8993,244.0,4.0,1119.8995000000002,244.0,,,,1123.6812,1124.1808,1123.1726999999998,1123.6812,1120.9062,1123.1726,1124.1809,1124.6812,1124.6812,1126.6726,1507.0,1126.6726,4.0,1126.6730000000002,4.0,20.0,140.0,2.0,1.0,1.2,0.3,Time
,,S18,1,女,21,anonymized,Serial_Dependence_U,2023.2.3,Win32,120.48192771080112,,,,,,1126.6734,63.0,4.0,1126.6735,63.0,,,,1130.4226,1130.9225,1129.9143,1130.4226,1127.6812,1129.9143,1130.9226,1131.4224000000002,1131.4225,1133.7809,1867.0,1133.7809,5.0,1133.7810000000002,4.0,21.0,141.0,17.0,1.0,1.2,0.7,Time
,,S18,1,女,21,anonymized,Serial_Dependence_U,2023.2.3,Win32,120.48192771080112,,,,,,1133.7814,130.0,4.0,1133.7815000000005,130.0,,,,1137.3645,1137.8645,1136.8563,1137.3645,1134.7894,1136.8563,1137.8646,1138.3642,1138.3642,1139.8389000000002,1083.0,1139.8390000000002,4.0,1139.8392,4.0,22.0,142.0,11.0,1.0,1.0,0.3,Time
,,S18,1,女,21,anonymized,Serial_Dependence_U,2023.2.3,Win32,120.48192771080112,,,,,,1139.8395000000005,220.0,4.0,1139.8395999999998,220.0,,,,1143.5892,1144.0891,1143.081,1143.5892,1140.8476999999998,1143.0809000000002,1144.0891,1144.5890000000002,1144.5890000000002,1146.6305999999995,1568.0,1146.6307,5.0,1146.6309,4.0,23.0,143.0,7.0,1.0,1.2,0.7,Time
,,S18,1,女,21,anonymized,Serial_Dependence_U,2023.2.3,Win32,120.48192771080112,,,,,,1146.6313,311.0,4.0,1146.6314,311.0,,,,1150.0143,1150.5138,1149.5059,1150.0141999999998,1147.639,1149.5059,1150.5139,1151.014,1151.0141,1152.5305,1000.0,1152.5305999999998,4.0,1152.5308,4.0,24.0,144.0,0.0,1.0,0.8,0.3,Time
,,S18,1,女,21,anonymized,Serial_Dependence_U,2023.2.3,Win32,120.48192771080112,,,,,,1152.5312,171.0,4.0,1152.5314,171.0,,,,1155.8808,1156.3805000000002,1155.3726,1155.8808,1153.5389,1155.3725000000002,1156.3805000000002,1156.8805000000002,1156.8805999999995,1158.4138,1083.0,1158.4138,5.0,1158.4140000000002,4.0,25.0,145.0,5.0,1.0,0.8,0.7,Time
,,S18,1,女,21,anonymized,Serial_Dependence_U,2023.2.3,Win32,120.48192771080112,,,,,,1158.4143,226.0,4.0,1158.4145,226.0,,,,1161.764,1162.2638,1161.2558,1161.7639,1159.4222,1161.2557,1162.2638,1162.7635000000002,1162.7635000000002,1164.6054,1383.0,1164.6054,5.0,1164.6056,4.0,26.0,146.0,15.0,1.0,0.8,0.7,Time
,,S18,1,女,21,anonymized,Serial_Dependence_U,2023.2.3,Win32,120.48192771080112,,,,,,1164.6059,259.0,4.0,1164.6063,259.0,,,,1168.5890000000002,1169.0889000000002,1168.0807,1168.5889000000002,1165.6140999999998,1168.0805999999998,1169.0889000000002,1169.5886999999998,1169.5886999999998,1171.2635000000002,1293.0,1171.2635000000002,2.0,1171.2637,4.0,27.0,147.0,23.0,1.0,1.4,0.3,Time
,,S18,1,女,21,anonymized,Serial_Dependence_U,2023.2.3,Win32,120.48192771080112,,,,,,1171.264,246.0,4.0,1171.2643,246.0,,,,1174.8470999999995,1175.3468,1174.3390000000002,1174.8470000000002,1172.2720000000002,1174.3388,1175.3468,1175.8466999999998,1175.8469,1177.4384,1082.0,1177.4385000000002,4.0,1177.4387,4.0,28.0,148.0,1.0,1.0,1.0,0.3,Time
,,S18,1,女,21,anonymized,Serial_Dependence_U,2023.2.3,Win32,120.48192771080112,,,,,,1177.4391999999998,117.0,4.0,1177.4391999999998,117.0,,,,1181.1885999999995,1181.6885000000002,1180.6805000000002,1181.1885000000002,1178.447,1180.6804000000002,1181.6885000000002,1182.1885000000002,1182.1885000000002,1184.0719,1474.0,1184.072,4.0,1184.0721999999998,4.0,29.0,149.0,27.0,1.0,1.2,0.7,Time
,,S18,1,女,21,anonymized,Serial_Dependence_U,2023.2.3,Win32,120.48192771080112,,,,,,1184.0725999999995,100.0,5.0,1222.2296,100.0,s,38.14750000000004,,1226.3723,1226.8715999999995,1225.8689000000002,1226.3720999999998,1223.2347,1225.8688,1226.8715999999995,1227.3737,1227.3737,1229.5270999999998,1716.0,1229.5270999999998,4.0,1229.5274000000002,5.0,0.0,150.0,29.0,1.0,1.6,0.7,Time
,,S18,1,女,21,anonymized,Serial_Dependence_U,2023.2.3,Win32,120.48192771080112,,,,,,1229.5276,32.0,5.0,1229.5283,32.0,,,,1233.0972,1233.5959,1232.5962,1233.0970000000002,1230.5351999999998,1232.5960999999998,1233.5959,1234.1001,1234.1001,1236.0760999999998,1542.0,1236.0760999999998,5.0,1236.0764,5.0,1.0,151.0,1.0,1.0,1.0,0.3,Time
,,S18,1,女,21,anonymized,Serial_Dependence_U,2023.2.3,Win32,120.48192771080112,,,,,,1236.0766999999998,297.0,5.0,1236.0768,297.0,,,,1239.8518,1240.3459,1239.3434,1239.8515999999995,1237.0760000000002,1239.3433,1240.3459,1240.84,1240.84,1242.2263,916.0,1242.2263,2.0,1242.2265000000002,5.0,2.0,152.0,2.0,1.0,1.2,0.3,Time
,,S18,1,女,21,anonymized,Serial_Dependence_U,2023.2.3,Win32,120.48192771080112,,,,,,1242.2267,156.0,5.0,1242.2268,156.0,,,,1245.8014,1246.3002,1245.2935000000002,1245.8013,1243.2295,1245.2933,1246.3002,1246.7960000000005,1246.7960000000005,1248.2600999999995,1010.0,1248.2600999999995,3.0,1248.2604,5.0,3.0,153.0,21.0,1.0,1.0,0.3,Time
,,S18,1,女,21,anonymized,Serial_Dependence_U,2023.2.3,Win32,120.48192771080112,,,,,,1248.2606999999998,194.0,5.0,1248.2606999999998,194.0,,,,1252.2067,1252.7040000000002,1251.7018,1252.2065999999998,1249.2683,1251.7018,1252.7040000000002,1253.2077,1253.2077,1255.4265000000005,1633.0,1255.4265000000005,4.0,1255.4268,5.0,4.0,154.0,8.0,1.0,1.4,0.7,Time
,,S18,1,女,21,anonymized,Serial_Dependence_U,2023.2.3,Win32,120.48192771080112,,,,,,1255.4271,256.0,5.0,1255.4271,256.0,,,,1258.9754,1259.4735999999998,1258.4679,1258.9754,1256.4344,1258.4678,1259.4735999999998,1259.9705,1259.9705,1262.1346,1592.0,1262.1346,5.0,1262.1352,5.0,5.0,155.0,16.0,1.0,1.0,0.7,Time
,,S18,1,女,21,anonymized,Serial_Dependence_U,2023.2.3,Win32,120.48192771080112,,,,,,1262.1354,334.0,5.0,1262.1355,334.0,,,,1265.7141,1266.2122,1265.2094000000002,1265.7140000000002,1263.1425000000002,1265.2093,1266.2122,1266.7157,1266.7158,1268.3846999999998,1354.0,1268.3848,5.0,1268.3850000000002,5.0,6.0,156.0,11.0,1.0,1.0,0.3,Time
,,S18,1,女,21,anonymized,Serial_Dependence_U,2023.2.3,Win32,120.48192771080112,,,,,,1268.3853,254.0,5.0,1268.3853,254.0,,,,1271.7625999999998,1272.2620000000002,1271.2596999999998,1271.7625000000005,1269.3925000000002,1271.2595,1272.2621,1272.7623,1272.7624,1274.3597,1167.0,1274.3598,5.0,1274.3601,5.0,7.0,157.0,0.0,1.0,0.8,0.3,Time
,,S18,1,女,21,anonymized,Serial_Dependence_U,2023.2.3,Win32,120.48192771080112,,,,,,1274.3604,4.0,5.0,1274.3604,4.0,,,,1278.3425000000002,1278.8370999999995,1277.8346,1278.3425000000002,1275.3705999999995,1277.8346,1278.8370999999995,1279.3409,1279.3409,1281.6655000000003,1773.0,1281.6655999999998,4.0,1281.6655999999998,5.0,8.0,158.0,23.0,1.0,1.4,0.3,Time
,,S18,1,女,21,anonymized,Serial_Dependence_U,2023.2.3,Win32,120.48192771080112,,,,,,1281.6658,80.0,5.0,1281.6659000000002,80.0,,,,1285.4040999999995,1285.9035,1284.9008,1285.4040000000002,1282.6665999999998,1284.9007,1285.9035,1286.4032,1286.4033,1288.5615999999998,1718.0,1288.5618,5.0,1288.5621,5.0,9.0,159.0,27.0,1.0,1.2,0.7,Time
,,S18,1,女,21,anonymized,Serial_Dependence_U,2023.2.3,Win32,120.48192771080112,,,,,,1288.5625000000002,227.0,5.0,1288.5625000000002,227.0,,,,1292.5431999999998,1293.0450999999998,1292.0425000000002,1292.5431,1289.5702,1292.0424,1293.0450999999998,1293.5453,1293.5453,1295.5935000000002,1628.0,1295.5935999999997,4.0,1295.5939,5.0,10.0,160.0,13.0,1.0,1.4,0.3,Time
,,S18,1,女,21,anonymized,Serial_Dependence_U,2023.2.3,Win32,120.48192771080112,,,,,,1295.5942,199.0,5.0,1295.5943,199.0,,,,1299.7674000000002,1300.2659,1299.2590999999998,1299.7674000000002,1296.5959,1299.2590000000002,1300.266,1300.7619000000002,1300.7619000000002,1303.3511999999998,2075.0,1303.3511999999998,4.0,1303.3515000000002,5.0,11.0,161.0,24.0,1.0,1.6,0.3,Time
,,S18,1,女,21,anonymized,Serial_Dependence_U,2023.2.3,Win32,120.48192771080112,,,,,,1303.3518,255.0,5.0,1303.3519,255.0,,,,1307.3338,1307.8285999999998,1306.8260000000002,1307.3337,1304.3587,1306.8258,1307.8285999999998,1308.3321999999998,1308.3323,1310.526,1860.0,1310.526,5.0,1310.5263,5.0,12.0,162.0,3.0,1.0,1.4,0.3,Time
,,S18,1,女,21,anonymized,Serial_Dependence_U,2023.2.3,Win32,120.48192771080112,,,,,,1310.5265000000002,85.0,5.0,1310.5265000000002,85.0,,,,1313.8842,1314.3813,1313.3760000000002,1313.8840999999998,1311.5425000000002,1313.3758,1314.3813,1314.8819,1314.8820000000003,1316.958,1422.0,1316.9580999999998,5.0,1316.9583,5.0,13.0,163.0,15.0,1.0,0.8,0.7,Time
,,S18,1,女,21,anonymized,Serial_Dependence_U,2023.2.3,Win32,120.48192771080112,,,,,,1316.9585000000002,273.0,5.0,1316.9585999999997,273.0,,,,1320.3255,1320.8278,1319.8205999999998,1320.3254000000002,1317.9581999999998,1319.8205000000005,1320.8279,1321.324,1321.324,1322.9752,1225.0,1322.9752,5.0,1322.9754,5.0,14.0,164.0,20.0,1.0,0.8,0.3,Time
,,S18,1,女,21,anonymized,Serial_Dependence_U,2023.2.3,Win32,120.48192771080112,,,,,,1322.9755999999998,121.0,5.0,1322.9757,121.0,,,,1326.5154,1327.0145999999995,1326.0088,1326.5154,1323.9754,1326.0087,1327.0147,1327.5160999999998,1327.5163,1329.6252,1593.0,1329.6253,5.0,1329.6254,5.0,15.0,165.0,6.0,1.0,1.0,0.7,Time
,,S18,1,女,21,anonymized,Serial_Dependence_U,2023.2.3,Win32,120.48192771080112,,,,,,1329.6256999999998,89.0,5.0,1329.6258,89.0,,,,1333.0077,1333.5065000000002,1332.4996,1333.0077,1330.6323,1332.4996,1333.5065000000002,1334.0073,1334.0074000000002,1336.2835999999998,1503.0,1336.2837,5.0,1336.2838,5.0,16.0,166.0,10.0,1.0,0.8,0.3,Time
,,S18,1,女,21,anonymized,Serial_Dependence_U,2023.2.3,Win32,120.48192771080112,,,,,,1336.2841,102.0,5.0,1336.2841999999998,102.0,,,,1340.0627,1340.5608,1339.5583,1340.0625000000002,1337.292,1339.5583,1340.5609000000002,1341.0609000000002,1341.061,1342.8837,1469.0,1342.8837,4.0,1342.8840000000002,5.0,17.0,167.0,12.0,1.0,1.2,0.3,Time
,,S18,1,女,21,anonymized,Serial_Dependence_U,2023.2.3,Win32,120.48192771080112,,,,,,1342.8843,257.0,5.0,1342.8844,257.0,,,,1347.0665,1347.5611,1346.5586999999998,1347.0664000000002,1343.8917,1346.5585999999998,1347.5611,1348.061,1348.061,1350.0087,1534.0,1350.0087,3.0,1350.0089,5.0,18.0,168.0,14.0,1.0,1.6,0.3,Time
,,S18,1,女,21,anonymized,Serial_Dependence_U,2023.2.3,Win32,120.48192771080112,,,,,,1350.0092,244.0,5.0,1350.0093,244.0,,,,1354.1530000000002,1354.6527,1353.65,1354.1529,1351.0149,1353.6499,1354.6527,1355.1525,1355.1525,1357.7580000000005,2133.0,1357.7580000000005,5.0,1357.7582,5.0,19.0,169.0,9.0,1.0,1.6,0.7,Time
,,S18,1,女,21,anonymized,Serial_Dependence_U,2023.2.3,Win32,120.48192771080112,,,,,,1357.7585,331.0,5.0,1357.7586,331.0,,,,1361.1027,1361.5980000000002,1360.5995999999998,1361.1025000000002,1358.7664,1360.5995999999998,1361.5980999999997,1362.0985999999998,1362.0985999999998,1363.5083,1075.0,1363.5084000000002,5.0,1363.5086,5.0,20.0,170.0,5.0,1.0,0.8,0.7,Time
,,S18,1,女,21,anonymized,Serial_Dependence_U,2023.2.3,Win32,120.48192771080112,,,,,,1363.5088,344.0,5.0,1363.5089,344.0,,,,1367.6613,1368.1605000000002,1367.158,1367.6612,1364.5195,1367.158,1368.1605000000002,1368.6639,1368.6639,1371.1750000000002,1983.0,1371.1750000000002,4.0,1371.1750999999997,5.0,21.0,171.0,19.0,1.0,1.6,0.7,Time
,,S18,1,女,21,anonymized,Serial_Dependence_U,2023.2.3,Win32,120.48192771080112,,,,,,1371.1753,83.0,5.0,1371.1754,83.0,,,,1374.5167,1375.0151999999998,1374.0085,1374.5167,1372.1750999999997,1374.0084000000002,1375.0151999999998,1375.5153,1375.5153,1377.4246999999998,1533.0,1377.4246999999998,5.0,1377.4248,5.0,22.0,172.0,25.0,1.0,0.8,0.7,Time
,,S18,1,女,21,anonymized,Serial_Dependence_U,2023.2.3,Win32,120.48192771080112,,,,,,1377.4250999999997,353.0,5.0,1377.4250999999997,353.0,,,,1381.3750000000002,1381.8733,1380.8665999999998,1381.3750000000002,1378.4332,1380.8665999999998,1381.8733,1382.3737,1382.3737,1384.8082,2017.0,1384.8083,5.0,1384.8083,5.0,23.0,173.0,18.0,1.0,1.4,0.7,Time
,,S18,1,女,21,anonymized,Serial_Dependence_U,2023.2.3,Win32,120.48192771080112,,,,,,1384.8085999999998,294.0,5.0,1384.8086999999998,294.0,,,,1388.5492,1389.0482,1388.0414,1388.5492,1385.8084,1388.0413,1389.0483,1389.5486999999998,1389.5486999999998,1391.6915,1716.0,1391.6915,5.0,1391.6917,5.0,24.0,174.0,7.0,1.0,1.2,0.7,Time
,,S18,1,女,21,anonymized,Serial_Dependence_U,2023.2.3,Win32,120.48192771080112,,,,,,1391.6919,310.0,5.0,1391.6920000000002,310.0,,,,1395.6334000000002,1396.1311999999998,1395.1248,1395.6334000000002,1392.6914000000002,1395.1246999999998,1396.1311999999998,1396.6315000000002,1396.6315999999997,1398.7406,1682.0,1398.7406,4.0,1398.7410000000002,5.0,25.0,175.0,28.0,1.0,1.4,0.7,Time
,,S18,1,女,21,anonymized,Serial_Dependence_U,2023.2.3,Win32,120.48192771080112,,,,,,1398.7410999999995,196.0,5.0,1398.7412,196.0,,,,1402.9238,1403.4184,1402.4156999999998,1402.9238,1399.7485,1402.4156999999998,1403.4185000000002,1403.9143,1403.9143,1406.1994000000002,1775.0,1406.1994000000002,4.0,1406.1996,5.0,26.0,176.0,4.0,1.0,1.6,0.3,Time
,,S18,1,女,21,anonymized,Serial_Dependence_U,2023.2.3,Win32,120.48192771080112,,,,,,1406.1998,50.0,5.0,1406.1998,50.0,,,,1409.9355000000005,1410.4394,1409.4319,1409.9354,1407.1993,1409.4319,1410.4395000000002,1410.9373,1410.9373,1412.8825000000002,1575.0,1412.8825000000002,5.0,1412.8828,5.0,27.0,177.0,17.0,1.0,1.2,0.7,Time
,,S18,1,女,21,anonymized,Serial_Dependence_U,2023.2.3,Win32,120.48192771080112,,,,,,1412.8830000000005,280.0,5.0,1412.8830000000005,280.0,,,,1416.6603,1417.1599,1416.1574,1416.6601999999998,1413.8905000000002,1416.1573,1417.1599,1417.6554,1417.6554,1419.8739,1812.0,1419.8739,5.0,1419.8743,5.0,28.0,178.0,22.0,1.0,1.2,0.3,Time
,,S18,1,女,21,anonymized,Serial_Dependence_U,2023.2.3,Win32,120.48192771080112,,,,,,1419.8745,235.0,5.0,1419.8746,235.0,,,,1423.4075000000005,1423.9043,1422.9060000000002,1423.4074,1420.8735,1422.9060000000002,1423.9043,1424.4049,1424.4049,1426.4655000000002,1747.0,1426.4655000000002,5.0,1426.4657,5.0,29.0,179.0,26.0,1.0,1.0,0.7,Time
,,S18,1,女,21,anonymized,Serial_Dependence_U,2023.2.3,Win32,120.48192771080112,,,,,,1426.4658,131.0,6.0,1458.4675999999995,131.0,s,31.99279999999976,,1461.8259,1462.3258,1461.3178,1461.8259,1459.4805,1461.3178,1462.3258,1462.8258,1462.8258,1464.8674,1716.0,1464.8674,5.0,1464.8675000000003,6.0,0.0,180.0,5.0,1.0,0.8,0.7,Time
,,S18,1,女,21,anonymized,Serial_Dependence_U,2023.2.3,Win32,120.48192771080112,,,,,,1464.8677,54.0,6.0,1464.8692,54.0,,,,1468.8178,1469.3173,1468.3093,1468.8178,1465.8765,1468.3093,1469.3174,1469.8173,1469.8174,1472.0255000000002,1566.0,1472.0255000000002,4.0,1472.0258,6.0,1.0,181.0,28.0,1.0,1.4,0.7,Time
,,S18,1,女,21,anonymized,Serial_Dependence_U,2023.2.3,Win32,120.48192771080112,,,,,,1472.026,308.0,6.0,1472.0261999999998,308.0,,,,1475.7757,1476.2755999999997,1475.2674000000002,1475.7757,1473.0343,1475.2674000000002,1476.2757,1476.7755000000002,1476.7755999999997,1478.8838,1692.0,1478.8839,5.0,1478.8840999999998,6.0,2.0,182.0,17.0,1.0,1.2,0.7,Time
,,S18,1,女,21,anonymized,Serial_Dependence_U,2023.2.3,Win32,120.48192771080112,,,,,,1478.8845,46.0,6.0,1478.8846,46.0,,,,1482.6674,1483.1672,1482.1591,1482.6673,1479.8922,1482.159,1483.1672,1483.6671,1483.6671,1485.0504,1117.0,1485.0504,2.0,1485.0507,6.0,3.0,183.0,12.0,1.0,1.2,0.3,Time
,,S18,1,女,21,anonymized,Serial_Dependence_U,2023.2.3,Win32,120.48192771080112,,,,,,1485.0509000000002,40.0,6.0,1485.0510000000002,40.0,,,,1489.2340000000002,1489.7337,1488.7255999999998,1489.2339000000002,1486.0588,1488.7255000000002,1489.7338,1490.2338,1490.2338,1491.8253,1208.0,1491.8254000000002,2.0,1491.8255,6.0,4.0,184.0,24.0,1.0,1.6,0.3,Time
,,S18,1,女,21,anonymized,Serial_Dependence_U,2023.2.3,Win32,120.48192771080112,,,,,,1491.8257,326.0,6.0,1491.8259,326.0,,,,1495.8008,1496.3002,1495.2922,1495.8008,1492.8258,1495.2921,1496.3003,1496.8002,1496.8003,1498.8253,1684.0,1498.8253,4.0,1498.8255,6.0,5.0,185.0,23.0,1.0,1.4,0.3,Time
,,S18,1,女,21,anonymized,Serial_Dependence_U,2023.2.3,Win32,120.48192771080112,,,,,,1498.8258,288.0,6.0,1498.8260999999998,288.0,,,,1503.0006999999998,1503.5003,1502.4919,1503.0005999999998,1499.8254000000002,1502.4918,1503.5004,1504.0000000000002,1504.0000000000002,1506.4667,2016.0,1506.4668,4.0,1506.4668,6.0,6.0,186.0,4.0,1.0,1.6,0.3,Time
,,S18,1,女,21,anonymized,Serial_Dependence_U,2023.2.3,Win32,120.48192771080112,,,,,,1506.4671999999998,239.0,6.0,1506.4673,239.0,,,,1510.0085,1510.5084000000002,1509.5005,1510.0085,1507.4670999999998,1509.5004,1510.5084000000002,1511.0085,1511.0086,1512.6665000000005,1293.0,1512.6665999999998,4.0,1512.6667,6.0,7.0,187.0,6.0,1.0,1.0,0.7,Time
,,S18,1,女,21,anonymized,Serial_Dependence_U,2023.2.3,Win32,120.48192771080112,,,,,,1512.6669000000002,314.0,6.0,1512.6669000000002,314.0,,,,1516.0500999999997,1516.5499,1515.542,1516.0500999999997,1513.6750000000002,1515.5419000000002,1516.5499,1517.0499,1517.0500000000002,1518.6332,1176.0,1518.6332,5.0,1518.6334000000002,6.0,8.0,188.0,0.0,1.0,0.8,0.3,Time
,,S18,1,女,21,anonymized,Serial_Dependence_U,2023.2.3,Win32,120.48192771080112,,,,,,1518.6336,359.0,6.0,1518.6338,359.0,,,,1522.4169000000002,1522.9165000000005,1521.9087,1522.4167,1519.6417,1521.9085999999998,1522.9165999999998,1523.4165000000005,1523.4165000000005,1525.4913,1624.0,1525.4914,5.0,1525.4915,6.0,9.0,189.0,2.0,1.0,1.2,0.3,Time
,,S18,1,女,21,anonymized,Serial_Dependence_U,2023.2.3,Win32,120.48192771080112,,,,,,1525.4919,294.0,6.0,1525.4920999999997,294.0,,,,1529.4752,1529.9747,1528.9671999999998,1529.4751,1526.5000000000002,1528.967,1529.9748,1530.475,1530.475,1532.6330999999998,1817.0,1532.6332,4.0,1532.6334000000002,6.0,10.0,190.0,3.0,1.0,1.4,0.3,Time
,,S18,1,女,21,anonymized,Serial_Dependence_U,2023.2.3,Win32,120.48192771080112,,,,,,1532.6338,278.0,6.0,1532.6340999999998,278.0,,,,1536.0167,1536.5164,1535.5083,1536.0167,1533.6415000000002,1535.5080999999998,1536.5164,1537.0164,1537.0165000000002,1538.6920000000002,1301.0,1538.6920000000002,5.0,1538.6922,6.0,11.0,191.0,10.0,1.0,0.8,0.3,Time
,,S18,1,女,21,anonymized,Serial_Dependence_U,2023.2.3,Win32,120.48192771080112,,,,,,1538.6925,32.0,6.0,1538.6926999999998,32.0,,,,1542.4664,1542.9665000000002,1541.958,1542.4664,1539.6918,1541.9579,1542.9665999999995,1543.4661999999998,1543.4661999999998,1545.2163,1417.0,1545.2163,4.0,1545.2165000000002,6.0,12.0,192.0,22.0,1.0,1.2,0.3,Time
,,S18,1,女,21,anonymized,Serial_Dependence_U,2023.2.3,Win32,120.48192771080112,,,,,,1545.2169,321.0,6.0,1545.2170999999998,321.0,,,,1548.7661999999998,1549.2663,1548.2583,1548.7660999999998,1546.2249000000002,1548.2582,1549.2663,1549.7660999999998,1549.7660999999998,1551.8659,1741.0,1551.8660000000002,5.0,1551.8662,6.0,13.0,193.0,16.0,1.0,1.0,0.7,Time
,,S18,1,女,21,anonymized,Serial_Dependence_U,2023.2.3,Win32,120.48192771080112,,,,,,1551.8665,236.0,6.0,1551.8665999999998,236.0,,,,1556.0495999999998,1556.5492,1555.5414,1556.0495999999998,1552.8746,1555.5413,1556.5494,1557.0498,1557.0498,1559.1978,1849.0,1559.1978,4.0,1559.1979,6.0,14.0,194.0,14.0,1.0,1.6,0.3,Time
,,S18,1,女,21,anonymized,Serial_Dependence_U,2023.2.3,Win32,120.48192771080112,,,,,,1559.1981999999998,259.0,6.0,1559.1983,259.0,,,,1562.7715999999998,1563.2659,1562.2635000000002,1562.7715000000003,1560.1975000000002,1562.2635000000002,1563.2659,1563.7624,1563.7625000000005,1565.4965999999995,1384.0,1565.4965999999995,5.0,1565.4968,6.0,15.0,195.0,11.0,1.0,1.0,0.3,Time
,,S18,1,女,21,anonymized,Serial_Dependence_U,2023.2.3,Win32,120.48192771080112,,,,,,1565.4970999999998,331.0,6.0,1565.4973,331.0,,,,1568.8450999999998,1569.3420999999998,1568.3385999999998,1568.8450000000005,1566.5049,1568.3384,1569.3421999999998,1569.8407,1569.8408,1571.5132,1350.0,1571.5132,5.0,1571.5134,6.0,16.0,196.0,25.0,1.0,0.8,0.7,Time
,,S18,1,女,21,anonymized,Serial_Dependence_U,2023.2.3,Win32,120.48192771080112,,,,,,1571.5135999999998,73.0,6.0,1571.5137,73.0,,,,1575.2505999999998,1575.7488,1574.7465000000002,1575.2505,1572.5118,1574.7464,1575.7488,1576.2490000000005,1576.2490000000005,1578.0656,1509.0,1578.0658,4.0,1578.0660000000005,6.0,17.0,197.0,27.0,1.0,1.2,0.7,Time
,,S18,1,女,21,anonymized,Serial_Dependence_U,2023.2.3,Win32,120.48192771080112,,,,,,1578.0663,300.0,6.0,1578.0666,300.0,,,,1581.6493,1582.1489,1581.1409,1581.6491999999998,1579.0740999999998,1581.1408,1582.1491,1582.649,1582.649,1584.3156,1276.0,1584.3156,4.0,1584.3158,6.0,18.0,198.0,1.0,1.0,1.0,0.3,Time
,,S18,1,女,21,anonymized,Serial_Dependence_U,2023.2.3,Win32,120.48192771080112,,,,,,1584.3162,339.0,6.0,1584.3165,339.0,,,,1588.0659,1588.5656,1587.5576999999998,1588.0658,1585.324,1587.5575,1588.5656,1589.0655000000002,1589.0655000000002,1590.9571,1533.0,1590.9571,4.0,1590.9571999999998,6.0,19.0,199.0,7.0,1.0,1.2,0.7,Time
,,S18,1,女,21,anonymized,Serial_Dependence_U,2023.2.3,Win32,120.48192771080112,,,,,,1590.9575999999995,299.0,6.0,1590.9579,299.0,,,,1594.5075000000002,1595.0070999999998,1593.9988,1594.5074000000002,1591.9657,1593.9988,1595.0070999999998,1595.5070999999998,1595.5070999999998,1597.1736999999998,1083.0,1597.1736999999998,4.0,1597.1739,6.0,20.0,200.0,26.0,1.0,1.0,0.7,Time
,,S18,1,女,21,anonymized,Serial_Dependence_U,2023.2.3,Win32,120.48192771080112,,,,,,1597.1743,139.0,6.0,1597.1745,139.0,,,,1601.1240999999998,1601.6235,1600.6155,1601.1240999999998,1598.1824,1600.6155,1601.6236,1602.1237,1602.1237,1603.8235999999995,1416.0,1603.8237,3.0,1603.824,6.0,21.0,201.0,8.0,1.0,1.4,0.7,Time
,,S18,1,女,21,anonymized,Serial_Dependence_U,2023.2.3,Win32,120.48192771080112,,,,,,1603.8241999999998,341.0,6.0,1603.8244000000002,341.0,,,,1607.4071,1607.9069000000002,1606.8989,1607.4070000000002,1604.8323,1606.8988,1607.9069000000002,1608.4070000000002,1608.4070000000002,1610.6650999999997,1631.0,1610.6652,5.0,1610.6652,6.0,22.0,202.0,21.0,1.0,1.0,0.3,Time
,,S18,1,女,21,anonymized,Serial_Dependence_U,2023.2.3,Win32,120.48192771080112,,,,,,1610.6655999999998,160.0,6.0,1610.6659000000002,160.0,,,,1614.8150999999998,1615.3154000000002,1614.3070999999998,1614.8150999999998,1611.6736999999998,1614.3069,1615.3154000000002,1615.8150999999998,1615.8150999999998,1618.7983,2133.0,1618.7983,5.0,1618.7986,6.0,23.0,203.0,29.0,1.0,1.6,0.7,Time
,,S18,1,女,21,anonymized,Serial_Dependence_U,2023.2.3,Win32,120.48192771080112,,,,,,1618.7990999999995,248.0,6.0,1618.7993,248.0,,,,1622.7486,1623.2484000000002,1622.2402,1622.7486,1619.8070999999998,1622.2400999999998,1623.2484000000002,1623.7486,1623.7487,1626.0982,1751.0,1626.0982,4.0,1626.0985000000005,6.0,24.0,204.0,18.0,1.0,1.4,0.7,Time
,,S18,1,女,21,anonymized,Serial_Dependence_U,2023.2.3,Win32,120.48192771080112,,,,,,1626.0990000000002,318.0,6.0,1626.0991,318.0,,,,1630.2486,1630.7482,1629.7403,1630.2484000000002,1627.1066999999998,1629.7403,1630.7482,1631.2482,1631.2482,1633.9315,1875.0,1633.9315,4.0,1633.9316,6.0,25.0,205.0,9.0,1.0,1.6,0.7,Time
,,S18,1,女,21,anonymized,Serial_Dependence_U,2023.2.3,Win32,120.48192771080112,,,,,,1633.9319,239.0,6.0,1633.9322,239.0,,,,1637.2819000000002,1637.7815000000005,1636.7733,1637.2818,1634.9399,1636.7732,1637.7815000000005,1638.2815000000005,1638.2815999999998,1639.948,1291.0,1639.948,5.0,1639.9483,6.0,26.0,206.0,15.0,1.0,0.8,0.7,Time
,,S18,1,女,21,anonymized,Serial_Dependence_U,2023.2.3,Win32,120.48192771080112,,,,,,1639.9485000000002,99.0,6.0,1639.9487,99.0,,,,1643.3314,1643.8314,1642.8231999999998,1643.3314,1640.9565000000002,1642.8230999999998,1643.8314,1644.3313,1644.3314,1646.0793,1359.0,1646.0793,5.0,1646.0795000000005,6.0,27.0,207.0,20.0,1.0,0.8,0.3,Time
,,S18,1,女,21,anonymized,Serial_Dependence_U,2023.2.3,Win32,120.48192771080112,,,,,,1646.0797,44.0,6.0,1646.0798,44.0,,,,1650.2290999999998,1650.7239000000002,1649.7210000000002,1650.2290000000005,1647.0874,1649.7210000000002,1650.7239000000002,1651.2229,1651.2230000000002,1653.4705,1927.0,1653.4705,4.0,1653.4707,6.0,28.0,208.0,19.0,1.0,1.6,0.7,Time
,,S18,1,女,21,anonymized,Serial_Dependence_U,2023.2.3,Win32,120.48192771080112,,,,,,1653.4710000000002,127.0,6.0,1653.4710999999998,127.0,,,,1657.4518,1657.948,1656.9455000000005,1657.4516999999998,1654.4783,1656.9454,1657.9480999999998,1658.4475999999995,1658.4475999999995,1660.4455000000005,1658.0,1660.4455000000005,4.0,1660.4458,6.0,29.0,209.0,13.0,1.0,1.4,0.3,Time
,,S18,1,女,21,anonymized,Serial_Dependence_U,2023.2.3,Win32,120.48192771080112,,,,,,1660.4461,29.0,7.0,1662.8195000000003,29.0,s,2.3659000000000106,,1666.1817,1666.6810000000005,1665.6789,1666.1816,1663.8152,1665.6787,1666.6810000000005,1667.1809,1667.1810000000005,1668.7620000000002,1141.0,1668.7620000000002,5.0,1668.7622,7.0,0.0,210.0,10.0,1.0,0.8,0.3,Time
,,S18,1,女,21,anonymized,Serial_Dependence_U,2023.2.3,Win32,120.48192771080112,,,,,,1668.7624,187.0,7.0,1668.7632,187.0,,,,1672.3098,1672.8095,1671.8035999999995,1672.3098,1669.7616999999998,1671.8035000000002,1672.8095999999998,1673.3057,1673.3057,1675.0200999999995,1291.0,1675.0200999999995,4.0,1675.0204,7.0,1.0,211.0,6.0,1.0,1.0,0.7,Time
,,S18,1,女,21,anonymized,Serial_Dependence_U,2023.2.3,Win32,120.48192771080112,,,,,,1675.0206999999998,349.0,7.0,1675.0209,349.0,,,,1679.1978,1679.6974,1678.6940999999997,1679.1977,1676.0267,1678.6940000000002,1679.6974,1680.1974,1680.1975000000002,1681.9618,1333.0,1681.9618,2.0,1681.9620000000002,7.0,2.0,212.0,24.0,1.0,1.6,0.3,Time
,,S18,1,女,21,anonymized,Serial_Dependence_U,2023.2.3,Win32,120.48192771080112,,,,,,1681.9622,224.0,7.0,1681.9623,224.0,,,,1685.5113,1686.0088,1685.0031,1685.5113,1682.9602,1685.0030000000002,1686.0089,1686.5055999999995,1686.5057,1688.4320000000002,1528.0,1688.4320000000002,5.0,1688.4322,7.0,3.0,213.0,16.0,1.0,1.0,0.7,Time
,,S18,1,女,21,anonymized,Serial_Dependence_U,2023.2.3,Win32,120.48192771080112,,,,,,1688.4325,293.0,7.0,1688.4326,293.0,,,,1691.9976,1692.4976,1691.495,1691.9975000000002,1689.4313,1691.495,1692.4976,1692.9970999999998,1692.9971999999998,1694.8944,1452.0,1694.8944,5.0,1694.8945,7.0,4.0,214.0,1.0,1.0,1.0,0.3,Time
,,S18,1,女,21,anonymized,Serial_Dependence_U,2023.2.3,Win32,120.48192771080112,,,,,,1694.8946999999998,192.0,7.0,1694.8948,192.0,,,,1698.8276999999998,1699.3248,1698.3272,1698.8276999999998,1695.8905999999995,1698.3270000000002,1699.3248,1699.8265,1699.8265,1701.9529,1767.0,1701.9530000000002,4.0,1701.9532,7.0,5.0,215.0,8.0,1.0,1.4,0.7,Time
,,S18,1,女,21,anonymized,Serial_Dependence_U,2023.2.3,Win32,120.48192771080112,,,,,,1701.9534,205.0,7.0,1701.9535999999998,205.0,,,,1705.4977,1705.9934,1704.9945000000002,1705.4976,1702.9596,1704.9945000000002,1705.9935000000005,1706.4889,1706.4889,1708.3617,1508.0,1708.3618,5.0,1708.3619,7.0,6.0,216.0,26.0,1.0,1.0,0.7,Time
,,S18,1,女,21,anonymized,Serial_Dependence_U,2023.2.3,Win32,120.48192771080112,,,,,,1708.3621999999998,258.0,7.0,1708.3623,258.0,,,,1711.745,1712.2433,1711.2365000000002,1711.7449,1709.3698,1711.2365000000002,1712.2433,1712.7437,1712.7437,1714.5368,1442.0,1714.5369,5.0,1714.5370000000005,7.0,7.0,217.0,0.0,1.0,0.8,0.3,Time
,,S18,1,女,21,anonymized,Serial_Dependence_U,2023.2.3,Win32,120.48192771080112,,,,,,1714.5372,5.0,7.0,1714.5374000000002,5.0,,,,1718.2867,1718.7854,1717.7780000000002,1718.2866,1715.545,1717.7780000000002,1718.7854,1719.2853,1719.2853,1721.2618,1450.0,1721.2618,4.0,1721.2619000000002,7.0,8.0,218.0,17.0,1.0,1.2,0.7,Time
,,S18,1,女,21,anonymized,Serial_Dependence_U,2023.2.3,Win32,120.48192771080112,,,,,,1721.2621,346.0,7.0,1721.2623,346.0,,,,1724.6104,1725.1050000000002,1724.1031999999998,1724.6103,1722.2696,1724.1030999999998,1725.1050999999998,1725.6050999999998,1725.6052,1727.5027,1331.0,1727.5028,5.0,1727.5031,7.0,9.0,219.0,25.0,1.0,0.8,0.7,Time
,,S18,1,女,21,anonymized,Serial_Dependence_U,2023.2.3,Win32,120.48192771080112,,,,,,1727.5033,180.0,7.0,1727.5034,180.0,,,,1731.6885000000002,1732.1880999999998,1731.1855999999998,1731.6884,1728.5186,1731.1855999999998,1732.1880999999998,1732.6883,1732.6883,1734.9943,1750.0,1734.9943,4.0,1734.9944,7.0,10.0,220.0,14.0,1.0,1.6,0.3,Time
,,S18,1,女,21,anonymized,Serial_Dependence_U,2023.2.3,Win32,120.48192771080112,,,,,,1734.9945999999998,5.0,7.0,1734.9947,5.0,,,,1738.9716,1739.4716,1738.4690999999998,1738.9715,1736.0020999999997,1738.4690000000005,1739.4716999999998,1739.9715,1739.9716,1742.2028,1775.0,1742.2028,4.0,1742.2030000000002,7.0,11.0,221.0,23.0,1.0,1.4,0.3,Time
,,S18,1,女,21,anonymized,Serial_Dependence_U,2023.2.3,Win32,120.48192771080112,,,,,,1742.2032,70.0,7.0,1742.2034,70.0,,,,1746.1520999999998,1746.6465999999998,1745.6438,1746.1520999999998,1743.2104000000002,1745.6437,1746.6465999999998,1747.1464,1747.1464,1749.2522,1742.0,1749.2522,4.0,1749.2525000000005,7.0,12.0,222.0,28.0,1.0,1.4,0.7,Time
,,S18,1,女,21,anonymized,Serial_Dependence_U,2023.2.3,Win32,120.48192771080112,,,,,,1749.2528,104.0,7.0,1749.2529000000002,104.0,,,,1753.2300000000002,1753.7297,1752.7216999999998,1753.2299,1750.2547,1752.7215,1753.7297,1754.2295,1754.2295,1756.5523,1957.0,1756.5523,5.0,1756.5524,7.0,13.0,223.0,13.0,1.0,1.4,0.3,Time
,,S18,1,女,21,anonymized,Serial_Dependence_U,2023.2.3,Win32,120.48192771080112,,,,,,1756.5525999999998,208.0,7.0,1756.5527,208.0,,,,1760.5300000000002,1761.0295,1760.0214,1760.5299,1757.5525999999998,1760.0214,1761.0295,1761.5295,1761.5295,1764.0293,1925.0,1764.0293,5.0,1764.0295999999998,7.0,14.0,224.0,3.0,1.0,1.4,0.3,Time
,,S18,1,女,21,anonymized,Serial_Dependence_U,2023.2.3,Win32,120.48192771080112,,,,,,1764.0298,264.0,7.0,1764.0300000000002,264.0,,,,1767.7798,1768.2795,1767.2713,1767.7796999999998,1765.0379,1767.2712,1768.2795999999998,1768.7794,1768.7794,1770.8292,1625.0,1770.8293,5.0,1770.8294,7.0,15.0,225.0,27.0,1.0,1.2,0.7,Time
,,S18,1,女,21,anonymized,Serial_Dependence_U,2023.2.3,Win32,120.48192771080112,,,,,,1770.8298,65.0,7.0,1770.8300000000002,65.0,,,,1774.1800000000003,1774.6794,1773.6714000000002,1774.1799,1771.8378,1773.6713,1774.6795000000002,1775.1793,1775.1793,1776.7709,1208.0,1776.7709,5.0,1776.7710999999997,7.0,16.0,226.0,5.0,1.0,0.8,0.7,Time
,,S18,1,女,21,anonymized,Serial_Dependence_U,2023.2.3,Win32,120.48192771080112,,,,,,1776.7715000000003,149.0,7.0,1776.7717,149.0,,,,1780.9213,1781.4209,1780.4130000000002,1780.9212,1777.7795,1780.4128,1781.4210000000005,1781.9209,1781.9210000000005,1784.0460999999998,1801.0,1784.0460999999998,4.0,1784.0464000000002,7.0,17.0,227.0,9.0,1.0,1.6,0.7,Time
,,S18,1,女,21,anonymized,Serial_Dependence_U,2023.2.3,Win32,120.48192771080112,,,,,,1784.0467,168.0,7.0,1784.0470999999998,168.0,,,,1788.1959000000002,1788.696,1787.6879,1788.1958,1785.0544,1787.6878,1788.696,1789.196,1789.1961,1791.2623,1924.0,1791.2624,4.0,1791.2625000000005,7.0,18.0,228.0,29.0,1.0,1.6,0.7,Time
,,S18,1,女,21,anonymized,Serial_Dependence_U,2023.2.3,Win32,120.48192771080112,,,,,,1791.2627,233.0,7.0,1791.263,233.0,,,,1795.0459,1795.5455999999997,1794.5377,1795.0459,1792.2708,1794.5376,1795.5455999999997,1796.0455999999997,1796.0455999999997,1798.6205000000002,2075.0,1798.6205000000002,5.0,1798.6207,7.0,19.0,229.0,12.0,1.0,1.2,0.3,Time
,,S18,1,女,21,anonymized,Serial_Dependence_U,2023.2.3,Win32,120.48192771080112,,,,,,1798.621,151.0,7.0,1798.6211999999998,151.0,,,,1802.7709,1803.2705,1802.2623,1802.7708,1799.6291,1802.2623,1803.2705,1803.7707,1803.7707,1806.1704,1983.0,1806.1705,4.0,1806.1707,7.0,20.0,230.0,19.0,1.0,1.6,0.7,Time
,,S18,1,女,21,anonymized,Serial_Dependence_U,2023.2.3,Win32,120.48192771080112,,,,,,1806.1711,181.0,7.0,1806.1713,181.0,,,,1809.7543,1810.2538,1809.2459,1809.7542,1807.1792,1809.2458,1810.2539,1810.7537,1810.7537,1812.2619,1151.0,1812.2619,4.0,1812.2622,7.0,21.0,231.0,21.0,1.0,1.0,0.3,Time
,,S18,1,女,21,anonymized,Serial_Dependence_U,2023.2.3,Win32,120.48192771080112,,,,,,1812.2626,299.0,7.0,1812.2628,299.0,,,,1816.0375,1816.5370000000005,1815.5289,1816.0373,1813.2624,1815.5287,1816.5370000000005,1817.0371,1817.0371,1818.8619,1534.0,1818.8619,4.0,1818.8621,7.0,22.0,232.0,22.0,1.0,1.2,0.3,Time
,,S18,1,女,21,anonymized,Serial_Dependence_U,2023.2.3,Win32,120.48192771080112,,,,,,1818.8624,172.0,7.0,1818.8626,172.0,,,,1823.0433,1823.5416,1822.5347,1823.0433,1819.8705,1822.5346,1823.5416,1824.0417,1824.0418,1826.2016,1900.0,1826.2017,4.0,1826.2018,7.0,23.0,233.0,4.0,1.0,1.6,0.3,Time
,,S18,1,女,21,anonymized,Serial_Dependence_U,2023.2.3,Win32,120.48192771080112,,,,,,1826.2021,149.0,7.0,1826.2022,149.0,,,,1829.9762,1830.4749,1829.4681,1829.9762,1827.2013,1829.468,1830.4749,1830.9749,1830.9749,1832.851,1600.0,1832.851,5.0,1832.8513,7.0,24.0,234.0,2.0,1.0,1.2,0.3,Time
,,S18,1,女,21,anonymized,Serial_Dependence_U,2023.2.3,Win32,120.48192771080112,,,,,,1832.8515,126.0,7.0,1832.8516,126.0,,,,1836.2259,1836.7198,1835.7177,1836.2259,1833.8540000000005,1835.7176,1836.7199,1837.2159,1837.2159,1838.9258,1422.0,1838.9259,5.0,1838.926,7.0,25.0,235.0,20.0,1.0,0.8,0.3,Time
,,S18,1,女,21,anonymized,Serial_Dependence_U,2023.2.3,Win32,120.48192771080112,,,,,,1838.9263,43.0,7.0,1838.9264,43.0,,,,1842.5177,1843.0116,1842.0095,1842.5177,1839.9425,1842.0095,1843.0117,1843.5117,1843.5117,1845.2676,1399.0,1845.2676,5.0,1845.2678,7.0,26.0,236.0,11.0,1.0,1.0,0.3,Time
,,S18,1,女,21,anonymized,Serial_Dependence_U,2023.2.3,Win32,120.48192771080112,,,,,,1845.2680000000005,330.0,7.0,1845.2681,330.0,,,,1848.6173,1849.112,1848.1086,1848.6172,1846.2711,1848.1085000000005,1849.112,1849.6075,1849.6075,1851.2839,1350.0,1851.2839,5.0,1851.2841,7.0,27.0,237.0,15.0,1.0,0.8,0.7,Time
,,S18,1,女,21,anonymized,Serial_Dependence_U,2023.2.3,Win32,120.48192771080112,,,,,,1851.2843,296.0,7.0,1851.2844,296.0,,,,1855.2292,1855.7280000000003,1854.7284,1855.2291,1852.2949,1854.7283,1855.7280000000003,1856.2280000000003,1856.2281,1858.1529,1542.0,1858.1529,4.0,1858.1531,7.0,28.0,238.0,18.0,1.0,1.4,0.7,Time
,,S18,1,女,21,anonymized,Serial_Dependence_U,2023.2.3,Win32,120.48192771080112,,,,,,1858.1535,338.0,7.0,1858.1538,338.0,,,,1861.9031,1862.403,1861.3949,1861.9031,1859.1616,1861.3948,1862.4031,1862.9029,1862.903,1865.1279,1774.0,1865.128,5.0,1865.1283,7.0,29.0,239.0,7.0,1.0,1.2,0.7,Time
,,S18,1,女,21,anonymized,Serial_Dependence_U,2023.2.3,Win32,120.48192771080112,,,,,,1865.1288,134.0,8.0,1886.884,134.0,s,21.74779999999987,,1890.8529,1891.3523,1890.3498,1890.8528,1887.884,1890.3497,1891.3524,1891.8525,1891.8526,1894.3666,2255.0,1894.3667,5.0,1894.3669,8.0,0.0,240.0,3.0,1.0,1.4,0.3,Time
,,S18,1,女,21,anonymized,Serial_Dependence_U,2023.2.3,Win32,120.48192771080112,,,,,,1894.3671,228.0,8.0,1894.3678,228.0,,,,1897.9027,1898.3981,1897.3997,1897.9027,1895.3663,1897.3997,1898.3981,1898.8975000000005,1898.8975000000005,1900.9418,1708.0,1900.9418,5.0,1900.9419,8.0,1.0,241.0,16.0,1.0,1.0,0.7,Time
,,S18,1,女,21,anonymized,Serial_Dependence_U,2023.2.3,Win32,120.48192771080112,,,,,,1900.9422,156.0,8.0,1900.9423,156.0,,,,1904.3245,1904.8236,1903.8167,1904.3244,1901.9495,1903.8166,1904.8236,1905.3233,1905.3233,1906.808,1150.0,1906.8081,5.0,1906.8083,8.0,2.0,242.0,20.0,1.0,0.8,0.3,Time
,,S18,1,女,21,anonymized,Serial_Dependence_U,2023.2.3,Win32,120.48192771080112,,,,,,1906.8085,76.0,8.0,1906.8086,76.0,,,,1910.3665,1910.8605,1909.858,1910.3664,1907.8191,1909.8579,1910.8605,1911.3606,1911.3607,1912.8253,1183.0,1912.8253,4.0,1912.8257,8.0,3.0,243.0,26.0,1.0,1.0,0.7,Time
,,S18,1,女,21,anonymized,Serial_Dependence_U,2023.2.3,Win32,120.48192771080112,,,,,,1912.8259,319.0,8.0,1912.8261,319.0,,,,1916.5876,1917.0894,1916.0832,1916.5875,1913.8414,1916.083,1917.0894,1917.5853,1917.5853,1919.733,1806.0,1919.733,5.0,1919.7332,8.0,4.0,244.0,17.0,1.0,1.2,0.7,Time
,,S18,1,女,21,anonymized,Serial_Dependence_U,2023.2.3,Win32,120.48192771080112,,,,,,1919.7333,30.0,8.0,1919.7335000000005,30.0,,,,1923.0693,1923.5687,1922.5662,1923.0691,1920.7328,1922.5662,1923.5687,1924.0731,1924.0731,1925.8247,1385.0,1925.8248,5.0,1925.8250000000005,8.0,5.0,245.0,15.0,1.0,0.8,0.7,Time
,,S18,1,女,21,anonymized,Serial_Dependence_U,2023.2.3,Win32,120.48192771080112,,,,,,1925.8253,127.0,8.0,1925.8255,127.0,,,,1929.2084,1929.7064,1928.6997,1929.2083,1926.8327,1928.6996,1929.7064,1930.2068,1930.2068,1931.9161,1232.0,1931.9161,5.0,1931.9163,8.0,6.0,246.0,0.0,1.0,0.8,0.3,Time
,,S18,1,女,21,anonymized,Serial_Dependence_U,2023.2.3,Win32,120.48192771080112,,,,,,1931.9165000000005,61.0,8.0,1931.9167,61.0,,,,1935.2889,1935.7852,1934.7824000000005,1935.2888,1932.9207,1934.7823,1935.7853,1936.2816,1936.2816,1938.433,1408.0,1938.4331,5.0,1938.4333,8.0,7.0,247.0,10.0,1.0,0.8,0.3,Time
,,S18,1,女,21,anonymized,Serial_Dependence_U,2023.2.3,Win32,120.48192771080112,,,,,,1938.4335000000003,100.0,8.0,1938.4336,100.0,,,,1942.6108,1943.1101,1942.1080000000004,1942.6106,1939.4368,1942.1079,1943.1102,1943.6101,1943.6101,1945.4832,1584.0,1945.4834000000003,3.0,1945.4835,8.0,8.0,248.0,24.0,1.0,1.6,0.3,Time
,,S18,1,女,21,anonymized,Serial_Dependence_U,2023.2.3,Win32,120.48192771080112,,,,,,1945.4837,96.0,8.0,1945.4839,96.0,,,,1949.433,1949.9315000000004,1948.9248,1949.433,1946.4907,1948.9248,1949.9315000000004,1950.4312,1950.4312,1952.5502,1892.0,1952.5503,5.0,1952.5505,8.0,9.0,249.0,28.0,1.0,1.4,0.7,Time
,,S18,1,女,21,anonymized,Serial_Dependence_U,2023.2.3,Win32,120.48192771080112,,,,,,1952.5507,168.0,8.0,1952.5509,168.0,,,,1956.0939,1956.5976,1955.5912,1956.0937,1953.5576,1955.5912,1956.5976,1957.0935,1957.0935,1958.8240000000003,1325.0,1958.8241,5.0,1958.8243,8.0,10.0,250.0,6.0,1.0,1.0,0.7,Time
,,S18,1,女,21,anonymized,Serial_Dependence_U,2023.2.3,Win32,120.48192771080112,,,,,,1958.8245000000004,188.0,8.0,1958.8246,188.0,,,,1962.7932,1963.2930000000003,1962.2849,1962.7931,1959.8239,1962.2849,1963.2931,1963.7931,1963.7932,1965.7930000000003,1658.0,1965.7930000000003,4.0,1965.7931,8.0,11.0,251.0,23.0,1.0,1.4,0.3,Time
,,S18,1,女,21,anonymized,Serial_Dependence_U,2023.2.3,Win32,120.48192771080112,,,,,,1965.7936,137.0,8.0,1965.7938,137.0,,,,1969.9432,1970.4429,1969.4349,1969.9431,1966.8016,1969.4348,1970.4429,1970.9431,1970.9431,1973.6595,2317.0,1973.6595,5.0,1973.6597,8.0,12.0,252.0,19.0,1.0,1.6,0.7,Time
,,S18,1,女,21,anonymized,Serial_Dependence_U,2023.2.3,Win32,120.48192771080112,,,,,,1973.66,87.0,8.0,1973.6602,87.0,,,,1977.2431,1977.7429,1976.7348,1977.243,1974.6681,1976.7346,1977.7431,1978.2431,1978.2431,1980.5347,1533.0,1980.5347,5.0,1980.5349,8.0,13.0,253.0,11.0,1.0,1.0,0.3,Time
,,S18,1,女,21,anonymized,Serial_Dependence_U,2023.2.3,Win32,120.48192771080112,,,,,,1980.5353,7.0,8.0,1980.5354,7.0,,,,1984.6863,1985.1842,1984.1819000000005,1984.6862000000003,1981.5430000000003,1984.1818,1985.1843,1985.687,1985.687,1988.1571,2023.0,1988.1572000000003,4.0,1988.1574000000005,8.0,14.0,254.0,9.0,1.0,1.6,0.7,Time
,,S18,1,女,21,anonymized,Serial_Dependence_U,2023.2.3,Win32,120.48192771080112,,,,,,1988.1576,202.0,8.0,1988.1577,202.0,,,,1992.3397,1992.8342,1991.8264,1992.3395,1989.1647,1991.8263,1992.8342,1993.3294000000003,1993.3294000000003,1995.9569000000004,2108.0,1995.957,5.0,1995.9572,8.0,15.0,255.0,4.0,1.0,1.6,0.3,Time
,,S18,1,女,21,anonymized,Serial_Dependence_U,2023.2.3,Win32,120.48192771080112,,,,,,1995.9574000000005,233.0,8.0,1995.9575,233.0,,,,1999.7401,2000.234,1999.2313,1999.7401,1996.9657,1999.2312,2000.2340999999997,2000.739,2000.739,2003.0735,1872.0,2003.0735999999995,5.0,2003.0737,8.0,16.0,256.0,12.0,1.0,1.2,0.3,Time
,,S18,1,女,21,anonymized,Serial_Dependence_U,2023.2.3,Win32,120.48192771080112,,,,,,2003.074,280.0,8.0,2003.074,280.0,,,,2007.251,2007.7529,2006.7475999999997,2007.2509,2004.0819000000004,2006.7475999999997,2007.7529,2008.2508,2008.2509,2010.74,2010.0,2010.74,4.0,2010.7402,8.0,17.0,257.0,14.0,1.0,1.6,0.3,Time
,,S18,1,女,21,anonymized,Serial_Dependence_U,2023.2.3,Win32,120.48192771080112,,,,,,2010.7404000000004,254.0,8.0,2010.7405,254.0,,,,2014.3262,2014.8258,2013.823,2014.3260999999995,2011.7568,2013.8229000000003,2014.8258,2015.3259000000005,2015.326,2017.6174000000003,1931.0,2017.6174000000003,5.0,2017.6177,8.0,18.0,258.0,1.0,1.0,1.0,0.3,Time
,,S18,1,女,21,anonymized,Serial_Dependence_U,2023.2.3,Win32,120.48192771080112,,,,,,2017.6180999999997,216.0,8.0,2017.6182,216.0,,,,2021.2005999999997,2021.7005999999997,2020.6924,2021.2005999999997,2018.6259,2020.6923,2021.7005999999997,2022.2005,2022.2005,2023.6588,1058.0,2023.6588,4.0,2023.6589,8.0,19.0,259.0,21.0,1.0,1.0,0.3,Time
,,S18,1,女,21,anonymized,Serial_Dependence_U,2023.2.3,Win32,120.48192771080112,,,,,,2023.6592000000005,71.0,8.0,2023.6593,71.0,,,,2027.009,2027.5088,2026.5005,2027.009,2024.6670999999997,2026.5005,2027.5088,2028.0089000000005,2028.0089000000005,2029.342,1025.0,2029.342,4.0,2029.3422000000005,8.0,20.0,260.0,25.0,1.0,0.8,0.7,Time
,,S18,1,女,21,anonymized,Serial_Dependence_U,2023.2.3,Win32,120.48192771080112,,,,,,2029.3427,161.0,8.0,2029.3429000000003,161.0,,,,2033.284,2033.7837,2032.7835999999995,2033.284,2030.3505999999995,2032.7835,2033.7837,2034.2842000000005,2034.2842000000005,2036.392,1775.0,2036.392,4.0,2036.3923,8.0,21.0,261.0,8.0,1.0,1.4,0.7,Time
,,S18,1,女,21,anonymized,Serial_Dependence_U,2023.2.3,Win32,120.48192771080112,,,,,,2036.3927,322.0,8.0,2036.393,322.0,,,,2039.7337,2040.2336,2039.2259,2039.7337,2037.3937000000003,2039.2257,2040.2336,2040.7335,2040.7336,2042.3750999999995,1240.0,2042.3750999999995,5.0,2042.3753,8.0,22.0,262.0,5.0,1.0,0.8,0.7,Time
,,S18,1,女,21,anonymized,Serial_Dependence_U,2023.2.3,Win32,120.48192771080112,,,,,,2042.3757000000005,192.0,8.0,2042.3759,192.0,,,,2046.1224000000004,2046.6168,2045.6144,2046.1224000000004,2043.3838,2045.6143,2046.6168,2047.1166,2047.1167000000005,2049.1479,1558.0,2049.1479,4.0,2049.1480999999994,8.0,23.0,263.0,7.0,1.0,1.2,0.7,Time
,,S18,1,女,21,anonymized,Serial_Dependence_U,2023.2.3,Win32,120.48192771080112,,,,,,2049.1484,0.0,8.0,2049.1485,0.0,,,,2053.0952999999995,2053.5942,2052.5893,2053.0952999999995,2050.1522,2052.5892,2053.5943,2054.095,2054.0950999999995,2056.4982,2075.0,2056.4983,5.0,2056.4985999999994,8.0,24.0,264.0,18.0,1.0,1.4,0.7,Time
,,S18,1,女,21,anonymized,Serial_Dependence_U,2023.2.3,Win32,120.48192771080112,,,,,,2056.4987999999994,282.0,8.0,2056.4989,282.0,,,,2060.2807999999995,2060.7749,2059.7725,2060.2807,2057.5055999999995,2059.7724000000003,2060.775,2061.2782,2061.2782999999995,2063.3308,1652.0,2063.3309,5.0,2063.331,8.0,25.0,265.0,22.0,1.0,1.2,0.3,Time
,,S18,1,女,21,anonymized,Serial_Dependence_U,2023.2.3,Win32,120.48192771080112,,,,,,2063.3312999999994,273.0,8.0,2063.3314,273.0,,,,2067.1203,2067.6162,2066.6137,2067.1203,2064.3452999999995,2066.6137,2067.6163,2068.1165999999994,2068.1165999999994,2070.1644,1717.0,2070.164599999999,5.0,2070.1648,8.0,26.0,266.0,2.0,1.0,1.2,0.3,Time
,,S18,1,女,21,anonymized,Serial_Dependence_U,2023.2.3,Win32,120.48192771080112,,,,,,2070.1650999999997,63.0,8.0,2070.1652,63.0,,,,2074.1469,2074.6413,2073.6390999999994,2074.1469,2071.1725999999994,2073.639,2074.6413,2075.1357,2075.1357,2076.9138,1451.0,2076.9138,3.0,2076.9140999999995,8.0,27.0,267.0,13.0,1.0,1.4,0.3,Time
,,S18,1,女,21,anonymized,Serial_Dependence_U,2023.2.3,Win32,120.48192771080112,,,,,,2076.9144,31.0,8.0,2076.9144,31.0,,,,2081.0582,2081.5615999999995,2080.5547999999994,2081.0580999999997,2077.9223,2080.5547,2081.5615999999995,2082.0579999999995,2082.0580999999997,2084.3638,2018.0,2084.3639000000003,4.0,2084.3641,8.0,28.0,268.0,29.0,1.0,1.6,0.7,Time
,,S18,1,女,21,anonymized,Serial_Dependence_U,2023.2.3,Win32,120.48192771080112,,,,,,2084.3647,326.0,8.0,2084.3647,326.0,,,,2088.1055999999994,2088.6077999999998,2087.5969,2088.1055999999994,2085.3625,2087.5969,2088.6079,2089.1120999999994,2089.1122,2091.139,1809.0,2091.139,5.0,2091.1392,8.0,29.0,269.0,27.0,1.0,1.2,0.7,Time
