Scale_setup.started,Scale_setup.stopped,participant,expid,session,sex,age,date,expName,psychopyVersion,OS,frameRate,PROLIFIC_PID,STUDY_ID,SESSION_ID,screen_scale_keys.started,screen_scale_keys.stopped,X Scale,Y Scale,rectangel_keys.started,rectangel_keys.stopped,Intro.started,Intro.stopped,key_resp_2.keys,key_resp_2.rt,key_resp_2.duration,block.started,Block_id,block.stopped,Block_resp_2.keys,Block_resp_2.rt,Block_resp_2.duration,ITI.started,ITI.stopped,Mask_2.started,Mask_2.stopped,M2.started,direction,M2.stopped,Cue.started,Cue.stopped,Response.started,Response.stopped,keyDuration,Feedback_Time.started,FeedbackID_T,Feedback_Time.stopped,trials.thisRepN,trials.thisTrialN,trials.thisN,trials.thisIndex,trials.ran,TimeDur,Coherence1,TrialType
1E-04,0.0004,S20,815266,001,M,33,2025-05-21_13h55.09.172,Serial_Dependence_U,2023.2.3,Win32,59.52380952,62fd14d7b1e0729dc8aadb79,682cd3dfea4e15896da7c0a6,682dccded68f4d345aa86ec9,,,,,,,,,,,,,,,,,,,,,,,,,,,,,,,,,,,,,,,,
,,S20,815266,001,M,33,2025-05-21_13h55.09.172,Serial_Dependence_U,2023.2.3,Win32,59.52380952,62fd14d7b1e0729dc8aadb79,682cd3dfea4e15896da7c0a6,682dccded68f4d345aa86ec9,0.002,9.9728,0.0524,0.0486,9.9732,16.2221,16.2228,28.4026,space,12.1175,,,,,,,,,,,,,,,,,,,,,,,,,,,,,,
,,S20,815266,001,M,33,2025-05-21_13h55.09.172,Serial_Dependence_U,2023.2.3,Win32,59.52380952,62fd14d7b1e0729dc8aadb79,682cd3dfea4e15896da7c0a6,682dccded68f4d345aa86ec9,,,,,,,,,,,,28.4247,0,30.1519,s,1.7014,,33.1066,33.6016,32.5898,33.1065,31.1759,199,32.5896,33.6021,34.1013,34.1021,36.6757,720.5,36.6769,1,37.6675,0,0,0,23,1,1.4,0.3,Time
,,S20,815266,001,M,33,2025-05-21_13h55.09.172,Serial_Dependence_U,2023.2.3,Win32,59.52380952,62fd14d7b1e0729dc8aadb79,682cd3dfea4e15896da7c0a6,682dccded68f4d345aa86ec9,,,,,,,,,,,,37.669,0,37.6735,,,,40.8175,41.3167,40.3009,40.8173,38.685,52,40.3007,41.3169,41.8163,41.8165,44.4665,1618.2,44.4668,3,45.4667,0,1,1,29,1,1.6,0.7,Time
,,S20,815266,001,M,33,2025-05-21_13h55.09.172,Serial_Dependence_U,2023.2.3,Win32,59.52380952,62fd14d7b1e0729dc8aadb79,682cd3dfea4e15896da7c0a6,682dccded68f4d345aa86ec9,,,,,,,,,,,,45.4683,0,45.4689,,,,47.989,48.4828,47.4864,47.9887,46.4723,139,47.4861,48.4829,48.9826,48.9828,50.5721,965.9,50.5724,3,51.5654,0,2,2,1,1,1,0.3,Time
,,S20,815266,001,M,33,2025-05-21_13h55.09.172,Serial_Dependence_U,2023.2.3,Win32,59.52380952,62fd14d7b1e0729dc8aadb79,682cd3dfea4e15896da7c0a6,682dccded68f4d345aa86ec9,,,,,,,,,,,,51.5668,0,51.5675,,,,54.6878,55.1814,54.1829,54.6876,52.5718,185,54.1827,55.1816,55.6815,55.6816,58.137,1257,58.1373,2,59.1311,0,3,3,9,1,1.6,0.7,Time
,,S20,815266,001,M,33,2025-05-21_13h55.09.172,Serial_Dependence_U,2023.2.3,Win32,59.52380952,62fd14d7b1e0729dc8aadb79,682cd3dfea4e15896da7c0a6,682dccded68f4d345aa86ec9,,,,,,,,,,,,59.1325,0,59.1332,,,,61.6678,62.1632,61.1534,61.6675,60.1368,264,61.1533,62.1634,62.664,62.6643,64.2855,916.4,64.2859,2,65.2798,0,4,4,6,1,1,0.7,Time
,,S20,815266,001,M,33,2025-05-21_13h55.09.172,Serial_Dependence_U,2023.2.3,Win32,59.52380952,62fd14d7b1e0729dc8aadb79,682cd3dfea4e15896da7c0a6,682dccded68f4d345aa86ec9,,,,,,,,,,,,65.2812,0,65.282,,,,67.6188,68.1128,67.1024,67.6186,66.2857,168,67.1022,68.1129,68.6127,68.613,70.2192,999.1,70.2196,4,71.2118,0,5,5,25,1,0.8,0.7,Time
,,S20,815266,001,M,33,2025-05-21_13h55.09.172,Serial_Dependence_U,2023.2.3,Win32,59.52380952,62fd14d7b1e0729dc8aadb79,682cd3dfea4e15896da7c0a6,682dccded68f4d345aa86ec9,,,,,,,,,,,,71.2133,0,71.2141,,,,74.3349,74.8277,73.8311,74.3348,72.2179,323,73.8308,74.828,75.3282,75.3284,77.2336,1465.6,77.2341,2,78.2276,0,6,6,14,1,1.6,0.3,Time
,,S20,815266,001,M,33,2025-05-21_13h55.09.172,Serial_Dependence_U,2023.2.3,Win32,59.52380952,62fd14d7b1e0729dc8aadb79,682cd3dfea4e15896da7c0a6,682dccded68f4d345aa86ec9,,,,,,,,,,,,78.229,0,78.2298,,,,81.1643,81.66,80.6498,81.1642,79.2337,58,80.6495,81.6601,82.1481,82.1482,83.9162,1382.7,83.9165,3,84.9098,0,7,7,3,1,1.4,0.3,Time
,,S20,815266,001,M,33,2025-05-21_13h55.09.172,Serial_Dependence_U,2023.2.3,Win32,59.52380952,62fd14d7b1e0729dc8aadb79,682cd3dfea4e15896da7c0a6,682dccded68f4d345aa86ec9,,,,,,,,,,,,84.9113,0,84.9119,,,,87.4488,87.9424,86.9321,87.4486,85.9157,220,86.9319,87.9426,88.4425,88.4429,90.2837,1251.2,90.2842,4,91.2747,0,8,8,21,1,1,0.3,Time
,,S20,815266,001,M,33,2025-05-21_13h55.09.172,Serial_Dependence_U,2023.2.3,Win32,59.52380952,62fd14d7b1e0729dc8aadb79,682cd3dfea4e15896da7c0a6,682dccded68f4d345aa86ec9,,,,,,,,,,,,91.2762,0,91.2764,,,,93.9979,94.4915,93.496,93.9976,92.2817,138,93.4958,94.4917,94.9917,94.9918,96.6817,1315.5,96.6821,4,97.6745,0,9,9,22,1,1.2,0.3,Time
,,S20,815266,001,M,33,2025-05-21_13h55.09.172,Serial_Dependence_U,2023.2.3,Win32,59.52380952,62fd14d7b1e0729dc8aadb79,682cd3dfea4e15896da7c0a6,682dccded68f4d345aa86ec9,,,,,,,,,,,,97.6758,0,97.6768,,,,100.009,100.5072,99.497,100.0088,98.6804,331,99.4968,100.5074,101.0074,101.0075,102.2137,866.7,102.214,4,103.2066,0,10,10,10,1,0.8,0.3,Time
,,S20,815266,001,M,33,2025-05-21_13h55.09.172,Serial_Dependence_U,2023.2.3,Win32,59.52380952,62fd14d7b1e0729dc8aadb79,682cd3dfea4e15896da7c0a6,682dccded68f4d345aa86ec9,,,,,,,,,,,,103.2082,0,103.2088,,,,106.3411,106.8392,105.827,106.341,104.2115,290,105.8267,106.8394,107.3393,107.3395,109.3127,1566.6,109.3131,3,110.3059,0,11,11,19,1,1.6,0.7,Time
,,S20,815266,001,M,33,2025-05-21_13h55.09.172,Serial_Dependence_U,2023.2.3,Win32,59.52380952,62fd14d7b1e0729dc8aadb79,682cd3dfea4e15896da7c0a6,682dccded68f4d345aa86ec9,,,,,,,,,,,,110.3071,0,110.3078,,,,113.0279,113.5217,112.526,113.0278,111.3116,17,112.5259,113.5218,114.0225,114.0226,115.2949,949.5,115.2952,2,116.2874,0,12,12,7,1,1.2,0.7,Time
,,S20,815266,001,M,33,2025-05-21_13h55.09.172,Serial_Dependence_U,2023.2.3,Win32,59.52380952,62fd14d7b1e0729dc8aadb79,682cd3dfea4e15896da7c0a6,682dccded68f4d345aa86ec9,,,,,,,,,,,,116.2885,0,116.289,,,,118.6386,119.137,118.1216,118.6385,117.3052,323,118.1214,119.137,119.6368,119.6372,120.9541,1120.6,120.9546,5,121.9531,0,13,13,0,1,0.8,0.3,Time
,,S20,815266,001,M,33,2025-05-21_13h55.09.172,Serial_Dependence_U,2023.2.3,Win32,59.52380952,62fd14d7b1e0729dc8aadb79,682cd3dfea4e15896da7c0a6,682dccded68f4d345aa86ec9,,,,,,,,,,,,121.9541,0,121.9547,,,,124.7043,125.2023,124.1873,124.7042,122.9731,333,124.1871,125.2024,125.7026,125.7027,126.8534,878.8,126.8538,2,127.8528,0,14,14,2,1,1.2,0.3,Time
,,S20,815266,001,M,33,2025-05-21_13h55.09.172,Serial_Dependence_U,2023.2.3,Win32,59.52380952,62fd14d7b1e0729dc8aadb79,682cd3dfea4e15896da7c0a6,682dccded68f4d345aa86ec9,,,,,,,,,,,,127.854,0,127.8547,,,,130.6031,131.1019,130.0859,130.603,128.8705,286,130.0857,131.102,131.6019,131.6021,133.3354,1114.2,133.3358,2,134.3348,0,15,15,17,1,1.2,0.7,Time
,,S20,815266,001,M,33,2025-05-21_13h55.09.172,Serial_Dependence_U,2023.2.3,Win32,59.52380952,62fd14d7b1e0729dc8aadb79,682cd3dfea4e15896da7c0a6,682dccded68f4d345aa86ec9,,,,,,,,,,,,134.3361,0,134.3371,,,,137.0854,137.5843,136.5692,137.0854,135.3522,107,136.569,137.5844,138.0843,138.0845,139.4508,1080.2,139.4512,2,140.4508,0,16,16,27,1,1.2,0.7,Time
,,S20,815266,001,M,33,2025-05-21_13h55.09.172,Serial_Dependence_U,2023.2.3,Win32,59.52380952,62fd14d7b1e0729dc8aadb79,682cd3dfea4e15896da7c0a6,682dccded68f4d345aa86ec9,,,,,,,,,,,,140.4522,0,140.4533,,,,143.4011,143.8996,142.8845,143.401,141.4682,7,142.8844,143.8996,144.3999,144.4,145.8497,1293.5,145.85,2,146.8494,0,17,17,8,1,1.4,0.7,Time
,,S20,815266,001,M,33,2025-05-21_13h55.09.172,Serial_Dependence_U,2023.2.3,Win32,59.52380952,62fd14d7b1e0729dc8aadb79,682cd3dfea4e15896da7c0a6,682dccded68f4d345aa86ec9,,,,,,,,,,,,146.8506,0,146.8516,,,,149.2005,149.6988,148.6837,149.2003,147.8673,229,148.6836,149.6988,150.1993,150.1995,151.8839,1003.4,151.8848,4,152.8816,0,18,18,15,1,0.8,0.7,Time
,,S20,815266,001,M,33,2025-05-21_13h55.09.172,Serial_Dependence_U,2023.2.3,Win32,59.52380952,62fd14d7b1e0729dc8aadb79,682cd3dfea4e15896da7c0a6,682dccded68f4d345aa86ec9,,,,,,,,,,,,152.8826,0,152.8836,,,,155.8322,156.3313,155.3152,155.832,153.9003,310,155.3151,156.3316,156.8317,156.8318,158.4542,1345.9,158.4545,3,159.4473,0,19,19,18,1,1.4,0.7,Time
,,S20,815266,001,M,33,2025-05-21_13h55.09.172,Serial_Dependence_U,2023.2.3,Win32,59.52380952,62fd14d7b1e0729dc8aadb79,682cd3dfea4e15896da7c0a6,682dccded68f4d345aa86ec9,,,,,,,,,,,,159.4491,0,159.45,,,,161.7986,162.2968,161.2815,161.7984,160.4654,111,161.2813,162.2969,162.7967,162.7968,164.3309,1137.1,164.3313,5,165.3299,0,20,20,20,1,0.8,0.3,Time
,,S20,815266,001,M,33,2025-05-21_13h55.09.172,Serial_Dependence_U,2023.2.3,Win32,59.52380952,62fd14d7b1e0729dc8aadb79,682cd3dfea4e15896da7c0a6,682dccded68f4d345aa86ec9,,,,,,,,,,,,165.3312,0,165.3319,,,,167.8689,168.3622,167.3529,167.8687,166.3368,108,167.3527,168.3622,168.8501,168.8501,170.1697,932.4,170.17,2,171.1622,0,21,21,26,1,1,0.7,Time
,,S20,815266,001,M,33,2025-05-21_13h55.09.172,Serial_Dependence_U,2023.2.3,Win32,59.52380952,62fd14d7b1e0729dc8aadb79,682cd3dfea4e15896da7c0a6,682dccded68f4d345aa86ec9,,,,,,,,,,,,171.1634,0,171.1643,,,,173.68,174.1826,173.168,173.6798,172.166,220,173.1677,174.1827,174.6786,174.6788,175.9017,883.1,175.902,2,176.8946,0,22,22,16,1,1,0.7,Time
,,S20,815266,001,M,33,2025-05-21_13h55.09.172,Serial_Dependence_U,2023.2.3,Win32,59.52380952,62fd14d7b1e0729dc8aadb79,682cd3dfea4e15896da7c0a6,682dccded68f4d345aa86ec9,,,,,,,,,,,,176.8961,0,176.8967,,,,179.817,180.3105,179.3003,179.8169,177.8984,107,179.3001,180.3107,180.8106,180.8108,182.4839,1300.7,182.4842,2,183.4766,0,23,23,13,1,1.4,0.3,Time
,,S20,815266,001,M,33,2025-05-21_13h55.09.172,Serial_Dependence_U,2023.2.3,Win32,59.52380952,62fd14d7b1e0729dc8aadb79,682cd3dfea4e15896da7c0a6,682dccded68f4d345aa86ec9,,,,,,,,,,,,183.4782,0,183.4788,,,,186.0159,186.5093,185.4992,186.0157,184.483,97,185.499,186.5094,187.0096,187.0099,188.3003,1027.4,188.3006,3,189.2926,0,24,24,11,1,1,0.3,Time
,,S20,815266,001,M,33,2025-05-21_13h55.09.172,Serial_Dependence_U,2023.2.3,Win32,59.52380952,62fd14d7b1e0729dc8aadb79,682cd3dfea4e15896da7c0a6,682dccded68f4d345aa86ec9,,,,,,,,,,,,189.2939,0,189.2947,,,,191.6317,192.1254,191.1152,191.6315,190.2986,134,191.1149,192.1256,192.6257,192.6258,193.6986,815.5,193.699,3,194.6917,0,25,25,5,1,0.8,0.7,Time
,,S20,815266,001,M,33,2025-05-21_13h55.09.172,Serial_Dependence_U,2023.2.3,Win32,59.52380952,62fd14d7b1e0729dc8aadb79,682cd3dfea4e15896da7c0a6,682dccded68f4d345aa86ec9,,,,,,,,,,,,194.6932,0,194.694,,,,197.6284,198.1247,197.1142,197.6281,195.6978,114,197.1141,198.1249,198.6287,198.6287,200.2141,1137,200.2144,2,201.2073,0,26,26,28,1,1.4,0.7,Time
,,S20,815266,001,M,33,2025-05-21_13h55.09.172,Serial_Dependence_U,2023.2.3,Win32,59.52380952,62fd14d7b1e0729dc8aadb79,682cd3dfea4e15896da7c0a6,682dccded68f4d345aa86ec9,,,,,,,,,,,,201.2091,0,201.2098,,,,203.9456,204.44,203.4298,203.9455,202.2137,329,203.4296,204.4402,204.94,204.9403,206.5633,1349.6,206.5636,4,207.5564,0,27,27,12,1,1.2,0.3,Time
,,S20,815266,001,M,33,2025-05-21_13h55.09.172,Serial_Dependence_U,2023.2.3,Win32,59.52380952,62fd14d7b1e0729dc8aadb79,682cd3dfea4e15896da7c0a6,682dccded68f4d345aa86ec9,,,,,,,,,,,,207.5577,0,207.5584,,,,210.6768,211.1723,210.1738,210.6766,208.562,172,210.1733,211.1726,211.6722,211.6726,213.2276,1399.1,213.2279,2,214.2217,0,28,28,24,1,1.6,0.3,Time
,,S20,815266,001,M,33,2025-05-21_13h55.09.172,Serial_Dependence_U,2023.2.3,Win32,59.52380952,62fd14d7b1e0729dc8aadb79,682cd3dfea4e15896da7c0a6,682dccded68f4d345aa86ec9,,,,,,,,,,,,214.2231,0,214.2237,,,,217.3773,217.871,216.8606,217.3771,215.2445,262,216.8603,217.8712,218.371,218.3713,220.1949,1349.5,220.1954,2,221.1871,0,29,29,4,1,1.6,0.3,Time
,,S20,815266,001,M,33,2025-05-21_13h55.09.172,Serial_Dependence_U,2023.2.3,Win32,59.52380952,62fd14d7b1e0729dc8aadb79,682cd3dfea4e15896da7c0a6,682dccded68f4d345aa86ec9,,,,,,,,,,,,221.1885,1,224.1374,s,2.9139,,226.8598,227.353,226.3539,226.8597,225.1433,152,226.3536,227.3532,227.8528,227.8531,229.8255,1549,229.8258,4,230.8184,1,0,30,27,1,1.2,0.7,Time
,,S20,815266,001,M,33,2025-05-21_13h55.09.172,Serial_Dependence_U,2023.2.3,Win32,59.52380952,62fd14d7b1e0729dc8aadb79,682cd3dfea4e15896da7c0a6,682dccded68f4d345aa86ec9,,,,,,,,,,,,230.8195,1,230.8231,,,,233.7693,234.2678,233.2527,233.7691,231.8363,196,233.2525,234.2679,234.7679,234.768,236.3188,1283.7,236.3192,2,237.3176,1,1,31,13,1,1.4,0.3,Time
,,S20,815266,001,M,33,2025-05-21_13h55.09.172,Serial_Dependence_U,2023.2.3,Win32,59.52380952,62fd14d7b1e0729dc8aadb79,682cd3dfea4e15896da7c0a6,682dccded68f4d345aa86ec9,,,,,,,,,,,,237.3187,1,237.3191,,,,240.2687,240.7668,239.7512,240.2685,238.3352,96,239.751,240.7669,241.2668,241.2669,242.8844,1382.9,242.8848,3,243.8833,1,2,32,18,1,1.4,0.7,Time
,,S20,815266,001,M,33,2025-05-21_13h55.09.172,Serial_Dependence_U,2023.2.3,Win32,59.52380952,62fd14d7b1e0729dc8aadb79,682cd3dfea4e15896da7c0a6,682dccded68f4d345aa86ec9,,,,,,,,,,,,243.8849,1,243.8856,,,,247.0059,247.4993,246.5008,247.0058,244.8896,317,246.5007,247.4994,247.9997,247.9999,249.539,1299.2,249.5394,2,250.5324,1,3,33,9,1,1.6,0.7,Time
,,S20,815266,001,M,33,2025-05-21_13h55.09.172,Serial_Dependence_U,2023.2.3,Win32,59.52380952,62fd14d7b1e0729dc8aadb79,682cd3dfea4e15896da7c0a6,682dccded68f4d345aa86ec9,,,,,,,,,,,,250.5338,1,250.5345,,,,253.6718,254.165,253.1547,253.6716,251.5385,262,253.1545,254.1653,254.665,254.6653,256.6391,1733.6,256.6395,4,257.6315,1,4,34,19,1,1.6,0.7,Time
,,S20,815266,001,M,33,2025-05-21_13h55.09.172,Serial_Dependence_U,2023.2.3,Win32,59.52380952,62fd14d7b1e0729dc8aadb79,682cd3dfea4e15896da7c0a6,682dccded68f4d345aa86ec9,,,,,,,,,,,,257.6328,1,257.6336,,,,260.7703,261.2636,260.2538,260.77,258.6373,119,260.2536,261.2636,261.764,261.7643,263.4706,1516,263.4709,2,264.4635,1,5,35,29,1,1.6,0.7,Time
,,S20,815266,001,M,33,2025-05-21_13h55.09.172,Serial_Dependence_U,2023.2.3,Win32,59.52380952,62fd14d7b1e0729dc8aadb79,682cd3dfea4e15896da7c0a6,682dccded68f4d345aa86ec9,,,,,,,,,,,,264.465,1,264.4655,,,,266.7856,267.2794,266.2696,266.7855,265.4673,64,266.2693,267.2796,267.7795,267.7798,269.6199,1582.5,269.6203,5,270.6125,1,6,36,0,1,0.8,0.3,Time
,,S20,815266,001,M,33,2025-05-21_13h55.09.172,Serial_Dependence_U,2023.2.3,Win32,59.52380952,62fd14d7b1e0729dc8aadb79,682cd3dfea4e15896da7c0a6,682dccded68f4d345aa86ec9,,,,,,,,,,,,270.6143,1,270.6148,,,,273.5514,274.0453,273.0343,273.5512,271.6169,355,273.0341,274.0454,274.5498,274.5499,276.7787,1402.7,276.7791,3,277.7782,1,7,37,28,1,1.4,0.7,Time
,,S20,815266,001,M,33,2025-05-21_13h55.09.172,Serial_Dependence_U,2023.2.3,Win32,59.52380952,62fd14d7b1e0729dc8aadb79,682cd3dfea4e15896da7c0a6,682dccded68f4d345aa86ec9,,,,,,,,,,,,277.7798,1,277.7804,,,,280.3148,280.8108,279.8005,280.3147,278.784,243,279.8004,280.811,281.3118,281.3119,282.4847,983,282.4851,3,283.4772,1,8,38,6,1,1,0.7,Time
,,S20,815266,001,M,33,2025-05-21_13h55.09.172,Serial_Dependence_U,2023.2.3,Win32,59.52380952,62fd14d7b1e0729dc8aadb79,682cd3dfea4e15896da7c0a6,682dccded68f4d345aa86ec9,,,,,,,,,,,,283.4786,1,283.4793,,,,286.0139,286.5097,285.4995,286.0138,284.4832,158,285.4992,286.5098,287.0097,287.01,288.3013,1053.1,288.3018,4,289.2922,1,9,39,16,1,1,0.7,Time
,,S20,815266,001,M,33,2025-05-21_13h55.09.172,Serial_Dependence_U,2023.2.3,Win32,59.52380952,62fd14d7b1e0729dc8aadb79,682cd3dfea4e15896da7c0a6,682dccded68f4d345aa86ec9,,,,,,,,,,,,289.2934,1,289.294,,,,291.8431,292.3417,291.3266,291.8429,290.31,332,291.3265,292.3418,292.8416,292.8417,294.7255,1311.2,294.726,5,295.7249,1,10,40,11,1,1,0.3,Time
,,S20,815266,001,M,33,2025-05-21_13h55.09.172,Serial_Dependence_U,2023.2.3,Win32,59.52380952,62fd14d7b1e0729dc8aadb79,682cd3dfea4e15896da7c0a6,682dccded68f4d345aa86ec9,,,,,,,,,,,,295.7263,1,295.727,,,,298.264,298.762,297.7473,298.2639,296.729,66,297.7469,298.7624,299.2579,299.2582,301.5314,1203.1,301.5317,4,302.5238,1,11,41,1,1,1,0.3,Time
,,S20,815266,001,M,33,2025-05-21_13h55.09.172,Serial_Dependence_U,2023.2.3,Win32,59.52380952,62fd14d7b1e0729dc8aadb79,682cd3dfea4e15896da7c0a6,682dccded68f4d345aa86ec9,,,,,,,,,,,,302.5257,1,302.5263,,,,305.446,305.9397,304.9417,305.4458,303.5302,15,304.9413,305.9398,306.4401,306.4403,307.8457,1237.4,307.8459,2,308.8396,1,12,42,8,1,1.4,0.7,Time
,,S20,815266,001,M,33,2025-05-21_13h55.09.172,Serial_Dependence_U,2023.2.3,Win32,59.52380952,62fd14d7b1e0729dc8aadb79,682cd3dfea4e15896da7c0a6,682dccded68f4d345aa86ec9,,,,,,,,,,,,308.8409,1,308.8417,,,,311.574,312.0721,311.0619,311.5737,309.8459,96,311.0617,312.0723,312.5725,312.5727,313.9788,1284.7,313.9791,4,314.9712,1,13,43,22,1,1.2,0.3,Time
,,S20,815266,001,M,33,2025-05-21_13h55.09.172,Serial_Dependence_U,2023.2.3,Win32,59.52380952,62fd14d7b1e0729dc8aadb79,682cd3dfea4e15896da7c0a6,682dccded68f4d345aa86ec9,,,,,,,,,,,,314.9724,1,314.9729,,,,317.3222,317.8209,316.8055,317.3221,315.9892,183,316.8053,317.821,318.3208,318.3209,319.6379,1013.3,319.6382,4,320.6371,1,14,44,10,1,0.8,0.3,Time
,,S20,815266,001,M,33,2025-05-21_13h55.09.172,Serial_Dependence_U,2023.2.3,Win32,59.52380952,62fd14d7b1e0729dc8aadb79,682cd3dfea4e15896da7c0a6,682dccded68f4d345aa86ec9,,,,,,,,,,,,320.6381,1,320.6387,,,,322.9882,323.4865,322.4713,322.988,321.6549,290,322.471,323.4866,323.9865,323.9865,325.1376,931,325.138,4,326.1362,1,15,45,25,1,0.8,0.7,Time
,,S20,815266,001,M,33,2025-05-21_13h55.09.172,Serial_Dependence_U,2023.2.3,Win32,59.52380952,62fd14d7b1e0729dc8aadb79,682cd3dfea4e15896da7c0a6,682dccded68f4d345aa86ec9,,,,,,,,,,,,326.1374,1,326.1379,,,,328.4873,328.9856,327.9704,328.4871,327.1544,303,327.9702,328.9857,329.4857,329.4857,330.4526,802.5,330.4529,3,331.4528,1,16,46,20,1,0.8,0.3,Time
,,S20,815266,001,M,33,2025-05-21_13h55.09.172,Serial_Dependence_U,2023.2.3,Win32,59.52380952,62fd14d7b1e0729dc8aadb79,682cd3dfea4e15896da7c0a6,682dccded68f4d345aa86ec9,,,,,,,,,,,,331.4541,1,331.4548,,,,334.5943,335.0852,334.0749,334.5941,332.459,105,334.0746,335.0853,335.5851,335.5853,337.0765,1235.1,337.0769,2,338.0679,1,17,47,4,1,1.6,0.3,Time
,,S20,815266,001,M,33,2025-05-21_13h55.09.172,Serial_Dependence_U,2023.2.3,Win32,59.52380952,62fd14d7b1e0729dc8aadb79,682cd3dfea4e15896da7c0a6,682dccded68f4d345aa86ec9,,,,,,,,,,,,338.0692,1,338.0702,,,,340.8187,341.3173,340.3018,340.8185,339.0858,5,340.3015,341.3174,341.8172,341.8173,343.2008,1236.8,343.2011,3,344.1998,1,18,48,17,1,1.2,0.7,Time
,,S20,815266,001,M,33,2025-05-21_13h55.09.172,Serial_Dependence_U,2023.2.3,Win32,59.52380952,62fd14d7b1e0729dc8aadb79,682cd3dfea4e15896da7c0a6,682dccded68f4d345aa86ec9,,,,,,,,,,,,344.2012,1,344.2018,,,,346.5509,347.0493,346.0341,346.5506,345.2176,359,346.0339,347.0493,347.5492,347.5493,348.6162,993.7,348.6165,4,349.6162,1,19,49,5,1,0.8,0.7,Time
,,S20,815266,001,M,33,2025-05-21_13h55.09.172,Serial_Dependence_U,2023.2.3,Win32,59.52380952,62fd14d7b1e0729dc8aadb79,682cd3dfea4e15896da7c0a6,682dccded68f4d345aa86ec9,,,,,,,,,,,,349.6175,1,349.6189,,,,351.9669,352.4656,351.4502,351.9668,350.6338,133,351.4501,352.4656,352.9655,352.9657,354.1658,1121,354.1661,5,355.1696,1,20,50,15,1,0.8,0.7,Time
,,S20,815266,001,M,33,2025-05-21_13h55.09.172,Serial_Dependence_U,2023.2.3,Win32,59.52380952,62fd14d7b1e0729dc8aadb79,682cd3dfea4e15896da7c0a6,682dccded68f4d345aa86ec9,,,,,,,,,,,,355.1709,1,355.1715,,,,358.0878,358.5812,357.583,358.0875,356.1713,237,357.5828,358.5813,359.0814,359.0816,360.5871,1383.1,360.5874,3,361.581,1,21,51,3,1,1.4,0.3,Time
,,S20,815266,001,M,33,2025-05-21_13h55.09.172,Serial_Dependence_U,2023.2.3,Win32,59.52380952,62fd14d7b1e0729dc8aadb79,682cd3dfea4e15896da7c0a6,682dccded68f4d345aa86ec9,,,,,,,,,,,,361.5821,1,361.5827,,,,364.1031,364.5968,363.5984,364.1029,362.5834,40,363.5982,364.597,365.0971,365.0973,366.3202,1067.2,366.3206,4,367.3134,1,22,52,26,1,1,0.7,Time
,,S20,815266,001,M,33,2025-05-21_13h55.09.172,Serial_Dependence_U,2023.2.3,Win32,59.52380952,62fd14d7b1e0729dc8aadb79,682cd3dfea4e15896da7c0a6,682dccded68f4d345aa86ec9,,,,,,,,,,,,367.3146,1,367.3154,,,,369.8525,370.346,369.3358,369.8523,368.3199,81,369.3356,370.3461,370.848,370.8481,372.0534,1138.4,372.0538,4,373.0456,1,23,53,21,1,1,0.3,Time
,,S20,815266,001,M,33,2025-05-21_13h55.09.172,Serial_Dependence_U,2023.2.3,Win32,59.52380952,62fd14d7b1e0729dc8aadb79,682cd3dfea4e15896da7c0a6,682dccded68f4d345aa86ec9,,,,,,,,,,,,373.0471,1,373.0476,,,,375.9849,376.4784,375.4683,375.9848,374.0522,45,375.4681,376.4786,376.9785,376.9787,378.2023,1099.8,378.2026,2,379.1942,1,24,54,23,1,1.4,0.3,Time
,,S20,815266,001,M,33,2025-05-21_13h55.09.172,Serial_Dependence_U,2023.2.3,Win32,59.52380952,62fd14d7b1e0729dc8aadb79,682cd3dfea4e15896da7c0a6,682dccded68f4d345aa86ec9,,,,,,,,,,,,379.1958,1,379.1964,,,,382.3448,382.8434,381.8282,382.3447,380.2108,164,381.828,382.8435,383.3433,383.3435,384.9771,1535.6,384.9774,3,385.9763,1,25,55,14,1,1.6,0.3,Time
,,S20,815266,001,M,33,2025-05-21_13h55.09.172,Serial_Dependence_U,2023.2.3,Win32,59.52380952,62fd14d7b1e0729dc8aadb79,682cd3dfea4e15896da7c0a6,682dccded68f4d345aa86ec9,,,,,,,,,,,,385.9775,1,385.9781,,,,389.1279,389.6259,388.6108,389.1277,386.9941,3,388.6107,389.6259,390.1257,390.1259,391.7425,1479,391.7429,2,392.7425,1,26,56,24,1,1.6,0.3,Time
,,S20,815266,001,M,33,2025-05-21_13h55.09.172,Serial_Dependence_U,2023.2.3,Win32,59.52380952,62fd14d7b1e0729dc8aadb79,682cd3dfea4e15896da7c0a6,682dccded68f4d345aa86ec9,,,,,,,,,,,,392.7439,1,392.7447,,,,395.4813,395.9754,394.9624,395.4811,393.7462,93,394.9622,395.9755,396.4752,396.4754,397.8151,1251,397.8155,3,398.8075,1,27,57,7,1,1.2,0.7,Time
,,S20,815266,001,M,33,2025-05-21_13h55.09.172,Serial_Dependence_U,2023.2.3,Win32,59.52380952,62fd14d7b1e0729dc8aadb79,682cd3dfea4e15896da7c0a6,682dccded68f4d345aa86ec9,,,,,,,,,,,,398.8086,1,398.8092,,,,401.5589,402.057,401.0417,401.5587,399.8251,359,401.0415,402.0571,402.557,402.557,403.7745,1150.4,403.7749,3,404.7733,1,28,58,2,1,1.2,0.3,Time
,,S20,815266,001,M,33,2025-05-21_13h55.09.172,Serial_Dependence_U,2023.2.3,Win32,59.52380952,62fd14d7b1e0729dc8aadb79,682cd3dfea4e15896da7c0a6,682dccded68f4d345aa86ec9,,,,,,,,,,,,404.7744,1,404.775,,,,407.5244,408.0228,407.0073,407.5243,405.7925,237,407.0072,408.0229,408.5226,408.5226,409.8736,1309.1,409.874,4,410.8726,1,29,59,12,1,1.2,0.3,Time
,,S20,815266,001,M,33,2025-05-21_13h55.09.172,Serial_Dependence_U,2023.2.3,Win32,59.52380952,62fd14d7b1e0729dc8aadb79,682cd3dfea4e15896da7c0a6,682dccded68f4d345aa86ec9,,,,,,,,,,,,410.8742,2,412.39,s,1.488,,415.3394,415.8382,414.8228,415.3393,413.4101,260,414.8226,415.8383,416.3381,416.3382,417.689,1215.9,417.6894,2,418.6883,2,0,60,23,1,1.4,0.3,Time
,,S20,815266,001,M,33,2025-05-21_13h55.09.172,Serial_Dependence_U,2023.2.3,Win32,59.52380952,62fd14d7b1e0729dc8aadb79,682cd3dfea4e15896da7c0a6,682dccded68f4d345aa86ec9,,,,,,,,,,,,418.6896,2,418.6927,,,,421.4272,421.9209,420.9083,421.427,419.692,155,420.9082,421.9212,422.4211,422.4212,423.7779,1283.5,423.7783,4,424.7707,2,1,61,17,1,1.2,0.7,Time
,,S20,815266,001,M,33,2025-05-21_13h55.09.172,Serial_Dependence_U,2023.2.3,Win32,59.52380952,62fd14d7b1e0729dc8aadb79,682cd3dfea4e15896da7c0a6,682dccded68f4d345aa86ec9,,,,,,,,,,,,424.7719,2,424.7728,,,,427.3097,427.8031,426.7931,427.3096,425.7765,212,426.7928,427.8033,428.3033,428.3036,429.6596,1262.3,429.66,4,430.6528,2,2,62,11,1,1,0.3,Time
,,S20,815266,001,M,33,2025-05-21_13h55.09.172,Serial_Dependence_U,2023.2.3,Win32,59.52380952,62fd14d7b1e0729dc8aadb79,682cd3dfea4e15896da7c0a6,682dccded68f4d345aa86ec9,,,,,,,,,,,,430.6542,2,430.6549,,,,432.9919,433.4853,432.4756,432.9917,431.657,275,432.4754,433.4855,433.9856,433.9859,435.2252,1120.6,435.2254,5,436.219,2,3,63,20,1,0.8,0.3,Time
,,S20,815266,001,M,33,2025-05-21_13h55.09.172,Serial_Dependence_U,2023.2.3,Win32,59.52380952,62fd14d7b1e0729dc8aadb79,682cd3dfea4e15896da7c0a6,682dccded68f4d345aa86ec9,,,,,,,,,,,,436.2205,2,436.2211,,,,438.5579,439.0513,438.0405,438.5577,437.2222,133,438.0404,439.0515,439.5512,439.5514,440.5246,842.1,440.5249,4,441.5176,2,4,64,25,1,0.8,0.7,Time
,,S20,815266,001,M,33,2025-05-21_13h55.09.172,Serial_Dependence_U,2023.2.3,Win32,59.52380952,62fd14d7b1e0729dc8aadb79,682cd3dfea4e15896da7c0a6,682dccded68f4d345aa86ec9,,,,,,,,,,,,441.5192,2,441.5197,,,,444.2569,444.7504,443.7399,444.2568,442.5239,60,443.7396,444.7506,445.2504,445.2508,446.5573,1166.9,446.5576,3,447.5502,2,5,65,2,1,1.2,0.3,Time
,,S20,815266,001,M,33,2025-05-21_13h55.09.172,Serial_Dependence_U,2023.2.3,Win32,59.52380952,62fd14d7b1e0729dc8aadb79,682cd3dfea4e15896da7c0a6,682dccded68f4d345aa86ec9,,,,,,,,,,,,447.5514,2,447.5522,,,,450.687,451.1829,450.1725,450.6868,448.5554,299,450.1723,451.1831,451.6828,451.683,453.1396,1282.7,453.14,2,454.1326,2,6,66,19,1,1.6,0.7,Time
,,S20,815266,001,M,33,2025-05-21_13h55.09.172,Serial_Dependence_U,2023.2.3,Win32,59.52380952,62fd14d7b1e0729dc8aadb79,682cd3dfea4e15896da7c0a6,682dccded68f4d345aa86ec9,,,,,,,,,,,,454.1342,2,454.1347,,,,456.6715,457.1653,456.1547,456.6714,455.1361,28,456.1545,457.1654,457.6652,457.6654,458.8886,1118.9,458.8889,4,459.8814,2,7,67,1,1,1,0.3,Time
,,S20,815266,001,M,33,2025-05-21_13h55.09.172,Serial_Dependence_U,2023.2.3,Win32,59.52380952,62fd14d7b1e0729dc8aadb79,682cd3dfea4e15896da7c0a6,682dccded68f4d345aa86ec9,,,,,,,,,,,,459.8826,2,459.8832,,,,463.0204,463.5143,462.499,463.0203,460.8875,176,462.4986,463.5144,464.014,464.0143,465.6709,1483.1,465.6712,2,466.6636,2,8,68,14,1,1.6,0.3,Time
,,S20,815266,001,M,33,2025-05-21_13h55.09.172,Serial_Dependence_U,2023.2.3,Win32,59.52380952,62fd14d7b1e0729dc8aadb79,682cd3dfea4e15896da7c0a6,682dccded68f4d345aa86ec9,,,,,,,,,,,,466.6653,2,466.666,,,,469.2004,469.6963,468.6863,469.2003,467.666,206,468.6862,469.6964,470.1964,470.1967,471.7198,1386.3,471.7201,5,472.712,2,9,69,6,1,1,0.7,Time
,,S20,815266,001,M,33,2025-05-21_13h55.09.172,Serial_Dependence_U,2023.2.3,Win32,59.52380952,62fd14d7b1e0729dc8aadb79,682cd3dfea4e15896da7c0a6,682dccded68f4d345aa86ec9,,,,,,,,,,,,472.7131,2,472.7137,,,,475.463,475.9615,474.9463,475.4628,473.7298,309,474.9461,475.9615,476.4614,476.4614,477.6618,1097.1,477.662,2,478.6615,2,10,70,12,1,1.2,0.3,Time
,,S20,815266,001,M,33,2025-05-21_13h55.09.172,Serial_Dependence_U,2023.2.3,Win32,59.52380952,62fd14d7b1e0729dc8aadb79,682cd3dfea4e15896da7c0a6,682dccded68f4d345aa86ec9,,,,,,,,,,,,478.6631,2,478.6637,,,,481.584,482.0777,481.0824,481.5839,479.6678,252,481.0822,482.0778,482.5775,482.5778,483.8007,1100,483.801,2,484.794,2,11,71,13,1,1.4,0.3,Time
,,S20,815266,001,M,33,2025-05-21_13h55.09.172,Serial_Dependence_U,2023.2.3,Win32,59.52380952,62fd14d7b1e0729dc8aadb79,682cd3dfea4e15896da7c0a6,682dccded68f4d345aa86ec9,,,,,,,,,,,,484.7953,2,484.796,,,,487.7162,488.21,487.2116,487.716,485.8001,280,487.2115,488.2101,488.7099,488.7101,490.0331,1233.6,490.0334,2,491.0262,2,12,72,18,1,1.4,0.7,Time
,,S20,815266,001,M,33,2025-05-21_13h55.09.172,Serial_Dependence_U,2023.2.3,Win32,59.52380952,62fd14d7b1e0729dc8aadb79,682cd3dfea4e15896da7c0a6,682dccded68f4d345aa86ec9,,,,,,,,,,,,491.0279,2,491.0287,,,,493.7485,494.2422,493.232,493.7483,492.03,39,493.2318,494.2423,494.7426,494.7428,496.1328,1236.2,496.1332,3,497.1251,2,13,73,7,1,1.2,0.7,Time
,,S20,815266,001,M,33,2025-05-21_13h55.09.172,Serial_Dependence_U,2023.2.3,Win32,59.52380952,62fd14d7b1e0729dc8aadb79,682cd3dfea4e15896da7c0a6,682dccded68f4d345aa86ec9,,,,,,,,,,,,497.1266,2,497.1271,,,,499.4646,499.958,498.9478,499.4645,498.1313,72,498.9475,499.9582,500.4583,500.4585,501.2146,202,501.2149,1,502.2072,2,14,74,0,1,0.8,0.3,Time
,,S20,815266,001,M,33,2025-05-21_13h55.09.172,Serial_Dependence_U,2023.2.3,Win32,59.52380952,62fd14d7b1e0729dc8aadb79,682cd3dfea4e15896da7c0a6,682dccded68f4d345aa86ec9,,,,,,,,,,,,502.2083,2,502.2087,,,,505.3578,505.8566,504.8414,505.3576,503.225,196,504.8413,505.8566,506.3565,506.3566,507.8741,1436,507.8744,2,508.8731,2,15,75,4,1,1.6,0.3,Time
,,S20,815266,001,M,33,2025-05-21_13h55.09.172,Serial_Dependence_U,2023.2.3,Win32,59.52380952,62fd14d7b1e0729dc8aadb79,682cd3dfea4e15896da7c0a6,682dccded68f4d345aa86ec9,,,,,,,,,,,,508.8745,2,508.8751,,,,511.6099,512.1062,511.0956,511.6096,509.8795,77,511.0954,512.1064,512.6061,512.6063,514.0452,1134.6,514.0453,2,515.0393,2,16,76,27,1,1.2,0.7,Time
,,S20,815266,001,M,33,2025-05-21_13h55.09.172,Serial_Dependence_U,2023.2.3,Win32,59.52380952,62fd14d7b1e0729dc8aadb79,682cd3dfea4e15896da7c0a6,682dccded68f4d345aa86ec9,,,,,,,,,,,,515.0403,2,515.0411,,,,518.1593,518.6568,517.6566,518.1591,516.0455,74,517.6563,518.6569,519.1549,519.1551,520.6953,1233.3,520.6956,2,521.688,2,17,77,29,1,1.6,0.7,Time
,,S20,815266,001,M,33,2025-05-21_13h55.09.172,Serial_Dependence_U,2023.2.3,Win32,59.52380952,62fd14d7b1e0729dc8aadb79,682cd3dfea4e15896da7c0a6,682dccded68f4d345aa86ec9,,,,,,,,,,,,521.6896,2,521.6902,,,,524.2268,524.7207,523.7105,524.2267,522.694,74,523.7104,524.7208,525.2208,525.221,526.0612,767.4,526.0617,2,527.0538,2,18,78,26,1,1,0.7,Time
,,S20,815266,001,M,33,2025-05-21_13h55.09.172,Serial_Dependence_U,2023.2.3,Win32,59.52380952,62fd14d7b1e0729dc8aadb79,682cd3dfea4e15896da7c0a6,682dccded68f4d345aa86ec9,,,,,,,,,,,,527.055,2,527.0558,,,,529.9926,530.4862,529.4761,529.9924,528.0596,159,529.4759,530.4864,530.9867,530.9868,532.277,950.4,532.2774,1,533.2686,2,19,79,3,1,1.4,0.3,Time
,,S20,815266,001,M,33,2025-05-21_13h55.09.172,Serial_Dependence_U,2023.2.3,Win32,59.52380952,62fd14d7b1e0729dc8aadb79,682cd3dfea4e15896da7c0a6,682dccded68f4d345aa86ec9,,,,,,,,,,,,533.2697,2,533.2703,,,,536.4196,536.9181,535.9022,536.4195,534.2866,10,535.9021,536.9182,537.418,537.4182,538.8024,1311.1,538.8028,2,539.8009,2,20,80,9,1,1.6,0.7,Time
,,S20,815266,001,M,33,2025-05-21_13h55.09.172,Serial_Dependence_U,2023.2.3,Win32,59.52380952,62fd14d7b1e0729dc8aadb79,682cd3dfea4e15896da7c0a6,682dccded68f4d345aa86ec9,,,,,,,,,,,,539.8022,2,539.8028,,,,542.3518,542.8507,541.8353,542.3517,540.8189,103,541.8351,542.8508,543.3506,543.3507,544.1679,687.7,544.1682,1,545.1667,2,21,81,21,1,1,0.3,Time
,,S20,815266,001,M,33,2025-05-21_13h55.09.172,Serial_Dependence_U,2023.2.3,Win32,59.52380952,62fd14d7b1e0729dc8aadb79,682cd3dfea4e15896da7c0a6,682dccded68f4d345aa86ec9,,,,,,,,,,,,545.168,2,545.1685,,,,548.3176,548.8161,547.8009,548.3175,546.1848,193,547.8007,548.8162,549.316,549.3161,550.9502,1183.9,550.9506,2,551.9489,2,22,82,24,1,1.6,0.3,Time
,,S20,815266,001,M,33,2025-05-21_13h55.09.172,Serial_Dependence_U,2023.2.3,Win32,59.52380952,62fd14d7b1e0729dc8aadb79,682cd3dfea4e15896da7c0a6,682dccded68f4d345aa86ec9,,,,,,,,,,,,551.95,2,551.9505,,,,554.8998,555.3984,554.3833,554.8997,552.9657,145,554.3831,555.3984,555.8984,555.8985,557.216,1219.6,557.2164,2,558.2145,2,23,83,8,1,1.4,0.7,Time
,,S20,815266,001,M,33,2025-05-21_13h55.09.172,Serial_Dependence_U,2023.2.3,Win32,59.52380952,62fd14d7b1e0729dc8aadb79,682cd3dfea4e15896da7c0a6,682dccded68f4d345aa86ec9,,,,,,,,,,,,558.2158,2,558.2163,,,,561.1655,561.664,560.6483,561.1653,559.2324,235,560.6481,561.6641,562.1641,562.1642,563.6478,1373.4,563.6481,3,564.6496,2,24,84,28,1,1.4,0.7,Time
,,S20,815266,001,M,33,2025-05-21_13h55.09.172,Serial_Dependence_U,2023.2.3,Win32,59.52380952,62fd14d7b1e0729dc8aadb79,682cd3dfea4e15896da7c0a6,682dccded68f4d345aa86ec9,,,,,,,,,,,,564.6509,2,564.6515,,,,567.3704,567.8634,566.8531,567.3703,565.6493,331,566.853,567.8637,568.3639,568.3639,570.0694,1431.9,570.0696,4,571.0633,2,25,85,22,1,1.2,0.3,Time
,,S20,815266,001,M,33,2025-05-21_13h55.09.172,Serial_Dependence_U,2023.2.3,Win32,59.52380952,62fd14d7b1e0729dc8aadb79,682cd3dfea4e15896da7c0a6,682dccded68f4d345aa86ec9,,,,,,,,,,,,571.0646,2,571.0653,,,,573.6022,574.0957,573.0855,573.602,572.0689,164,573.0852,574.0958,574.5961,574.5963,575.9184,1233.5,575.9187,4,576.9119,2,26,86,16,1,1,0.7,Time
,,S20,815266,001,M,33,2025-05-21_13h55.09.172,Serial_Dependence_U,2023.2.3,Win32,59.52380952,62fd14d7b1e0729dc8aadb79,682cd3dfea4e15896da7c0a6,682dccded68f4d345aa86ec9,,,,,,,,,,,,576.9135,2,576.9142,,,,579.2511,579.7448,578.7345,579.2508,577.9182,73,578.7343,579.7449,580.2448,580.2451,581.2028,852,581.2032,4,582.1943,2,27,87,10,1,0.8,0.3,Time
,,S20,815266,001,M,33,2025-05-21_13h55.09.172,Serial_Dependence_U,2023.2.3,Win32,59.52380952,62fd14d7b1e0729dc8aadb79,682cd3dfea4e15896da7c0a6,682dccded68f4d345aa86ec9,,,,,,,,,,,,582.1957,2,582.1965,,,,584.5339,585.0273,584.017,584.5337,583.2011,81,584.0168,585.0276,585.5273,585.5276,586.7836,956.3,586.7839,4,587.7768,2,28,88,5,1,0.8,0.7,Time
,,S20,815266,001,M,33,2025-05-21_13h55.09.172,Serial_Dependence_U,2023.2.3,Win32,59.52380952,62fd14d7b1e0729dc8aadb79,682cd3dfea4e15896da7c0a6,682dccded68f4d345aa86ec9,,,,,,,,,,,,587.7785,2,587.779,,,,590.0996,590.5932,589.5948,590.0994,588.783,13,589.5946,590.5934,591.0931,591.0932,592.2673,1018.2,592.2677,4,593.2615,2,29,89,15,1,0.8,0.7,Time
,,S20,815266,001,M,33,2025-05-21_13h55.09.172,Serial_Dependence_U,2023.2.3,Win32,59.52380952,62fd14d7b1e0729dc8aadb79,682cd3dfea4e15896da7c0a6,682dccded68f4d345aa86ec9,,,,,,,,,,,,593.2627,3,716.0741,s,122.7843,,718.9955,719.4886,718.4926,718.9953,717.0791,195,718.4924,719.4888,719.9888,719.989,723.2616,1366.2,723.262,3,724.254,3,0,90,18,1,1.4,0.7,Time
,,S20,815266,001,M,33,2025-05-21_13h55.09.172,Serial_Dependence_U,2023.2.3,Win32,59.52380952,62fd14d7b1e0729dc8aadb79,682cd3dfea4e15896da7c0a6,682dccded68f4d345aa86ec9,,,,,,,,,,,,724.2551,3,724.259,,,,726.7936,727.287,726.277,726.7934,725.2719,126,726.2768,727.2872,727.7875,727.7877,729.2105,1116.1,729.2108,4,730.203,3,1,91,21,1,1,0.3,Time
,,S20,815266,001,M,33,2025-05-21_13h55.09.172,Serial_Dependence_U,2023.2.3,Win32,59.52380952,62fd14d7b1e0729dc8aadb79,682cd3dfea4e15896da7c0a6,682dccded68f4d345aa86ec9,,,,,,,,,,,,730.2041,3,730.2047,,,,732.9547,733.4526,732.437,732.9546,731.2208,308,732.4368,733.4526,733.9525,733.9526,735.4705,1189.1,735.4708,3,736.4737,3,2,92,7,1,1.2,0.7,Time
,,S20,815266,001,M,33,2025-05-21_13h55.09.172,Serial_Dependence_U,2023.2.3,Win32,59.52380952,62fd14d7b1e0729dc8aadb79,682cd3dfea4e15896da7c0a6,682dccded68f4d345aa86ec9,,,,,,,,,,,,736.475,3,736.4755,,,,739.4078,739.9021,738.8893,739.4076,737.4751,131,738.889,739.9023,740.4022,740.4023,741.7598,1184.4,741.7602,2,742.7516,3,3,93,23,1,1.4,0.3,Time
,,S20,815266,001,M,33,2025-05-21_13h55.09.172,Serial_Dependence_U,2023.2.3,Win32,59.52380952,62fd14d7b1e0729dc8aadb79,682cd3dfea4e15896da7c0a6,682dccded68f4d345aa86ec9,,,,,,,,,,,,742.753,3,742.7538,,,,745.4861,745.9842,744.9696,745.4858,743.7577,117,744.9695,745.9843,746.4845,746.4846,747.8417,1158.4,747.8421,3,748.8333,3,4,94,12,1,1.2,0.3,Time
,,S20,815266,001,M,33,2025-05-21_13h55.09.172,Serial_Dependence_U,2023.2.3,Win32,59.52380952,62fd14d7b1e0729dc8aadb79,682cd3dfea4e15896da7c0a6,682dccded68f4d345aa86ec9,,,,,,,,,,,,748.8344,3,748.835,,,,751.5675,752.066,751.0508,751.5673,749.8373,51,751.0507,752.0661,752.566,752.5661,753.9337,1180.8,753.9341,3,754.9323,3,5,95,17,1,1.2,0.7,Time
,,S20,815266,001,M,33,2025-05-21_13h55.09.172,Serial_Dependence_U,2023.2.3,Win32,59.52380952,62fd14d7b1e0729dc8aadb79,682cd3dfea4e15896da7c0a6,682dccded68f4d345aa86ec9,,,,,,,,,,,,754.9334,3,754.934,,,,758.0831,758.5817,757.5665,758.0829,755.95,352,757.5663,758.5818,759.0816,759.0817,760.5492,1383.6,760.5496,2,761.5483,3,6,96,24,1,1.6,0.3,Time
,,S20,815266,001,M,33,2025-05-21_13h55.09.172,Serial_Dependence_U,2023.2.3,Win32,59.52380952,62fd14d7b1e0729dc8aadb79,682cd3dfea4e15896da7c0a6,682dccded68f4d345aa86ec9,,,,,,,,,,,,761.5496,3,761.5503,,,,764.283,764.7813,763.7688,764.2828,762.5547,322,763.7686,764.7814,765.281,765.2813,766.5209,1132.6,766.5211,2,767.5142,3,7,97,22,1,1.2,0.3,Time
,,S20,815266,001,M,33,2025-05-21_13h55.09.172,Serial_Dependence_U,2023.2.3,Win32,59.52380952,62fd14d7b1e0729dc8aadb79,682cd3dfea4e15896da7c0a6,682dccded68f4d345aa86ec9,,,,,,,,,,,,767.5154,3,767.5162,,,,770.4364,770.9302,769.9341,770.4361,768.5204,126,769.9338,770.9303,771.4344,771.4345,772.7202,1216.6,772.7205,2,773.7132,3,8,98,8,1,1.4,0.7,Time
,,S20,815266,001,M,33,2025-05-21_13h55.09.172,Serial_Dependence_U,2023.2.3,Win32,59.52380952,62fd14d7b1e0729dc8aadb79,682cd3dfea4e15896da7c0a6,682dccded68f4d345aa86ec9,,,,,,,,,,,,773.7145,3,773.7152,,,,776.652,777.1458,776.134,776.6519,774.7175,94,776.1337,777.1459,777.6458,777.646,778.987,1218.6,778.9874,2,779.9785,3,9,99,3,1,1.4,0.3,Time
,,S20,815266,001,M,33,2025-05-21_13h55.09.172,Serial_Dependence_U,2023.2.3,Win32,59.52380952,62fd14d7b1e0729dc8aadb79,682cd3dfea4e15896da7c0a6,682dccded68f4d345aa86ec9,,,,,,,,,,,,779.9799,3,779.9806,,,,782.9177,783.4113,782.4009,782.9176,780.9852,24,782.4007,783.4115,783.9115,783.9118,785.4357,1334.8,785.436,3,786.428,3,10,100,13,1,1.4,0.3,Time
,,S20,815266,001,M,33,2025-05-21_13h55.09.172,Serial_Dependence_U,2023.2.3,Win32,59.52380952,62fd14d7b1e0729dc8aadb79,682cd3dfea4e15896da7c0a6,682dccded68f4d345aa86ec9,,,,,,,,,,,,786.4292,3,786.4298,,,,788.7503,789.2435,788.2477,788.7502,787.4337,111,788.2474,789.2436,789.744,789.7442,790.9007,1050.8,790.9009,5,791.8928,3,11,101,15,1,0.8,0.7,Time
,,S20,815266,001,M,33,2025-05-21_13h55.09.172,Serial_Dependence_U,2023.2.3,Win32,59.52380952,62fd14d7b1e0729dc8aadb79,682cd3dfea4e15896da7c0a6,682dccded68f4d345aa86ec9,,,,,,,,,,,,791.8939,3,791.8945,,,,794.4437,794.9422,793.927,794.4436,792.9107,291,793.9268,794.9423,795.4423,795.4424,796.7261,1187.3,796.7263,4,797.7254,3,12,102,1,1,1,0.3,Time
,,S20,815266,001,M,33,2025-05-21_13h55.09.172,Serial_Dependence_U,2023.2.3,Win32,59.52380952,62fd14d7b1e0729dc8aadb79,682cd3dfea4e15896da7c0a6,682dccded68f4d345aa86ec9,,,,,,,,,,,,797.7265,3,797.727,,,,800.6771,801.1747,800.1595,800.6771,798.7431,340,800.1593,801.1747,801.6746,801.6747,802.9417,1211.4,802.9419,2,803.9417,3,13,103,28,1,1.4,0.7,Time
,,S20,815266,001,M,33,2025-05-21_13h55.09.172,Serial_Dependence_U,2023.2.3,Win32,59.52380952,62fd14d7b1e0729dc8aadb79,682cd3dfea4e15896da7c0a6,682dccded68f4d345aa86ec9,,,,,,,,,,,,803.9431,3,803.9437,,,,806.478,806.9741,805.964,806.4778,804.9452,275,805.9638,806.9743,807.4742,807.4744,808.7291,1133.3,808.7293,4,809.7234,3,14,104,26,1,1,0.7,Time
,,S20,815266,001,M,33,2025-05-21_13h55.09.172,Serial_Dependence_U,2023.2.3,Win32,59.52380952,62fd14d7b1e0729dc8aadb79,682cd3dfea4e15896da7c0a6,682dccded68f4d345aa86ec9,,,,,,,,,,,,809.7248,3,809.7253,,,,812.0742,812.573,811.5576,812.0741,810.7409,18,811.5574,812.573,813.0727,813.0728,814.0398,849,814.04,4,815.0393,3,15,105,10,1,0.8,0.3,Time
,,S20,815266,001,M,33,2025-05-21_13h55.09.172,Serial_Dependence_U,2023.2.3,Win32,59.52380952,62fd14d7b1e0729dc8aadb79,682cd3dfea4e15896da7c0a6,682dccded68f4d345aa86ec9,,,,,,,,,,,,815.0405,3,815.0411,,,,817.3901,817.889,816.8735,817.3899,816.0566,100,816.8734,817.889,818.3888,818.3889,819.5224,913.4,819.5227,4,820.5219,3,16,106,5,1,0.8,0.7,Time
,,S20,815266,001,M,33,2025-05-21_13h55.09.172,Serial_Dependence_U,2023.2.3,Win32,59.52380952,62fd14d7b1e0729dc8aadb79,682cd3dfea4e15896da7c0a6,682dccded68f4d345aa86ec9,,,,,,,,,,,,820.5231,3,820.524,,,,822.873,823.3714,822.3561,822.8726,821.5398,237,822.356,823.3715,823.8715,823.8717,824.9885,997.9,824.9891,4,825.9879,3,17,107,0,1,0.8,0.3,Time
,,S20,815266,001,M,33,2025-05-21_13h55.09.172,Serial_Dependence_U,2023.2.3,Win32,59.52380952,62fd14d7b1e0729dc8aadb79,682cd3dfea4e15896da7c0a6,682dccded68f4d345aa86ec9,,,,,,,,,,,,825.9895,3,825.9906,,,,829.1378,829.6369,828.6213,829.1376,827.0048,182,828.6212,829.6369,830.137,830.1372,831.3871,1160.8,831.3874,2,832.3869,3,18,108,9,1,1.6,0.7,Time
,,S20,815266,001,M,33,2025-05-21_13h55.09.172,Serial_Dependence_U,2023.2.3,Win32,59.52380952,62fd14d7b1e0729dc8aadb79,682cd3dfea4e15896da7c0a6,682dccded68f4d345aa86ec9,,,,,,,,,,,,832.3882,3,832.3891,,,,835.5258,836.0192,835.009,835.5255,833.3928,310,835.0088,836.0194,836.5196,836.5199,838.1589,1500.4,838.1592,2,839.1527,3,19,109,19,1,1.6,0.7,Time
,,S20,815266,001,M,33,2025-05-21_13h55.09.172,Serial_Dependence_U,2023.2.3,Win32,59.52380952,62fd14d7b1e0729dc8aadb79,682cd3dfea4e15896da7c0a6,682dccded68f4d345aa86ec9,,,,,,,,,,,,839.1538,3,839.1545,,,,842.2746,842.7683,841.7701,842.2743,840.1587,187,841.7695,842.7685,843.269,843.2692,844.8352,1418.9,844.8354,2,845.834,3,20,110,4,1,1.6,0.3,Time
,,S20,815266,001,M,33,2025-05-21_13h55.09.172,Serial_Dependence_U,2023.2.3,Win32,59.52380952,62fd14d7b1e0729dc8aadb79,682cd3dfea4e15896da7c0a6,682dccded68f4d345aa86ec9,,,,,,,,,,,,845.8353,3,845.8359,,,,848.3853,848.8834,847.8683,848.3852,846.8518,359,847.8681,848.8835,849.3834,849.3835,853.2669,1419.1,853.2672,5,854.2661,3,21,111,6,1,1,0.7,Time
,,S20,815266,001,M,33,2025-05-21_13h55.09.172,Serial_Dependence_U,2023.2.3,Win32,59.52380952,62fd14d7b1e0729dc8aadb79,682cd3dfea4e15896da7c0a6,682dccded68f4d345aa86ec9,,,,,,,,,,,,854.2673,3,854.2679,,,,857.0168,857.5154,856.5004,857.0166,855.2842,336,856.5003,857.5155,858.0153,858.0154,859.3495,1247.5,859.3499,3,860.3482,3,22,112,2,1,1.2,0.3,Time
,,S20,815266,001,M,33,2025-05-21_13h55.09.172,Serial_Dependence_U,2023.2.3,Win32,59.52380952,62fd14d7b1e0729dc8aadb79,682cd3dfea4e15896da7c0a6,682dccded68f4d345aa86ec9,,,,,,,,,,,,860.3494,3,860.3499,,,,862.8997,863.3978,862.3825,862.8996,861.366,47,862.3824,863.3978,863.8978,863.8978,865.0488,1028.7,865.0493,3,866.0478,3,23,113,11,1,1,0.3,Time
,,S20,815266,001,M,33,2025-05-21_13h55.09.172,Serial_Dependence_U,2023.2.3,Win32,59.52380952,62fd14d7b1e0729dc8aadb79,682cd3dfea4e15896da7c0a6,682dccded68f4d345aa86ec9,,,,,,,,,,,,866.0489,3,866.0497,,,,868.3986,868.8974,867.8815,868.3984,867.0655,228,867.8814,868.8976,869.3973,869.3973,870.3642,883.4,870.365,4,871.3635,3,24,114,25,1,0.8,0.7,Time
,,S20,815266,001,M,33,2025-05-21_13h55.09.172,Serial_Dependence_U,2023.2.3,Win32,59.52380952,62fd14d7b1e0729dc8aadb79,682cd3dfea4e15896da7c0a6,682dccded68f4d345aa86ec9,,,,,,,,,,,,871.3644,3,871.3649,,,,873.9134,874.4127,873.3969,873.9133,872.381,131,873.3968,874.4129,874.9127,874.9127,876.1131,1082.6,876.1135,4,877.1121,3,25,115,16,1,1,0.7,Time
,,S20,815266,001,M,33,2025-05-21_13h55.09.172,Serial_Dependence_U,2023.2.3,Win32,59.52380952,62fd14d7b1e0729dc8aadb79,682cd3dfea4e15896da7c0a6,682dccded68f4d345aa86ec9,,,,,,,,,,,,877.1133,3,877.1138,,,,879.8635,880.3617,879.3468,879.8633,878.1302,235,879.3467,880.3618,880.8617,880.8618,882.1188,1108.7,882.1192,2,883.1112,3,26,116,27,1,1.2,0.7,Time
,,S20,815266,001,M,33,2025-05-21_13h55.09.172,Serial_Dependence_U,2023.2.3,Win32,59.52380952,62fd14d7b1e0729dc8aadb79,682cd3dfea4e15896da7c0a6,682dccded68f4d345aa86ec9,,,,,,,,,,,,883.1124,3,883.1129,,,,886.2623,886.7607,885.7451,886.2621,884.1291,14,885.745,886.7607,887.2605,887.2606,888.5608,1226.8,888.561,2,889.5601,3,27,117,29,1,1.6,0.7,Time
,,S20,815266,001,M,33,2025-05-21_13h55.09.172,Serial_Dependence_U,2023.2.3,Win32,59.52380952,62fd14d7b1e0729dc8aadb79,682cd3dfea4e15896da7c0a6,682dccded68f4d345aa86ec9,,,,,,,,,,,,889.5613,3,889.5619,,,,891.911,892.4096,891.3947,891.9108,890.5781,35,891.3946,892.4096,892.9095,892.9096,893.9606,950,893.9609,4,894.9593,3,28,118,20,1,0.8,0.3,Time
,,S20,815266,001,M,33,2025-05-21_13h55.09.172,Serial_Dependence_U,2023.2.3,Win32,59.52380952,62fd14d7b1e0729dc8aadb79,682cd3dfea4e15896da7c0a6,682dccded68f4d345aa86ec9,,,,,,,,,,,,894.9604,3,894.9609,,,,898.11,898.6087,897.5934,898.1099,895.977,315,897.5932,898.6087,899.1085,899.1086,900.5082,1292.9,900.5084,2,901.5082,3,29,119,14,1,1.6,0.3,Time
,,S20,815266,001,M,33,2025-05-21_13h55.09.172,Serial_Dependence_U,2023.2.3,Win32,59.52380952,62fd14d7b1e0729dc8aadb79,682cd3dfea4e15896da7c0a6,682dccded68f4d345aa86ec9,,,,,,,,,,,,901.5094,4,905.2411,s,3.7013,,907.991,908.4904,907.4752,907.9908,906.2587,193,907.4749,908.4905,908.9903,908.9904,910.224,1165.5,910.2243,3,911.2231,4,0,120,22,1,1.2,0.3,Time
,,S20,815266,001,M,33,2025-05-21_13h55.09.172,Serial_Dependence_U,2023.2.3,Win32,59.52380952,62fd14d7b1e0729dc8aadb79,682cd3dfea4e15896da7c0a6,682dccded68f4d345aa86ec9,,,,,,,,,,,,911.2243,4,911.2281,,,,913.9745,914.4728,913.4575,913.9743,912.2411,233,913.4573,914.4728,914.9728,914.9728,916.2395,1167.8,916.2397,3,917.2389,4,1,121,7,1,1.2,0.7,Time
,,S20,815266,001,M,33,2025-05-21_13h55.09.172,Serial_Dependence_U,2023.2.3,Win32,59.52380952,62fd14d7b1e0729dc8aadb79,682cd3dfea4e15896da7c0a6,682dccded68f4d345aa86ec9,,,,,,,,,,,,917.24,4,917.2406,,,,919.5898,920.0884,919.0732,919.5896,918.2567,163,919.0731,920.0884,920.5884,920.5885,921.7727,1013,921.773,4,922.7721,4,2,122,10,1,0.8,0.3,Time
,,S20,815266,001,M,33,2025-05-21_13h55.09.172,Serial_Dependence_U,2023.2.3,Win32,59.52380952,62fd14d7b1e0729dc8aadb79,682cd3dfea4e15896da7c0a6,682dccded68f4d345aa86ec9,,,,,,,,,,,,922.7733,4,922.7741,,,,925.311,925.8045,924.7943,925.3107,923.7783,308,924.794,925.8047,926.3048,926.3051,927.5455,1151.2,927.5459,4,928.5381,4,3,123,21,1,1,0.3,Time
,,S20,815266,001,M,33,2025-05-21_13h55.09.172,Serial_Dependence_U,2023.2.3,Win32,59.52380952,62fd14d7b1e0729dc8aadb79,682cd3dfea4e15896da7c0a6,682dccded68f4d345aa86ec9,,,,,,,,,,,,928.5393,4,928.54,,,,931.059,931.5535,930.5575,931.0588,929.5426,112,930.5572,931.5536,932.054,932.0541,932.2917,210.8,932.292,1,933.2864,4,4,124,26,1,1,0.7,Time
,,S20,815266,001,M,33,2025-05-21_13h55.09.172,Serial_Dependence_U,2023.2.3,Win32,59.52380952,62fd14d7b1e0729dc8aadb79,682cd3dfea4e15896da7c0a6,682dccded68f4d345aa86ec9,,,,,,,,,,,,933.2878,4,933.2883,,,,935.8372,936.3358,935.3204,935.837,934.3042,10,935.3202,936.3359,936.8358,936.8358,937.9199,998.6,937.9201,3,938.9186,4,5,125,1,1,1,0.3,Time
,,S20,815266,001,M,33,2025-05-21_13h55.09.172,Serial_Dependence_U,2023.2.3,Win32,59.52380952,62fd14d7b1e0729dc8aadb79,682cd3dfea4e15896da7c0a6,682dccded68f4d345aa86ec9,,,,,,,,,,,,938.9198,4,938.9203,,,,941.2696,941.768,940.753,941.2695,939.9366,275,940.7528,941.7681,942.2682,942.2683,943.3358,998.3,943.3361,4,944.3345,4,6,126,20,1,0.8,0.3,Time
,,S20,815266,001,M,33,2025-05-21_13h55.09.172,Serial_Dependence_U,2023.2.3,Win32,59.52380952,62fd14d7b1e0729dc8aadb79,682cd3dfea4e15896da7c0a6,682dccded68f4d345aa86ec9,,,,,,,,,,,,944.3357,4,944.3361,,,,947.0856,947.5839,946.5698,947.0854,945.3523,286,946.5697,947.584,948.0838,948.0839,949.1842,1033,949.1845,2,950.1834,4,7,127,2,1,1.2,0.3,Time
,,S20,815266,001,M,33,2025-05-21_13h55.09.172,Serial_Dependence_U,2023.2.3,Win32,59.52380952,62fd14d7b1e0729dc8aadb79,682cd3dfea4e15896da7c0a6,682dccded68f4d345aa86ec9,,,,,,,,,,,,950.1846,4,950.1852,,,,953.118,953.6164,952.6011,953.1179,951.1847,75,952.601,953.6164,954.1163,954.1164,955.4499,1233.8,955.4502,2,956.4492,4,8,128,13,1,1.4,0.3,Time
,,S20,815266,001,M,33,2025-05-21_13h55.09.172,Serial_Dependence_U,2023.2.3,Win32,59.52380952,62fd14d7b1e0729dc8aadb79,682cd3dfea4e15896da7c0a6,682dccded68f4d345aa86ec9,,,,,,,,,,,,956.4505,4,956.4512,,,,958.9835,959.4818,958.4667,958.9833,957.4558,294,958.4665,959.4819,959.9818,959.9819,961.299,1253.2,961.2993,4,962.2986,4,9,129,6,1,1,0.7,Time
,,S20,815266,001,M,33,2025-05-21_13h55.09.172,Serial_Dependence_U,2023.2.3,Win32,59.52380952,62fd14d7b1e0729dc8aadb79,682cd3dfea4e15896da7c0a6,682dccded68f4d345aa86ec9,,,,,,,,,,,,962.3003,4,962.3008,,,,965.2378,965.7317,964.7213,965.2377,963.3168,126,964.7212,965.7318,966.2315,966.2317,967.6219,1267.1,967.6223,2,968.6146,4,10,130,18,1,1.4,0.7,Time
,,S20,815266,001,M,33,2025-05-21_13h55.09.172,Serial_Dependence_U,2023.2.3,Win32,59.52380952,62fd14d7b1e0729dc8aadb79,682cd3dfea4e15896da7c0a6,682dccded68f4d345aa86ec9,,,,,,,,,,,,968.6161,4,968.6166,,,,971.5525,972.0471,971.0368,971.5524,969.6205,69,971.0366,972.0473,972.5471,972.5473,974.0041,1350.4,974.0046,3,974.9961,4,11,131,8,1,1.4,0.7,Time
,,S20,815266,001,M,33,2025-05-21_13h55.09.172,Serial_Dependence_U,2023.2.3,Win32,59.52380952,62fd14d7b1e0729dc8aadb79,682cd3dfea4e15896da7c0a6,682dccded68f4d345aa86ec9,,,,,,,,,,,,974.9972,4,974.9978,,,,977.3471,977.8456,976.8303,977.3469,976.0138,74,976.8301,977.8457,978.3459,978.3459,979.3798,966.5,979.3802,4,980.3794,4,12,132,5,1,0.8,0.7,Time
,,S20,815266,001,M,33,2025-05-21_13h55.09.172,Serial_Dependence_U,2023.2.3,Win32,59.52380952,62fd14d7b1e0729dc8aadb79,682cd3dfea4e15896da7c0a6,682dccded68f4d345aa86ec9,,,,,,,,,,,,980.3809,4,980.3814,,,,983.0993,983.5952,982.5966,983.0991,981.3828,7,982.5964,983.5954,984.0951,984.0953,985.534,1165.8,985.5342,3,986.5275,4,13,133,12,1,1.2,0.3,Time
,,S20,815266,001,M,33,2025-05-21_13h55.09.172,Serial_Dependence_U,2023.2.3,Win32,59.52380952,62fd14d7b1e0729dc8aadb79,682cd3dfea4e15896da7c0a6,682dccded68f4d345aa86ec9,,,,,,,,,,,,986.5287,4,986.5293,,,,988.8785,989.377,988.3619,988.8782,987.5453,297,988.3618,989.377,989.8769,989.877,990.9442,965.8,990.9446,4,991.9434,4,14,134,0,1,0.8,0.3,Time
,,S20,815266,001,M,33,2025-05-21_13h55.09.172,Serial_Dependence_U,2023.2.3,Win32,59.52380952,62fd14d7b1e0729dc8aadb79,682cd3dfea4e15896da7c0a6,682dccded68f4d345aa86ec9,,,,,,,,,,,,991.9444,4,991.945,,,,995.094,995.5926,994.5774,995.0939,992.9617,148,994.5772,995.5927,996.0927,996.0927,997.4097,1245.8,997.41,2,998.409,4,15,135,24,1,1.6,0.3,Time
,,S20,815266,001,M,33,2025-05-21_13h55.09.172,Serial_Dependence_U,2023.2.3,Win32,59.52380952,62fd14d7b1e0729dc8aadb79,682cd3dfea4e15896da7c0a6,682dccded68f4d345aa86ec9,,,,,,,,,,,,998.4102,4,998.4106,,,,1001.5599,1002.0584,1001.043,1001.5597,999.4268,165,1001.0429,1002.0584,1002.5583,1002.5584,1004.0758,1431,1004.0762,2,1005.0747,4,16,136,9,1,1.6,0.7,Time
,,S20,815266,001,M,33,2025-05-21_13h55.09.172,Serial_Dependence_U,2023.2.3,Win32,59.52380952,62fd14d7b1e0729dc8aadb79,682cd3dfea4e15896da7c0a6,682dccded68f4d345aa86ec9,,,,,,,,,,,,1005.0758,4,1005.0763,,,,1007.4254,1007.9242,1006.9097,1007.4253,1006.0923,209,1006.9095,1007.9242,1008.4239,1008.424,1009.4245,943.4,1009.4248,4,1010.4245,4,17,137,25,1,0.8,0.7,Time
,,S20,815266,001,M,33,2025-05-21_13h55.09.172,Serial_Dependence_U,2023.2.3,Win32,59.52380952,62fd14d7b1e0729dc8aadb79,682cd3dfea4e15896da7c0a6,682dccded68f4d345aa86ec9,,,,,,,,,,,,1010.4262,4,1010.4268,,,,1012.9637,1013.4614,1012.4471,1012.9636,1011.4307,42,1012.4468,1013.4615,1013.9571,1013.9573,1015.031,983.4,1015.0313,3,1016.023,4,18,138,16,1,1,0.7,Time
,,S20,815266,001,M,33,2025-05-21_13h55.09.172,Serial_Dependence_U,2023.2.3,Win32,59.52380952,62fd14d7b1e0729dc8aadb79,682cd3dfea4e15896da7c0a6,682dccded68f4d345aa86ec9,,,,,,,,,,,,1016.0244,4,1016.0251,,,,1018.346,1018.8396,1017.8436,1018.3459,1017.0297,311,1017.8434,1018.8397,1019.3391,1019.3394,1020.2474,879.8,1020.2479,4,1021.2394,4,19,139,15,1,0.8,0.7,Time
,,S20,815266,001,M,33,2025-05-21_13h55.09.172,Serial_Dependence_U,2023.2.3,Win32,59.52380952,62fd14d7b1e0729dc8aadb79,682cd3dfea4e15896da7c0a6,682dccded68f4d345aa86ec9,,,,,,,,,,,,1021.2408,4,1021.2414,,,,1023.7761,1024.2716,1023.2617,1023.7761,1022.2454,301,1023.2615,1024.2718,1024.773,1024.773,1025.8121,1014.1,1025.8124,3,1026.805,4,20,140,11,1,1,0.3,Time
,,S20,815266,001,M,33,2025-05-21_13h55.09.172,Serial_Dependence_U,2023.2.3,Win32,59.52380952,62fd14d7b1e0729dc8aadb79,682cd3dfea4e15896da7c0a6,682dccded68f4d345aa86ec9,,,,,,,,,,,,1026.8064,4,1026.8071,,,,1029.5441,1030.0374,1029.0272,1029.544,1027.8108,174,1029.027,1030.0375,1030.5375,1030.5378,1031.7649,1181.6,1031.7653,3,1032.7542,4,21,141,17,1,1.2,0.7,Time
,,S20,815266,001,M,33,2025-05-21_13h55.09.172,Serial_Dependence_U,2023.2.3,Win32,59.52380952,62fd14d7b1e0729dc8aadb79,682cd3dfea4e15896da7c0a6,682dccded68f4d345aa86ec9,,,,,,,,,,,,1032.7556,4,1032.7562,,,,1035.9096,1036.4032,1035.3928,1035.9094,1033.7744,242,1035.3926,1036.4033,1036.9034,1036.9036,1038.4267,1435,1038.427,2,1039.4188,4,22,142,4,1,1.6,0.3,Time
,,S20,815266,001,M,33,2025-05-21_13h55.09.172,Serial_Dependence_U,2023.2.3,Win32,59.52380952,62fd14d7b1e0729dc8aadb79,682cd3dfea4e15896da7c0a6,682dccded68f4d345aa86ec9,,,,,,,,,,,,1039.42,4,1039.4206,,,,1042.5756,1043.0685,1042.0526,1042.5755,1040.4367,50,1042.0524,1043.0686,1043.569,1043.5694,1045.4591,1400.8,1045.4595,2,1046.4552,4,23,143,29,1,1.6,0.7,Time
,,S20,815266,001,M,33,2025-05-21_13h55.09.172,Serial_Dependence_U,2023.2.3,Win32,59.52380952,62fd14d7b1e0729dc8aadb79,682cd3dfea4e15896da7c0a6,682dccded68f4d345aa86ec9,,,,,,,,,,,,1046.4556,4,1046.456,,,,1049.586,1050.0841,1049.0742,1049.5858,1047.4558,310,1049.0741,1050.0842,1050.5723,1050.5724,1052.1066,1433.1,1052.1069,2,1053.1004,4,24,144,19,1,1.6,0.7,Time
,,S20,815266,001,M,33,2025-05-21_13h55.09.172,Serial_Dependence_U,2023.2.3,Win32,59.52380952,62fd14d7b1e0729dc8aadb79,682cd3dfea4e15896da7c0a6,682dccded68f4d345aa86ec9,,,,,,,,,,,,1053.1017,4,1053.1024,,,,1055.8228,1056.3164,1055.3182,1055.8226,1054.1056,28,1055.3179,1056.3165,1056.8165,1056.8167,1058.156,1216.7,1058.1563,3,1059.1489,4,25,145,27,1,1.2,0.7,Time
,,S20,815266,001,M,33,2025-05-21_13h55.09.172,Serial_Dependence_U,2023.2.3,Win32,59.52380952,62fd14d7b1e0729dc8aadb79,682cd3dfea4e15896da7c0a6,682dccded68f4d345aa86ec9,,,,,,,,,,,,1059.1501,4,1059.1506,,,,1062.0999,1062.5983,1061.583,1062.0998,1060.1667,228,1061.5827,1062.5984,1063.0984,1063.0986,1064.4661,1300.4,1064.4665,2,1065.4652,4,26,146,28,1,1.4,0.7,Time
,,S20,815266,001,M,33,2025-05-21_13h55.09.172,Serial_Dependence_U,2023.2.3,Win32,59.52380952,62fd14d7b1e0729dc8aadb79,682cd3dfea4e15896da7c0a6,682dccded68f4d345aa86ec9,,,,,,,,,,,,1065.4666,4,1065.4671,,,,1068.3999,1068.898,1067.8875,1068.3997,1066.4708,281,1067.8874,1068.8982,1069.3979,1069.3981,1071.5707,1316.1,1071.571,2,1072.564,4,27,147,23,1,1.4,0.3,Time
,,S20,815266,001,M,33,2025-05-21_13h55.09.172,Serial_Dependence_U,2023.2.3,Win32,59.52380952,62fd14d7b1e0729dc8aadb79,682cd3dfea4e15896da7c0a6,682dccded68f4d345aa86ec9,,,,,,,,,,,,1072.5652,4,1072.5658,,,,1075.6864,1076.1799,1075.1812,1075.6862,1073.5675,254,1075.1808,1076.1801,1076.6801,1076.6803,1078.0864,1300.3,1078.0867,2,1079.0792,4,28,148,14,1,1.6,0.3,Time
,,S20,815266,001,M,33,2025-05-21_13h55.09.172,Serial_Dependence_U,2023.2.3,Win32,59.52380952,62fd14d7b1e0729dc8aadb79,682cd3dfea4e15896da7c0a6,682dccded68f4d345aa86ec9,,,,,,,,,,,,1079.0809,4,1079.0814,,,,1082.0353,1082.529,1081.5186,1082.0352,1080.1003,295,1081.5182,1082.5291,1083.0289,1083.0291,1084.3855,1255.9,1084.3858,2,1085.379,4,29,149,3,1,1.4,0.3,Time
,,S20,815266,001,M,33,2025-05-21_13h55.09.172,Serial_Dependence_U,2023.2.3,Win32,59.52380952,62fd14d7b1e0729dc8aadb79,682cd3dfea4e15896da7c0a6,682dccded68f4d345aa86ec9,,,,,,,,,,,,1085.3802,5,1089.664,s,4.2633,,1092.7958,1093.2939,1092.2838,1092.7957,1090.6662,4,1092.2835,1093.2942,1093.7935,1093.7938,1095.6325,1701.4,1095.6328,4,1096.6264,5,0,150,29,1,1.6,0.7,Time
,,S20,815266,001,M,33,2025-05-21_13h55.09.172,Serial_Dependence_U,2023.2.3,Win32,59.52380952,62fd14d7b1e0729dc8aadb79,682cd3dfea4e15896da7c0a6,682dccded68f4d345aa86ec9,,,,,,,,,,,,1096.6279,5,1096.6308,,,,1099.3633,1099.8592,1098.8446,1099.363,1097.633,3,1098.8445,1099.8594,1100.3592,1100.3595,1101.7828,1233.2,1101.783,3,1102.7751,5,1,151,22,1,1.2,0.3,Time
,,S20,815266,001,M,33,2025-05-21_13h55.09.172,Serial_Dependence_U,2023.2.3,Win32,59.52380952,62fd14d7b1e0729dc8aadb79,682cd3dfea4e15896da7c0a6,682dccded68f4d345aa86ec9,,,,,,,,,,,,1102.7762,5,1102.7767,,,,1105.9261,1106.4245,1105.4093,1105.926,1103.7929,118,1105.4092,1106.4246,1106.9244,1106.9245,1108.3914,1364.1,1108.3916,2,1109.3913,5,2,152,24,1,1.6,0.3,Time
,,S20,815266,001,M,33,2025-05-21_13h55.09.172,Serial_Dependence_U,2023.2.3,Win32,59.52380952,62fd14d7b1e0729dc8aadb79,682cd3dfea4e15896da7c0a6,682dccded68f4d345aa86ec9,,,,,,,,,,,,1109.3926,5,1109.3931,,,,1111.7115,1112.2072,1111.2092,1111.7113,1110.3972,343,1111.2089,1112.2073,1112.6952,1112.6952,1113.848,986.9,1113.8484,4,1114.8397,5,3,153,0,1,0.8,0.3,Time
,,S20,815266,001,M,33,2025-05-21_13h55.09.172,Serial_Dependence_U,2023.2.3,Win32,59.52380952,62fd14d7b1e0729dc8aadb79,682cd3dfea4e15896da7c0a6,682dccded68f4d345aa86ec9,,,,,,,,,,,,1114.8408,5,1114.8414,,,,1117.9905,1118.4889,1117.4739,1117.9904,1115.8576,318,1117.4738,1118.4889,1118.9891,1118.9893,1120.7398,1647.5,1120.7402,3,1121.7391,5,4,154,14,1,1.6,0.3,Time
,,S20,815266,001,M,33,2025-05-21_13h55.09.172,Serial_Dependence_U,2023.2.3,Win32,59.52380952,62fd14d7b1e0729dc8aadb79,682cd3dfea4e15896da7c0a6,682dccded68f4d345aa86ec9,,,,,,,,,,,,1121.7406,5,1121.741,,,,1124.6781,1125.1719,1124.1735,1124.6779,1122.7621,202,1124.1734,1125.1722,1125.6717,1125.6718,1126.9128,1083.5,1126.9131,2,1127.9049,5,5,155,8,1,1.4,0.7,Time
,,S20,815266,001,M,33,2025-05-21_13h55.09.172,Serial_Dependence_U,2023.2.3,Win32,59.52380952,62fd14d7b1e0729dc8aadb79,682cd3dfea4e15896da7c0a6,682dccded68f4d345aa86ec9,,,,,,,,,,,,1127.9062,5,1127.9069,,,,1130.444,1130.9376,1129.9271,1130.4438,1128.911,121,1129.9269,1130.9379,1131.4375,1131.4377,1132.5283,984.1,1132.5287,3,1133.5206,5,6,156,26,1,1,0.7,Time
,,S20,815266,001,M,33,2025-05-21_13h55.09.172,Serial_Dependence_U,2023.2.3,Win32,59.52380952,62fd14d7b1e0729dc8aadb79,682cd3dfea4e15896da7c0a6,682dccded68f4d345aa86ec9,,,,,,,,,,,,1133.5219,5,1133.5226,,,,1136.2597,1136.7534,1135.7432,1136.2595,1134.5265,85,1135.743,1136.7536,1137.2533,1137.2535,1138.4435,1050.7,1138.4438,2,1139.4357,5,7,157,27,1,1.2,0.7,Time
,,S20,815266,001,M,33,2025-05-21_13h55.09.172,Serial_Dependence_U,2023.2.3,Win32,59.52380952,62fd14d7b1e0729dc8aadb79,682cd3dfea4e15896da7c0a6,682dccded68f4d345aa86ec9,,,,,,,,,,,,1139.4369,5,1139.4374,,,,1142.5867,1143.0853,1142.0696,1142.5866,1140.4535,47,1142.0694,1143.0853,1143.5851,1143.5853,1144.9192,1272,1144.9196,2,1145.9181,5,8,158,19,1,1.6,0.7,Time
,,S20,815266,001,M,33,2025-05-21_13h55.09.172,Serial_Dependence_U,2023.2.3,Win32,59.52380952,62fd14d7b1e0729dc8aadb79,682cd3dfea4e15896da7c0a6,682dccded68f4d345aa86ec9,,,,,,,,,,,,1145.9194,5,1145.92,,,,1148.6689,1149.1673,1148.1522,1148.6688,1146.9358,152,1148.1521,1149.1674,1149.6673,1149.6674,1150.801,1061.6,1150.8012,2,1151.8003,5,9,159,7,1,1.2,0.7,Time
,,S20,815266,001,M,33,2025-05-21_13h55.09.172,Serial_Dependence_U,2023.2.3,Win32,59.52380952,62fd14d7b1e0729dc8aadb79,682cd3dfea4e15896da7c0a6,682dccded68f4d345aa86ec9,,,,,,,,,,,,1151.8015,5,1151.802,,,,1154.74,1155.2333,1154.2235,1154.7399,1152.8071,94,1154.2233,1155.2335,1155.7337,1155.734,1156.9909,1099.9,1156.9912,2,1157.9832,5,10,160,3,1,1.4,0.3,Time
,,S20,815266,001,M,33,2025-05-21_13h55.09.172,Serial_Dependence_U,2023.2.3,Win32,59.52380952,62fd14d7b1e0729dc8aadb79,682cd3dfea4e15896da7c0a6,682dccded68f4d345aa86ec9,,,,,,,,,,,,1157.9845,5,1157.9854,,,,1160.7057,1161.1993,1160.201,1160.7055,1158.9892,282,1160.2008,1161.1996,1161.6992,1161.6993,1162.9552,1166.7,1162.9553,3,1163.9484,5,11,161,12,1,1.2,0.3,Time
,,S20,815266,001,M,33,2025-05-21_13h55.09.172,Serial_Dependence_U,2023.2.3,Win32,59.52380952,62fd14d7b1e0729dc8aadb79,682cd3dfea4e15896da7c0a6,682dccded68f4d345aa86ec9,,,,,,,,,,,,1163.9497,5,1163.9503,,,,1166.2991,1166.798,1165.7826,1166.2991,1164.9662,294,1165.7824,1166.798,1167.2979,1167.2981,1168.3153,902.4,1168.3157,4,1169.3141,5,12,162,10,1,0.8,0.3,Time
,,S20,815266,001,M,33,2025-05-21_13h55.09.172,Serial_Dependence_U,2023.2.3,Win32,59.52380952,62fd14d7b1e0729dc8aadb79,682cd3dfea4e15896da7c0a6,682dccded68f4d345aa86ec9,,,,,,,,,,,,1169.3152,5,1169.3158,,,,1172.2654,1172.7636,1171.7484,1172.2652,1170.3319,283,1171.7482,1172.7636,1173.2635,1173.2636,1174.5805,1218.1,1174.5808,2,1175.5798,5,13,163,18,1,1.4,0.7,Time
,,S20,815266,001,M,33,2025-05-21_13h55.09.172,Serial_Dependence_U,2023.2.3,Win32,59.52380952,62fd14d7b1e0729dc8aadb79,682cd3dfea4e15896da7c0a6,682dccded68f4d345aa86ec9,,,,,,,,,,,,1175.5811,5,1175.5817,,,,1177.9144,1178.4128,1177.3975,1177.9142,1176.583,74,1177.3973,1178.4129,1178.9126,1178.9127,1179.6804,650.8,1179.6808,2,1180.679,5,14,164,20,1,0.8,0.3,Time
,,S20,815266,001,M,33,2025-05-21_13h55.09.172,Serial_Dependence_U,2023.2.3,Win32,59.52380952,62fd14d7b1e0729dc8aadb79,682cd3dfea4e15896da7c0a6,682dccded68f4d345aa86ec9,,,,,,,,,,,,1180.6806,5,1180.6813,,,,1183.2301,1183.7285,1182.7136,1183.2299,1181.6968,43,1182.7134,1183.7285,1184.2284,1184.2285,1185.3793,1016.8,1185.3797,3,1186.3786,5,15,165,11,1,1,0.3,Time
,,S20,815266,001,M,33,2025-05-21_13h55.09.172,Serial_Dependence_U,2023.2.3,Win32,59.52380952,62fd14d7b1e0729dc8aadb79,682cd3dfea4e15896da7c0a6,682dccded68f4d345aa86ec9,,,,,,,,,,,,1186.3799,5,1186.3806,,,,1188.7177,1189.2112,1188.2011,1188.7176,1187.3846,117,1188.2008,1189.2114,1189.6994,1189.6995,1190.6014,849.2,1190.6017,4,1191.5942,5,16,166,15,1,0.8,0.7,Time
,,S20,815266,001,M,33,2025-05-21_13h55.09.172,Serial_Dependence_U,2023.2.3,Win32,59.52380952,62fd14d7b1e0729dc8aadb79,682cd3dfea4e15896da7c0a6,682dccded68f4d345aa86ec9,,,,,,,,,,,,1191.5956,5,1191.5962,,,,1194.1324,1194.627,1193.6157,1194.1321,1192.5993,230,1193.6156,1194.6272,1195.1274,1195.1275,1196.2156,1016.7,1196.2159,3,1197.2096,5,17,167,21,1,1,0.3,Time
,,S20,815266,001,M,33,2025-05-21_13h55.09.172,Serial_Dependence_U,2023.2.3,Win32,59.52380952,62fd14d7b1e0729dc8aadb79,682cd3dfea4e15896da7c0a6,682dccded68f4d345aa86ec9,,,,,,,,,,,,1197.2108,5,1197.2115,,,,1200.3603,1200.8589,1199.8437,1200.3602,1198.2273,10,1199.8435,1200.859,1201.3588,1201.3589,1202.7439,1214.1,1202.7443,2,1203.7419,5,18,168,9,1,1.6,0.7,Time
,,S20,815266,001,M,33,2025-05-21_13h55.09.172,Serial_Dependence_U,2023.2.3,Win32,59.52380952,62fd14d7b1e0729dc8aadb79,682cd3dfea4e15896da7c0a6,682dccded68f4d345aa86ec9,,,,,,,,,,,,1203.7429,5,1203.7434,,,,1206.6928,1207.1918,1206.1758,1206.6925,1204.7596,232,1206.1756,1207.1918,1207.6912,1207.6912,1209.0088,1205.6,1209.0093,2,1210.0077,5,19,169,13,1,1.4,0.3,Time
,,S20,815266,001,M,33,2025-05-21_13h55.09.172,Serial_Dependence_U,2023.2.3,Win32,59.52380952,62fd14d7b1e0729dc8aadb79,682cd3dfea4e15896da7c0a6,682dccded68f4d345aa86ec9,,,,,,,,,,,,1210.0093,5,1210.0099,,,,1212.5587,1213.0571,1212.0421,1212.5585,1211.0256,205,1212.0419,1213.0571,1213.5569,1213.557,1215.2573,1105.7,1215.2576,4,1216.2572,5,20,170,1,1,1,0.3,Time
,,S20,815266,001,M,33,2025-05-21_13h55.09.172,Serial_Dependence_U,2023.2.3,Win32,59.52380952,62fd14d7b1e0729dc8aadb79,682cd3dfea4e15896da7c0a6,682dccded68f4d345aa86ec9,,,,,,,,,,,,1216.2586,5,1216.2594,,,,1219.3959,1219.8895,1218.8793,1219.3957,1217.2635,101,1218.879,1219.8897,1220.3894,1220.3896,1221.7314,1203,1221.7318,2,1222.722,5,21,171,4,1,1.6,0.3,Time
,,S20,815266,001,M,33,2025-05-21_13h55.09.172,Serial_Dependence_U,2023.2.3,Win32,59.52380952,62fd14d7b1e0729dc8aadb79,682cd3dfea4e15896da7c0a6,682dccded68f4d345aa86ec9,,,,,,,,,,,,1222.7233,5,1222.7238,,,,1225.6731,1226.1715,1225.156,1225.673,1223.7397,331,1225.1558,1226.1716,1226.6714,1226.6714,1228.0889,1320.1,1228.0893,2,1229.0877,5,22,172,23,1,1.4,0.3,Time
,,S20,815266,001,M,33,2025-05-21_13h55.09.172,Serial_Dependence_U,2023.2.3,Win32,59.52380952,62fd14d7b1e0729dc8aadb79,682cd3dfea4e15896da7c0a6,682dccded68f4d345aa86ec9,,,,,,,,,,,,1229.0888,5,1229.0893,,,,1231.4386,1231.9373,1230.9215,1231.4384,1230.1055,35,1230.9214,1231.9374,1232.4373,1232.4374,1233.5713,1048.7,1233.5718,5,1234.57,5,23,173,25,1,0.8,0.7,Time
,,S20,815266,001,M,33,2025-05-21_13h55.09.172,Serial_Dependence_U,2023.2.3,Win32,59.52380952,62fd14d7b1e0729dc8aadb79,682cd3dfea4e15896da7c0a6,682dccded68f4d345aa86ec9,,,,,,,,,,,,1234.5711,5,1234.5717,,,,1237.3209,1237.8195,1236.8045,1237.3208,1235.5879,73,1236.8044,1237.8197,1238.3195,1238.3196,1239.5029,1120.5,1239.5032,2,1240.5024,5,24,174,17,1,1.2,0.7,Time
,,S20,815266,001,M,33,2025-05-21_13h55.09.172,Serial_Dependence_U,2023.2.3,Win32,59.52380952,62fd14d7b1e0729dc8aadb79,682cd3dfea4e15896da7c0a6,682dccded68f4d345aa86ec9,,,,,,,,,,,,1240.5036,5,1240.504,,,,1243.2536,1243.7519,1242.7363,1243.2534,1241.5203,198,1242.7362,1243.7519,1244.2518,1244.2519,1245.4854,1103.8,1245.4856,2,1246.4849,5,25,175,2,1,1.2,0.3,Time
,,S20,815266,001,M,33,2025-05-21_13h55.09.172,Serial_Dependence_U,2023.2.3,Win32,59.52380952,62fd14d7b1e0729dc8aadb79,682cd3dfea4e15896da7c0a6,682dccded68f4d345aa86ec9,,,,,,,,,,,,1246.4862,5,1246.4868,,,,1249.0359,1249.5342,1248.519,1249.0357,1247.5025,248,1248.519,1249.5343,1250.0342,1250.0342,1250.9851,884.6,1250.9855,2,1251.9838,5,26,176,16,1,1,0.7,Time
,,S20,815266,001,M,33,2025-05-21_13h55.09.172,Serial_Dependence_U,2023.2.3,Win32,59.52380952,62fd14d7b1e0729dc8aadb79,682cd3dfea4e15896da7c0a6,682dccded68f4d345aa86ec9,,,,,,,,,,,,1251.985,5,1251.9856,,,,1254.5171,1255.0168,1254.0016,1254.5171,1252.9865,231,1254.0014,1255.0168,1255.5167,1255.5167,1256.6176,988.1,1256.6179,3,1257.6162,5,27,177,6,1,1,0.7,Time
,,S20,815266,001,M,33,2025-05-21_13h55.09.172,Serial_Dependence_U,2023.2.3,Win32,59.52380952,62fd14d7b1e0729dc8aadb79,682cd3dfea4e15896da7c0a6,682dccded68f4d345aa86ec9,,,,,,,,,,,,1257.6174,5,1257.6179,,,,1260.5672,1261.0658,1260.0504,1260.567,1258.6341,320,1260.0502,1261.0658,1261.5656,1261.5658,1262.6009,939.6,1262.6013,1,1263.5987,5,28,178,28,1,1.4,0.7,Time
,,S20,815266,001,M,33,2025-05-21_13h55.09.172,Serial_Dependence_U,2023.2.3,Win32,59.52380952,62fd14d7b1e0729dc8aadb79,682cd3dfea4e15896da7c0a6,682dccded68f4d345aa86ec9,,,,,,,,,,,,1263.5998,5,1263.6003,,,,1265.9493,1266.4481,1265.4329,1265.949,1264.6164,158,1265.4327,1266.4481,1266.9481,1266.9482,1267.7166,687.4,1267.7168,2,1268.7145,5,29,179,5,1,0.8,0.7,Time
,,S20,815266,001,M,33,2025-05-21_13h55.09.172,Serial_Dependence_U,2023.2.3,Win32,59.52380952,62fd14d7b1e0729dc8aadb79,682cd3dfea4e15896da7c0a6,682dccded68f4d345aa86ec9,,,,,,,,,,,,1268.7156,6,1271.4976,s,2.7599,,1273.8484,1274.3467,1273.3316,1273.8481,1272.5152,156,1273.3314,1274.3468,1274.8474,1274.8474,1275.7971,835.9,1275.7975,3,1276.7965,6,0,180,25,1,0.8,0.7,Time
,,S20,815266,001,M,33,2025-05-21_13h55.09.172,Serial_Dependence_U,2023.2.3,Win32,59.52380952,62fd14d7b1e0729dc8aadb79,682cd3dfea4e15896da7c0a6,682dccded68f4d345aa86ec9,,,,,,,,,,,,1276.7977,6,1276.8017,,,,1279.7474,1280.2458,1279.2306,1279.7473,1277.814,74,1279.2305,1280.2458,1280.7458,1280.7458,1281.9812,1157.1,1281.9816,2,1282.9793,6,1,181,3,1,1.4,0.3,Time
,,S20,815266,001,M,33,2025-05-21_13h55.09.172,Serial_Dependence_U,2023.2.3,Win32,59.52380952,62fd14d7b1e0729dc8aadb79,682cd3dfea4e15896da7c0a6,682dccded68f4d345aa86ec9,,,,,,,,,,,,1282.9807,6,1282.9815,,,,1285.933,1286.429,1285.4161,1285.9328,1284.0021,0,1285.4158,1286.4296,1286.9284,1286.9286,1288.4027,1354.1,1288.4031,3,1289.3945,6,2,182,13,1,1.4,0.3,Time
,,S20,815266,001,M,33,2025-05-21_13h55.09.172,Serial_Dependence_U,2023.2.3,Win32,59.52380952,62fd14d7b1e0729dc8aadb79,682cd3dfea4e15896da7c0a6,682dccded68f4d345aa86ec9,,,,,,,,,,,,1289.3957,6,1289.3964,,,,1292.1289,1292.6273,1291.6122,1292.1287,1290.4111,144,1291.6121,1292.6274,1293.1271,1293.1272,1294.3778,1131.6,1294.3783,2,1295.3767,6,3,183,2,1,1.2,0.3,Time
,,S20,815266,001,M,33,2025-05-21_13h55.09.172,Serial_Dependence_U,2023.2.3,Win32,59.52380952,62fd14d7b1e0729dc8aadb79,682cd3dfea4e15896da7c0a6,682dccded68f4d345aa86ec9,,,,,,,,,,,,1295.3779,6,1295.3783,,,,1298.5273,1299.0261,1298.0109,1298.5272,1296.3946,62,1298.0108,1299.0261,1299.5262,1299.5262,1300.9603,1336.7,1300.9606,2,1301.9589,6,4,184,24,1,1.6,0.3,Time
,,S20,815266,001,M,33,2025-05-21_13h55.09.172,Serial_Dependence_U,2023.2.3,Win32,59.52380952,62fd14d7b1e0729dc8aadb79,682cd3dfea4e15896da7c0a6,682dccded68f4d345aa86ec9,,,,,,,,,,,,1301.96,6,1301.9606,,,,1304.7088,1305.2085,1304.1932,1304.7088,1302.9769,329,1304.1931,1305.2085,1305.7085,1305.7086,1307.3986,1181.8,1307.3989,3,1308.3911,6,5,185,12,1,1.2,0.3,Time
,,S20,815266,001,M,33,2025-05-21_13h55.09.172,Serial_Dependence_U,2023.2.3,Win32,59.52380952,62fd14d7b1e0729dc8aadb79,682cd3dfea4e15896da7c0a6,682dccded68f4d345aa86ec9,,,,,,,,,,,,1308.3923,6,1308.3929,,,,1310.7414,1311.2408,1310.2256,1310.7413,1309.4091,177,1310.2254,1311.2409,1311.7408,1311.7408,1312.6749,813.4,1312.6754,3,1313.6738,6,6,186,20,1,0.8,0.3,Time
,,S20,815266,001,M,33,2025-05-21_13h55.09.172,Serial_Dependence_U,2023.2.3,Win32,59.52380952,62fd14d7b1e0729dc8aadb79,682cd3dfea4e15896da7c0a6,682dccded68f4d345aa86ec9,,,,,,,,,,,,1313.6751,6,1313.6756,,,,1316.4246,1316.9231,1315.9094,1316.4244,1314.6915,358,1315.909,1316.9231,1317.4231,1317.4232,1318.48,949.9,1318.4803,2,1319.4728,6,7,187,22,1,1.2,0.3,Time
,,S20,815266,001,M,33,2025-05-21_13h55.09.172,Serial_Dependence_U,2023.2.3,Win32,59.52380952,62fd14d7b1e0729dc8aadb79,682cd3dfea4e15896da7c0a6,682dccded68f4d345aa86ec9,,,,,,,,,,,,1319.4739,6,1319.4744,,,,1322.4234,1322.9223,1321.9069,1322.4233,1320.4906,287,1321.9066,1322.9224,1323.4221,1323.4222,1324.5559,950.4,1324.5562,1,1325.5557,6,8,188,28,1,1.4,0.7,Time
,,S20,815266,001,M,33,2025-05-21_13h55.09.172,Serial_Dependence_U,2023.2.3,Win32,59.52380952,62fd14d7b1e0729dc8aadb79,682cd3dfea4e15896da7c0a6,682dccded68f4d345aa86ec9,,,,,,,,,,,,1325.5572,6,1325.5578,,,,1328.0784,1328.5718,1327.5615,1328.0783,1326.5601,50,1327.5613,1328.5719,1329.0721,1329.0726,1330.1119,950.1,1330.1123,3,1331.1042,6,9,189,1,1,1,0.3,Time
,,S20,815266,001,M,33,2025-05-21_13h55.09.172,Serial_Dependence_U,2023.2.3,Win32,59.52380952,62fd14d7b1e0729dc8aadb79,682cd3dfea4e15896da7c0a6,682dccded68f4d345aa86ec9,,,,,,,,,,,,1331.1053,6,1331.1058,,,,1333.8551,1334.3536,1333.3385,1333.8549,1332.1221,109,1333.3384,1334.3536,1334.8535,1334.8536,1336.1713,1151.2,1336.1716,3,1337.1698,6,10,190,7,1,1.2,0.7,Time
,,S20,815266,001,M,33,2025-05-21_13h55.09.172,Serial_Dependence_U,2023.2.3,Win32,59.52380952,62fd14d7b1e0729dc8aadb79,682cd3dfea4e15896da7c0a6,682dccded68f4d345aa86ec9,,,,,,,,,,,,1337.1709,6,1337.1714,,,,1339.5209,1340.0192,1339.0041,1339.5207,1338.1878,276,1339.004,1340.0193,1340.5193,1340.5194,1341.9203,898,1341.9206,4,1342.9196,6,11,191,15,1,0.8,0.7,Time
,,S20,815266,001,M,33,2025-05-21_13h55.09.172,Serial_Dependence_U,2023.2.3,Win32,59.52380952,62fd14d7b1e0729dc8aadb79,682cd3dfea4e15896da7c0a6,682dccded68f4d345aa86ec9,,,,,,,,,,,,1342.9212,6,1342.9221,,,,1346.0577,1346.5521,1345.5416,1346.0576,1343.9256,88,1345.5415,1346.5522,1347.0524,1347.0526,1348.8912,1367.3,1348.8914,2,1349.8848,6,12,192,14,1,1.6,0.3,Time
,,S20,815266,001,M,33,2025-05-21_13h55.09.172,Serial_Dependence_U,2023.2.3,Win32,59.52380952,62fd14d7b1e0729dc8aadb79,682cd3dfea4e15896da7c0a6,682dccded68f4d345aa86ec9,,,,,,,,,,,,1349.8863,6,1349.8869,,,,1352.4195,1352.9177,1351.9077,1352.4194,1350.8913,270,1351.9075,1352.9179,1353.4223,1353.4224,1354.6744,1049.7,1354.6747,3,1355.6668,6,13,193,21,1,1,0.3,Time
,,S20,815266,001,M,33,2025-05-21_13h55.09.172,Serial_Dependence_U,2023.2.3,Win32,59.52380952,62fd14d7b1e0729dc8aadb79,682cd3dfea4e15896da7c0a6,682dccded68f4d345aa86ec9,,,,,,,,,,,,1355.668,6,1355.6686,,,,1358.6181,1359.1165,1358.101,1358.6179,1356.6846,242,1358.1008,1359.1166,1359.6162,1359.6163,1360.9841,970.5,1360.9845,1,1361.983,6,14,194,18,1,1.4,0.7,Time
,,S20,815266,001,M,33,2025-05-21_13h55.09.172,Serial_Dependence_U,2023.2.3,Win32,59.52380952,62fd14d7b1e0729dc8aadb79,682cd3dfea4e15896da7c0a6,682dccded68f4d345aa86ec9,,,,,,,,,,,,1361.9843,6,1361.9851,,,,1364.5175,1365.0156,1364.0058,1364.5174,1362.989,4,1364.0055,1365.0158,1365.5158,1365.5161,1366.8554,999.4,1366.8557,3,1367.848,6,15,195,6,1,1,0.7,Time
,,S20,815266,001,M,33,2025-05-21_13h55.09.172,Serial_Dependence_U,2023.2.3,Win32,59.52380952,62fd14d7b1e0729dc8aadb79,682cd3dfea4e15896da7c0a6,682dccded68f4d345aa86ec9,,,,,,,,,,,,1367.8492,6,1367.8496,,,,1370.9989,1371.4976,1370.4823,1370.9988,1368.8659,176,1370.4821,1371.4977,1371.9976,1371.9977,1373.4477,1383.4,1373.448,2,1374.4476,6,16,196,4,1,1.6,0.3,Time
,,S20,815266,001,M,33,2025-05-21_13h55.09.172,Serial_Dependence_U,2023.2.3,Win32,59.52380952,62fd14d7b1e0729dc8aadb79,682cd3dfea4e15896da7c0a6,682dccded68f4d345aa86ec9,,,,,,,,,,,,1374.449,6,1374.4497,,,,1377.1866,1377.6802,1376.6702,1377.1865,1375.4529,337,1376.6702,1377.6803,1378.1804,1378.1807,1379.3365,1003.7,1379.3367,2,1380.3297,6,17,197,27,1,1.2,0.7,Time
,,S20,815266,001,M,33,2025-05-21_13h55.09.172,Serial_Dependence_U,2023.2.3,Win32,59.52380952,62fd14d7b1e0729dc8aadb79,682cd3dfea4e15896da7c0a6,682dccded68f4d345aa86ec9,,,,,,,,,,,,1380.3313,6,1380.3321,,,,1382.8525,1383.346,1382.3502,1382.8524,1381.3366,84,1382.35,1383.3462,1383.8461,1383.8464,1385.0467,1101.8,1385.0474,4,1386.0453,6,18,198,16,1,1,0.7,Time
,,S20,815266,001,M,33,2025-05-21_13h55.09.172,Serial_Dependence_U,2023.2.3,Win32,59.52380952,62fd14d7b1e0729dc8aadb79,682cd3dfea4e15896da7c0a6,682dccded68f4d345aa86ec9,,,,,,,,,,,,1386.0466,6,1386.0472,,,,1388.585,1389.079,1388.0686,1388.5847,1387.0519,311,1388.0684,1389.0791,1389.5784,1389.5786,1390.8691,1152.6,1390.8695,4,1391.8613,6,19,199,11,1,1,0.3,Time
,,S20,815266,001,M,33,2025-05-21_13h55.09.172,Serial_Dependence_U,2023.2.3,Win32,59.52380952,62fd14d7b1e0729dc8aadb79,682cd3dfea4e15896da7c0a6,682dccded68f4d345aa86ec9,,,,,,,,,,,,1391.8627,6,1391.8634,,,,1394.2173,1394.711,1393.7008,1394.217,1392.8843,50,1393.7007,1394.7111,1395.2145,1395.2146,1396.3168,998.9,1396.317,4,1397.3102,6,20,200,0,1,0.8,0.3,Time
,,S20,815266,001,M,33,2025-05-21_13h55.09.172,Serial_Dependence_U,2023.2.3,Win32,59.52380952,62fd14d7b1e0729dc8aadb79,682cd3dfea4e15896da7c0a6,682dccded68f4d345aa86ec9,,,,,,,,,,,,1397.3117,6,1397.3124,,,,1400.4661,1400.9598,1399.9495,1400.4658,1398.3332,211,1399.9493,1400.9599,1401.4597,1401.46,1402.9498,1400.4,1402.9502,2,1403.9427,6,21,201,9,1,1.6,0.7,Time
,,S20,815266,001,M,33,2025-05-21_13h55.09.172,Serial_Dependence_U,2023.2.3,Win32,59.52380952,62fd14d7b1e0729dc8aadb79,682cd3dfea4e15896da7c0a6,682dccded68f4d345aa86ec9,,,,,,,,,,,,1403.9442,6,1403.9448,,,,1406.282,1406.7754,1405.7633,1406.2817,1404.9466,142,1405.7632,1406.7756,1407.2755,1407.2758,1408.2828,913.7,1408.2831,4,1409.2747,6,22,202,10,1,0.8,0.3,Time
,,S20,815266,001,M,33,2025-05-21_13h55.09.172,Serial_Dependence_U,2023.2.3,Win32,59.52380952,62fd14d7b1e0729dc8aadb79,682cd3dfea4e15896da7c0a6,682dccded68f4d345aa86ec9,,,,,,,,,,,,1409.2759,6,1409.2764,,,,1411.6256,1412.1242,1411.1087,1411.6254,1410.2924,81,1411.1087,1412.1243,1412.6241,1412.6241,1414.0748,1248.3,1414.0753,5,1415.0736,6,23,203,5,1,0.8,0.7,Time
,,S20,815266,001,M,33,2025-05-21_13h55.09.172,Serial_Dependence_U,2023.2.3,Win32,59.52380952,62fd14d7b1e0729dc8aadb79,682cd3dfea4e15896da7c0a6,682dccded68f4d345aa86ec9,,,,,,,,,,,,1415.0749,6,1415.0753,,,,1418.0249,1418.5233,1417.5079,1418.0247,1416.0915,228,1417.5077,1418.5234,1419.0231,1419.0231,1420.3573,1250,1420.3576,2,1421.3561,6,24,204,8,1,1.4,0.7,Time
,,S20,815266,001,M,33,2025-05-21_13h55.09.172,Serial_Dependence_U,2023.2.3,Win32,59.52380952,62fd14d7b1e0729dc8aadb79,682cd3dfea4e15896da7c0a6,682dccded68f4d345aa86ec9,,,,,,,,,,,,1421.3575,6,1421.3582,,,,1424.1067,1424.6057,1423.5899,1424.1065,1422.3738,36,1423.5897,1424.6058,1425.1054,1425.1054,1426.5064,1252.1,1426.5069,3,1427.505,6,25,205,17,1,1.2,0.7,Time
,,S20,815266,001,M,33,2025-05-21_13h55.09.172,Serial_Dependence_U,2023.2.3,Win32,59.52380952,62fd14d7b1e0729dc8aadb79,682cd3dfea4e15896da7c0a6,682dccded68f4d345aa86ec9,,,,,,,,,,,,1427.5064,6,1427.5071,,,,1430.0572,1430.5545,1429.5392,1430.057,1428.5231,265,1429.5391,1430.5546,1431.0545,1431.0546,1432.2879,1102,1432.2882,4,1433.2879,6,26,206,26,1,1,0.7,Time
,,S20,815266,001,M,33,2025-05-21_13h55.09.172,Serial_Dependence_U,2023.2.3,Win32,59.52380952,62fd14d7b1e0729dc8aadb79,682cd3dfea4e15896da7c0a6,682dccded68f4d345aa86ec9,,,,,,,,,,,,1433.2896,6,1433.2902,,,,1436.4246,1436.9204,1435.9103,1436.4245,1434.2942,203,1435.9101,1436.9205,1437.4207,1437.4209,1438.7105,1199.6,1438.7109,2,1439.703,6,27,207,19,1,1.6,0.7,Time
,,S20,815266,001,M,33,2025-05-21_13h55.09.172,Serial_Dependence_U,2023.2.3,Win32,59.52380952,62fd14d7b1e0729dc8aadb79,682cd3dfea4e15896da7c0a6,682dccded68f4d345aa86ec9,,,,,,,,,,,,1439.7041,6,1439.7045,,,,1442.6541,1443.1524,1442.1372,1442.654,1440.7209,339,1442.1371,1443.1525,1443.6521,1443.6522,1444.9194,1116.3,1444.9195,2,1445.9188,6,28,208,23,1,1.4,0.3,Time
,,S20,815266,001,M,33,2025-05-21_13h55.09.172,Serial_Dependence_U,2023.2.3,Win32,59.52380952,62fd14d7b1e0729dc8aadb79,682cd3dfea4e15896da7c0a6,682dccded68f4d345aa86ec9,,,,,,,,,,,,1445.92,6,1445.9207,,,,1449.0687,1449.5681,1448.5528,1449.0687,1446.9365,259,1448.5526,1449.5683,1450.068,1450.0681,1451.5357,1353.1,1451.536,2,1452.5341,6,29,209,29,1,1.6,0.7,Time
,,S20,815266,001,M,33,2025-05-21_13h55.09.172,Serial_Dependence_U,2023.2.3,Win32,59.52380952,62fd14d7b1e0729dc8aadb79,682cd3dfea4e15896da7c0a6,682dccded68f4d345aa86ec9,,,,,,,,,,,,1452.5353,7,1508.9418,s,56.3794,,1511.4925,1511.9911,1510.9757,1511.4923,1509.9594,102,1510.9755,1511.9912,1512.491,1512.4911,1513.7927,1116,1513.793,4,1514.7906,7,0,210,6,1,1,0.7,Time
,,S20,815266,001,M,33,2025-05-21_13h55.09.172,Serial_Dependence_U,2023.2.3,Win32,59.52380952,62fd14d7b1e0729dc8aadb79,682cd3dfea4e15896da7c0a6,682dccded68f4d345aa86ec9,,,,,,,,,,,,1514.7918,7,1514.7961,,,,1517.9418,1518.4399,1517.4249,1517.9415,1515.8085,104,1517.4247,1518.44,1518.9399,1518.94,1520.2403,1201,1520.2406,2,1521.2397,7,1,211,24,1,1.6,0.3,Time
,,S20,815266,001,M,33,2025-05-21_13h55.09.172,Serial_Dependence_U,2023.2.3,Win32,59.52380952,62fd14d7b1e0729dc8aadb79,682cd3dfea4e15896da7c0a6,682dccded68f4d345aa86ec9,,,,,,,,,,,,1521.241,7,1521.2415,,,,1524.1767,1524.6727,1523.6624,1524.1765,1522.2563,91,1523.6623,1524.6729,1525.1728,1525.173,1526.4125,1086.4,1526.4128,2,1527.4058,7,2,212,28,1,1.4,0.7,Time
,,S20,815266,001,M,33,2025-05-21_13h55.09.172,Serial_Dependence_U,2023.2.3,Win32,59.52380952,62fd14d7b1e0729dc8aadb79,682cd3dfea4e15896da7c0a6,682dccded68f4d345aa86ec9,,,,,,,,,,,,1527.4072,7,1527.4077,,,,1529.7449,1530.2386,1529.2285,1529.7447,1528.4115,103,1529.2284,1530.2388,1530.7385,1530.7387,1531.8121,983.7,1531.8124,4,1532.8043,7,3,213,0,1,0.8,0.3,Time
,,S20,815266,001,M,33,2025-05-21_13h55.09.172,Serial_Dependence_U,2023.2.3,Win32,59.52380952,62fd14d7b1e0729dc8aadb79,682cd3dfea4e15896da7c0a6,682dccded68f4d345aa86ec9,,,,,,,,,,,,1532.8055,7,1532.806,,,,1535.7553,1536.2539,1535.2386,1535.7553,1533.8222,109,1535.2385,1536.254,1536.7537,1536.7538,1538.0211,1169.5,1538.0216,2,1539.0209,7,4,214,13,1,1.4,0.3,Time
,,S20,815266,001,M,33,2025-05-21_13h55.09.172,Serial_Dependence_U,2023.2.3,Win32,59.52380952,62fd14d7b1e0729dc8aadb79,682cd3dfea4e15896da7c0a6,682dccded68f4d345aa86ec9,,,,,,,,,,,,1539.0221,7,1539.023,,,,1541.7589,1542.2533,1541.2424,1541.7587,1540.0262,60,1541.2421,1542.2534,1542.7534,1542.7536,1544.4772,1217.9,1544.4775,3,1545.4691,7,5,215,12,1,1.2,0.3,Time
,,S20,815266,001,M,33,2025-05-21_13h55.09.172,Serial_Dependence_U,2023.2.3,Win32,59.52380952,62fd14d7b1e0729dc8aadb79,682cd3dfea4e15896da7c0a6,682dccded68f4d345aa86ec9,,,,,,,,,,,,1545.4702,7,1545.4707,,,,1548.2198,1548.7183,1547.7029,1548.2196,1546.4868,89,1547.7028,1548.7184,1549.2183,1549.2184,1550.3689,1047.3,1550.3695,2,1551.3681,7,6,216,27,1,1.2,0.7,Time
,,S20,815266,001,M,33,2025-05-21_13h55.09.172,Serial_Dependence_U,2023.2.3,Win32,59.52380952,62fd14d7b1e0729dc8aadb79,682cd3dfea4e15896da7c0a6,682dccded68f4d345aa86ec9,,,,,,,,,,,,1551.3694,7,1551.37,,,,1553.9191,1554.4177,1553.402,1553.919,1552.3858,138,1553.4019,1554.4178,1554.9173,1554.9174,1556.1014,1114.4,1556.1019,4,1557.1003,7,7,217,11,1,1,0.3,Time
,,S20,815266,001,M,33,2025-05-21_13h55.09.172,Serial_Dependence_U,2023.2.3,Win32,59.52380952,62fd14d7b1e0729dc8aadb79,682cd3dfea4e15896da7c0a6,682dccded68f4d345aa86ec9,,,,,,,,,,,,1557.1015,7,1557.102,,,,1559.4518,1559.9498,1558.9346,1559.4515,1558.1182,64,1558.9345,1559.9499,1560.4497,1560.4498,1561.4007,872,1561.4011,4,1562.3994,7,8,218,20,1,0.8,0.3,Time
,,S20,815266,001,M,33,2025-05-21_13h55.09.172,Serial_Dependence_U,2023.2.3,Win32,59.52380952,62fd14d7b1e0729dc8aadb79,682cd3dfea4e15896da7c0a6,682dccded68f4d345aa86ec9,,,,,,,,,,,,1562.4006,7,1562.4012,,,,1565.1505,1565.6489,1564.6338,1565.1504,1563.4174,296,1564.6336,1565.6489,1566.1488,1566.1488,1567.2503,1038.5,1567.2507,2,1568.2485,7,9,219,7,1,1.2,0.7,Time
,,S20,815266,001,M,33,2025-05-21_13h55.09.172,Serial_Dependence_U,2023.2.3,Win32,59.52380952,62fd14d7b1e0729dc8aadb79,682cd3dfea4e15896da7c0a6,682dccded68f4d345aa86ec9,,,,,,,,,,,,1568.2496,7,1568.2501,,,,1571.1993,1571.698,1570.6827,1571.1991,1569.2664,16,1570.6826,1571.698,1572.1979,1572.1981,1573.6154,1311.4,1573.6158,2,1574.6141,7,10,220,3,1,1.4,0.3,Time
,,S20,815266,001,M,33,2025-05-21_13h55.09.172,Serial_Dependence_U,2023.2.3,Win32,59.52380952,62fd14d7b1e0729dc8aadb79,682cd3dfea4e15896da7c0a6,682dccded68f4d345aa86ec9,,,,,,,,,,,,1574.6153,7,1574.6159,,,,1577.5653,1578.0636,1577.0484,1577.5652,1575.6321,177,1577.0482,1578.0637,1578.5635,1578.5635,1579.7638,1131.9,1579.764,2,1580.7631,7,11,221,8,1,1.4,0.7,Time
,,S20,815266,001,M,33,2025-05-21_13h55.09.172,Serial_Dependence_U,2023.2.3,Win32,59.52380952,62fd14d7b1e0729dc8aadb79,682cd3dfea4e15896da7c0a6,682dccded68f4d345aa86ec9,,,,,,,,,,,,1580.7643,7,1580.7647,,,,1583.113,1583.6126,1582.5974,1583.1129,1581.7809,252,1582.5973,1583.6126,1584.1127,1584.1128,1585.1469,966.1,1585.1472,4,1586.1455,7,12,222,15,1,0.8,0.7,Time
,,S20,815266,001,M,33,2025-05-21_13h55.09.172,Serial_Dependence_U,2023.2.3,Win32,59.52380952,62fd14d7b1e0729dc8aadb79,682cd3dfea4e15896da7c0a6,682dccded68f4d345aa86ec9,,,,,,,,,,,,1586.1467,7,1586.1473,,,,1588.6964,1589.1951,1588.1799,1588.6963,1587.1634,233,1588.1797,1589.1952,1589.695,1589.695,1591.4451,968.8,1591.4453,3,1592.4446,7,13,223,16,1,1,0.7,Time
,,S20,815266,001,M,33,2025-05-21_13h55.09.172,Serial_Dependence_U,2023.2.3,Win32,59.52380952,62fd14d7b1e0729dc8aadb79,682cd3dfea4e15896da7c0a6,682dccded68f4d345aa86ec9,,,,,,,,,,,,1592.4459,7,1592.4465,,,,1595.5956,1596.0939,1595.0788,1595.5954,1593.4623,110,1595.0786,1596.094,1596.594,1596.594,1598.2609,1488.7,1598.2611,2,1599.26,7,14,224,4,1,1.6,0.3,Time
,,S20,815266,001,M,33,2025-05-21_13h55.09.172,Serial_Dependence_U,2023.2.3,Win32,59.52380952,62fd14d7b1e0729dc8aadb79,682cd3dfea4e15896da7c0a6,682dccded68f4d345aa86ec9,,,,,,,,,,,,1599.2612,7,1599.2618,,,,1601.6113,1602.1095,1601.0943,1601.6111,1600.278,257,1601.0942,1602.1095,1602.6095,1602.6095,1603.4272,730.1,1603.4276,2,1604.4258,7,15,225,25,1,0.8,0.7,Time
,,S20,815266,001,M,33,2025-05-21_13h55.09.172,Serial_Dependence_U,2023.2.3,Win32,59.52380952,62fd14d7b1e0729dc8aadb79,682cd3dfea4e15896da7c0a6,682dccded68f4d345aa86ec9,,,,,,,,,,,,1604.4271,7,1604.4276,,,,1607.1767,1607.6753,1606.6601,1607.1766,1605.443,119,1606.6599,1607.6755,1608.1753,1608.1753,1609.5423,998.3,1609.5426,2,1610.5416,7,16,226,2,1,1.2,0.3,Time
,,S20,815266,001,M,33,2025-05-21_13h55.09.172,Serial_Dependence_U,2023.2.3,Win32,59.52380952,62fd14d7b1e0729dc8aadb79,682cd3dfea4e15896da7c0a6,682dccded68f4d345aa86ec9,,,,,,,,,,,,1610.543,7,1610.5436,,,,1613.6923,1614.191,1613.1757,1613.6922,1611.5596,195,1613.1755,1614.191,1614.6909,1614.691,1616.0417,1237.4,1616.0422,2,1617.0405,7,17,227,14,1,1.6,0.3,Time
,,S20,815266,001,M,33,2025-05-21_13h55.09.172,Serial_Dependence_U,2023.2.3,Win32,59.52380952,62fd14d7b1e0729dc8aadb79,682cd3dfea4e15896da7c0a6,682dccded68f4d345aa86ec9,,,,,,,,,,,,1617.0417,7,1617.0421,,,,1619.9807,1620.4757,1619.4745,1619.9805,1618.0583,122,1619.4744,1620.4757,1620.9738,1620.974,1622.4805,1382.9,1622.4809,3,1623.4734,7,18,228,18,1,1.4,0.7,Time
,,S20,815266,001,M,33,2025-05-21_13h55.09.172,Serial_Dependence_U,2023.2.3,Win32,59.52380952,62fd14d7b1e0729dc8aadb79,682cd3dfea4e15896da7c0a6,682dccded68f4d345aa86ec9,,,,,,,,,,,,1623.4748,7,1623.4754,,,,1626.612,1627.108,1626.0935,1626.6118,1624.4796,237,1626.0933,1627.108,1627.6105,1627.6106,1629.063,1282.6,1629.0633,2,1630.055,7,19,229,9,1,1.6,0.7,Time
,,S20,815266,001,M,33,2025-05-21_13h55.09.172,Serial_Dependence_U,2023.2.3,Win32,59.52380952,62fd14d7b1e0729dc8aadb79,682cd3dfea4e15896da7c0a6,682dccded68f4d345aa86ec9,,,,,,,,,,,,1630.0563,7,1630.0568,,,,1632.4059,1632.9045,1631.8892,1632.4058,1631.0729,19,1631.8891,1632.9045,1633.4046,1633.4047,1634.2889,757,1634.2893,2,1635.2875,7,20,230,10,1,0.8,0.3,Time
,,S20,815266,001,M,33,2025-05-21_13h55.09.172,Serial_Dependence_U,2023.2.3,Win32,59.52380952,62fd14d7b1e0729dc8aadb79,682cd3dfea4e15896da7c0a6,682dccded68f4d345aa86ec9,,,,,,,,,,,,1635.2886,7,1635.2891,,,,1637.8387,1638.3369,1637.3218,1637.8385,1636.3053,52,1637.3216,1638.3369,1638.837,1638.8371,1639.8538,906.3,1639.854,2,1640.8541,7,21,231,26,1,1,0.7,Time
,,S20,815266,001,M,33,2025-05-21_13h55.09.172,Serial_Dependence_U,2023.2.3,Win32,59.52380952,62fd14d7b1e0729dc8aadb79,682cd3dfea4e15896da7c0a6,682dccded68f4d345aa86ec9,,,,,,,,,,,,1640.8553,7,1640.8559,,,,1643.404,1643.9027,1642.8874,1643.4039,1641.8711,13,1642.8872,1643.9027,1644.4027,1644.4028,1645.3536,805,1645.3539,2,1646.3523,7,22,232,21,1,1,0.3,Time
,,S20,815266,001,M,33,2025-05-21_13h55.09.172,Serial_Dependence_U,2023.2.3,Win32,59.52380952,62fd14d7b1e0729dc8aadb79,682cd3dfea4e15896da7c0a6,682dccded68f4d345aa86ec9,,,,,,,,,,,,1646.3534,7,1646.3539,,,,1649.5032,1650.0017,1648.9863,1649.503,1647.3701,189,1648.9862,1650.0018,1650.5016,1650.5017,1652.1688,1568.9,1652.1693,3,1653.1682,7,23,233,29,1,1.6,0.7,Time
,,S20,815266,001,M,33,2025-05-21_13h55.09.172,Serial_Dependence_U,2023.2.3,Win32,59.52380952,62fd14d7b1e0729dc8aadb79,682cd3dfea4e15896da7c0a6,682dccded68f4d345aa86ec9,,,,,,,,,,,,1653.1699,7,1653.1705,,,,1655.8909,1656.3845,1655.3741,1655.8907,1654.1722,248,1655.3738,1656.3847,1656.8845,1656.8847,1658.4091,1350.9,1658.4095,4,1659.4003,7,24,234,22,1,1.2,0.3,Time
,,S20,815266,001,M,33,2025-05-21_13h55.09.172,Serial_Dependence_U,2023.2.3,Win32,59.52380952,62fd14d7b1e0729dc8aadb79,682cd3dfea4e15896da7c0a6,682dccded68f4d345aa86ec9,,,,,,,,,,,,1659.4013,7,1659.4019,,,,1661.9511,1662.4496,1661.4345,1661.9509,1660.4181,210,1661.4343,1662.4496,1662.9495,1662.9496,1664.2832,1147.3,1664.2835,4,1665.2825,7,25,235,1,1,1,0.3,Time
,,S20,815266,001,M,33,2025-05-21_13h55.09.172,Serial_Dependence_U,2023.2.3,Win32,59.52380952,62fd14d7b1e0729dc8aadb79,682cd3dfea4e15896da7c0a6,682dccded68f4d345aa86ec9,,,,,,,,,,,,1665.2837,7,1665.2842,,,,1668.0337,1668.532,1667.5168,1668.0335,1666.3004,284,1667.5164,1668.5321,1669.032,1669.032,1670.3836,1203.2,1670.3839,3,1671.3816,7,26,236,17,1,1.2,0.7,Time
,,S20,815266,001,M,33,2025-05-21_13h55.09.172,Serial_Dependence_U,2023.2.3,Win32,59.52380952,62fd14d7b1e0729dc8aadb79,682cd3dfea4e15896da7c0a6,682dccded68f4d345aa86ec9,,,,,,,,,,,,1671.3827,7,1671.3833,,,,1674.5326,1675.0309,1674.0157,1674.5324,1672.3993,356,1674.0155,1675.031,1675.531,1675.531,1677.2479,1482.9,1677.2482,2,1678.247,7,27,237,19,1,1.6,0.7,Time
,,S20,815266,001,M,33,2025-05-21_13h55.09.172,Serial_Dependence_U,2023.2.3,Win32,59.52380952,62fd14d7b1e0729dc8aadb79,682cd3dfea4e15896da7c0a6,682dccded68f4d345aa86ec9,,,,,,,,,,,,1678.2484,7,1678.249,,,,1681.1979,1681.6964,1680.6813,1681.1977,1679.2649,3,1680.6811,1681.6965,1682.1964,1682.1965,1683.9299,1536.2,1683.9302,4,1684.9294,7,28,238,23,1,1.4,0.3,Time
,,S20,815266,001,M,33,2025-05-21_13h55.09.172,Serial_Dependence_U,2023.2.3,Win32,59.52380952,62fd14d7b1e0729dc8aadb79,682cd3dfea4e15896da7c0a6,682dccded68f4d345aa86ec9,,,,,,,,,,,,1684.9308,7,1684.9313,,,,1687.28,1687.779,1686.7639,1687.2799,1685.9475,355,1686.7637,1687.7791,1688.2791,1688.2792,1689.5466,815.2,1689.547,3,1690.5458,7,29,239,5,1,0.8,0.7,Time
,,S20,815266,001,M,33,2025-05-21_13h55.09.172,Serial_Dependence_U,2023.2.3,Win32,59.52380952,62fd14d7b1e0729dc8aadb79,682cd3dfea4e15896da7c0a6,682dccded68f4d345aa86ec9,,,,,,,,,,,,1690.5474,8,1691.9959,s,1.4189,,1694.9159,1695.4114,1694.4135,1694.9157,1693.0015,284,1694.4134,1695.4117,1695.9115,1695.9117,1697.2853,1219.4,1697.2857,2,1698.2779,8,0,240,28,1,1.4,0.7,Time
,,S20,815266,001,M,33,2025-05-21_13h55.09.172,Serial_Dependence_U,2023.2.3,Win32,59.52380952,62fd14d7b1e0729dc8aadb79,682cd3dfea4e15896da7c0a6,682dccded68f4d345aa86ec9,,,,,,,,,,,,1698.2791,8,1698.2823,,,,1701.4318,1701.9267,1700.917,1701.4316,1699.2958,81,1700.9168,1701.9269,1702.4269,1702.4271,1704.0999,1519.2,1704.1002,2,1705.0933,8,1,241,24,1,1.6,0.3,Time
,,S20,815266,001,M,33,2025-05-21_13h55.09.172,Serial_Dependence_U,2023.2.3,Win32,59.52380952,62fd14d7b1e0729dc8aadb79,682cd3dfea4e15896da7c0a6,682dccded68f4d345aa86ec9,,,,,,,,,,,,1705.0947,8,1705.0954,,,,1708.2326,1708.7257,1707.716,1708.2323,1706.0995,25,1707.7158,1708.7258,1709.226,1709.2262,1710.599,1266.6,1710.5994,2,1711.5919,8,2,242,14,1,1.6,0.3,Time
,,S20,815266,001,M,33,2025-05-21_13h55.09.172,Serial_Dependence_U,2023.2.3,Win32,59.52380952,62fd14d7b1e0729dc8aadb79,682cd3dfea4e15896da7c0a6,682dccded68f4d345aa86ec9,,,,,,,,,,,,1711.5935,8,1711.594,,,,1714.1313,1714.6247,1713.6148,1714.1311,1712.598,283,1713.6147,1714.6248,1715.1249,1715.1251,1716.4156,1133.4,1716.416,4,1717.4078,8,3,243,16,1,1,0.7,Time
,,S20,815266,001,M,33,2025-05-21_13h55.09.172,Serial_Dependence_U,2023.2.3,Win32,59.52380952,62fd14d7b1e0729dc8aadb79,682cd3dfea4e15896da7c0a6,682dccded68f4d345aa86ec9,,,,,,,,,,,,1717.4098,8,1717.4103,,,,1719.7306,1720.2236,1719.2137,1719.7304,1718.4118,104,1719.2136,1720.2239,1720.7278,1720.7279,1721.8809,833,1721.8813,3,1722.8734,8,4,244,10,1,0.8,0.3,Time
,,S20,815266,001,M,33,2025-05-21_13h55.09.172,Serial_Dependence_U,2023.2.3,Win32,59.52380952,62fd14d7b1e0729dc8aadb79,682cd3dfea4e15896da7c0a6,682dccded68f4d345aa86ec9,,,,,,,,,,,,1722.8752,8,1722.8757,,,,1725.1962,1725.6896,1724.6938,1725.1961,1723.8797,134,1724.6936,1725.6898,1726.1899,1726.1901,1726.8462,535.9,1726.8465,1,1727.8389,8,5,245,25,1,0.8,0.7,Time
,,S20,815266,001,M,33,2025-05-21_13h55.09.172,Serial_Dependence_U,2023.2.3,Win32,59.52380952,62fd14d7b1e0729dc8aadb79,682cd3dfea4e15896da7c0a6,682dccded68f4d345aa86ec9,,,,,,,,,,,,1727.8401,8,1727.8407,,,,1730.1731,1730.6717,1729.6566,1730.1729,1728.8405,261,1729.6565,1730.6717,1731.1716,1731.1717,1732.4224,900.3,1732.4229,4,1733.4213,8,6,246,15,1,0.8,0.7,Time
,,S20,815266,001,M,33,2025-05-21_13h55.09.172,Serial_Dependence_U,2023.2.3,Win32,59.52380952,62fd14d7b1e0729dc8aadb79,682cd3dfea4e15896da7c0a6,682dccded68f4d345aa86ec9,,,,,,,,,,,,1733.4225,8,1733.423,,,,1736.1725,1736.6709,1735.6556,1736.1724,1734.4394,222,1735.6555,1736.6709,1737.1708,1737.1709,1738.4376,943.7,1738.4386,2,1739.437,8,7,247,2,1,1.2,0.3,Time
,,S20,815266,001,M,33,2025-05-21_13h55.09.172,Serial_Dependence_U,2023.2.3,Win32,59.52380952,62fd14d7b1e0729dc8aadb79,682cd3dfea4e15896da7c0a6,682dccded68f4d345aa86ec9,,,,,,,,,,,,1739.4381,8,1739.4387,,,,1742.3882,1742.8865,1741.8712,1742.388,1740.4549,148,1741.8711,1742.8865,1743.3865,1743.3867,1744.67,998.6,1744.6704,2,1745.6694,8,8,248,18,1,1.4,0.7,Time
,,S20,815266,001,M,33,2025-05-21_13h55.09.172,Serial_Dependence_U,2023.2.3,Win32,59.52380952,62fd14d7b1e0729dc8aadb79,682cd3dfea4e15896da7c0a6,682dccded68f4d345aa86ec9,,,,,,,,,,,,1745.6708,8,1745.6714,,,,1748.8202,1749.3187,1748.3035,1748.82,1746.6872,0,1748.3034,1749.3187,1749.8186,1749.8186,1751.3857,1282.7,1751.3859,2,1752.3848,8,9,249,19,1,1.6,0.7,Time
,,S20,815266,001,M,33,2025-05-21_13h55.09.172,Serial_Dependence_U,2023.2.3,Win32,59.52380952,62fd14d7b1e0729dc8aadb79,682cd3dfea4e15896da7c0a6,682dccded68f4d345aa86ec9,,,,,,,,,,,,1752.3861,8,1752.3866,,,,1754.9358,1755.4344,1754.4193,1754.9356,1753.4027,256,1754.4191,1755.4344,1755.9343,1755.9345,1757.1348,982.2,1757.1352,3,1758.1339,8,10,250,6,1,1,0.7,Time
,,S20,815266,001,M,33,2025-05-21_13h55.09.172,Serial_Dependence_U,2023.2.3,Win32,59.52380952,62fd14d7b1e0729dc8aadb79,682cd3dfea4e15896da7c0a6,682dccded68f4d345aa86ec9,,,,,,,,,,,,1758.1351,8,1758.1356,,,,1760.885,1761.3834,1760.3683,1760.8848,1759.1519,61,1760.368,1761.3834,1761.8833,1761.8834,1763.2665,1300.8,1763.2667,4,1764.2663,8,11,251,22,1,1.2,0.3,Time
,,S20,815266,001,M,33,2025-05-21_13h55.09.172,Serial_Dependence_U,2023.2.3,Win32,59.52380952,62fd14d7b1e0729dc8aadb79,682cd3dfea4e15896da7c0a6,682dccded68f4d345aa86ec9,,,,,,,,,,,,1764.2675,8,1764.2681,,,,1767.2174,1767.7158,1766.7004,1767.2173,1765.284,283,1766.7003,1767.7158,1768.2151,1768.2151,1769.5657,1272.3,1769.5659,2,1770.5652,8,12,252,8,1,1.4,0.7,Time
,,S20,815266,001,M,33,2025-05-21_13h55.09.172,Serial_Dependence_U,2023.2.3,Win32,59.52380952,62fd14d7b1e0729dc8aadb79,682cd3dfea4e15896da7c0a6,682dccded68f4d345aa86ec9,,,,,,,,,,,,1770.5664,8,1770.5668,,,,1772.9164,1773.4144,1772.3993,1772.9163,1771.5831,124,1772.3992,1773.4144,1773.9146,1773.9146,1774.8991,929.9,1774.8995,4,1775.8986,8,13,253,5,1,0.8,0.7,Time
,,S20,815266,001,M,33,2025-05-21_13h55.09.172,Serial_Dependence_U,2023.2.3,Win32,59.52380952,62fd14d7b1e0729dc8aadb79,682cd3dfea4e15896da7c0a6,682dccded68f4d345aa86ec9,,,,,,,,,,,,1775.9001,8,1775.9008,,,,1778.8349,1779.3312,1778.32,1778.8347,1776.9044,149,1778.3199,1779.3314,1779.831,1779.8312,1781.0695,1165.5,1781.07,2,1782.0675,8,14,254,23,1,1.4,0.3,Time
,,S20,815266,001,M,33,2025-05-21_13h55.09.172,Serial_Dependence_U,2023.2.3,Win32,59.52380952,62fd14d7b1e0729dc8aadb79,682cd3dfea4e15896da7c0a6,682dccded68f4d345aa86ec9,,,,,,,,,,,,1782.0691,8,1782.0697,,,,1784.6187,1785.1137,1784.1022,1784.6184,1783.0862,99,1784.102,1785.1138,1785.6133,1785.6135,1786.5699,884.8,1786.5702,2,1787.5632,8,15,255,1,1,1,0.3,Time
,,S20,815266,001,M,33,2025-05-21_13h55.09.172,Serial_Dependence_U,2023.2.3,Win32,59.52380952,62fd14d7b1e0729dc8aadb79,682cd3dfea4e15896da7c0a6,682dccded68f4d345aa86ec9,,,,,,,,,,,,1787.5646,8,1787.5652,,,,1789.9016,1790.3963,1789.3854,1789.9016,1788.581,337,1789.3852,1790.3963,1790.8958,1790.896,1792.1202,1135.3,1792.1206,5,1793.1116,8,16,256,0,1,0.8,0.3,Time
,,S20,815266,001,M,33,2025-05-21_13h55.09.172,Serial_Dependence_U,2023.2.3,Win32,59.52380952,62fd14d7b1e0729dc8aadb79,682cd3dfea4e15896da7c0a6,682dccded68f4d345aa86ec9,,,,,,,,,,,,1793.1126,8,1793.1132,,,,1795.6626,1796.1611,1795.1459,1795.6626,1794.1293,86,1795.1457,1796.1611,1796.6609,1796.661,1797.5955,849.9,1797.5959,2,1798.5943,8,17,257,26,1,1,0.7,Time
,,S20,815266,001,M,33,2025-05-21_13h55.09.172,Serial_Dependence_U,2023.2.3,Win32,59.52380952,62fd14d7b1e0729dc8aadb79,682cd3dfea4e15896da7c0a6,682dccded68f4d345aa86ec9,,,,,,,,,,,,1798.5957,8,1798.5963,,,,1801.7277,1802.2271,1801.2109,1801.7275,1799.6004,244,1801.2108,1802.2272,1802.7268,1802.727,1804.0938,1250,1804.0941,2,1805.0934,8,18,258,9,1,1.6,0.7,Time
,,S20,815266,001,M,33,2025-05-21_13h55.09.172,Serial_Dependence_U,2023.2.3,Win32,59.52380952,62fd14d7b1e0729dc8aadb79,682cd3dfea4e15896da7c0a6,682dccded68f4d345aa86ec9,,,,,,,,,,,,1805.0947,8,1805.0955,,,,1808.2445,1808.7426,1807.7265,1808.2443,1806.1116,49,1807.7264,1808.7427,1809.2427,1809.2428,1810.7593,1390.4,1810.7596,2,1811.7587,8,19,259,29,1,1.6,0.7,Time
,,S20,815266,001,M,33,2025-05-21_13h55.09.172,Serial_Dependence_U,2023.2.3,Win32,59.52380952,62fd14d7b1e0729dc8aadb79,682cd3dfea4e15896da7c0a6,682dccded68f4d345aa86ec9,,,,,,,,,,,,1811.76,8,1811.7608,,,,1814.5095,1815.0082,1813.9937,1814.5093,1812.777,92,1813.9934,1815.0083,1815.5085,1815.5085,1816.4246,755.7,1816.4249,1,1817.4243,8,20,260,12,1,1.2,0.3,Time
,,S20,815266,001,M,33,2025-05-21_13h55.09.172,Serial_Dependence_U,2023.2.3,Win32,59.52380952,62fd14d7b1e0729dc8aadb79,682cd3dfea4e15896da7c0a6,682dccded68f4d345aa86ec9,,,,,,,,,,,,1817.4256,8,1817.4263,,,,1820.5744,1821.0736,1820.0584,1820.5743,1818.442,137,1820.0583,1821.0736,1821.5735,1821.5736,1823.1584,1068.4,1823.1587,1,1824.1566,8,21,261,4,1,1.6,0.3,Time
,,S20,815266,001,M,33,2025-05-21_13h55.09.172,Serial_Dependence_U,2023.2.3,Win32,59.52380952,62fd14d7b1e0729dc8aadb79,682cd3dfea4e15896da7c0a6,682dccded68f4d345aa86ec9,,,,,,,,,,,,1824.1577,8,1824.1583,,,,1827.1076,1827.6059,1826.5906,1827.1074,1825.1741,270,1826.5905,1827.6059,1828.1059,1828.106,1829.5066,1166,1829.507,2,1830.5054,8,22,262,3,1,1.4,0.3,Time
,,S20,815266,001,M,33,2025-05-21_13h55.09.172,Serial_Dependence_U,2023.2.3,Win32,59.52380952,62fd14d7b1e0729dc8aadb79,682cd3dfea4e15896da7c0a6,682dccded68f4d345aa86ec9,,,,,,,,,,,,1830.5069,8,1830.5074,,,,1833.2563,1833.7548,1832.7396,1833.2561,1831.5231,348,1832.7393,1833.7549,1834.2547,1834.2548,1835.7883,1297,1835.7886,4,1836.7879,8,23,263,27,1,1.2,0.7,Time
,,S20,815266,001,M,33,2025-05-21_13h55.09.172,Serial_Dependence_U,2023.2.3,Win32,59.52380952,62fd14d7b1e0729dc8aadb79,682cd3dfea4e15896da7c0a6,682dccded68f4d345aa86ec9,,,,,,,,,,,,1836.7892,8,1836.7898,,,,1839.3389,1839.8372,1838.8219,1839.3387,1837.8054,331,1838.8217,1839.8373,1840.3372,1840.3373,1841.788,1250.6,1841.7884,4,1842.7866,8,24,264,11,1,1,0.3,Time
,,S20,815266,001,M,33,2025-05-21_13h55.09.172,Serial_Dependence_U,2023.2.3,Win32,59.52380952,62fd14d7b1e0729dc8aadb79,682cd3dfea4e15896da7c0a6,682dccded68f4d345aa86ec9,,,,,,,,,,,,1842.7879,8,1842.7884,,,,1845.7377,1846.2361,1845.2206,1845.7376,1843.8045,336,1845.2205,1846.2362,1846.7361,1846.7361,1848.0028,1166.3,1848.0031,2,1849.0023,8,25,265,13,1,1.4,0.3,Time
,,S20,815266,001,M,33,2025-05-21_13h55.09.172,Serial_Dependence_U,2023.2.3,Win32,59.52380952,62fd14d7b1e0729dc8aadb79,682cd3dfea4e15896da7c0a6,682dccded68f4d345aa86ec9,,,,,,,,,,,,1849.0035,8,1849.004,,,,1851.3533,1851.8518,1850.8366,1851.3532,1850.0202,58,1850.8365,1851.8518,1852.352,1852.3522,1853.3194,891.8,1853.3198,4,1854.3182,8,26,266,20,1,0.8,0.3,Time
,,S20,815266,001,M,33,2025-05-21_13h55.09.172,Serial_Dependence_U,2023.2.3,Win32,59.52380952,62fd14d7b1e0729dc8aadb79,682cd3dfea4e15896da7c0a6,682dccded68f4d345aa86ec9,,,,,,,,,,,,1854.3192,8,1854.3198,,,,1857.069,1857.5675,1856.5527,1857.0689,1855.3358,100,1856.5525,1857.5675,1858.0676,1858.0677,1859.4012,1261.7,1859.4014,4,1860.4005,8,27,267,7,1,1.2,0.7,Time
,,S20,815266,001,M,33,2025-05-21_13h55.09.172,Serial_Dependence_U,2023.2.3,Win32,59.52380952,62fd14d7b1e0729dc8aadb79,682cd3dfea4e15896da7c0a6,682dccded68f4d345aa86ec9,,,,,,,,,,,,1860.4016,8,1860.4021,,,,1862.9513,1863.45,1862.4346,1862.9512,1861.4183,3,1862.4345,1863.4501,1863.9499,1863.95,1864.9838,994.1,1864.9841,3,1865.9828,8,28,268,21,1,1,0.3,Time
,,S20,815266,001,M,33,2025-05-21_13h55.09.172,Serial_Dependence_U,2023.2.3,Win32,59.52380952,62fd14d7b1e0729dc8aadb79,682cd3dfea4e15896da7c0a6,682dccded68f4d345aa86ec9,,,,,,,,,,,,1865.984,8,1865.9845,,,,1868.7338,1869.2323,1868.2172,1868.7336,1867.0007,105,1868.2171,1869.2323,1869.7322,1869.7322,1870.9669,982.4,1870.9673,2,1871.9651,8,29,269,17,1,1.2,0.7,Time
