Scale_setup.started,Scale_setup.stopped,participant,session,sex,age,date,expName,psychopyVersion,OS,frameRate,Intro.started,Intro.stopped,key_resp_2.keys,key_resp_2.rt,key_resp_2.duration,block.started,direction,Block_id,block.stopped,trial_direction,Block_resp_2.keys,Block_resp_2.rt,Block_resp_2.duration,ITI.started,ITI.stopped,Mask_2.started,Mask_2.stopped,encoding.started,encoding.stopped,Cue.started,Cue.stopped,Response.started,Response.stopped,keyDuration,Feedback_Time.started,FeedbackID_T,Feedback_Time.stopped,trials.thisRepN,trials.thisTrialN,trials.thisN,trials.thisIndex,trials.ran,TimeDur,Coherence1,TrialType
0.0002000000029767,0.0004000000022301,S21,1,女,21,anonymized,Serial_Dependence_U,2023.2.3,Win32,178.57142857124296,,,,,,,,,,,,,,,,,,,,,,,,,,,,,,,,,,,
,,S21,1,女,21,anonymized,Serial_Dependence_U,2023.2.3,Win32,178.57142857124296,280.8538000000008,457.7608000000007,space,176.8908000000009,,,,,,,,,,,,,,,,,,,,,,,,,,,,,,,
,,S21,1,女,21,anonymized,Serial_Dependence_U,2023.2.3,Win32,178.57142857124296,,,,,,457.769,60.0,0.0,473.6865,60.0,s,15.909300000000712,,477.030700000003,477.531,476.52600000000007,477.0306000000014,474.6924000000022,476.5259000000021,477.5311000000015,478.0309000000023,478.0311000000015,552.0699999999999,165.0,552.0701000000015,1.0,553.0699000000022,0.0,0.0,0.0,25.0,1.0,0.8,0.7,Time
,,S21,1,女,21,anonymized,Serial_Dependence_U,2023.2.3,Win32,178.57142857124296,,,,,,553.0703000000008,157.0,0.0,553.0709999999999,157.0,,,,556.608700000003,557.1089000000022,556.1041000000014,556.6085,554.0706000000014,556.1039000000021,557.1089000000022,557.6089000000022,557.6089999999999,568.6755,145.0,568.6755,1.0,569.675,0.0,1.0,1.0,16.0,1.0,1.0,0.7,Time
,,S21,1,女,21,anonymized,Serial_Dependence_U,2023.2.3,Win32,178.57142857124296,,,,,,569.6752000000029,83.0,0.0,569.6753000000008,83.0,,,,573.2194999999999,573.7191000000014,572.7139999999999,573.2194000000022,570.6807000000028,572.7138000000007,573.7191000000014,574.2183000000007,574.2183000000007,575.1749000000023,105.0,575.175,1.0,576.1743000000008,0.0,2.0,2.0,26.0,1.0,1.0,0.7,Time
,,S21,1,女,21,anonymized,Serial_Dependence_U,2023.2.3,Win32,178.57142857124296,,,,,,576.1746000000014,208.0,0.0,576.174700000003,208.0,,,,580.1189000000022,580.6186000000014,579.6134000000022,580.1188000000006,577.1795,579.6133000000007,580.6186000000014,581.1185,581.1185,582.0636000000015,141.0,582.0636000000015,1.0,583.0619999999999,0.0,3.0,3.0,28.0,1.0,1.4,0.7,Time
,,S21,1,女,21,anonymized,Serial_Dependence_U,2023.2.3,Win32,178.57142857124296,,,,,,583.0625,278.0,0.0,583.0626000000016,278.0,,,,587.0066000000015,587.5069000000021,586.502,587.0065,584.0686000000014,586.5018000000007,587.5069000000021,588.0068000000008,588.0069000000021,590.0517000000029,116.0,590.0517000000029,1.0,591.0514000000021,0.0,4.0,4.0,8.0,1.0,1.4,0.7,Time
,,S21,1,女,21,anonymized,Serial_Dependence_U,2023.2.3,Win32,178.57142857124296,,,,,,591.0517000000029,158.0,0.0,591.0517000000029,158.0,,,,594.4179999999999,594.9168000000006,593.9126000000015,594.4178000000006,592.0516000000014,593.9124999999999,594.9169000000022,595.4175,595.4175,596.901200000003,94.0,596.901200000003,1.0,597.8999999999999,0.0,5.0,5.0,0.0,1.0,0.8,0.3,Time
,,S21,1,女,21,anonymized,Serial_Dependence_U,2023.2.3,Win32,178.57142857124296,,,,,,597.9003000000007,232.0,0.0,597.9005,232.0,,,,601.8676000000014,602.367,601.3620000000001,601.8674000000021,598.901200000003,601.3619000000022,602.367,602.867,602.867,603.8341000000014,200.0,603.834200000003,1.0,604.8328000000008,0.0,6.0,6.0,13.0,1.0,1.4,0.3,Time
,,S21,1,女,21,anonymized,Serial_Dependence_U,2023.2.3,Win32,178.57142857124296,,,,,,604.8331000000014,247.0,0.0,604.8333000000007,247.0,,,,608.5726000000016,609.0721000000015,608.0671000000013,608.5726000000016,605.8339000000021,608.067,609.0721000000015,609.5714000000023,609.5714000000023,613.8157000000031,227.0,613.8157000000031,1.0,614.8162000000029,0.0,7.0,7.0,17.0,1.0,1.2,0.7,Time
,,S21,1,女,21,anonymized,Serial_Dependence_U,2023.2.3,Win32,178.57142857124296,,,,,,614.8166000000015,98.0,0.0,614.8166000000015,98.0,,,,618.9608000000007,619.4603000000006,618.4555,618.960700000003,615.8219000000022,618.4554000000021,619.4603000000006,619.9596000000015,619.9597000000028,620.8996000000016,133.0,620.8996000000016,1.0,621.8984000000023,0.0,8.0,8.0,9.0,1.0,1.6,0.7,Time
,,S21,1,女,21,anonymized,Serial_Dependence_U,2023.2.3,Win32,178.57142857124296,,,,,,621.8986000000014,356.0,0.0,621.8987000000029,356.0,,,,625.4659000000022,625.9648000000007,624.9604999999999,625.4658000000006,622.8999000000022,624.9604000000022,625.9648000000007,626.4654000000021,626.4655,678.1227000000029,116.0,678.1227000000029,1.0,679.1223000000007,0.0,9.0,9.0,11.0,1.0,1.0,0.3,Time
,,S21,1,女,21,anonymized,Serial_Dependence_U,2023.2.3,Win32,178.57142857124296,,,,,,679.1226000000015,92.0,0.0,679.1227000000029,92.0,,,,682.894700000003,683.3942000000029,682.389200000003,682.8946000000014,680.1279000000022,682.3891000000015,683.3943000000006,683.8942000000029,683.8942000000029,684.5164000000022,270.0,684.5165,1.0,685.5163000000007,0.0,10.0,10.0,22.0,1.0,1.2,0.3,Time
,,S21,1,女,21,anonymized,Serial_Dependence_U,2023.2.3,Win32,178.57142857124296,,,,,,685.5166000000015,156.0,0.0,685.5167000000029,156.0,,,,689.4884999999999,689.9881000000014,688.9831000000015,689.4884999999999,686.5221000000015,688.983,689.988200000003,690.488200000003,690.488200000003,692.0882000000029,94.0,692.0883000000008,1.0,693.0879000000023,0.0,11.0,11.0,3.0,1.0,1.4,0.3,Time
,,S21,1,女,21,anonymized,Serial_Dependence_U,2023.2.3,Win32,178.57142857124296,,,,,,693.0881000000015,254.0,0.0,693.0882000000029,254.0,,,,697.0325,697.5321000000015,696.5271000000014,697.0324000000021,694.0938000000008,696.527,697.5321000000015,698.0321000000015,698.0322000000031,704.1376000000014,95.0,704.1376000000014,1.0,705.1372000000028,0.0,12.0,12.0,18.0,1.0,1.4,0.7,Time
,,S21,1,女,21,anonymized,Serial_Dependence_U,2023.2.3,Win32,178.57142857124296,,,,,,705.1373000000008,316.0,0.0,705.1375,316.0,,,,709.2824000000021,709.7819999999999,708.777,709.2824000000021,706.1429000000021,708.7769000000021,709.7821000000015,710.2819999999999,710.2819999999999,784.7722000000028,106.0,784.7722000000028,1.0,785.770700000003,0.0,13.0,13.0,29.0,1.0,1.6,0.7,Time
,,S21,1,女,21,anonymized,Serial_Dependence_U,2023.2.3,Win32,178.57142857124296,,,,,,785.7711000000015,279.0,0.0,785.7712000000029,279.0,,,,789.5381000000014,790.0374999999999,789.0327000000029,789.5381000000014,786.771700000003,789.0326000000014,790.0374999999999,790.5369000000021,790.537,792.2204000000022,88.0,792.2204999999999,1.0,793.2201000000014,0.0,14.0,14.0,2.0,1.0,1.2,0.3,Time
,,S21,1,女,21,anonymized,Serial_Dependence_U,2023.2.3,Win32,178.57142857124296,,,,,,793.2204000000022,241.0,0.0,793.2204000000022,241.0,,,,797.364700000003,797.8643000000006,796.8599000000022,797.3646000000015,794.2268000000008,796.8598000000006,797.8643000000006,798.3649000000023,798.3649000000023,799.0154000000023,100.0,799.0155,1.0,800.0147000000029,0.0,15.0,15.0,19.0,1.0,1.6,0.7,Time
,,S21,1,女,21,anonymized,Serial_Dependence_U,2023.2.3,Win32,178.57142857124296,,,,,,800.0148000000006,62.0,0.0,800.0151000000014,62.0,,,,803.7594999999999,804.258200000003,803.2539999999999,803.7594000000022,801.020700000003,803.2539999999999,804.258200000003,804.7589000000023,804.7589000000023,804.9697000000031,82.0,804.9698000000008,1.0,805.9693000000007,0.0,16.0,16.0,27.0,1.0,1.2,0.7,Time
,,S21,1,女,21,anonymized,Serial_Dependence_U,2023.2.3,Win32,178.57142857124296,,,,,,805.9696000000015,162.0,0.0,805.9697000000031,162.0,,,,809.5424000000023,810.0412000000028,809.0369000000021,809.5423000000008,806.9759000000022,809.0368000000008,810.0412000000028,810.5412000000028,810.5412000000028,810.6704000000022,95.0,810.6704000000022,1.0,811.6688000000006,0.0,17.0,17.0,21.0,1.0,1.0,0.3,Time
,,S21,1,女,21,anonymized,Serial_Dependence_U,2023.2.3,Win32,178.57142857124296,,,,,,811.6689000000022,28.0,0.0,811.6691000000014,28.0,,,,815.0084999999999,815.508200000003,814.5032000000031,815.0084999999999,812.670200000003,814.5031000000015,815.508200000003,816.0074999999999,816.0076000000015,820.4641000000015,108.0,820.4642000000028,1.0,821.462700000003,0.0,18.0,18.0,15.0,1.0,0.8,0.7,Time
,,S21,1,女,21,anonymized,Serial_Dependence_U,2023.2.3,Win32,178.57142857124296,,,,,,821.463,249.0,0.0,821.4631000000015,249.0,,,,824.8024000000023,825.3023000000007,824.297,824.8023000000007,822.4639000000022,824.2969000000021,825.3023000000007,825.8013000000008,825.8013000000008,828.6965,84.0,828.6965,1.0,829.6966000000014,0.0,19.0,19.0,5.0,1.0,0.8,0.7,Time
,,S21,1,女,21,anonymized,Serial_Dependence_U,2023.2.3,Win32,178.57142857124296,,,,,,829.6967000000029,13.0,0.0,829.6968000000006,13.0,,,,833.8686000000014,834.3683000000008,833.3631000000014,833.8685,830.7018000000007,833.3631000000014,834.3683000000008,834.8679999999999,834.8679999999999,835.6631000000014,78.0,835.6631000000014,1.0,836.6624000000022,0.0,20.0,20.0,14.0,1.0,1.6,0.3,Time
,,S21,1,女,21,anonymized,Serial_Dependence_U,2023.2.3,Win32,178.57142857124296,,,,,,836.6626000000015,339.0,0.0,836.6628000000007,339.0,,,,840.0292000000029,840.5281000000014,839.5238000000006,840.0291000000016,837.662700000003,839.5238000000006,840.5281000000014,841.028700000003,841.028700000003,841.2179000000021,101.0,841.2179000000021,1.0,842.2176000000015,0.0,21.0,21.0,10.0,1.0,0.8,0.3,Time
,,S21,1,女,21,anonymized,Serial_Dependence_U,2023.2.3,Win32,178.57142857124296,,,,,,842.2179000000021,92.0,0.0,842.2180000000001,92.0,,,,845.9566000000016,846.4554000000021,845.4512000000029,845.9565,843.2178000000008,845.451,846.4554000000021,846.9559999999999,846.9559999999999,854.3829000000021,164.0,854.3829000000021,1.0,855.3826000000015,0.0,22.0,22.0,7.0,1.0,1.2,0.7,Time
,,S21,1,女,21,anonymized,Serial_Dependence_U,2023.2.3,Win32,178.57142857124296,,,,,,855.3828000000008,77.0,0.0,855.3829000000021,77.0,,,,858.7504000000022,859.2489000000021,858.2502000000029,858.7503000000006,856.389200000003,858.25,859.249,859.749,859.749,860.0224000000021,133.0,860.0224000000021,1.0,861.0212000000029,0.0,23.0,23.0,20.0,1.0,0.8,0.3,Time
,,S21,1,女,21,anonymized,Serial_Dependence_U,2023.2.3,Win32,178.57142857124296,,,,,,861.0213000000008,275.0,0.0,861.0214000000021,275.0,,,,865.1887000000029,865.688200000003,864.6831000000016,865.1886000000015,862.0223000000008,864.6831000000016,865.688200000003,866.1874000000023,866.1875,866.9608000000007,89.0,866.9609000000023,1.0,867.9606000000015,0.0,24.0,24.0,24.0,1.0,1.6,0.3,Time
,,S21,1,女,21,anonymized,Serial_Dependence_U,2023.2.3,Win32,178.57142857124296,,,,,,867.9608000000007,319.0,0.0,867.9609000000023,319.0,,,,871.932700000003,872.4314999999999,871.4271000000015,871.9326000000015,868.9663000000007,871.4271000000015,872.4314999999999,872.9321000000014,872.9322000000029,873.905,78.0,873.905,1.0,874.9034999999999,0.0,25.0,25.0,23.0,1.0,1.4,0.3,Time
,,S21,1,女,21,anonymized,Serial_Dependence_U,2023.2.3,Win32,178.57142857124296,,,,,,874.9038000000007,170.0,0.0,874.904,170.0,,,,878.4479999999999,878.9484000000023,877.9434000000022,878.4479000000022,875.9103000000007,877.9432000000029,878.9484000000023,879.4484000000023,879.4484000000023,881.887700000003,83.0,881.8878000000007,1.0,882.8872000000028,0.0,26.0,26.0,6.0,1.0,1.0,0.7,Time
,,S21,1,女,21,anonymized,Serial_Dependence_U,2023.2.3,Win32,178.57142857124296,,,,,,882.8875,283.0,0.0,882.8875,283.0,,,,886.454,886.952700000003,885.9484000000023,886.4538000000007,883.8866000000014,885.948200000003,886.952700000003,887.4533000000008,887.4533000000008,889.3096000000014,89.0,889.3096000000014,1.0,890.3093000000008,0.0,27.0,27.0,1.0,1.0,1.0,0.3,Time
,,S21,1,女,21,anonymized,Serial_Dependence_U,2023.2.3,Win32,178.57142857124296,,,,,,890.3094000000021,213.0,0.0,890.3095000000001,213.0,,,,894.4757000000029,894.9751000000015,893.9704000000022,894.4755,891.3095000000001,893.9703000000006,894.9751000000015,895.4749999999999,895.4749999999999,895.9533000000008,111.0,895.9533000000008,1.0,896.9531000000015,0.0,28.0,28.0,4.0,1.0,1.6,0.3,Time
,,S21,1,女,21,anonymized,Serial_Dependence_U,2023.2.3,Win32,178.57142857124296,,,,,,896.9533000000008,255.0,0.0,896.9534000000021,255.0,,,,900.7253000000007,901.224,900.2197000000031,900.7253000000007,897.9586000000015,900.2196000000015,901.224,901.7239000000022,901.7239000000022,910.2358000000006,150.0,910.2359000000022,1.0,911.234400000002,0.0,29.0,29.0,12.0,1.0,1.2,0.3,Time
,,S21,1,女,21,anonymized,Serial_Dependence_U,2023.2.3,Win32,178.57142857124296,,,,,,911.2347000000028,245.0,1.0,926.5711000000016,245.0,s,15.324300000000676,,929.9456000000014,930.4442000000028,929.4399999999998,929.9454999999998,927.5782000000028,929.4399999999998,930.4442000000028,930.9442000000028,930.9442000000028,933.4788000000004,95.0,933.4788000000004,1.0,933.483,1.0,0.0,30.0,10.0,1.0,0.8,0.3,Time
,,S21,1,女,21,anonymized,Serial_Dependence_U,2023.2.3,Win32,178.57142857124296,,,,,,933.4833000000006,332.0,1.0,933.4839000000022,332.0,,,,937.6283000000008,938.127700000003,937.122900000002,937.6283000000008,934.4895,937.1228000000006,938.127700000003,938.6271000000012,938.6271000000012,941.0114999999998,83.0,941.0116000000014,1.0,941.0158000000006,1.0,1.0,31.0,19.0,1.0,1.6,0.7,Time
,,S21,1,女,21,anonymized,Serial_Dependence_U,2023.2.3,Win32,178.57142857124296,,,,,,941.016200000003,7.0,1.0,941.016200000003,7.0,,,,944.9833000000006,945.4828000000008,944.4778000000006,944.9832000000029,942.0169999999998,944.4777000000028,945.4828000000008,945.9824999999998,945.9824999999998,947.049,95.0,947.049,1.0,947.0532000000028,1.0,2.0,32.0,3.0,1.0,1.4,0.3,Time
,,S21,1,女,21,anonymized,Serial_Dependence_U,2023.2.3,Win32,178.57142857124296,,,,,,947.053400000002,234.0,1.0,947.053400000002,234.0,,,,950.6329999999998,951.1318000000006,950.127400000002,950.6328000000008,948.0608000000008,950.1273000000006,951.131900000002,951.6317000000028,951.6317000000028,952.5717000000028,133.0,952.5718000000006,1.0,952.575900000002,1.0,3.0,33.0,1.0,1.0,1.0,0.3,Time
,,S21,1,女,21,anonymized,Serial_Dependence_U,2023.2.3,Win32,178.57142857124296,,,,,,952.576,287.0,1.0,952.5762000000028,287.0,,,,956.1437000000028,956.6431000000014,955.638,956.1436000000016,953.5774000000022,955.6379000000022,956.6431000000014,957.1425,957.1425,964.0988000000008,250.0,964.0988000000008,1.0,964.1031000000014,1.0,4.0,34.0,21.0,1.0,1.0,0.3,Time
,,S21,1,女,21,anonymized,Serial_Dependence_U,2023.2.3,Win32,178.57142857124296,,,,,,964.1034000000022,224.0,1.0,964.1034000000022,224.0,,,,968.0428000000006,968.541700000003,967.5375,968.0428000000006,965.1043000000006,967.5373000000006,968.5418000000006,969.0416000000014,969.0416000000014,970.1818000000007,104.0,970.1818000000007,1.0,970.1859000000022,1.0,5.0,35.0,18.0,1.0,1.4,0.7,Time
,,S21,1,女,21,anonymized,Serial_Dependence_U,2023.2.3,Win32,178.57142857124296,,,,,,970.1861000000016,347.0,1.0,970.1862000000028,347.0,,,,974.3306000000014,974.8302000000028,973.825900000002,974.3304999999998,971.191900000002,973.8258000000008,974.8302000000028,975.3301000000016,975.3301000000016,976.8646000000016,83.0,976.8647000000028,1.0,976.8689000000022,1.0,6.0,36.0,29.0,1.0,1.6,0.7,Time
,,S21,1,女,21,anonymized,Serial_Dependence_U,2023.2.3,Win32,178.57142857124296,,,,,,976.8691000000016,231.0,1.0,976.8692000000028,231.0,,,,980.2366000000012,980.7363000000008,979.7308000000008,980.236400000002,977.8692000000028,979.7307000000028,980.7363000000008,981.2353000000008,981.2353000000008,982.274400000002,124.0,982.274400000002,1.0,982.2786000000016,1.0,7.0,37.0,20.0,1.0,0.8,0.3,Time
,,S21,1,女,21,anonymized,Serial_Dependence_U,2023.2.3,Win32,178.57142857124296,,,,,,982.2788000000008,4.0,1.0,982.278900000002,4.0,,,,986.2195,986.718200000003,985.714,986.2194000000022,983.280700000003,985.7138000000008,986.718200000003,987.218900000002,987.218900000002,988.2693000000006,112.0,988.2693000000006,1.0,988.2735,1.0,8.0,38.0,8.0,1.0,1.4,0.7,Time
,,S21,1,女,21,anonymized,Serial_Dependence_U,2023.2.3,Win32,178.57142857124296,,,,,,988.2736000000014,32.0,1.0,988.2737000000028,32.0,,,,992.4133000000006,992.9122000000028,991.908,992.4132000000028,989.274,991.9079000000022,992.9122000000028,993.412900000002,993.413,994.1136000000016,128.0,994.1136000000016,1.0,994.1178000000008,1.0,9.0,39.0,9.0,1.0,1.6,0.7,Time
,,S21,1,女,21,anonymized,Serial_Dependence_U,2023.2.3,Win32,178.57142857124296,,,,,,994.118,137.0,1.0,994.118,137.0,,,,998.0853000000006,998.5848000000008,997.5798000000008,998.0851000000014,995.118700000003,997.579700000003,998.5848000000008,999.0839999999998,999.0841000000014,999.5131000000016,95.0,999.5131000000016,1.0,999.517200000003,1.0,10.0,40.0,23.0,1.0,1.4,0.3,Time
,,S21,1,女,21,anonymized,Serial_Dependence_U,2023.2.3,Win32,178.57142857124296,,,,,,999.5174000000022,341.0,1.0,999.5174000000022,341.0,,,,1003.290400000002,1003.7902000000028,1002.7849000000022,1003.2903000000006,1000.5241000000016,1002.7849000000022,1003.7902000000028,1004.2902000000028,1004.2902000000028,1004.7685,61.0,1004.7685,1.0,1004.7727000000028,1.0,11.0,41.0,22.0,1.0,1.2,0.3,Time
,,S21,1,女,21,anonymized,Serial_Dependence_U,2023.2.3,Win32,178.57142857124296,,,,,,1004.7728000000006,286.0,1.0,1004.773,286.0,,,,1008.517200000003,1009.0167000000029,1008.0123000000006,1008.5171000000014,1005.7794000000022,1008.0122000000028,1009.0168000000006,1009.5167000000029,1009.5167000000029,1010.429,96.0,1010.429,1.0,1010.4331000000012,1.0,12.0,42.0,17.0,1.0,1.2,0.7,Time
,,S21,1,女,21,anonymized,Serial_Dependence_U,2023.2.3,Win32,178.57142857124296,,,,,,1010.4333000000006,19.0,1.0,1010.4334000000022,19.0,,,,1013.9786000000016,1014.478200000003,1013.4732000000027,1013.9785,1011.439200000003,1013.4731000000012,1014.478200000003,1014.9781000000014,1014.9781000000014,1015.1344000000022,62.0,1015.1345,1.0,1015.1386000000014,1.0,13.0,43.0,6.0,1.0,1.0,0.7,Time
,,S21,1,女,21,anonymized,Serial_Dependence_U,2023.2.3,Win32,178.57142857124296,,,,,,1015.1391000000016,36.0,1.0,1015.1393000000008,36.0,,,,1018.8829999999998,1019.3827000000028,1018.3783000000008,1018.8828000000008,1016.1454000000022,1018.3781000000016,1019.3827000000028,1019.8831000000014,1019.8831000000014,1020.9106000000012,111.0,1020.9107000000027,1.0,1020.914900000002,1.0,14.0,44.0,7.0,1.0,1.2,0.7,Time
,,S21,1,女,21,anonymized,Serial_Dependence_U,2023.2.3,Win32,178.57142857124296,,,,,,1020.915,271.0,1.0,1020.9151000000012,271.0,,,,1024.6605,1025.1601000000014,1024.155800000001,1024.6604000000025,1021.9225,1024.155700000003,1025.1601000000014,1025.6607000000029,1025.6607000000029,1028.6389000000022,72.0,1028.6389000000022,1.0,1028.6431000000014,1.0,15.0,45.0,27.0,1.0,1.2,0.7,Time
,,S21,1,女,21,anonymized,Serial_Dependence_U,2023.2.3,Win32,178.57142857124296,,,,,,1028.6434000000022,230.0,1.0,1028.6436000000017,230.0,,,,1032.587700000003,1033.0873000000006,1032.0831000000014,1032.587700000003,1029.6499000000022,1032.0829000000022,1033.0874000000022,1033.587900000002,1033.588,1033.8055,139.0,1033.8056000000015,1.0,1033.809800000001,1.0,16.0,46.0,28.0,1.0,1.4,0.7,Time
,,S21,1,女,21,anonymized,Serial_Dependence_U,2023.2.3,Win32,178.57142857124296,,,,,,1033.8099000000022,200.0,1.0,1033.8099000000022,200.0,,,,1037.977200000003,1038.4758000000006,1037.4716000000014,1037.977200000003,1034.811,1037.4713000000006,1038.4758000000006,1038.976700000003,1038.976700000003,1040.2214000000022,89.0,1040.2215,1.0,1040.2255,1.0,17.0,47.0,4.0,1.0,1.6,0.3,Time
,,S21,1,女,21,anonymized,Serial_Dependence_U,2023.2.3,Win32,178.57142857124296,,,,,,1040.225700000003,178.0,1.0,1040.2258000000006,178.0,,,,1043.5602000000029,1044.0588000000007,1043.0592000000029,1043.5602000000029,1041.2268000000006,1043.0591000000013,1044.0588000000007,1044.559400000002,1044.5594999999998,1044.732400000002,122.0,1044.732400000002,1.0,1044.736600000001,1.0,18.0,48.0,25.0,1.0,0.8,0.7,Time
,,S21,1,女,21,anonymized,Serial_Dependence_U,2023.2.3,Win32,178.57142857124296,,,,,,1044.736600000001,44.0,1.0,1044.7367000000029,44.0,,,,1048.1043000000006,1048.6034000000022,1047.5984999999998,1048.104200000003,1045.7378000000006,1047.5984999999998,1048.6034000000022,1049.1035,1049.1036000000015,1050.437400000002,122.0,1050.4375,1.0,1050.4415,1.0,19.0,49.0,0.0,1.0,0.8,0.3,Time
,,S21,1,女,21,anonymized,Serial_Dependence_U,2023.2.3,Win32,178.57142857124296,,,,,,1050.4417000000028,47.0,1.0,1050.4417000000028,47.0,,,,1053.7809000000022,1054.280400000002,1053.2761000000014,1053.780800000001,1051.4428000000007,1053.2759999999998,1054.280400000002,1054.781,1054.781,1056.4372000000028,90.0,1056.4372000000028,1.0,1056.4414000000022,1.0,20.0,50.0,15.0,1.0,0.8,0.7,Time
,,S21,1,女,21,anonymized,Serial_Dependence_U,2023.2.3,Win32,178.57142857124296,,,,,,1056.4416000000017,291.0,1.0,1056.4417000000028,291.0,,,,1059.7867000000028,1060.2855,1059.2813000000006,1059.7865,1057.447,1059.2813000000006,1060.2856000000013,1060.7855,1060.7856000000013,1061.2033000000006,122.0,1061.203400000002,1.0,1061.2075,1.0,21.0,51.0,5.0,1.0,0.8,0.7,Time
,,S21,1,女,21,anonymized,Serial_Dependence_U,2023.2.3,Win32,178.57142857124296,,,,,,1061.207600000001,135.0,1.0,1061.207700000003,135.0,,,,1064.9752000000028,1065.474,1064.4696000000015,1064.9752000000028,1062.2087000000029,1064.4696000000015,1065.4741000000015,1065.9749000000022,1065.975,1067.080700000003,105.0,1067.080700000003,1.0,1067.0847000000028,1.0,22.0,52.0,2.0,1.0,1.2,0.3,Time
,,S21,1,女,21,anonymized,Serial_Dependence_U,2023.2.3,Win32,178.57142857124296,,,,,,1067.0849999999998,344.0,1.0,1067.0849999999998,344.0,,,,1070.6582000000028,1071.157700000003,1070.1527000000028,1070.658,1068.0918000000006,1070.1526000000017,1071.157700000003,1071.657700000003,1071.657700000003,1072.1183000000003,80.0,1072.1183000000003,1.0,1072.1225,1.0,23.0,53.0,11.0,1.0,1.0,0.3,Time
,,S21,1,女,21,anonymized,Serial_Dependence_U,2023.2.3,Win32,178.57142857124296,,,,,,1072.1227000000029,104.0,1.0,1072.1227000000029,104.0,,,,1075.6634000000022,1076.1621000000014,1075.1579000000022,1075.6633000000006,1073.1245,1075.1579000000022,1076.162200000003,1076.663,1076.663,1078.056900000002,44.0,1078.057,1.0,1078.061,1.0,24.0,54.0,16.0,1.0,1.0,0.7,Time
,,S21,1,女,21,anonymized,Serial_Dependence_U,2023.2.3,Win32,178.57142857124296,,,,,,1078.0613000000008,348.0,1.0,1078.0613000000008,348.0,,,,1082.235400000002,1082.7339000000022,1081.729900000002,1082.235400000002,1079.0633000000007,1081.7298000000008,1082.7339000000022,1083.234,1083.234,1084.4853000000007,89.0,1084.4853000000007,1.0,1084.4896000000017,1.0,25.0,55.0,24.0,1.0,1.6,0.3,Time
,,S21,1,女,21,anonymized,Serial_Dependence_U,2023.2.3,Win32,178.57142857124296,,,,,,1084.489900000002,129.0,1.0,1084.489900000002,129.0,,,,1088.261800000001,1088.7613000000006,1087.7568000000006,1088.261800000001,1085.4961000000014,1087.7568000000006,1088.7613000000006,1089.2613000000006,1089.261400000002,1090.029200000003,92.0,1090.029200000003,1.0,1090.0332000000028,1.0,26.0,56.0,12.0,1.0,1.2,0.3,Time
,,S21,1,女,21,anonymized,Serial_Dependence_U,2023.2.3,Win32,178.57142857124296,,,,,,1090.033400000002,199.0,1.0,1090.0336000000011,199.0,,,,1093.5738000000006,1094.073,1093.067900000002,1093.5736000000013,1091.0339000000022,1093.067900000002,1094.073,1094.5721000000017,1094.5721000000017,1094.8903000000007,95.0,1094.8903000000007,1.0,1094.8945,1.0,27.0,57.0,26.0,1.0,1.0,0.7,Time
,,S21,1,女,21,anonymized,Serial_Dependence_U,2023.2.3,Win32,178.57142857124296,,,,,,1094.8948000000007,296.0,1.0,1094.8948000000007,296.0,,,,1098.8676000000014,1099.3669000000025,1098.362,1098.8674999999998,1095.9011000000014,1098.3619000000022,1099.3669000000025,1099.866,1099.866100000001,1100.9342000000029,56.0,1100.9342000000029,1.0,1100.9381000000014,1.0,28.0,58.0,13.0,1.0,1.4,0.3,Time
,,S21,1,女,21,anonymized,Serial_Dependence_U,2023.2.3,Win32,178.57142857124296,,,,,,1100.9383000000007,109.0,1.0,1100.938400000002,109.0,,,,1105.111600000001,1105.6109000000022,1104.605900000002,1105.111600000001,1101.945,1104.605900000002,1105.6109000000022,1106.1102000000028,1106.1102000000028,1108.6727000000028,123.0,1108.6727000000028,1.0,1108.6773000000007,1.0,29.0,59.0,14.0,1.0,1.6,0.3,Time
,,S21,1,女,21,anonymized,Serial_Dependence_U,2023.2.3,Win32,178.57142857124296,,,,,,1108.6775,159.0,2.0,1120.580400000002,159.0,s,11.895399999998515,,1124.526900000002,1125.026300000001,1124.0213000000006,1124.5266000000015,1121.5881000000013,1124.0212000000029,1125.026300000001,1125.5256000000013,1125.5256000000013,1126.349,121.0,1126.349,1.0,1126.3531000000014,2.0,0.0,60.0,28.0,1.0,1.4,0.7,Time
,,S21,1,女,21,anonymized,Serial_Dependence_U,2023.2.3,Win32,178.57142857124296,,,,,,1126.3534000000022,344.0,2.0,1126.354200000003,344.0,,,,1130.098700000003,1130.598,1129.5931000000014,1130.0986000000014,1127.3598000000006,1129.5931000000014,1130.598,1131.0974000000022,1131.0975,1131.5318000000009,72.0,1131.5319000000022,1.0,1131.5359999999998,2.0,1.0,61.0,17.0,1.0,1.2,0.7,Time
,,S21,1,女,21,anonymized,Serial_Dependence_U,2023.2.3,Win32,178.57142857124296,,,,,,1131.536200000003,237.0,2.0,1131.536300000001,237.0,,,,1135.308700000003,1135.808900000002,1134.804200000003,1135.3086000000014,1132.5429000000022,1134.8041000000014,1135.808900000002,1136.3083000000006,1136.3083000000006,1136.5485,89.0,1136.5485,1.0,1136.5526000000011,2.0,2.0,62.0,22.0,1.0,1.2,0.3,Time
,,S21,1,女,21,anonymized,Serial_Dependence_U,2023.2.3,Win32,178.57142857124296,,,,,,1136.552700000003,80.0,2.0,1136.552700000003,80.0,,,,1140.6971000000017,1141.196700000003,1140.1923000000006,1140.6969000000022,1137.5594999999998,1140.192200000003,1141.196700000003,1141.696700000003,1141.696700000003,1141.8535,111.0,1141.8535,1.0,1141.8579000000022,2.0,3.0,63.0,9.0,1.0,1.6,0.7,Time
,,S21,1,女,21,anonymized,Serial_Dependence_U,2023.2.3,Win32,178.57142857124296,,,,,,1141.8581000000015,161.0,2.0,1141.8582000000029,161.0,,,,1146.0309000000022,1146.529700000003,1145.525400000002,1146.030800000001,1142.8647000000028,1145.525200000003,1146.529700000003,1147.0298000000007,1147.0298000000007,1147.1313000000007,89.0,1147.1313000000007,1.0,1147.1355,2.0,4.0,64.0,4.0,1.0,1.6,0.3,Time
,,S21,1,女,21,anonymized,Serial_Dependence_U,2023.2.3,Win32,178.57142857124296,,,,,,1147.1356000000014,19.0,2.0,1147.135700000003,19.0,,,,1151.0748000000006,1151.5745,1150.5694999999998,1151.0746000000015,1148.1362000000029,1150.5694999999998,1151.5745,1152.0744000000022,1152.0745,1153.097100000001,85.0,1153.0972000000029,1.0,1153.1013000000007,2.0,5.0,65.0,8.0,1.0,1.4,0.7,Time
,,S21,1,女,21,anonymized,Serial_Dependence_U,2023.2.3,Win32,178.57142857124296,,,,,,1153.101400000002,58.0,2.0,1153.101600000001,58.0,,,,1157.0683000000006,1157.5686000000014,1156.563600000001,1157.068200000003,1154.1026000000013,1156.563600000001,1157.5686000000014,1158.068700000003,1158.068700000003,1158.152200000003,72.0,1158.1523000000009,1.0,1158.1563000000006,2.0,6.0,66.0,13.0,1.0,1.4,0.3,Time
,,S21,1,女,21,anonymized,Serial_Dependence_U,2023.2.3,Win32,178.57142857124296,,,,,,1158.1564999999998,231.0,2.0,1158.1564999999998,231.0,,,,1161.9021000000014,1162.4008000000006,1161.3966000000014,1161.901900000002,1159.1624000000022,1161.3964999999998,1162.400900000002,1162.9016000000015,1162.9016000000015,1164.9131000000014,105.0,1164.9131000000014,1.0,1164.9175,2.0,7.0,67.0,7.0,1.0,1.2,0.7,Time
,,S21,1,女,21,anonymized,Serial_Dependence_U,2023.2.3,Win32,178.57142857124296,,,,,,1164.917700000003,322.0,2.0,1164.9178000000006,322.0,,,,1168.656400000002,1169.1559000000022,1168.1516000000015,1168.6563000000006,1165.918600000001,1168.1514000000022,1169.156,1169.6559000000022,1169.6559000000022,1171.4283000000007,152.0,1171.4283000000007,1.0,1171.4326000000017,2.0,8.0,68.0,27.0,1.0,1.2,0.7,Time
,,S21,1,女,21,anonymized,Serial_Dependence_U,2023.2.3,Win32,178.57142857124296,,,,,,1171.4328000000007,119.0,2.0,1171.4328000000007,119.0,,,,1175.5789000000022,1176.077700000003,1175.073400000002,1175.578700000003,1172.4399999999998,1175.0733000000007,1176.0778000000007,1176.5775,1176.5776000000014,1176.8445,68.0,1176.8446000000015,1.0,1176.848700000003,2.0,9.0,69.0,29.0,1.0,1.6,0.7,Time
,,S21,1,女,21,anonymized,Serial_Dependence_U,2023.2.3,Win32,178.57142857124296,,,,,,1176.8489000000022,334.0,2.0,1176.8489000000022,334.0,,,,1180.223,1180.7225,1179.7175,1180.223,1177.8565,1179.717400000002,1180.7225,1181.2218000000007,1181.2218000000007,1181.4066000000014,117.0,1181.4066000000014,1.0,1181.4108000000006,2.0,10.0,70.0,0.0,1.0,0.8,0.3,Time
,,S21,1,女,21,anonymized,Serial_Dependence_U,2023.2.3,Win32,178.57142857124296,,,,,,1181.411200000003,121.0,2.0,1181.411200000003,121.0,,,,1184.7506000000014,1185.2493000000006,1184.2451000000017,1184.7505,1182.4118000000008,1184.2449000000022,1185.2493000000006,1185.7493000000006,1185.7494000000022,1185.917400000002,93.0,1185.917400000002,1.0,1185.9216000000015,2.0,11.0,71.0,25.0,1.0,0.8,0.7,Time
,,S21,1,女,21,anonymized,Serial_Dependence_U,2023.2.3,Win32,178.57142857124296,,,,,,1185.9218000000008,146.0,2.0,1185.921900000002,146.0,,,,1189.4668000000006,1189.965700000003,1188.9613000000006,1189.4668000000006,1186.9282000000028,1188.961200000003,1189.965700000003,1190.4665,1190.466600000001,1192.916,102.0,1192.9161000000015,1.0,1192.9204000000022,2.0,12.0,72.0,6.0,1.0,1.0,0.7,Time
,,S21,1,女,21,anonymized,Serial_Dependence_U,2023.2.3,Win32,178.57142857124296,,,,,,1192.9205,222.0,2.0,1192.9205,222.0,,,,1196.694,1197.192900000002,1196.188600000001,1196.694,1193.9278000000006,1196.1885,1197.193,1197.6939000000025,1197.6939000000025,1197.8164000000022,95.0,1197.8164000000022,1.0,1197.8206000000014,2.0,13.0,73.0,12.0,1.0,1.2,0.3,Time
,,S21,1,女,21,anonymized,Serial_Dependence_U,2023.2.3,Win32,178.57142857124296,,,,,,1197.820700000003,12.0,2.0,1197.8209000000022,12.0,,,,1201.793700000003,1202.2926000000014,1201.2884000000022,1201.793600000001,1198.8275,1201.2883000000006,1202.292700000003,1202.7926000000014,1202.7926000000014,1208.0157000000029,94.0,1208.0158000000006,1.0,1208.020100000001,2.0,14.0,74.0,3.0,1.0,1.4,0.3,Time
,,S21,1,女,21,anonymized,Serial_Dependence_U,2023.2.3,Win32,178.57142857124296,,,,,,1208.0203000000006,86.0,2.0,1208.0204000000022,86.0,,,,1211.587900000002,1212.0873000000006,1211.0821000000014,1211.5878000000007,1209.0211000000013,1211.082,1212.0873000000006,1212.5864000000022,1212.5864000000022,1213.3598000000006,83.0,1213.3598000000006,1.0,1213.363900000002,2.0,15.0,75.0,1.0,1.0,1.0,0.3,Time
,,S21,1,女,21,anonymized,Serial_Dependence_U,2023.2.3,Win32,178.57142857124296,,,,,,1213.3641000000014,286.0,2.0,1213.3641000000014,286.0,,,,1216.7308000000007,1217.231200000003,1216.2261000000017,1216.7308000000007,1214.3654000000022,1216.2259000000022,1217.231200000003,1217.7306000000017,1217.7306000000017,1218.0806000000014,81.0,1218.0808000000006,1.0,1218.0848000000008,2.0,16.0,76.0,20.0,1.0,0.8,0.3,Time
,,S21,1,女,21,anonymized,Serial_Dependence_U,2023.2.3,Win32,178.57142857124296,,,,,,1218.0849999999998,347.0,2.0,1218.0849999999998,347.0,,,,1222.258900000002,1222.757900000002,1221.7536000000014,1222.2588000000007,1219.0926000000013,1221.7534999999998,1222.757900000002,1223.257900000002,1223.257900000002,1223.920300000001,89.0,1223.920300000001,1.0,1223.9243000000006,2.0,17.0,77.0,24.0,1.0,1.6,0.3,Time
,,S21,1,女,21,anonymized,Serial_Dependence_U,2023.2.3,Win32,178.57142857124296,,,,,,1223.9246000000014,267.0,2.0,1223.924700000003,267.0,,,,1227.4977000000029,1227.9965,1226.9921000000013,1227.4976000000015,1224.9315,1226.992,1227.9965,1228.4971000000014,1228.4971000000014,1229.1644000000022,93.0,1229.1644000000022,1.0,1229.1685,2.0,18.0,78.0,11.0,1.0,1.0,0.3,Time
,,S21,1,女,21,anonymized,Serial_Dependence_U,2023.2.3,Win32,178.57142857124296,,,,,,1229.168600000001,236.0,2.0,1229.168700000003,236.0,,,,1233.3084000000022,1233.807200000003,1232.8028000000006,1233.3083000000006,1230.1698000000006,1232.8028000000006,1233.8073000000006,1234.3073000000006,1234.3073000000006,1234.6473000000008,83.0,1234.6473000000008,1.0,1234.6515,2.0,19.0,79.0,19.0,1.0,1.6,0.7,Time
,,S21,1,女,21,anonymized,Serial_Dependence_U,2023.2.3,Win32,178.57142857124296,,,,,,1234.6517000000028,161.0,2.0,1234.651900000002,161.0,,,,1238.8247000000028,1239.324200000003,1238.3193000000006,1238.8246000000015,1235.6583000000007,1238.3193000000006,1239.324200000003,1239.8235,1239.8235,1240.5136000000014,83.0,1240.5136000000014,1.0,1240.5176000000015,2.0,20.0,80.0,14.0,1.0,1.6,0.3,Time
,,S21,1,女,21,anonymized,Serial_Dependence_U,2023.2.3,Win32,178.57142857124296,,,,,,1240.5178000000008,167.0,2.0,1240.517900000002,167.0,,,,1243.8579000000022,1244.3563000000006,1243.352200000003,1243.8579000000022,1241.518200000003,1243.352,1244.3564000000022,1244.8564000000022,1244.8565,1245.7576000000015,144.0,1245.7576000000015,1.0,1245.761800000001,2.0,21.0,81.0,15.0,1.0,0.8,0.7,Time
,,S21,1,女,21,anonymized,Serial_Dependence_U,2023.2.3,Win32,178.57142857124296,,,,,,1245.7619000000022,175.0,2.0,1245.7619000000022,175.0,,,,1249.328700000003,1249.8282000000029,1248.824200000003,1249.3286000000014,1246.7623000000006,1248.8241000000014,1249.8283000000006,1250.329,1250.329,1250.924100000001,106.0,1250.924100000001,1.0,1250.9282000000028,2.0,22.0,82.0,21.0,1.0,1.0,0.3,Time
,,S21,1,女,21,anonymized,Serial_Dependence_U,2023.2.3,Win32,178.57142857124296,,,,,,1250.928400000002,242.0,2.0,1250.9285,242.0,,,,1254.2728000000006,1254.772400000002,1253.7681000000014,1254.272700000003,1251.9349000000022,1253.7679999999998,1254.7724999999998,1255.2723000000008,1255.272400000002,1255.6726000000017,90.0,1255.6726000000017,1.0,1255.6766000000014,2.0,23.0,83.0,5.0,1.0,0.8,0.7,Time
,,S21,1,女,21,anonymized,Serial_Dependence_U,2023.2.3,Win32,178.57142857124296,,,,,,1255.6768000000006,309.0,2.0,1255.6769000000022,309.0,,,,1259.6224000000022,1260.1219999999998,1259.117800000001,1259.622200000003,1256.6844999999998,1259.117700000003,1260.1219999999998,1260.6221000000014,1260.622200000003,1261.0733000000007,89.0,1261.073400000002,1.0,1261.0775,2.0,24.0,84.0,18.0,1.0,1.4,0.7,Time
,,S21,1,女,21,anonymized,Serial_Dependence_U,2023.2.3,Win32,178.57142857124296,,,,,,1261.077700000003,210.0,2.0,1261.077700000003,210.0,,,,1264.6174999999998,1265.116100000001,1264.1119000000022,1264.6174999999998,1262.077700000003,1264.1118000000006,1265.116100000001,1265.616100000001,1265.616200000003,1266.006200000003,100.0,1266.006200000003,1.0,1266.0105,2.0,25.0,85.0,16.0,1.0,1.0,0.7,Time
,,S21,1,女,21,anonymized,Serial_Dependence_U,2023.2.3,Win32,178.57142857124296,,,,,,1266.0105,349.0,2.0,1266.0106000000014,349.0,,,,1269.9834999999998,1270.482400000002,1269.478300000001,1269.983400000002,1267.0174000000022,1269.478200000003,1270.4824999999998,1270.9831000000015,1270.9831000000015,1271.117,105.0,1271.117,1.0,1271.1209000000022,2.0,26.0,86.0,23.0,1.0,1.4,0.3,Time
,,S21,1,女,21,anonymized,Serial_Dependence_U,2023.2.3,Win32,178.57142857124296,,,,,,1271.1211000000014,41.0,2.0,1271.121200000003,41.0,,,,1274.6663000000003,1275.1662000000028,1274.1611000000014,1274.6662000000028,1272.1282000000028,1274.1609999999998,1275.1662000000028,1275.6661000000015,1275.6661000000015,1275.777900000002,95.0,1275.777900000002,1.0,1275.782,2.0,27.0,87.0,26.0,1.0,1.0,0.7,Time
,,S21,1,女,21,anonymized,Serial_Dependence_U,2023.2.3,Win32,178.57142857124296,,,,,,1275.7821000000015,302.0,2.0,1275.7822000000028,302.0,,,,1279.1445,1279.6436000000017,1278.644200000003,1279.1444000000022,1276.7832000000028,1278.6441000000011,1279.6436000000017,1280.1428000000008,1280.142900000002,1280.333200000003,72.0,1280.3333000000007,1.0,1280.3373000000006,2.0,28.0,88.0,10.0,1.0,0.8,0.3,Time
,,S21,1,女,21,anonymized,Serial_Dependence_U,2023.2.3,Win32,178.57142857124296,,,,,,1280.3374000000022,254.0,2.0,1280.337700000003,254.0,,,,1284.104900000002,1284.6045,1283.5996000000014,1284.1047000000028,1281.3384999999998,1283.5994999999998,1284.6045,1285.1038000000003,1285.1038000000003,1285.3051000000014,134.0,1285.305200000003,1.0,1285.3092000000029,2.0,29.0,89.0,2.0,1.0,1.2,0.3,Time
,,S21,1,女,21,anonymized,Serial_Dependence_U,2023.2.3,Win32,178.57142857124296,,,,,,1285.3094999999998,34.0,3.0,1289.241,34.0,s,3.920300000000907,,1292.8092000000029,1293.3096000000014,1292.3045,1292.8091000000013,1290.2434999999998,1292.3045,1293.3096000000014,1293.808700000003,1293.8088000000007,1294.3543000000006,94.0,1294.3543000000006,1.0,1294.3584999999998,3.0,0.0,90.0,11.0,1.0,1.0,0.3,Time
,,S21,1,女,21,anonymized,Serial_Dependence_U,2023.2.3,Win32,178.57142857124296,,,,,,1294.3586000000014,102.0,3.0,1294.359400000002,102.0,,,,1297.6985,1298.1972000000028,1297.193100000001,1297.698400000002,1295.359700000003,1297.193,1298.1972000000028,1298.698200000003,1298.698200000003,1299.193,98.0,1299.193,1.0,1299.197,3.0,1.0,91.0,15.0,1.0,0.8,0.7,Time
,,S21,1,女,21,anonymized,Serial_Dependence_U,2023.2.3,Win32,178.57142857124296,,,,,,1299.1973000000007,221.0,3.0,1299.1973000000007,221.0,,,,1302.7704000000022,1303.269900000002,1302.2648000000006,1302.770200000003,1300.203800000001,1302.264700000003,1303.269900000002,1303.769,1303.7691000000011,1304.2149000000022,83.0,1304.2149000000022,1.0,1304.218900000002,3.0,2.0,92.0,1.0,1.0,1.0,0.3,Time
,,S21,1,女,21,anonymized,Serial_Dependence_U,2023.2.3,Win32,178.57142857124296,,,,,,1304.2191000000014,29.0,3.0,1304.219200000003,29.0,,,,1307.758900000002,1308.2583000000006,1307.2534999999998,1307.7588000000007,1305.2201000000014,1307.253400000002,1308.2583000000006,1308.7584000000022,1308.7584000000022,1308.8814000000025,67.0,1308.8814000000025,1.0,1308.8858000000007,3.0,3.0,93.0,16.0,1.0,1.0,0.7,Time
,,S21,1,女,21,anonymized,Serial_Dependence_U,2023.2.3,Win32,178.57142857124296,,,,,,1308.886,106.0,3.0,1308.886,106.0,,,,1312.4532000000029,1312.9517000000028,1311.947600000001,1312.4531000000013,1309.886800000001,1311.947400000002,1312.9517000000028,1313.4518000000007,1313.4518000000007,1315.1698000000006,120.0,1315.1698000000006,1.0,1315.173900000002,3.0,4.0,94.0,21.0,1.0,1.0,0.3,Time
,,S21,1,女,21,anonymized,Serial_Dependence_U,2023.2.3,Win32,178.57142857124296,,,,,,1315.1742000000029,44.0,3.0,1315.1742000000029,44.0,,,,1319.346900000002,1319.8464000000022,1318.841400000002,1319.346900000002,1316.1806000000015,1318.841400000002,1319.8465,1320.3464000000022,1320.3464000000022,1320.7469999999998,78.0,1320.7471000000014,1.0,1320.751,3.0,5.0,95.0,4.0,1.0,1.6,0.3,Time
,,S21,1,女,21,anonymized,Serial_Dependence_U,2023.2.3,Win32,178.57142857124296,,,,,,1320.7512000000029,200.0,3.0,1320.7513000000006,200.0,,,,1324.1237000000028,1324.623900000002,1323.6189000000022,1324.1236000000015,1321.7571000000014,1323.6188000000006,1324.623900000002,1325.123900000002,1325.123900000002,1326.5068000000006,82.0,1326.5068000000006,1.0,1326.5111000000013,3.0,6.0,96.0,0.0,1.0,0.8,0.3,Time
,,S21,1,女,21,anonymized,Serial_Dependence_U,2023.2.3,Win32,178.57142857124296,,,,,,1326.5112000000029,271.0,3.0,1326.5112000000029,271.0,,,,1330.0574000000022,1330.556200000003,1329.5519000000022,1330.0573000000006,1327.5187000000028,1329.5518000000006,1330.556200000003,1331.0561000000014,1331.056200000003,1331.2176000000013,63.0,1331.2177000000029,1.0,1331.2218000000007,3.0,7.0,97.0,6.0,1.0,1.0,0.7,Time
,,S21,1,女,21,anonymized,Serial_Dependence_U,2023.2.3,Win32,178.57142857124296,,,,,,1331.222,182.0,3.0,1331.222,182.0,,,,1335.1952000000028,1335.694800000001,1334.6895,1335.1951000000015,1332.223800000001,1334.6895,1335.694800000001,1336.194700000003,1336.194700000003,1336.972700000003,72.0,1336.9728000000007,1.0,1336.9771000000014,3.0,8.0,98.0,23.0,1.0,1.4,0.3,Time
,,S21,1,女,21,anonymized,Serial_Dependence_U,2023.2.3,Win32,178.57142857124296,,,,,,1336.977200000003,164.0,3.0,1336.977200000003,164.0,,,,1340.950200000003,1341.449900000002,1340.444800000001,1340.9501000000014,1337.9838000000009,1340.4446000000014,1341.449900000002,1341.949900000002,1341.9499999999998,1342.4334000000022,79.0,1342.4334000000022,1.0,1342.437600000001,3.0,9.0,99.0,13.0,1.0,1.4,0.3,Time
,,S21,1,女,21,anonymized,Serial_Dependence_U,2023.2.3,Win32,178.57142857124296,,,,,,1342.437700000003,196.0,3.0,1342.4378000000006,196.0,,,,1346.205400000002,1346.7051000000015,1345.6999999999998,1346.205400000002,1343.439,1345.6999999999998,1346.7051000000015,1347.205,1347.2051000000015,1347.6331000000014,73.0,1347.633200000003,1.0,1347.637400000002,3.0,10.0,100.0,2.0,1.0,1.2,0.3,Time
,,S21,1,女,21,anonymized,Serial_Dependence_U,2023.2.3,Win32,178.57142857124296,,,,,,1347.6376000000014,44.0,3.0,1347.6376000000014,44.0,,,,1351.3829999999998,1351.8825,1350.8774999999998,1351.3828000000008,1348.644200000003,1350.877400000002,1351.8825,1352.3825,1352.3825,1352.7438000000006,73.0,1352.7438000000006,1.0,1352.7479999999998,3.0,11.0,101.0,27.0,1.0,1.2,0.7,Time
,,S21,1,女,21,anonymized,Serial_Dependence_U,2023.2.3,Win32,178.57142857124296,,,,,,1352.748200000003,21.0,3.0,1352.748200000003,21.0,,,,1356.6881000000014,1357.187700000003,1356.1826000000017,1356.688,1353.7495,1356.1825,1357.187700000003,1357.6878000000006,1357.6878000000006,1358.0823000000007,87.0,1358.082400000002,1.0,1358.0865,3.0,12.0,102.0,28.0,1.0,1.4,0.7,Time
,,S21,1,女,21,anonymized,Serial_Dependence_U,2023.2.3,Win32,178.57142857124296,,,,,,1358.0868000000007,203.0,3.0,1358.0868000000007,203.0,,,,1362.26,1362.7596000000017,1361.7545,1362.2598000000007,1359.0934000000022,1361.7543000000007,1362.7596000000017,1363.2596000000017,1363.2596000000017,1363.5264000000022,82.0,1363.5265,1.0,1363.5306000000014,3.0,13.0,103.0,14.0,1.0,1.6,0.3,Time
,,S21,1,女,21,anonymized,Serial_Dependence_U,2023.2.3,Win32,178.57142857124296,,,,,,1363.530800000001,63.0,3.0,1363.5309000000022,63.0,,,,1367.6763000000008,1368.175800000001,1367.1707000000029,1367.6761000000015,1364.5376000000017,1367.1707000000029,1368.176,1368.675800000001,1368.6759000000022,1369.0539000000022,81.0,1369.0539000000022,1.0,1369.0584000000022,3.0,14.0,104.0,29.0,1.0,1.6,0.7,Time
,,S21,1,女,21,anonymized,Serial_Dependence_U,2023.2.3,Win32,178.57142857124296,,,,,,1369.0585,117.0,3.0,1369.0586000000014,117.0,,,,1373.203700000003,1373.7033000000006,1372.698200000003,1373.2036000000014,1370.0649999999998,1372.6981000000014,1373.7033000000006,1374.2032000000029,1374.2032000000029,1374.6091000000015,79.0,1374.6091000000015,1.0,1374.613300000001,3.0,15.0,105.0,9.0,1.0,1.6,0.7,Time
,,S21,1,女,21,anonymized,Serial_Dependence_U,2023.2.3,Win32,178.57142857124296,,,,,,1374.6136000000015,290.0,3.0,1374.6136000000015,290.0,,,,1378.558900000002,1379.0584000000022,1378.053400000002,1378.558700000003,1375.6203000000007,1378.0533000000007,1379.0585,1379.5591000000013,1379.5591000000013,1380.182,100.0,1380.182,1.0,1380.1863000000008,3.0,16.0,106.0,18.0,1.0,1.4,0.7,Time
,,S21,1,女,21,anonymized,Serial_Dependence_U,2023.2.3,Win32,178.57142857124296,,,,,,1380.1866000000014,267.0,3.0,1380.1866000000014,267.0,,,,1383.9595,1384.4581000000014,1383.4539000000022,1383.9594000000022,1381.192900000002,1383.453800000001,1384.4581000000014,1384.9581000000014,1384.958200000003,1385.3538000000003,67.0,1385.353900000002,1.0,1385.358,3.0,17.0,107.0,22.0,1.0,1.2,0.3,Time
,,S21,1,女,21,anonymized,Serial_Dependence_U,2023.2.3,Win32,178.57142857124296,,,,,,1385.3582000000029,316.0,3.0,1385.358400000002,316.0,,,,1389.3256000000015,1389.825200000003,1388.8201000000015,1389.3256000000015,1386.3592000000028,1388.8199000000022,1389.825200000003,1390.3249999999998,1390.3251000000014,1390.8869000000022,78.0,1390.8869000000022,1.0,1390.8909999999998,3.0,18.0,108.0,3.0,1.0,1.4,0.3,Time
,,S21,1,女,21,anonymized,Serial_Dependence_U,2023.2.3,Win32,178.57142857124296,,,,,,1390.891200000003,308.0,3.0,1390.891300000001,308.0,,,,1394.257900000002,1394.7574000000022,1393.7531000000015,1394.2578000000008,1391.8921000000014,1393.7531000000015,1394.7575,1395.2581000000014,1395.2581000000014,1395.7865,133.0,1395.7865,1.0,1395.790800000001,3.0,19.0,109.0,20.0,1.0,0.8,0.3,Time
,,S21,1,女,21,anonymized,Serial_Dependence_U,2023.2.3,Win32,178.57142857124296,,,,,,1395.791,99.0,3.0,1395.7911000000015,99.0,,,,1399.158400000002,1399.6571000000015,1398.6528000000008,1399.1583000000007,1396.7918000000006,1398.6526000000017,1399.6572000000028,1400.1574999999998,1400.1574999999998,1403.585900000002,75.0,1403.585900000002,1.0,1403.5903000000008,3.0,20.0,110.0,10.0,1.0,0.8,0.3,Time
,,S21,1,女,21,anonymized,Serial_Dependence_U,2023.2.3,Win32,178.57142857124296,,,,,,1403.5905,0.0,3.0,1403.590700000003,0.0,,,,1407.335200000003,1407.8349999999998,1406.829700000003,1407.3351000000014,1404.5967000000028,1406.829700000003,1407.8349999999998,1408.334900000002,1408.3349999999998,1408.896700000003,83.0,1408.896700000003,1.0,1408.900900000002,3.0,21.0,111.0,7.0,1.0,1.2,0.7,Time
,,S21,1,女,21,anonymized,Serial_Dependence_U,2023.2.3,Win32,178.57142857124296,,,,,,1408.9009999999998,339.0,3.0,1408.9011000000014,339.0,,,,1413.0739999999998,1413.5728000000006,1412.5685,1413.073900000002,1409.9074999999998,1412.5684000000022,1413.5728000000006,1414.0728000000006,1414.0728000000006,1414.463,106.0,1414.4631000000013,1.0,1414.467200000003,3.0,22.0,112.0,24.0,1.0,1.6,0.3,Time
,,S21,1,女,21,anonymized,Serial_Dependence_U,2023.2.3,Win32,178.57142857124296,,,,,,1414.4673000000007,132.0,3.0,1414.467400000002,132.0,,,,1418.212700000003,1418.712100000001,1417.7071000000014,1418.212700000003,1415.473800000001,1417.707,1418.712200000003,1419.212100000001,1419.212100000001,1419.6849000000022,89.0,1419.6849000000022,1.0,1419.6888000000006,3.0,23.0,113.0,17.0,1.0,1.2,0.7,Time
,,S21,1,女,21,anonymized,Serial_Dependence_U,2023.2.3,Win32,178.57142857124296,,,,,,1419.6891000000014,200.0,3.0,1419.689200000003,200.0,,,,1423.028900000002,1423.5284000000022,1422.523400000002,1423.0287000000028,1420.690300000001,1422.5232000000028,1423.5285,1424.0283000000006,1424.0284000000022,1424.467900000002,76.0,1424.467900000002,1.0,1424.472,3.0,24.0,114.0,5.0,1.0,0.8,0.7,Time
,,S21,1,女,21,anonymized,Serial_Dependence_U,2023.2.3,Win32,178.57142857124296,,,,,,1424.4722000000029,224.0,3.0,1424.4724000000022,224.0,,,,1428.0063000000007,1428.5052000000028,1427.505600000001,1428.006200000003,1425.4731000000013,1427.5055,1428.5052000000028,1429.0052000000028,1429.0052000000028,1429.3066000000017,100.0,1429.3066000000017,1.0,1429.311,3.0,25.0,115.0,26.0,1.0,1.0,0.7,Time
,,S21,1,女,21,anonymized,Serial_Dependence_U,2023.2.3,Win32,178.57142857124296,,,,,,1429.3112000000028,219.0,3.0,1429.3112000000028,219.0,,,,1432.6562000000029,1433.154900000002,1432.149700000003,1432.6561000000015,1430.317200000003,1432.149700000003,1433.154900000002,1433.6554999999998,1433.6556000000014,1433.9283000000007,122.0,1433.9283000000007,1.0,1433.9324000000022,3.0,26.0,116.0,25.0,1.0,0.8,0.7,Time
,,S21,1,女,21,anonymized,Serial_Dependence_U,2023.2.3,Win32,178.57142857124296,,,,,,1433.9326000000017,32.0,3.0,1433.9327000000028,32.0,,,,1437.699900000002,1438.198900000002,1437.1946000000014,1437.6997000000028,1434.9336000000014,1437.1946000000014,1438.198900000002,1438.698900000002,1438.698900000002,1439.0725,79.0,1439.0725,1.0,1439.0767000000028,3.0,27.0,117.0,12.0,1.0,1.2,0.3,Time
,,S21,1,女,21,anonymized,Serial_Dependence_U,2023.2.3,Win32,178.57142857124296,,,,,,1439.0768000000007,41.0,3.0,1439.076900000002,41.0,,,,1443.2162000000028,1443.7152000000028,1442.7108000000007,1443.2161000000017,1440.0778000000007,1442.7107000000028,1443.7153000000008,1444.2152000000028,1444.2152000000028,1444.5332000000028,72.0,1444.5332000000028,1.0,1444.5374000000022,3.0,28.0,118.0,19.0,1.0,1.6,0.7,Time
,,S21,1,女,21,anonymized,Serial_Dependence_U,2023.2.3,Win32,178.57142857124296,,,,,,1444.5375,308.0,3.0,1444.5375,308.0,,,,1448.477200000003,1448.9768000000006,1447.971900000002,1448.477200000003,1445.5385,1447.9718000000007,1448.9769000000022,1449.476700000003,1449.476700000003,1449.7829000000022,83.0,1449.7829000000022,1.0,1449.7873000000006,3.0,29.0,119.0,8.0,1.0,1.4,0.7,Time
,,S21,1,女,21,anonymized,Serial_Dependence_U,2023.2.3,Win32,178.57142857124296,,,,,,1449.7876000000017,297.0,4.0,1452.420300000001,297.0,s,2.6259999999999764,,1456.3656000000017,1456.865,1455.86,1456.3656000000017,1453.427,1455.8599000000022,1456.865,1457.3643000000006,1457.3643000000006,1457.837,86.0,1457.837100000001,1.0,1457.841400000002,4.0,0.0,120.0,18.0,1.0,1.4,0.7,Time
,,S21,1,女,21,anonymized,Serial_Dependence_U,2023.2.3,Win32,178.57142857124296,,,,,,1457.8415,114.0,4.0,1457.842200000003,114.0,,,,1461.3876000000014,1461.8863000000006,1460.8819999999998,1461.3874999999998,1458.848700000003,1460.881900000002,1461.8863000000006,1462.3862000000029,1462.3862000000029,1462.6374999999998,86.0,1462.6374999999998,1.0,1462.6416000000013,4.0,1.0,121.0,6.0,1.0,1.0,0.7,Time
,,S21,1,女,21,anonymized,Serial_Dependence_U,2023.2.3,Win32,178.57142857124296,,,,,,1462.6418000000006,152.0,4.0,1462.641900000002,152.0,,,,1466.1871000000017,1466.686,1465.6816000000017,1466.187,1463.6483000000007,1465.6816000000017,1466.686,1467.1859000000022,1467.1859000000022,1467.8206000000014,139.0,1467.8206000000014,1.0,1467.8246000000015,4.0,2.0,122.0,16.0,1.0,1.0,0.7,Time
,,S21,1,女,21,anonymized,Serial_Dependence_U,2023.2.3,Win32,178.57142857124296,,,,,,1467.824900000002,147.0,4.0,1467.8249999999998,147.0,,,,1471.792400000002,1472.2918000000006,1471.2868000000008,1471.7923000000008,1468.8258000000008,1471.2867000000028,1472.2918000000006,1472.7918000000006,1472.7919000000022,1477.9256000000014,106.0,1477.9256000000014,1.0,1477.930200000003,4.0,3.0,123.0,13.0,1.0,1.4,0.3,Time
,,S21,1,女,21,anonymized,Serial_Dependence_U,2023.2.3,Win32,178.57142857124296,,,,,,1477.9304000000022,65.0,4.0,1477.9305,65.0,,,,1481.869400000002,1482.3689000000022,1481.3638000000008,1481.8693000000007,1478.9306000000015,1481.3637000000028,1482.3689000000022,1482.8682000000028,1482.8682000000028,1483.2742000000028,65.0,1483.2742000000028,1.0,1483.2784000000022,4.0,4.0,124.0,28.0,1.0,1.4,0.7,Time
,,S21,1,女,21,anonymized,Serial_Dependence_U,2023.2.3,Win32,178.57142857124296,,,,,,1483.2785,278.0,4.0,1483.2786000000017,278.0,,,,1487.4248000000007,1487.9233000000006,1486.9191000000014,1487.424700000003,1484.285,1486.919,1487.9233000000006,1488.4233000000006,1488.4233000000006,1488.7524999999998,72.0,1488.7524999999998,1.0,1488.7566000000013,4.0,5.0,125.0,29.0,1.0,1.6,0.7,Time
,,S21,1,女,21,anonymized,Serial_Dependence_U,2023.2.3,Win32,178.57142857124296,,,,,,1488.7568000000006,136.0,4.0,1488.756900000002,136.0,,,,1492.524400000002,1493.023,1492.0186000000017,1492.5243000000007,1489.7569999999998,1492.0186000000017,1493.023,1493.5231000000017,1493.5231000000017,1493.995400000002,69.0,1493.995400000002,1.0,1493.9996000000017,4.0,6.0,126.0,22.0,1.0,1.2,0.3,Time
,,S21,1,女,21,anonymized,Serial_Dependence_U,2023.2.3,Win32,178.57142857124296,,,,,,1493.9998000000007,317.0,4.0,1493.999900000002,317.0,,,,1497.3406000000014,1497.8401000000017,1496.8353000000006,1497.3405,1495.001800000001,1496.835200000003,1497.8401000000017,1498.3405,1498.3405,1498.9685,72.0,1498.9685,1.0,1498.972700000003,4.0,7.0,127.0,5.0,1.0,0.8,0.7,Time
,,S21,1,女,21,anonymized,Serial_Dependence_U,2023.2.3,Win32,178.57142857124296,,,,,,1498.9729000000025,338.0,4.0,1498.973,338.0,,,,1502.3402000000028,1502.8391000000015,1501.8347000000028,1502.3402000000028,1499.973800000001,1501.8346000000015,1502.8391000000015,1503.339,1503.339,1504.434700000003,123.0,1504.434700000003,1.0,1504.4388000000006,4.0,8.0,128.0,20.0,1.0,0.8,0.3,Time
,,S21,1,女,21,anonymized,Serial_Dependence_U,2023.2.3,Win32,178.57142857124296,,,,,,1504.438900000002,207.0,4.0,1504.439,207.0,,,,1508.406400000002,1508.9061000000015,1507.901200000003,1508.4063000000006,1505.440200000003,1507.9009999999998,1508.9061000000015,1509.4053000000006,1509.4053000000006,1509.8844000000022,89.0,1509.8844000000022,1.0,1509.8885,4.0,9.0,129.0,3.0,1.0,1.4,0.3,Time
,,S21,1,女,21,anonymized,Serial_Dependence_U,2023.2.3,Win32,178.57142857124296,,,,,,1509.8886000000014,32.0,4.0,1509.8888000000006,32.0,,,,1513.2332000000029,1513.733400000002,1512.7284000000022,1513.233,1510.8953000000006,1512.7284000000022,1513.733400000002,1514.232700000003,1514.232800000001,1514.6063000000006,72.0,1514.6063000000006,1.0,1514.610400000002,4.0,10.0,130.0,15.0,1.0,0.8,0.7,Time
,,S21,1,女,21,anonymized,Serial_Dependence_U,2023.2.3,Win32,178.57142857124296,,,,,,1514.610700000003,206.0,4.0,1514.6109000000022,206.0,,,,1518.1772000000028,1518.6769000000022,1517.6726000000017,1518.1771000000017,1515.611600000001,1517.6725,1518.6769000000022,1519.1768000000006,1519.1769000000022,1519.772700000003,111.0,1519.7728000000006,1.0,1519.776900000002,4.0,11.0,131.0,21.0,1.0,1.0,0.3,Time
,,S21,1,女,21,anonymized,Serial_Dependence_U,2023.2.3,Win32,178.57142857124296,,,,,,1519.7769999999998,130.0,4.0,1519.7771000000014,130.0,,,,1523.749900000002,1524.2487000000028,1523.2443000000007,1523.7498000000007,1520.7833000000007,1523.2442000000028,1524.2487000000028,1524.7487000000028,1524.7487000000028,1525.466700000003,144.0,1525.466700000003,1.0,1525.4708000000007,4.0,12.0,132.0,23.0,1.0,1.4,0.3,Time
,,S21,1,女,21,anonymized,Serial_Dependence_U,2023.2.3,Win32,178.57142857124296,,,,,,1525.471,309.0,4.0,1525.4711000000011,309.0,,,,1528.8441000000014,1529.3428000000006,1528.3384999999998,1528.8438000000006,1526.477400000002,1528.3384999999998,1529.3428000000006,1529.8428000000006,1529.8428000000006,1530.2553000000007,113.0,1530.2553000000007,1.0,1530.2594000000022,4.0,13.0,133.0,0.0,1.0,0.8,0.3,Time
,,S21,1,女,21,anonymized,Serial_Dependence_U,2023.2.3,Win32,178.57142857124296,,,,,,1530.2596000000017,281.0,4.0,1530.2598000000007,281.0,,,,1533.827,1534.3258000000008,1533.3215,1533.826900000002,1531.2606000000014,1533.3213000000007,1534.325900000002,1534.8264000000022,1534.8264000000022,1535.2106000000017,96.0,1535.2106000000017,1.0,1535.2148000000009,4.0,14.0,134.0,1.0,1.0,1.0,0.3,Time
,,S21,1,女,21,anonymized,Serial_Dependence_U,2023.2.3,Win32,178.57142857124296,,,,,,1535.215,271.0,4.0,1535.2152000000028,271.0,,,,1539.3544000000022,1539.853200000003,1538.8489000000022,1539.3544000000022,1536.215700000003,1538.848700000003,1539.853200000003,1540.3531000000014,1540.3531000000014,1541.903200000003,63.0,1541.903200000003,1.0,1541.907400000002,4.0,15.0,135.0,9.0,1.0,1.6,0.7,Time
,,S21,1,女,21,anonymized,Serial_Dependence_U,2023.2.3,Win32,178.57142857124296,,,,,,1541.9076000000014,107.0,4.0,1541.9076000000014,107.0,,,,1545.6485,1546.1472000000028,1545.1429999999998,1545.6485,1542.909600000001,1545.1429999999998,1546.1472000000028,1546.6472000000028,1546.6472000000028,1547.1752000000029,68.0,1547.1752000000029,1.0,1547.1794000000025,4.0,16.0,136.0,27.0,1.0,1.2,0.7,Time
,,S21,1,女,21,anonymized,Serial_Dependence_U,2023.2.3,Win32,178.57142857124296,,,,,,1547.1796000000013,144.0,4.0,1547.1796000000013,144.0,,,,1550.5474000000022,1551.0476000000017,1550.042700000003,1550.5473000000006,1548.1816000000017,1550.042700000003,1551.0476000000017,1551.546900000002,1551.546900000002,1552.1704000000022,72.0,1552.1704000000022,1.0,1552.1744000000022,4.0,17.0,137.0,10.0,1.0,0.8,0.3,Time
,,S21,1,女,21,anonymized,Serial_Dependence_U,2023.2.3,Win32,178.57142857124296,,,,,,1552.1746000000014,97.0,4.0,1552.1746000000014,97.0,,,,1556.3423000000007,1556.841700000003,1555.8366000000017,1556.342200000003,1553.175700000003,1555.8365,1556.841700000003,1557.341,1557.341,1557.8088000000007,78.0,1557.808900000002,1.0,1557.8129000000022,4.0,18.0,138.0,24.0,1.0,1.6,0.3,Time
,,S21,1,女,21,anonymized,Serial_Dependence_U,2023.2.3,Win32,178.57142857124296,,,,,,1557.8131000000014,132.0,4.0,1557.8133000000007,132.0,,,,1561.5863000000006,1562.0851000000014,1561.0806000000014,1561.586200000003,1558.819800000001,1561.0804999999998,1562.0851000000014,1562.5851000000014,1562.5851000000014,1564.2697000000028,72.0,1564.2698000000007,1.0,1564.2743000000007,4.0,19.0,139.0,12.0,1.0,1.2,0.3,Time
,,S21,1,女,21,anonymized,Serial_Dependence_U,2023.2.3,Win32,178.57142857124296,,,,,,1564.274600000001,353.0,4.0,1564.2749000000022,353.0,,,,1568.436,1568.9352000000029,1567.9358000000009,1568.436,1565.2749000000022,1567.935700000003,1568.9352000000029,1569.4344999999998,1569.4344999999998,1569.779200000003,71.0,1569.7793000000006,1.0,1569.7836000000011,4.0,20.0,140.0,14.0,1.0,1.6,0.3,Time
,,S21,1,女,21,anonymized,Serial_Dependence_U,2023.2.3,Win32,178.57142857124296,,,,,,1569.7838000000006,101.0,4.0,1569.7839000000022,101.0,,,,1573.728900000002,1574.2287000000028,1573.2234999999998,1573.728900000002,1570.791400000002,1573.2233000000006,1574.2288000000003,1574.7287000000028,1574.7287000000028,1575.3733000000009,131.0,1575.3733000000009,1.0,1575.377400000002,4.0,21.0,141.0,8.0,1.0,1.4,0.7,Time
,,S21,1,女,21,anonymized,Serial_Dependence_U,2023.2.3,Win32,178.57142857124296,,,,,,1575.3774999999998,90.0,4.0,1575.3774999999998,90.0,,,,1578.7177000000029,1579.2173000000007,1578.2123000000006,1578.7176000000013,1576.379,1578.212200000003,1579.2173000000007,1579.717200000003,1579.717200000003,1580.122900000002,82.0,1580.1229999999998,1.0,1580.127,4.0,22.0,142.0,25.0,1.0,0.8,0.7,Time
,,S21,1,女,21,anonymized,Serial_Dependence_U,2023.2.3,Win32,178.57142857124296,,,,,,1580.1272000000029,121.0,4.0,1580.1272000000029,121.0,,,,1583.672900000002,1584.1724000000022,1583.167400000002,1583.6727000000028,1581.1341000000014,1583.1672000000028,1584.1724000000022,1584.6724000000022,1584.6724000000022,1585.0338000000006,81.0,1585.0338000000006,1.0,1585.037900000002,4.0,23.0,143.0,26.0,1.0,1.0,0.7,Time
,,S21,1,女,21,anonymized,Serial_Dependence_U,2023.2.3,Win32,178.57142857124296,,,,,,1585.0381000000014,220.0,4.0,1585.0381000000014,220.0,,,,1588.7835,1589.2832000000028,1588.278,1588.783400000002,1586.0449999999998,1588.277900000002,1589.2833000000007,1589.7832000000028,1589.7833000000007,1590.1391000000017,45.0,1590.1391000000017,1.0,1590.1433000000006,4.0,24.0,144.0,17.0,1.0,1.2,0.7,Time
,,S21,1,女,21,anonymized,Serial_Dependence_U,2023.2.3,Win32,178.57142857124296,,,,,,1590.1435,205.0,4.0,1590.1435,205.0,,,,1594.3111000000015,1594.810700000003,1593.8055,1594.311,1591.1447000000028,1593.8055,1594.810700000003,1595.310700000003,1595.310700000003,1595.833,146.0,1595.8331000000014,1.0,1595.8374000000022,4.0,25.0,145.0,4.0,1.0,1.6,0.3,Time
,,S21,1,女,21,anonymized,Serial_Dependence_U,2023.2.3,Win32,178.57142857124296,,,,,,1595.8375,206.0,4.0,1595.8376000000014,206.0,,,,1599.605200000003,1600.1047000000028,1599.0994999999998,1599.6051000000014,1596.838700000003,1599.099400000002,1600.1047000000028,1600.6047000000028,1600.6048000000008,1600.9494000000022,73.0,1600.9494000000022,1.0,1600.9534999999998,4.0,26.0,146.0,2.0,1.0,1.2,0.3,Time
,,S21,1,女,21,anonymized,Serial_Dependence_U,2023.2.3,Win32,178.57142857124296,,,,,,1600.953700000003,300.0,4.0,1600.953700000003,300.0,,,,1604.5271000000014,1605.0266000000015,1604.0214999999998,1604.526900000002,1601.9607000000028,1604.021400000002,1605.0267000000028,1605.5265,1605.5265,1606.221200000003,88.0,1606.2213000000006,1.0,1606.2255,4.0,27.0,147.0,11.0,1.0,1.0,0.3,Time
,,S21,1,女,21,anonymized,Serial_Dependence_U,2023.2.3,Win32,178.57142857124296,,,,,,1606.2256000000014,340.0,4.0,1606.225700000003,340.0,,,,1609.965700000003,1610.4652000000028,1609.4599999999998,1609.9656000000014,1607.2268000000006,1609.459900000002,1610.4652000000028,1610.9653000000008,1610.9653000000008,1611.4153000000006,75.0,1611.4153000000006,1.0,1611.4197000000029,4.0,28.0,148.0,7.0,1.0,1.2,0.7,Time
,,S21,1,女,21,anonymized,Serial_Dependence_U,2023.2.3,Win32,178.57142857124296,,,,,,1611.419900000002,301.0,4.0,1611.419900000002,301.0,,,,1615.5651000000014,1616.0648000000006,1615.059700000003,1615.5651000000014,1612.426400000002,1615.0596000000014,1616.064900000002,1616.5647000000029,1616.5647000000029,1616.948400000002,81.0,1616.9485,1.0,1616.9524000000022,4.0,29.0,149.0,19.0,1.0,1.6,0.7,Time
,,S21,1,女,21,anonymized,Serial_Dependence_U,2023.2.3,Win32,178.57142857124296,,,,,,1616.9526000000014,34.0,5.0,1619.475700000003,34.0,s,2.5165000000001783,,1623.420200000003,1623.9204000000022,1622.9154999999998,1623.420200000003,1620.4815,1622.915400000002,1623.9204000000022,1624.4198000000006,1624.4198000000006,1624.798900000002,83.0,1624.799,1.0,1624.8031000000017,5.0,0.0,150.0,28.0,1.0,1.4,0.7,Time
,,S21,1,女,21,anonymized,Serial_Dependence_U,2023.2.3,Win32,178.57142857124296,,,,,,1624.8032000000028,37.0,5.0,1624.8041000000014,37.0,,,,1628.7422000000029,1629.2423000000006,1628.237200000003,1628.7421000000013,1625.8043000000007,1628.2371000000014,1629.2423000000006,1629.7422000000029,1629.7422000000029,1630.0541000000014,69.0,1630.0541000000014,1.0,1630.0583000000006,5.0,1.0,151.0,8.0,1.0,1.4,0.7,Time
,,S21,1,女,21,anonymized,Serial_Dependence_U,2023.2.3,Win32,178.57142857124296,,,,,,1630.0586000000014,251.0,5.0,1630.058700000003,251.0,,,,1634.2314000000022,1634.7308000000007,1633.725700000003,1634.2313000000006,1631.0651000000014,1633.7256000000014,1634.730900000002,1635.2308000000007,1635.2308000000007,1635.6027000000029,73.0,1635.6027000000029,1.0,1635.606900000002,5.0,2.0,152.0,4.0,1.0,1.6,0.3,Time
,,S21,1,女,21,anonymized,Serial_Dependence_U,2023.2.3,Win32,178.57142857124296,,,,,,1635.607,56.0,5.0,1635.607,56.0,,,,1639.5477000000028,1640.0464000000022,1639.0423000000008,1639.5475,1636.6091000000015,1639.0422000000028,1640.0464000000022,1640.5465,1640.5465,1641.5022000000029,142.0,1641.5023000000006,1.0,1641.5064000000025,5.0,3.0,153.0,18.0,1.0,1.4,0.7,Time
,,S21,1,女,21,anonymized,Serial_Dependence_U,2023.2.3,Win32,178.57142857124296,,,,,,1641.5065,108.0,5.0,1641.5066000000013,108.0,,,,1645.4696000000015,1645.968200000003,1644.964,1645.4695,1642.5032000000028,1644.963800000001,1645.968200000003,1646.468200000003,1646.468300000001,1646.819700000003,67.0,1646.819800000001,1.0,1646.823900000002,5.0,4.0,154.0,3.0,1.0,1.4,0.3,Time
,,S21,1,女,21,anonymized,Serial_Dependence_U,2023.2.3,Win32,178.57142857124296,,,,,,1646.8239999999998,332.0,5.0,1646.8241000000014,332.0,,,,1650.996900000002,1651.495700000003,1650.4915,1650.996900000002,1647.8304999999998,1650.4914000000022,1651.495700000003,1651.9966000000013,1651.9966000000013,1652.3914000000022,111.0,1652.3914000000022,1.0,1652.395700000003,5.0,5.0,155.0,14.0,1.0,1.6,0.3,Time
,,S21,1,女,21,anonymized,Serial_Dependence_U,2023.2.3,Win32,178.57142857124296,,,,,,1652.396,210.0,5.0,1652.396,210.0,,,,1655.940300000001,1656.4398000000006,1655.4354999999998,1655.940200000003,1653.4023000000009,1655.4354999999998,1656.4398000000006,1656.9398000000006,1656.9398000000006,1657.463400000002,84.0,1657.4634999999998,1.0,1657.4676000000013,5.0,6.0,156.0,16.0,1.0,1.0,0.7,Time
,,S21,1,女,21,anonymized,Serial_Dependence_U,2023.2.3,Win32,178.57142857124296,,,,,,1657.467900000002,359.0,5.0,1657.467900000002,359.0,,,,1661.035,1661.5345,1660.5296000000014,1661.0349000000022,1658.4686000000015,1660.5294000000022,1661.534600000001,1662.0338000000006,1662.0338000000006,1662.702,100.0,1662.702,1.0,1662.7063000000007,5.0,7.0,157.0,1.0,1.0,1.0,0.3,Time
,,S21,1,女,21,anonymized,Serial_Dependence_U,2023.2.3,Win32,178.57142857124296,,,,,,1662.706400000002,177.0,5.0,1662.7065,177.0,,,,1666.4451000000015,1666.9444999999998,1665.940300000001,1666.4449000000022,1663.7071000000014,1665.9401000000014,1666.9444999999998,1667.4453000000008,1667.4453000000008,1667.7849000000022,72.0,1667.7849000000022,1.0,1667.789200000003,5.0,8.0,158.0,17.0,1.0,1.2,0.7,Time
,,S21,1,女,21,anonymized,Serial_Dependence_U,2023.2.3,Win32,178.57142857124296,,,,,,1667.7895,195.0,5.0,1667.7896000000014,195.0,,,,1671.1288000000006,1671.6276000000014,1670.6281000000015,1671.128700000003,1668.7957000000029,1670.628,1671.6276000000014,1672.1276000000014,1672.1276000000014,1672.401300000001,89.0,1672.4014000000022,1.0,1672.4054999999998,5.0,9.0,159.0,5.0,1.0,0.8,0.7,Time
,,S21,1,女,21,anonymized,Serial_Dependence_U,2023.2.3,Win32,178.57142857124296,,,,,,1672.405700000003,6.0,5.0,1672.405800000001,6.0,,,,1675.944800000001,1676.444,1675.4397000000029,1675.944800000001,1673.4064999999998,1675.4396000000013,1676.444,1676.9446000000014,1676.944700000003,1677.0898000000009,106.0,1677.09,1.0,1677.0941000000014,5.0,10.0,160.0,26.0,1.0,1.0,0.7,Time
,,S21,1,女,21,anonymized,Serial_Dependence_U,2023.2.3,Win32,178.57142857124296,,,,,,1677.0943000000009,128.0,5.0,1677.0944000000022,128.0,,,,1681.0616000000014,1681.561,1680.5563000000006,1681.061400000002,1678.0949999999998,1680.5561000000014,1681.561,1682.0602000000029,1682.0603000000006,1682.4894000000022,121.0,1682.4894000000022,1.0,1682.4934999999998,5.0,11.0,161.0,13.0,1.0,1.4,0.3,Time
,,S21,1,女,21,anonymized,Serial_Dependence_U,2023.2.3,Win32,178.57142857124296,,,,,,1682.4938000000006,286.0,5.0,1682.4939000000022,286.0,,,,1685.8613000000007,1686.360700000003,1685.3556000000017,1685.8612000000028,1683.4949000000022,1685.3554000000022,1686.3608000000006,1686.86,1686.8601000000017,1687.4226000000017,95.0,1687.4226000000017,1.0,1687.426700000003,5.0,12.0,162.0,10.0,1.0,0.8,0.3,Time
,,S21,1,女,21,anonymized,Serial_Dependence_U,2023.2.3,Win32,178.57142857124296,,,,,,1687.427,104.0,5.0,1687.4271000000017,104.0,,,,1691.1942000000029,1691.6936000000014,1690.688900000002,1691.1941000000013,1688.4275,1690.6888000000006,1691.6936000000014,1692.193100000001,1692.193100000001,1692.5433000000007,74.0,1692.5433000000007,1.0,1692.5474000000022,5.0,13.0,163.0,22.0,1.0,1.2,0.3,Time
,,S21,1,女,21,anonymized,Serial_Dependence_U,2023.2.3,Win32,178.57142857124296,,,,,,1692.5476000000017,131.0,5.0,1692.5476000000017,131.0,,,,1695.8938000000007,1696.3926000000015,1695.388400000002,1695.8937000000028,1693.555300000001,1695.3883000000008,1696.3927000000028,1696.8926000000015,1696.8926000000015,1697.3496000000014,86.0,1697.3496000000014,1.0,1697.353900000002,5.0,14.0,164.0,15.0,1.0,0.8,0.7,Time
,,S21,1,女,21,anonymized,Serial_Dependence_U,2023.2.3,Win32,178.57142857124296,,,,,,1697.3541000000014,26.0,5.0,1697.3541000000014,26.0,,,,1700.927,1701.425700000003,1700.4214000000022,1700.927,1698.3603000000007,1700.4213000000009,1701.425700000003,1701.9262000000028,1701.9262000000028,1702.5602000000029,82.0,1702.5603000000006,1.0,1702.564200000003,5.0,15.0,165.0,21.0,1.0,1.0,0.3,Time
,,S21,1,女,21,anonymized,Serial_Dependence_U,2023.2.3,Win32,178.57142857124296,,,,,,1702.5645,81.0,5.0,1702.5646000000013,81.0,,,,1706.31,1706.808700000003,1705.8043000000007,1706.3099000000022,1703.5702000000028,1705.8041000000014,1706.808700000003,1707.3094999999998,1707.3096000000014,1708.632300000001,134.0,1708.632300000001,1.0,1708.6364999999998,5.0,16.0,166.0,27.0,1.0,1.2,0.7,Time
,,S21,1,女,21,anonymized,Serial_Dependence_U,2023.2.3,Win32,178.57142857124296,,,,,,1708.6366000000014,189.0,5.0,1708.6366000000014,189.0,,,,1712.4088000000006,1712.9088000000006,1711.904100000001,1712.408700000003,1709.6421000000014,1711.904100000001,1712.9088000000006,1713.4082000000028,1713.4082000000028,1714.6038000000003,106.0,1714.603900000002,1.0,1714.6079000000022,5.0,17.0,167.0,2.0,1.0,1.2,0.3,Time
,,S21,1,女,21,anonymized,Serial_Dependence_U,2023.2.3,Win32,178.57142857124296,,,,,,1714.608,63.0,5.0,1714.6082000000029,63.0,,,,1718.1481000000017,1718.6474999999998,1717.6417000000029,1718.148,1715.6091000000015,1717.6416000000013,1718.6474999999998,1719.147400000002,1719.147400000002,1719.914700000003,111.0,1719.914700000003,1.0,1719.9188000000006,5.0,18.0,168.0,6.0,1.0,1.0,0.7,Time
,,S21,1,女,21,anonymized,Serial_Dependence_U,2023.2.3,Win32,178.57142857124296,,,,,,1719.919,32.0,5.0,1719.9191000000014,32.0,,,,1723.2857000000029,1723.785900000002,1722.781,1723.2856000000013,1720.919900000002,1722.780800000001,1723.785900000002,1724.285200000003,1724.2853000000007,1724.7033000000006,85.0,1724.7033000000006,1.0,1724.707400000002,5.0,19.0,169.0,20.0,1.0,0.8,0.3,Time
,,S21,1,女,21,anonymized,Serial_Dependence_U,2023.2.3,Win32,178.57142857124296,,,,,,1724.707600000001,152.0,5.0,1724.707600000001,152.0,,,,1728.475,1728.9739000000022,1727.9697000000028,1728.4749000000022,1725.7088000000006,1727.9696000000015,1728.9739000000022,1729.474400000002,1729.4744999999998,1729.964,56.0,1729.9641000000015,1.0,1729.968200000003,5.0,20.0,170.0,12.0,1.0,1.2,0.3,Time
,,S21,1,女,21,anonymized,Serial_Dependence_U,2023.2.3,Win32,178.57142857124296,,,,,,1729.9685,27.0,5.0,1729.9686000000015,27.0,,,,1734.1135,1734.6131000000014,1733.6081000000015,1734.1134000000022,1730.9752000000028,1733.6081000000015,1734.6131000000014,1735.1124000000025,1735.1124000000025,1735.4803000000006,94.0,1735.4803000000006,1.0,1735.484400000002,5.0,21.0,171.0,29.0,1.0,1.6,0.7,Time
,,S21,1,女,21,anonymized,Serial_Dependence_U,2023.2.3,Win32,178.57142857124296,,,,,,1735.4846000000014,338.0,5.0,1735.484700000003,338.0,,,,1739.624200000003,1740.1237000000028,1739.118700000003,1739.624200000003,1736.485700000003,1739.1186000000014,1740.1237000000028,1740.6229999999998,1740.6231000000014,1742.300800000001,86.0,1742.3009000000022,1.0,1742.3051000000014,5.0,22.0,172.0,9.0,1.0,1.6,0.7,Time
,,S21,1,女,21,anonymized,Serial_Dependence_U,2023.2.3,Win32,178.57142857124296,,,,,,1742.305300000001,37.0,5.0,1742.3054000000022,37.0,,,,1745.6517000000028,1746.1511000000014,1745.1461000000013,1745.6516000000015,1743.3128000000006,1745.1461000000013,1746.1511000000014,1746.650400000002,1746.650400000002,1747.184,87.0,1747.1841000000013,1.0,1747.1882000000028,5.0,23.0,173.0,25.0,1.0,0.8,0.7,Time
,,S21,1,女,21,anonymized,Serial_Dependence_U,2023.2.3,Win32,178.57142857124296,,,,,,1747.188400000002,61.0,5.0,1747.188400000002,61.0,,,,1750.5514999999998,1751.050800000001,1750.0457000000029,1750.551400000002,1748.184800000001,1750.0456000000015,1751.050800000001,1751.550700000003,1751.550700000003,1752.0347000000029,72.0,1752.0347000000029,1.0,1752.0386000000017,5.0,24.0,174.0,0.0,1.0,0.8,0.3,Time
,,S21,1,女,21,anonymized,Serial_Dependence_U,2023.2.3,Win32,178.57142857124296,,,,,,1752.039,203.0,5.0,1752.039100000001,203.0,,,,1756.212,1756.7107000000028,1755.7066000000011,1756.211900000002,1753.0455,1755.7066000000011,1756.7108000000007,1757.2108000000007,1757.2108000000007,1757.611,69.0,1757.611,1.0,1757.6151000000011,5.0,25.0,175.0,24.0,1.0,1.6,0.3,Time
,,S21,1,女,21,anonymized,Serial_Dependence_U,2023.2.3,Win32,178.57142857124296,,,,,,1757.615200000003,349.0,5.0,1757.6153000000006,349.0,,,,1761.756,1762.255600000001,1761.2507000000028,1761.756,1758.6176000000014,1761.2505,1762.255600000001,1762.7555,1762.755600000001,1763.173,78.0,1763.173100000001,1.0,1763.1771000000017,5.0,26.0,176.0,19.0,1.0,1.6,0.7,Time
,,S21,1,女,21,anonymized,Serial_Dependence_U,2023.2.3,Win32,178.57142857124296,,,,,,1763.1772000000028,112.0,5.0,1763.177400000002,112.0,,,,1766.755700000003,1767.255400000002,1766.2503000000006,1766.755700000003,1764.183900000002,1766.250100000001,1767.255400000002,1767.7555,1767.7555,1768.2059000000022,89.0,1768.2059000000022,1.0,1768.2099999999998,5.0,27.0,177.0,11.0,1.0,1.0,0.3,Time
,,S21,1,女,21,anonymized,Serial_Dependence_U,2023.2.3,Win32,178.57142857124296,,,,,,1768.2101000000014,184.0,5.0,1768.210200000003,184.0,,,,1772.188900000002,1772.6875,1771.6834000000022,1772.1888000000006,1769.216700000003,1771.6833000000006,1772.6875,1773.1875,1773.1875,1773.5833000000007,72.0,1773.5833000000007,1.0,1773.5875,5.0,28.0,178.0,23.0,1.0,1.4,0.3,Time
,,S21,1,女,21,anonymized,Serial_Dependence_U,2023.2.3,Win32,178.57142857124296,,,,,,1773.587700000003,14.0,5.0,1773.587900000002,14.0,,,,1777.3321000000014,1777.8315,1776.8275,1777.332,1774.594200000003,1776.8274000000022,1777.8316000000011,1778.3316000000011,1778.331700000003,1778.688600000001,78.0,1778.6887000000029,1.0,1778.6928000000007,5.0,29.0,179.0,7.0,1.0,1.2,0.7,Time
,,S21,1,女,21,anonymized,Serial_Dependence_U,2023.2.3,Win32,178.57142857124296,,,,,,1778.692900000002,343.0,6.0,1781.2438000000006,343.0,s,2.546999999999798,,1785.4156000000014,1785.915400000002,1784.9098000000006,1785.4154999999998,1782.2493000000006,1784.9097000000029,1785.915400000002,1786.4143000000006,1786.4145,1787.8157000000028,89.0,1787.8157000000028,1.0,1787.8199000000022,6.0,0.0,180.0,14.0,1.0,1.6,0.3,Time
,,S21,1,女,21,anonymized,Serial_Dependence_U,2023.2.3,Win32,178.57142857124296,,,,,,1787.82,182.0,6.0,1787.8206000000014,182.0,,,,1791.3876000000014,1791.8862000000029,1790.8817000000029,1791.3874999999998,1788.8209000000022,1790.8816000000013,1791.8862000000029,1792.386800000001,1792.386800000001,1792.571,94.0,1792.5711000000017,1.0,1792.575200000003,6.0,1.0,181.0,11.0,1.0,1.0,0.3,Time
,,S21,1,女,21,anonymized,Serial_Dependence_U,2023.2.3,Win32,178.57142857124296,,,,,,1792.5754000000022,29.0,6.0,1792.5756000000015,29.0,,,,1796.515,1797.013700000003,1796.0148000000006,1796.5149000000022,1793.5816000000011,1796.014700000003,1797.013700000003,1797.5143000000007,1797.5143000000007,1798.376100000001,117.0,1798.376100000001,1.0,1798.3803000000007,6.0,2.0,182.0,28.0,1.0,1.4,0.7,Time
,,S21,1,女,21,anonymized,Serial_Dependence_U,2023.2.3,Win32,178.57142857124296,,,,,,1798.380600000001,218.0,6.0,1798.380600000001,218.0,,,,1801.747900000002,1802.247300000001,1801.2422000000029,1801.7478000000008,1799.3814000000025,1801.2421000000013,1802.2474000000025,1802.7466000000013,1802.7467000000029,1803.146800000001,76.0,1803.146800000001,1.0,1803.150900000002,6.0,3.0,183.0,0.0,1.0,0.8,0.3,Time
,,S21,1,女,21,anonymized,Serial_Dependence_U,2023.2.3,Win32,178.57142857124296,,,,,,1803.1511000000012,107.0,6.0,1803.1511000000012,107.0,,,,1806.696700000003,1807.197,1806.191900000002,1806.6965,1804.158,1806.1918000000007,1807.197,1807.697,1807.697,1808.03,82.0,1808.0301000000013,1.0,1808.0342000000028,6.0,4.0,184.0,26.0,1.0,1.0,0.7,Time
,,S21,1,女,21,anonymized,Serial_Dependence_U,2023.2.3,Win32,178.57142857124296,,,,,,1808.0343000000007,167.0,6.0,1808.0345,167.0,,,,1812.014,1812.5133000000008,1811.5083000000009,1812.014,1809.0418000000009,1811.508200000003,1812.5133000000008,1813.0132000000028,1813.0132000000028,1813.435,86.0,1813.4351000000013,1.0,1813.4391000000012,6.0,5.0,185.0,23.0,1.0,1.4,0.3,Time
,,S21,1,女,21,anonymized,Serial_Dependence_U,2023.2.3,Win32,178.57142857124296,,,,,,1813.4394000000025,51.0,6.0,1813.4394000000025,51.0,,,,1817.4136000000012,1817.912900000002,1816.9079000000024,1817.4135,1814.447,1816.907700000003,1817.913,1818.412200000003,1818.4123000000009,1818.7248000000009,89.0,1818.7248000000009,1.0,1818.728900000002,6.0,6.0,186.0,13.0,1.0,1.4,0.3,Time
,,S21,1,女,21,anonymized,Serial_Dependence_U,2023.2.3,Win32,178.57142857124296,,,,,,1818.729,234.0,6.0,1818.729200000003,234.0,,,,1822.2677000000028,1822.7675,1821.7633000000008,1822.2676000000013,1819.73,1821.7631000000013,1822.7676000000013,1823.2674000000025,1823.2674000000025,1823.6243000000009,78.0,1823.6244000000024,1.0,1823.6285,6.0,7.0,187.0,6.0,1.0,1.0,0.7,Time
,,S21,1,女,21,anonymized,Serial_Dependence_U,2023.2.3,Win32,178.57142857124296,,,,,,1823.6286000000011,335.0,6.0,1823.628700000003,335.0,,,,1826.9961000000012,1827.495,1826.490900000002,1826.996,1824.6296000000011,1826.4908000000007,1827.495,1827.995700000003,1827.995700000003,1828.4395,85.0,1828.4396000000013,1.0,1828.4438000000007,6.0,8.0,188.0,20.0,1.0,0.8,0.3,Time
,,S21,1,女,21,anonymized,Serial_Dependence_U,2023.2.3,Win32,178.57142857124296,,,,,,1828.4439000000025,242.0,6.0,1828.444,242.0,,,,1832.2125,1832.7113000000008,1831.707,1832.2124000000024,1829.4459000000024,1831.707,1832.7113000000008,1833.211900000002,1833.211900000002,1833.407,89.0,1833.4071000000013,1.0,1833.4111000000012,6.0,9.0,189.0,22.0,1.0,1.2,0.3,Time
,,S21,1,女,21,anonymized,Serial_Dependence_U,2023.2.3,Win32,178.57142857124296,,,,,,1833.411200000003,180.0,6.0,1833.4114000000025,180.0,,,,1837.5567000000028,1838.0561000000012,1837.0511000000013,1837.5566000000013,1834.418,1837.051,1838.056200000003,1838.555300000001,1838.5554000000025,1838.8235,95.0,1838.8235,1.0,1838.8275,6.0,10.0,190.0,19.0,1.0,1.6,0.7,Time
,,S21,1,女,21,anonymized,Serial_Dependence_U,2023.2.3,Win32,178.57142857124296,,,,,,1838.827700000003,359.0,6.0,1838.827900000002,359.0,,,,1842.5619000000024,1843.0612000000028,1842.0616000000011,1842.5619000000024,1839.8286000000012,1842.061400000002,1843.0613000000008,1843.5605,1843.5606000000012,1843.9786000000013,89.0,1843.9786000000013,1.0,1843.982700000003,6.0,11.0,191.0,27.0,1.0,1.2,0.7,Time
,,S21,1,女,21,anonymized,Serial_Dependence_U,2023.2.3,Win32,178.57142857124296,,,,,,1843.983,7.0,6.0,1843.9831000000013,7.0,,,,1848.155800000001,1848.655,1847.650400000002,1848.155700000003,1844.9891000000011,1847.6503000000007,1848.655,1849.1552000000029,1849.1553000000008,1849.3505,61.0,1849.3505,1.0,1849.3545,6.0,12.0,192.0,4.0,1.0,1.6,0.3,Time
,,S21,1,女,21,anonymized,Serial_Dependence_U,2023.2.3,Win32,178.57142857124296,,,,,,1849.3547000000028,138.0,6.0,1849.3548000000008,138.0,,,,1853.5,1853.9994000000024,1852.9945,1853.499900000002,1850.3612000000028,1852.9945,1853.9995,1854.4987000000028,1854.4987000000028,1854.876800000001,76.0,1854.876800000001,1.0,1854.881,6.0,13.0,193.0,9.0,1.0,1.6,0.7,Time
,,S21,1,女,21,anonymized,Serial_Dependence_U,2023.2.3,Win32,178.57142857124296,,,,,,1854.8811000000012,258.0,6.0,1854.881200000003,258.0,,,,1859.0486000000012,1859.5484000000024,1858.544,1859.0486000000012,1855.882300000001,1858.544,1859.5484000000024,1860.049,1860.049100000001,1860.4998000000007,78.0,1860.4998000000007,1.0,1860.504,6.0,14.0,194.0,24.0,1.0,1.6,0.3,Time
,,S21,1,女,21,anonymized,Serial_Dependence_U,2023.2.3,Win32,178.57142857124296,,,,,,1860.5043000000007,242.0,6.0,1860.5043000000007,242.0,,,,1864.0761000000011,1864.5757000000028,1863.571400000002,1864.076,1861.5106000000012,1863.5713000000007,1864.5757000000028,1865.0757000000028,1865.0758000000008,1865.2105,78.0,1865.2105,1.0,1865.214700000003,6.0,15.0,195.0,21.0,1.0,1.0,0.3,Time
,,S21,1,女,21,anonymized,Serial_Dependence_U,2023.2.3,Win32,178.57142857124296,,,,,,1865.2148000000009,120.0,6.0,1865.2149000000024,120.0,,,,1869.1546000000012,1869.653200000003,1868.6489000000024,1869.1546000000012,1866.215700000003,1868.6488000000008,1869.653200000003,1870.153200000003,1870.153200000003,1870.3992000000028,89.0,1870.3992000000028,1.0,1870.4034000000024,6.0,16.0,196.0,18.0,1.0,1.4,0.7,Time
,,S21,1,女,21,anonymized,Serial_Dependence_U,2023.2.3,Win32,178.57142857124296,,,,,,1870.4036000000012,243.0,6.0,1870.4036000000012,243.0,,,,1874.343,1874.841700000003,1873.8374000000024,1874.342900000002,1871.4043000000008,1873.8373000000008,1874.841700000003,1875.342400000002,1875.342400000002,1878.6373000000008,78.0,1878.637400000002,1.0,1878.641900000002,6.0,17.0,197.0,8.0,1.0,1.4,0.7,Time
,,S21,1,女,21,anonymized,Serial_Dependence_U,2023.2.3,Win32,178.57142857124296,,,,,,1878.642,83.0,6.0,1878.6421000000012,83.0,,,,1882.380600000001,1882.8808000000008,1881.8758000000007,1882.3805,1879.6426000000013,1881.8758000000007,1882.8808000000008,1883.3801000000012,1883.3801000000012,1886.020200000003,72.0,1886.020200000003,1.0,1886.024700000003,6.0,18.0,198.0,7.0,1.0,1.2,0.7,Time
,,S21,1,女,21,anonymized,Serial_Dependence_U,2023.2.3,Win32,178.57142857124296,,,,,,1886.0248000000008,64.0,6.0,1886.025,64.0,,,,1889.569,1890.0692000000029,1889.064300000001,1889.5689000000025,1887.0302000000029,1889.064200000003,1890.0692000000029,1890.5692000000029,1890.5692000000029,1891.1366000000012,126.0,1891.1366000000012,1.0,1891.1407000000029,6.0,19.0,199.0,16.0,1.0,1.0,0.7,Time
,,S21,1,女,21,anonymized,Serial_Dependence_U,2023.2.3,Win32,178.57142857124296,,,,,,1891.141,33.0,6.0,1891.141200000003,33.0,,,,1895.280400000002,1895.779200000003,1894.775,1895.2802000000029,1892.1417000000029,1894.7749000000024,1895.779200000003,1896.279900000002,1896.279900000002,1897.124900000002,111.0,1897.124900000002,1.0,1897.1289000000024,6.0,20.0,200.0,29.0,1.0,1.6,0.7,Time
,,S21,1,女,21,anonymized,Serial_Dependence_U,2023.2.3,Win32,178.57142857124296,,,,,,1897.1291000000012,272.0,6.0,1897.1291000000012,272.0,,,,1900.696700000003,1901.196400000002,1900.1913000000009,1900.6966000000011,1898.1303000000007,1900.191200000003,1901.196400000002,1901.6962000000028,1901.6963000000007,1902.219200000003,111.0,1902.219200000003,1.0,1902.2233000000008,6.0,21.0,201.0,1.0,1.0,1.0,0.3,Time
,,S21,1,女,21,anonymized,Serial_Dependence_U,2023.2.3,Win32,178.57142857124296,,,,,,1902.223400000002,73.0,6.0,1902.2235,73.0,,,,1905.9908000000007,1906.4906000000012,1905.4853000000007,1905.9907000000028,1903.2245,1905.4852000000028,1906.4906000000012,1906.9903000000008,1906.9903000000008,1909.896400000002,89.0,1909.896400000002,1.0,1909.9011000000012,6.0,22.0,202.0,12.0,1.0,1.2,0.3,Time
,,S21,1,女,21,anonymized,Serial_Dependence_U,2023.2.3,Win32,178.57142857124296,,,,,,1909.901300000001,34.0,6.0,1909.9014000000025,34.0,,,,1913.6401000000012,1914.139700000003,1913.1348000000007,1913.6399000000024,1910.9016000000013,1913.1347000000028,1914.139700000003,1914.6399000000024,1914.6399000000024,1915.4949000000024,87.0,1915.4949000000024,1.0,1915.4991000000011,6.0,23.0,203.0,17.0,1.0,1.2,0.7,Time
,,S21,1,女,21,anonymized,Serial_Dependence_U,2023.2.3,Win32,178.57142857124296,,,,,,1915.4993000000009,351.0,6.0,1915.4993000000009,351.0,,,,1919.461900000002,1919.9616000000012,1918.9563000000007,1919.4618000000007,1916.4958000000008,1918.9562000000028,1919.9616000000012,1920.4617000000028,1920.4617000000028,1948.8051000000012,94.0,1948.8051000000012,1.0,1948.8095,6.0,24.0,204.0,3.0,1.0,1.4,0.3,Time
,,S21,1,女,21,anonymized,Serial_Dependence_U,2023.2.3,Win32,178.57142857124296,,,,,,1948.809700000003,118.0,6.0,1948.8098000000005,118.0,,,,1952.1544000000024,1952.6531000000011,1951.648900000002,1952.1544000000024,1949.8156000000013,1951.6488000000008,1952.6531000000011,1953.1531000000011,1953.1531000000011,1954.3105,186.0,1954.3105,1.0,1954.3146000000013,6.0,25.0,205.0,15.0,1.0,0.8,0.7,Time
,,S21,1,女,21,anonymized,Serial_Dependence_U,2023.2.3,Win32,178.57142857124296,,,,,,1954.3148000000008,329.0,6.0,1954.3148000000008,329.0,,,,1957.654200000003,1958.1528000000008,1957.1485,1957.654200000003,1955.3154000000025,1957.1483000000007,1958.1528000000008,1958.6529000000023,1958.6529000000023,1959.6708000000008,136.0,1959.6709000000023,1.0,1959.675,6.0,26.0,206.0,5.0,1.0,0.8,0.7,Time
,,S21,1,女,21,anonymized,Serial_Dependence_U,2023.2.3,Win32,178.57142857124296,,,,,,1959.6752000000029,290.0,6.0,1959.6752000000029,290.0,,,,1963.014,1963.5142000000028,1962.5092000000027,1963.0139000000024,1960.675900000002,1962.5091000000016,1963.5142000000028,1964.0135,1964.0135,1964.8984000000023,464.0,1964.8984000000023,1.0,1964.9026000000013,6.0,27.0,207.0,25.0,1.0,0.8,0.7,Time
,,S21,1,女,21,anonymized,Serial_Dependence_U,2023.2.3,Win32,178.57142857124296,,,,,,1964.9028000000008,23.0,6.0,1964.9029000000023,23.0,,,,1968.669200000003,1969.168700000003,1968.164400000002,1968.6691000000012,1965.903400000002,1968.164200000003,1969.168700000003,1969.6695,1969.6695,1971.4699000000023,97.0,1971.4699000000023,1.0,1971.4741000000013,6.0,28.0,208.0,2.0,1.0,1.2,0.3,Time
,,S21,1,女,21,anonymized,Serial_Dependence_U,2023.2.3,Win32,178.57142857124296,,,,,,1971.4742000000028,92.0,6.0,1971.4743000000008,92.0,,,,1974.8473000000008,1975.3468000000007,1974.342,1974.8473000000008,1972.4809000000023,1974.3419000000024,1975.3468000000007,1975.8468000000007,1975.8469000000025,1976.7794000000024,151.0,1976.7795,1.0,1976.783700000003,6.0,29.0,209.0,10.0,1.0,0.8,0.3,Time
,,S21,1,女,21,anonymized,Serial_Dependence_U,2023.2.3,Win32,178.57142857124296,,,,,,1976.7839000000024,203.0,7.0,1986.8178000000007,203.0,s,10.025699999999231,,1990.762900000002,1991.2623000000008,1990.2574000000025,1990.7628000000009,1987.824,1990.257300000001,1991.2623000000008,1991.7617000000027,1991.7617000000027,1993.6963000000003,122.0,1993.6963000000003,1.0,1993.700400000002,7.0,0.0,210.0,18.0,1.0,1.4,0.7,Time
,,S21,1,女,21,anonymized,Serial_Dependence_U,2023.2.3,Win32,178.57142857124296,,,,,,1993.7006000000013,244.0,7.0,1993.7012000000027,244.0,,,,1997.279,1997.778,1996.773900000002,1997.278900000002,1994.7071000000012,1996.773700000003,1997.778,1998.278,1998.278,1998.7237000000027,117.0,1998.7237000000027,1.0,1998.728,7.0,1.0,211.0,21.0,1.0,1.0,0.3,Time
,,S21,1,女,21,anonymized,Serial_Dependence_U,2023.2.3,Win32,178.57142857124296,,,,,,1998.728300000001,356.0,7.0,1998.728300000001,356.0,,,,2002.0945,2002.5942000000027,2001.5899000000024,2002.0945,1999.7291000000012,2001.5898000000009,2002.5942000000027,2003.0949000000023,2003.0949000000023,2003.6567000000027,134.0,2003.6567000000027,1.0,2003.6608000000008,7.0,2.0,212.0,10.0,1.0,0.8,0.3,Time
,,S21,1,女,21,anonymized,Serial_Dependence_U,2023.2.3,Win32,178.57142857124296,,,,,,2003.661,1.0,7.0,2003.6611000000016,1.0,,,,2007.6284000000023,2008.128,2007.1231000000016,2007.6283000000008,2004.6619000000023,2007.123,2008.128,2008.6273000000008,2008.6273000000008,2009.0164000000025,103.0,2009.0164000000025,1.0,2009.0206000000007,7.0,3.0,213.0,13.0,1.0,1.4,0.3,Time
,,S21,1,女,21,anonymized,Serial_Dependence_U,2023.2.3,Win32,178.57142857124296,,,,,,2009.0207000000028,221.0,7.0,2009.0207000000028,221.0,,,,2012.7669000000024,2013.265700000003,2012.2615,2012.7668000000008,2010.0274000000024,2012.261400000002,2013.2658000000008,2013.7658000000008,2013.7658000000008,2014.567,145.0,2014.567,1.0,2014.5711000000013,7.0,4.0,214.0,7.0,1.0,1.2,0.7,Time
,,S21,1,女,21,anonymized,Serial_Dependence_U,2023.2.3,Win32,178.57142857124296,,,,,,2014.571200000003,116.0,7.0,2014.571400000002,116.0,,,,2018.7111000000011,2019.2098000000003,2018.2056000000016,2018.7111000000011,2015.5725,2018.2056000000016,2019.2098000000003,2019.7105,2019.7105,2020.1211000000008,89.0,2020.1212000000028,1.0,2020.1253000000008,7.0,5.0,215.0,9.0,1.0,1.6,0.7,Time
,,S21,1,女,21,anonymized,Serial_Dependence_U,2023.2.3,Win32,178.57142857124296,,,,,,2020.1254000000024,227.0,7.0,2020.1254000000024,227.0,,,,2024.266300000001,2024.764900000002,2023.760700000003,2024.2662000000028,2021.1275,2023.7606000000012,2024.765,2025.265,2025.265,2025.6598000000008,121.0,2025.6598000000008,1.0,2025.664,7.0,6.0,216.0,19.0,1.0,1.6,0.7,Time
,,S21,1,女,21,anonymized,Serial_Dependence_U,2023.2.3,Win32,178.57142857124296,,,,,,2025.664100000001,310.0,7.0,2025.664200000003,310.0,,,,2029.0324000000023,2029.5313000000008,2028.5268000000003,2029.0323000000008,2026.665800000001,2028.5268000000003,2029.531400000002,2030.0313000000008,2030.0313000000008,2030.3705,86.0,2030.3705,1.0,2030.374700000003,7.0,7.0,217.0,0.0,1.0,0.8,0.3,Time
,,S21,1,女,21,anonymized,Serial_Dependence_U,2023.2.3,Win32,178.57142857124296,,,,,,2030.374900000002,206.0,7.0,2030.374900000002,206.0,,,,2033.9157000000027,2034.414400000002,2033.41,2033.9156000000007,2031.3768000000005,2033.4098000000008,2034.4145,2034.915,2034.915,2035.332400000002,122.0,2035.332400000002,1.0,2035.3366000000012,7.0,8.0,218.0,26.0,1.0,1.0,0.7,Time
,,S21,1,女,21,anonymized,Serial_Dependence_U,2023.2.3,Win32,178.57142857124296,,,,,,2035.336700000003,137.0,7.0,2035.3368000000005,137.0,,,,2038.9041000000016,2039.403,2038.3983000000007,2038.904,2036.3376000000007,2038.3983000000007,2039.403,2039.9036000000012,2039.903700000003,2040.5708000000009,147.0,2040.5708000000009,1.0,2040.5749000000023,7.0,9.0,219.0,11.0,1.0,1.0,0.3,Time
,,S21,1,女,21,anonymized,Serial_Dependence_U,2023.2.3,Win32,178.57142857124296,,,,,,2040.575,51.0,7.0,2040.5751000000012,51.0,,,,2044.7426000000012,2045.2415,2044.2371000000007,2044.7425,2041.5762000000027,2044.2369000000024,2045.2415,2045.7413000000008,2045.7414000000024,2046.165200000003,145.0,2046.165200000003,1.0,2046.1693000000005,7.0,10.0,220.0,24.0,1.0,1.6,0.3,Time
,,S21,1,女,21,anonymized,Serial_Dependence_U,2023.2.3,Win32,178.57142857124296,,,,,,2046.1695,99.0,7.0,2046.1695,99.0,,,,2050.109,2050.6084000000023,2049.6035,2050.108900000002,2047.1702000000028,2049.6034000000022,2050.6084000000023,2051.1079000000022,2051.1079000000022,2054.575600000001,155.0,2054.575600000001,1.0,2054.579900000002,7.0,11.0,221.0,8.0,1.0,1.4,0.7,Time
,,S21,1,女,21,anonymized,Serial_Dependence_U,2023.2.3,Win32,178.57142857124296,,,,,,2054.580100000001,324.0,7.0,2054.580100000001,324.0,,,,2058.3471000000013,2058.846700000003,2057.8418000000006,2058.347,2055.5806000000016,2057.8417000000027,2058.846700000003,2059.346700000003,2059.346700000003,2060.446200000003,152.0,2060.4463000000005,1.0,2060.4505,7.0,12.0,222.0,12.0,1.0,1.2,0.3,Time
,,S21,1,女,21,anonymized,Serial_Dependence_U,2023.2.3,Win32,178.57142857124296,,,,,,2060.450600000001,351.0,7.0,2060.450700000003,351.0,,,,2064.0247000000027,2064.5234000000023,2063.519300000001,2064.0245,2061.4583000000007,2063.5191000000013,2064.5234000000023,2065.0234000000023,2065.0234000000023,2065.6025,133.0,2065.6025,1.0,2065.606600000001,7.0,13.0,223.0,1.0,1.0,1.0,0.3,Time
,,S21,1,女,21,anonymized,Serial_Dependence_U,2023.2.3,Win32,178.57142857124296,,,,,,2065.606700000003,139.0,7.0,2065.606700000003,139.0,,,,2069.5743000000007,2070.073100000001,2069.068700000003,2069.5742000000027,2066.6077000000028,2069.068700000003,2070.073100000001,2070.572900000002,2070.572900000002,2070.8731000000016,107.0,2070.8732000000027,1.0,2070.877400000002,7.0,14.0,224.0,23.0,1.0,1.4,0.3,Time
,,S21,1,女,21,anonymized,Serial_Dependence_U,2023.2.3,Win32,178.57142857124296,,,,,,2070.8776000000016,292.0,7.0,2070.8776000000016,292.0,,,,2074.817600000001,2075.3171000000016,2074.313100000001,2074.8175,2071.8795,2074.313100000001,2075.3171000000016,2075.8179000000023,2075.8179000000023,2076.079700000003,117.0,2076.079700000003,1.0,2076.083700000003,7.0,15.0,225.0,28.0,1.0,1.4,0.7,Time
,,S21,1,女,21,anonymized,Serial_Dependence_U,2023.2.3,Win32,178.57142857124296,,,,,,2076.084,179.0,7.0,2076.0841000000014,179.0,,,,2079.4235,2079.922400000002,2078.918100000001,2079.423400000002,2077.084900000002,2078.917900000002,2079.922400000002,2080.422400000002,2080.4225,2082.0794000000024,172.0,2082.0794000000024,1.0,2082.0836000000013,7.0,16.0,226.0,25.0,1.0,0.8,0.7,Time
,,S21,1,女,21,anonymized,Serial_Dependence_U,2023.2.3,Win32,178.57142857124296,,,,,,2082.083800000001,58.0,7.0,2082.084,58.0,,,,2085.8288000000007,2086.327600000001,2085.323100000001,2085.8287000000028,2083.0901000000013,2085.323,2086.327600000001,2086.8275,2086.827600000001,2087.045700000003,117.0,2087.045700000003,1.0,2087.0498000000007,7.0,17.0,227.0,27.0,1.0,1.2,0.7,Time
,,S21,1,女,21,anonymized,Serial_Dependence_U,2023.2.3,Win32,178.57142857124296,,,,,,2087.05,150.0,7.0,2087.0501000000013,150.0,,,,2090.8171000000016,2091.3165,2090.312,2090.8171000000016,2088.05,2090.311800000001,2091.3165,2091.816700000003,2091.8168000000005,2091.989700000003,150.0,2091.989700000003,1.0,2091.994,7.0,18.0,228.0,22.0,1.0,1.2,0.3,Time
,,S21,1,女,21,anonymized,Serial_Dependence_U,2023.2.3,Win32,178.57142857124296,,,,,,2091.994200000003,139.0,7.0,2091.9943000000007,139.0,,,,2095.961400000002,2096.4608000000007,2095.4558000000006,2095.961300000001,2092.995100000001,2095.4557000000027,2096.4608000000007,2096.9601000000016,2096.9602000000027,2097.172600000001,122.0,2097.172700000003,1.0,2097.1767000000027,7.0,19.0,229.0,3.0,1.0,1.4,0.3,Time
,,S21,1,女,21,anonymized,Serial_Dependence_U,2023.2.3,Win32,178.57142857124296,,,,,,2097.176900000002,228.0,7.0,2097.176900000002,228.0,,,,2100.522200000003,2101.0216000000014,2100.0166000000013,2100.522100000001,2098.183600000001,2100.0165,2101.0216000000014,2101.5209000000023,2101.521,2101.826600000001,152.0,2101.826600000001,1.0,2101.830900000002,7.0,20.0,230.0,5.0,1.0,0.8,0.7,Time
,,S21,1,女,21,anonymized,Serial_Dependence_U,2023.2.3,Win32,178.57142857124296,,,,,,2101.831,75.0,7.0,2101.831,75.0,,,,2105.171900000002,2105.670700000003,2104.666300000001,2105.1718000000005,2102.833100000001,2104.6661000000013,2105.670700000003,2106.171300000001,2106.171300000001,2106.4556000000016,95.0,2106.4557000000027,1.0,2106.4598000000005,7.0,21.0,231.0,15.0,1.0,0.8,0.7,Time
,,S21,1,女,21,anonymized,Serial_Dependence_U,2023.2.3,Win32,178.57142857124296,,,,,,2106.4602000000027,264.0,7.0,2106.4602000000027,264.0,,,,2110.6323000000007,2111.131400000002,2110.127100000001,2110.6322000000027,2107.4663000000005,2110.126900000002,2111.131400000002,2111.632,2111.632,2111.905,139.0,2111.9051000000013,1.0,2111.909100000001,7.0,22.0,232.0,14.0,1.0,1.6,0.3,Time
,,S21,1,女,21,anonymized,Serial_Dependence_U,2023.2.3,Win32,178.57142857124296,,,,,,2111.9093000000007,314.0,7.0,2111.9094000000023,314.0,,,,2115.2824000000023,2115.781100000001,2114.7768000000005,2115.282200000003,2112.9159000000022,2114.776700000003,2115.781200000003,2116.281,2116.281100000001,2116.699100000001,133.0,2116.699100000001,1.0,2116.703400000002,7.0,23.0,233.0,20.0,1.0,0.8,0.3,Time
,,S21,1,女,21,anonymized,Serial_Dependence_U,2023.2.3,Win32,178.57142857124296,,,,,,2116.7035,202.0,7.0,2116.7035,202.0,,,,2120.2486000000013,2120.747400000002,2119.743100000001,2120.2485,2117.7098000000005,2119.743100000001,2120.747400000002,2121.248,2121.248,2121.5598000000005,116.0,2121.5598000000005,1.0,2121.564,7.0,24.0,234.0,16.0,1.0,1.0,0.7,Time
,,S21,1,女,21,anonymized,Serial_Dependence_U,2023.2.3,Win32,178.57142857124296,,,,,,2121.5641000000014,342.0,7.0,2121.564200000003,342.0,,,,2125.109400000002,2125.608200000003,2124.6039000000023,2125.109200000003,2122.5703000000008,2124.603700000003,2125.608200000003,2126.108200000003,2126.108200000003,2126.4429000000023,95.0,2126.4429000000023,1.0,2126.446900000002,7.0,25.0,235.0,6.0,1.0,1.0,0.7,Time
,,S21,1,女,21,anonymized,Serial_Dependence_U,2023.2.3,Win32,178.57142857124296,,,,,,2126.447100000001,249.0,7.0,2126.447100000001,249.0,,,,2130.1866000000014,2130.6858000000007,2129.681400000002,2130.1865,2127.4483000000005,2129.6813000000006,2130.6858000000007,2131.1857000000027,2131.1858000000007,2131.441300000001,113.0,2131.441300000001,1.0,2131.4455,7.0,26.0,236.0,17.0,1.0,1.2,0.7,Time
,,S21,1,女,21,anonymized,Serial_Dependence_U,2023.2.3,Win32,178.57142857124296,,,,,,2131.445700000003,294.0,7.0,2131.445700000003,294.0,,,,2135.608,2136.107600000001,2135.1033000000007,2135.6079000000022,2132.4422000000027,2135.1033000000007,2136.107600000001,2136.6075,2136.607600000001,2136.948,128.0,2136.948,1.0,2136.9521000000013,7.0,27.0,237.0,4.0,1.0,1.6,0.3,Time
,,S21,1,女,21,anonymized,Serial_Dependence_U,2023.2.3,Win32,178.57142857124296,,,,,,2136.952300000001,128.0,7.0,2136.952300000001,128.0,,,,2140.725200000003,2141.2238000000007,2140.219700000003,2140.725100000001,2137.958700000003,2140.2196000000013,2141.2238000000007,2141.7238000000007,2141.7238000000007,2142.003,154.0,2142.003,1.0,2142.0072000000027,7.0,28.0,238.0,2.0,1.0,1.2,0.3,Time
,,S21,1,女,21,anonymized,Serial_Dependence_U,2023.2.3,Win32,178.57142857124296,,,,,,2142.0073000000007,38.0,7.0,2142.0074000000022,38.0,,,,2146.1525,2146.651200000003,2145.6468000000004,2146.152400000002,2143.0137000000027,2145.646700000003,2146.651200000003,2147.151900000002,2147.151900000002,2147.558400000002,123.0,2147.558400000002,1.0,2147.5626000000016,7.0,29.0,239.0,29.0,1.0,1.6,0.7,Time
,,S21,1,女,21,anonymized,Serial_Dependence_U,2023.2.3,Win32,178.57142857124296,,,,,,2147.5628000000006,160.0,8.0,2150.624400000002,160.0,s,3.0579999999999927,,2154.595600000001,2155.0958000000005,2154.090800000001,2154.595400000002,2151.6298000000006,2154.0906000000014,2155.0958000000005,2155.5951000000014,2155.5951000000014,2156.4521000000013,100.0,2156.4521000000013,1.0,2156.4564000000023,8.0,0.0,240.0,3.0,1.0,1.4,0.3,Time
,,S21,1,女,21,anonymized,Serial_Dependence_U,2023.2.3,Win32,178.57142857124296,,,,,,2156.4566000000013,178.0,8.0,2156.457200000003,178.0,,,,2160.595700000003,2161.095400000002,2160.0903000000008,2160.595600000001,2157.457200000003,2160.090200000003,2161.095400000002,2161.595400000002,2161.595400000002,2161.8516000000013,89.0,2161.851700000003,1.0,2161.8558000000007,8.0,1.0,241.0,19.0,1.0,1.6,0.7,Time
,,S21,1,女,21,anonymized,Serial_Dependence_U,2023.2.3,Win32,178.57142857124296,,,,,,2161.856,163.0,8.0,2161.856,163.0,,,,2165.4004000000023,2165.9,2164.8957000000028,2165.4003000000007,2162.8624000000023,2164.8955,2165.9,2166.399900000002,2166.399900000002,2166.5291000000016,117.0,2166.5292000000027,1.0,2166.533400000002,8.0,2.0,242.0,6.0,1.0,1.0,0.7,Time
,,S21,1,女,21,anonymized,Serial_Dependence_U,2023.2.3,Win32,178.57142857124296,,,,,,2166.534100000001,352.0,8.0,2166.534200000003,352.0,,,,2170.278600000001,2170.7781000000014,2169.7733000000007,2170.278400000002,2167.539700000003,2169.773200000003,2170.7781000000014,2171.278,2171.2781000000014,2171.378800000001,94.0,2171.378900000002,1.0,2171.383,8.0,3.0,243.0,7.0,1.0,1.2,0.7,Time
,,S21,1,女,21,anonymized,Serial_Dependence_U,2023.2.3,Win32,178.57142857124296,,,,,,2171.383200000003,131.0,8.0,2171.383400000002,131.0,,,,2174.749600000001,2175.249300000001,2174.245,2174.7495,2172.3841000000016,2174.245,2175.249300000001,2175.749300000001,2175.749300000001,2175.906400000002,149.0,2175.906400000002,1.0,2175.910700000003,8.0,4.0,244.0,0.0,1.0,0.8,0.3,Time
,,S21,1,女,21,anonymized,Serial_Dependence_U,2023.2.3,Win32,178.57142857124296,,,,,,2175.910900000002,26.0,8.0,2175.910900000002,26.0,,,,2179.450300000001,2179.949,2178.9446000000016,2179.4501000000014,2176.9115,2178.9445,2179.949,2180.449,2180.449,2180.8449000000023,239.0,2180.8449000000023,1.0,2180.8489000000022,8.0,5.0,245.0,26.0,1.0,1.0,0.7,Time
,,S21,1,女,21,anonymized,Serial_Dependence_U,2023.2.3,Win32,178.57142857124296,,,,,,2180.849,296.0,8.0,2180.8491000000013,296.0,,,,2184.387700000003,2184.888200000003,2183.883200000003,2184.3876000000014,2181.849900000002,2183.883,2184.888200000003,2185.388200000003,2185.388200000003,2185.487700000003,74.0,2185.487700000003,1.0,2185.492,8.0,6.0,246.0,16.0,1.0,1.0,0.7,Time
,,S21,1,女,21,anonymized,Serial_Dependence_U,2023.2.3,Win32,178.57142857124296,,,,,,2185.4921000000013,214.0,8.0,2185.492200000003,214.0,,,,2188.855,2189.3539000000023,2188.349700000003,2188.855,2186.488700000003,2188.3496000000014,2189.3539000000023,2189.854600000001,2189.854600000001,2191.255200000003,117.0,2191.2553000000007,1.0,2191.259400000002,8.0,7.0,247.0,20.0,1.0,0.8,0.3,Time
,,S21,1,女,21,anonymized,Serial_Dependence_U,2023.2.3,Win32,178.57142857124296,,,,,,2191.2595,10.0,8.0,2191.259600000001,10.0,,,,2194.8269000000023,2195.3268000000007,2194.321400000002,2194.8268000000007,2192.260600000001,2194.3213000000005,2195.3268000000007,2195.8265,2195.8265,2196.127100000001,170.0,2196.127100000001,1.0,2196.1313000000005,8.0,8.0,248.0,1.0,1.0,1.0,0.3,Time
,,S21,1,女,21,anonymized,Serial_Dependence_U,2023.2.3,Win32,178.57142857124296,,,,,,2196.131400000002,337.0,8.0,2196.1315,337.0,,,,2200.298700000003,2200.797600000001,2199.7935,2200.298600000001,2197.132700000003,2199.7935,2200.797600000001,2201.2975,2201.2975,2201.804800000001,301.0,2201.8049000000024,1.0,2201.809200000003,8.0,9.0,249.0,4.0,1.0,1.6,0.3,Time
,,S21,1,女,21,anonymized,Serial_Dependence_U,2023.2.3,Win32,178.57142857124296,,,,,,2201.8094000000024,37.0,8.0,2201.8095,37.0,,,,2205.7482000000027,2206.247900000002,2205.242900000002,2205.748,2202.809900000002,2205.242900000002,2206.248,2206.7471000000014,2206.7471000000014,2206.96,55.0,2206.9601000000016,1.0,2206.9643000000005,8.0,10.0,250.0,28.0,1.0,1.4,0.7,Time
,,S21,1,女,21,anonymized,Serial_Dependence_U,2023.2.3,Win32,178.57142857124296,,,,,,2206.964400000002,93.0,8.0,2206.9645,93.0,,,,2211.1085,2211.608,2210.6034000000022,2211.108300000001,2207.969700000003,2210.6033000000007,2211.608,2212.108800000001,2212.108900000002,2212.5706000000014,359.0,2212.5706000000014,1.0,2212.574700000003,8.0,11.0,251.0,29.0,1.0,1.6,0.7,Time
,,S21,1,女,21,anonymized,Serial_Dependence_U,2023.2.3,Win32,178.57142857124296,,,,,,2212.5749000000023,8.0,8.0,2212.5749000000023,8.0,,,,2215.913600000001,2216.4132000000027,2215.4088000000006,2215.913600000001,2213.576,2215.4087000000027,2216.4132000000027,2216.9138000000007,2216.9138000000007,2217.747900000002,572.0,2217.747900000002,2.0,2217.752100000001,8.0,12.0,252.0,5.0,1.0,0.8,0.7,Time
,,S21,1,女,21,anonymized,Serial_Dependence_U,2023.2.3,Win32,178.57142857124296,,,,,,2217.752300000001,9.0,8.0,2217.752400000002,9.0,,,,2221.7198000000008,2222.2185,2221.219,2221.7198000000008,2218.758,2221.218900000002,2222.2185,2222.7195,2222.7195,2223.053100000001,190.0,2223.053100000001,1.0,2223.057300000001,8.0,13.0,253.0,13.0,1.0,1.4,0.3,Time
,,S21,1,女,21,anonymized,Serial_Dependence_U,2023.2.3,Win32,178.57142857124296,,,,,,2223.057400000002,200.0,8.0,2223.0575,200.0,,,,2227.229700000003,2227.7291000000014,2226.724800000001,2227.229600000001,2224.064200000003,2226.724700000003,2227.729200000003,2228.2291000000014,2228.2291000000014,2228.724900000002,372.0,2228.724900000002,1.0,2228.729200000003,8.0,14.0,254.0,14.0,1.0,1.6,0.3,Time
