Scale_setup.started,Scale_setup.stopped,participant,session,sex,age,date,expName,psychopyVersion,OS,frameRate,Intro.started,Intro.stopped,key_resp_2.keys,key_resp_2.rt,key_resp_2.duration,block.started,direction,Block_id,block.stopped,trial_direction,Block_resp_2.keys,Block_resp_2.rt,Block_resp_2.duration,ITI.started,ITI.stopped,Mask_2.started,Mask_2.stopped,encoding.started,encoding.stopped,Cue.started,Cue.stopped,Response.started,Response.stopped,keyDuration,Feedback_Time.started,FeedbackID_T,Feedback_Time.stopped,trials.thisRepN,trials.thisTrialN,trials.thisN,trials.thisIndex,trials.ran,TimeDur,Coherence1,TrialType
0.0002999999523147,0.0003999998569454,S22,1,女,18,anonymized,Serial_Dependence_U,2023.2.3,Win32,59.88023952095548,,,,,,,,,,,,,,,,,,,,,,,,,,,,,,,,,,,
,,S22,1,女,18,anonymized,Serial_Dependence_U,2023.2.3,Win32,59.88023952095548,33.21309999990463,149.71470000004769,space,116.45709999990464,,,,,,,,,,,,,,,,,,,,,,,,,,,,,,,
,,S22,1,女,18,anonymized,Serial_Dependence_U,2023.2.3,Win32,59.88023952095548,,,,,,149.73559999990465,102.0,0.0,157.113,102.0,s,7.345499999999987,,160.71300000000002,161.2112999999523,160.19709999990465,160.71270000004768,158.12109999990463,160.19689999985695,161.21179999995235,161.71179999995235,161.7122000000477,162.9877999999523,150.0,162.98839999985694,1.0,163.98420000004768,0.0,0.0,0.0,1.0,1.0,1.0,0.3,Time
,,S22,1,女,18,anonymized,Serial_Dependence_U,2023.2.3,Win32,59.88023952095548,,,,,,163.98629999995234,64.0,0.0,163.98939999985697,64.0,,,,167.73639999985693,168.22770000004766,167.22039999985697,167.7362000000477,164.98589999985694,167.22020000004767,168.22789999985696,168.7168999998569,168.71709999990463,172.7112000000477,198.0,172.7112999999523,1.0,173.71020000004768,0.0,1.0,1.0,27.0,1.0,1.2,0.7,Time
,,S22,1,女,18,anonymized,Serial_Dependence_U,2023.2.3,Win32,59.88023952095548,,,,,,173.71109999990466,349.0,0.0,173.7115,349.0,,,,177.91039999985696,178.4092000000477,177.3945,177.91020000004767,174.72859999990465,177.3942999999523,178.4092000000477,178.90949999999998,178.90949999999998,180.07639999985696,213.0,180.0772000000477,1.0,181.07479999995235,0.0,2.0,2.0,24.0,1.0,1.6,0.3,Time
,,S22,1,女,18,anonymized,Serial_Dependence_U,2023.2.3,Win32,59.88023952095548,,,,,,181.07529999995236,108.0,0.0,181.07539999985693,108.0,,,,184.8165999999046,185.31529999995237,184.31089999985693,184.8165,182.07709999990465,184.3107000000477,185.3153999998569,185.8147000000477,185.8147999999523,188.5005,184.0,188.5007000000477,1.0,189.4972999999523,0.0,3.0,3.0,17.0,1.0,1.2,0.7,Time
,,S22,1,女,18,anonymized,Serial_Dependence_U,2023.2.3,Win32,59.88023952095548,,,,,,189.4982000000477,289.0,0.0,189.49859999990463,289.0,,,,193.06570000004768,193.5625,192.549,193.0655,190.5002000000477,192.54889999985693,193.56259999990465,194.05759999990465,194.0577000000477,198.11539999985692,167.0,198.1155,1.0,199.10689999985695,0.0,4.0,4.0,26.0,1.0,1.0,0.7,Time
,,S22,1,女,18,anonymized,Serial_Dependence_U,2023.2.3,Win32,59.88023952095548,,,,,,199.10789999985693,198.0,0.0,199.1082999999523,198.0,,,,203.0957999999523,203.5932000000477,202.5812000000477,203.0957000000477,200.11429999995232,202.5810999999047,203.5932999999523,204.09339999985696,204.09359999990463,217.04539999985693,150.0,217.0457000000477,1.0,218.03679999995236,0.0,5.0,5.0,3.0,1.0,1.4,0.3,Time
,,S22,1,女,18,anonymized,Serial_Dependence_U,2023.2.3,Win32,59.88023952095548,,,,,,218.0375,247.0,0.0,218.0377999999523,247.0,,,,221.42689999985697,221.92009999990464,220.90970000004768,221.42689999985697,219.044,220.90970000004768,221.9202000000477,222.41959999990465,222.41959999990465,234.2447000000477,184.0,234.2448999998569,1.0,235.23999999999995,0.0,6.0,6.0,0.0,1.0,0.8,0.3,Time
,,S22,1,女,18,anonymized,Serial_Dependence_U,2023.2.3,Win32,59.88023952095548,,,,,,235.24070000004764,45.0,0.0,235.24139999985687,45.0,,,,239.19370000004767,239.6843999998569,238.67659999990457,239.19359999990465,236.24339999985693,238.6765,239.6845,240.1915,240.1917000000477,243.01020000004763,267.0,243.0105,1.0,244.001,0.0,7.0,7.0,18.0,1.0,1.4,0.7,Time
,,S22,1,女,18,anonymized,Serial_Dependence_U,2023.2.3,Win32,59.88023952095548,,,,,,244.0020999999046,190.0,0.0,244.003,190.0,,,,247.9918999998569,248.48349999999996,247.47549999999995,247.9918999998569,245.00770000004763,247.4753999998569,248.48359999990456,248.97149999999996,248.97159999990456,253.05859999990457,184.0,253.0588999998569,1.0,254.04889999985693,0.0,8.0,8.0,23.0,1.0,1.4,0.3,Time
,,S22,1,女,18,anonymized,Serial_Dependence_U,2023.2.3,Win32,59.88023952095548,,,,,,254.04979999995223,200.0,0.0,254.04999999999995,200.0,,,,257.8390999999046,258.3320999999046,257.3227999999523,257.83899999999994,255.05549999999997,257.32270000004763,258.33220000004764,258.836,258.8360999999046,260.77279999995227,201.0,260.773,1.0,261.76489999985694,0.0,9.0,9.0,2.0,1.0,1.2,0.3,Time
,,S22,1,女,18,anonymized,Serial_Dependence_U,2023.2.3,Win32,59.88023952095548,,,,,,261.766,11.0,0.0,261.76620000004766,11.0,,,,265.7215999999046,266.2145,265.2208999998569,265.7215999999046,262.773,265.2208999998569,266.2147000000476,266.7038999998569,266.70399999999995,269.6875999999046,166.0,269.6877999999523,1.0,270.6803999998569,0.0,10.0,10.0,28.0,1.0,1.4,0.7,Time
,,S22,1,女,18,anonymized,Serial_Dependence_U,2023.2.3,Win32,59.88023952095548,,,,,,270.6812000000476,111.0,0.0,270.6815,111.0,,,,274.2702000000476,274.7628999998569,273.75379999995226,274.2700999999046,271.6873999998569,273.7537000000477,274.763,275.2627999999523,275.2628999998569,279.6535999999046,3300.0,279.6537999999523,5.0,280.64620000004766,0.0,11.0,11.0,21.0,1.0,1.0,0.3,Time
,,S22,1,女,18,anonymized,Serial_Dependence_U,2023.2.3,Win32,59.88023952095548,,,,,,280.6465999999046,201.0,0.0,280.6467999999523,201.0,,,,284.0305,284.5290999999046,283.5125,284.0305,281.6472999999523,283.51239999985694,284.52920000004764,285.0287999999523,285.0288999998569,303.6675,15813.0,303.66770000004766,5.0,304.65899999999993,0.0,12.0,12.0,20.0,1.0,0.8,0.3,Time
,,S22,1,女,18,anonymized,Serial_Dependence_U,2023.2.3,Win32,59.88023952095548,,,,,,304.6598999998569,29.0,0.0,304.6600999999046,29.0,,,,308.6157999999523,309.1083999998569,308.0992999999523,308.61570000004764,305.6657999999523,308.09920000004763,309.1083999998569,309.5967999999523,309.59689999985693,319.58149999999995,9599.0,319.58170000004765,5.0,320.57920000004765,0.0,13.0,13.0,8.0,1.0,1.4,0.7,Time
,,S22,1,女,18,anonymized,Serial_Dependence_U,2023.2.3,Win32,59.88023952095548,,,,,,320.57989999985693,85.0,0.0,320.5802000000476,85.0,,,,324.56359999990457,325.05679999995226,324.0473999998569,324.5633999998569,321.5820999999046,324.04729999995226,325.0568999998569,325.5562999999523,325.5563999998569,328.9985,2434.0,328.99859999990457,5.0,329.9895,0.0,14.0,14.0,13.0,1.0,1.4,0.3,Time
,,S22,1,女,18,anonymized,Serial_Dependence_U,2023.2.3,Win32,59.88023952095548,,,,,,329.99020000004765,321.0,0.0,329.9903999998569,321.0,,,,334.14820000004767,334.6427000000476,333.631,334.14820000004767,330.99839999985693,333.6308999998569,334.6427999999523,335.13879999995225,335.13899999999995,345.24549999999994,9248.0,345.24549999999994,5.0,346.24299999999994,0.0,15.0,15.0,29.0,1.0,1.6,0.7,Time
,,S22,1,女,18,anonymized,Serial_Dependence_U,2023.2.3,Win32,59.88023952095548,,,,,,346.2438999998569,349.0,0.0,346.244,349.0,,,,349.7935999999046,350.2865999999046,349.2773999998569,349.79349999999994,347.2457999999523,349.2773999998569,350.28670000004763,350.7920999999046,350.7920999999046,357.9772000000477,6832.0,357.9773999998569,5.0,358.9687999999523,0.0,16.0,16.0,6.0,1.0,1.0,0.7,Time
,,S22,1,女,18,anonymized,Serial_Dependence_U,2023.2.3,Win32,59.88023952095548,,,,,,358.9695999999046,124.0,0.0,358.9698999998569,124.0,,,,362.3097999999523,362.80179999995227,361.8087000000476,362.30970000004766,359.9760999999046,361.8085999999046,362.802,363.3015,363.3017000000477,370.6757000000477,3548.0,370.67589999985694,5.0,371.67220000004767,0.0,17.0,17.0,25.0,1.0,0.8,0.7,Time
,,S22,1,女,18,anonymized,Serial_Dependence_U,2023.2.3,Win32,59.88023952095548,,,,,,371.6728999998569,217.0,0.0,371.6730999999046,217.0,,,,375.4237999999523,375.9167000000476,374.9097999999522,375.4237000000476,372.674,374.9097000000476,375.9167999999523,376.4047999999523,376.4047999999523,380.0755,2166.0,380.0757000000476,5.0,381.0672000000477,0.0,18.0,18.0,7.0,1.0,1.2,0.7,Time
,,S22,1,女,18,anonymized,Serial_Dependence_U,2023.2.3,Win32,59.88023952095548,,,,,,381.0680999999046,26.0,0.0,381.0683999998569,26.0,,,,385.2575,385.7495999999046,384.7418999998569,385.2573999998569,382.07420000004765,384.7417000000477,385.74970000004765,386.2547999999523,386.2548999998569,404.2543999998569,16746.0,404.2545999999046,5.0,405.2462999999522,0.0,19.0,19.0,14.0,1.0,1.6,0.3,Time
,,S22,1,女,18,anonymized,Serial_Dependence_U,2023.2.3,Win32,59.88023952095548,,,,,,405.24720000004766,3.0,0.0,405.2475,3.0,,,,409.448,409.9455,408.9303999998569,409.4478999998569,406.2550999999046,408.9302000000477,409.9455,410.4455,410.4455999999046,428.6273999998569,14366.0,428.6277999999523,5.0,429.62629999995227,0.0,20.0,20.0,4.0,1.0,1.6,0.3,Time
,,S22,1,女,18,anonymized,Serial_Dependence_U,2023.2.3,Win32,59.88023952095548,,,,,,429.62679999995225,327.0,0.0,429.627,327.0,,,,433.4103999998569,433.9092000000476,432.8943999998569,433.41020000004767,430.6275999999046,432.8940999999046,433.9092000000476,434.4088999998569,434.4088999998569,436.6928999998569,1866.0,436.6930999999046,5.0,437.6918999998569,0.0,21.0,21.0,22.0,1.0,1.2,0.3,Time
,,S22,1,女,18,anonymized,Serial_Dependence_U,2023.2.3,Win32,59.88023952095548,,,,,,437.6922999999523,94.0,0.0,437.6923999998569,94.0,,,,441.84270000004767,442.3412999999523,441.3260999999046,441.8425,438.6930999999046,441.3260999999046,442.3412999999523,442.8412000000477,442.8412999999523,451.7243999998569,8482.0,451.7247000000476,5.0,452.7233999998569,0.0,22.0,22.0,19.0,1.0,1.6,0.7,Time
,,S22,1,女,18,anonymized,Serial_Dependence_U,2023.2.3,Win32,59.88023952095548,,,,,,452.72389999985694,174.0,0.0,452.724,174.0,,,,456.07420000004765,456.5727999999523,455.5580999999046,456.074,453.7245,455.5577999999523,456.5727999999523,457.0727000000476,457.0727000000476,457.2073999998569,119.0,457.2075999999046,1.0,458.2060999999046,0.0,23.0,23.0,5.0,1.0,0.8,0.7,Time
,,S22,1,女,18,anonymized,Serial_Dependence_U,2023.2.3,Win32,59.88023952095548,,,,,,458.2065999999046,253.0,0.0,458.207,253.0,,,,461.75629999995226,462.2553999998569,461.2402999999523,461.75620000004767,459.2068999998569,461.2400999999046,462.2555999999046,462.7552999999523,462.7553999998569,464.4725999999046,680.0,464.4728999998569,1.0,465.4717000000476,0.0,24.0,24.0,16.0,1.0,1.0,0.7,Time
,,S22,1,女,18,anonymized,Serial_Dependence_U,2023.2.3,Win32,59.88023952095548,,,,,,465.4720999999046,330.0,0.0,465.4722000000476,330.0,,,,469.2557999999523,469.7545,468.73929999995227,469.2557000000476,466.4728999998569,468.73909999990457,469.7545,470.2543999998569,470.2545,471.9217999999522,1103.0,471.9220999999046,2.0,472.9207000000477,0.0,25.0,25.0,12.0,1.0,1.2,0.3,Time
,,S22,1,女,18,anonymized,Serial_Dependence_U,2023.2.3,Win32,59.88023952095548,,,,,,472.9212000000476,269.0,0.0,472.9212000000476,269.0,,,,476.3050999999046,476.8035999999046,475.7885999999046,476.3048999998569,473.9220999999046,475.7885,476.8037000000476,477.3035,477.3035,479.0040999999046,1019.0,479.0043999998569,4.0,480.0032000000476,0.0,26.0,26.0,10.0,1.0,0.8,0.3,Time
,,S22,1,女,18,anonymized,Serial_Dependence_U,2023.2.3,Win32,59.88023952095548,,,,,,480.0037000000477,285.0,0.0,480.00379999995226,285.0,,,,484.1537000000477,484.6525999999046,483.6372999999523,484.1535,481.0043999998569,483.6372000000477,484.6525999999046,485.1525999999046,485.1525999999046,486.5532999999523,998.0,486.5537000000477,1.0,487.5522999999523,0.0,27.0,27.0,9.0,1.0,1.6,0.7,Time
,,S22,1,女,18,anonymized,Serial_Dependence_U,2023.2.3,Win32,59.88023952095548,,,,,,487.5527000000476,62.0,0.0,487.5527999999523,62.0,,,,490.9028999998569,491.4015999999047,490.38639999985696,490.9025999999046,488.5532000000477,490.38609999990456,491.4017000000477,491.9017000000477,491.9017999999522,493.7025,1103.0,493.70289999985687,5.0,494.7012999999523,0.0,28.0,28.0,15.0,1.0,0.8,0.7,Time
,,S22,1,女,18,anonymized,Serial_Dependence_U,2023.2.3,Win32,59.88023952095548,,,,,,494.7017000000476,165.0,0.0,494.7017999999523,165.0,,,,498.285,498.7842000000477,497.7688999998569,498.2847999999522,495.7022999999523,497.7687999999523,498.7842000000477,499.2840999999046,499.2840999999046,500.4852000000476,817.0,500.4855999999046,2.0,501.4837000000476,0.0,29.0,29.0,11.0,1.0,1.0,0.3,Time
,,S22,1,女,18,anonymized,Serial_Dependence_U,2023.2.3,Win32,59.88023952095548,,,,,,501.4842999999523,251.0,1.0,506.4945999999046,251.0,s,4.983900000095332,,510.6673999998569,511.1657999999522,510.15039999985686,510.6670999999046,507.4842000000476,510.15029999995227,511.16589999985695,511.6657000000477,511.6657000000477,513.6497000000477,1230.0,513.65,2.0,513.6625999999046,1.0,0.0,30.0,24.0,1.0,1.6,0.3,Time
,,S22,1,女,18,anonymized,Serial_Dependence_U,2023.2.3,Win32,59.88023952095548,,,,,,513.6628999998569,148.0,1.0,513.6640999999046,148.0,,,,517.4164999999999,517.9150999999046,516.9005,517.4162999999522,514.6667999999523,516.9002000000477,517.9152000000477,518.4148999998569,518.4148999998569,524.4982000000476,3266.0,524.4984999999999,5.0,524.5110999999046,1.0,1.0,31.0,27.0,1.0,1.2,0.7,Time
,,S22,1,女,18,anonymized,Serial_Dependence_U,2023.2.3,Win32,59.88023952095548,,,,,,524.511399999857,265.0,1.0,524.5115,265.0,,,,528.4648999998569,528.9635,527.9483999998569,528.4647999999523,525.515,527.9482999999523,528.9635999999045,529.463399999857,529.463399999857,532.4803999998569,1539.0,532.4807000000476,4.0,532.4934999999999,1.0,2.0,32.0,8.0,1.0,1.4,0.7,Time
,,S22,1,女,18,anonymized,Serial_Dependence_U,2023.2.3,Win32,59.88023952095548,,,,,,532.4937999999523,261.0,1.0,532.4939999999999,261.0,,,,536.0804999999999,536.5792000000476,535.564,536.0802000000476,533.4972999999522,535.5637999999523,536.5792999999522,537.0792999999522,537.079399999857,538.313,636.0,538.3132000000477,1.0,538.3223999998569,1.0,3.0,33.0,1.0,1.0,1.0,0.3,Time
,,S22,1,女,18,anonymized,Serial_Dependence_U,2023.2.3,Win32,59.88023952095548,,,,,,538.3227000000477,308.0,1.0,538.3227000000477,308.0,,,,542.0627999999523,542.5617999999523,541.5468999998569,542.0627000000477,539.3135,541.5467000000476,542.5617999999523,543.0617000000476,543.0617000000476,544.3453999998569,307.0,544.3453999998569,1.0,544.3560999999046,1.0,4.0,34.0,7.0,1.0,1.2,0.7,Time
,,S22,1,女,18,anonymized,Serial_Dependence_U,2023.2.3,Win32,59.88023952095548,,,,,,544.3563999998569,137.0,1.0,544.3565,137.0,,,,548.4955,548.9942999999523,547.9789999999999,548.4952999999523,545.3462000000477,547.9787000000476,548.9943999998569,549.4943999998569,549.4943999998569,550.3782999999523,483.0,550.3785999999046,1.0,550.3895999999046,1.0,5.0,35.0,29.0,1.0,1.6,0.7,Time
,,S22,1,女,18,anonymized,Serial_Dependence_U,2023.2.3,Win32,59.88023952095548,,,,,,550.3898999998569,215.0,1.0,550.39,215.0,,,,553.7778999998569,554.2768999998569,553.2612000000477,553.7777000000476,551.3952000000477,553.2610999999046,554.2768999998569,554.7767000000476,554.7767999999522,556.0604999999999,750.0,556.0607999999522,2.0,556.0725999999046,1.0,6.0,36.0,20.0,1.0,0.8,0.3,Time
,,S22,1,女,18,anonymized,Serial_Dependence_U,2023.2.3,Win32,59.88023952095548,,,,,,556.073,358.0,1.0,556.0730999999046,358.0,,,,559.8270999999046,560.3260999999046,559.3110999999046,559.8268999998569,557.0778999998569,559.3109999999999,560.3260999999046,560.8259999999999,560.8260999999046,562.5105,1151.0,562.5107999999523,3.0,562.5240999999046,1.0,7.0,37.0,17.0,1.0,1.2,0.7,Time
,,S22,1,女,18,anonymized,Serial_Dependence_U,2023.2.3,Win32,59.88023952095548,,,,,,562.5243999998569,100.0,1.0,562.5245,100.0,,,,566.1102000000476,566.6087000000476,565.5937999999522,566.1100999999046,563.5270999999046,565.5935999999045,566.6087999999522,567.1087000000476,567.1087999999522,568.0595,534.0,568.0597999999522,1.0,568.0725,1.0,8.0,38.0,21.0,1.0,1.0,0.3,Time
,,S22,1,女,18,anonymized,Serial_Dependence_U,2023.2.3,Win32,59.88023952095548,,,,,,568.0727999999523,109.0,1.0,568.073,109.0,,,,571.4259999999999,571.9247000000477,570.9095,571.4258999998569,569.0767999999523,570.9092999999523,571.9247999999523,572.4247000000477,572.4247000000477,574.9252999999522,2159.0,574.9257999999522,5.0,574.9355999999046,1.0,9.0,39.0,5.0,1.0,0.8,0.7,Time
,,S22,1,女,18,anonymized,Serial_Dependence_U,2023.2.3,Win32,59.88023952095548,,,,,,574.9359999999999,113.0,1.0,574.9360999999046,113.0,,,,579.0759999999999,579.5737000000477,578.559,579.0755999999046,575.9255999999046,578.5587999999523,579.5737000000477,580.0737000000477,580.0737000000477,582.1075999999046,1644.0,582.107899999857,3.0,582.1195,1.0,10.0,40.0,19.0,1.0,1.6,0.7,Time
,,S22,1,女,18,anonymized,Serial_Dependence_U,2023.2.3,Win32,59.88023952095548,,,,,,582.1198999998569,75.0,1.0,582.12,75.0,,,,586.1072999999523,586.6065999999046,585.5908999998569,586.1070999999046,583.1242999999523,585.5907000000476,586.6065999999046,587.1060999999046,587.1062000000477,588.7735,1194.0,588.774,2.0,588.7862999999522,1.0,11.0,41.0,13.0,1.0,1.4,0.3,Time
,,S22,1,女,18,anonymized,Serial_Dependence_U,2023.2.3,Win32,59.88023952095548,,,,,,588.7867000000476,158.0,1.0,588.7867999999522,158.0,,,,592.756899999857,593.2552999999523,592.2400999999046,592.7567999999522,589.8072000000476,592.2398999998569,593.2552999999523,593.7552999999523,593.7552999999523,595.0393999998569,888.0,595.0397999999523,1.0,595.0522000000476,1.0,12.0,42.0,18.0,1.0,1.4,0.7,Time
,,S22,1,女,18,anonymized,Serial_Dependence_U,2023.2.3,Win32,59.88023952095548,,,,,,595.0525999999046,295.0,1.0,595.0527000000476,295.0,,,,599.2058999998569,599.704399999857,598.689399999857,599.2057000000476,596.0560999999046,598.6892000000477,599.7044999999999,600.204399999857,600.2044999999999,601.6550999999046,971.0,601.6555,1.0,601.6667000000476,1.0,13.0,43.0,9.0,1.0,1.6,0.7,Time
,,S22,1,女,18,anonymized,Serial_Dependence_U,2023.2.3,Win32,59.88023952095548,,,,,,601.6668999998569,355.0,1.0,601.6670999999046,355.0,,,,605.6215999999046,606.1202999999523,605.1052999999523,605.6215,602.6718999998569,605.1052000000476,606.1202999999523,606.6200999999046,606.6202000000477,607.4377000000477,290.0,607.4382000000477,1.0,607.449,1.0,14.0,44.0,28.0,1.0,1.4,0.7,Time
,,S22,1,女,18,anonymized,Serial_Dependence_U,2023.2.3,Win32,59.88023952095548,,,,,,607.4492999999522,83.0,1.0,607.4495,83.0,,,,611.2372999999523,611.7362000000477,610.7208999998569,611.2370999999046,608.4544999999999,610.7207999999523,611.7362999999523,612.2362999999523,612.2362999999523,614.2365999999046,1559.0,614.2367000000477,4.0,614.247,1.0,15.0,45.0,2.0,1.0,1.2,0.3,Time
,,S22,1,女,18,anonymized,Serial_Dependence_U,2023.2.3,Win32,59.88023952095548,,,,,,614.2472999999522,245.0,1.0,614.2472999999522,245.0,,,,618.2202999999523,618.7185999999045,617.704399999857,618.2202000000476,615.237,617.7040999999045,618.7185999999045,619.2187999999522,619.2187999999522,621.3025999999046,1552.0,621.3027999999523,4.0,621.3123999998569,1.0,16.0,46.0,23.0,1.0,1.4,0.3,Time
,,S22,1,女,18,anonymized,Serial_Dependence_U,2023.2.3,Win32,59.88023952095548,,,,,,621.3125999999046,66.0,1.0,621.3127999999523,66.0,,,,625.0857999999523,625.5843999998569,624.5692000000477,625.0857000000476,622.3025999999046,624.569,625.5844999999999,626.0843999998569,626.0843999998569,628.1518999998569,1293.0,628.1522999999523,4.0,628.1612999999522,1.0,17.0,47.0,12.0,1.0,1.2,0.3,Time
,,S22,1,女,18,anonymized,Serial_Dependence_U,2023.2.3,Win32,59.88023952095548,,,,,,628.1615999999046,260.0,1.0,628.1617000000476,260.0,,,,631.535,632.0335,631.0183999998569,631.535,629.1517000000476,631.0182999999523,632.0335,632.5337000000477,632.5337999999523,634.0843999998569,862.0,634.0847000000476,4.0,634.0949999999999,1.0,18.0,48.0,10.0,1.0,0.8,0.3,Time
,,S22,1,女,18,anonymized,Serial_Dependence_U,2023.2.3,Win32,59.88023952095548,,,,,,634.0952000000476,287.0,1.0,634.0952999999523,287.0,,,,637.6337999999523,638.1329999999999,637.117899999857,637.6337000000476,635.0843999998569,637.1177000000476,638.1329999999999,638.6327000000476,638.6327999999522,640.0497999999523,964.0,640.05,3.0,640.0588999998569,1.0,19.0,49.0,16.0,1.0,1.0,0.7,Time
,,S22,1,女,18,anonymized,Serial_Dependence_U,2023.2.3,Win32,59.88023952095548,,,,,,640.0592000000477,357.0,1.0,640.0592999999523,357.0,,,,643.8335,644.3322999999523,643.3167999999523,643.8332999999523,641.0504999999999,643.3165,644.3323999998569,644.832,644.8320999999046,646.7497999999523,831.0,646.7500999999046,1.0,646.7612999999523,1.0,20.0,50.0,22.0,1.0,1.2,0.3,Time
,,S22,1,女,18,anonymized,Serial_Dependence_U,2023.2.3,Win32,59.88023952095548,,,,,,646.7615999999045,190.0,1.0,646.7617000000477,190.0,,,,650.3487000000476,650.847899999857,649.8325999999046,650.3487000000476,647.766,649.8323999998569,650.847899999857,651.347899999857,651.347899999857,652.4649999999999,515.0,652.4652000000476,1.0,652.4765999999046,1.0,21.0,51.0,11.0,1.0,1.0,0.3,Time
,,S22,1,女,18,anonymized,Serial_Dependence_U,2023.2.3,Win32,59.88023952095548,,,,,,652.477,18.0,1.0,652.4770999999046,18.0,,,,655.8318999998569,656.3305999999046,655.3159999999999,655.8317999999523,653.4818999998569,655.3157000000476,656.3305999999046,656.8303999998569,656.8304999999999,658.098,820.0,658.0982999999522,3.0,658.1092000000476,1.0,22.0,52.0,15.0,1.0,0.8,0.7,Time
,,S22,1,女,18,anonymized,Serial_Dependence_U,2023.2.3,Win32,59.88023952095548,,,,,,658.1094999999999,299.0,1.0,658.1097000000476,299.0,,,,662.0973999998569,662.5962999999523,661.5810999999046,662.0972000000477,659.1147999999523,661.5808999998569,662.5962999999523,663.0962999999523,663.0963999998569,664.9637999999522,1166.0,664.9639999999999,2.0,664.9752000000476,1.0,23.0,53.0,3.0,1.0,1.4,0.3,Time
,,S22,1,女,18,anonymized,Serial_Dependence_U,2023.2.3,Win32,59.88023952095548,,,,,,664.9755999999046,304.0,1.0,664.9757000000476,304.0,,,,669.1632999999523,669.6622999999523,668.6468999998569,669.1632999999523,665.9805,668.6467000000476,669.6622999999523,670.1622000000476,670.1622000000476,671.8298999998569,1083.0,671.8302000000476,1.0,671.8440999999046,1.0,24.0,54.0,14.0,1.0,1.6,0.3,Time
,,S22,1,女,18,anonymized,Serial_Dependence_U,2023.2.3,Win32,59.88023952095548,,,,,,671.8444999999999,344.0,1.0,671.8448999998569,344.0,,,,676.0292999999523,676.5279999999999,675.5135999999046,676.0290999999046,672.8465,675.5133999998569,676.5279999999999,677.0278999998569,677.0278999998569,678.0285,582.0,678.0287000000476,1.0,678.0372000000476,1.0,25.0,55.0,4.0,1.0,1.6,0.3,Time
,,S22,1,女,18,anonymized,Serial_Dependence_U,2023.2.3,Win32,59.88023952095548,,,,,,678.0374999999999,229.0,1.0,678.0375999999046,229.0,,,,681.3952000000477,681.8938999998569,680.8785999999046,681.3950999999046,679.0455,680.8784999999999,681.8938999998569,682.3938999998569,682.3938999998569,683.8775999999046,1039.0,683.8778999998569,4.0,683.8895999999046,1.0,26.0,56.0,25.0,1.0,0.8,0.7,Time
,,S22,1,女,18,anonymized,Serial_Dependence_U,2023.2.3,Win32,59.88023952095548,,,,,,683.8897999999523,290.0,1.0,683.8898999998569,290.0,,,,687.4442000000477,687.943,686.9278999998569,687.4442000000477,684.895,686.9277999999523,687.9430999999046,688.4430999999046,688.4430999999046,690.0437000000477,900.0,690.044,2.0,690.0557000000476,1.0,27.0,57.0,6.0,1.0,1.0,0.7,Time
,,S22,1,女,18,anonymized,Serial_Dependence_U,2023.2.3,Win32,59.88023952095548,,,,,,690.0559999999999,81.0,1.0,690.0560999999046,81.0,,,,693.5990999999046,694.0922999999523,693.0937999999522,693.5989999999999,691.0602999999522,693.0935999999045,694.0922999999523,694.5922000000477,694.5922999999523,695.5592999999523,499.0,695.5595,1.0,695.5712000000476,1.0,28.0,58.0,26.0,1.0,1.0,0.7,Time
,,S22,1,女,18,anonymized,Serial_Dependence_U,2023.2.3,Win32,59.88023952095548,,,,,,695.5715999999046,197.0,1.0,695.5717000000476,197.0,,,,698.9597000000476,699.4582000000477,698.4427999999523,698.9595999999046,696.5767000000476,698.4427999999523,699.4582000000477,699.9582999999523,699.9582999999523,702.5754999999999,2001.0,702.5758999998569,5.0,702.5863999998569,1.0,29.0,59.0,0.0,1.0,0.8,0.3,Time
,,S22,1,女,18,anonymized,Serial_Dependence_U,2023.2.3,Win32,59.88023952095548,,,,,,702.5867000000477,93.0,2.0,705.6362000000477,93.0,s,3.0207000000476683,,709.4082000000476,709.9069999999999,708.8915,709.4078999998569,706.6258999998569,708.8912999999523,709.9069999999999,710.4068999998569,710.4068999998569,711.7407999999523,866.0,711.7410999999046,2.0,711.7505999999046,2.0,0.0,60.0,12.0,1.0,1.2,0.3,Time
,,S22,1,女,18,anonymized,Serial_Dependence_U,2023.2.3,Win32,59.88023952095548,,,,,,711.7508999998569,231.0,2.0,711.7520999999045,231.0,,,,715.2907000000477,715.7895999999046,714.7740999999046,715.2905,712.741,714.774,715.7895999999046,716.2895,716.2895999999046,720.7730999999046,2019.0,720.7733999998569,5.0,720.7857999999522,2.0,1.0,61.0,6.0,1.0,1.0,0.7,Time
,,S22,1,女,18,anonymized,Serial_Dependence_U,2023.2.3,Win32,59.88023952095548,,,,,,720.7862000000476,75.0,2.0,720.7862999999522,75.0,,,,724.3727999999522,724.8717000000477,723.8565,724.3727000000476,721.7897999999523,723.8562999999523,724.8717999999523,725.3715999999046,725.3717000000477,727.305399999857,830.0,727.3057999999522,2.0,727.3177000000477,2.0,2.0,62.0,21.0,1.0,1.0,0.3,Time
,,S22,1,女,18,anonymized,Serial_Dependence_U,2023.2.3,Win32,59.88023952095548,,,,,,727.3178999998569,67.0,2.0,727.318,67.0,,,,731.0720999999046,731.5708999998569,730.5552000000476,731.0718999998569,728.3222999999523,730.555,731.5708999998569,732.0707999999523,732.0707999999523,734.2049999999999,747.0,734.2053999998569,1.0,734.2187000000476,2.0,3.0,63.0,27.0,1.0,1.2,0.7,Time
,,S22,1,女,18,anonymized,Serial_Dependence_U,2023.2.3,Win32,59.88023952095548,,,,,,734.2190999999046,15.0,2.0,734.2192000000476,15.0,,,,738.2044999999999,738.7032000000477,737.6880999999046,738.2042999999522,735.2217000000477,737.688,738.7032000000477,739.2030999999046,739.2030999999046,740.5202999999523,821.0,740.5203999998569,1.0,740.5320999999046,2.0,4.0,64.0,3.0,1.0,1.4,0.3,Time
,,S22,1,女,18,anonymized,Serial_Dependence_U,2023.2.3,Win32,59.88023952095548,,,,,,740.5324999999999,13.0,2.0,740.5325999999046,13.0,,,,744.6872999999523,745.1857000000476,744.1707999999522,744.6870999999046,741.5378999998569,744.1705999999045,745.1857999999522,745.6855999999046,745.6857000000476,747.2360999999046,1061.0,747.2363999998569,1.0,747.2467999999523,2.0,5.0,65.0,9.0,1.0,1.6,0.7,Time
,,S22,1,女,18,anonymized,Serial_Dependence_U,2023.2.3,Win32,59.88023952095548,,,,,,747.247,26.0,2.0,747.2472000000477,26.0,,,,751.2192999999522,751.7182999999523,750.7030999999046,751.2192000000476,748.2362999999523,750.703,751.7182999999523,752.2182000000477,752.2182999999523,753.3023999998569,680.0,753.3025999999046,1.0,753.3147999999522,2.0,6.0,66.0,13.0,1.0,1.4,0.3,Time
,,S22,1,女,18,anonymized,Serial_Dependence_U,2023.2.3,Win32,59.88023952095548,,,,,,753.3150999999046,353.0,2.0,753.3152999999522,353.0,,,,757.5015999999046,758.0007999999523,756.9855999999046,757.5013999998569,754.318899999857,756.9853999998569,758.0007999999523,758.5005999999046,758.5007000000477,761.9843999998569,3116.0,761.9847000000476,5.0,761.9972000000477,2.0,7.0,67.0,4.0,1.0,1.6,0.3,Time
,,S22,1,女,18,anonymized,Serial_Dependence_U,2023.2.3,Win32,59.88023952095548,,,,,,761.9975,272.0,2.0,761.9975999999047,272.0,,,,765.9512000000476,766.4497999999522,765.4342999999523,765.9508999998569,763.0012999999523,765.4340999999046,766.4497999999522,766.9495999999046,766.9497000000476,769.3834999999999,1799.0,769.3835999999046,4.0,769.3932999999523,2.0,8.0,68.0,18.0,1.0,1.4,0.7,Time
,,S22,1,女,18,anonymized,Serial_Dependence_U,2023.2.3,Win32,59.88023952095548,,,,,,769.3935999999046,330.0,2.0,769.3935999999046,330.0,,,,772.9338999998569,773.4320999999046,772.4169999999999,772.9335999999046,770.3837000000476,772.4167999999523,773.4320999999046,773.932,773.9320999999046,774.5660999999046,149.0,774.5663999998569,1.0,774.5753999998569,2.0,9.0,69.0,26.0,1.0,1.0,0.7,Time
,,S22,1,女,18,anonymized,Serial_Dependence_U,2023.2.3,Win32,59.88023952095548,,,,,,774.5757000000476,342.0,2.0,774.5757999999523,342.0,,,,778.3159999999999,778.8147999999522,777.7993999998569,778.3158999998569,775.5663999998569,777.7992000000477,778.8147999999522,779.3145999999045,779.3147000000477,781.5820999999046,1457.0,781.5823999998569,4.0,781.5937000000476,2.0,10.0,70.0,17.0,1.0,1.2,0.7,Time
,,S22,1,女,18,anonymized,Serial_Dependence_U,2023.2.3,Win32,59.88023952095548,,,,,,781.5939999999999,67.0,2.0,781.5942000000476,67.0,,,,785.3487999999522,785.847,784.8317000000476,785.3487000000476,782.5988999998569,784.8315,785.8470999999046,786.347,786.3472000000477,788.8140999999046,1648.0,788.8145,5.0,788.8237999999523,2.0,11.0,71.0,7.0,1.0,1.2,0.7,Time
,,S22,1,女,18,anonymized,Serial_Dependence_U,2023.2.3,Win32,59.88023952095548,,,,,,788.8240999999045,84.0,2.0,788.8242000000477,84.0,,,,792.1638999998569,792.663,791.6477999999523,792.1637999999523,789.8145,791.6474999999999,792.663,793.163,793.163,795.497,1752.0,795.4970999999045,5.0,795.5098999998569,2.0,12.0,72.0,25.0,1.0,0.8,0.7,Time
,,S22,1,女,18,anonymized,Serial_Dependence_U,2023.2.3,Win32,59.88023952095548,,,,,,795.5102999999523,149.0,2.0,795.5103999998569,149.0,,,,799.2973999998569,799.795399999857,798.78,799.2972999999523,796.5137999999523,798.7798999998569,799.7955,800.2952999999522,800.295399999857,802.146399999857,1333.0,802.1469999999999,4.0,802.1573999998569,2.0,13.0,73.0,22.0,1.0,1.2,0.3,Time
,,S22,1,女,18,anonymized,Serial_Dependence_U,2023.2.3,Win32,59.88023952095548,,,,,,802.1577000000476,165.0,2.0,802.1577999999523,165.0,,,,805.7462999999523,806.2447000000476,805.2293999998569,805.7462000000477,803.1630999999046,805.2292000000476,806.2447000000476,806.7443999998569,806.7445,810.5285,3403.0,810.5287000000476,5.0,810.5438999998569,2.0,14.0,74.0,11.0,1.0,1.0,0.3,Time
,,S22,1,女,18,anonymized,Serial_Dependence_U,2023.2.3,Win32,59.88023952095548,,,,,,810.5442000000477,105.0,2.0,810.5442999999523,105.0,,,,814.7284999999999,815.2267999999523,814.2115,814.728399999857,811.5457999999522,814.2112999999523,815.2268999998569,815.7267999999523,815.7267999999523,817.4942999999523,1423.0,817.4947000000476,2.0,817.5065999999046,2.0,15.0,75.0,24.0,1.0,1.6,0.3,Time
,,S22,1,女,18,anonymized,Serial_Dependence_U,2023.2.3,Win32,59.88023952095548,,,,,,817.506899999857,151.0,2.0,817.507,151.0,,,,820.8947000000477,821.3927000000476,820.3775999999046,820.8945999999046,818.5108999998569,820.3774999999999,821.3927000000476,821.8927999999523,821.8927999999523,823.06,804.0,823.0603999998569,3.0,823.072,2.0,16.0,76.0,10.0,1.0,0.8,0.3,Time
,,S22,1,女,18,anonymized,Serial_Dependence_U,2023.2.3,Win32,59.88023952095548,,,,,,823.0723999998569,2.0,2.0,823.0723999998569,2.0,,,,826.4597999999522,826.9585,825.944,826.4595999999046,824.0765999999046,825.9437999999523,826.9585999999045,827.4585,827.4585999999045,829.0588999998569,1196.0,829.059,5.0,829.0718999998569,2.0,17.0,77.0,20.0,1.0,0.8,0.3,Time
,,S22,1,女,18,anonymized,Serial_Dependence_U,2023.2.3,Win32,59.88023952095548,,,,,,829.0722000000477,176.0,2.0,829.0723999998569,176.0,,,,833.2257999999523,833.7244999999999,832.7087999999522,833.2255999999046,830.0759999999999,832.7085999999045,833.7244999999999,834.2243999998569,834.2244999999999,835.8248999998569,1076.0,835.8249999999999,1.0,835.8375,2.0,18.0,78.0,19.0,1.0,1.6,0.7,Time
,,S22,1,女,18,anonymized,Serial_Dependence_U,2023.2.3,Win32,59.88023952095548,,,,,,835.8377999999523,12.0,2.0,835.8378999998569,12.0,,,,839.8248999998569,840.3237000000477,839.3085,839.8247000000476,836.842,839.3082999999523,840.3237999999523,840.8233999998569,840.8235,842.1245,879.0,842.1247000000476,1.0,842.1347999999523,2.0,19.0,79.0,23.0,1.0,1.4,0.3,Time
,,S22,1,女,18,anonymized,Serial_Dependence_U,2023.2.3,Win32,59.88023952095548,,,,,,842.135,12.0,2.0,842.1350999999046,12.0,,,,846.0742999999522,846.5727000000477,845.5573999998569,846.0742000000477,843.1242000000476,845.5572999999523,846.5727999999523,847.0727000000477,847.0728999998569,847.1737999999523,80.0,847.174,1.0,847.1863999998569,2.0,20.0,80.0,28.0,1.0,1.4,0.7,Time
,,S22,1,女,18,anonymized,Serial_Dependence_U,2023.2.3,Win32,59.88023952095548,,,,,,847.1867999999523,0.0,2.0,847.1868999998569,0.0,,,,850.973399999857,851.4722999999523,850.457,850.9732999999522,848.1902000000476,850.457,851.4723999998569,851.972,851.9720999999046,853.5890999999046,1265.0,853.5892000000476,4.0,853.6015999999046,2.0,21.0,81.0,2.0,1.0,1.2,0.3,Time
,,S22,1,女,18,anonymized,Serial_Dependence_U,2023.2.3,Win32,59.88023952095548,,,,,,853.602,216.0,2.0,853.602,216.0,,,,857.189,857.6878999998569,856.6737000000477,857.1887999999523,854.6065999999046,856.6735,857.6878999998569,858.188,858.1882000000477,859.7719999999999,1182.0,859.7720999999046,4.0,859.7842999999523,2.0,22.0,82.0,1.0,1.0,1.0,0.3,Time
,,S22,1,女,18,anonymized,Serial_Dependence_U,2023.2.3,Win32,59.88023952095548,,,,,,859.7845999999046,0.0,2.0,859.7847000000477,0.0,,,,863.1725,863.6705999999045,862.6557999999523,863.1722999999523,860.7887000000477,862.6555999999046,863.6705999999045,864.1707000000476,864.1707999999522,866.8542000000476,1031.0,866.8544999999999,4.0,866.8667999999523,2.0,23.0,83.0,0.0,1.0,0.8,0.3,Time
,,S22,1,女,18,anonymized,Serial_Dependence_U,2023.2.3,Win32,59.88023952095548,,,,,,866.8672999999523,263.0,2.0,866.867399999857,263.0,,,,870.8205999999046,871.3195999999045,870.3045999999046,870.8203999998569,867.8713999998569,870.3043999998569,871.3195999999045,871.8195999999045,871.8195999999045,874.0867000000477,1770.0,874.087,4.0,874.0965999999046,2.0,24.0,84.0,8.0,1.0,1.4,0.7,Time
,,S22,1,女,18,anonymized,Serial_Dependence_U,2023.2.3,Win32,59.88023952095548,,,,,,874.0967999999523,201.0,2.0,874.097,201.0,,,,877.4363999998569,877.9354999999999,876.9205999999045,877.4362000000476,875.0868999998569,876.9205,877.9355999999046,878.4354999999999,878.4355999999046,882.819,3551.0,882.8192000000477,5.0,882.8317000000476,2.0,25.0,85.0,15.0,1.0,0.8,0.7,Time
,,S22,1,女,18,anonymized,Serial_Dependence_U,2023.2.3,Win32,59.88023952095548,,,,,,882.832,231.0,2.0,882.8322999999523,231.0,,,,886.1862000000476,886.6847000000477,885.669899999857,886.1859999999999,883.8357999999523,885.6697000000477,886.6847999999522,887.1845,887.1845999999045,891.3350999999046,3632.0,891.3352999999523,5.0,891.3490999999046,2.0,26.0,86.0,5.0,1.0,0.8,0.7,Time
,,S22,1,女,18,anonymized,Serial_Dependence_U,2023.2.3,Win32,59.88023952095548,,,,,,891.3494999999999,206.0,2.0,891.3494999999999,206.0,,,,895.502,895.9995999999046,894.9847000000476,895.5017999999523,892.3515,894.9843999998569,895.9995999999046,896.4997000000476,896.4997000000476,897.5002999999523,312.0,897.5005,1.0,897.5117000000477,2.0,27.0,87.0,29.0,1.0,1.6,0.7,Time
,,S22,1,女,18,anonymized,Serial_Dependence_U,2023.2.3,Win32,59.88023952095548,,,,,,897.512,239.0,2.0,897.5122000000476,239.0,,,,901.0675,901.5657000000476,900.5507999999522,901.0672999999524,898.5167999999522,900.5507000000476,901.5657999999524,902.0657000000476,902.0657000000476,904.8167000000476,2531.0,904.817,5.0,904.8305999999046,2.0,28.0,88.0,16.0,1.0,1.0,0.7,Time
,,S22,1,女,18,anonymized,Serial_Dependence_U,2023.2.3,Win32,59.88023952095548,,,,,,904.8307999999524,314.0,2.0,904.831,314.0,,,,909.016,909.5147999999524,908.4993999998568,909.0158999998569,905.833,908.4992999999524,909.5148999998568,910.0145999999046,910.0148999998568,912.1147999999524,1614.0,912.115,3.0,912.1255,2.0,29.0,89.0,14.0,1.0,1.6,0.3,Time
,,S22,1,女,18,anonymized,Serial_Dependence_U,2023.2.3,Win32,59.88023952095548,,,,,,912.1257999999524,203.0,3.0,914.6147000000476,203.0,s,2.471699999809175,,918.7662000000475,919.2642000000476,918.2493999998568,918.7660999999046,915.6155,918.2492000000476,919.2642999999524,919.7642999999524,919.7645999999046,921.5903999998568,1344.0,921.5905,2.0,921.6037000000476,3.0,0.0,90.0,29.0,1.0,1.6,0.7,Time
,,S22,1,女,18,anonymized,Serial_Dependence_U,2023.2.3,Win32,59.88023952095548,,,,,,921.604,261.0,3.0,921.6052999999524,261.0,,,,925.1887000000476,925.6802000000476,924.6717000000476,925.1885999999046,922.6055999999046,924.6717000000476,925.6802999999522,926.1678999998568,926.168,928.0052999999524,1217.0,928.0052999999524,4.0,928.020899999857,3.0,1.0,91.0,1.0,1.0,1.0,0.3,Time
,,S22,1,女,18,anonymized,Serial_Dependence_U,2023.2.3,Win32,59.88023952095548,,,,,,928.0212999999522,313.0,3.0,928.0215,313.0,,,,932.203899999857,932.6963999998568,931.6868999998568,932.203899999857,929.0210999999044,931.6867999999524,932.6963999998568,933.1958999998568,933.1960999999046,934.422,884.0,934.4222000000476,1.0,934.4345,3.0,2.0,92.0,24.0,1.0,1.6,0.3,Time
,,S22,1,女,18,anonymized,Serial_Dependence_U,2023.2.3,Win32,59.88023952095548,,,,,,934.4347999999522,350.0,3.0,934.434899999857,350.0,,,,937.7875,938.2845,937.27,937.7873999998568,935.4367000000476,937.2697999999524,938.2847000000476,938.7837999999524,938.7838999998568,940.0212999999522,835.0,940.021399999857,3.0,940.0343999998568,3.0,3.0,93.0,25.0,1.0,0.8,0.7,Time
,,S22,1,女,18,anonymized,Serial_Dependence_U,2023.2.3,Win32,59.88023952095548,,,,,,940.0347000000476,94.0,3.0,940.0348999998567,94.0,,,,944.219,944.7110999999046,943.7022999999524,944.218899999857,941.0363999998568,943.7020999999046,944.7112000000476,945.213899999857,945.213899999857,946.5728999998568,1070.0,946.5730999999046,1.0,946.5878999998567,3.0,4.0,94.0,4.0,1.0,1.6,0.3,Time
,,S22,1,女,18,anonymized,Serial_Dependence_U,2023.2.3,Win32,59.88023952095548,,,,,,946.5882000000476,23.0,3.0,946.5882999999524,23.0,,,,950.5282000000476,951.0267000000476,950.0117999999522,950.528,947.5787999999524,950.0117000000477,951.0267000000476,951.5265,951.5265999999046,952.2117000000476,165.0,952.2118999998568,1.0,952.2273999998567,3.0,5.0,95.0,28.0,1.0,1.4,0.7,Time
,,S22,1,女,18,anonymized,Serial_Dependence_U,2023.2.3,Win32,59.88023952095548,,,,,,952.227899999857,333.0,3.0,952.228,333.0,,,,956.0112000000476,956.509,955.4940999999046,956.0110999999046,953.2285,955.4938999998568,956.509,957.0092999999524,957.0093999998568,959.2768999998568,1797.0,959.2770999999046,5.0,959.290899999857,3.0,6.0,96.0,12.0,1.0,1.2,0.3,Time
,,S22,1,女,18,anonymized,Serial_Dependence_U,2023.2.3,Win32,59.88023952095548,,,,,,959.2915,237.0,3.0,959.2917000000476,237.0,,,,963.477899999857,963.9752000000476,962.9612000000476,963.4777999999524,960.2937000000476,962.961,963.9752000000476,964.4752000000476,964.4752999999524,966.4773999998567,1416.0,966.4777000000475,2.0,966.4937000000476,3.0,7.0,97.0,14.0,1.0,1.6,0.3,Time
,,S22,1,女,18,anonymized,Serial_Dependence_U,2023.2.3,Win32,59.88023952095548,,,,,,966.4938999998568,156.0,3.0,966.4940999999046,156.0,,,,969.8762999999524,970.3743999998568,969.3595999999046,969.8760999999046,967.4940999999046,969.3595,970.3745,970.8740999999046,970.8742000000476,972.492,1066.0,972.4922999999524,5.0,972.5067000000475,3.0,8.0,98.0,10.0,1.0,0.8,0.3,Time
,,S22,1,女,18,anonymized,Serial_Dependence_U,2023.2.3,Win32,59.88023952095548,,,,,,972.507,78.0,3.0,972.5072999999522,78.0,,,,976.4742000000476,976.9727000000476,975.9577000000476,976.4740999999046,973.5247999999524,975.9575,976.9727000000476,977.4725999999046,977.4725999999046,979.5072000000476,1016.0,979.5075,2.0,979.5182999999524,3.0,9.0,99.0,8.0,1.0,1.4,0.7,Time
,,S22,1,女,18,anonymized,Serial_Dependence_U,2023.2.3,Win32,59.88023952095548,,,,,,979.5185999999046,94.0,3.0,979.5187999999524,94.0,,,,982.8733999998568,983.3722999999522,982.3567000000476,982.8732999999522,980.5233999998568,982.3565,983.372399999857,983.8725999999048,983.8725999999048,986.2067999999524,1850.0,986.2070999999046,5.0,986.2212000000476,3.0,10.0,100.0,5.0,1.0,0.8,0.7,Time
,,S22,1,女,18,anonymized,Serial_Dependence_U,2023.2.3,Win32,59.88023952095548,,,,,,986.2217000000476,240.0,3.0,986.2218999998568,240.0,,,,990.2065,990.7048999998568,989.6900999999046,990.2062999999524,987.2242000000476,989.689899999857,990.705,991.2047999999522,991.2047999999522,994.0222000000476,1600.0,994.0223999998568,4.0,994.0357000000477,3.0,11.0,101.0,13.0,1.0,1.4,0.3,Time
,,S22,1,女,18,anonymized,Serial_Dependence_U,2023.2.3,Win32,59.88023952095548,,,,,,994.036,14.0,3.0,994.0360999999046,14.0,,,,997.423,997.9207999999522,996.9065999999046,997.4228999998568,995.0397000000476,996.906399999857,997.9208999998568,998.4207000000478,998.4207999999522,1000.5887000000478,1383.0,1000.588899999857,5.0,1000.605899999857,3.0,12.0,102.0,20.0,1.0,0.8,0.3,Time
,,S22,1,女,18,anonymized,Serial_Dependence_U,2023.2.3,Win32,59.88023952095548,,,,,,1000.6067999999524,300.0,3.0,1000.6072000000476,300.0,,,,1004.1545,1004.6533999998572,1003.6392000000478,1004.1542999999524,1001.6052000000476,1003.639,1004.6533999998572,1005.152899999857,1005.153,1007.6452000000476,1660.0,1007.6453999998572,5.0,1007.6597999999524,3.0,13.0,103.0,6.0,1.0,1.0,0.7,Time
,,S22,1,女,18,anonymized,Serial_Dependence_U,2023.2.3,Win32,59.88023952095548,,,,,,1007.6600999999048,4.0,3.0,1007.6602000000478,4.0,,,,1011.8105,1012.3077000000478,1011.2937000000476,1011.8102999999523,1008.661,1011.2937000000476,1012.3077999999524,1012.8025,1012.8025,1014.8110999999046,1283.0,1014.8112999999524,2.0,1014.8253999998568,3.0,14.0,104.0,19.0,1.0,1.6,0.7,Time
,,S22,1,女,18,anonymized,Serial_Dependence_U,2023.2.3,Win32,59.88023952095548,,,,,,1014.8257999999524,313.0,3.0,1014.8257999999524,313.0,,,,1018.209700000048,1018.7012000000476,1017.6930999999048,1018.2095999999046,1015.8267000000478,1017.693,1018.7012000000476,1019.1907999999524,1019.190899999857,1021.2275,1401.0,1021.2277999999524,5.0,1021.2410999999048,3.0,15.0,105.0,0.0,1.0,0.8,0.3,Time
,,S22,1,女,18,anonymized,Serial_Dependence_U,2023.2.3,Win32,59.88023952095548,,,,,,1021.2415,248.0,3.0,1021.2415999999048,248.0,,,,1024.792399999857,1025.283899999857,1024.275899999857,1024.792399999857,1022.2425,1024.2757000000477,1025.283899999857,1025.784,1025.7840999999048,1028.375399999857,1817.0,1028.3755999999048,5.0,1028.3895,3.0,16.0,106.0,16.0,1.0,1.0,0.7,Time
,,S22,1,女,18,anonymized,Serial_Dependence_U,2023.2.3,Win32,59.88023952095548,,,,,,1028.389899999857,222.0,3.0,1028.3900999999048,222.0,,,,1032.374899999857,1032.8712000000478,1031.8580000000002,1032.3747999999523,1029.3912000000478,1031.857899999857,1032.8712999999525,1033.3665,1033.3665,1035.6590999999048,1733.0,1035.6592999999525,4.0,1035.6727000000478,3.0,17.0,107.0,3.0,1.0,1.4,0.3,Time
,,S22,1,女,18,anonymized,Serial_Dependence_U,2023.2.3,Win32,59.88023952095548,,,,,,1035.6730999999047,38.0,3.0,1035.6732999999524,38.0,,,,1039.257,1039.7487000000478,1038.741399999857,1039.2567999999524,1036.674,1038.7412999999524,1039.7487999999523,1040.2542000000478,1040.2542000000478,1041.925099999905,1149.0,1041.9252999999524,4.0,1041.9382000000478,3.0,18.0,108.0,21.0,1.0,1.0,0.3,Time
,,S22,1,女,18,anonymized,Serial_Dependence_U,2023.2.3,Win32,59.88023952095548,,,,,,1041.938599999905,270.0,3.0,1041.938599999905,270.0,,,,1045.4892000000475,1045.981399999857,1044.9725,1045.489,1042.9397000000477,1044.9725,1045.9815999999048,1046.4810999999047,1046.4812000000477,1047.0567000000478,183.0,1047.057,1.0,1047.070399999857,3.0,19.0,109.0,26.0,1.0,1.0,0.7,Time
,,S22,1,女,18,anonymized,Serial_Dependence_U,2023.2.3,Win32,59.88023952095548,,,,,,1047.0707000000475,105.0,3.0,1047.0707999999524,105.0,,,,1050.8227000000477,1051.3145999999049,1050.3057999999523,1050.8225999999047,1048.0727000000477,1050.305700000048,1051.3145999999049,1051.8142999999525,1051.814399999857,1055.4225999999046,2834.0,1055.4227999999523,5.0,1055.4372000000478,3.0,20.0,110.0,7.0,1.0,1.2,0.7,Time
,,S22,1,女,18,anonymized,Serial_Dependence_U,2023.2.3,Win32,59.88023952095548,,,,,,1055.4375,127.0,3.0,1055.4375999999047,127.0,,,,1059.1880999999048,1059.6825999999046,1058.6710999999048,1059.188,1056.4377000000477,1058.6710999999048,1059.6825999999046,1060.1797999999524,1060.1797999999524,1063.9382999999525,3033.0,1063.938399999857,5.0,1063.953,3.0,21.0,111.0,17.0,1.0,1.2,0.7,Time
,,S22,1,女,18,anonymized,Serial_Dependence_U,2023.2.3,Win32,59.88023952095548,,,,,,1063.9532999999524,256.0,3.0,1063.953399999857,256.0,,,,1068.1032999999525,1068.594899999857,1067.587,1068.1030999999048,1064.9537999999525,1067.5867999999523,1068.595,1069.094899999857,1069.095,1071.2452000000478,1702.0,1071.2452999999523,4.0,1071.2605,3.0,22.0,112.0,9.0,1.0,1.6,0.7,Time
,,S22,1,女,18,anonymized,Serial_Dependence_U,2023.2.3,Win32,59.88023952095548,,,,,,1071.2607999999525,332.0,3.0,1071.261,332.0,,,,1075.2455,1075.743899999857,1074.729,1075.2455,1072.2637000000475,1074.728899999857,1075.744,1076.2437999999524,1076.2437999999524,1079.4777000000477,2565.0,1079.477899999857,5.0,1079.4915,3.0,23.0,113.0,23.0,1.0,1.4,0.3,Time
,,S22,1,女,18,anonymized,Serial_Dependence_U,2023.2.3,Win32,59.88023952095548,,,,,,1079.4917999999525,254.0,3.0,1079.4920000000002,254.0,,,,1083.4347000000478,1083.9260999999046,1082.9280999999048,1083.4347000000478,1080.4950999999046,1082.9278999998571,1083.9262999999523,1084.4265,1084.4265999999047,1089.3520999999048,4399.0,1089.352399999857,5.0,1089.3652999999524,3.0,24.0,114.0,18.0,1.0,1.4,0.7,Time
,,S22,1,女,18,anonymized,Serial_Dependence_U,2023.2.3,Win32,59.88023952095548,,,,,,1089.3657999999523,260.0,3.0,1089.366,260.0,,,,1093.1500999999048,1093.644899999857,1092.6335999999046,1093.15,1090.367099999905,1092.6335999999046,1093.644899999857,1094.1442000000477,1094.1442999999524,1098.2012000000475,3468.0,1098.2013999998571,5.0,1098.2155999999047,3.0,25.0,115.0,2.0,1.0,1.2,0.3,Time
,,S22,1,女,18,anonymized,Serial_Dependence_U,2023.2.3,Win32,59.88023952095548,,,,,,1098.2157999999524,146.0,3.0,1098.216,146.0,,,,1101.966,1102.4575,1101.4490999999048,1101.966,1099.2152999999523,1101.449,1102.4575999999047,1102.957399999857,1102.9575,1106.3670000000002,2785.0,1106.3672000000477,5.0,1106.3805,3.0,26.0,116.0,27.0,1.0,1.2,0.7,Time
,,S22,1,女,18,anonymized,Serial_Dependence_U,2023.2.3,Win32,59.88023952095548,,,,,,1106.3807999999524,180.0,3.0,1106.380899999857,180.0,,,,1109.965,1110.460899999857,1109.448399999857,1109.964899999857,1107.3817999999524,1109.4482999999525,1110.461,1110.961899999857,1110.9620999999047,1113.1825999999046,1751.0,1113.1827999999523,5.0,1113.1957000000475,3.0,27.0,117.0,11.0,1.0,1.0,0.3,Time
,,S22,1,女,18,anonymized,Serial_Dependence_U,2023.2.3,Win32,59.88023952095548,,,,,,1113.196,152.0,3.0,1113.1962000000478,152.0,,,,1116.5467999999523,1117.044899999857,1116.0307999999525,1116.5467000000478,1114.1980999999048,1116.0307999999525,1117.044899999857,1117.5447000000477,1117.5447999999524,1120.881,2901.0,1120.8812000000478,5.0,1120.8967999999525,3.0,28.0,118.0,15.0,1.0,0.8,0.7,Time
,,S22,1,女,18,anonymized,Serial_Dependence_U,2023.2.3,Win32,59.88023952095548,,,,,,1120.8970999999046,94.0,3.0,1120.8972999999523,94.0,,,,1124.6792999999525,1125.1712999999525,1124.163,1124.6792000000478,1121.896399999857,1124.1627999999523,1125.171399999857,1125.670700000048,1125.6707999999524,1127.9797999999523,1899.0,1127.9800999999047,5.0,1127.994399999857,3.0,29.0,119.0,22.0,1.0,1.2,0.3,Time
,,S22,1,女,18,anonymized,Serial_Dependence_U,2023.2.3,Win32,59.88023952095548,,,,,,1127.9947000000475,193.0,4.0,1129.7210999999047,193.0,s,1.7165999999047017,,1133.3047999999524,1133.803,1132.7883999998571,1133.3047000000477,1130.7215999999048,1132.7882999999524,1133.803,1134.3032999999523,1134.303399999857,1136.003899999857,1599.0,1136.0040999999046,5.0,1136.017899999857,4.0,0.0,120.0,11.0,1.0,1.0,0.3,Time
,,S22,1,女,18,anonymized,Serial_Dependence_U,2023.2.3,Win32,59.88023952095548,,,,,,1136.0182000000475,188.0,4.0,1136.0197000000478,188.0,,,,1139.3692999999523,1139.869,1138.8527999999524,1139.3692000000478,1137.020899999857,1138.8527999999524,1139.8692000000478,1140.3687999999524,1140.368899999857,1146.178,1768.0,1146.1782000000478,5.0,1146.1920999999047,4.0,1.0,121.0,5.0,1.0,0.8,0.7,Time
,,S22,1,女,18,anonymized,Serial_Dependence_U,2023.2.3,Win32,59.88023952095548,,,,,,1146.1925,267.0,4.0,1146.1925999999048,267.0,,,,1149.576,1150.067899999857,1149.059899999857,1149.575899999857,1147.193,1149.059899999857,1150.067899999857,1150.5680999999047,1150.5682000000477,1153.4430999999047,2400.0,1153.4432999999524,5.0,1153.456,4.0,2.0,122.0,10.0,1.0,0.8,0.3,Time
,,S22,1,女,18,anonymized,Serial_Dependence_U,2023.2.3,Win32,59.88023952095548,,,,,,1153.4565,276.0,4.0,1153.4565999999047,276.0,,,,1157.208899999857,1157.7005,1156.6920999999047,1157.2087999999524,1154.4590999999048,1156.6920999999047,1157.7005999999046,1158.188899999857,1158.188899999857,1160.0915,1366.0,1160.0915999999047,4.0,1160.1062000000477,4.0,3.0,123.0,7.0,1.0,1.2,0.7,Time
,,S22,1,女,18,anonymized,Serial_Dependence_U,2023.2.3,Win32,59.88023952095548,,,,,,1160.1065,310.0,4.0,1160.1065999999048,310.0,,,,1164.0745000000002,1164.5662999999524,1163.5582999999524,1164.074399999857,1161.1080999999049,1163.5582000000477,1164.566399999857,1165.0657999999523,1165.066,1166.8087999999525,1267.0,1166.809099999905,2.0,1166.8217999999524,4.0,4.0,124.0,28.0,1.0,1.4,0.7,Time
,,S22,1,女,18,anonymized,Serial_Dependence_U,2023.2.3,Win32,59.88023952095548,,,,,,1166.8220999999048,139.0,4.0,1166.8222000000478,139.0,,,,1171.007399999857,1171.4985999999046,1170.4902999999524,1171.0072999999525,1167.8237999999524,1170.4900999999047,1171.4987999999523,1171.9985999999046,1171.9987000000478,1174.0572999999524,1450.0,1174.0575,2.0,1174.0727999999524,4.0,5.0,125.0,14.0,1.0,1.6,0.3,Time
,,S22,1,女,18,anonymized,Serial_Dependence_U,2023.2.3,Win32,59.88023952095548,,,,,,1174.0732000000478,223.0,4.0,1174.0732999999525,223.0,,,,1177.8227000000477,1178.314399999857,1177.3073999998571,1177.8225,1175.0722000000478,1177.3072999999524,1178.314399999857,1178.8187000000478,1178.8187999999525,1180.6567000000475,1401.0,1180.6567999999525,4.0,1180.669899999857,4.0,6.0,126.0,27.0,1.0,1.2,0.7,Time
,,S22,1,女,18,anonymized,Serial_Dependence_U,2023.2.3,Win32,59.88023952095548,,,,,,1180.6702000000478,227.0,4.0,1180.6702999999525,227.0,,,,1184.638,1185.1300999999048,1184.1362000000477,1184.637899999857,1181.6720999999047,1184.1362000000477,1185.1302000000478,1185.6362999999524,1185.636399999857,1187.7140000000002,1206.0,1187.714200000048,2.0,1187.7277999999524,4.0,7.0,127.0,23.0,1.0,1.4,0.3,Time
,,S22,1,女,18,anonymized,Serial_Dependence_U,2023.2.3,Win32,59.88023952095548,,,,,,1187.7280999999048,213.0,4.0,1187.7282000000478,213.0,,,,1191.304899999857,1191.7960999999048,1190.7967000000478,1191.3047999999524,1188.7305999999046,1190.7965999999046,1191.7962000000475,1192.295700000048,1192.295899999857,1194.971,2232.0,1194.9710999999047,5.0,1194.9852999999523,4.0,8.0,128.0,21.0,1.0,1.0,0.3,Time
,,S22,1,女,18,anonymized,Serial_Dependence_U,2023.2.3,Win32,59.88023952095548,,,,,,1194.9855,322.0,4.0,1194.9857000000477,322.0,,,,1198.935399999857,1199.428,1198.419599999905,1198.935399999857,1195.9867999999524,1198.419599999905,1199.4280999999048,1199.931399999857,1199.9315,1204.4450000000002,1783.0,1204.4452999999523,4.0,1204.4590999999048,4.0,9.0,129.0,8.0,1.0,1.4,0.7,Time
,,S22,1,女,18,anonymized,Serial_Dependence_U,2023.2.3,Win32,59.88023952095548,,,,,,1204.459399999857,113.0,4.0,1204.4595000000002,113.0,,,,1207.8125999999047,1208.3102999999523,1207.2955999999049,1207.812399999857,1205.4622999999524,1207.2955000000002,1208.3102999999523,1208.809899999857,1208.8100999999049,1210.8110999999046,1501.0,1210.811399999857,5.0,1210.8240999999048,4.0,10.0,130.0,25.0,1.0,0.8,0.7,Time
,,S22,1,女,18,anonymized,Serial_Dependence_U,2023.2.3,Win32,59.88023952095548,,,,,,1210.824399999857,33.0,4.0,1210.8245000000002,33.0,,,,1214.6177000000478,1215.1092000000478,1214.1015999999047,1214.6175999999048,1211.828399999857,1214.101399999857,1215.1092999999523,1215.6095999999047,1215.6097000000475,1217.3522000000478,1233.0,1217.352399999857,3.0,1217.3665999999048,4.0,11.0,131.0,12.0,1.0,1.2,0.3,Time
,,S22,1,女,18,anonymized,Serial_Dependence_U,2023.2.3,Win32,59.88023952095548,,,,,,1217.366899999857,293.0,4.0,1217.3670000000002,293.0,,,,1220.9167000000475,1221.409,1220.400399999857,1220.9165999999047,1218.3677999999525,1220.4002999999525,1221.4090999999048,1221.8982000000478,1221.8982999999523,1223.4685000000002,1084.0,1223.4687000000476,4.0,1223.482099999905,4.0,12.0,132.0,16.0,1.0,1.0,0.7,Time
,,S22,1,女,18,anonymized,Serial_Dependence_U,2023.2.3,Win32,59.88023952095548,,,,,,1223.4825,284.0,4.0,1223.4825,284.0,,,,1227.6662999999523,1228.163,1227.150599999905,1227.6660999999046,1224.4817000000478,1227.150399999857,1228.163,1228.6635999999048,1228.6637000000478,1229.935399999857,686.0,1229.9355999999048,1.0,1229.948899999857,4.0,13.0,133.0,4.0,1.0,1.6,0.3,Time
,,S22,1,女,18,anonymized,Serial_Dependence_U,2023.2.3,Win32,59.88023952095548,,,,,,1229.9492000000478,318.0,4.0,1229.9492999999525,318.0,,,,1233.732099999905,1234.2235,1233.2152999999523,1233.731899999857,1230.9487000000477,1233.2152000000478,1234.2235,1234.7292000000475,1234.7292999999524,1235.7817000000475,767.0,1235.7817999999525,1.0,1235.7942000000478,4.0,14.0,134.0,2.0,1.0,1.2,0.3,Time
,,S22,1,女,18,anonymized,Serial_Dependence_U,2023.2.3,Win32,59.88023952095548,,,,,,1235.7947999999524,78.0,4.0,1235.795,78.0,,,,1239.3490000000002,1239.84,1238.832,1239.348899999857,1236.7985,1238.8317999999524,1239.84,1240.3282000000477,1240.328399999857,1244.2332999999524,2402.0,1244.233399999857,5.0,1244.2477999999523,4.0,15.0,135.0,6.0,1.0,1.0,0.7,Time
,,S22,1,女,18,anonymized,Serial_Dependence_U,2023.2.3,Win32,59.88023952095548,,,,,,1244.248,44.0,4.0,1244.2480999999048,44.0,,,,1248.397200000048,1248.888399999857,1247.88,1248.3970999999046,1245.2472999999525,1247.88,1248.8885,1249.377899999857,1249.3780999999046,1251.231899999857,1501.0,1251.2322000000477,2.0,1251.2450999999046,4.0,16.0,136.0,29.0,1.0,1.6,0.7,Time
,,S22,1,女,18,anonymized,Serial_Dependence_U,2023.2.3,Win32,59.88023952095548,,,,,,1251.245399999857,162.0,4.0,1251.2455,162.0,,,,1254.7795999999048,1255.2712000000477,1254.279,1254.7795999999048,1252.246399999857,1254.278899999857,1255.2712999999524,1255.7707000000478,1255.7707999999525,1257.6882999999525,1535.0,1257.688399999857,5.0,1257.7017999999523,4.0,17.0,137.0,26.0,1.0,1.0,0.7,Time
,,S22,1,女,18,anonymized,Serial_Dependence_U,2023.2.3,Win32,59.88023952095548,,,,,,1257.7022000000477,136.0,4.0,1257.702399999857,136.0,,,,1261.6555,1262.1537000000478,1261.1382000000478,1261.655399999857,1258.7055999999047,1261.1380999999046,1262.1537999999523,1262.6535999999046,1262.6537000000478,1265.17,2133.0,1265.1702000000478,5.0,1265.183,4.0,18.0,138.0,18.0,1.0,1.4,0.7,Time
,,S22,1,女,18,anonymized,Serial_Dependence_U,2023.2.3,Win32,59.88023952095548,,,,,,1265.183399999857,347.0,4.0,1265.1835,347.0,,,,1269.353899999857,1269.8527000000477,1268.837,1269.3537999999523,1266.2045,1268.837,1269.8527999999524,1270.352599999905,1270.3527000000477,1272.0442999999525,1300.0,1272.044399999857,2.0,1272.0585,4.0,19.0,139.0,9.0,1.0,1.6,0.7,Time
,,S22,1,女,18,anonymized,Serial_Dependence_U,2023.2.3,Win32,59.88023952095548,,,,,,1272.058899999857,315.0,4.0,1272.059,315.0,,,,1275.4435999999048,1275.9352999999523,1274.9272000000478,1275.4435999999048,1273.0600999999049,1274.9270999999046,1275.935399999857,1276.435399999857,1276.435399999857,1279.4947000000475,2601.0,1279.495,5.0,1279.5077999999523,4.0,20.0,140.0,0.0,1.0,0.8,0.3,Time
,,S22,1,女,18,anonymized,Serial_Dependence_U,2023.2.3,Win32,59.88023952095548,,,,,,1279.5080999999047,137.0,4.0,1279.5082000000475,137.0,,,,1282.842899999857,1283.3372999999524,1282.3420999999048,1282.842899999857,1280.5097000000478,1282.342,1283.3372999999524,1283.834399999857,1283.8345000000002,1287.2927000000475,3099.0,1287.2927999999524,5.0,1287.3072000000475,4.0,21.0,141.0,15.0,1.0,0.8,0.7,Time
,,S22,1,女,18,anonymized,Serial_Dependence_U,2023.2.3,Win32,59.88023952095548,,,,,,1287.3075,337.0,4.0,1287.3075999999046,337.0,,,,1291.2907000000478,1291.7832000000478,1290.7747000000477,1291.2905999999048,1288.3092000000477,1290.7747000000477,1291.7832999999523,1292.271099999905,1292.2712000000477,1294.3765999999048,1435.0,1294.3767000000478,3.0,1294.390399999857,4.0,22.0,142.0,13.0,1.0,1.4,0.3,Time
,,S22,1,女,18,anonymized,Serial_Dependence_U,2023.2.3,Win32,59.88023952095548,,,,,,1294.3907000000477,263.0,4.0,1294.3907999999524,263.0,,,,1298.174099999905,1298.6657999999525,1297.657399999857,1298.173899999857,1295.3907000000477,1297.6572999999523,1298.6657999999525,1299.1657000000478,1299.1657000000478,1301.1652999999524,1134.0,1301.1655,2.0,1301.1802000000478,4.0,23.0,143.0,22.0,1.0,1.2,0.3,Time
,,S22,1,女,18,anonymized,Serial_Dependence_U,2023.2.3,Win32,59.88023952095548,,,,,,1301.180899999857,158.0,4.0,1301.1810999999047,158.0,,,,1304.5575,1305.047899999857,1304.049899999857,1304.5573999998571,1302.1832999999524,1304.0497999999525,1305.048,1305.5515,1305.5515999999047,1308.598399999857,885.0,1308.5985999999048,4.0,1308.6125000000002,4.0,24.0,144.0,20.0,1.0,0.8,0.3,Time
,,S22,1,女,18,anonymized,Serial_Dependence_U,2023.2.3,Win32,59.88023952095548,,,,,,1308.6127999999524,86.0,4.0,1308.612899999857,86.0,,,,1312.5882000000477,1313.0805999999047,1312.0818999998571,1312.588099999905,1309.6155999999048,1312.0817000000477,1313.0805999999047,1313.568399999857,1313.568399999857,1315.3065,1333.0,1315.3065999999046,3.0,1315.3197999999525,4.0,25.0,145.0,3.0,1.0,1.4,0.3,Time
,,S22,1,女,18,anonymized,Serial_Dependence_U,2023.2.3,Win32,59.88023952095548,,,,,,1315.320200000048,131.0,4.0,1315.3202999999523,131.0,,,,1319.0712000000478,1319.569099999905,1318.5542999999525,1319.0710999999046,1316.3215999999047,1318.5542000000478,1319.569099999905,1320.0687000000478,1320.0687999999525,1321.789,1350.0,1321.7890999999047,4.0,1321.8028999998571,4.0,26.0,146.0,17.0,1.0,1.2,0.7,Time
,,S22,1,女,18,anonymized,Serial_Dependence_U,2023.2.3,Win32,59.88023952095548,,,,,,1321.8032999999523,107.0,4.0,1321.8032999999523,107.0,,,,1325.9547000000478,1326.4452999999523,1325.437,1325.9547000000478,1322.8035,1325.4368999998571,1326.445399999857,1326.945200000048,1326.945399999857,1328.6385,1218.0,1328.6385999999047,2.0,1328.6515999999046,4.0,27.0,147.0,19.0,1.0,1.6,0.7,Time
,,S22,1,女,18,anonymized,Serial_Dependence_U,2023.2.3,Win32,59.88023952095548,,,,,,1328.651899999857,164.0,4.0,1328.652,164.0,,,,1332.236599999905,1332.7337999999525,1331.719700000048,1332.2365,1329.653,1331.719700000048,1332.733899999857,1333.227599999905,1333.2277999999524,1334.9360999999046,1400.0,1334.9362000000478,5.0,1334.9495999999046,4.0,28.0,148.0,1.0,1.0,1.0,0.3,Time
,,S22,1,女,18,anonymized,Serial_Dependence_U,2023.2.3,Win32,59.88023952095548,,,,,,1334.9497999999523,176.0,4.0,1334.95,176.0,,,,1339.1345999999048,1339.6267999999525,1338.6187999999524,1339.1345,1335.9522000000477,1338.6187999999524,1339.626899999857,1340.1320999999048,1340.1322999999525,1342.2355999999047,1550.0,1342.2357000000477,3.0,1342.2482999999525,4.0,29.0,149.0,24.0,1.0,1.6,0.3,Time
,,S22,1,女,18,anonymized,Serial_Dependence_U,2023.2.3,Win32,59.88023952095548,,,,,,1342.2487000000478,212.0,5.0,1344.276399999857,212.0,s,2.0091000001430075,,1348.0600999999049,1348.559,1347.5445,1348.059899999857,1345.2782000000475,1347.544399999857,1348.559,1349.059,1349.059099999905,1351.5092999999524,1766.0,1351.5093999998571,5.0,1351.521399999857,5.0,0.0,150.0,22.0,1.0,1.2,0.3,Time
,,S22,1,女,18,anonymized,Serial_Dependence_U,2023.2.3,Win32,59.88023952095548,,,,,,1351.5217999999525,344.0,5.0,1351.522899999857,344.0,,,,1355.5100999999047,1356.0082999999524,1354.9932999999523,1355.509899999857,1352.527899999857,1354.993200000048,1356.0082999999524,1356.5082000000475,1356.5082000000475,1358.608200000048,1381.0,1358.6085999999048,3.0,1358.6210999999048,5.0,1.0,151.0,13.0,1.0,1.4,0.3,Time
,,S22,1,女,18,anonymized,Serial_Dependence_U,2023.2.3,Win32,59.88023952095548,,,,,,1358.6212999999525,137.0,5.0,1358.6215,137.0,,,,1362.808,1363.3072999999524,1362.292399999857,1362.807899999857,1359.6262999999524,1362.2922999999523,1363.3072999999524,1363.8072000000475,1363.8072999999524,1366.1917999999523,2013.0,1366.1920999999047,4.0,1366.207399999857,5.0,2.0,152.0,24.0,1.0,1.6,0.3,Time
,,S22,1,女,18,anonymized,Serial_Dependence_U,2023.2.3,Win32,59.88023952095548,,,,,,1366.207899999857,181.0,5.0,1366.2080999999048,181.0,,,,1369.7977000000478,1370.289899999857,1369.2812000000476,1369.7975999999046,1367.2147000000475,1369.2812000000476,1370.289899999857,1370.7960999999048,1370.797,1371.998899999857,1183.0,1371.9990999999047,4.0,1372.0120000000002,5.0,3.0,153.0,1.0,1.0,1.0,0.3,Time
,,S22,1,女,18,anonymized,Serial_Dependence_U,2023.2.3,Win32,59.88023952095548,,,,,,1372.012399999857,178.0,5.0,1372.012399999857,178.0,,,,1375.5632999999525,1376.055700000048,1375.0475999999046,1375.5632000000478,1373.0138999998571,1375.0475,1376.055899999857,1376.5607999999525,1376.5607999999525,1378.997700000048,2100.0,1378.997899999857,5.0,1379.0135999999047,5.0,4.0,154.0,6.0,1.0,1.0,0.7,Time
,,S22,1,女,18,anonymized,Serial_Dependence_U,2023.2.3,Win32,59.88023952095548,,,,,,1379.0138999998571,101.0,5.0,1379.0140999999046,101.0,,,,1382.3567999999525,1382.8547999999523,1381.846399999857,1382.3567000000478,1380.0135,1381.846399999857,1382.854899999857,1383.354399999857,1383.3545,1387.0215,1337.0,1387.0217999999525,5.0,1387.035,5.0,5.0,155.0,15.0,1.0,0.8,0.7,Time
,,S22,1,女,18,anonymized,Serial_Dependence_U,2023.2.3,Win32,59.88023952095548,,,,,,1387.035399999857,145.0,5.0,1387.035399999857,145.0,,,,1391.0220999999046,1391.5200999999047,1390.505399999857,1391.021899999857,1388.0392999999524,1390.5052999999525,1391.5200999999047,1392.0200999999047,1392.0202000000477,1395.720899999857,2150.0,1395.7212000000477,5.0,1395.7360999999048,5.0,6.0,156.0,3.0,1.0,1.4,0.3,Time
,,S22,1,女,18,anonymized,Serial_Dependence_U,2023.2.3,Win32,59.88023952095548,,,,,,1395.736599999905,198.0,5.0,1395.736899999857,198.0,,,,1399.9210999999048,1400.4190999999048,1399.4042000000477,1399.920899999857,1396.739,1399.4040999999047,1400.4190999999048,1400.9187999999524,1400.918899999857,1403.136099999905,1712.0,1403.136399999857,4.0,1403.1492000000478,5.0,7.0,157.0,4.0,1.0,1.6,0.3,Time
,,S22,1,女,18,anonymized,Serial_Dependence_U,2023.2.3,Win32,59.88023952095548,,,,,,1403.1495,177.0,5.0,1403.1495999999047,177.0,,,,1406.536899999857,1407.0350999999048,1406.0202999999524,1406.5367999999523,1404.1547000000478,1406.0200999999047,1407.035399999857,1407.535,1407.535,1409.969,1985.0,1409.9692999999525,5.0,1409.9842000000478,5.0,8.0,158.0,10.0,1.0,0.8,0.3,Time
,,S22,1,女,18,anonymized,Serial_Dependence_U,2023.2.3,Win32,59.88023952095548,,,,,,1409.9847999999524,257.0,5.0,1409.985,257.0,,,,1413.735899999857,1414.233899999857,1413.2192000000475,1413.7357999999524,1410.9860999999048,1413.219,1414.2340000000002,1414.7335999999048,1414.7337000000475,1417.0012999999524,1934.0,1417.0015999999048,5.0,1417.016399999857,5.0,9.0,159.0,17.0,1.0,1.2,0.7,Time
,,S22,1,女,18,anonymized,Serial_Dependence_U,2023.2.3,Win32,59.88023952095548,,,,,,1417.0170999999048,271.0,5.0,1417.0172999999525,271.0,,,,1420.368200000048,1420.866399999857,1419.8520999999048,1420.3680999999046,1418.0192000000477,1419.852,1420.866399999857,1421.366399999857,1421.3665999999048,1423.9172000000478,1500.0,1423.9175999999047,5.0,1423.9322999999524,5.0,10.0,160.0,25.0,1.0,0.8,0.7,Time
,,S22,1,女,18,anonymized,Serial_Dependence_U,2023.2.3,Win32,59.88023952095548,,,,,,1423.9327999999523,165.0,5.0,1423.9330999999047,165.0,,,,1427.7177999999524,1428.215399999857,1427.2012999999524,1427.7175,1424.9347999999525,1427.2010999999047,1428.2155,1428.7152999999523,1428.7155,1430.400599999905,1266.0,1430.401,4.0,1430.415899999857,5.0,11.0,161.0,12.0,1.0,1.2,0.3,Time
,,S22,1,女,18,anonymized,Serial_Dependence_U,2023.2.3,Win32,59.88023952095548,,,,,,1430.416399999857,147.0,5.0,1430.4165999999047,147.0,,,,1434.5835000000002,1435.0815,1434.0667999999523,1434.5832999999525,1431.4337000000478,1434.0667000000478,1435.0815,1435.5812999999523,1435.5812999999523,1438.148399999857,2046.0,1438.1485999999047,4.0,1438.1625999999046,5.0,12.0,162.0,19.0,1.0,1.6,0.7,Time
,,S22,1,女,18,anonymized,Serial_Dependence_U,2023.2.3,Win32,59.88023952095548,,,,,,1438.162899999857,127.0,5.0,1438.1632999999524,127.0,,,,1441.5487000000478,1442.0472000000475,1441.0327999999524,1441.5485999999048,1439.1655999999048,1441.0327000000475,1442.0472000000475,1442.5467999999523,1442.5467999999523,1445.5810999999046,2614.0,1445.5812999999523,5.0,1445.594700000048,5.0,13.0,163.0,20.0,1.0,0.8,0.3,Time
,,S22,1,女,18,anonymized,Serial_Dependence_U,2023.2.3,Win32,59.88023952095548,,,,,,1445.595,239.0,5.0,1445.5952000000475,239.0,,,,1449.5557999999523,1450.052,1449.048399999857,1449.5555999999046,1446.614899999857,1449.0482999999524,1450.0522999999523,1450.551899999857,1450.552,1452.4062000000476,1432.0,1452.406399999857,3.0,1452.4192999999525,5.0,14.0,164.0,28.0,1.0,1.4,0.7,Time
,,S22,1,女,18,anonymized,Serial_Dependence_U,2023.2.3,Win32,59.88023952095548,,,,,,1452.4197000000477,337.0,5.0,1452.4197000000477,337.0,,,,1456.604,1457.1002000000478,1456.0862000000477,1456.603899999857,1453.4207999999524,1456.0860999999047,1457.1002000000478,1457.595,1457.5950999999047,1459.587899999857,1150.0,1459.588,2.0,1459.6017999999524,5.0,15.0,165.0,14.0,1.0,1.6,0.3,Time
,,S22,1,女,18,anonymized,Serial_Dependence_U,2023.2.3,Win32,59.88023952095548,,,,,,1459.602,264.0,5.0,1459.6022000000478,264.0,,,,1463.752399999857,1464.2502999999524,1463.235899999857,1463.7522999999524,1460.602399999857,1463.2357999999524,1464.250399999857,1464.744,1464.7440999999046,1466.105,985.0,1466.1052000000475,1.0,1466.118399999857,5.0,16.0,166.0,29.0,1.0,1.6,0.7,Time
,,S22,1,女,18,anonymized,Serial_Dependence_U,2023.2.3,Win32,59.88023952095548,,,,,,1466.1185999999047,175.0,5.0,1466.1187999999524,175.0,,,,1469.5025,1469.9937000000475,1468.9860999999048,1469.5022999999524,1467.119,1468.986,1469.9937000000475,1470.494,1470.4940999999046,1471.861399999857,1011.0,1471.8617000000477,4.0,1471.876099999905,5.0,17.0,167.0,0.0,1.0,0.8,0.3,Time
,,S22,1,女,18,anonymized,Serial_Dependence_U,2023.2.3,Win32,59.88023952095548,,,,,,1471.8765999999048,182.0,5.0,1471.8770000000002,182.0,,,,1475.4612000000477,1475.9595000000002,1474.9455,1475.4610999999047,1472.8780000000002,1474.945399999857,1475.959700000048,1476.459399999857,1476.4595000000002,1479.4770999999048,963.0,1479.477399999857,3.0,1479.4937000000475,5.0,18.0,168.0,21.0,1.0,1.0,0.3,Time
,,S22,1,女,18,anonymized,Serial_Dependence_U,2023.2.3,Win32,59.88023952095548,,,,,,1479.4940999999046,261.0,5.0,1479.4942000000478,261.0,,,,1483.442899999857,1483.9415,1482.927,1483.4427999999525,1480.4940999999046,1482.9267999999524,1483.9415,1484.441399999857,1484.4415,1488.0927999999524,2833.0,1488.0932000000478,5.0,1488.1080000000002,5.0,19.0,169.0,8.0,1.0,1.4,0.7,Time
,,S22,1,女,18,anonymized,Serial_Dependence_U,2023.2.3,Win32,59.88023952095548,,,,,,1488.1085999999048,204.0,5.0,1488.1087999999525,204.0,,,,1492.242899999857,1492.7402999999524,1491.7412999999524,1492.2425999999048,1489.1090000000002,1491.7412999999524,1492.7403999998571,1493.2402999999524,1493.2403999998571,1496.4750999999046,2600.0,1496.4755999999047,5.0,1496.4917000000478,5.0,20.0,170.0,9.0,1.0,1.6,0.7,Time
,,S22,1,女,18,anonymized,Serial_Dependence_U,2023.2.3,Win32,59.88023952095548,,,,,,1496.4920000000002,18.0,5.0,1496.492099999905,18.0,,,,1500.2415999999048,1500.7395,1499.7242999999523,1500.2415,1497.491399999857,1499.7240000000002,1500.7395,1501.2395999999046,1501.2395999999046,1505.54,1433.0,1505.5405999999048,4.0,1505.5585999999048,5.0,21.0,171.0,7.0,1.0,1.2,0.7,Time
,,S22,1,女,18,anonymized,Serial_Dependence_U,2023.2.3,Win32,59.88023952095548,,,,,,1505.559,253.0,5.0,1505.5592000000477,253.0,,,,1509.540399999857,1510.0385,1509.0237000000477,1509.5402000000477,1506.5575999999046,1509.0235,1510.0385,1510.5382999999524,1510.5385,1512.706399999857,1598.0,1512.7068999998571,4.0,1512.722899999857,5.0,22.0,172.0,23.0,1.0,1.4,0.3,Time
,,S22,1,女,18,anonymized,Serial_Dependence_U,2023.2.3,Win32,59.88023952095548,,,,,,1512.723399999857,162.0,5.0,1512.7235,162.0,,,,1516.2735999999047,1516.770899999857,1515.7562999999525,1516.273399999857,1513.7230000000002,1515.7562000000478,1516.770899999857,1517.2705999999048,1517.2707000000478,1519.306,1603.0,1519.3062000000475,5.0,1519.3192000000477,5.0,23.0,173.0,16.0,1.0,1.0,0.7,Time
,,S22,1,女,18,anonymized,Serial_Dependence_U,2023.2.3,Win32,59.88023952095548,,,,,,1519.3197999999525,318.0,5.0,1519.319899999857,318.0,,,,1522.6720999999047,1523.1702000000478,1522.1555,1522.672,1520.3218999998571,1522.155399999857,1523.1705999999049,1523.669399999857,1523.6695,1525.603899999857,1484.0,1525.6042000000475,5.0,1525.6172000000477,5.0,24.0,174.0,5.0,1.0,0.8,0.7,Time
,,S22,1,女,18,anonymized,Serial_Dependence_U,2023.2.3,Win32,59.88023952095548,,,,,,1525.6177000000478,334.0,5.0,1525.6177999999525,334.0,,,,1529.171399999857,1529.6690999999048,1528.6542999999524,1529.1712999999525,1526.6212999999525,1528.654,1529.6690999999048,1530.1695,1530.169599999905,1530.388399999857,137.0,1530.3887000000475,1.0,1530.401399999857,5.0,25.0,175.0,26.0,1.0,1.0,0.7,Time
,,S22,1,女,18,anonymized,Serial_Dependence_U,2023.2.3,Win32,59.88023952095548,,,,,,1530.401700000048,30.0,5.0,1530.402,30.0,,,,1534.171,1534.669,1533.6697999999524,1534.170899999857,1531.4045,1533.6697000000477,1534.6690999999048,1535.168899999857,1535.169,1537.3692999999523,1733.0,1537.3695,5.0,1537.384,5.0,26.0,176.0,2.0,1.0,1.2,0.3,Time
,,S22,1,女,18,anonymized,Serial_Dependence_U,2023.2.3,Win32,59.88023952095548,,,,,,1537.3842999999524,122.0,5.0,1537.3845999999048,122.0,,,,1541.136,1541.6342999999524,1540.6197000000475,1541.1357999999525,1538.386899999857,1540.6195,1541.6343999998571,1542.1340999999047,1542.1340999999047,1543.968,1301.0,1543.9682999999525,4.0,1543.9827000000478,5.0,27.0,177.0,27.0,1.0,1.2,0.7,Time
,,S22,1,女,18,anonymized,Serial_Dependence_U,2023.2.3,Win32,59.88023952095548,,,,,,1543.9832999999524,307.0,5.0,1543.983399999857,307.0,,,,1547.5750999999048,1548.0718999998571,1547.0587000000478,1547.5750999999048,1544.9855,1547.0585999999048,1548.0718999998571,1548.566899999857,1548.567,1550.6092000000478,1699.0,1550.6092999999523,5.0,1550.6217999999524,5.0,28.0,178.0,11.0,1.0,1.0,0.3,Time
,,S22,1,女,18,anonymized,Serial_Dependence_U,2023.2.3,Win32,59.88023952095548,,,,,,1550.6220999999048,109.0,5.0,1550.6222000000478,109.0,,,,1554.574,1555.0660999999047,1554.0575999999046,1554.574,1551.6247000000478,1554.0575,1555.0662000000475,1555.5660999999047,1555.5662999999524,1557.4082999999523,1633.0,1557.4085999999047,4.0,1557.4220999999047,5.0,29.0,179.0,18.0,1.0,1.4,0.7,Time
,,S22,1,女,18,anonymized,Serial_Dependence_U,2023.2.3,Win32,59.88023952095548,,,,,,1557.4225,102.0,6.0,1561.4277000000477,102.0,s,3.981900000095493,,1565.406899999857,1565.8975999999047,1564.8997999999524,1565.406899999857,1562.4327999999523,1564.8995999999047,1565.8977999999524,1566.3980999999046,1566.3982000000478,1567.7402999999524,1282.0,1567.7405,2.0,1567.7542999999523,6.0,0.0,180.0,3.0,1.0,1.4,0.3,Time
,,S22,1,女,18,anonymized,Serial_Dependence_U,2023.2.3,Win32,59.88023952095548,,,,,,1567.7547000000477,131.0,6.0,1567.7560999999048,131.0,,,,1571.9387999999524,1572.430700000048,1571.4220999999047,1571.9387000000477,1568.7555,1571.422,1572.4307999999523,1572.9365999999047,1572.9365999999047,1574.6055999999046,1266.0,1574.6057999999523,2.0,1574.6197999999524,6.0,1.0,181.0,24.0,1.0,1.6,0.3,Time
,,S22,1,女,18,anonymized,Serial_Dependence_U,2023.2.3,Win32,59.88023952095548,,,,,,1574.6202000000478,22.0,6.0,1574.6202999999523,22.0,,,,1578.371599999905,1578.8630999999048,1577.8547000000478,1578.371399999857,1575.621599999905,1577.8545999999046,1578.8632000000478,1579.362899999857,1579.362899999857,1581.2235999999048,1335.0,1581.2237999999525,4.0,1581.237599999905,6.0,2.0,182.0,7.0,1.0,1.2,0.7,Time
,,S22,1,女,18,anonymized,Serial_Dependence_U,2023.2.3,Win32,59.88023952095548,,,,,,1581.237899999857,319.0,6.0,1581.238,319.0,,,,1585.0205999999048,1585.5183999998571,1584.5035999999047,1585.020399999857,1582.2372000000478,1584.5035,1585.5183999998571,1586.0175999999046,1586.017700000048,1587.571399999857,1117.0,1587.5715999999047,2.0,1587.5845000000002,6.0,3.0,183.0,22.0,1.0,1.2,0.3,Time
,,S22,1,女,18,anonymized,Serial_Dependence_U,2023.2.3,Win32,59.88023952095548,,,,,,1587.5847999999523,132.0,6.0,1587.584899999857,132.0,,,,1590.9695000000002,1591.4612999999524,1590.453399999857,1590.969399999857,1588.5862000000477,1590.4532999999524,1591.4612999999524,1591.9613999998571,1591.9615,1594.1292000000478,1300.0,1594.1295999999047,5.0,1594.143899999857,6.0,4.0,184.0,0.0,1.0,0.8,0.3,Time
,,S22,1,女,18,anonymized,Serial_Dependence_U,2023.2.3,Win32,59.88023952095548,,,,,,1594.1445,307.0,6.0,1594.1447000000478,307.0,,,,1598.2955999999049,1598.794,1597.7795,1598.295399999857,1595.145899999857,1597.7792999999524,1598.794,1599.2937000000477,1599.2937000000477,1600.9945999999047,1184.0,1600.995,2.0,1601.009,6.0,5.0,185.0,19.0,1.0,1.6,0.7,Time
,,S22,1,女,18,anonymized,Serial_Dependence_U,2023.2.3,Win32,59.88023952095548,,,,,,1601.0095,353.0,6.0,1601.0097999999523,353.0,,,,1604.7945,1605.2925999999047,1604.2783999998571,1604.794399999857,1602.0115999999048,1604.2782999999524,1605.2925999999047,1605.7925999999047,1605.7927000000475,1607.360399999857,1166.0,1607.3607999999524,3.0,1607.3742000000475,6.0,6.0,186.0,2.0,1.0,1.2,0.3,Time
,,S22,1,女,18,anonymized,Serial_Dependence_U,2023.2.3,Win32,59.88023952095548,,,,,,1607.3745,85.0,6.0,1607.3747999999523,85.0,,,,1610.7765999999046,1611.2757000000477,1610.261,1610.7762999999525,1608.3945,1610.2607999999525,1611.2757000000477,1611.7752999999525,1611.775399999857,1613.2602000000477,999.0,1613.2605999999048,4.0,1613.2747999999524,6.0,7.0,187.0,20.0,1.0,0.8,0.3,Time
,,S22,1,女,18,anonymized,Serial_Dependence_U,2023.2.3,Win32,59.88023952095548,,,,,,1613.2752999999525,302.0,6.0,1613.275599999905,302.0,,,,1617.442899999857,1617.9410999999047,1616.9267999999524,1617.4427999999525,1614.276899999857,1616.9265999999047,1617.9412000000475,1618.441399999857,1618.4415,1619.992099999905,1200.0,1619.9922000000477,2.0,1620.008,6.0,8.0,188.0,9.0,1.0,1.6,0.7,Time
,,S22,1,女,18,anonymized,Serial_Dependence_U,2023.2.3,Win32,59.88023952095548,,,,,,1620.0085,78.0,6.0,1620.0085999999046,78.0,,,,1624.1915999999046,1624.690399999857,1623.676200000048,1624.191399999857,1621.0093999998571,1623.6760000000002,1624.690399999857,1625.190399999857,1625.190399999857,1627.7412999999524,1332.0,1627.7415999999048,2.0,1627.7557000000477,6.0,9.0,189.0,4.0,1.0,1.6,0.3,Time
,,S22,1,女,18,anonymized,Serial_Dependence_U,2023.2.3,Win32,59.88023952095548,,,,,,1627.756,29.0,6.0,1627.7562000000478,29.0,,,,1631.723899999857,1632.2225999999048,1631.207,1631.7237000000478,1628.7585999999046,1631.2067999999524,1632.2225999999048,1632.7225999999048,1632.7227999999525,1634.8232999999525,1267.0,1634.8237000000477,2.0,1634.838,6.0,10.0,190.0,8.0,1.0,1.4,0.7,Time
,,S22,1,女,18,anonymized,Serial_Dependence_U,2023.2.3,Win32,59.88023952095548,,,,,,1634.8385999999048,120.0,6.0,1634.838899999857,120.0,,,,1638.4235,1638.9215999999046,1637.9082000000478,1638.4232999999524,1635.8407999999524,1637.9077999999524,1638.9217000000478,1639.4215000000002,1639.4217000000478,1641.2892000000477,1551.0,1641.289899999857,5.0,1641.3040999999048,6.0,11.0,191.0,21.0,1.0,1.0,0.3,Time
,,S22,1,女,18,anonymized,Serial_Dependence_U,2023.2.3,Win32,59.88023952095548,,,,,,1641.3045000000002,258.0,6.0,1641.3047000000477,258.0,,,,1645.3060999999047,1645.8042999999525,1644.79,1645.305899999857,1642.323,1644.7897999999525,1645.8042999999525,1646.3042999999525,1646.304399999857,1648.0047999999524,1352.0,1648.0050999999048,3.0,1648.0170999999048,6.0,12.0,192.0,13.0,1.0,1.4,0.3,Time
,,S22,1,女,18,anonymized,Serial_Dependence_U,2023.2.3,Win32,59.88023952095548,,,,,,1648.0175000000002,268.0,6.0,1648.0175000000002,268.0,,,,1651.3717000000477,1651.8702000000478,1650.8557999999523,1651.371599999905,1649.0222999999523,1650.8557000000478,1651.8702000000478,1652.3702000000478,1652.3702000000478,1655.0875,1984.0,1655.0877999999525,5.0,1655.1012000000478,6.0,13.0,193.0,5.0,1.0,0.8,0.7,Time
,,S22,1,女,18,anonymized,Serial_Dependence_U,2023.2.3,Win32,59.88023952095548,,,,,,1655.1015,100.0,6.0,1655.1017000000477,100.0,,,,1659.055,1659.5525,1658.538,1659.0547999999524,1656.1047999999523,1658.537899999857,1659.553,1660.0527999999524,1660.0527999999524,1662.1872999999523,1467.0,1662.1877000000477,3.0,1662.2022000000477,6.0,14.0,194.0,28.0,1.0,1.4,0.7,Time
,,S22,1,女,18,anonymized,Serial_Dependence_U,2023.2.3,Win32,59.88023952095548,,,,,,1662.2027000000478,165.0,6.0,1662.202899999857,165.0,,,,1665.986899999857,1666.485,1665.4705999999046,1665.9867000000477,1663.204399999857,1665.4703999998571,1666.485,1666.9745999999047,1666.9747000000475,1668.728899999857,1167.0,1668.7292000000475,3.0,1668.7430000000002,6.0,15.0,195.0,12.0,1.0,1.2,0.3,Time
,,S22,1,女,18,anonymized,Serial_Dependence_U,2023.2.3,Win32,59.88023952095548,,,,,,1668.7432999999523,224.0,6.0,1668.743399999857,224.0,,,,1672.693,1673.1842000000477,1672.1767000000475,1672.692899999857,1669.7425999999048,1672.1765999999047,1673.1842999999524,1673.684399999857,1673.684399999857,1675.195200000048,1136.0,1675.1952999999523,2.0,1675.2082999999525,6.0,16.0,196.0,18.0,1.0,1.4,0.7,Time
,,S22,1,女,18,anonymized,Serial_Dependence_U,2023.2.3,Win32,59.88023952095548,,,,,,1675.208599999905,114.0,6.0,1675.2087000000477,114.0,,,,1678.958,1679.45,1678.4423999998571,1678.957899999857,1676.2092000000478,1678.4422999999524,1679.4500999999048,1679.9560999999046,1679.9562999999523,1682.027,1601.0,1682.0270999999047,5.0,1682.0417000000475,6.0,17.0,197.0,17.0,1.0,1.2,0.7,Time
,,S22,1,女,18,anonymized,Serial_Dependence_U,2023.2.3,Win32,59.88023952095548,,,,,,1682.042,284.0,6.0,1682.0420999999046,284.0,,,,1685.6012999999523,1686.098899999857,1685.0837000000477,1685.6012000000478,1683.0407000000478,1685.0835000000002,1686.0990000000002,1686.5990000000002,1686.5990999999046,1688.4997000000478,1382.0,1688.499899999857,5.0,1688.512899999857,6.0,18.0,198.0,16.0,1.0,1.0,0.7,Time
,,S22,1,女,18,anonymized,Serial_Dependence_U,2023.2.3,Win32,59.88023952095548,,,,,,1688.5132000000478,335.0,6.0,1688.513399999857,335.0,,,,1692.5002999999524,1692.9982999999525,1691.9835,1692.5002000000477,1689.517399999857,1691.9835,1692.9982999999525,1693.4980999999048,1693.4982000000475,1695.598899999857,1731.0,1695.5990000000002,4.0,1695.612899999857,6.0,19.0,199.0,23.0,1.0,1.4,0.3,Time
,,S22,1,女,18,anonymized,Serial_Dependence_U,2023.2.3,Win32,59.88023952095548,,,,,,1695.6135999999046,172.0,6.0,1695.6137999999523,172.0,,,,1698.9992999999524,1699.4972999999525,1698.4830000000002,1698.9990999999047,1696.6160999999047,1698.482899999857,1699.4972999999525,1699.9972999999525,1699.997399999857,1702.064399999857,1568.0,1702.0647000000477,5.0,1702.0782000000477,6.0,20.0,200.0,10.0,1.0,0.8,0.3,Time
,,S22,1,女,18,anonymized,Serial_Dependence_U,2023.2.3,Win32,59.88023952095548,,,,,,1702.0785999999048,49.0,6.0,1702.0787000000478,49.0,,,,1705.4302000000478,1705.929899999857,1704.915099999905,1705.43,1703.082,1704.915,1705.93,1706.429599999905,1706.429599999905,1708.2472000000478,1468.0,1708.2475000000002,5.0,1708.2612999999524,6.0,21.0,201.0,25.0,1.0,0.8,0.7,Time
,,S22,1,女,18,anonymized,Serial_Dependence_U,2023.2.3,Win32,59.88023952095548,,,,,,1708.2617999999525,198.0,6.0,1708.2620999999046,198.0,,,,1712.0142999999523,1712.512399999857,1711.4982000000475,1712.0142000000478,1709.2650999999048,1711.498,1712.512399999857,1713.0122999999523,1713.0122999999523,1714.7470999999048,1713.0,1714.7475000000002,5.0,1714.7635,6.0,22.0,202.0,27.0,1.0,1.2,0.7,Time
,,S22,1,女,18,anonymized,Serial_Dependence_U,2023.2.3,Win32,59.88023952095548,,,,,,1714.7637999999524,53.0,6.0,1714.7638999998571,53.0,,,,1718.3475999999048,1718.844899999857,1717.8465,1718.347399999857,1715.7787999999523,1717.846399999857,1718.844899999857,1719.3447999999523,1719.3447999999523,1721.5285,933.0,1721.5287000000478,2.0,1721.5412999999523,6.0,23.0,203.0,1.0,1.0,1.0,0.3,Time
,,S22,1,女,18,anonymized,Serial_Dependence_U,2023.2.3,Win32,59.88023952095548,,,,,,1721.5415999999047,235.0,6.0,1721.5417000000475,235.0,,,,1725.0960999999047,1725.593899999857,1724.5795,1725.095899999857,1722.5457999999524,1724.5792999999524,1725.594,1726.0942000000475,1726.0942999999525,1727.7942999999525,1261.0,1727.7945,4.0,1727.8097000000478,6.0,24.0,204.0,6.0,1.0,1.0,0.7,Time
,,S22,1,女,18,anonymized,Serial_Dependence_U,2023.2.3,Win32,59.88023952095548,,,,,,1727.8102999999523,317.0,6.0,1727.8105,317.0,,,,1731.3775,1731.8767999999525,1730.8620999999048,1731.377399999857,1728.8125,1730.862,1731.876899999857,1732.376399999857,1732.3765,1734.4267000000475,1534.0,1734.426899999857,5.0,1734.4397000000477,6.0,25.0,205.0,26.0,1.0,1.0,0.7,Time
,,S22,1,女,18,anonymized,Serial_Dependence_U,2023.2.3,Win32,59.88023952095548,,,,,,1734.44,77.0,6.0,1734.4402000000478,77.0,,,,1738.6262000000477,1739.1255,1738.111,1738.626099999905,1735.4445999999048,1738.110899999857,1739.1255999999048,1739.625399999857,1739.6255,1741.260399999857,1115.0,1741.2605999999048,1.0,1741.2752000000478,6.0,26.0,206.0,14.0,1.0,1.6,0.3,Time
,,S22,1,女,18,anonymized,Serial_Dependence_U,2023.2.3,Win32,59.88023952095548,,,,,,1741.2757999999524,311.0,6.0,1741.276,311.0,,,,1744.6270000000002,1745.1247999999523,1744.1105,1744.6267000000478,1742.276899999857,1744.110399999857,1745.1247999999523,1745.6247999999523,1745.6247999999523,1747.2590999999047,1269.0,1747.2597000000478,5.0,1747.2738999998571,6.0,27.0,207.0,15.0,1.0,0.8,0.7,Time
,,S22,1,女,18,anonymized,Serial_Dependence_U,2023.2.3,Win32,59.88023952095548,,,,,,1747.2742999999523,349.0,6.0,1747.274399999857,349.0,,,,1750.859399999857,1751.3575999999048,1750.3425,1750.8592000000478,1748.2767999999523,1750.3422999999525,1751.3575999999048,1751.8572000000477,1751.8572999999524,1753.390899999857,1168.0,1753.3912000000478,4.0,1753.4037999999523,6.0,28.0,208.0,11.0,1.0,1.0,0.3,Time
,,S22,1,女,18,anonymized,Serial_Dependence_U,2023.2.3,Win32,59.88023952095548,,,,,,1753.4040999999047,30.0,6.0,1753.4042999999524,30.0,,,,1757.574899999857,1758.073399999857,1757.0585999999048,1757.5747999999523,1754.408899999857,1757.0585,1758.073399999857,1758.5727000000477,1758.572899999857,1760.140899999857,1035.0,1760.1412000000478,1.0,1760.155899999857,6.0,29.0,209.0,29.0,1.0,1.6,0.7,Time
,,S22,1,女,18,anonymized,Serial_Dependence_U,2023.2.3,Win32,59.88023952095548,,,,,,1760.1565,332.0,7.0,1762.0395,332.0,s,1.862299999952484,,1765.5905,1766.088899999857,1765.0745999999046,1765.5902000000478,1763.0410999999046,1765.0745000000002,1766.088899999857,1766.5885999999048,1766.5887000000478,1768.6890999999048,1203.0,1768.6892999999525,4.0,1768.704399999857,7.0,0.0,210.0,16.0,1.0,1.0,0.7,Time
,,S22,1,女,18,anonymized,Serial_Dependence_U,2023.2.3,Win32,59.88023952095548,,,,,,1768.704899999857,259.0,7.0,1768.7070999999048,259.0,,,,1772.6565999999048,1773.155099999905,1772.1552000000477,1772.656399999857,1769.723099999905,1772.155099999905,1773.155099999905,1773.6542999999524,1773.654399999857,1776.5887999999525,1079.0,1776.5890000000002,2.0,1776.603700000048,7.0,1.0,211.0,8.0,1.0,1.4,0.7,Time
,,S22,1,女,18,anonymized,Serial_Dependence_U,2023.2.3,Win32,59.88023952095548,,,,,,1776.604399999857,27.0,7.0,1776.6045999999046,27.0,,,,1780.5887999999525,1781.0865,1780.0725,1780.5885999999048,1777.6057000000478,1780.0722999999523,1781.0865,1781.5867000000478,1781.5867999999523,1783.004399999857,1070.0,1783.0047000000477,2.0,1783.0183999998571,7.0,2.0,212.0,23.0,1.0,1.4,0.3,Time
,,S22,1,女,18,anonymized,Serial_Dependence_U,2023.2.3,Win32,59.88023952095548,,,,,,1783.018899999857,220.0,7.0,1783.0190999999047,220.0,,,,1786.9612999999524,1787.4527000000478,1786.454899999857,1786.9612000000477,1784.021899999857,1786.4547999999525,1787.4527999999525,1787.9560999999046,1787.9562000000478,1790.195399999857,1616.0,1790.1955999999047,4.0,1790.207899999857,7.0,3.0,213.0,28.0,1.0,1.4,0.7,Time
,,S22,1,女,18,anonymized,Serial_Dependence_U,2023.2.3,Win32,59.88023952095548,,,,,,1790.2082999999525,77.0,7.0,1790.208399999857,77.0,,,,1794.3600999999046,1794.8512000000478,1793.844,1794.3600999999046,1791.2095999999046,1793.844,1794.8512999999523,1795.3407999999524,1795.3407999999524,1797.710899999857,1666.0,1797.7110999999047,3.0,1797.7240999999046,7.0,4.0,214.0,9.0,1.0,1.6,0.7,Time
,,S22,1,女,18,anonymized,Serial_Dependence_U,2023.2.3,Win32,59.88023952095548,,,,,,1797.7245,189.0,7.0,1797.7245999999047,189.0,,,,1801.0763999998571,1801.566899999857,1800.5597000000478,1801.0762999999524,1798.7262999999523,1800.5595,1801.567,1802.0735,1802.0735,1803.826200000048,1732.0,1803.826399999857,5.0,1803.8387999999525,7.0,5.0,215.0,15.0,1.0,0.8,0.7,Time
,,S22,1,女,18,anonymized,Serial_Dependence_U,2023.2.3,Win32,59.88023952095548,,,,,,1803.8390999999049,32.0,7.0,1803.8392999999523,32.0,,,,1808.0255,1808.516700000048,1807.5080999999047,1808.0252999999525,1804.8422999999525,1807.5080999999047,1808.5167999999524,1809.0165999999049,1809.016700000048,1811.1427999999523,1434.0,1811.143,2.0,1811.156,7.0,6.0,216.0,14.0,1.0,1.6,0.3,Time
,,S22,1,女,18,anonymized,Serial_Dependence_U,2023.2.3,Win32,59.88023952095548,,,,,,1811.156399999857,141.0,7.0,1811.156399999857,141.0,,,,1815.324200000048,1815.815899999857,1814.8232999999525,1815.324200000048,1812.157700000048,1814.8232999999525,1815.816,1816.321399999857,1816.3215,1818.3822999999525,1315.0,1818.3825,2.0,1818.3952999999524,7.0,7.0,217.0,4.0,1.0,1.6,0.3,Time
,,S22,1,女,18,anonymized,Serial_Dependence_U,2023.2.3,Win32,59.88023952095548,,,,,,1818.3955999999048,78.0,7.0,1818.395700000048,78.0,,,,1822.140399999857,1822.631700000048,1821.633200000048,1822.140399999857,1819.3997999999524,1821.633,1822.631700000048,1823.131399999857,1823.1315,1825.0740999999048,1383.0,1825.0742999999525,4.0,1825.088200000048,7.0,8.0,218.0,27.0,1.0,1.2,0.7,Time
,,S22,1,女,18,anonymized,Serial_Dependence_U,2023.2.3,Win32,59.88023952095548,,,,,,1825.0885,263.0,7.0,1825.088700000048,263.0,,,,1828.672399999857,1829.168200000048,1828.155700000048,1828.6722999999524,1826.089399999857,1828.1555,1829.1682999999523,1829.6642999999524,1829.6642999999524,1831.357700000048,1235.0,1831.3577999999525,4.0,1831.3717999999524,7.0,9.0,219.0,21.0,1.0,1.0,0.3,Time
,,S22,1,女,18,anonymized,Serial_Dependence_U,2023.2.3,Win32,59.88023952095548,,,,,,1831.372200000048,170.0,7.0,1831.3722999999525,170.0,,,,1834.7547999999524,1835.246700000048,1834.237899999857,1834.7547999999524,1832.372200000048,1834.2377999999524,1835.2467999999524,1835.735,1835.735,1837.8735999999049,1501.0,1837.873899999857,5.0,1837.8870999999049,7.0,10.0,220.0,0.0,1.0,0.8,0.3,Time
,,S22,1,女,18,anonymized,Serial_Dependence_U,2023.2.3,Win32,59.88023952095548,,,,,,1837.887399999857,270.0,7.0,1837.8875,270.0,,,,1841.870200000048,1842.3680999999049,1841.353700000048,1841.8700999999048,1838.8872999999523,1841.3535,1842.368200000048,1842.8665,1842.8665999999048,1844.7707999999525,1183.0,1844.770899999857,2.0,1844.7845,7.0,11.0,221.0,3.0,1.0,1.4,0.3,Time
,,S22,1,女,18,anonymized,Serial_Dependence_U,2023.2.3,Win32,59.88023952095548,,,,,,1844.7847999999524,346.0,7.0,1844.784899999857,346.0,,,,1848.536700000048,1849.0312999999524,1848.0197999999525,1848.5365999999049,1845.7862999999525,1848.0195999999048,1849.0312999999524,1849.531200000048,1849.5312999999524,1851.6372999999523,1400.0,1851.637399999857,4.0,1851.6505,7.0,12.0,222.0,7.0,1.0,1.2,0.7,Time
,,S22,1,女,18,anonymized,Serial_Dependence_U,2023.2.3,Win32,59.88023952095548,,,,,,1851.650899999857,103.0,7.0,1851.651,103.0,,,,1855.811700000048,1856.3102999999523,1855.295399999857,1855.8115999999047,1852.6517999999523,1855.2952999999525,1856.3102999999523,1856.810200000048,1856.8102999999523,1858.911,1817.0,1858.911200000048,4.0,1858.9245999999048,7.0,13.0,223.0,29.0,1.0,1.6,0.7,Time
,,S22,1,女,18,anonymized,Serial_Dependence_U,2023.2.3,Win32,59.88023952095548,,,,,,1858.925,147.0,7.0,1858.925,147.0,,,,1862.2772999999524,1862.776200000048,1861.7615999999048,1862.2772999999524,1859.928200000048,1861.7615,1862.776200000048,1863.2762999999525,1863.2762999999525,1865.4435999999048,1749.0,1865.4437999999525,5.0,1865.458899999857,7.0,14.0,224.0,5.0,1.0,0.8,0.7,Time
,,S22,1,女,18,anonymized,Serial_Dependence_U,2023.2.3,Win32,59.88023952095548,,,,,,1865.459200000048,353.0,7.0,1865.459399999857,353.0,,,,1869.0435999999047,1869.5420999999048,1868.5270999999047,1869.0435,1866.460700000048,1868.5270999999047,1869.5420999999048,1870.042,1870.042,1872.109399999857,1202.0,1872.109700000048,4.0,1872.122700000048,7.0,15.0,225.0,1.0,1.0,1.0,0.3,Time
,,S22,1,女,18,anonymized,Serial_Dependence_U,2023.2.3,Win32,59.88023952095548,,,,,,1872.122899999857,3.0,7.0,1872.123,3.0,,,,1875.908700000048,1876.4075999999047,1875.3925,1875.9085999999047,1873.126899999857,1875.392399999857,1876.407700000048,1876.908200000048,1876.908200000048,1878.9745999999047,1299.0,1878.974899999857,4.0,1878.988700000048,7.0,16.0,226.0,12.0,1.0,1.2,0.3,Time
,,S22,1,女,18,anonymized,Serial_Dependence_U,2023.2.3,Win32,59.88023952095548,,,,,,1878.9890999999047,342.0,7.0,1878.989200000048,342.0,,,,1883.175399999857,1883.6735999999048,1882.659700000048,1883.1752999999524,1879.9930999999049,1882.659599999905,1883.673700000048,1884.1735999999048,1884.173700000048,1885.624899999857,1166.0,1885.625700000048,2.0,1885.641700000048,7.0,17.0,227.0,24.0,1.0,1.6,0.3,Time
,,S22,1,女,18,anonymized,Serial_Dependence_U,2023.2.3,Win32,59.88023952095548,,,,,,1885.642200000048,142.0,7.0,1885.6422999999525,142.0,,,,1889.407899999857,1889.906200000048,1888.8907999999524,1889.4077999999524,1886.6435,1888.890700000048,1889.906200000048,1890.406200000048,1890.406200000048,1892.123700000048,1250.0,1892.123899999857,3.0,1892.138899999857,7.0,18.0,228.0,17.0,1.0,1.2,0.7,Time
,,S22,1,女,18,anonymized,Serial_Dependence_U,2023.2.3,Win32,59.88023952095548,,,,,,1892.139200000048,58.0,7.0,1892.1395,58.0,,,,1895.723200000048,1896.221399999857,1895.2075,1895.723,1893.141200000048,1895.2072999999525,1896.221399999857,1896.721399999857,1896.721399999857,1898.088899999857,934.0,1898.0892999999523,2.0,1898.102200000048,7.0,19.0,229.0,11.0,1.0,1.0,0.3,Time
,,S22,1,女,18,anonymized,Serial_Dependence_U,2023.2.3,Win32,59.88023952095548,,,,,,1898.102599999905,98.0,7.0,1898.102700000048,98.0,,,,1901.473399999857,1901.971200000048,1900.957399999857,1901.4732999999524,1899.107099999905,1900.957200000048,1901.971200000048,1902.470899999857,1902.471,1904.022,1035.0,1904.022200000048,4.0,1904.0357999999524,7.0,20.0,230.0,25.0,1.0,0.8,0.7,Time
,,S22,1,女,18,anonymized,Serial_Dependence_U,2023.2.3,Win32,59.88023952095548,,,,,,1904.0360999999048,155.0,7.0,1904.036200000048,155.0,,,,1907.8295999999048,1908.3202999999523,1907.3127999999524,1907.8295,1905.039399999857,1907.312700000048,1908.3205,1908.808200000048,1908.8082999999524,1910.9640999999049,1583.0,1910.9642999999523,5.0,1910.9782999999525,7.0,21.0,231.0,22.0,1.0,1.2,0.3,Time
,,S22,1,女,18,anonymized,Serial_Dependence_U,2023.2.3,Win32,59.88023952095548,,,,,,1910.9785,137.0,7.0,1910.9785999999049,137.0,,,,1914.5272999999524,1915.019899999857,1914.011200000048,1914.527200000048,1911.977599999905,1914.011099999905,1915.02,1915.5195999999048,1915.5195999999048,1917.3447999999523,1366.0,1917.345,5.0,1917.358899999857,7.0,22.0,232.0,6.0,1.0,1.0,0.7,Time
,,S22,1,女,18,anonymized,Serial_Dependence_U,2023.2.3,Win32,59.88023952095548,,,,,,1917.359200000048,106.0,7.0,1917.3592999999523,106.0,,,,1921.310200000048,1921.8025999999047,1920.7935999999047,1921.3100999999049,1918.3605999999047,1920.793399999857,1921.802700000048,1922.2925,1922.2925,1924.0190999999047,1401.0,1924.019399999857,3.0,1924.032399999857,7.0,23.0,233.0,18.0,1.0,1.4,0.7,Time
,,S22,1,女,18,anonymized,Serial_Dependence_U,2023.2.3,Win32,59.88023952095548,,,,,,1924.032700000048,139.0,7.0,1924.0327999999524,139.0,,,,1927.819700000048,1928.317399999857,1927.3035,1927.8195999999048,1925.036899999857,1927.303399999857,1928.3175,1928.818,1928.818,1930.6357999999525,1266.0,1930.636099999905,4.0,1930.6495,7.0,24.0,234.0,2.0,1.0,1.2,0.3,Time
,,S22,1,女,18,anonymized,Serial_Dependence_U,2023.2.3,Win32,59.88023952095548,,,,,,1930.6500999999048,2.0,7.0,1930.6502999999525,2.0,,,,1934.6357999999525,1935.1337999999523,1934.119,1934.6355999999048,1931.653,1934.118899999857,1935.133899999857,1935.633,1935.633,1936.936,934.0,1936.9362999999523,1.0,1936.952,7.0,25.0,235.0,13.0,1.0,1.4,0.3,Time
,,S22,1,女,18,anonymized,Serial_Dependence_U,2023.2.3,Win32,59.88023952095548,,,,,,1936.9525,354.0,7.0,1936.9525999999048,354.0,,,,1940.334399999857,1940.833399999857,1939.8180999999047,1940.3342999999525,1937.9525999999048,1939.818,1940.833399999857,1941.332700000048,1941.332899999857,1943.917399999857,1435.0,1943.9175999999047,5.0,1943.931700000048,7.0,26.0,236.0,20.0,1.0,0.8,0.3,Time
,,S22,1,女,18,anonymized,Serial_Dependence_U,2023.2.3,Win32,59.88023952095548,,,,,,1943.9325999999048,167.0,7.0,1943.933,167.0,,,,1948.0840999999048,1948.5817999999524,1947.5675,1948.083899999857,1944.9345,1947.5672999999524,1948.581899999857,1949.081700000048,1949.081700000048,1951.5512999999523,2003.0,1951.5515,4.0,1951.5645999999049,7.0,27.0,237.0,19.0,1.0,1.6,0.7,Time
,,S22,1,女,18,anonymized,Serial_Dependence_U,2023.2.3,Win32,59.88023952095548,,,,,,1951.5652999999525,240.0,7.0,1951.5655,240.0,,,,1955.1312999999525,1955.630200000048,1954.615,1955.131200000048,1952.566399999857,1954.6147999999523,1955.6302999999525,1956.1300999999048,1956.130200000048,1958.830700000048,1794.0,1958.830899999857,5.0,1958.841,7.0,28.0,238.0,26.0,1.0,1.0,0.7,Time
,,S22,1,女,18,anonymized,Serial_Dependence_U,2023.2.3,Win32,59.88023952095548,,,,,,1958.8412999999523,155.0,7.0,1958.841399999857,155.0,,,,1962.2145999999047,1962.712700000048,1961.697700000048,1962.214399999857,1959.830899999857,1961.6975,1962.7127999999525,1963.213200000048,1963.213200000048,1965.3645999999048,1489.0,1965.365,5.0,1965.380200000048,7.0,29.0,239.0,10.0,1.0,0.8,0.3,Time
,,S22,1,女,18,anonymized,Serial_Dependence_U,2023.2.3,Win32,59.88023952095548,,,,,,1965.3807999999524,56.0,8.0,1968.664200000048,56.0,s,3.2605999999045707,,1972.652200000048,1973.145,1972.135899999857,1972.652200000048,1969.6687999999524,1972.1357999999525,1973.145200000048,1973.6447999999525,1973.644899999857,1975.769200000048,1767.0,1975.769399999857,4.0,1975.780099999905,8.0,0.0,240.0,13.0,1.0,1.4,0.3,Time
,,S22,1,女,18,anonymized,Serial_Dependence_U,2023.2.3,Win32,59.88023952095548,,,,,,1975.780399999857,130.0,8.0,1975.781399999857,130.0,,,,1979.934200000048,1980.427,1979.417399999857,1979.934099999905,1976.7842999999525,1979.417399999857,1980.4270999999048,1980.927200000048,1980.9272999999523,1982.6705999999049,1069.0,1982.6707999999524,1.0,1982.682200000048,8.0,1.0,241.0,9.0,1.0,1.6,0.7,Time
,,S22,1,女,18,anonymized,Serial_Dependence_U,2023.2.3,Win32,59.88023952095548,,,,,,1982.682399999857,220.0,8.0,1982.6825,220.0,,,,1986.0665,1986.5625,1985.5505,1986.066399999857,1983.6835999999048,1985.5505,1986.5625,1987.0600999999049,1987.060200000048,1988.7675,1183.0,1988.767700000048,5.0,1988.7792999999524,8.0,2.0,242.0,20.0,1.0,0.8,0.3,Time
,,S22,1,女,18,anonymized,Serial_Dependence_U,2023.2.3,Win32,59.88023952095548,,,,,,1988.7795999999048,142.0,8.0,1988.779700000048,142.0,,,,1992.949700000048,1993.442,1992.4487999999524,1992.9495999999049,1989.7825,1992.448700000048,1993.442,1993.931,1993.931,1996.300700000048,1950.0,1996.3007999999525,4.0,1996.313599999905,8.0,3.0,243.0,24.0,1.0,1.6,0.3,Time
,,S22,1,女,18,anonymized,Serial_Dependence_U,2023.2.3,Win32,59.88023952095548,,,,,,1996.314,339.0,8.0,1996.3140999999048,339.0,,,,2000.264700000048,2000.762200000048,1999.748,2000.2645999999047,1997.315399999857,1999.748,2000.762200000048,2001.2575999999049,2001.2575999999049,2002.7415999999048,1160.0,2002.7417999999525,2.0,2002.752,8.0,4.0,244.0,8.0,1.0,1.4,0.7,Time
,,S22,1,女,18,anonymized,Serial_Dependence_U,2023.2.3,Win32,59.88023952095548,,,,,,2002.7522999999524,215.0,8.0,2002.7525,215.0,,,,2006.491200000048,2006.9902999999524,2005.974700000048,2006.4910999999047,2003.7412999999524,2005.9745999999047,2006.9902999999524,2007.4912999999524,2007.4912999999524,2008.8845999999048,1015.0,2008.8847999999523,2.0,2008.898200000048,8.0,5.0,245.0,27.0,1.0,1.2,0.7,Time
,,S22,1,女,18,anonymized,Serial_Dependence_U,2023.2.3,Win32,59.88023952095548,,,,,,2008.8985,11.0,8.0,2008.8985999999047,11.0,,,,2012.250200000048,2012.740700000048,2011.732700000048,2012.2500999999047,2009.899,2011.7325,2012.740700000048,2013.228899999857,2013.229,2015.150700000048,1516.0,2015.1507999999524,5.0,2015.1632999999524,8.0,6.0,246.0,25.0,1.0,0.8,0.7,Time
,,S22,1,女,18,anonymized,Serial_Dependence_U,2023.2.3,Win32,59.88023952095548,,,,,,2015.1637999999523,281.0,8.0,2015.163899999857,281.0,,,,2018.5482999999524,2019.0425,2018.031399999857,2018.548200000048,2016.164700000048,2018.0312999999524,2019.0425999999047,2019.5395999999048,2019.5397999999525,2020.9815,1066.0,2020.981700000048,5.0,2020.9970999999048,8.0,7.0,247.0,0.0,1.0,0.8,0.3,Time
,,S22,1,女,18,anonymized,Serial_Dependence_U,2023.2.3,Win32,59.88023952095548,,,,,,2020.9975999999049,295.0,8.0,2020.9977999999523,295.0,,,,2024.7805999999043,2025.2725,2024.2645999999047,2024.7805,2021.9975,2024.2645,2025.2725999999043,2025.777399999857,2025.7775999999049,2027.499,1435.0,2027.499299999952,4.0,2027.5132000000476,8.0,8.0,248.0,2.0,1.0,1.2,0.3,Time
,,S22,1,女,18,anonymized,Serial_Dependence_U,2023.2.3,Win32,59.88023952095548,,,,,,2027.5135,144.0,8.0,2027.5135,144.0,,,,2031.2630999999044,2031.754799999952,2030.746599999905,2031.263,2028.5130999999044,2030.7465,2031.754899999857,2032.243299999952,2032.2435,2034.0627000000477,1350.0,2034.062799999952,4.0,2034.076,8.0,9.0,249.0,17.0,1.0,1.2,0.7,Time
,,S22,1,女,18,anonymized,Serial_Dependence_U,2023.2.3,Win32,59.88023952095548,,,,,,2034.076399999857,110.0,8.0,2034.0765,110.0,,,,2037.4623999998569,2037.9537999999525,2036.9455,2037.4623999998569,2035.0790999999049,2036.9452999999523,2037.953899999857,2038.46,2038.4600999999043,2041.114,1568.0,2041.1142000000475,5.0,2041.127,8.0,10.0,250.0,10.0,1.0,0.8,0.3,Time
,,S22,1,女,18,anonymized,Serial_Dependence_U,2023.2.3,Win32,59.88023952095548,,,,,,2041.1273999998568,359.0,8.0,2041.1273999998568,359.0,,,,2045.0775999999044,2045.5695999999043,2044.5612999999523,2045.0775999999044,2042.1280999999049,2044.561200000048,2045.5697000000475,2046.069799999952,2046.069899999857,2047.9292999999525,1533.0,2047.929599999905,4.0,2047.942899999857,8.0,11.0,251.0,18.0,1.0,1.4,0.7,Time
,,S22,1,女,18,anonymized,Serial_Dependence_U,2023.2.3,Win32,59.88023952095548,,,,,,2047.9430999999047,262.0,8.0,2047.943200000048,262.0,,,,2051.493200000048,2051.9855,2050.977,2051.4930999999046,2048.9437999999523,2050.976899999857,2051.985599999905,2052.474299999953,2052.4745000000003,2053.895700000048,982.0,2053.895899999857,3.0,2053.908899999857,8.0,12.0,252.0,16.0,1.0,1.0,0.7,Time
,,S22,1,女,18,anonymized,Serial_Dependence_U,2023.2.3,Win32,59.88023952095548,,,,,,2053.909200000048,137.0,8.0,2053.9092999999525,137.0,,,,2057.4595999999046,2057.951599999905,2056.9427999999525,2057.4595999999046,2054.909700000048,2056.942599999905,2057.951599999905,2058.451399999857,2058.4515,2059.9097999999526,1016.0,2059.91,3.0,2059.923,8.0,13.0,253.0,26.0,1.0,1.0,0.7,Time
,,S22,1,女,18,anonymized,Serial_Dependence_U,2023.2.3,Win32,59.88023952095548,,,,,,2059.923399999857,192.0,8.0,2059.9235999999046,192.0,,,,2063.267899999857,2063.767200000048,2062.759599999905,2063.2677999999523,2060.926399999857,2062.7595,2063.767299999952,2064.267200000048,2064.267299999952,2066.5930000000003,1433.0,2066.5932000000475,5.0,2066.6065999999046,8.0,14.0,254.0,15.0,1.0,0.8,0.7,Time
,,S22,1,女,18,anonymized,Serial_Dependence_U,2023.2.3,Win32,59.88023952095548,,,,,,2066.606899999857,154.0,8.0,2066.606899999857,154.0,,,,2070.378200000048,2070.869799999952,2069.874700000048,2070.378099999905,2067.6082999999526,2069.8745999999046,2070.869799999952,2071.3705,2071.3705,2073.591899999857,1138.0,2073.592099999905,2.0,2073.605200000048,8.0,15.0,255.0,12.0,1.0,1.2,0.3,Time
,,S22,1,女,18,anonymized,Serial_Dependence_U,2023.2.3,Win32,59.88023952095548,,,,,,2073.605599999905,346.0,8.0,2073.6057999999525,346.0,,,,2077.5902999999525,2078.087700000048,2077.0735999999047,2077.590200000048,2074.606899999857,2077.0735,2078.087700000048,2078.581899999857,2078.582,2080.5080000000003,1583.0,2080.508200000048,4.0,2080.5212999999526,8.0,16.0,256.0,3.0,1.0,1.4,0.3,Time
