Scale_setup.started,Scale_setup.stopped,participant,session,sex,age,date,expName,psychopyVersion,OS,frameRate,Intro.started,Intro.stopped,key_resp_2.keys,key_resp_2.rt,key_resp_2.duration,block.started,direction,Block_id,block.stopped,trial_direction,Block_resp_2.keys,Block_resp_2.rt,Block_resp_2.duration,ITI.started,ITI.stopped,Mask_2.started,Mask_2.stopped,encoding.started,encoding.stopped,Cue.started,Cue.stopped,Response.started,Response.stopped,keyDuration,Feedback_Time.started,FeedbackID_T,Feedback_Time.stopped,trials.thisRepN,trials.thisTrialN,trials.thisN,trials.thisIndex,trials.ran,TimeDur,Coherence1,TrialType
0.0004000000953539,0.0009999999999905,S23,1,女,22,anonymized,Serial_Dependence_U,2023.2.3,Win32,60.60606060606061,,,,,,,,,,,,,,,,,,,,,,,,,,,,,,,,,,,
,,S23,1,女,22,anonymized,Serial_Dependence_U,2023.2.3,Win32,60.60606060606061,54.31790000009536,176.24569999980926,space,121.88750000000005,,,,,,,,,,,,,,,,,,,,,,,,,,,,,,,
,,S23,1,女,22,anonymized,Serial_Dependence_U,2023.2.3,Win32,60.60606060606061,,,,,,176.25209999990463,284.0,0.0,179.62940000009536,284.0,s,3.3655999999046458,,183.02909999990464,183.52809999990464,182.51169999980928,183.02880000019076,180.64769999980928,182.5115,183.52840000009536,184.02909999990464,184.02940000009536,189.56040000009537,211.0,189.56080000019077,1.0,190.56090000009536,0.0,0.0,0.0,10.0,1.0,0.8,0.3,Time
,,S23,1,女,22,anonymized,Serial_Dependence_U,2023.2.3,Win32,60.60606060606061,,,,,,190.56190000009536,3.0,0.0,190.56880000019075,3.0,,,,194.74530000019075,195.24190000009537,194.22809999990463,194.74519999980927,191.56240000009535,194.22780000019077,195.242,195.74280000019075,195.74280000019075,201.57469999980927,160.0,201.57480000019075,1.0,202.57440000009535,0.0,1.0,1.0,14.0,1.0,1.6,0.3,Time
,,S23,1,女,22,anonymized,Serial_Dependence_U,2023.2.3,Win32,60.60606060606061,,,,,,202.575,258.0,0.0,202.57519999980929,258.0,,,,206.141,206.6405,205.6311999998093,206.1409000000954,203.59209999990463,205.63109999990465,206.6405,207.14169999980928,207.14180000019076,213.75590000009527,199.0,213.756,1.0,214.75630000019072,0.0,2.0,2.0,16.0,1.0,1.0,0.7,Time
,,S23,1,女,22,anonymized,Serial_Dependence_U,2023.2.3,Win32,60.60606060606061,,,,,,214.7565999999046,296.0,0.0,214.75669999980929,296.0,,,,218.3055,218.8048000001907,217.7899000000953,218.30540000009532,215.75740000009532,217.78959999990465,218.8048000001907,219.3045999999046,219.3046999998093,221.4045,196.0,221.4045,1.0,222.4043000001907,0.0,3.0,3.0,26.0,1.0,1.0,0.7,Time
,,S23,1,女,22,anonymized,Serial_Dependence_U,2023.2.3,Win32,60.60606060606061,,,,,,222.4046999998092,326.0,0.0,222.405,326.0,,,,226.1705999999046,226.671,225.65530000019072,226.17049999999995,223.42140000009533,225.65530000019072,226.671,227.17019999980928,227.17019999980928,228.20309999990465,166.0,228.20309999990465,1.0,229.20269999980923,0.0,4.0,4.0,7.0,1.0,1.2,0.7,Time
,,S23,1,女,22,anonymized,Serial_Dependence_U,2023.2.3,Win32,60.60606060606061,,,,,,229.203,111.0,0.0,229.2031999998092,111.0,,,,233.3528000001907,233.85480000019072,232.8394000000953,233.3525999999046,230.2048000001907,232.839,233.85480000019072,234.3530999999046,234.35319999980925,235.0185,153.0,235.0185999999046,1.0,236.008,0.0,5.0,5.0,19.0,1.0,1.6,0.7,Time
,,S23,1,女,22,anonymized,Serial_Dependence_U,2023.2.3,Win32,60.60606060606061,,,,,,236.0084000000953,42.0,0.0,236.00859999990465,42.0,,,,240.0018000001907,240.4900999999046,239.4855,240.0016999998093,237.02190000009531,239.48519999980925,240.49019999980925,240.98490000009537,240.985,241.691,246.0,241.69109999990465,1.0,242.684,0.0,6.0,6.0,13.0,1.0,1.4,0.3,Time
,,S23,1,女,22,anonymized,Serial_Dependence_U,2023.2.3,Win32,60.60606060606061,,,,,,242.6848000001907,249.0,0.0,242.68519999980924,249.0,,,,246.03369999980924,246.53340000009536,245.52230000019068,246.0335999999046,243.68940000009536,245.52219999980923,246.53340000009536,247.034,247.03419999980923,247.65530000019072,184.0,247.65540000009537,1.0,248.6495,0.0,7.0,7.0,25.0,1.0,0.8,0.7,Time
,,S23,1,女,22,anonymized,Serial_Dependence_U,2023.2.3,Win32,60.60606060606061,,,,,,248.64980000019077,353.0,0.0,248.65009999990465,353.0,,,,252.02140000009533,252.51559999990465,251.50640000009537,252.0210999999046,249.65490000009527,251.50619999980927,252.5156999998092,253.0155,253.01559999990465,371.72769999980926,186.0,371.7278000001907,1.0,372.7294000000953,0.0,8.0,8.0,5.0,1.0,0.8,0.7,Time
,,S23,1,女,22,anonymized,Serial_Dependence_U,2023.2.3,Win32,60.60606060606061,,,,,,372.7300999999046,119.0,0.0,372.73040000009536,119.0,,,,376.5125,377.01119999980926,376.011,376.51240000009534,373.74469999980926,376.0109000000953,377.0113000001907,377.5103000001907,377.5105,384.3585999999046,153.0,384.3585999999046,1.0,385.35840000009534,0.0,9.0,9.0,12.0,1.0,1.2,0.3,Time
,,S23,1,女,22,anonymized,Serial_Dependence_U,2023.2.3,Win32,60.60606060606061,,,,,,385.3589000000953,245.0,0.0,385.35969999980927,245.0,,,,388.75890000009537,389.2575999999046,388.2430999999046,388.75869999980927,386.3750999999046,388.243,389.2576999998092,389.75940000009535,389.7595,392.80719999980926,135.0,392.8073000001907,1.0,393.8078000001907,0.0,10.0,10.0,20.0,1.0,0.8,0.3,Time
,,S23,1,女,22,anonymized,Serial_Dependence_U,2023.2.3,Win32,60.60606060606061,,,,,,393.8080999999046,355.0,0.0,393.8083000001907,355.0,,,,397.8065,398.3061999998092,397.29040000009536,397.8065,394.8240999999046,397.2903000001907,398.30630000019073,398.8065,398.8065,412.0205,166.0,412.0205999999046,1.0,413.02030000019073,0.0,11.0,11.0,3.0,1.0,1.4,0.3,Time
,,S23,1,女,22,anonymized,Serial_Dependence_U,2023.2.3,Win32,60.60606060606061,,,,,,413.0208000001907,93.0,0.0,413.02090000009537,93.0,,,,417.17019999980926,417.66990000009537,416.6536999998093,417.1700999999046,414.02190000009534,416.6535999999046,417.66990000009537,418.1719000000953,418.1720999999046,420.8193000001907,2565.0,420.8193000001907,5.0,421.8385999999046,0.0,12.0,12.0,29.0,1.0,1.6,0.7,Time
,,S23,1,女,22,anonymized,Serial_Dependence_U,2023.2.3,Win32,60.60606060606061,,,,,,421.83890000009535,194.0,0.0,421.8390999999046,194.0,,,,425.6190999999046,426.11969999980926,425.1021999998092,425.619,422.83640000009535,425.1020999999046,426.1198000001907,426.61919999980927,426.61919999980927,434.2840999999046,203.0,434.2840999999046,1.0,435.2833000001907,0.0,13.0,13.0,2.0,1.0,1.2,0.3,Time
,,S23,1,女,22,anonymized,Serial_Dependence_U,2023.2.3,Win32,60.60606060606061,,,,,,435.2835999999046,312.0,0.0,435.2838000001907,312.0,,,,439.08280000019073,439.5824000000953,438.5665999999046,439.08280000019073,436.29969999980926,438.5665,439.5824000000953,440.08319999980927,440.0835,446.63169999980926,187.0,446.63169999980926,1.0,447.63080000019073,0.0,14.0,14.0,22.0,1.0,1.2,0.3,Time
,,S23,1,女,22,anonymized,Serial_Dependence_U,2023.2.3,Win32,60.60606060606061,,,,,,447.63119999980927,191.0,0.0,447.63140000009537,191.0,,,,450.9655999999046,451.4638000001907,450.46480000019073,450.9655999999046,448.6321999998093,450.46459999990464,451.46390000009535,451.9633000001907,451.9633000001907,454.3483000001907,1092.0,454.3483000001907,5.0,455.3461999998093,0.0,15.0,15.0,15.0,1.0,0.8,0.7,Time
,,S23,1,女,22,anonymized,Serial_Dependence_U,2023.2.3,Win32,60.60606060606061,,,,,,455.3466999998092,250.0,0.0,455.347,250.0,,,,459.2976999998092,459.7958000001908,458.7808000001908,459.2975999999046,456.3483000001907,458.7805,459.79590000009534,460.29609999990464,460.29609999990464,463.2119000000954,1230.0,463.212,2.0,464.2113000001908,0.0,16.0,16.0,8.0,1.0,1.4,0.7,Time
,,S23,1,女,22,anonymized,Serial_Dependence_U,2023.2.3,Win32,60.60606060606061,,,,,,464.2116999998093,63.0,0.0,464.21190000009545,63.0,,,,468.1615999999047,468.661,467.6456999998093,468.1615,465.2121999998093,467.6455,468.661,469.1603000001907,469.1604000000954,470.9785,820.0,470.9785999999047,1.0,471.97659999990464,0.0,17.0,17.0,18.0,1.0,1.4,0.7,Time
,,S23,1,女,22,anonymized,Serial_Dependence_U,2023.2.3,Win32,60.60606060606061,,,,,,471.9769000000954,175.0,0.0,471.9770999999046,175.0,,,,475.7430999999047,476.24569999980935,475.2269000000954,475.743,472.9939000000954,475.2266999998093,476.24580000019074,476.7425999999047,476.7425999999047,479.2585999999047,1714.0,479.2588000001908,5.0,480.2581999998093,0.0,18.0,18.0,27.0,1.0,1.2,0.7,Time
,,S23,1,女,22,anonymized,Serial_Dependence_U,2023.2.3,Win32,60.60606060606061,,,,,,480.2584000000954,113.0,0.0,480.2585000000001,113.0,,,,484.4085999999047,484.9080999999047,483.90819999980926,484.40850000000006,481.2753000001907,483.9080999999047,484.90819999980926,485.40790000009537,485.4080000000001,486.6748000001907,1135.0,486.6749000000954,2.0,487.6743000001907,0.0,19.0,19.0,9.0,1.0,1.6,0.7,Time
,,S23,1,女,22,anonymized,Serial_Dependence_U,2023.2.3,Win32,60.60606060606061,,,,,,487.6746999998093,122.0,0.0,487.675,122.0,,,,491.0736999998093,491.5731999998093,490.55830000019074,491.0735999999046,488.6908000001908,490.55819999980935,491.5733000001907,492.0733000001907,492.0733000001907,494.20590000009537,1133.0,494.20590000009537,5.0,495.20590000009537,0.0,20.0,20.0,0.0,1.0,0.8,0.3,Time
,,S23,1,女,22,anonymized,Serial_Dependence_U,2023.2.3,Win32,60.60606060606061,,,,,,495.20640000009536,218.0,0.0,495.2065999999047,218.0,,,,498.9401999998093,499.44240000009535,498.4391999998093,498.9400999999047,496.20730000019074,498.4391999998093,499.44250000000005,499.9400999999047,499.9401999998093,501.5880999999046,848.0,501.5881999998093,2.0,502.5883000001907,0.0,21.0,21.0,17.0,1.0,1.2,0.7,Time
,,S23,1,女,22,anonymized,Serial_Dependence_U,2023.2.3,Win32,60.60606060606061,,,,,,502.5889000000954,109.0,0.0,502.5890999999047,109.0,,,,506.588,507.08730000019074,506.0718000001908,506.5879000000954,503.60550000000006,506.07169999980925,507.08730000019074,507.5871999998093,507.5871999998093,509.62000000000006,1257.0,509.6200999999047,2.0,510.61990000009536,0.0,22.0,22.0,23.0,1.0,1.4,0.3,Time
,,S23,1,女,22,anonymized,Serial_Dependence_U,2023.2.3,Win32,60.60606060606061,,,,,,510.62040000009534,325.0,0.0,510.62059999990464,325.0,,,,514.5860999999047,515.0858000001908,514.0735,514.5860999999047,511.622,514.0725999999047,515.0858000001908,515.5850999999047,515.5851999998092,519.5015999999046,3438.0,519.5016999998093,5.0,520.5014000000954,0.0,23.0,23.0,28.0,1.0,1.4,0.7,Time
,,S23,1,女,22,anonymized,Serial_Dependence_U,2023.2.3,Win32,60.60606060606061,,,,,,520.5021999998094,267.0,0.0,520.5024000000953,267.0,,,,524.0843000001908,524.5838000001909,523.5686999998093,524.0843000001908,521.5029999999999,523.5685999999046,524.5839000000954,525.0844999999999,525.0844999999999,527.4004000000955,1599.0,527.4005,5.0,528.4019000000953,0.0,24.0,24.0,11.0,1.0,1.0,0.3,Time
,,S23,1,女,22,anonymized,Serial_Dependence_U,2023.2.3,Win32,60.60606060606061,,,,,,528.4025999999046,217.0,0.0,528.4029000000953,217.0,,,,532.0000999999047,532.4996999998093,531.4853000001908,532.0000999999047,529.4170000000001,531.4851999998093,532.4998000001908,533.0,533.0,533.8830999999047,255.0,533.8831999998092,1.0,534.8819000000954,0.0,25.0,25.0,1.0,1.0,1.0,0.3,Time
,,S23,1,女,22,anonymized,Serial_Dependence_U,2023.2.3,Win32,60.60606060606061,,,,,,534.8823000001908,6.0,0.0,534.8824999999999,6.0,,,,539.0658000001908,539.5656999998093,538.5489000000955,539.0656999998093,535.8824999999999,538.5488000001908,539.5656999998093,540.0645,540.0645,540.7654000000955,382.0,540.7655,1.0,541.7650000000001,0.0,26.0,26.0,4.0,1.0,1.6,0.3,Time
,,S23,1,女,22,anonymized,Serial_Dependence_U,2023.2.3,Win32,60.60606060606061,,,,,,541.7653000001908,117.0,0.0,541.7655999999047,117.0,,,,545.3473000001907,545.8465999999046,544.8319000000954,545.3471999998094,542.7651999998093,544.8318000001907,545.8465999999046,546.3470999999047,546.3470999999047,548.3299999999999,1318.0,548.3301999998093,5.0,549.3291999998094,0.0,27.0,27.0,21.0,1.0,1.0,0.3,Time
,,S23,1,女,22,anonymized,Serial_Dependence_U,2023.2.3,Win32,60.60606060606061,,,,,,549.3295,118.0,0.0,549.3298000001907,118.0,,,,552.8975,553.3963000001909,552.3795,552.8974000000953,550.3463000001907,552.3794000000953,553.3963000001909,553.8951999998094,553.8951999998094,555.146,733.0,555.1461999998094,2.0,556.145,0.0,28.0,28.0,6.0,1.0,1.0,0.7,Time
,,S23,1,女,22,anonymized,Serial_Dependence_U,2023.2.3,Win32,60.60606060606061,,,,,,556.1454000000954,148.0,0.0,556.1455999999046,148.0,,,,560.3453000001907,560.8450999999047,559.8284000000954,560.3451999998092,557.1644000000954,559.8281999998094,560.8450999999047,561.344,561.344,562.0300999999047,254.0,562.0305999999046,1.0,563.0284000000954,0.0,29.0,29.0,24.0,1.0,1.6,0.3,Time
,,S23,1,女,22,anonymized,Serial_Dependence_U,2023.2.3,Win32,60.60606060606061,,,,,,563.0286999998093,343.0,1.0,727.5648000001909,343.0,s,164.50759999990464,,731.5479000000953,732.0485000000001,731.0314000000953,731.5479000000953,728.566,731.0313000001909,732.0485000000001,732.5470999999047,732.5471999998092,733.9301999998092,405.0,733.9303000001908,1.0,733.9304999999999,1.0,0.0,30.0,23.0,1.0,1.4,0.3,Time
,,S23,1,女,22,anonymized,Serial_Dependence_U,2023.2.3,Win32,60.60606060606061,,,,,,733.9308000001909,333.0,1.0,733.9326999998093,333.0,,,,737.5296999998093,738.0295000000001,737.0150999999046,737.5295999999046,734.9483000001908,737.0150999999046,738.0295999999046,738.5319999999999,738.5319999999999,739.8139000000954,720.0,739.8140000000001,2.0,739.8144000000955,1.0,1.0,31.0,21.0,1.0,1.0,0.3,Time
,,S23,1,女,22,anonymized,Serial_Dependence_U,2023.2.3,Win32,60.60606060606061,,,,,,739.8146999998094,204.0,1.0,739.815,204.0,,,,743.7471999998093,744.2464000000955,743.2451999998093,743.7470999999048,740.8129000000954,743.2451999998093,744.2464000000955,744.7450999999046,744.7450999999046,746.8783000001908,1578.0,746.8784000000953,4.0,746.8786999998092,1.0,2.0,32.0,18.0,1.0,1.4,0.7,Time
,,S23,1,女,22,anonymized,Serial_Dependence_U,2023.2.3,Win32,60.60606060606061,,,,,,746.8788000001907,23.0,1.0,746.8790000000001,23.0,,,,750.6439000000953,751.1464000000954,750.1291999998093,750.6438000001908,747.8950999999047,750.1290999999046,751.1464000000954,751.6436999998093,751.6438000001908,753.3616999998094,799.0,753.3618000001907,1.0,753.3623000001908,1.0,3.0,33.0,17.0,1.0,1.2,0.7,Time
,,S23,1,女,22,anonymized,Serial_Dependence_U,2023.2.3,Win32,60.60606060606061,,,,,,753.3626999998094,0.0,1.0,753.3629000000954,0.0,,,,756.9265999999047,757.4263000001908,756.4095999999047,756.9265,754.3775,756.4095999999047,757.4264000000953,757.9301999998092,757.9309000000953,759.7425999999048,1085.0,759.7426999998092,4.0,759.7429000000955,1.0,4.0,34.0,16.0,1.0,1.0,0.7,Time
,,S23,1,女,22,anonymized,Serial_Dependence_U,2023.2.3,Win32,60.60606060606061,,,,,,759.7433000001909,282.0,1.0,759.7435,282.0,,,,763.9254000000954,764.4301999998092,763.4085,763.9253000001909,760.7605999999046,763.4084000000953,764.4301999998092,764.9255999999048,764.9255999999048,766.4913000001907,993.0,766.4915000000001,1.0,766.4916999998093,1.0,5.0,35.0,19.0,1.0,1.6,0.7,Time
,,S23,1,女,22,anonymized,Serial_Dependence_U,2023.2.3,Win32,60.60606060606061,,,,,,766.4923000001909,238.0,1.0,766.4925000000001,238.0,,,,770.0574000000954,770.5574000000954,769.5413000001909,770.0573000001907,767.5091999998092,769.5411999998094,770.5575000000001,771.0566999998093,771.0568000001908,772.7573000001908,1137.0,772.7574000000955,4.0,772.7578000001909,1.0,6.0,36.0,26.0,1.0,1.0,0.7,Time
,,S23,1,女,22,anonymized,Serial_Dependence_U,2023.2.3,Win32,60.60606060606061,,,,,,772.7580999999047,290.0,1.0,772.7581999998092,290.0,,,,776.9061999998094,777.4064000000953,776.3905999999047,776.906,773.7578000001909,776.3905,777.4064000000953,777.9065,777.9066999998092,778.973,1049.0,778.973,1.0,778.9735000000001,1.0,7.0,37.0,29.0,1.0,1.6,0.7,Time
,,S23,1,女,22,anonymized,Serial_Dependence_U,2023.2.3,Win32,60.60606060606061,,,,,,778.9739999999999,204.0,1.0,778.9740999999046,204.0,,,,783.155,783.6548000001908,782.6390000000001,783.155,779.9725000000001,782.6389000000954,783.6549000000955,784.1548000001908,784.1549000000955,785.3041999998093,944.0,785.3043000001908,1.0,785.3045999999047,1.0,8.0,38.0,24.0,1.0,1.6,0.3,Time
,,S23,1,女,22,anonymized,Serial_Dependence_U,2023.2.3,Win32,60.60606060606061,,,,,,785.3049000000954,253.0,1.0,785.3051999998092,253.0,,,,788.9046999998093,789.4035000000001,788.3966999998092,788.9045000000001,786.3215999999047,788.3965000000001,789.4035000000001,789.904,789.904,791.2213000001907,1295.0,791.2218000001908,4.0,791.2225999999046,1.0,9.0,39.0,11.0,1.0,1.0,0.3,Time
,,S23,1,女,22,anonymized,Serial_Dependence_U,2023.2.3,Win32,60.60606060606061,,,,,,791.2230999999047,244.0,1.0,791.2234000000954,244.0,,,,795.2196999998093,795.7194000000954,794.7050999999046,795.2195999999046,792.2368000001907,794.7049999999999,795.7194999999999,796.2194000000954,796.2194000000954,796.8530000000001,183.0,796.8530999999048,1.0,796.8533000001908,1.0,10.0,40.0,13.0,1.0,1.4,0.3,Time
,,S23,1,女,22,anonymized,Serial_Dependence_U,2023.2.3,Win32,60.60606060606061,,,,,,796.8535999999046,309.0,1.0,796.8536999998094,309.0,,,,800.4349000000955,800.9355999999048,799.9219000000953,800.4349000000955,797.8530999999048,799.9218000001908,800.9355999999048,801.4349000000955,801.4349000000955,802.9349000000955,1183.0,802.9349000000955,4.0,802.9351999998094,1.0,11.0,41.0,1.0,1.0,1.0,0.3,Time
,,S23,1,女,22,anonymized,Serial_Dependence_U,2023.2.3,Win32,60.60606060606061,,,,,,802.9355,176.0,1.0,802.9355,176.0,,,,806.3185999999046,806.8183000001907,805.8180999999047,806.3185999999046,803.9536999998093,805.818,806.8183000001907,807.3174000000954,807.3174000000954,808.6666999998092,849.0,808.6668000001907,4.0,808.6669000000954,1.0,12.0,42.0,0.0,1.0,0.8,0.3,Time
,,S23,1,女,22,anonymized,Serial_Dependence_U,2023.2.3,Win32,60.60606060606061,,,,,,808.6671999998093,112.0,1.0,808.6674000000953,112.0,,,,812.4333000001907,812.933,811.9180999999046,812.4331999998094,809.6836999998093,811.9180000000001,812.933,813.4328000001908,813.4329000000953,814.5830000000001,716.0,814.5830000000001,1.0,814.5834000000955,1.0,13.0,43.0,7.0,1.0,1.2,0.7,Time
,,S23,1,女,22,anonymized,Serial_Dependence_U,2023.2.3,Win32,60.60606060606061,,,,,,814.5836999998094,6.0,1.0,814.5839000000954,6.0,,,,817.9505999999046,818.4495,817.4325999999046,817.9504999999999,815.5994000000953,817.4325000000001,818.4495999999046,818.9486999998094,818.9486999998094,820.4315999999046,699.0,820.4315999999046,2.0,820.4318000001908,1.0,14.0,44.0,5.0,1.0,0.8,0.7,Time
,,S23,1,女,22,anonymized,Serial_Dependence_U,2023.2.3,Win32,60.60606060606061,,,,,,820.4320999999047,123.0,1.0,820.4323000001907,123.0,,,,824.4005999999047,824.8979000000954,823.8895999999047,824.4005,821.4490000000001,823.8895,824.8979000000954,825.3991999998093,825.3991999998093,827.1635000000001,1142.0,827.1635999999046,2.0,827.1639000000955,1.0,15.0,45.0,28.0,1.0,1.4,0.7,Time
,,S23,1,女,22,anonymized,Serial_Dependence_U,2023.2.3,Win32,60.60606060606061,,,,,,827.1641999998094,67.0,1.0,827.1644000000954,67.0,,,,830.9483000001908,831.4476999998094,830.4470000000001,830.9483000001908,828.1804999999999,830.4469000000954,831.4478000001907,831.9473000001908,831.9473000001908,833.1460999999047,643.0,833.1460999999047,1.0,833.1468000001908,1.0,16.0,46.0,12.0,1.0,1.2,0.3,Time
,,S23,1,女,22,anonymized,Serial_Dependence_U,2023.2.3,Win32,60.60606060606061,,,,,,833.1471999998093,6.0,1.0,833.1473000001909,6.0,,,,837.3120999999046,837.8118000001907,836.7964000000954,837.3120000000001,834.1625999999046,836.7963000001907,837.8118000001907,838.3115,838.3115,840.4446999998092,1420.0,840.4448000001908,2.0,840.4449999999999,1.0,17.0,47.0,9.0,1.0,1.6,0.7,Time
,,S23,1,女,22,anonymized,Serial_Dependence_U,2023.2.3,Win32,60.60606060606061,,,,,,840.4454000000953,308.0,1.0,840.4455999999047,308.0,,,,844.6273000001909,845.1295,844.1115,844.6271999998094,841.4455,844.1114000000955,845.1295,845.6271999998094,845.6273000001909,847.0101999998094,779.0,847.0101999998094,1.0,847.0104000000954,1.0,18.0,48.0,4.0,1.0,1.6,0.3,Time
,,S23,1,女,22,anonymized,Serial_Dependence_U,2023.2.3,Win32,60.60606060606061,,,,,,847.0108000001908,268.0,1.0,847.011,268.0,,,,850.3613000001908,850.8595,849.8596999998092,850.3611999998093,848.027,849.8595999999047,850.8595,851.3591999998093,851.3593000001908,852.4258000001907,713.0,852.4259000000955,2.0,852.4260999999046,1.0,19.0,49.0,25.0,1.0,0.8,0.7,Time
,,S23,1,女,22,anonymized,Serial_Dependence_U,2023.2.3,Win32,60.60606060606061,,,,,,852.4265,314.0,1.0,852.4265,314.0,,,,856.2090999999048,856.7086999998094,855.6936999998093,856.2090000000001,853.4269000000954,855.6935999999046,856.7089000000954,857.2084000000955,857.2084000000955,858.2415000000001,526.0,858.2415999999046,1.0,858.2418000001908,1.0,20.0,50.0,2.0,1.0,1.2,0.3,Time
,,S23,1,女,22,anonymized,Serial_Dependence_U,2023.2.3,Win32,60.60606060606061,,,,,,858.2420999999047,4.0,1.0,858.2421999998094,4.0,,,,862.0414000000953,862.5414000000953,861.5269000000953,862.0414000000953,859.2585999999046,861.5266999998094,862.5415,863.0416999998092,863.0416999998092,864.0240000000001,950.0,864.0240000000001,2.0,864.0243000001908,1.0,21.0,51.0,22.0,1.0,1.2,0.3,Time
,,S23,1,女,22,anonymized,Serial_Dependence_U,2023.2.3,Win32,60.60606060606061,,,,,,864.0245999999047,144.0,1.0,864.0246999998094,144.0,,,,868.0235999999047,868.5231999998093,867.5073000001908,868.0235,865.0406999998092,867.5071999998092,868.5233000001908,869.0230000000001,869.0230000000001,870.2593000001907,747.0,870.2594000000954,1.0,870.2596999998093,1.0,22.0,52.0,3.0,1.0,1.4,0.3,Time
,,S23,1,女,22,anonymized,Serial_Dependence_U,2023.2.3,Win32,60.60606060606061,,,,,,870.2600999999047,358.0,1.0,870.2603000001907,358.0,,,,873.8228000001907,874.3219000000954,873.3080999999047,873.8226999998094,871.2739000000954,873.3078000001908,874.3219000000954,874.8238000001907,874.8239000000954,876.4553000001908,1157.0,876.4555,4.0,876.4556999998092,1.0,23.0,53.0,6.0,1.0,1.0,0.7,Time
,,S23,1,女,22,anonymized,Serial_Dependence_U,2023.2.3,Win32,60.60606060606061,,,,,,876.4560999999046,228.0,1.0,876.4564000000953,228.0,,,,879.806,880.3039000000954,879.3041999998093,879.8059000000953,877.472,879.3040999999046,880.3039000000954,880.8045,880.8045,881.6880999999046,833.0,881.6880999999046,3.0,881.6885999999047,1.0,24.0,54.0,15.0,1.0,0.8,0.7,Time
,,S23,1,女,22,anonymized,Serial_Dependence_U,2023.2.3,Win32,60.60606060606061,,,,,,881.6891999998093,22.0,1.0,881.6895,22.0,,,,885.4544000000953,885.9533000001907,884.9375,885.4543000001909,882.7040999999047,884.9374000000953,885.9533000001907,886.4531999998094,886.4531999998094,887.7196999998093,970.0,887.7196999998093,2.0,887.7199000000953,1.0,25.0,55.0,27.0,1.0,1.2,0.7,Time
,,S23,1,女,22,anonymized,Serial_Dependence_U,2023.2.3,Win32,60.60606060606061,,,,,,887.7200999999047,271.0,1.0,887.7201999998092,271.0,,,,891.0875999999046,891.5855999999046,890.5860999999047,891.0875000000001,888.7200999999047,890.586,891.5855999999046,892.0858000001908,892.0858000001908,893.6015999999047,774.0,893.6015999999047,3.0,893.6018000001907,1.0,26.0,56.0,20.0,1.0,0.8,0.3,Time
,,S23,1,女,22,anonymized,Serial_Dependence_U,2023.2.3,Win32,60.60606060606061,,,,,,893.6021999998093,260.0,1.0,893.6024000000955,260.0,,,,897.5516999998092,898.0514000000953,897.0350999999046,897.5515999999047,894.6025999999047,897.0350000000001,898.0514000000953,898.5509000000955,898.5509999999999,899.6525000000001,616.0,899.6525999999046,1.0,899.6529000000953,1.0,27.0,57.0,8.0,1.0,1.4,0.7,Time
,,S23,1,女,22,anonymized,Serial_Dependence_U,2023.2.3,Win32,60.60606060606061,,,,,,899.653,156.0,1.0,899.6530999999047,156.0,,,,903.8359000000952,904.3335,903.3336999998094,903.8358000001908,900.6678000001907,903.3336999998094,904.3335,904.8330999999046,904.8330999999046,906.8665,1467.0,906.8665999999046,2.0,906.8671999998094,1.0,28.0,58.0,14.0,1.0,1.6,0.3,Time
,,S23,1,女,22,anonymized,Serial_Dependence_U,2023.2.3,Win32,60.60606060606061,,,,,,906.8675999999048,32.0,1.0,906.8679000000956,32.0,,,,910.2498000001908,910.7488000001908,909.7334000000952,910.2496999998092,907.8676999998092,909.7333000001908,910.7489000000952,911.2489000000952,911.2489000000952,912.8816999998094,898.0,912.8818000001908,4.0,912.8820999999048,1.0,29.0,59.0,10.0,1.0,0.8,0.3,Time
,,S23,1,女,22,anonymized,Serial_Dependence_U,2023.2.3,Win32,60.60606060606061,,,,,,912.8824000000956,217.0,2.0,930.7473000001908,217.0,s,17.84789999961845,,934.3451999998092,934.8465,933.8285,934.3450999999048,931.7630999999046,933.8283000001908,934.8465,935.3440999999048,935.3440999999048,936.6106999998092,752.0,936.6106999998092,2.0,936.611,2.0,0.0,60.0,11.0,1.0,1.0,0.3,Time
,,S23,1,女,22,anonymized,Serial_Dependence_U,2023.2.3,Win32,60.60606060606061,,,,,,936.6113000001908,287.0,2.0,936.6125,287.0,,,,940.7616999998093,941.2625,940.244,940.7615,937.6124000000956,940.2439000000954,941.2625999999048,941.7596999998092,941.7596999998092,943.4764000000956,1239.0,943.4765999999048,2.0,943.4768000001908,2.0,1.0,61.0,9.0,1.0,1.6,0.7,Time
,,S23,1,女,22,anonymized,Serial_Dependence_U,2023.2.3,Win32,60.60606060606061,,,,,,943.4771999998092,10.0,2.0,943.4774000000956,10.0,,,,947.0421999998092,947.5424000000952,946.5291999998094,947.0421999998092,944.4934000000952,946.5290999999048,947.5425,948.0420999999046,948.0420999999046,949.3255,786.0,949.3255999999046,2.0,949.3258000001908,2.0,2.0,62.0,6.0,1.0,1.0,0.7,Time
,,S23,1,女,22,anonymized,Serial_Dependence_U,2023.2.3,Win32,60.60606060606061,,,,,,949.3261999998092,167.0,2.0,949.3263000001908,167.0,,,,953.3249000000952,953.8244000000956,952.8085,953.3248000001907,950.3431999998091,952.8084000000954,953.8244000000956,954.3244000000956,954.3244000000956,956.3595,1242.0,956.3595999999048,2.0,956.36,2.0,3.0,63.0,3.0,1.0,1.4,0.3,Time
,,S23,1,女,22,anonymized,Serial_Dependence_U,2023.2.3,Win32,60.60606060606061,,,,,,956.3605999999048,24.0,2.0,956.361,24.0,,,,960.1595,960.6579000000954,959.6415999999048,960.1593000001908,957.3739000000952,959.6414000000956,960.6579000000954,961.1566999998092,961.1566999998092,962.5568000001908,782.0,962.5569000000952,1.0,962.5573000001908,2.0,4.0,64.0,12.0,1.0,1.2,0.3,Time
,,S23,1,女,22,anonymized,Serial_Dependence_U,2023.2.3,Win32,60.60606060606061,,,,,,962.5576999998092,323.0,2.0,962.558,323.0,,,,966.1228000001908,966.6238000001908,965.6061999998094,966.1225999999048,963.5733000001908,965.6060999999048,966.6238000001908,967.1224000000956,967.1224000000956,968.4385999999048,785.0,968.4385999999048,2.0,968.4389000000954,2.0,5.0,65.0,26.0,1.0,1.0,0.7,Time
,,S23,1,女,22,anonymized,Serial_Dependence_U,2023.2.3,Win32,60.60606060606061,,,,,,968.4391999998091,307.0,2.0,968.4393000001908,307.0,,,,971.8380999999048,972.3380000000002,971.3215,971.8380000000002,969.4558000001908,971.3214000000957,972.3380999999048,972.8385999999048,972.8385999999048,974.1714000000954,856.0,974.1715000000002,4.0,974.1716999998092,2.0,6.0,66.0,10.0,1.0,0.8,0.3,Time
,,S23,1,女,22,anonymized,Serial_Dependence_U,2023.2.3,Win32,60.60606060606061,,,,,,974.172,172.0,2.0,974.1723000001908,172.0,,,,978.3704999999998,978.8701999998092,977.8544000000952,978.3704000000952,975.1875999999048,977.8543000001904,978.8701999998092,979.3719999999998,979.3719999999998,981.6035,1758.0,981.6035999999044,4.0,981.6039999999998,2.0,7.0,67.0,14.0,1.0,1.6,0.3,Time
,,S23,1,女,22,anonymized,Serial_Dependence_U,2023.2.3,Win32,60.60606060606061,,,,,,981.6044000000952,171.0,2.0,981.6046999998092,171.0,,,,985.2024000000952,985.7028000001906,984.6866999998092,985.2023000001908,982.6199000000952,984.6864000000952,985.7028000001906,986.2019999999998,986.2020999999044,988.6018000001908,1966.0,988.6018000001908,5.0,988.6019000000952,2.0,8.0,68.0,1.0,1.0,1.0,0.3,Time
,,S23,1,女,22,anonymized,Serial_Dependence_U,2023.2.3,Win32,60.60606060606061,,,,,,988.6023000001906,267.0,2.0,988.6025,267.0,,,,992.5698000001904,993.0690999999044,992.0681999998092,992.569699999809,989.6025,992.0681999998092,993.0690999999044,993.5674000000952,993.5674000000952,995.617699999809,1419.0,995.617699999809,3.0,995.6180999999044,2.0,9.0,69.0,23.0,1.0,1.4,0.3,Time
,,S23,1,女,22,anonymized,Serial_Dependence_U,2023.2.3,Win32,60.60606060606061,,,,,,995.6183000001906,258.0,2.0,995.6185999999044,258.0,,,,999.583,1000.0828000001908,999.0679999999998,999.5829000000952,996.6340999999044,999.0678000001906,1000.0828000001908,1000.5830999999046,1000.5830999999046,1001.9994000000952,868.0,1001.9995,1.0,1001.9995999999046,2.0,10.0,70.0,8.0,1.0,1.4,0.7,Time
,,S23,1,女,22,anonymized,Serial_Dependence_U,2023.2.3,Win32,60.60606060606061,,,,,,1001.9999000000952,15.0,2.0,1001.9999999999998,15.0,,,,1005.3841999998092,1005.8833000001904,1004.8835,1005.3840999999044,1003.0168000001906,1004.8834000000952,1005.8833000001904,1006.3833000001904,1006.3834000000952,1009.0509000000952,899.0,1009.0510999999044,4.0,1009.052,2.0,11.0,71.0,20.0,1.0,0.8,0.3,Time
,,S23,1,女,22,anonymized,Serial_Dependence_U,2023.2.3,Win32,60.60606060606061,,,,,,1009.0529000000952,70.0,2.0,1009.0533000001906,70.0,,,,1012.4169000000952,1012.9155999999044,1011.8989000000952,1012.4168000001904,1010.0650999999044,1011.8985999999044,1012.9155999999044,1013.4173000001906,1013.4173000001906,1014.7163000001906,684.0,1014.7164000000952,2.0,1014.717199999809,2.0,12.0,72.0,15.0,1.0,0.8,0.7,Time
,,S23,1,女,22,anonymized,Serial_Dependence_U,2023.2.3,Win32,60.60606060606061,,,,,,1014.718199999809,190.0,2.0,1014.7190999999044,190.0,,,,1018.698199999809,1019.1976999998092,1018.1970999999046,1018.698,1015.7300999999044,1018.197,1019.1978000001908,1019.6966999998092,1019.6966999998092,1020.8145999999044,645.0,1020.8149000000952,1.0,1020.8159999999998,2.0,13.0,73.0,13.0,1.0,1.4,0.3,Time
,,S23,1,女,22,anonymized,Serial_Dependence_U,2023.2.3,Win32,60.60606060606061,,,,,,1020.8166999998092,103.0,2.0,1020.8174000000952,103.0,,,,1024.1795999999044,1024.6806999998091,1023.6645,1024.1795,1021.8313000001906,1023.6641999998092,1024.6808000001906,1025.1785999999045,1025.1786999998092,1026.1293000001906,563.0,1026.1294000000953,2.0,1026.1304000000953,2.0,14.0,74.0,25.0,1.0,0.8,0.7,Time
,,S23,1,女,22,anonymized,Serial_Dependence_U,2023.2.3,Win32,60.60606060606061,,,,,,1026.1318000001909,124.0,2.0,1026.1326999998091,124.0,,,,1030.0949999999998,1030.5940999999043,1029.5789000000952,1030.094900000095,1027.1458000001903,1029.5788000001903,1030.5941999998092,1031.0945,1031.0945999999044,1032.9991999998092,1502.0,1032.9994000000952,4.0,1033.0005,2.0,15.0,75.0,28.0,1.0,1.4,0.7,Time
,,S23,1,女,22,anonymized,Serial_Dependence_U,2023.2.3,Win32,60.60606060606061,,,,,,1033.002,167.0,2.0,1033.0023000001906,167.0,,,,1036.7965,1037.2926999998092,1036.2814999999998,1036.7964000000952,1034.0109000000953,1036.2813000001906,1037.2926999998092,1037.7934000000953,1037.7935999999045,1040.6931999998092,2211.0,1040.6931999998092,5.0,1040.6934000000952,2.0,16.0,76.0,2.0,1.0,1.2,0.3,Time
,,S23,1,女,22,anonymized,Serial_Dependence_U,2023.2.3,Win32,60.60606060606061,,,,,,1040.693699999809,158.0,2.0,1040.6939000000953,158.0,,,,1044.292,1044.792199999809,1043.7765999999044,1044.2919000000952,1041.7098000001906,1043.7764000000952,1044.792199999809,1045.291400000095,1045.291400000095,1046.2420999999044,526.0,1046.2420999999044,1.0,1046.2424999999998,2.0,17.0,77.0,21.0,1.0,1.0,0.3,Time
,,S23,1,女,22,anonymized,Serial_Dependence_U,2023.2.3,Win32,60.60606060606061,,,,,,1046.2429000000952,205.0,2.0,1046.2430999999044,205.0,,,,1049.9909999999998,1050.491300000191,1049.4748000001905,1049.9909999999998,1047.2430999999044,1049.4746999998092,1050.491300000191,1050.990699999809,1050.990699999809,1054.0068000001909,2264.0,1054.0068000001909,5.0,1054.0070999999043,2.0,18.0,78.0,27.0,1.0,1.2,0.7,Time
,,S23,1,女,22,anonymized,Serial_Dependence_U,2023.2.3,Win32,60.60606060606061,,,,,,1054.0074000000952,209.0,2.0,1054.0075,209.0,,,,1057.777699999809,1058.2723000001906,1057.2568000001909,1057.7774000000952,1055.0245999999045,1057.2566999998091,1058.272400000095,1058.7734000000953,1058.7734999999998,1060.2295,818.0,1060.2298000001906,1.0,1060.2305999999046,2.0,19.0,79.0,7.0,1.0,1.2,0.7,Time
,,S23,1,女,22,anonymized,Serial_Dependence_U,2023.2.3,Win32,60.60606060606061,,,,,,1060.2315999999046,95.0,2.0,1060.2318000001906,95.0,,,,1064.4061999998091,1064.9058000001903,1063.8940999999045,1064.4060999999044,1061.2231999998091,1063.893699999809,1064.9059000000952,1065.4060999999044,1065.4060999999044,1068.5380999999045,2535.0,1068.5381999998092,5.0,1068.5385,2.0,20.0,80.0,4.0,1.0,1.6,0.3,Time
,,S23,1,女,22,anonymized,Serial_Dependence_U,2023.2.3,Win32,60.60606060606061,,,,,,1068.5388000001906,88.0,2.0,1068.5389999999998,88.0,,,,1072.0868000001906,1072.5874000000952,1071.5709000000952,1072.0868000001906,1069.5390999999045,1071.5709000000952,1072.5874000000952,1073.0878000001906,1073.0879000000953,1075.2724999999998,1635.0,1075.2725999999043,5.0,1075.2733000001906,2.0,21.0,81.0,16.0,1.0,1.0,0.7,Time
,,S23,1,女,22,anonymized,Serial_Dependence_U,2023.2.3,Win32,60.60606060606061,,,,,,1075.2745999999045,312.0,2.0,1075.2754000000953,312.0,,,,1079.2193000001903,1079.7194000000952,1078.703300000191,1079.2191999998092,1076.2723000001906,1078.7031999998092,1079.7194000000952,1080.2190999999043,1080.2193000001903,1083.635300000191,2846.0,1083.6354000000952,5.0,1083.6355999999046,2.0,22.0,82.0,18.0,1.0,1.4,0.7,Time
,,S23,1,女,22,anonymized,Serial_Dependence_U,2023.2.3,Win32,60.60606060606061,,,,,,1083.6359000000953,191.0,2.0,1083.636,191.0,,,,1087.7855999999044,1088.2844000000953,1087.2705,1087.7855,1084.636699999809,1087.2704000000952,1088.2844999999998,1088.7844999999998,1088.7844999999998,1089.8504999999998,649.0,1089.8505999999045,1.0,1089.8508000001907,2.0,23.0,83.0,29.0,1.0,1.6,0.7,Time
,,S23,1,女,22,anonymized,Serial_Dependence_U,2023.2.3,Win32,60.60606060606061,,,,,,1089.8510999999046,206.0,2.0,1089.851199999809,206.0,,,,1093.2500999999045,1093.7500999999045,1092.7358000001907,1093.2499000000953,1090.8675999999043,1092.7353000001906,1093.7500999999045,1094.249699999809,1094.2498000001906,1095.418800000191,712.0,1095.418800000191,2.0,1095.419,2.0,24.0,84.0,0.0,1.0,0.8,0.3,Time
,,S23,1,女,22,anonymized,Serial_Dependence_U,2023.2.3,Win32,60.60606060606061,,,,,,1095.419199999809,284.0,2.0,1095.4193000001906,284.0,,,,1098.7834999999998,1099.2820999999044,1098.2669999999998,1098.7833000001906,1096.4203000001903,1098.2668000001906,1099.2820999999044,1099.7820999999044,1099.782199999809,1100.965199999809,619.0,1100.9653000001906,2.0,1100.9654999999998,2.0,25.0,85.0,5.0,1.0,0.8,0.7,Time
,,S23,1,女,22,anonymized,Serial_Dependence_U,2023.2.3,Win32,60.60606060606061,,,,,,1100.9659000000952,137.0,2.0,1100.9659000000952,137.0,,,,1105.114699999809,1105.6148000001906,1104.5985999999043,1105.1145999999044,1101.9663000001906,1104.5984999999998,1105.6148000001906,1106.1144000000952,1106.1144000000952,1107.814199999809,1085.0,1107.814199999809,1.0,1107.8144000000952,2.0,26.0,86.0,19.0,1.0,1.6,0.7,Time
,,S23,1,女,22,anonymized,Serial_Dependence_U,2023.2.3,Win32,60.60606060606061,,,,,,1107.8146999998091,225.0,2.0,1107.8148000001906,225.0,,,,1112.0136999998092,1112.5155,1111.4969000000951,1112.013400000095,1108.8309000000952,1111.496800000191,1112.5155999999045,1113.013,1113.0130999999044,1114.7184000000952,1206.0,1114.7185,2.0,1114.7198000001906,2.0,27.0,87.0,24.0,1.0,1.6,0.3,Time
,,S23,1,女,22,anonymized,Serial_Dependence_U,2023.2.3,Win32,60.60606060606061,,,,,,1114.7204000000952,244.0,2.0,1114.720699999809,244.0,,,,1118.513400000095,1119.0120999999044,1117.9966999998092,1118.5133000001906,1115.7298000001906,1117.9965999999044,1119.0120999999044,1119.511699999809,1119.511699999809,1121.8620999999046,1896.0,1121.8620999999046,5.0,1121.8624000000952,2.0,28.0,88.0,22.0,1.0,1.2,0.3,Time
,,S23,1,女,22,anonymized,Serial_Dependence_U,2023.2.3,Win32,60.60606060606061,,,,,,1121.8626999998091,254.0,2.0,1121.8628000001906,254.0,,,,1125.5960999999045,1126.0941999998092,1125.094699999809,1125.5959000000953,1122.862199999809,1125.0945999999044,1126.0941999998092,1126.5936999998091,1126.5936999998091,1129.6793000001906,2450.0,1129.6794000000953,5.0,1129.6798000001909,2.0,29.0,89.0,17.0,1.0,1.2,0.7,Time
,,S23,1,女,22,anonymized,Serial_Dependence_U,2023.2.3,Win32,60.60606060606061,,,,,,1129.680199999809,161.0,3.0,1131.7621999998091,161.0,s,2.065299999713943,,1135.5594000000951,1136.0590999999044,1135.0440999999046,1135.559300000191,1132.7774000000952,1135.0440999999046,1136.0591999998092,1136.558699999809,1136.558699999809,1139.2249000000952,1855.0,1139.2250999999044,5.0,1139.225199999809,3.0,0.0,90.0,2.0,1.0,1.2,0.3,Time
,,S23,1,女,22,anonymized,Serial_Dependence_U,2023.2.3,Win32,60.60606060606061,,,,,,1139.2254999999998,318.0,3.0,1139.2270999999046,318.0,,,,1143.1919000000953,1143.6920999999045,1142.6754999999998,1143.1918000001906,1140.2429000000952,1142.6754000000951,1143.6921999998092,1144.1909999999998,1144.1909999999998,1146.4415999999044,1646.0,1146.441699999809,4.0,1146.4419000000953,3.0,1.0,91.0,8.0,1.0,1.4,0.7,Time
,,S23,1,女,22,anonymized,Serial_Dependence_U,2023.2.3,Win32,60.60606060606061,,,,,,1146.4423000001907,55.0,3.0,1146.4423000001907,55.0,,,,1149.8069999999998,1150.3061999998092,1149.2901999998091,1149.8069999999998,1147.4574999999998,1149.2900999999044,1150.3061999998092,1150.8064000000952,1150.8065999999044,1152.406,1126.0,1152.4060999999044,5.0,1152.4064999999998,3.0,2.0,92.0,15.0,1.0,0.8,0.7,Time
,,S23,1,女,22,anonymized,Serial_Dependence_U,2023.2.3,Win32,60.60606060606061,,,,,,1152.407,111.0,3.0,1152.407199999809,111.0,,,,1156.5401999998091,1157.0389000000953,1156.0391999998092,1156.5400999999044,1153.4084000000953,1156.0390999999045,1157.0389999999998,1157.5390999999045,1157.5391999998092,1160.7715999999043,2670.0,1160.7715999999043,5.0,1160.772,3.0,3.0,93.0,9.0,1.0,1.6,0.7,Time
,,S23,1,女,22,anonymized,Serial_Dependence_U,2023.2.3,Win32,60.60606060606061,,,,,,1160.772400000095,84.0,3.0,1160.7725999999043,84.0,,,,1164.3385999999043,1164.8370999999045,1163.8215999999045,1164.3384999999998,1161.787699999809,1163.8214000000953,1164.8370999999045,1165.3370999999045,1165.3371999998092,1167.9703000001905,2048.0,1167.9703000001905,5.0,1167.9705,3.0,4.0,94.0,6.0,1.0,1.0,0.7,Time
,,S23,1,女,22,anonymized,Serial_Dependence_U,2023.2.3,Win32,60.60606060606061,,,,,,1167.9708000001906,345.0,3.0,1167.9709000000953,345.0,,,,1171.3381999998091,1171.8369000000953,1170.82,1171.3380999999044,1168.9866999998092,1170.8199000000952,1171.8369000000953,1172.3379000000953,1172.338,1174.1025,1182.0,1174.1025999999044,5.0,1174.1030999999043,3.0,5.0,95.0,25.0,1.0,0.8,0.7,Time
,,S23,1,女,22,anonymized,Serial_Dependence_U,2023.2.3,Win32,60.60606060606061,,,,,,1174.1035999999044,291.0,3.0,1174.1038000001906,291.0,,,,1178.0688000001903,1178.5681999998092,1177.5524999999998,1178.068699999809,1175.1194999999998,1177.5523000001906,1178.5681999998092,1179.0681999998092,1179.068300000191,1181.5359999999998,2014.0,1181.5360999999043,5.0,1181.5365999999044,3.0,6.0,96.0,28.0,1.0,1.4,0.7,Time
,,S23,1,女,22,anonymized,Serial_Dependence_U,2023.2.3,Win32,60.60606060606061,,,,,,1181.5371999998092,3.0,3.0,1181.5375,3.0,,,,1185.5340999999046,1186.0334999999998,1185.0175,1185.534,1182.553,1185.0174000000952,1186.0334999999998,1186.5344000000953,1186.5344000000953,1188.399800000191,1451.0,1188.3999000000952,3.0,1188.400199999809,3.0,7.0,97.0,3.0,1.0,1.4,0.3,Time
,,S23,1,女,22,anonymized,Serial_Dependence_U,2023.2.3,Win32,60.60606060606061,,,,,,1188.4006999998091,330.0,3.0,1188.4009000000951,330.0,,,,1191.7514000000951,1192.2499999999998,1191.2504000000952,1191.751300000191,1189.417,1191.2503000001907,1192.2499999999998,1192.748699999809,1192.748699999809,1193.9819000000953,803.0,1193.9819000000953,3.0,1193.9820999999044,3.0,8.0,98.0,5.0,1.0,0.8,0.7,Time
,,S23,1,女,22,anonymized,Serial_Dependence_U,2023.2.3,Win32,60.60606060606061,,,,,,1193.9824000000951,219.0,3.0,1193.9825999999046,219.0,,,,1198.1820999999045,1198.6808000001906,1197.6670999999044,1198.1819000000953,1194.9985999999044,1197.6669000000952,1198.6808000001906,1199.1806999998091,1199.1806999998091,1200.8308000001905,1297.0,1200.8308000001905,2.0,1200.8313000001906,3.0,9.0,99.0,4.0,1.0,1.6,0.3,Time
,,S23,1,女,22,anonymized,Serial_Dependence_U,2023.2.3,Win32,60.60606060606061,,,,,,1200.8316999998092,113.0,3.0,1200.8319000000952,113.0,,,,1204.3805999999045,1204.8800999999046,1203.8645,1204.3804000000953,1201.831199999809,1203.8644000000952,1204.880199999809,1205.3796999998092,1205.3798000001907,1207.2961999998092,1417.0,1207.2961999998092,5.0,1207.2965999999044,3.0,10.0,100.0,16.0,1.0,1.0,0.7,Time
,,S23,1,女,22,anonymized,Serial_Dependence_U,2023.2.3,Win32,60.60606060606061,,,,,,1207.2973000001905,292.0,3.0,1207.2975999999046,292.0,,,,1211.2793000001907,1211.7800999999045,1210.7624999999998,1211.2791999998092,1208.2960999999043,1210.762400000095,1211.7800999999045,1212.281,1212.281,1213.4663000001906,573.0,1213.4665999999045,1.0,1213.4690999999043,3.0,11.0,101.0,13.0,1.0,1.4,0.3,Time
,,S23,1,女,22,anonymized,Serial_Dependence_U,2023.2.3,Win32,60.60606060606061,,,,,,1213.469900000095,161.0,3.0,1213.4701999998092,161.0,,,,1217.2279999999998,1217.7275999999044,1216.711699999809,1217.2279999999998,1214.4789999999998,1216.7115999999046,1217.7275999999044,1218.2275999999044,1218.2275999999044,1219.678,928.0,1219.6780999999046,2.0,1219.6784999999998,3.0,12.0,102.0,17.0,1.0,1.2,0.7,Time
,,S23,1,女,22,anonymized,Serial_Dependence_U,2023.2.3,Win32,60.60606060606061,,,,,,1219.6789000000952,236.0,3.0,1219.6794000000953,236.0,,,,1223.6600999999046,1224.1600999999046,1223.1443000001907,1223.6599000000951,1220.6785999999045,1223.1441999998092,1224.1600999999046,1224.659800000191,1224.659800000191,1226.0439000000952,950.0,1226.0443000001906,1.0,1226.0465,3.0,13.0,103.0,23.0,1.0,1.4,0.3,Time
,,S23,1,女,22,anonymized,Serial_Dependence_U,2023.2.3,Win32,60.60606060606061,,,,,,1226.0478000001906,148.0,3.0,1226.0481999998092,148.0,,,,1230.2094000000952,1230.7088000001906,1229.6928000001906,1230.2093000001903,1227.0613000001906,1229.692699999809,1230.7088000001906,1231.2085999999044,1231.2085999999044,1232.6086999998092,1050.0,1232.6088000001905,1.0,1232.609,3.0,14.0,104.0,19.0,1.0,1.6,0.7,Time
,,S23,1,女,22,anonymized,Serial_Dependence_U,2023.2.3,Win32,60.60606060606061,,,,,,1232.6093000001906,80.0,3.0,1232.609400000095,80.0,,,,1236.1610999999043,1236.6576999998092,1235.6414000000952,1236.1610999999043,1233.6085999999043,1235.6414000000952,1236.6578000001905,1237.1578000001905,1237.1578000001905,1238.707199999809,864.0,1238.707199999809,2.0,1238.7074000000953,3.0,15.0,105.0,26.0,1.0,1.0,0.7,Time
,,S23,1,女,22,anonymized,Serial_Dependence_U,2023.2.3,Win32,60.60606060606061,,,,,,1238.7076999998092,243.0,3.0,1238.7079000000952,243.0,,,,1242.5073000001903,1243.0065,1241.9903000001907,1242.507199999809,1239.724,1241.9901999998092,1243.0065,1243.507199999809,1243.5073000001903,1244.6566999998092,783.0,1244.6566999998092,1.0,1244.6569000000952,3.0,16.0,106.0,22.0,1.0,1.2,0.3,Time
,,S23,1,女,22,anonymized,Serial_Dependence_U,2023.2.3,Win32,60.60606060606061,,,,,,1244.6573000001906,40.0,3.0,1244.6574999999998,40.0,,,,1248.2391999998092,1248.7388000001906,1247.7229000000953,1248.2391999998092,1245.657,1247.722699999809,1248.7388000001906,1249.2386999998091,1249.2386999998091,1250.9739000000952,1406.0,1250.9740999999044,5.0,1250.974400000095,3.0,17.0,107.0,21.0,1.0,1.0,0.3,Time
,,S23,1,女,22,anonymized,Serial_Dependence_U,2023.2.3,Win32,60.60606060606061,,,,,,1250.9749000000952,45.0,3.0,1250.9749000000952,45.0,,,,1254.371199999809,1254.8710999999046,1253.8555,1254.371199999809,1251.9885999999044,1253.8553000001907,1254.8710999999046,1255.370800000191,1255.3709000000952,1256.706,1265.0,1256.7060999999044,5.0,1256.7064999999998,3.0,18.0,108.0,20.0,1.0,0.8,0.3,Time
,,S23,1,女,22,anonymized,Serial_Dependence_U,2023.2.3,Win32,60.60606060606061,,,,,,1256.7070999999046,196.0,3.0,1256.7073000001906,196.0,,,,1260.8710999999046,1261.3696999998092,1260.3704999999998,1260.8709000000952,1257.7054999999998,1260.3703000001906,1261.3698000001907,1261.8699000000952,1261.8699000000952,1263.7701999998092,1360.0,1263.770300000191,2.0,1263.7705,3.0,19.0,109.0,14.0,1.0,1.6,0.3,Time
,,S23,1,女,22,anonymized,Serial_Dependence_U,2023.2.3,Win32,60.60606060606061,,,,,,1263.7708000001903,301.0,3.0,1263.7709000000953,301.0,,,,1267.3700999999046,1267.8693000001906,1266.8526999998091,1267.3700999999046,1264.786199999809,1266.8526999998091,1267.8694000000953,1268.3686999998092,1268.3686999998092,1269.2865,431.0,1269.2865,1.0,1269.286900000095,3.0,20.0,110.0,11.0,1.0,1.0,0.3,Time
,,S23,1,女,22,anonymized,Serial_Dependence_U,2023.2.3,Win32,60.60606060606061,,,,,,1269.2873000001905,112.0,3.0,1269.2875,112.0,,,,1273.051400000095,1273.5510999999044,1272.5355,1273.0513000001906,1270.3018000001905,1272.5354000000953,1273.5510999999044,1274.0509000000952,1274.0509000000952,1275.8175999999046,1247.0,1275.8175999999046,3.0,1275.8179000000953,3.0,21.0,111.0,27.0,1.0,1.2,0.7,Time
,,S23,1,女,22,anonymized,Serial_Dependence_U,2023.2.3,Win32,60.60606060606061,,,,,,1275.8181999998092,358.0,3.0,1275.8184000000952,358.0,,,,1279.6004000000953,1280.1000999999044,1279.084199999809,1279.6003000001906,1276.8420999999046,1279.084199999809,1280.100199999809,1280.5998000001905,1280.5999000000952,1282.534199999809,767.0,1282.5343000001906,1.0,1282.534800000191,3.0,22.0,112.0,7.0,1.0,1.2,0.7,Time
,,S23,1,女,22,anonymized,Serial_Dependence_U,2023.2.3,Win32,60.60606060606061,,,,,,1282.5355,281.0,3.0,1282.5360999999043,281.0,,,,1286.3323000001906,1286.8343000001903,1285.815900000095,1286.3323000001906,1283.55,1285.8158000001906,1286.8344000000952,1287.3336999998091,1287.3339000000951,1288.465400000095,668.0,1288.4654999999998,1.0,1288.4658000001905,3.0,23.0,113.0,12.0,1.0,1.2,0.3,Time
,,S23,1,女,22,anonymized,Serial_Dependence_U,2023.2.3,Win32,60.60606060606061,,,,,,1288.4664999999998,134.0,3.0,1288.4668000001907,134.0,,,,1291.8675999999043,1292.3659999999998,1291.3480999999044,1291.8674999999998,1289.4819000000953,1291.3480999999044,1292.3659999999998,1292.8644000000952,1292.8645,1295.0808000001905,764.0,1295.0808000001905,3.0,1295.0810999999044,3.0,24.0,114.0,0.0,1.0,0.8,0.3,Time
,,S23,1,女,22,anonymized,Serial_Dependence_U,2023.2.3,Win32,60.60606060606061,,,,,,1295.0813000001906,270.0,3.0,1295.0814999999998,270.0,,,,1299.246800000191,1299.7464000000953,1298.7304000000952,1299.246800000191,1296.0985999999043,1298.7303000001907,1299.7465,1300.2464000000953,1300.2465,1302.5791999998091,2024.0,1302.5791999998091,4.0,1302.5794000000951,3.0,25.0,115.0,29.0,1.0,1.6,0.7,Time
,,S23,1,女,22,anonymized,Serial_Dependence_U,2023.2.3,Win32,60.60606060606061,,,,,,1302.5795999999043,267.0,3.0,1302.5799000000952,267.0,,,,1306.5465999999044,1307.0453000001903,1306.0300999999045,1306.5464000000952,1303.5959000000953,1306.0300999999045,1307.0453000001903,1307.5449999999998,1307.5449999999998,1309.929,1670.0,1309.9290999999046,4.0,1309.9293000001906,3.0,26.0,116.0,18.0,1.0,1.4,0.7,Time
,,S23,1,女,22,anonymized,Serial_Dependence_U,2023.2.3,Win32,60.60606060606061,,,,,,1309.9296999998091,77.0,3.0,1309.9299999999998,77.0,,,,1314.1120999999046,1314.6124000000952,1313.5948000001906,1314.112,1310.9284000000953,1313.594699999809,1314.6124000000952,1315.1103000001906,1315.1104000000953,1317.829,2195.0,1317.8291999998091,5.0,1317.8294000000951,3.0,27.0,117.0,24.0,1.0,1.6,0.3,Time
,,S23,1,女,22,anonymized,Serial_Dependence_U,2023.2.3,Win32,60.60606060606061,,,,,,1317.8296999998092,347.0,3.0,1317.8298000001903,347.0,,,,1321.2099999999998,1321.7100999999043,1320.695,1321.209900000095,1318.828,1320.694699999809,1321.7100999999043,1322.2094000000952,1322.2094000000952,1324.1586999998092,1320.0,1324.1588000001907,5.0,1324.1590999999046,3.0,28.0,118.0,10.0,1.0,0.8,0.3,Time
,,S23,1,女,22,anonymized,Serial_Dependence_U,2023.2.3,Win32,60.60606060606061,,,,,,1324.1593000001906,217.0,3.0,1324.1594000000953,217.0,,,,1327.7423000001909,1328.2415,1327.226,1327.7420999999044,1325.1629000000953,1327.2259000000952,1328.2415,1328.7418000001906,1328.7418000001906,1330.3416999998092,1018.0,1330.3419000000952,3.0,1330.3423000001906,3.0,29.0,119.0,1.0,1.0,1.0,0.3,Time
,,S23,1,女,22,anonymized,Serial_Dependence_U,2023.2.3,Win32,60.60606060606061,,,,,,1330.3425999999045,321.0,4.0,1332.524,321.0,s,2.171000000000049,,1336.6908000001906,1337.1901999998092,1336.1754000000951,1336.690699999809,1333.5408000001903,1336.1754000000951,1337.1903000001903,1337.6899000000951,1337.6899999999998,1339.7898000001906,1478.0,1339.7899000000953,2.0,1339.7903000001909,4.0,0.0,120.0,19.0,1.0,1.6,0.7,Time
,,S23,1,女,22,anonymized,Serial_Dependence_U,2023.2.3,Win32,60.60606060606061,,,,,,1339.7905999999043,317.0,4.0,1339.7928000001907,317.0,,,,1343.539300000191,1344.0389999999998,1343.023,1343.539300000191,1340.7901999998091,1343.0229000000952,1344.0390999999045,1344.5400999999044,1344.5401999998091,1346.7389999999998,1486.0,1346.7391999998092,4.0,1346.7400999999045,4.0,1.0,121.0,27.0,1.0,1.2,0.7,Time
,,S23,1,女,22,anonymized,Serial_Dependence_U,2023.2.3,Win32,60.60606060606061,,,,,,1346.7409000000953,97.0,4.0,1346.7411999998092,97.0,,,,1350.7058000001905,1351.2041999998091,1350.190699999809,1350.7058000001905,1347.7548000001907,1350.1905999999044,1351.2043000001906,1351.7043000001906,1351.7044000000951,1354.037699999809,1919.0,1354.0379000000953,5.0,1354.0383000001907,4.0,2.0,122.0,28.0,1.0,1.4,0.7,Time
,,S23,1,女,22,anonymized,Serial_Dependence_U,2023.2.3,Win32,60.60606060606061,,,,,,1354.0388000001906,334.0,4.0,1354.0390999999045,334.0,,,,1358.2364000000953,1358.7364000000953,1357.7209999999998,1358.2363000001906,1355.0543000001906,1357.7208000001906,1358.7364999999998,1359.236,1359.236,1361.652699999809,2001.0,1361.652699999809,4.0,1361.6529999999998,4.0,3.0,123.0,24.0,1.0,1.6,0.3,Time
,,S23,1,女,22,anonymized,Serial_Dependence_U,2023.2.3,Win32,60.60606060606061,,,,,,1361.6534000000952,94.0,4.0,1361.6534000000952,94.0,,,,1365.0195999999046,1365.5193000001907,1364.5021999998091,1365.0193000001907,1362.6704000000952,1364.5020999999044,1365.5194000000952,1366.0180999999045,1366.0181999998092,1367.8345999999044,1361.0,1367.8346999998091,5.0,1367.8348000001906,4.0,4.0,124.0,15.0,1.0,0.8,0.7,Time
,,S23,1,女,22,anonymized,Serial_Dependence_U,2023.2.3,Win32,60.60606060606061,,,,,,1367.8351999998092,60.0,4.0,1367.8353000001905,60.0,,,,1371.3855,1371.8839000000953,1370.8689000000952,1371.3854000000952,1368.8354000000952,1370.8686999998092,1371.8839999999998,1372.3839000000953,1372.3839999999998,1373.9165999999043,1151.0,1373.9165999999043,4.0,1373.9169000000952,4.0,5.0,125.0,26.0,1.0,1.0,0.7,Time
,,S23,1,女,22,anonymized,Serial_Dependence_U,2023.2.3,Win32,60.60606060606061,,,,,,1373.917199999809,237.0,4.0,1373.917199999809,237.0,,,,1377.5169000000951,1378.0170999999043,1377.0000999999045,1377.5169000000951,1374.933300000191,1376.9999999999998,1378.0173000001903,1378.516199999809,1378.516199999809,1380.9168000001905,2043.0,1380.9168000001905,5.0,1380.9170999999044,4.0,6.0,126.0,1.0,1.0,1.0,0.3,Time
,,S23,1,女,22,anonymized,Serial_Dependence_U,2023.2.3,Win32,60.60606060606061,,,,,,1380.9173000001906,194.0,4.0,1380.9174999999998,194.0,,,,1384.8514000000953,1385.3493000001906,1384.3483000001906,1384.8513000001906,1381.9158000001903,1384.3481999998091,1385.349400000095,1385.848,1385.848,1388.2150999999044,2019.0,1388.2150999999044,5.0,1388.215400000095,4.0,7.0,127.0,8.0,1.0,1.4,0.7,Time
,,S23,1,女,22,anonymized,Serial_Dependence_U,2023.2.3,Win32,60.60606060606061,,,,,,1388.2155999999045,44.0,4.0,1388.2156999998092,44.0,,,,1391.7646999998092,1392.263400000095,1391.2635999999045,1391.7646999998092,1389.2311999998092,1391.2634999999998,1392.263400000095,1392.7638000001905,1392.7638000001905,1394.699199999809,1612.0,1394.6995,5.0,1394.7003000001905,4.0,8.0,128.0,16.0,1.0,1.0,0.7,Time
,,S23,1,女,22,anonymized,Serial_Dependence_U,2023.2.3,Win32,60.60606060606061,,,,,,1394.7013000001905,239.0,4.0,1394.701699999809,239.0,,,,1398.4640999999044,1398.9625,1397.9633000001909,1398.464,1395.6974000000953,1397.9631999998091,1398.9625,1399.4629000000953,1399.4629000000953,1401.4783000001903,1435.0,1401.4783000001903,4.0,1401.4785,4.0,9.0,129.0,22.0,1.0,1.2,0.3,Time
,,S23,1,女,22,anonymized,Serial_Dependence_U,2023.2.3,Win32,60.60606060606061,,,,,,1401.4788000001906,76.0,4.0,1401.4788000001906,76.0,,,,1405.2453000001906,1405.7446999998092,1404.7285999999044,1405.2450999999046,1402.4970999999043,1404.7285999999044,1405.7446999998092,1406.2440999999044,1406.2440999999044,1408.4274000000953,1796.0,1408.4274000000953,5.0,1408.4276999998092,4.0,10.0,130.0,7.0,1.0,1.2,0.7,Time
,,S23,1,女,22,anonymized,Serial_Dependence_U,2023.2.3,Win32,60.60606060606061,,,,,,1408.428199999809,124.0,4.0,1408.4286999998092,124.0,,,,1411.8269999999998,1412.3263000001905,1411.3101999998091,1411.8269999999998,1409.444,1411.3100999999044,1412.3263000001905,1412.8263000001905,1412.8263000001905,1414.0265999999044,838.0,1414.0268000001906,3.0,1414.0273000001905,4.0,11.0,131.0,0.0,1.0,0.8,0.3,Time
,,S23,1,女,22,anonymized,Serial_Dependence_U,2023.2.3,Win32,60.60606060606061,,,,,,1414.0275999999044,177.0,4.0,1414.027699999809,177.0,,,,1418.1921999998092,1418.6921999998092,1417.6764999999998,1418.1920999999045,1415.043,1417.6763000001906,1418.6923000001907,1419.1919999999998,1419.1920999999045,1420.7423000001909,1241.0,1420.7423000001909,2.0,1420.7425999999043,4.0,12.0,132.0,9.0,1.0,1.6,0.7,Time
,,S23,1,女,22,anonymized,Serial_Dependence_U,2023.2.3,Win32,60.60606060606061,,,,,,1420.7430999999044,18.0,4.0,1420.7433000001906,18.0,,,,1424.9428000001906,1425.4423000001907,1424.425,1424.942699999809,1421.7585999999044,1424.4249000000952,1425.4423000001907,1425.9409999999998,1425.9410999999045,1427.2243000001906,987.0,1427.2243000001906,1.0,1427.2246999998092,4.0,13.0,133.0,14.0,1.0,1.6,0.3,Time
,,S23,1,女,22,anonymized,Serial_Dependence_U,2023.2.3,Win32,60.60606060606061,,,,,,1427.225,210.0,4.0,1427.2250999999044,210.0,,,,1430.5765999999046,1431.0733000001906,1430.0735999999044,1430.5765,1428.2409999999998,1430.0735,1431.0734000000953,1431.573199999809,1431.5733000001906,1432.9898000001906,1083.0,1432.9898000001906,5.0,1432.9899999999998,4.0,14.0,134.0,5.0,1.0,0.8,0.7,Time
,,S23,1,女,22,anonymized,Serial_Dependence_U,2023.2.3,Win32,60.60606060606061,,,,,,1432.9903000001907,121.0,4.0,1432.9904000000952,121.0,,,,1437.1554999999998,1437.655300000191,1436.6398000001907,1437.1554000000951,1434.0068000001909,1436.6396999998092,1437.655300000191,1438.1558000001903,1438.1559000000952,1439.6718000001906,1204.0,1439.671900000095,2.0,1439.6721999998092,4.0,15.0,135.0,29.0,1.0,1.6,0.7,Time
,,S23,1,女,22,anonymized,Serial_Dependence_U,2023.2.3,Win32,60.60606060606061,,,,,,1439.6725,294.0,4.0,1439.672699999809,294.0,,,,1443.6715,1444.1708000001906,1443.154699999809,1443.6714000000952,1440.688199999809,1443.1545999999046,1444.1708000001906,1444.6731999998092,1444.6734000000952,1446.0050999999046,971.0,1446.005199999809,1.0,1446.0054000000953,4.0,16.0,136.0,3.0,1.0,1.4,0.3,Time
,,S23,1,女,22,anonymized,Serial_Dependence_U,2023.2.3,Win32,60.60606060606061,,,,,,1446.006,79.0,4.0,1446.006199999809,79.0,,,,1449.5718000001907,1450.0724999999998,1449.071,1449.5715999999045,1447.0049000000952,1449.0708000001905,1450.0725999999045,1450.570400000095,1450.570400000095,1451.9528000001906,1058.0,1451.9528000001906,4.0,1451.953,4.0,17.0,137.0,11.0,1.0,1.0,0.3,Time
,,S23,1,女,22,anonymized,Serial_Dependence_U,2023.2.3,Win32,60.60606060606061,,,,,,1451.953300000191,61.0,4.0,1451.9534999999998,61.0,,,,1455.953300000191,1456.4539000000952,1455.4368000001905,1455.9530999999045,1452.969900000095,1455.4366999998092,1456.454,1456.9523000001907,1456.9524000000952,1459.6185999999043,2348.0,1459.6186999998092,5.0,1459.6189000000952,4.0,18.0,138.0,23.0,1.0,1.4,0.3,Time
,,S23,1,女,22,anonymized,Serial_Dependence_U,2023.2.3,Win32,60.60606060606061,,,,,,1459.6193000001906,9.0,4.0,1459.6194999999998,9.0,,,,1463.2191999998092,1463.717800000191,1462.702699999809,1463.2191999998092,1460.6355,1462.7025999999046,1463.717800000191,1464.2175,1464.2175,1465.484,1048.0,1465.484,3.0,1465.484400000095,4.0,19.0,139.0,21.0,1.0,1.0,0.3,Time
,,S23,1,女,22,anonymized,Serial_Dependence_U,2023.2.3,Win32,60.60606060606061,,,,,,1465.4845999999045,154.0,4.0,1465.4846999998092,154.0,,,,1469.2834999999998,1469.7859000000951,1468.7675,1469.2834000000953,1466.5004000000952,1468.7674000000952,1469.7859999999998,1470.2843000001906,1470.2844000000953,1471.7663000001903,1090.0,1471.7665,2.0,1471.7666999998091,4.0,20.0,140.0,12.0,1.0,1.2,0.3,Time
,,S23,1,女,22,anonymized,Serial_Dependence_U,2023.2.3,Win32,60.60606060606061,,,,,,1471.7670999999043,7.0,4.0,1471.7673000001903,7.0,,,,1475.153699999809,1475.6489000000952,1474.6334000000952,1475.1535999999046,1472.7666999998091,1474.6331999998092,1475.6489000000952,1476.1506999998091,1476.1509000000951,1476.7539000000952,257.0,1476.7540999999044,1.0,1476.7544999999998,4.0,21.0,141.0,10.0,1.0,0.8,0.3,Time
,,S23,1,女,22,anonymized,Serial_Dependence_U,2023.2.3,Win32,60.60606060606061,,,,,,1476.755,343.0,4.0,1476.7554000000953,343.0,,,,1480.132199999809,1480.6315,1479.6161999998092,1480.1320999999043,1477.7495999999046,1479.6159999999998,1480.6315,1481.1315,1481.1315999999044,1482.5816999998092,995.0,1482.5818000001907,4.0,1482.582199999809,4.0,22.0,142.0,20.0,1.0,0.8,0.3,Time
,,S23,1,女,22,anonymized,Serial_Dependence_U,2023.2.3,Win32,60.60606060606061,,,,,,1482.5826999998092,306.0,4.0,1482.5829000000952,306.0,,,,1486.517900000095,1487.0133000001906,1486.0136999998092,1486.5175999999044,1483.582199999809,1486.0136999998092,1487.0133000001906,1487.5138000001905,1487.5138000001905,1489.013199999809,1147.0,1489.013199999809,2.0,1489.0134999999998,4.0,23.0,143.0,18.0,1.0,1.4,0.7,Time
,,S23,1,女,22,anonymized,Serial_Dependence_U,2023.2.3,Win32,60.60606060606061,,,,,,1489.0139000000952,94.0,4.0,1489.014,94.0,,,,1493.015199999809,1493.5126999998092,1492.4978000001906,1493.0150999999046,1490.0300999999045,1492.4976999998091,1493.5126999998092,1494.011699999809,1494.0118000001903,1496.0295,1870.0,1496.0295,5.0,1496.0300999999045,4.0,24.0,144.0,13.0,1.0,1.4,0.3,Time
,,S23,1,女,22,anonymized,Serial_Dependence_U,2023.2.3,Win32,60.60606060606061,,,,,,1496.0304999999998,258.0,4.0,1496.030699999809,258.0,,,,1499.3951999998092,1499.8959000000953,1498.878199999809,1499.3950999999045,1497.0455999999044,1498.878199999809,1499.8959000000953,1500.3940999999045,1500.3940999999045,1501.8778000001903,1168.0,1501.8779000000952,5.0,1501.8780999999044,4.0,25.0,145.0,25.0,1.0,0.8,0.7,Time
,,S23,1,女,22,anonymized,Serial_Dependence_U,2023.2.3,Win32,60.60606060606061,,,,,,1501.878400000095,271.0,4.0,1501.8784999999998,271.0,,,,1506.0614999999998,1506.561400000095,1505.5608000001905,1506.061400000095,1502.8944000000952,1505.5606999998092,1506.5614999999998,1507.061199999809,1507.0613000001906,1509.2936999998092,1854.0,1509.294199999809,4.0,1509.2949000000951,4.0,26.0,146.0,4.0,1.0,1.6,0.3,Time
,,S23,1,女,22,anonymized,Serial_Dependence_U,2023.2.3,Win32,60.60606060606061,,,,,,1509.2959000000951,100.0,4.0,1509.2968000001906,100.0,,,,1513.0591999998092,1513.558699999809,1512.5434000000953,1513.0590999999044,1510.3100999999044,1512.5430999999046,1513.558699999809,1514.0589000000953,1514.0589000000953,1516.374699999809,1883.0,1516.3748000001906,5.0,1516.3750999999045,4.0,27.0,147.0,17.0,1.0,1.2,0.7,Time
,,S23,1,女,22,anonymized,Serial_Dependence_U,2023.2.3,Win32,60.60606060606061,,,,,,1516.3753000001907,69.0,4.0,1516.3754000000952,69.0,,,,1520.1744000000951,1520.6739999999998,1519.6588000001907,1520.174300000191,1517.392699999809,1519.6585999999045,1520.6739999999998,1521.1753000001906,1521.1754000000951,1523.4763000001906,1852.0,1523.4763000001906,5.0,1523.4778000001909,4.0,28.0,148.0,2.0,1.0,1.2,0.3,Time
,,S23,1,女,22,anonymized,Serial_Dependence_U,2023.2.3,Win32,60.60606060606061,,,,,,1523.479699999809,344.0,4.0,1523.4805,344.0,,,,1527.0080999999043,1527.5066999998091,1526.5065,1527.0080999999043,1524.4744999999998,1526.5065,1527.5066999998091,1528.0085999999044,1528.008699999809,1529.9403000001903,1513.0,1529.9403000001903,5.0,1529.9405,4.0,29.0,149.0,6.0,1.0,1.0,0.7,Time
,,S23,1,女,22,anonymized,Serial_Dependence_U,2023.2.3,Win32,60.60606060606061,,,,,,1529.940900000095,123.0,5.0,1532.6383000001906,123.0,s,2.687000000000125,,1536.1889000000951,1536.6883000001906,1535.6740999999045,1536.1886999998092,1533.6398000001907,1535.6735,1536.6883000001906,1537.1879000000952,1537.1879000000952,1538.9048000001906,1450.0,1538.9049000000953,5.0,1538.905300000191,5.0,0.0,150.0,26.0,1.0,1.0,0.7,Time
,,S23,1,女,22,anonymized,Serial_Dependence_U,2023.2.3,Win32,60.60606060606061,,,,,,1538.9055999999046,27.0,5.0,1538.907,27.0,,,,1542.6885999999045,1543.187199999809,1542.1724000000952,1542.6884999999995,1539.9049000000953,1542.1724000000952,1543.187199999809,1543.687,1543.6870999999046,1545.3363000001907,1242.0,1545.3363000001907,3.0,1545.3365999999046,5.0,1.0,151.0,2.0,1.0,1.2,0.3,Time
,,S23,1,女,22,anonymized,Serial_Dependence_U,2023.2.3,Win32,60.60606060606061,,,,,,1545.3369999999998,37.0,5.0,1545.3371999998092,37.0,,,,1549.5035999999045,1550.0029000000952,1548.9860999999046,1549.5033000001906,1546.3526999998091,1548.986,1550.003,1550.5024000000951,1550.5024999999998,1552.7015,1853.0,1552.7015999999046,4.0,1552.701699999809,5.0,2.0,152.0,9.0,1.0,1.6,0.7,Time
,,S23,1,女,22,anonymized,Serial_Dependence_U,2023.2.3,Win32,60.60606060606061,,,,,,1552.7019999999998,230.0,5.0,1552.7021999998092,230.0,,,,1556.1028000001909,1556.601199999809,1555.5875999999046,1556.1028000001909,1553.7201999998092,1555.587300000191,1556.601199999809,1557.101,1557.101,1558.4005,940.0,1558.4005999999044,4.0,1558.4009000000951,5.0,3.0,153.0,10.0,1.0,0.8,0.3,Time
,,S23,1,女,22,anonymized,Serial_Dependence_U,2023.2.3,Win32,60.60606060606061,,,,,,1558.4010999999043,356.0,5.0,1558.4013000001903,356.0,,,,1562.6013000001906,1563.0999000000952,1562.0845,1562.601199999809,1559.4174000000953,1562.0844000000952,1563.0999000000952,1563.6,1563.6,1565.5165999999044,1729.0,1565.5166999998091,4.0,1565.5169000000951,5.0,4.0,154.0,24.0,1.0,1.6,0.3,Time
,,S23,1,女,22,anonymized,Serial_Dependence_U,2023.2.3,Win32,60.60606060606061,,,,,,1565.5171999998092,185.0,5.0,1565.5173000001903,185.0,,,,1569.3155999999044,1569.8155999999044,1568.7990999999045,1569.3154000000952,1566.5330999999046,1568.7990999999045,1569.815699999809,1570.3150999999043,1570.3151999998092,1571.9484000000953,1234.0,1571.9484000000953,3.0,1571.9485999999044,5.0,5.0,155.0,12.0,1.0,1.2,0.3,Time
,,S23,1,女,22,anonymized,Serial_Dependence_U,2023.2.3,Win32,60.60606060606061,,,,,,1571.9489000000951,154.0,5.0,1571.9489999999998,154.0,,,,1575.2990999999045,1575.7989999999998,1574.7828000001905,1575.2990999999045,1572.9485999999044,1574.7825999999045,1575.7989999999998,1576.297699999809,1576.2978000001906,1577.5311999998091,937.0,1577.5314999999998,4.0,1577.532,5.0,6.0,156.0,25.0,1.0,0.8,0.7,Time
,,S23,1,女,22,anonymized,Serial_Dependence_U,2023.2.3,Win32,60.60606060606061,,,,,,1577.5329000000952,117.0,5.0,1577.5335999999045,117.0,,,,1581.5309000000952,1582.0298000001906,1581.0156999998092,1581.5308000001903,1578.5475,1581.0155,1582.0298000001906,1582.5300999999045,1582.5300999999045,1584.2138000001903,870.0,1584.2139000000952,1.0,1584.2143000001906,5.0,7.0,157.0,23.0,1.0,1.4,0.3,Time
,,S23,1,女,22,anonymized,Serial_Dependence_U,2023.2.3,Win32,60.60606060606061,,,,,,1584.2148000001905,215.0,5.0,1584.215,215.0,,,,1587.5794000000951,1588.0794999999998,1587.0634000000953,1587.5793000001906,1585.2315,1587.063199999809,1588.0795999999043,1588.5789000000952,1588.579,1590.344900000095,1405.0,1590.3449999999998,5.0,1590.3455,5.0,8.0,158.0,15.0,1.0,0.8,0.7,Time
,,S23,1,女,22,anonymized,Serial_Dependence_U,2023.2.3,Win32,60.60606060606061,,,,,,1590.3459999999998,229.0,5.0,1590.3463000001907,229.0,,,,1594.3125999999045,1594.8106999998092,1593.7955999999044,1594.3124999999998,1591.3484000000951,1593.7953000001903,1594.8106999998092,1595.313800000191,1595.313800000191,1597.5269999999998,1931.0,1597.5269999999998,5.0,1597.5273000001905,5.0,9.0,159.0,8.0,1.0,1.4,0.7,Time
,,S23,1,女,22,anonymized,Serial_Dependence_U,2023.2.3,Win32,60.60606060606061,,,,,,1597.5275999999044,19.0,5.0,1597.5278000001906,19.0,,,,1601.5269999999998,1602.026900000095,1601.0098000001906,1601.5268000001906,1598.543800000191,1601.009699999809,1602.026900000095,1602.5258000001909,1602.5259000000951,1604.6106999998092,1710.0,1604.6106999998092,4.0,1604.6110999999046,5.0,10.0,160.0,13.0,1.0,1.4,0.3,Time
,,S23,1,女,22,anonymized,Serial_Dependence_U,2023.2.3,Win32,60.60606060606061,,,,,,1604.6116999998092,36.0,5.0,1604.611800000191,36.0,,,,1608.793199999809,1609.294199999809,1608.2924000000953,1608.793,1605.626300000191,1608.2923000001906,1609.294199999809,1609.7928000001907,1609.7929000000952,1611.8080999999045,1564.0,1611.8081999998092,3.0,1611.8084000000952,5.0,11.0,161.0,14.0,1.0,1.6,0.3,Time
,,S23,1,女,22,anonymized,Serial_Dependence_U,2023.2.3,Win32,60.60606060606061,,,,,,1611.8088000001906,340.0,5.0,1611.8089000000953,340.0,,,,1615.4073000001906,1615.9069000000952,1614.8931999998092,1615.407199999809,1612.8248000001906,1614.8930999999045,1615.9069000000952,1616.407400000095,1616.4074999999998,1618.106699999809,1397.0,1618.1068000001906,5.0,1618.1069000000953,5.0,12.0,162.0,11.0,1.0,1.0,0.3,Time
,,S23,1,女,22,anonymized,Serial_Dependence_U,2023.2.3,Win32,60.60606060606061,,,,,,1618.1074000000951,116.0,5.0,1618.1074999999998,116.0,,,,1621.856300000191,1622.3559999999998,1621.3399000000952,1621.8561999998092,1619.1074000000951,1621.3398000001905,1622.3559999999998,1622.8564000000952,1622.8564000000952,1625.2219999999998,2032.0,1625.2220999999045,5.0,1625.222300000191,5.0,13.0,163.0,27.0,1.0,1.2,0.7,Time
,,S23,1,女,22,anonymized,Serial_Dependence_U,2023.2.3,Win32,60.60606060606061,,,,,,1625.2225,90.0,5.0,1625.222699999809,90.0,,,,1628.8224000000953,1629.3239999999998,1628.3068000001906,1628.822199999809,1626.2390999999045,1628.3065,1629.3239999999998,1629.8224999999998,1629.8224999999998,1631.4715,1442.0,1631.4715,5.0,1631.4719999999998,5.0,14.0,164.0,1.0,1.0,1.0,0.3,Time
,,S23,1,女,22,anonymized,Serial_Dependence_U,2023.2.3,Win32,60.60606060606061,,,,,,1631.4725,147.0,5.0,1631.4728000001903,147.0,,,,1635.637400000095,1636.1375999999043,1635.1205999999045,1635.6373000001906,1632.4879999999998,1635.1204999999998,1636.1375999999043,1636.6386999998092,1636.6386999998092,1639.3860999999044,2420.0,1639.3861999998092,5.0,1639.3864999999998,5.0,15.0,165.0,19.0,1.0,1.6,0.7,Time
,,S23,1,女,22,anonymized,Serial_Dependence_U,2023.2.3,Win32,60.60606060606061,,,,,,1639.3870999999044,50.0,5.0,1639.387400000095,50.0,,,,1643.3859000000953,1643.8858000001906,1642.8694999999998,1643.3858000001906,1640.4039000000953,1642.8694999999998,1643.8858000001906,1644.385300000191,1644.385300000191,1646.0693000001909,1342.0,1646.0693000001909,3.0,1646.0694999999998,5.0,16.0,166.0,3.0,1.0,1.4,0.3,Time
,,S23,1,女,22,anonymized,Serial_Dependence_U,2023.2.3,Win32,60.60606060606061,,,,,,1646.0698000001903,62.0,5.0,1646.0699000000952,62.0,,,,1649.8519000000952,1650.3530999999043,1649.3348000001906,1649.8515999999045,1647.0710999999044,1649.3345999999044,1650.353199999809,1650.8516999998092,1650.8516999998092,1652.7014000000952,1472.0,1652.7015999999046,4.0,1652.7020999999045,5.0,17.0,167.0,22.0,1.0,1.2,0.3,Time
,,S23,1,女,22,anonymized,Serial_Dependence_U,2023.2.3,Win32,60.60606060606061,,,,,,1652.7029000000953,228.0,5.0,1652.703699999809,228.0,,,,1656.267900000095,1656.7665999999044,1655.7514000000951,1656.2678000001906,1653.7175999999045,1655.751300000191,1656.7665999999044,1657.2679999999998,1657.2680999999045,1659.0659999999998,1435.0,1659.0661999998092,5.0,1659.0664000000952,5.0,18.0,168.0,16.0,1.0,1.0,0.7,Time
,,S23,1,女,22,anonymized,Serial_Dependence_U,2023.2.3,Win32,60.60606060606061,,,,,,1659.066699999809,160.0,5.0,1659.0668000001906,160.0,,,,1662.7999000000952,1663.298699999809,1662.2991999998092,1662.7998000001903,1660.0669999999998,1662.2990999999045,1663.298699999809,1663.7989999999998,1663.7990999999045,1665.266199999809,1123.0,1665.2664000000952,2.0,1665.2671999998092,5.0,19.0,169.0,17.0,1.0,1.2,0.7,Time
,,S23,1,女,22,anonymized,Serial_Dependence_U,2023.2.3,Win32,60.60606060606061,,,,,,1665.2681999998092,5.0,5.0,1665.2689000000953,5.0,,,,1669.448,1669.9495,1668.9328000001906,1669.448,1666.2664000000952,1668.9325,1669.9495,1670.4474999999998,1670.4475999999045,1671.1638000001906,433.0,1671.1639000000953,1.0,1671.1640999999045,5.0,20.0,170.0,4.0,1.0,1.6,0.3,Time
,,S23,1,女,22,anonymized,Serial_Dependence_U,2023.2.3,Win32,60.60606060606061,,,,,,1671.1645,268.0,5.0,1671.1645999999046,268.0,,,,1674.7311999998092,1675.229699999809,1674.2150999999044,1674.7310999999045,1672.1815,1674.2149000000952,1675.229699999809,1675.7295999999044,1675.7295999999044,1678.1965999999045,2114.0,1678.1966999998092,5.0,1678.1968000001907,5.0,21.0,171.0,6.0,1.0,1.0,0.7,Time
,,S23,1,女,22,anonymized,Serial_Dependence_U,2023.2.3,Win32,60.60606060606061,,,,,,1678.197,290.0,5.0,1678.1970999999046,290.0,,,,1681.5971999998092,1682.0955999999046,1681.0799000000952,1681.5971999998092,1679.2133000001909,1681.0795999999043,1682.095699999809,1682.5954000000952,1682.5954000000952,1683.5285,754.0,1683.5285,2.0,1683.5288000001906,5.0,22.0,172.0,20.0,1.0,0.8,0.3,Time
,,S23,1,女,22,anonymized,Serial_Dependence_U,2023.2.3,Win32,60.60606060606061,,,,,,1683.5289999999998,184.0,5.0,1683.5290999999045,184.0,,,,1687.2785,1687.7778000001906,1686.7625999999043,1687.2784000000952,1684.5314999999998,1686.7624999999998,1687.777900000095,1688.277900000095,1688.277900000095,1690.2443000001906,1615.0,1690.2444000000953,5.0,1690.2448000001907,5.0,23.0,173.0,7.0,1.0,1.2,0.7,Time
,,S23,1,女,22,anonymized,Serial_Dependence_U,2023.2.3,Win32,60.60606060606061,,,,,,1690.2454000000953,265.0,5.0,1690.245800000191,265.0,,,,1694.4268000001905,1694.9270999999044,1693.9109000000951,1694.4266999998092,1691.2635999999045,1693.9108000001906,1694.927199999809,1695.4264999999998,1695.4264999999998,1697.6430999999045,1868.0,1697.6431999998092,4.0,1697.6434000000952,5.0,24.0,174.0,29.0,1.0,1.6,0.7,Time
,,S23,1,女,22,anonymized,Serial_Dependence_U,2023.2.3,Win32,60.60606060606061,,,,,,1697.6435999999044,242.0,5.0,1697.643699999809,242.0,,,,1701.0420999999044,1701.5433000001906,1700.5255,1701.042,1698.660199999809,1700.5255,1701.5434000000953,1702.0436999998092,1702.043800000191,1703.9586999998091,1530.0,1703.9588000001906,5.0,1703.9589999999998,5.0,25.0,175.0,0.0,1.0,0.8,0.3,Time
,,S23,1,女,22,anonymized,Serial_Dependence_U,2023.2.3,Win32,60.60606060606061,,,,,,1703.9594000000952,66.0,5.0,1703.9594000000952,66.0,,,,1707.5585,1708.058699999809,1707.0420999999044,1707.5584000000952,1704.975199999809,1707.0420999999044,1708.058699999809,1708.5573000001907,1708.5574000000952,1709.623900000095,994.0,1709.623900000095,3.0,1709.6241999998092,5.0,26.0,176.0,21.0,1.0,1.0,0.3,Time
,,S23,1,女,22,anonymized,Serial_Dependence_U,2023.2.3,Win32,60.60606060606061,,,,,,1709.6245,195.0,5.0,1709.6245999999046,195.0,,,,1713.5760999999045,1714.0730999999046,1713.0578000001906,1713.5759999999998,1710.6249000000953,1713.0575999999046,1714.073199999809,1714.5759999999998,1714.5759999999998,1715.924699999809,1327.0,1715.9249000000952,2.0,1715.9253000001906,5.0,27.0,177.0,18.0,1.0,1.4,0.7,Time
,,S23,1,女,22,anonymized,Serial_Dependence_U,2023.2.3,Win32,60.60606060606061,,,,,,1715.9256999998092,3.0,5.0,1715.9258000001903,3.0,,,,1719.8578000001903,1720.3549999999998,1719.3554000000952,1719.8575999999046,1716.9234000000952,1719.3554000000952,1720.3550999999045,1720.8550999999045,1720.8550999999045,1723.0226999998092,1614.0,1723.0226999998092,4.0,1723.023,5.0,28.0,178.0,28.0,1.0,1.4,0.7,Time
,,S23,1,女,22,anonymized,Serial_Dependence_U,2023.2.3,Win32,60.60606060606061,,,,,,1723.0233000001906,338.0,5.0,1723.0234000000953,338.0,,,,1726.3714000000953,1726.8705999999045,1725.856300000191,1726.3713000001906,1724.021699999809,1725.8561999998092,1726.8705999999045,1727.3704999999998,1727.3704999999998,1728.9880999999043,1315.0,1728.9881999998092,5.0,1728.9884000000952,5.0,29.0,179.0,5.0,1.0,0.8,0.7,Time
,,S23,1,女,22,anonymized,Serial_Dependence_U,2023.2.3,Win32,60.60606060606061,,,,,,1728.988900000095,329.0,6.0,1731.6034000000952,329.0,s,2.6000000000001364,,1735.1413000001903,1735.6359000000953,1734.637400000095,1735.1405,1732.6044000000952,1734.6373000001906,1735.6359000000953,1736.136,1736.1360999999044,1737.6690999999046,1220.0,1737.6693000001906,4.0,1737.6695999999044,6.0,0.0,180.0,6.0,1.0,1.0,0.7,Time
,,S23,1,女,22,anonymized,Serial_Dependence_U,2023.2.3,Win32,60.60606060606061,,,,,,1737.6699000000951,285.0,6.0,1737.671900000095,285.0,,,,1741.0185999999044,1741.5183000001905,1740.5018000001903,1741.0185,1738.669,1740.5015999999046,1741.5183000001905,1742.017900000095,1742.017900000095,1743.617699999809,1189.0,1743.617699999809,5.0,1743.6179000000952,6.0,1.0,181.0,5.0,1.0,0.8,0.7,Time
,,S23,1,女,22,anonymized,Serial_Dependence_U,2023.2.3,Win32,60.60606060606061,,,,,,1743.6183000001906,13.0,6.0,1743.6184999999998,13.0,,,,1747.4005999999044,1747.900199999809,1746.8841999998092,1747.4005999999044,1744.6184999999998,1746.8839999999998,1747.900199999809,1748.400199999809,1748.400199999809,1750.4179000000952,1601.0,1750.418,5.0,1750.4183000001906,6.0,2.0,182.0,2.0,1.0,1.2,0.3,Time
,,S23,1,女,22,anonymized,Serial_Dependence_U,2023.2.3,Win32,60.60606060606061,,,,,,1750.4186999998092,153.0,6.0,1750.418800000191,153.0,,,,1754.616300000191,1755.1158000001906,1754.0994999999998,1754.616300000191,1751.4331999998092,1754.099400000095,1755.1158000001906,1755.6164000000952,1755.6164000000952,1757.349,1338.0,1757.3491999998091,2.0,1757.3494999999998,6.0,3.0,183.0,4.0,1.0,1.6,0.3,Time
,,S23,1,女,22,anonymized,Serial_Dependence_U,2023.2.3,Win32,60.60606060606061,,,,,,1757.3499000000952,123.0,6.0,1757.3504000000953,123.0,,,,1760.9173000001906,1761.4145,1760.4154000000951,1760.917199999809,1758.3495999999045,1760.4153000001909,1761.4145,1761.914300000191,1761.914300000191,1763.4980999999043,1144.0,1763.4980999999043,4.0,1763.4985,6.0,4.0,184.0,21.0,1.0,1.0,0.3,Time
,,S23,1,女,22,anonymized,Serial_Dependence_U,2023.2.3,Win32,60.60606060606061,,,,,,1763.498900000095,348.0,6.0,1763.4989999999998,348.0,,,,1767.4985,1767.9979000000951,1766.982300000191,1767.4984000000952,1764.5143000001906,1766.9820999999044,1767.9979000000951,1768.4974000000952,1768.4975,1770.1134000000952,1132.0,1770.1134000000952,2.0,1770.1135999999044,6.0,5.0,185.0,13.0,1.0,1.4,0.3,Time
,,S23,1,女,22,anonymized,Serial_Dependence_U,2023.2.3,Win32,60.60606060606061,,,,,,1770.1139999999998,141.0,6.0,1770.1140999999045,141.0,,,,1773.4795,1773.9794000000952,1772.9640999999044,1773.4794000000952,1771.1304000000953,1772.964,1773.9794000000952,1774.4791999998092,1774.4793000001905,1776.0646999998091,801.0,1776.0648000001906,3.0,1776.0651999998092,6.0,6.0,186.0,25.0,1.0,0.8,0.7,Time
,,S23,1,女,22,anonymized,Serial_Dependence_U,2023.2.3,Win32,60.60606060606061,,,,,,1776.0655,59.0,6.0,1776.0655999999044,59.0,,,,1779.648,1780.1448000001906,1779.145699999809,1779.6478000001905,1777.0793000001906,1779.1455,1780.1449000000953,1780.6445999999046,1780.644699999809,1782.044800000191,1046.0,1782.0449999999998,3.0,1782.0453000001903,6.0,7.0,187.0,11.0,1.0,1.0,0.3,Time
,,S23,1,女,22,anonymized,Serial_Dependence_U,2023.2.3,Win32,60.60606060606061,,,,,,1782.0456999998091,108.0,6.0,1782.0458000001906,108.0,,,,1785.4449000000952,1785.9439000000953,1784.928199999809,1785.4448000001903,1783.064,1784.9279000000952,1785.9439000000953,1786.4435999999046,1786.4435999999046,1787.8771999998091,1118.0,1787.8774000000951,5.0,1787.8778000001903,6.0,8.0,188.0,20.0,1.0,0.8,0.3,Time
,,S23,1,女,22,anonymized,Serial_Dependence_U,2023.2.3,Win32,60.60606060606061,,,,,,1787.8783000001906,65.0,6.0,1787.8785999999045,65.0,,,,1791.6669000000952,1792.159800000191,1791.1603000001903,1791.6666999998092,1788.8939999999998,1791.1600999999046,1792.159800000191,1792.6610999999043,1792.6610999999043,1794.1095999999045,1106.0,1794.1098000001905,2.0,1794.1104999999998,6.0,9.0,189.0,12.0,1.0,1.2,0.3,Time
,,S23,1,女,22,anonymized,Serial_Dependence_U,2023.2.3,Win32,60.60606060606061,,,,,,1794.1114000000953,327.0,6.0,1794.1129000000951,327.0,,,,1797.875699999809,1798.3751999998092,1797.3655,1797.8755999999046,1795.1255999999046,1797.3651999998092,1798.3753000001907,1798.8749000000953,1798.8750999999045,1800.2750999999046,1154.0,1800.2750999999046,3.0,1800.2753000001906,6.0,10.0,190.0,7.0,1.0,1.2,0.7,Time
,,S23,1,女,22,anonymized,Serial_Dependence_U,2023.2.3,Win32,60.60606060606061,,,,,,1800.2755999999044,16.0,6.0,1800.2756999998091,16.0,,,,1804.4586999998087,1804.9580999999048,1803.9410999999045,1804.4585999999044,1801.2749000000952,1803.9410999999045,1804.9580999999048,1805.4570999999048,1805.4570999999048,1806.3405999999045,465.0,1806.3405999999045,1.0,1806.3409000000952,6.0,11.0,191.0,24.0,1.0,1.6,0.3,Time
,,S23,1,女,22,anonymized,Serial_Dependence_U,2023.2.3,Win32,60.60606060606061,,,,,,1806.341199999809,224.0,6.0,1806.3415,224.0,,,,1809.7398000001904,1810.2395,1809.2243000001904,1809.7398000001904,1807.3604000000955,1809.2243000001904,1810.2395,1810.7428000001903,1810.7428000001903,1812.039,948.0,1812.039,4.0,1812.039300000191,6.0,12.0,192.0,10.0,1.0,0.8,0.3,Time
,,S23,1,女,22,anonymized,Serial_Dependence_U,2023.2.3,Win32,60.60606060606061,,,,,,1812.0395999999048,222.0,6.0,1812.039699999809,222.0,,,,1815.6396999998087,1816.1385,1815.1224000000952,1815.6395,1813.055699999809,1815.1223000001903,1816.1385999999045,1816.6394000000955,1816.6394000000955,1818.1216999998087,1166.0,1818.121800000191,4.0,1818.1220999999043,6.0,13.0,193.0,1.0,1.0,1.0,0.3,Time
,,S23,1,女,22,anonymized,Serial_Dependence_U,2023.2.3,Win32,60.60606060606061,,,,,,1818.1224000000952,146.0,6.0,1818.1225999999044,146.0,,,,1822.0714000000955,1822.5718000001907,1821.5546999998087,1822.0713000001904,1819.1220999999043,1821.5545,1822.5718000001907,1823.0705999999043,1823.0705999999043,1824.8200999999044,1417.0,1824.8200999999044,3.0,1824.8204000000956,6.0,14.0,194.0,18.0,1.0,1.4,0.7,Time
,,S23,1,女,22,anonymized,Serial_Dependence_U,2023.2.3,Win32,60.60606060606061,,,,,,1824.8205999999043,317.0,6.0,1824.8208000001905,317.0,,,,1828.5885,1829.0860999999045,1828.0705,1828.5883000001909,1825.8371999998087,1828.0704000000956,1829.0860999999045,1829.5858000001904,1829.5858000001904,1831.419,1596.0,1831.4190999999048,5.0,1831.419199999809,6.0,15.0,195.0,27.0,1.0,1.2,0.7,Time
,,S23,1,女,22,anonymized,Serial_Dependence_U,2023.2.3,Win32,60.60606060606061,,,,,,1831.4195,188.0,6.0,1831.4196999998087,188.0,,,,1835.555,1836.0515999999045,1835.0523000001904,1835.5548000001909,1832.420199999809,1835.052199999809,1836.0516999998088,1836.5515999999045,1836.5515999999045,1838.534199999809,1689.0,1838.5343000001903,4.0,1838.5345,6.0,16.0,196.0,29.0,1.0,1.6,0.7,Time
,,S23,1,女,22,anonymized,Serial_Dependence_U,2023.2.3,Win32,60.60606060606061,,,,,,1838.5349000000951,226.0,6.0,1838.5350999999048,226.0,,,,1842.7028000001903,1843.2004000000952,1842.1865,1842.7025999999048,1839.551,1842.1863000001904,1843.2004000000952,1843.7,1843.7000999999043,1846.283199999809,2263.0,1846.2833000001904,5.0,1846.2835,6.0,17.0,197.0,9.0,1.0,1.6,0.7,Time
,,S23,1,女,22,anonymized,Serial_Dependence_U,2023.2.3,Win32,60.60606060606061,,,,,,1846.2838000001907,295.0,6.0,1846.2840999999048,295.0,,,,1850.035699999809,1850.5339000000952,1849.5334000000955,1850.0355999999044,1847.3,1849.5333000001904,1850.5339000000952,1851.0326999998088,1851.0328000001905,1852.9655999999045,1639.0,1852.9656999998087,5.0,1852.966,6.0,18.0,198.0,17.0,1.0,1.2,0.7,Time
,,S23,1,女,22,anonymized,Serial_Dependence_U,2023.2.3,Win32,60.60606060606061,,,,,,1852.9663000001904,222.0,6.0,1852.9665999999045,222.0,,,,1856.9153000001909,1857.4158000001903,1856.398,1856.915,1853.967199999809,1856.3978000001905,1857.4158000001903,1857.9145999999048,1857.9145999999048,1859.6305,1706.0,1859.6306999998087,4.0,1859.6309000000952,6.0,19.0,199.0,28.0,1.0,1.4,0.7,Time
,,S23,1,女,22,anonymized,Serial_Dependence_U,2023.2.3,Win32,60.60606060606061,,,,,,1859.6310999999048,254.0,6.0,1859.6313000001903,254.0,,,,1863.8305999999045,1864.3300999999044,1863.3139000000951,1863.8305,1860.6483000001904,1863.313800000191,1864.3300999999044,1864.8303000001904,1864.8303000001904,1867.1464000000951,1432.0,1867.1464000000951,2.0,1867.1469000000952,6.0,20.0,200.0,14.0,1.0,1.6,0.3,Time
,,S23,1,女,22,anonymized,Serial_Dependence_U,2023.2.3,Win32,60.60606060606061,,,,,,1867.1473000001904,28.0,6.0,1867.1475,28.0,,,,1871.1130999999043,1871.6124000000952,1870.5984000000951,1871.1130999999043,1868.1630999999045,1870.598199999809,1871.6124000000952,1872.1123000001903,1872.1124000000952,1874.945,2064.0,1874.9450999999044,5.0,1874.9456999998088,6.0,21.0,201.0,8.0,1.0,1.4,0.7,Time
,,S23,1,女,22,anonymized,Serial_Dependence_U,2023.2.3,Win32,60.60606060606061,,,,,,1874.9465999999045,26.0,6.0,1874.9474000000955,26.0,,,,1878.495800000191,1878.9940999999044,1877.9783000001903,1878.4955999999045,1875.9453000001904,1877.9780999999043,1878.9940999999044,1879.4939000000952,1879.4939000000952,1882.061199999809,1950.0,1882.0613000001904,5.0,1882.0616999998088,6.0,22.0,202.0,16.0,1.0,1.0,0.7,Time
,,S23,1,女,22,anonymized,Serial_Dependence_U,2023.2.3,Win32,60.60606060606061,,,,,,1882.062,270.0,6.0,1882.062199999809,270.0,,,,1886.0445999999044,1886.5429000000952,1885.530699999809,1886.0445,1883.0625,1885.5305999999048,1886.5429000000952,1887.0423000001904,1887.0423000001904,1889.2429000000952,1580.0,1889.2429000000952,4.0,1889.2433000001904,6.0,23.0,203.0,23.0,1.0,1.4,0.3,Time
,,S23,1,女,22,anonymized,Serial_Dependence_U,2023.2.3,Win32,60.60606060606061,,,,,,1889.2435,189.0,6.0,1889.2438000001905,189.0,,,,1893.2425,1893.7415999999048,1892.726800000191,1893.2424000000951,1890.259,1892.7266999998087,1893.741699999809,1894.2411999998087,1894.241300000191,1896.7425999999043,1944.0,1896.742699999809,5.0,1896.743,6.0,24.0,204.0,3.0,1.0,1.4,0.3,Time
,,S23,1,女,22,anonymized,Serial_Dependence_U,2023.2.3,Win32,60.60606060606061,,,,,,1896.7436999998088,62.0,6.0,1896.744,62.0,,,,1900.9070999999044,1901.4064000000951,1900.390199999809,1900.907,1897.7584000000952,1900.3900999999048,1901.4064000000951,1901.9066999998088,1901.9066999998088,1904.7575,2503.0,1904.7575,5.0,1904.7578000001904,6.0,25.0,205.0,19.0,1.0,1.6,0.7,Time
,,S23,1,女,22,anonymized,Serial_Dependence_U,2023.2.3,Win32,60.60606060606061,,,,,,1904.7581999998088,352.0,6.0,1904.7588000001904,352.0,,,,1908.2920999999044,1908.7889000000955,1907.7891999998087,1908.2919000000952,1905.756199999809,1907.7890999999045,1908.7889000000955,1909.2888000001903,1909.2889000000955,1911.6551999998087,1896.0,1911.655300000191,5.0,1911.655699999809,6.0,26.0,206.0,26.0,1.0,1.0,0.7,Time
,,S23,1,女,22,anonymized,Serial_Dependence_U,2023.2.3,Win32,60.60606060606061,,,,,,1911.6564000000951,3.0,6.0,1911.657,3.0,,,,1915.054199999809,1915.5555,1914.5403000001909,1915.0540999999048,1912.671699999809,1914.5401999998087,1915.5555,1916.053800000191,1916.053800000191,1918.0381999998087,1473.0,1918.0383000001907,5.0,1918.038699999809,6.0,27.0,207.0,0.0,1.0,0.8,0.3,Time
,,S23,1,女,22,anonymized,Serial_Dependence_U,2023.2.3,Win32,60.60606060606061,,,,,,1918.0394000000952,291.0,6.0,1918.0403000001909,291.0,,,,1921.8209000000952,1922.3195999999043,1921.3050999999043,1921.8208000001905,1919.037699999809,1921.3048000001909,1922.3195999999043,1922.8208000001905,1922.8209000000952,1925.5199000000955,2181.0,1925.5199000000955,5.0,1925.520300000191,6.0,28.0,208.0,22.0,1.0,1.2,0.3,Time
,,S23,1,女,22,anonymized,Serial_Dependence_U,2023.2.3,Win32,60.60606060606061,,,,,,1925.520699999809,14.0,6.0,1925.5211999998087,14.0,,,,1928.886,1929.3854000000952,1928.3690999999044,1928.8858000001903,1926.5359000000951,1928.3689000000952,1929.3854000000952,1929.8860999999044,1929.8861999998087,1931.8873000001904,1585.0,1931.8875,5.0,1931.8890999999048,6.0,29.0,209.0,15.0,1.0,0.8,0.7,Time
,,S23,1,女,22,anonymized,Serial_Dependence_U,2023.2.3,Win32,60.60606060606061,,,,,,1931.891,160.0,7.0,1935.6505,160.0,s,3.73700000000008,,1939.2520999999044,1939.7499000000955,1938.7336999998088,1939.252,1936.6675,1938.7335999999043,1939.75,1940.2493000001905,1940.2493000001905,1942.4825999999048,1550.0,1942.482699999809,5.0,1942.4829000000952,7.0,0.0,210.0,21.0,1.0,1.0,0.3,Time
,,S23,1,女,22,anonymized,Serial_Dependence_U,2023.2.3,Win32,60.60606060606061,,,,,,1942.483199999809,70.0,7.0,1942.4848000001905,70.0,,,,1946.2823000001904,1946.783199999809,1945.7663000001903,1946.2823000001904,1943.4993000001905,1945.766199999809,1946.7833000001904,1947.282,1947.2820999999044,1950.015199999809,1595.0,1950.015199999809,5.0,1950.0155999999045,7.0,1.0,211.0,12.0,1.0,1.2,0.3,Time
,,S23,1,女,22,anonymized,Serial_Dependence_U,2023.2.3,Win32,60.60606060606061,,,,,,1950.016,246.0,7.0,1950.0163000001903,246.0,,,,1953.3815,1953.881199999809,1952.8648000001904,1953.3814000000957,1951.032,1952.864699999809,1953.881199999809,1954.3828000001904,1954.3829000000956,1956.5471999998088,1435.0,1956.5473000001905,5.0,1956.5475999999048,7.0,2.0,212.0,25.0,1.0,0.8,0.7,Time
,,S23,1,女,22,anonymized,Serial_Dependence_U,2023.2.3,Win32,60.60606060606061,,,,,,1956.548,329.0,7.0,1956.5481999998087,329.0,,,,1960.5138000001905,1961.0128000001905,1959.9969000000951,1960.5136999998088,1957.564699999809,1959.996800000191,1961.0128000001905,1961.5146999998087,1961.5149000000952,1964.5128000001905,2501.0,1964.5128000001905,5.0,1964.5133000001904,7.0,3.0,213.0,8.0,1.0,1.4,0.7,Time
,,S23,1,女,22,anonymized,Serial_Dependence_U,2023.2.3,Win32,60.60606060606061,,,,,,1964.5140999999048,120.0,7.0,1964.5145,120.0,,,,1967.9130999999045,1968.4148000001903,1967.395699999809,1967.9130999999045,1965.5290999999045,1967.3955999999048,1968.4148000001903,1968.9120999999045,1968.9120999999045,1970.612199999809,1117.0,1970.6123000001903,5.0,1970.612699999809,7.0,4.0,214.0,0.0,1.0,0.8,0.3,Time
,,S23,1,女,22,anonymized,Serial_Dependence_U,2023.2.3,Win32,60.60606060606061,,,,,,1970.6133000001903,193.0,7.0,1970.6140999999045,193.0,,,,1974.5770999999045,1975.0778000001903,1974.0605,1974.577,1971.6290999999044,1974.0605,1975.0778000001903,1975.5768000001904,1975.5768000001904,1977.7105999999044,1597.0,1977.7105999999044,4.0,1977.7108000001904,7.0,5.0,215.0,18.0,1.0,1.4,0.7,Time
,,S23,1,女,22,anonymized,Serial_Dependence_U,2023.2.3,Win32,60.60606060606061,,,,,,1977.7111999998087,211.0,7.0,1977.7115,211.0,,,,1981.2771999998088,1981.7763000001903,1980.7609000000955,1981.2770999999043,1978.7269000000952,1980.760699999809,1981.7764000000952,1982.2769000000956,1982.2769000000956,1984.5935999999044,1580.0,1984.593699999809,5.0,1984.5940999999043,7.0,6.0,216.0,26.0,1.0,1.0,0.7,Time
,,S23,1,女,22,anonymized,Serial_Dependence_U,2023.2.3,Win32,60.60606060606061,,,,,,1984.5943000001903,219.0,7.0,1984.5945999999044,219.0,,,,1988.5916999998087,1989.0914000000955,1988.0750999999043,1988.5915999999045,1985.6085999999043,1988.075,1989.0914000000955,1989.5919000000952,1989.592,1992.0575,1730.0,1992.0575999999048,4.0,1992.0578000001904,7.0,7.0,217.0,23.0,1.0,1.4,0.3,Time
,,S23,1,女,22,anonymized,Serial_Dependence_U,2023.2.3,Win32,60.60606060606061,,,,,,1992.0581999998087,301.0,7.0,1992.0584000000952,301.0,,,,1996.2239000000957,1996.7245,1995.7074000000955,1996.2235999999043,1993.0736999998087,1995.7071999998093,1996.7245999999045,1997.223199999809,1997.223199999809,1999.4059000000957,1714.0,1999.406,4.0,1999.406199999809,7.0,8.0,218.0,29.0,1.0,1.6,0.7,Time
,,S23,1,女,22,anonymized,Serial_Dependence_U,2023.2.3,Win32,60.60606060606061,,,,,,1999.406400000096,217.0,7.0,1999.4066999998088,217.0,,,,2003.5893000001909,2004.0885999999048,2003.0731999998093,2003.5890999999049,2000.407199999809,2003.0730999999048,2004.0885999999048,2004.5884000000956,2004.5885,2005.1715,121.0,2005.1715999999049,1.0,2005.1720000000005,7.0,9.0,219.0,14.0,1.0,1.6,0.3,Time
,,S23,1,女,22,anonymized,Serial_Dependence_U,2023.2.3,Win32,60.60606060606061,,,,,,2005.1726999998093,234.0,7.0,2005.1730999999047,234.0,,,,2008.7385999999049,2009.2375,2008.221400000096,2008.7385999999049,2006.1885,2008.221400000096,2009.237599999905,2009.738,2009.738,2013.0865999999048,2190.0,2013.0865999999048,5.0,2013.0868000001908,7.0,10.0,220.0,6.0,1.0,1.0,0.7,Time
,,S23,1,女,22,anonymized,Serial_Dependence_U,2023.2.3,Win32,60.60606060606061,,,,,,2013.087,206.0,7.0,2013.087300000191,206.0,,,,2016.6555999999048,2017.1530999999047,2016.1541999998087,2016.655300000191,2014.087300000191,2016.154099999905,2017.1530999999047,2017.6530999999047,2017.6530999999047,2019.868900000096,1898.0,2019.868900000096,5.0,2019.8690999999048,7.0,11.0,221.0,1.0,1.0,1.0,0.3,Time
,,S23,1,女,22,anonymized,Serial_Dependence_U,2023.2.3,Win32,60.60606060606061,,,,,,2019.8694000000955,120.0,7.0,2019.8695999999047,120.0,,,,2023.6186999998088,2024.1194000000955,2023.1023000001908,2023.6185000000005,2020.8710999999048,2023.1021999998093,2024.1194000000955,2024.6186999998088,2024.618800000191,2027.350900000096,2320.0,2027.350900000096,5.0,2027.351300000191,7.0,12.0,222.0,17.0,1.0,1.2,0.7,Time
,,S23,1,女,22,anonymized,Serial_Dependence_U,2023.2.3,Win32,60.60606060606061,,,,,,2027.3516999998092,112.0,7.0,2027.3520999999048,112.0,,,,2030.7540999999048,2031.250400000096,2030.2345999999045,2030.754,2028.368400000096,2030.2345000000005,2031.250400000096,2031.7505999999048,2031.7506999998093,2034.7164000000955,2289.0,2034.7165,5.0,2034.716800000191,7.0,13.0,223.0,20.0,1.0,0.8,0.3,Time
,,S23,1,女,22,anonymized,Serial_Dependence_U,2023.2.3,Win32,60.60606060606061,,,,,,2034.7170999999048,131.0,7.0,2034.7174000000955,131.0,,,,2038.2825,2038.7824000000955,2037.7685,2038.2824000000955,2035.7333000001904,2037.768400000096,2038.7824000000955,2039.2823000001904,2039.2824000000955,2042.4490999999043,2288.0,2042.449300000191,5.0,2042.4504000000957,7.0,14.0,224.0,16.0,1.0,1.0,0.7,Time
,,S23,1,女,22,anonymized,Serial_Dependence_U,2023.2.3,Win32,60.60606060606061,,,,,,2042.4519000000955,260.0,7.0,2042.4523000001907,260.0,,,,2046.6328000001904,2047.1321999998088,2046.1309000000956,2046.6326999998091,2043.464800000191,2046.130800000191,2047.132300000191,2047.6309000000956,2047.6309000000956,2050.1805000000004,1896.0,2050.180599999905,4.0,2050.180800000191,7.0,15.0,225.0,24.0,1.0,1.6,0.3,Time
,,S23,1,女,22,anonymized,Serial_Dependence_U,2023.2.3,Win32,60.60606060606061,,,,,,2050.181199999809,245.0,7.0,2050.1816999998096,245.0,,,,2053.7815000000005,2054.2799000000955,2053.264599999905,2053.781300000191,2051.196900000096,2053.2645,2054.28,2054.78,2054.780099999905,2056.262800000191,1020.0,2056.262900000096,3.0,2056.263300000191,7.0,16.0,226.0,11.0,1.0,1.0,0.3,Time
,,S23,1,女,22,anonymized,Serial_Dependence_U,2023.2.3,Win32,60.60606060606061,,,,,,2056.2635999999047,159.0,7.0,2056.264,159.0,,,,2060.429599999905,2060.929800000191,2059.912300000191,2060.429599999905,2057.2798000001912,2059.9121999998097,2060.929800000191,2061.427900000096,2061.4280000000003,2062.944800000191,1482.0,2062.9449000000955,2.0,2062.945099999905,7.0,17.0,227.0,9.0,1.0,1.6,0.7,Time
,,S23,1,女,22,anonymized,Serial_Dependence_U,2023.2.3,Win32,60.60606060606061,,,,,,2062.945400000096,222.0,7.0,2062.945599999905,222.0,,,,2067.1116999998094,2067.6111999998097,2066.595300000191,2067.111599999905,2063.9476999998096,2066.5951999998097,2067.6111999998097,2068.111599999905,2068.1116999998094,2070.4293000001912,1957.0,2070.4295,4.0,2070.4305000000004,7.0,18.0,228.0,19.0,1.0,1.6,0.7,Time
,,S23,1,女,22,anonymized,Serial_Dependence_U,2023.2.3,Win32,60.60606060606061,,,,,,2070.4316999998096,9.0,7.0,2070.4325000000003,9.0,,,,2074.2263000001917,2074.725800000191,2073.7109000000955,2074.2263000001917,2071.443,2073.710800000191,2074.725800000191,2075.226,2075.226,2076.7441999998096,1134.0,2076.7441999998096,2.0,2076.744900000096,7.0,19.0,229.0,22.0,1.0,1.2,0.3,Time
,,S23,1,女,22,anonymized,Serial_Dependence_U,2023.2.3,Win32,60.60606060606061,,,,,,2076.745400000096,112.0,7.0,2076.745900000096,112.0,,,,2080.726800000191,2081.224800000191,2080.2136999998097,2080.726800000191,2077.7435999999047,2080.213099999905,2081.224900000096,2081.725800000191,2081.725900000096,2083.9741999998096,1930.0,2083.9741999998096,5.0,2083.9745000000003,7.0,20.0,230.0,3.0,1.0,1.4,0.3,Time
,,S23,1,女,22,anonymized,Serial_Dependence_U,2023.2.3,Win32,60.60606060606061,,,,,,2083.974900000096,49.0,7.0,2083.97519999981,49.0,,,,2087.358,2087.857099999905,2086.840800000191,2087.357800000191,2084.974900000096,2086.840800000191,2087.857099999905,2088.356800000191,2088.356800000191,2090.3735,1699.0,2090.3735,5.0,2090.373800000191,7.0,21.0,231.0,10.0,1.0,0.8,0.3,Time
,,S23,1,女,22,anonymized,Serial_Dependence_U,2023.2.3,Win32,60.60606060606061,,,,,,2090.374300000191,143.0,7.0,2090.3745000000004,143.0,,,,2094.3425,2094.839099999905,2093.839800000191,2094.3424000000955,2091.3740000000003,2093.839699999809,2094.83919999981,2095.338599999905,2095.338599999905,2097.4056999998097,1794.0,2097.405800000191,4.0,2097.406300000191,7.0,22.0,232.0,13.0,1.0,1.4,0.3,Time
,,S23,1,女,22,anonymized,Serial_Dependence_U,2023.2.3,Win32,60.60606060606061,,,,,,2097.406800000191,103.0,7.0,2097.407300000191,103.0,,,,2100.756800000191,2101.2546999998094,2100.239199999809,2100.756599999905,2098.405599999905,2100.2390000000005,2101.2546999998094,2101.754599999905,2101.754599999905,2104.1045000000004,2066.0,2104.1045000000004,5.0,2104.104900000096,7.0,23.0,233.0,5.0,1.0,0.8,0.7,Time
,,S23,1,女,22,anonymized,Serial_Dependence_U,2023.2.3,Win32,60.60606060606061,,,,,,2104.105400000096,26.0,7.0,2104.1058000001917,26.0,,,,2107.853800000191,2108.3534000000955,2107.3385000000003,2107.8536999998096,2105.1045000000004,2107.338300000191,2108.3535,2108.8530999999048,2108.853199999809,2111.120400000096,2021.0,2111.1205000000004,5.0,2111.121099999905,7.0,24.0,234.0,27.0,1.0,1.2,0.7,Time
,,S23,1,女,22,anonymized,Serial_Dependence_U,2023.2.3,Win32,60.60606060606061,,,,,,2111.1215,108.0,7.0,2111.1220000000003,108.0,,,,2115.087300000191,2115.585300000191,2114.5699000000955,2115.087099999905,2112.136400000096,2114.569699999809,2115.585400000096,2116.0850999999047,2116.0850999999047,2119.0686999998097,2675.0,2119.068800000191,5.0,2119.0691999998094,7.0,25.0,235.0,28.0,1.0,1.4,0.7,Time
,,S23,1,女,22,anonymized,Serial_Dependence_U,2023.2.3,Win32,60.60606060606061,,,,,,2119.0695999999048,323.0,7.0,2119.069800000191,323.0,,,,2123.2354000000955,2123.735099999905,2122.7345000000005,2123.235199999809,2120.069099999905,2122.734400000096,2123.735199999809,2124.234900000096,2124.234900000096,2127.633599999905,3096.0,2127.633599999905,5.0,2127.633900000096,7.0,26.0,236.0,4.0,1.0,1.6,0.3,Time
,,S23,1,女,22,anonymized,Serial_Dependence_U,2023.2.3,Win32,60.60606060606061,,,,,,2127.634300000191,249.0,7.0,2127.634599999905,249.0,,,,2131.4005,2131.900199999809,2130.8830000000003,2131.4004000000955,2128.6365000000005,2130.882900000096,2131.900199999809,2132.3995000000004,2132.399599999905,2134.8816999998094,2303.0,2134.881800000191,5.0,2134.8820999999048,7.0,27.0,237.0,7.0,1.0,1.2,0.7,Time
,,S23,1,女,22,anonymized,Serial_Dependence_U,2023.2.3,Win32,60.60606060606061,,,,,,2134.882300000191,126.0,7.0,2134.8825,126.0,,,,2138.6666999998097,2139.1645000000003,2138.165800000191,2138.666599999905,2135.899900000096,2138.165800000191,2139.164599999905,2139.6655000000005,2139.6655999999048,2141.5155000000004,1552.0,2141.515599999905,4.0,2141.515900000096,7.0,28.0,238.0,2.0,1.0,1.2,0.3,Time
,,S23,1,女,22,anonymized,Serial_Dependence_U,2023.2.3,Win32,60.60606060606061,,,,,,2141.516300000191,166.0,7.0,2141.516800000191,166.0,,,,2144.881099999905,2145.3803000001917,2144.364400000096,2144.8810000000003,2142.530900000096,2144.364300000191,2145.3803000001917,2145.8804000000955,2145.8805,2147.5470999999047,1498.0,2147.547199999809,5.0,2147.547699999809,7.0,29.0,239.0,15.0,1.0,0.8,0.7,Time
,,S23,1,女,22,anonymized,Serial_Dependence_U,2023.2.3,Win32,60.60606060606061,,,,,,2147.548300000191,151.0,8.0,2151.597,151.0,s,4.028899999618261,,2154.983099999905,2155.4780000000005,2154.4791999998097,2154.9829000000955,2152.6124000000955,2154.4790000000003,2155.4780000000005,2155.9780999999048,2155.9780999999048,2157.4125000000004,984.0,2157.41269999981,4.0,2157.4138000001917,8.0,0.0,240.0,10.0,1.0,0.8,0.3,Time
,,S23,1,女,22,anonymized,Serial_Dependence_U,2023.2.3,Win32,60.60606060606061,,,,,,2157.415300000191,201.0,8.0,2157.419300000191,201.0,,,,2161.411400000096,2161.9101999998097,2160.894900000096,2161.411300000191,2158.428300000191,2160.8946999998097,2161.910300000191,2162.411599999905,2162.411599999905,2163.793800000191,1332.0,2163.794099999905,3.0,2163.794599999905,8.0,1.0,241.0,13.0,1.0,1.4,0.3,Time
,,S23,1,女,22,anonymized,Serial_Dependence_U,2023.2.3,Win32,60.60606060606061,,,,,,2163.7955,14.0,8.0,2163.795900000096,14.0,,,,2167.3604000000955,2167.8605,2166.843900000096,2167.3603000001917,2164.812900000096,2166.843900000096,2167.860599999905,2168.361400000096,2168.3615000000004,2170.192599999905,1499.0,2170.1928000001917,5.0,2170.193300000191,8.0,2.0,242.0,6.0,1.0,1.0,0.7,Time
,,S23,1,女,22,anonymized,Serial_Dependence_U,2023.2.3,Win32,60.60606060606061,,,,,,2170.194099999905,188.0,8.0,2170.194300000191,188.0,,,,2173.775199999809,2174.2760000000003,2173.266199999809,2173.775099999905,2171.199300000191,2173.2660000000005,2174.276099999905,2174.775,2174.775,2176.557900000096,1371.0,2176.558099999905,5.0,2176.558300000191,8.0,3.0,243.0,1.0,1.0,1.0,0.3,Time
,,S23,1,女,22,anonymized,Serial_Dependence_U,2023.2.3,Win32,60.60606060606061,,,,,,2176.559,198.0,8.0,2176.559599999905,198.0,,,,2180.560800000191,2181.057400000096,2180.042300000191,2180.560699999809,2177.5745,2180.04219999981,2181.057599999905,2181.557900000096,2181.5580000000004,2189.039800000191,1598.0,2189.0400000000004,4.0,2189.040300000191,8.0,4.0,244.0,23.0,1.0,1.4,0.3,Time
,,S23,1,女,22,anonymized,Serial_Dependence_U,2023.2.3,Win32,60.60606060606061,,,,,,2189.0405999999048,232.0,8.0,2189.041099999905,232.0,,,,2192.590099999905,2193.089099999905,2192.073800000191,2192.59,2190.0395000000003,2192.073599999905,2193.089099999905,2193.5895000000005,2193.5895999999047,2195.672300000191,1630.0,2195.6725,5.0,2195.672699999809,8.0,5.0,245.0,26.0,1.0,1.0,0.7,Time
,,S23,1,女,22,anonymized,Serial_Dependence_U,2023.2.3,Win32,60.60606060606061,,,,,,2195.6731999998096,67.0,8.0,2195.6735000000003,67.0,,,,2199.275599999905,2199.771900000096,2198.755900000096,2199.275099999905,2196.6891999998097,2198.7556999998096,2199.7720000000004,2200.2705000000005,2200.270599999905,2202.420199999809,1763.0,2202.420199999809,5.0,2202.4204000000955,8.0,6.0,246.0,11.0,1.0,1.0,0.3,Time
,,S23,1,女,22,anonymized,Serial_Dependence_U,2023.2.3,Win32,60.60606060606061,,,,,,2202.420800000191,301.0,8.0,2202.4210000000003,301.0,,,,2206.6036999998096,2207.102599999905,2206.102599999905,2206.6035,2203.4386999998096,2206.1025000000004,2207.1026999998094,2207.602400000096,2207.6025000000004,2210.085699999809,2116.0,2210.085800000191,5.0,2210.086099999905,8.0,7.0,247.0,24.0,1.0,1.6,0.3,Time
,,S23,1,女,22,anonymized,Serial_Dependence_U,2023.2.3,Win32,60.60606060606061,,,,,,2210.0865000000003,114.0,8.0,2210.086800000191,114.0,,,,2213.8350999999047,2214.334800000191,2213.3185000000003,2213.8350000000005,2211.085699999809,2213.318400000096,2214.334800000191,2214.834300000191,2214.834300000191,2217.7173000001912,2184.0,2217.7173000001912,5.0,2217.717599999905,8.0,8.0,248.0,7.0,1.0,1.2,0.7,Time
,,S23,1,女,22,anonymized,Serial_Dependence_U,2023.2.3,Win32,60.60606060606061,,,,,,2217.717900000096,98.0,8.0,2217.7181999998097,98.0,,,,2221.067099999905,2221.5678000001917,2220.551900000096,2221.067099999905,2218.7190000000005,2220.5515999999047,2221.5678000001917,2222.067400000096,2222.067400000096,2224.8161999998097,2107.0,2224.816300000191,5.0,2224.8165000000004,8.0,9.0,249.0,5.0,1.0,0.8,0.7,Time
,,S23,1,女,22,anonymized,Serial_Dependence_U,2023.2.3,Win32,60.60606060606061,,,,,,2224.816900000096,262.0,8.0,2224.8171999998094,262.0,,,,2228.9656999998097,2229.466099999905,2228.448800000191,2228.9656999998097,2225.8178000001917,2228.4486999998094,2229.466099999905,2229.967099999905,2229.967199999809,2232.647900000096,2272.0,2232.648,5.0,2232.648300000191,8.0,10.0,250.0,19.0,1.0,1.6,0.7,Time
,,S23,1,女,22,anonymized,Serial_Dependence_U,2023.2.3,Win32,60.60606060606061,,,,,,2232.6485,153.0,8.0,2232.648900000096,153.0,,,,2235.9996999998098,2236.496900000096,2235.497599999905,2235.999400000096,2233.6510000000003,2235.4975000000004,2236.4970000000003,2236.9980999999048,2236.9980999999048,2238.9485000000004,1589.0,2238.9486999998094,5.0,2238.949099999905,8.0,11.0,251.0,25.0,1.0,0.8,0.7,Time
