Scale_setup.started,Scale_setup.stopped,participant,session,sex,age,date,expName,psychopyVersion,OS,frameRate,Intro.started,Intro.stopped,key_resp_2.keys,key_resp_2.rt,key_resp_2.duration,block.started,direction,Block_id,block.stopped,trial_direction,Block_resp_2.keys,Block_resp_2.rt,Block_resp_2.duration,ITI.started,ITI.stopped,Mask_2.started,Mask_2.stopped,encoding.started,encoding.stopped,Cue.started,Cue.stopped,Response.started,Response.stopped,keyDuration,Feedback_Time.started,FeedbackID_T,Feedback_Time.stopped,trials.thisRepN,trials.thisTrialN,trials.thisN,trials.thisIndex,trials.ran,TimeDur,Coherence1,TrialType
9.99999642345e-05,0.0001999999880837,S24,1,男,19,anonymized,Serial_Dependence_U,2023.2.3,Win32,60.60606060606061,,,,,,,,,,,,,,,,,,,,,,,,,,,,,,,,,,,
,,S24,1,男,19,anonymized,Serial_Dependence_U,2023.2.3,Win32,60.60606060606061,49.819199999988086,96.3305,space,46.48439999997613,,,,,,,,,,,,,,,,,,,,,,,,,,,,,,,
,,S24,1,男,19,anonymized,Serial_Dependence_U,2023.2.3,Win32,60.60606060606061,,,,,,96.33539999997616,250.0,0.0,102.3872999999523,250.0,s,5.9922999999523086,,105.7347999999523,106.22679999995232,105.2262999999523,105.73459999996425,103.38869999998808,105.22619999998808,106.227,106.71959999996422,106.71979999995231,108.50829999995231,534.0,108.50859999996425,1.0,109.50929999995232,0.0,0.0,0.0,5.0,1.0,0.8,0.7,Time
,,S24,1,男,19,anonymized,Serial_Dependence_U,2023.2.3,Win32,60.60606060606061,,,,,,109.51009999996424,341.0,0.0,109.5115,341.0,,,,113.0545,113.5465,112.54569999998806,113.05439999997616,110.51059999996424,112.54559999996424,113.5465,114.03889999997617,114.03889999997617,115.58199999999998,909.0,115.58209999996424,2.0,116.58559999996424,0.0,1.0,1.0,26.0,1.0,1.0,0.7,Time
,,S24,1,男,19,anonymized,Serial_Dependence_U,2023.2.3,Win32,60.60606060606061,,,,,,116.58589999997616,6.0,0.0,116.58589999997616,6.0,,,,120.53829999995232,121.0305,120.03519999998808,120.53819999998808,117.59059999996424,120.03509999996425,121.03059999996422,121.52289999997616,121.52289999997616,122.26519999998808,580.0,122.26519999998808,1.0,123.26239999997615,0.0,2.0,2.0,8.0,1.0,1.4,0.7,Time
,,S24,1,男,19,anonymized,Serial_Dependence_U,2023.2.3,Win32,60.60606060606061,,,,,,123.26269999998809,213.0,0.0,123.26279999995232,213.0,,,,127.41499999999998,127.90719999998808,126.90659999996424,127.41489999997616,124.2657999999523,126.90659999996424,127.90719999998808,128.3995,128.3995,129.17089999997614,692.0,129.171,1.0,130.17289999997615,0.0,3.0,3.0,9.0,1.0,1.6,0.7,Time
,,S24,1,男,19,anonymized,Serial_Dependence_U,2023.2.3,Win32,60.60606060606061,,,,,,130.17319999998807,27.0,0.0,130.1732999999523,27.0,,,,134.35739999997617,134.84949999999998,133.84889999997614,134.35739999997617,131.17869999998803,133.8487999999523,134.84959999996423,135.34219999998805,135.34229999995233,137.08139999997616,875.0,137.0815,1.0,138.08269999998805,0.0,4.0,4.0,14.0,1.0,1.6,0.3,Time
,,S24,1,男,19,anonymized,Serial_Dependence_U,2023.2.3,Win32,60.60606060606061,,,,,,138.08309999996425,163.0,0.0,138.0831999999881,163.0,,,,142.05789999997614,142.54669999998805,141.54919999998805,142.05789999997614,139.0837999999523,141.54909999996426,142.54669999998805,143.04179999995233,143.04189999997612,144.4840999999642,659.0,144.48419999998805,1.0,145.48439999997618,0.0,5.0,5.0,3.0,1.0,1.4,0.3,Time
,,S24,1,男,19,anonymized,Serial_Dependence_U,2023.2.3,Win32,60.60606060606061,,,,,,145.48489999997616,185.0,0.0,145.48509999996423,185.0,,,,149.25959999996422,149.75149999999996,148.75099999999998,149.2595,146.486,148.75089999997613,149.75149999999996,150.24409999996425,150.24409999996425,151.5415999999642,500.0,151.54169999998803,1.0,152.54149999999998,0.0,6.0,6.0,12.0,1.0,1.2,0.3,Time
,,S24,1,男,19,anonymized,Serial_Dependence_U,2023.2.3,Win32,60.60606060606061,,,,,,152.54189999997612,270.0,0.0,152.54219999998804,270.0,,,,156.28469999998805,156.7756999999881,155.77529999995232,156.28459999996426,153.543,155.77519999998805,156.7756999999881,157.26829999995232,157.26839999997617,158.81139999997615,885.0,158.81149999999997,2.0,159.81209999996423,0.0,7.0,7.0,27.0,1.0,1.2,0.7,Time
,,S24,1,男,19,anonymized,Serial_Dependence_U,2023.2.3,Win32,60.60606060606061,,,,,,159.8125,105.0,0.0,159.81259999996422,105.0,,,,163.35769999998809,163.8501999999881,162.8487999999523,163.35759999996424,160.81339999997613,162.84869999998807,163.8501999999881,164.3417999999523,164.3417999999523,164.99879999995233,197.0,164.99899999999997,1.0,165.99959999996423,0.0,8.0,8.0,16.0,1.0,1.0,0.7,Time
,,S24,1,男,19,anonymized,Serial_Dependence_U,2023.2.3,Win32,60.60606060606061,,,,,,165.99989999997615,278.0,0.0,166.0,278.0,,,,169.57799999999995,170.07039999997613,169.0692999999523,169.57789999997613,167.00069999998806,169.0691999999881,170.07039999997613,170.56219999998808,170.5622999999523,172.08919999998807,805.0,172.0892999999523,2.0,173.08989999997613,0.0,9.0,9.0,1.0,1.0,1.0,0.3,Time
,,S24,1,男,19,anonymized,Serial_Dependence_U,2023.2.3,Win32,60.60606060606061,,,,,,173.09039999997617,294.0,0.0,173.09050000000002,294.0,,,,176.6676999999881,177.16059999996423,176.15959999996426,176.66759999996424,174.09119999998808,176.15949999999998,177.16059999996423,177.65219999998806,177.65229999995233,178.80179999995232,590.0,178.80199999999996,1.0,179.80239999997616,0.0,10.0,10.0,11.0,1.0,1.0,0.3,Time
,,S24,1,男,19,anonymized,Serial_Dependence_U,2023.2.3,Win32,60.60606060606061,,,,,,179.80289999997615,233.0,0.0,179.803,233.0,,,,183.7742999999523,184.2667999999523,183.26539999997613,183.77419999998807,180.80369999998803,183.26529999995236,184.2667999999523,184.7586999999881,184.7586999999881,186.10469999998804,824.0,186.10469999998804,1.0,187.10539999997616,0.0,11.0,11.0,13.0,1.0,1.4,0.3,Time
,,S24,1,男,19,anonymized,Serial_Dependence_U,2023.2.3,Win32,60.60606060606061,,,,,,187.1057999999523,111.0,0.0,187.10589999997612,111.0,,,,191.07769999998808,191.56989999997612,190.56909999996424,191.0775999999642,188.10739999997617,190.569,191.57,192.06189999997616,192.062,193.32569999998805,587.0,193.32579999995232,1.0,194.3267999999523,0.0,12.0,12.0,23.0,1.0,1.4,0.3,Time
,,S24,1,男,19,anonymized,Serial_Dependence_U,2023.2.3,Win32,60.60606060606061,,,,,,194.3272999999523,279.0,0.0,194.3275,279.0,,,,198.2665,198.7580999999642,197.7592999999523,198.26639999997616,195.3285,197.7592999999523,198.7580999999642,199.251,199.25109999996425,200.6132999999523,890.0,200.6133999999761,1.0,201.6135,0.0,13.0,13.0,18.0,1.0,1.4,0.7,Time
,,S24,1,男,19,anonymized,Serial_Dependence_U,2023.2.3,Win32,60.60606060606061,,,,,,201.61389999997613,277.0,0.0,201.614,277.0,,,,205.3722999999523,205.86459999996424,204.86389999997613,205.37209999996423,202.6185999999642,204.86379999995236,205.8646999999881,206.35669999998805,206.35669999998805,207.21059999996424,805.0,207.2106999999881,1.0,208.2112999999523,0.0,14.0,14.0,17.0,1.0,1.2,0.7,Time
,,S24,1,男,19,anonymized,Serial_Dependence_U,2023.2.3,Win32,60.60606060606061,,,,,,208.2117999999523,125.0,0.0,208.2118999999761,125.0,,,,211.7895999999642,212.2821999999881,211.2815,211.7895,209.213,211.2815,212.2821999999881,212.7737999999524,212.7738999999762,214.38229999995235,1305.0,214.3823999999762,5.0,215.38339999997615,0.0,15.0,15.0,21.0,1.0,1.0,0.3,Time
,,S24,1,男,19,anonymized,Serial_Dependence_U,2023.2.3,Win32,60.60606060606061,,,,,,215.3836999999881,229.0,0.0,215.3837999999524,229.0,,,,219.5686999999881,220.0608999999762,219.0600000000001,219.56850000000003,216.3848999999762,219.0598999999762,220.0608999999762,220.55300000000005,220.55300000000005,222.5717999999524,1232.0,222.5718999999762,2.0,223.57309999996423,0.0,16.0,16.0,4.0,1.0,1.6,0.3,Time
,,S24,1,男,19,anonymized,Serial_Dependence_U,2023.2.3,Win32,60.60606060606061,,,,,,223.5735,275.0,0.0,223.57359999996424,275.0,,,,226.9537999999524,227.4462999999524,226.44559999996423,226.9536999999881,224.5741999999881,226.4453999999762,227.4462999999524,227.9386999999881,227.9386999999881,229.61239999997625,936.0,229.61239999997625,4.0,230.6136999999881,0.0,17.0,17.0,20.0,1.0,0.8,0.3,Time
,,S24,1,男,19,anonymized,Serial_Dependence_U,2023.2.3,Win32,60.60606060606061,,,,,,230.61389999997616,182.0,0.0,230.61409999996425,182.0,,,,233.96229999995236,234.454,233.4531999999881,233.9621999999881,231.6151999999881,233.45309999996425,234.45409999996428,234.9462999999524,234.9462999999524,236.9651999999881,1055.0,236.9651999999881,5.0,237.9661999999881,0.0,18.0,18.0,25.0,1.0,0.8,0.7,Time
,,S24,1,男,19,anonymized,Serial_Dependence_U,2023.2.3,Win32,60.60606060606061,,,,,,237.96650000000005,52.0,0.0,237.96669999998807,52.0,,,,241.3476999999881,241.83929999995237,240.83929999995237,241.34759999996425,238.9677999999524,240.83919999998813,241.83929999995237,242.3318999999762,242.3318999999762,243.76000000000005,977.0,243.76009999996427,4.0,244.7615999999643,0.0,19.0,19.0,0.0,1.0,0.8,0.3,Time
,,S24,1,男,19,anonymized,Serial_Dependence_U,2023.2.3,Win32,60.60606060606061,,,,,,244.7618999999762,258.0,0.0,244.76200000000009,258.0,,,,248.72009999996425,249.2085999999643,248.2087999999524,248.72000000000003,245.76279999995236,248.2086999999881,249.2086999999881,249.70139999997625,249.70139999997625,251.5065999999643,1188.0,251.5066999999881,2.0,252.5073999999762,0.0,20.0,20.0,28.0,1.0,1.4,0.7,Time
,,S24,1,男,19,anonymized,Serial_Dependence_U,2023.2.3,Win32,60.60606060606061,,,,,,252.5078999999762,284.0,0.0,252.50800000000004,284.0,,,,256.2825,256.79100000000005,255.77729999995236,256.2825,253.509,255.7771999999881,256.79100000000005,257.2830999999643,257.28319999998814,258.7768999999762,1318.0,258.7768999999762,4.0,259.77789999997617,0.0,21.0,21.0,22.0,1.0,1.2,0.3,Time
,,S24,1,男,19,anonymized,Serial_Dependence_U,2023.2.3,Win32,60.60606060606061,,,,,,259.7782999999524,98.0,0.0,259.7785,98.0,,,,263.9668999999762,264.4553999999762,263.4546999999881,263.96679999995234,260.7826999999881,263.4546999999881,264.4553999999762,264.9476999999881,264.9476999999881,266.5661999999881,1040.0,266.5662999999524,1.0,267.5572999999524,0.0,22.0,22.0,24.0,1.0,1.6,0.3,Time
,,S24,1,男,19,anonymized,Serial_Dependence_U,2023.2.3,Win32,60.60606060606061,,,,,,267.55779999995235,2.0,0.0,267.55800000000005,2.0,,,,271.7131999999881,272.20169999998814,271.2043999999762,271.7130999999643,268.5586999999881,271.20429999995235,272.20169999998814,272.69389999997617,272.694,274.5157999999524,1292.0,274.5157999999524,2.0,275.51750000000004,0.0,23.0,23.0,19.0,1.0,1.6,0.7,Time
,,S24,1,男,19,anonymized,Serial_Dependence_U,2023.2.3,Win32,60.60606060606061,,,,,,275.5177999999524,142.0,0.0,275.5177999999524,142.0,,,,279.6696999999881,280.1622999999523,279.1608999999762,279.66959999996425,276.5185999999643,279.1607999999524,280.1622999999523,280.6543999999762,280.6543999999762,282.55769999998813,1467.0,282.55779999995235,2.0,283.5587999999523,0.0,24.0,24.0,29.0,1.0,1.6,0.7,Time
,,S24,1,男,19,anonymized,Serial_Dependence_U,2023.2.3,Win32,60.60606060606061,,,,,,283.5591999999881,277.0,0.0,283.5592999999524,277.0,,,,286.9072999999524,287.39950000000005,286.39900000000006,286.9071999999881,284.56100000000004,286.3988999999762,287.39950000000005,287.89229999995234,287.89229999995234,289.0898999999762,697.0,289.0898999999762,2.0,290.0906999999881,0.0,25.0,25.0,15.0,1.0,0.8,0.7,Time
,,S24,1,男,19,anonymized,Serial_Dependence_U,2023.2.3,Win32,60.60606060606061,,,,,,290.091,266.0,0.0,290.0910999999643,266.0,,,,293.4721999999881,293.9646999999881,292.9635,293.4721999999881,291.09250000000003,292.9633999999762,293.96479999995233,294.4561999999881,294.4561999999881,296.11409999996425,896.0,296.11409999996425,4.0,297.1152999999524,0.0,26.0,26.0,10.0,1.0,0.8,0.3,Time
,,S24,1,男,19,anonymized,Serial_Dependence_U,2023.2.3,Win32,60.60606060606061,,,,,,297.11579999995234,339.0,0.0,297.1158999999762,339.0,,,,300.8912999999524,301.38259999996427,300.3815,300.8910999999643,298.1170999999643,300.3815,301.3826999999881,301.8753999999762,301.8753999999762,303.4186999999881,1133.0,303.4186999999881,2.0,304.4195,0.0,27.0,27.0,2.0,1.0,1.2,0.3,Time
,,S24,1,男,19,anonymized,Serial_Dependence_U,2023.2.3,Win32,60.60606060606061,,,,,,304.4200999999643,358.0,0.0,304.4201999999881,358.0,,,,308.1611999999881,308.65289999997617,307.65250000000003,308.1610999999643,305.4202999999524,307.6523999999762,308.653,309.1453999999762,309.1455,310.49150000000003,1056.0,310.49150000000003,2.0,311.4950999999643,0.0,28.0,28.0,7.0,1.0,1.2,0.7,Time
,,S24,1,男,19,anonymized,Serial_Dependence_U,2023.2.3,Win32,60.60606060606061,,,,,,311.49579999995234,138.0,0.0,311.49600000000004,138.0,,,,315.0377999999524,315.5296999999881,314.52950000000004,315.0376999999881,312.49359999996426,314.52929999995234,315.5296999999881,316.0221999999881,316.02229999995234,317.4510999999643,1003.0,317.4510999999643,3.0,318.4508999999762,0.0,29.0,29.0,6.0,1.0,1.0,0.7,Time
,,S24,1,男,19,anonymized,Serial_Dependence_U,2023.2.3,Win32,60.60606060606061,,,,,,318.4513999999762,338.0,1.0,333.5335999999643,338.0,s,15.07230000001192,,337.2922999999524,337.7841999999881,336.78319999998814,337.2922999999524,334.5405999999643,336.78319999998814,337.7841999999881,338.27650000000006,338.2765999999643,340.06579999995233,1330.0,340.06579999995233,4.0,340.06609999996425,1.0,0.0,30.0,17.0,1.0,1.2,0.7,Time
,,S24,1,男,19,anonymized,Serial_Dependence_U,2023.2.3,Win32,60.60606060606061,,,,,,340.0661999999881,76.0,1.0,340.0667999999524,76.0,,,,343.4465999999643,343.9387999999523,342.9376999999881,343.4465,341.0667999999524,342.9376999999881,343.9387999999523,344.4311999999881,344.4312999999524,345.3013999999762,411.0,345.3013999999762,1.0,345.30159999996425,1.0,1.0,31.0,0.0,1.0,0.8,0.3,Time
,,S24,1,男,19,anonymized,Serial_Dependence_U,2023.2.3,Win32,60.60606060606061,,,,,,345.3017999999523,299.0,1.0,345.3018999999762,299.0,,,,348.6493999999762,349.14200000000005,348.1415,348.64929999995235,346.3025999999643,348.1413999999762,349.14200000000005,349.6337999999524,349.63389999997617,350.91409999996426,871.0,350.9141999999881,4.0,350.9143999999762,1.0,2.0,32.0,15.0,1.0,0.8,0.7,Time
,,S24,1,男,19,anonymized,Serial_Dependence_U,2023.2.3,Win32,60.60606060606061,,,,,,350.9146999999881,31.0,1.0,350.9146999999881,31.0,,,,354.26229999995235,354.7543999999762,353.75350000000003,354.2621999999881,351.91629999995234,353.75350000000003,354.7543999999762,355.24659999996425,355.2466999999881,356.4782999999524,803.0,356.47850000000005,3.0,356.4786999999881,1.0,3.0,33.0,25.0,1.0,0.8,0.7,Time
,,S24,1,男,19,anonymized,Serial_Dependence_U,2023.2.3,Win32,60.60606060606061,,,,,,356.47900000000004,344.0,1.0,356.47909999996426,344.0,,,,360.2208999999762,360.71259999996425,359.71150000000006,360.2207999999524,357.4793999999762,359.7113999999762,360.71259999996425,361.2046999999881,361.2046999999881,362.51759999996426,994.0,362.5176999999881,2.0,362.5178999999762,1.0,4.0,34.0,7.0,1.0,1.2,0.7,Time
,,S24,1,男,19,anonymized,Serial_Dependence_U,2023.2.3,Win32,60.60606060606061,,,,,,362.5181999999881,34.0,1.0,362.5182999999524,34.0,,,,366.4891999999881,366.98159999996426,365.984,366.48909999996425,363.5191999999881,365.9838999999762,366.98159999996426,367.4735999999643,367.4735999999643,368.5896999999881,728.0,368.58979999995233,1.0,368.59009999996425,1.0,5.0,35.0,23.0,1.0,1.4,0.3,Time
,,S24,1,男,19,anonymized,Serial_Dependence_U,2023.2.3,Win32,60.60606060606061,,,,,,368.5905,69.0,1.0,368.5906999999881,69.0,,,,372.7746999999881,373.2671999999881,372.26979999995234,372.7746999999881,369.5952999999524,372.2696999999881,373.2671999999881,373.7597999999524,373.7597999999524,375.30269999998814,1221.0,375.30269999998814,2.0,375.30300000000005,1.0,6.0,36.0,4.0,1.0,1.6,0.3,Time
,,S24,1,男,19,anonymized,Serial_Dependence_U,2023.2.3,Win32,60.60606060606061,,,,,,375.30329999995234,236.0,1.0,375.3035,236.0,,,,378.8803999999762,379.3726999999881,378.3752999999524,378.8803999999762,376.3070999999643,378.3750999999643,379.3726999999881,379.8648999999762,379.865,380.8698999999762,673.0,380.8698999999762,1.0,380.8700999999643,1.0,7.0,37.0,11.0,1.0,1.0,0.3,Time
,,S24,1,男,19,anonymized,Serial_Dependence_U,2023.2.3,Win32,60.60606060606061,,,,,,380.8702999999524,130.0,1.0,380.8703999999762,130.0,,,,384.41429999995233,384.9062999999524,383.9077999999524,384.4141999999881,381.8705999999642,383.9076999999881,384.9062999999524,385.3981999999881,385.3981999999881,387.0535,1235.0,387.0535,4.0,387.05379999995233,1.0,8.0,38.0,6.0,1.0,1.0,0.7,Time
,,S24,1,男,19,anonymized,Serial_Dependence_U,2023.2.3,Win32,60.60606060606061,,,,,,387.054,180.0,1.0,387.05409999996425,180.0,,,,390.4377999999524,390.9268999999762,389.9253999999762,390.4376999999881,388.0580999999642,389.9253999999762,390.927,391.4186999999881,391.4186999999881,392.6998999999762,721.0,392.7000000000001,2.0,392.7003999999762,1.0,9.0,39.0,20.0,1.0,0.8,0.3,Time
,,S24,1,男,19,anonymized,Serial_Dependence_U,2023.2.3,Win32,60.60606060606061,,,,,,392.7006999999881,231.0,1.0,392.7007999999523,231.0,,,,396.441,396.9365,395.9325999999643,396.441,393.7001999999881,395.93250000000006,396.9365999999642,397.42629999995233,397.4263999999762,399.00529999995234,1259.0,399.0053999999762,3.0,399.0055,1.0,10.0,40.0,27.0,1.0,1.2,0.7,Time
,,S24,1,男,19,anonymized,Serial_Dependence_U,2023.2.3,Win32,60.60606060606061,,,,,,399.0056999999881,300.0,1.0,399.0058999999762,300.0,,,,402.9568999999762,403.4498999999762,402.4483999999762,402.9567999999524,400.0028999999762,402.4481999999881,403.4498999999762,403.94109999996425,403.94109999996425,405.50109999996425,1270.0,405.5012999999523,2.0,405.5015,1.0,11.0,41.0,8.0,1.0,1.4,0.7,Time
,,S24,1,男,19,anonymized,Serial_Dependence_U,2023.2.3,Win32,60.60606060606061,,,,,,405.5016999999881,242.0,1.0,405.5016999999881,242.0,,,,409.2752999999523,409.76759999996426,408.7667999999524,409.2751999999881,406.502,408.7666999999881,409.76759999996426,410.2597999999524,410.2597999999524,411.1625999999643,572.0,411.1625999999643,1.0,411.1627999999524,1.0,12.0,42.0,22.0,1.0,1.2,0.3,Time
,,S24,1,男,19,anonymized,Serial_Dependence_U,2023.2.3,Win32,60.60606060606061,,,,,,411.1630999999643,73.0,1.0,411.1630999999643,73.0,,,,415.34850000000006,415.8402999999524,414.8392999999524,415.3483999999762,412.1636999999881,414.8392999999524,415.8402999999524,416.33229999995234,416.33229999995234,417.925,1270.0,417.92519999998814,2.0,417.92550000000006,1.0,13.0,43.0,14.0,1.0,1.6,0.3,Time
,,S24,1,男,19,anonymized,Serial_Dependence_U,2023.2.3,Win32,60.60606060606061,,,,,,417.9255999999643,178.0,1.0,417.9256999999881,178.0,,,,421.8806999999881,422.372,421.3747999999524,421.88059999996426,418.9265,421.37469999998814,422.372,422.8645,422.8645,424.1780999999643,949.0,424.1780999999643,1.0,424.1785,1.0,14.0,44.0,28.0,1.0,1.4,0.7,Time
,,S24,1,男,19,anonymized,Serial_Dependence_U,2023.2.3,Win32,60.60606060606061,,,,,,424.17879999995233,338.0,1.0,424.17879999995233,338.0,,,,427.55939999997616,428.0516999999881,427.0533999999762,427.5592999999524,425.179,427.05329999995234,428.0516999999881,428.5432999999524,428.5433999999762,429.88919999998814,1049.0,429.88919999998814,5.0,429.88979999995234,1.0,15.0,45.0,10.0,1.0,0.8,0.3,Time
,,S24,1,男,19,anonymized,Serial_Dependence_U,2023.2.3,Win32,60.60606060606061,,,,,,429.8901999999881,228.0,1.0,429.89029999995233,228.0,,,,434.04159999996426,434.5332999999524,433.5333999999762,434.0413999999762,430.89059999996425,433.5332999999524,434.5332999999524,435.02619999998814,435.02619999998814,436.4535,1172.0,436.4535999999643,2.0,436.4537999999524,1.0,16.0,46.0,29.0,1.0,1.6,0.7,Time
,,S24,1,男,19,anonymized,Serial_Dependence_U,2023.2.3,Win32,60.60606060606061,,,,,,436.4540999999643,192.0,1.0,436.4540999999643,192.0,,,,440.4093999999762,440.9012999999524,439.9008999999762,440.40929999995234,437.45529999995233,439.9007999999524,440.9012999999524,441.3936999999881,441.3937999999524,442.888,1211.0,442.88809999996425,2.0,442.8883999999762,1.0,17.0,47.0,18.0,1.0,1.4,0.7,Time
,,S24,1,男,19,anonymized,Serial_Dependence_U,2023.2.3,Win32,60.60606060606061,,,,,,442.8886999999881,269.0,1.0,442.8888999999762,269.0,,,,446.4330000000001,446.9248999999762,445.9235000000001,446.4328999999762,443.8886999999881,445.9233999999762,446.9248999999762,447.4168999999762,447.417,448.648,965.0,448.6480999999642,3.0,448.6482999999524,1.0,18.0,48.0,16.0,1.0,1.0,0.7,Time
,,S24,1,男,19,anonymized,Serial_Dependence_U,2023.2.3,Win32,60.60606060606061,,,,,,448.6485999999643,116.0,1.0,448.6485999999643,116.0,,,,452.6196999999881,453.1118999999762,452.1116999999881,452.6195999999643,449.65,452.11159999996426,453.1118999999762,453.605,453.605,454.75389999997617,837.0,454.754,1.0,454.7541999999881,1.0,19.0,49.0,3.0,1.0,1.4,0.3,Time
,,S24,1,男,19,anonymized,Serial_Dependence_U,2023.2.3,Win32,60.60606060606061,,,,,,454.7546999999881,351.0,1.0,454.7548999999762,351.0,,,,458.5282999999524,459.02009999996426,458.0195999999642,458.5280999999643,455.7545,458.0195000000001,459.0201999999881,459.51259999996427,459.5126999999881,460.941,882.0,460.94109999996425,2.0,460.9412999999524,1.0,20.0,50.0,2.0,1.0,1.2,0.3,Time
,,S24,1,男,19,anonymized,Serial_Dependence_U,2023.2.3,Win32,60.60606060606061,,,,,,460.9415999999643,168.0,1.0,460.9416999999881,168.0,,,,464.4856999999881,464.9776999999881,463.9777999999524,464.4855,461.9415999999643,463.9777999999524,464.9777999999524,465.47,465.4700999999643,466.81859999996425,1031.0,466.8186999999881,3.0,466.8187999999524,1.0,21.0,51.0,26.0,1.0,1.0,0.7,Time
,,S24,1,男,19,anonymized,Serial_Dependence_U,2023.2.3,Win32,60.60606060606061,,,,,,466.8190999999642,108.0,1.0,466.8190999999642,108.0,,,,470.97179999995234,471.4603999999761,470.46339999997616,470.97169999998806,467.8208999999761,470.46339999997616,471.4603999999761,471.95269999998806,471.95269999998806,473.7912999999523,1393.0,473.7912999999523,2.0,473.7916999999881,1.0,22.0,52.0,19.0,1.0,1.6,0.7,Time
,,S24,1,男,19,anonymized,Serial_Dependence_U,2023.2.3,Win32,60.60606060606061,,,,,,473.792,94.0,1.0,473.79209999996425,94.0,,,,477.7631999999881,478.2555999999642,477.2605999999642,477.763,474.7926999999881,477.2604999999999,478.2555999999642,478.7477999999523,478.74789999997614,480.356,1243.0,480.356,2.0,480.35629999995234,1.0,23.0,53.0,13.0,1.0,1.4,0.3,Time
,,S24,1,男,19,anonymized,Serial_Dependence_U,2023.2.3,Win32,60.60606060606061,,,,,,480.3565999999642,145.0,1.0,480.35669999998805,145.0,,,,483.93489999997615,484.42609999996426,483.4255,483.93489999997615,481.3575,483.42539999997615,484.42609999996426,484.9189999999999,484.91919999998805,485.85389999997614,618.0,485.85389999997614,1.0,485.8542999999523,1.0,24.0,54.0,1.0,1.0,1.0,0.3,Time
,,S24,1,男,19,anonymized,Serial_Dependence_U,2023.2.3,Win32,60.60606060606061,,,,,,485.85459999996425,154.0,1.0,485.8546999999881,154.0,,,,489.629,490.1210999999642,489.1203999999761,489.6288999999761,486.8553999999761,489.1203999999761,490.1210999999642,490.61339999997614,490.61339999997614,492.3367999999524,1168.0,492.3367999999524,3.0,492.33719999998806,1.0,25.0,55.0,12.0,1.0,1.2,0.3,Time
,,S24,1,男,19,anonymized,Serial_Dependence_U,2023.2.3,Win32,60.60606060606061,,,,,,492.3373999999762,347.0,1.0,492.3375,347.0,,,,495.9147999999523,496.4067999999523,495.4071999999881,495.914699999988,493.338199999988,495.40709999996426,496.4068999999761,496.89949999999993,496.8995999999642,497.98309999996417,548.0,497.983199999988,1.0,497.9835,1.0,26.0,56.0,21.0,1.0,1.0,0.3,Time
,,S24,1,男,19,anonymized,Serial_Dependence_U,2023.2.3,Win32,60.60606060606061,,,,,,497.9837999999523,81.0,1.0,497.9838999999761,81.0,,,,502.1685,502.6598999999762,501.6590999999642,502.1683999999761,498.9838999999761,501.6588999999761,502.6598999999762,503.1525,503.1525,505.1053999999761,1378.0,505.1055,2.0,505.1056999999881,1.0,27.0,57.0,24.0,1.0,1.6,0.3,Time
,,S24,1,男,19,anonymized,Serial_Dependence_U,2023.2.3,Win32,60.60606060606061,,,,,,505.106,21.0,1.0,505.10619999998806,21.0,,,,508.45729999995234,508.9458999999761,507.945,508.4570999999642,506.1077999999523,507.945,508.9458999999761,509.43819999998806,509.43829999995233,510.4561999999881,710.0,510.4561999999881,2.0,510.4565,1.0,28.0,58.0,5.0,1.0,0.8,0.7,Time
,,S24,1,男,19,anonymized,Serial_Dependence_U,2023.2.3,Win32,60.60606060606061,,,,,,510.4566999999881,200.0,1.0,510.4568999999761,200.0,,,,514.607699999988,515.100699999988,514.1042999999522,514.607699999988,511.45719999998806,514.104199999988,515.1007999999522,515.5922999999523,515.5922999999523,517.0364999999999,1144.0,517.0365999999642,2.0,517.036699999988,1.0,29.0,59.0,9.0,1.0,1.6,0.7,Time
,,S24,1,男,19,anonymized,Serial_Dependence_U,2023.2.3,Win32,60.60606060606061,,,,,,517.0368999999761,354.0,2.0,542.6727999999522,354.0,s,25.60280000001194,,546.0534999999999,546.5460999999642,545.545,546.053399999976,543.6745999999641,545.5447999999523,546.546199999988,547.0384999999999,547.0385999999642,547.8292999999522,496.0,547.8292999999522,1.0,547.8294999999999,2.0,0.0,60.0,20.0,1.0,0.8,0.3,Time
,,S24,1,男,19,anonymized,Serial_Dependence_U,2023.2.3,Win32,60.60606060606061,,,,,,547.829699999988,29.0,2.0,547.8305999999642,29.0,,,,551.766699999988,552.2567999999522,551.2592999999522,551.7665999999641,548.827399999976,551.2592999999522,552.2568999999761,552.7500999999642,552.7500999999642,554.2797999999523,1130.0,554.2797999999523,2.0,554.280199999988,2.0,1.0,61.0,18.0,1.0,1.4,0.7,Time
,,S24,1,男,19,anonymized,Serial_Dependence_U,2023.2.3,Win32,60.60606060606061,,,,,,554.2803999999761,196.0,2.0,554.2805999999641,196.0,,,,558.4445999999641,558.936699999988,557.9358999999761,558.4443999999761,555.2968999999761,557.9357999999522,558.936699999988,559.4295999999641,559.4295999999641,561.223199999988,1327.0,561.2232999999522,2.0,561.2233999999761,2.0,2.0,62.0,29.0,1.0,1.6,0.7,Time
,,S24,1,男,19,anonymized,Serial_Dependence_U,2023.2.3,Win32,60.60606060606061,,,,,,561.2235999999641,328.0,2.0,561.223699999988,328.0,,,,564.602699999988,565.091199999988,564.0939999999999,564.6025999999641,562.2192999999522,564.0939999999999,565.091199999988,565.583699999988,565.583699999988,566.4075999999642,470.0,566.407699999988,1.0,566.407899999976,2.0,3.0,63.0,10.0,1.0,0.8,0.3,Time
,,S24,1,男,19,anonymized,Serial_Dependence_U,2023.2.3,Win32,60.60606060606061,,,,,,566.4080999999642,159.0,2.0,566.408199999988,159.0,,,,570.18,570.671199999988,569.6739999999999,570.1798999999761,567.406199999988,569.6738999999761,570.671199999988,571.1635999999642,571.1635999999642,572.5755999999642,1003.0,572.5755999999642,2.0,572.5759999999999,2.0,4.0,64.0,12.0,1.0,1.2,0.3,Time
,,S24,1,男,19,anonymized,Serial_Dependence_U,2023.2.3,Win32,60.60606060606061,,,,,,572.5760999999642,161.0,2.0,572.5762999999522,161.0,,,,576.7305999999642,577.2200999999642,576.224699999988,576.7305999999642,573.577199999988,576.224699999988,577.2200999999642,577.7122999999523,577.7122999999523,579.7017999999522,1432.0,579.701899999976,2.0,579.7019999999999,2.0,5.0,65.0,9.0,1.0,1.6,0.7,Time
,,S24,1,男,19,anonymized,Serial_Dependence_U,2023.2.3,Win32,60.60606060606061,,,,,,579.702199999988,174.0,2.0,579.7022999999523,174.0,,,,583.047199999988,583.5393999999761,582.5373999999761,583.0469999999999,580.6993999999761,582.5372999999522,583.5393999999761,584.0305,584.0305,584.9988999999761,634.0,584.9988999999761,2.0,584.999199999988,2.0,6.0,66.0,15.0,1.0,0.8,0.7,Time
,,S24,1,男,19,anonymized,Serial_Dependence_U,2023.2.3,Win32,60.60606060606061,,,,,,584.999399999976,185.0,2.0,584.9994999999999,185.0,,,,588.9547999999522,589.4465999999642,588.4457999999522,588.954699999988,586.0008999999761,588.4457999999522,589.446699999988,589.939699999988,589.939699999988,591.187399999976,997.0,591.1877999999523,2.0,591.1879999999999,2.0,7.0,67.0,8.0,1.0,1.4,0.7,Time
,,S24,1,男,19,anonymized,Serial_Dependence_U,2023.2.3,Win32,60.60606060606061,,,,,,591.1883999999761,291.0,2.0,591.1883999999761,291.0,,,,594.5677999999523,595.0597999999522,594.0595999999641,594.567699999988,592.1877999999523,594.0595,595.0598999999761,595.5519999999999,595.5519999999999,596.8489999999999,720.0,596.8490999999642,2.0,596.8493999999761,2.0,8.0,68.0,0.0,1.0,0.8,0.3,Time
,,S24,1,男,19,anonymized,Serial_Dependence_U,2023.2.3,Win32,60.60606060606061,,,,,,596.8495999999642,306.0,2.0,596.8498999999761,306.0,,,,601.034199999988,601.5267999999522,600.5255999999641,601.0340999999642,597.850399999976,600.5255999999641,601.5267999999522,602.0182999999522,602.0182999999522,603.6929999999999,987.0,603.6930999999641,1.0,603.6932999999523,2.0,9.0,69.0,4.0,1.0,1.6,0.3,Time
,,S24,1,男,19,anonymized,Serial_Dependence_U,2023.2.3,Win32,60.60606060606061,,,,,,603.6935999999641,316.0,2.0,603.693699999988,316.0,,,,607.0412999999522,607.532699999988,606.533199999988,607.041199999988,604.693699999988,606.5330999999642,607.532699999988,608.0252999999523,608.0253999999761,609.4857999999523,1024.0,609.485899999976,4.0,609.4860999999642,2.0,10.0,70.0,25.0,1.0,0.8,0.7,Time
,,S24,1,男,19,anonymized,Serial_Dependence_U,2023.2.3,Win32,60.60606060606061,,,,,,609.4863999999761,218.0,2.0,609.4863999999761,218.0,,,,613.4577999999523,613.9497999999522,612.9498999999761,613.457699999988,610.4818999999761,612.9498999999761,613.9497999999522,614.4420999999642,614.442199999988,615.8045999999641,957.0,615.804699999988,1.0,615.805,2.0,11.0,71.0,3.0,1.0,1.4,0.3,Time
,,S24,1,男,19,anonymized,Serial_Dependence_U,2023.2.3,Win32,60.60606060606061,,,,,,615.805199999988,288.0,2.0,615.8053999999761,288.0,,,,619.3498999999761,619.8419999999999,618.8410999999642,619.3497999999522,616.806699999988,618.840899999976,619.8419999999999,620.3340999999641,620.3340999999641,621.8937999999522,1160.0,621.8939999999999,4.0,621.8942999999522,2.0,12.0,72.0,16.0,1.0,1.0,0.7,Time
,,S24,1,男,19,anonymized,Serial_Dependence_U,2023.2.3,Win32,60.60606060606061,,,,,,621.8945999999642,350.0,2.0,621.894699999988,350.0,,,,625.4742999999522,625.9662999999522,624.9657999999522,625.4742999999522,622.898199999988,624.965699999988,625.9662999999522,626.4594999999999,626.4594999999999,627.8217999999522,1001.0,627.821899999976,3.0,627.8220999999642,2.0,13.0,73.0,11.0,1.0,1.0,0.3,Time
,,S24,1,男,19,anonymized,Serial_Dependence_U,2023.2.3,Win32,60.60606060606061,,,,,,627.822199999988,272.0,2.0,627.8222999999523,272.0,,,,631.5632999999523,632.055,631.0542999999523,631.563199999988,628.822699999988,631.0542999999523,632.055,632.5472999999522,632.5472999999522,634.0418999999761,1016.0,634.0418999999761,2.0,634.0420999999642,2.0,14.0,74.0,17.0,1.0,1.2,0.7,Time
,,S24,1,男,19,anonymized,Serial_Dependence_U,2023.2.3,Win32,60.60606060606061,,,,,,634.0422999999522,224.0,2.0,634.042399999976,224.0,,,,638.1909999999999,638.682699999988,637.685,638.1909999999999,635.0425999999642,637.6848999999761,638.682699999988,639.1752999999522,639.1752999999522,641.408199999988,1544.0,641.4082999999522,3.0,641.4084999999999,2.0,15.0,75.0,19.0,1.0,1.6,0.7,Time
,,S24,1,男,19,anonymized,Serial_Dependence_U,2023.2.3,Win32,60.60606060606061,,,,,,641.408699999988,28.0,2.0,641.4087999999523,28.0,,,,645.3797999999522,645.8709999999999,644.8739999999999,645.379699999988,642.408699999988,644.8738999999761,645.8710999999641,646.3633999999761,646.3633999999761,648.0893999999761,1098.0,648.0893999999761,2.0,648.0895999999642,2.0,16.0,76.0,23.0,1.0,1.4,0.3,Time
,,S24,1,男,19,anonymized,Serial_Dependence_U,2023.2.3,Win32,60.60606060606061,,,,,,648.0897999999522,183.0,2.0,648.0898999999761,183.0,,,,651.8299999999999,652.322399999976,651.3233999999761,651.8298999999761,649.0893999999761,651.3232999999523,652.322399999976,652.8137999999523,652.8137999999523,654.0320999999642,919.0,654.0320999999642,2.0,654.0322999999522,2.0,17.0,77.0,7.0,1.0,1.2,0.7,Time
,,S24,1,男,19,anonymized,Serial_Dependence_U,2023.2.3,Win32,60.60606060606061,,,,,,654.0324999999999,46.0,2.0,654.0325999999642,46.0,,,,657.6060999999642,658.098,657.100899999976,657.6059999999999,655.0332999999522,657.1007999999522,658.098,658.5905999999642,658.590699999988,659.608199999988,620.0,659.608199999988,1.0,659.6083999999761,2.0,18.0,78.0,1.0,1.0,1.0,0.3,Time
,,S24,1,男,19,anonymized,Serial_Dependence_U,2023.2.3,Win32,60.60606060606061,,,,,,659.6085999999642,333.0,2.0,659.608699999988,333.0,,,,663.3499999999999,663.8422999999523,662.841699999988,663.3499999999999,660.6094999999999,662.8415999999642,663.8422999999523,664.3347999999522,664.3348999999761,665.9764999999999,1280.0,665.9765999999642,4.0,665.9767999999523,2.0,19.0,79.0,27.0,1.0,1.2,0.7,Time
,,S24,1,男,19,anonymized,Serial_Dependence_U,2023.2.3,Win32,60.60606060606061,,,,,,665.9770999999641,4.0,2.0,665.977199999988,4.0,,,,669.3243999999761,669.816899999976,668.8164999999999,669.324199999988,666.971699999988,668.8162999999522,669.8169999999999,670.3087999999523,670.309,671.3960999999641,635.0,671.396199999988,2.0,671.3962999999522,2.0,20.0,80.0,5.0,1.0,0.8,0.7,Time
,,S24,1,男,19,anonymized,Serial_Dependence_U,2023.2.3,Win32,60.60606060606061,,,,,,671.3965999999641,153.0,2.0,671.3965999999641,153.0,,,,675.1853999999761,675.6758999999761,674.675,675.1852999999522,672.4102999999523,674.675,675.6759999999999,676.167699999988,676.167699999988,677.5627999999523,1033.0,677.5627999999523,2.0,677.5629999999999,2.0,21.0,81.0,2.0,1.0,1.2,0.3,Time
,,S24,1,男,19,anonymized,Serial_Dependence_U,2023.2.3,Win32,60.60606060606061,,,,,,677.563199999988,264.0,2.0,677.5632999999523,264.0,,,,681.1083999999761,681.5999999999999,680.603199999988,681.108199999988,678.5675999999642,680.6030999999641,681.5999999999999,682.092699999988,682.092699999988,684.098699999988,1115.0,684.098699999988,4.0,684.0988999999761,2.0,22.0,82.0,26.0,1.0,1.0,0.7,Time
,,S24,1,男,19,anonymized,Serial_Dependence_U,2023.2.3,Win32,60.60606060606061,,,,,,684.0990999999642,283.0,2.0,684.0990999999642,283.0,,,,687.6734999999999,688.1648999999761,687.1648999999761,687.673399999976,685.0960999999642,687.1647999999523,688.165,688.662199999988,688.662199999988,690.2168999999761,661.0,690.2168999999761,1.0,690.2170999999641,2.0,23.0,83.0,21.0,1.0,1.0,0.3,Time
,,S24,1,男,19,anonymized,Serial_Dependence_U,2023.2.3,Win32,60.60606060606061,,,,,,690.2173999999761,274.0,2.0,690.2173999999761,274.0,,,,694.1888999999761,694.6805999999641,693.682899999976,694.1887999999523,691.218,693.6827999999522,694.680699999988,695.172899999976,695.172899999976,696.5350999999641,962.0,696.5350999999641,1.0,696.5353999999761,2.0,24.0,84.0,13.0,1.0,1.4,0.3,Time
,,S24,1,男,19,anonymized,Serial_Dependence_U,2023.2.3,Win32,60.60606060606061,,,,,,696.535699999988,233.0,2.0,696.5358999999761,233.0,,,,700.4740999999642,700.966199999988,699.9685999999641,700.4739999999999,697.5370999999642,699.9685999999641,700.9662999999522,701.4587999999522,701.4587999999522,703.4487999999523,1415.0,703.4487999999523,3.0,703.449,2.0,25.0,85.0,28.0,1.0,1.4,0.7,Time
,,S24,1,男,19,anonymized,Serial_Dependence_U,2023.2.3,Win32,60.60606060606061,,,,,,703.4490999999641,112.0,2.0,703.449199999988,112.0,,,,707.630699999988,708.122,707.1242999999522,707.6305999999641,704.4483999999761,707.124199999988,708.122,708.6142999999522,708.6143999999761,710.682899999976,1420.0,710.6829999999999,2.0,710.683199999988,2.0,26.0,86.0,14.0,1.0,1.6,0.3,Time
,,S24,1,男,19,anonymized,Serial_Dependence_U,2023.2.3,Win32,60.60606060606061,,,,,,710.6833999999761,289.0,2.0,710.6834999999999,289.0,,,,714.8673999999761,715.359899999976,714.3595999999642,714.8672999999523,711.6838999999761,714.3593999999761,715.359899999976,715.8518999999761,715.8518999999761,717.3127999999523,1120.0,717.312899999976,1.0,717.3130999999642,2.0,27.0,87.0,24.0,1.0,1.6,0.3,Time
,,S24,1,男,19,anonymized,Serial_Dependence_U,2023.2.3,Win32,60.60606060606061,,,,,,717.313199999988,55.0,2.0,717.313199999988,55.0,,,,721.088199999988,721.5802999999522,720.579699999988,721.0880999999641,718.3149999999999,720.5795999999641,721.5802999999522,722.0722999999523,722.0722999999523,723.5005999999642,1075.0,723.500699999988,2.0,723.501,2.0,28.0,88.0,22.0,1.0,1.2,0.3,Time
,,S24,1,男,19,anonymized,Serial_Dependence_U,2023.2.3,Win32,60.60606060606061,,,,,,723.5010999999641,309.0,2.0,723.501199999988,309.0,,,,727.0455,727.5373999999761,726.5364999999999,727.0453999999761,724.5017999999523,726.5363999999761,727.5373999999761,728.03,728.03,729.261,930.0,729.261,2.0,729.2612999999523,2.0,29.0,89.0,6.0,1.0,1.0,0.7,Time
,,S24,1,男,19,anonymized,Serial_Dependence_U,2023.2.3,Win32,60.60606060606061,,,,,,729.2615999999641,350.0,3.0,765.8107999999522,350.0,s,36.52940000003582,0.0016999999880908,769.5525999999642,770.0453999999761,769.0439999999999,769.5525999999642,766.811899999976,769.0438999999761,770.0453999999761,770.5368999999761,770.5368999999761,772.1955999999642,1207.0,772.1955999999642,3.0,772.1958999999761,3.0,0.0,90.0,7.0,1.0,1.2,0.7,Time
,,S24,1,男,19,anonymized,Serial_Dependence_U,2023.2.3,Win32,60.60606060606061,,,,,,772.1960999999642,164.0,3.0,772.1967999999522,164.0,,,,775.5758999999761,776.068199999988,775.066899999976,775.575699999988,773.196199999988,775.066899999976,776.0682999999523,776.5603999999761,776.5603999999761,777.7257999999522,618.0,777.725899999976,2.0,777.726199999988,3.0,1.0,91.0,0.0,1.0,0.8,0.3,Time
,,S24,1,男,19,anonymized,Serial_Dependence_U,2023.2.3,Win32,60.60606060606061,,,,,,777.726399999976,11.0,3.0,777.7265999999642,11.0,,,,781.3042999999523,781.7957999999522,780.7955999999641,781.304199999988,778.727199999988,780.7955,781.7957999999522,782.2882999999522,782.288399999976,783.2572999999522,453.0,783.2572999999522,1.0,783.2577999999522,3.0,2.0,92.0,11.0,1.0,1.0,0.3,Time
,,S24,1,男,19,anonymized,Serial_Dependence_U,2023.2.3,Win32,60.60606060606061,,,,,,783.2580999999642,258.0,3.0,783.2580999999642,258.0,,,,787.2130999999641,787.704,786.7035999999641,787.213,784.258199999988,786.7035,787.7040999999641,788.196399999976,788.196399999976,789.9855999999642,1074.0,789.985699999988,2.0,789.9859999999999,3.0,3.0,93.0,28.0,1.0,1.4,0.7,Time
,,S24,1,男,19,anonymized,Serial_Dependence_U,2023.2.3,Win32,60.60606060606061,,,,,,789.9862999999523,292.0,3.0,789.9863999999761,292.0,,,,793.531,794.023399999976,793.0222999999522,793.5307999999523,790.9868999999761,793.022199999988,794.0234999999999,794.515199999988,794.5152999999523,795.762699999988,902.0,795.7627999999522,2.0,795.7630999999642,3.0,4.0,94.0,26.0,1.0,1.0,0.7,Time
,,S24,1,男,19,anonymized,Serial_Dependence_U,2023.2.3,Win32,60.60606060606061,,,,,,795.7634999999999,337.0,3.0,795.7635999999642,337.0,,,,799.7180999999641,800.2099999999999,799.2095999999642,799.718,796.7640999999642,799.2094999999999,800.2099999999999,800.7025999999641,800.7025999999641,802.442199999988,1352.0,802.442199999988,3.0,802.442399999976,3.0,5.0,95.0,8.0,1.0,1.4,0.7,Time
,,S24,1,男,19,anonymized,Serial_Dependence_U,2023.2.3,Win32,60.60606060606061,,,,,,802.4425999999642,95.0,3.0,802.442699999988,95.0,,,,806.1847999999522,806.676699999988,805.676699999988,806.184699999988,803.4437999999523,805.6765999999642,806.676699999988,807.1688999999761,807.1688999999761,809.0894999999999,1453.0,809.0895999999642,4.0,809.0898999999761,3.0,6.0,96.0,27.0,1.0,1.2,0.7,Time
,,S24,1,男,19,anonymized,Serial_Dependence_U,2023.2.3,Win32,60.60606060606061,,,,,,809.090199999988,322.0,3.0,809.0902999999522,322.0,,,,812.667899999976,813.1589999999999,812.1585999999642,812.667699999988,810.090699999988,812.1584999999999,813.1589999999999,813.6514999999999,813.6515999999641,814.867699999988,770.0,814.8677999999522,2.0,814.8679999999999,3.0,7.0,97.0,1.0,1.0,1.0,0.3,Time
,,S24,1,男,19,anonymized,Serial_Dependence_U,2023.2.3,Win32,60.60606060606061,,,,,,814.868199999988,102.0,3.0,814.868199999988,102.0,,,,818.6407999999523,819.1329999999999,818.1322999999522,818.6407999999523,815.868199999988,818.132199999988,819.1330999999642,819.6254999999999,819.6254999999999,821.1523999999761,909.0,821.1523999999761,2.0,821.1525999999642,3.0,8.0,98.0,22.0,1.0,1.2,0.3,Time
,,S24,1,男,19,anonymized,Serial_Dependence_U,2023.2.3,Win32,60.60606060606061,,,,,,821.1528999999761,346.0,3.0,821.1529999999999,346.0,,,,824.5004999999999,824.9922999999523,823.992199999988,824.500399999976,822.1530999999642,823.992,824.9922999999523,825.4849999999999,825.4849999999999,826.4700999999642,713.0,826.4700999999642,2.0,826.470199999988,3.0,9.0,99.0,15.0,1.0,0.8,0.7,Time
,,S24,1,男,19,anonymized,Serial_Dependence_U,2023.2.3,Win32,60.60606060606061,,,,,,826.4704999999999,50.0,3.0,826.4705999999642,50.0,,,,830.2447999999522,830.7362999999523,829.7390999999642,830.2447999999522,827.4712999999523,829.7389999999999,830.7362999999523,831.2284999999999,831.2284999999999,832.201199999988,644.0,832.201199999988,1.0,832.201399999976,3.0,10.0,100.0,2.0,1.0,1.2,0.3,Time
,,S24,1,男,19,anonymized,Serial_Dependence_U,2023.2.3,Win32,60.60606060606061,,,,,,832.201699999988,345.0,3.0,832.201899999976,345.0,,,,836.369399999976,836.8577999999522,835.857199999988,836.3692999999522,833.215199999988,835.8570999999641,836.8577999999522,837.350899999976,837.3509999999999,838.9430999999641,1204.0,838.9430999999641,2.0,838.9432999999523,3.0,11.0,101.0,29.0,1.0,1.6,0.7,Time
,,S24,1,男,19,anonymized,Serial_Dependence_U,2023.2.3,Win32,60.60606060606061,,,,,,838.9435,159.0,3.0,838.943699999988,159.0,,,,842.2908999999761,842.7830999999642,841.7858999999761,842.2908999999761,839.9440999999641,841.7858999999761,842.7830999999642,843.275,843.275,844.3132999999523,733.0,844.3133999999761,2.0,844.3135,3.0,12.0,102.0,5.0,1.0,0.8,0.7,Time
,,S24,1,男,19,anonymized,Serial_Dependence_U,2023.2.3,Win32,60.60606060606061,,,,,,844.313699999988,153.0,3.0,844.313699999988,153.0,,,,847.8873999999761,848.3799999999999,847.378699999988,847.8872999999522,845.311199999988,847.3785999999642,848.3799999999999,848.8715999999641,848.8715999999641,849.758899999976,550.0,849.7589999999999,1.0,849.7590999999642,3.0,13.0,103.0,21.0,1.0,1.0,0.3,Time
,,S24,1,男,19,anonymized,Serial_Dependence_U,2023.2.3,Win32,60.60606060606061,,,,,,849.7592999999522,149.0,3.0,849.759399999976,149.0,,,,853.7300999999642,854.2219999999999,853.2214999999999,853.7299999999999,850.7600999999642,853.221399999976,854.2219999999999,854.7143999999761,854.7143999999761,856.0438999999761,980.0,856.0438999999761,1.0,856.0439999999999,3.0,14.0,104.0,23.0,1.0,1.4,0.3,Time
,,S24,1,男,19,anonymized,Serial_Dependence_U,2023.2.3,Win32,60.60606060606061,,,,,,856.044199999988,39.0,3.0,856.0442999999523,39.0,,,,860.1962999999522,860.6882999999523,859.687699999988,860.196199999988,857.0455999999641,859.6875999999642,860.6882999999523,861.1807999999522,861.1807999999522,862.6417999999522,1168.0,862.6418999999761,2.0,862.6422999999522,3.0,15.0,105.0,19.0,1.0,1.6,0.7,Time
,,S24,1,男,19,anonymized,Serial_Dependence_U,2023.2.3,Win32,60.60606060606061,,,,,,862.6425999999642,125.0,3.0,862.6425999999642,125.0,,,,866.7969999999999,867.2858999999761,866.2884999999999,866.7968999999761,863.6428999999761,866.2884999999999,867.2858999999761,867.778899999976,867.778899999976,869.420199999988,1051.0,869.4202999999522,1.0,869.4205,3.0,16.0,106.0,9.0,1.0,1.6,0.7,Time
,,S24,1,男,19,anonymized,Serial_Dependence_U,2023.2.3,Win32,60.60606060606061,,,,,,869.420699999988,189.0,3.0,869.4207999999522,189.0,,,,872.9680999999641,873.4614999999999,872.4594999999999,872.9680999999641,870.4209999999999,872.4594999999999,873.4614999999999,873.9492999999522,873.9492999999522,875.377199999988,1068.0,875.3772999999522,4.0,875.3775999999641,3.0,17.0,107.0,6.0,1.0,1.0,0.7,Time
,,S24,1,男,19,anonymized,Serial_Dependence_U,2023.2.3,Win32,60.60606060606061,,,,,,875.3778999999761,157.0,3.0,875.3779999999999,157.0,,,,878.726399999976,879.2175,878.2168999999761,878.7262999999523,876.378699999988,878.2167999999523,879.2175,879.7098999999761,879.7098999999761,880.928399999976,929.0,880.9284999999999,4.0,880.9285999999641,3.0,18.0,108.0,25.0,1.0,0.8,0.7,Time
,,S24,1,男,19,anonymized,Serial_Dependence_U,2023.2.3,Win32,60.60606060606061,,,,,,880.9287999999523,162.0,3.0,880.9288999999761,162.0,,,,884.3054999999999,884.798199999988,883.797899999976,884.3053999999761,881.9259999999999,883.7977999999522,884.798199999988,885.2914999999999,885.2914999999999,886.213699999988,601.0,886.2137999999522,2.0,886.2138999999761,3.0,19.0,109.0,10.0,1.0,0.8,0.3,Time
,,S24,1,男,19,anonymized,Serial_Dependence_U,2023.2.3,Win32,60.60606060606061,,,,,,886.2140999999641,308.0,3.0,886.2140999999641,308.0,,,,890.201399999976,890.689699999988,889.6893999999761,890.2012999999522,887.2278999999761,889.689199999988,890.689699999988,891.1819999999999,891.1820999999642,892.0850999999642,523.0,892.085199999988,1.0,892.0854999999999,3.0,20.0,110.0,13.0,1.0,1.4,0.3,Time
,,S24,1,男,19,anonymized,Serial_Dependence_U,2023.2.3,Win32,60.60606060606061,,,,,,892.0857999999522,190.0,3.0,892.085899999976,190.0,,,,896.027199999988,896.5180999999642,895.5184999999999,896.027199999988,893.0865999999642,895.518399999976,896.5180999999642,897.0089999999999,897.0089999999999,898.3215999999642,890.0,898.3215999999642,1.0,898.3217999999522,3.0,21.0,111.0,18.0,1.0,1.4,0.7,Time
,,S24,1,男,19,anonymized,Serial_Dependence_U,2023.2.3,Win32,60.60606060606061,,,,,,898.322199999988,98.0,3.0,898.3222999999523,98.0,,,,901.705699999988,902.2005999999642,901.1937999999524,901.7055999999642,899.3245999999641,901.193699999988,902.2005999999642,902.689399999976,902.6895,903.6425999999642,575.0,903.6425999999642,2.0,903.642699999988,3.0,22.0,112.0,20.0,1.0,0.8,0.3,Time
,,S24,1,男,19,anonymized,Serial_Dependence_U,2023.2.3,Win32,60.60606060606061,,,,,,903.642899999976,281.0,3.0,903.643,281.0,,,,907.827599999964,908.3187999999524,907.319399999976,907.827599999964,904.643399999976,907.319399999976,908.3187999999524,908.811199999988,908.811199999988,910.109,886.0,910.109,1.0,910.109199999988,3.0,23.0,113.0,4.0,1.0,1.6,0.3,Time
,,S24,1,男,19,anonymized,Serial_Dependence_U,2023.2.3,Win32,60.60606060606061,,,,,,910.109399999976,255.0,3.0,910.1095,255.0,,,,913.650099999964,914.142399999976,913.141399999976,913.65,911.1087999999522,913.1412999999524,914.142399999976,914.635,914.6350999999642,915.984699999988,936.0,915.9847999999522,2.0,915.984899999976,3.0,24.0,114.0,16.0,1.0,1.0,0.7,Time
,,S24,1,男,19,anonymized,Serial_Dependence_U,2023.2.3,Win32,60.60606060606061,,,,,,915.9850999999642,220.0,3.0,915.985199999988,220.0,,,,919.9735,920.4775,919.4602999999522,919.973399999976,916.9985,919.460199999988,920.4775,920.9705999999642,920.9705999999642,922.290099999964,988.0,922.290199999988,2.0,922.290399999976,3.0,25.0,115.0,3.0,1.0,1.4,0.3,Time
,,S24,1,男,19,anonymized,Serial_Dependence_U,2023.2.3,Win32,60.60606060606061,,,,,,922.290599999964,51.0,3.0,922.290599999964,51.0,,,,926.484399999976,926.976699999988,925.976399999976,926.4842999999522,923.304,925.976399999976,926.976699999988,927.4690999999642,927.4690999999642,928.7165999999642,858.0,928.716699999988,1.0,928.717099999964,3.0,26.0,116.0,24.0,1.0,1.6,0.3,Time
,,S24,1,男,19,anonymized,Serial_Dependence_U,2023.2.3,Win32,60.60606060606061,,,,,,928.7172999999524,189.0,3.0,928.717399999976,189.0,,,,932.491199999988,932.983399999976,931.983099999964,932.491099999964,929.717899999976,931.983099999964,932.983399999976,933.4765,933.4765,934.821899999976,838.0,934.822,1.0,934.822199999988,3.0,27.0,117.0,12.0,1.0,1.2,0.3,Time
,,S24,1,男,19,anonymized,Serial_Dependence_U,2023.2.3,Win32,60.60606060606061,,,,,,934.822699999988,23.0,3.0,934.822899999976,23.0,,,,938.564,939.0565,938.0555,938.563899999976,935.823599999964,938.055399999976,939.0565999999642,939.548399999976,939.5485,941.074699999988,1132.0,941.074699999988,2.0,941.074899999976,3.0,28.0,118.0,17.0,1.0,1.2,0.7,Time
,,S24,1,男,19,anonymized,Serial_Dependence_U,2023.2.3,Win32,60.60606060606061,,,,,,941.0750999999642,133.0,3.0,941.075199999988,133.0,,,,945.260399999976,945.752199999988,944.752199999988,945.2602999999524,942.076199999988,944.752099999964,945.752199999988,946.244699999988,946.244699999988,947.919,1133.0,947.919199999988,2.0,947.9195,3.0,29.0,119.0,14.0,1.0,1.6,0.3,Time
,,S24,1,男,19,anonymized,Serial_Dependence_U,2023.2.3,Win32,60.60606060606061,,,,,,947.9197999999524,294.0,4.0,982.499,294.0,s,34.559300000011945,,986.077,986.5687999999524,985.568,986.076899999976,983.5002999999524,985.567899999976,986.5687999999524,987.062,987.062,987.9313999999764,591.0,987.9313999999764,1.0,987.931699999988,4.0,0.0,120.0,1.0,1.0,1.0,0.3,Time
,,S24,1,男,19,anonymized,Serial_Dependence_U,2023.2.3,Win32,60.60606060606061,,,,,,987.932,347.0,4.0,987.932899999976,347.0,,,,991.312699999988,991.8041999999882,990.8038999999762,991.312699999988,988.9325999999642,990.803699999988,991.8041999999882,992.2968999999762,992.2968999999762,993.3805,662.0,993.3805999999644,2.0,993.3810999999644,4.0,1.0,121.0,20.0,1.0,0.8,0.3,Time
,,S24,1,男,19,anonymized,Serial_Dependence_U,2023.2.3,Win32,60.60606060606061,,,,,,993.381399999976,235.0,4.0,993.3815,235.0,,,,997.5323999999762,998.024399999976,997.0238999999764,997.5322999999524,994.3811999999882,997.0237999999524,998.024399999976,998.5172999999525,998.5172999999525,1000.2733999999762,1374.0,1000.2735,2.0,1000.2737999999524,4.0,2.0,122.0,9.0,1.0,1.6,0.7,Time
,,S24,1,男,19,anonymized,Serial_Dependence_U,2023.2.3,Win32,60.60606060606061,,,,,,1000.2740999999642,273.0,4.0,1000.274199999988,273.0,,,,1004.2287999999523,1004.7203999999764,1003.7200999999644,1004.228699999988,1001.274399999976,1003.72,1004.7203999999764,1005.2125999999644,1005.2126999999882,1007.022,1490.0,1007.0220999999642,4.0,1007.0220999999642,4.0,3.0,123.0,18.0,1.0,1.4,0.7,Time
,,S24,1,男,19,anonymized,Serial_Dependence_U,2023.2.3,Win32,60.60606060606061,,,,,,1007.022199999988,221.0,4.0,1007.0222999999525,221.0,,,,1011.170699999988,1011.662699999988,1010.6621999999882,1011.1705999999642,1008.019699999988,1010.6621999999882,1011.662699999988,1012.155199999988,1012.155199999988,1014.0260999999643,1553.0,1014.0260999999643,3.0,1014.0262999999522,4.0,4.0,124.0,19.0,1.0,1.6,0.7,Time
,,S24,1,男,19,anonymized,Serial_Dependence_U,2023.2.3,Win32,60.60606060606061,,,,,,1014.0265999999642,179.0,4.0,1014.026699999988,179.0,,,,1017.9985,1018.4907999999524,1017.49,1017.9982999999525,1015.0283999999764,1017.49,1018.4907999999524,1018.983,1018.9830999999642,1020.8045999999642,1469.0,1020.804699999988,3.0,1020.8048999999762,4.0,5.0,125.0,13.0,1.0,1.4,0.3,Time
,,S24,1,男,19,anonymized,Serial_Dependence_U,2023.2.3,Win32,60.60606060606061,,,,,,1020.8050999999645,165.0,4.0,1020.8051999999882,165.0,,,,1024.3495999999643,1024.8421999999882,1023.8412999999524,1024.3495,1021.8058999999762,1023.841199999988,1024.8422999999525,1025.3342999999525,1025.3342999999525,1026.8605999999645,1054.0,1026.860699999988,4.0,1026.8608999999765,4.0,6.0,126.0,26.0,1.0,1.0,0.7,Time
,,S24,1,男,19,anonymized,Serial_Dependence_U,2023.2.3,Win32,60.60606060606061,,,,,,1026.8610999999644,268.0,4.0,1026.8612999999525,268.0,,,,1030.602699999988,1031.0951999999882,1030.0938999999762,1030.6025999999642,1027.861699999988,1030.0938999999762,1031.0951999999882,1031.5876999999882,1031.5877999999525,1033.523699999988,1219.0,1033.5237999999524,3.0,1033.524,4.0,7.0,127.0,27.0,1.0,1.2,0.7,Time
,,S24,1,男,19,anonymized,Serial_Dependence_U,2023.2.3,Win32,60.60606060606061,,,,,,1033.5242999999523,227.0,4.0,1033.524399999976,227.0,,,,1037.4965,1037.9877999999524,1036.9871999999882,1037.496399999976,1034.5250999999644,1036.9868999999762,1037.9878999999762,1038.480199999988,1038.480199999988,1039.908,1081.0,1039.9080999999642,2.0,1039.9082999999523,4.0,8.0,128.0,23.0,1.0,1.4,0.3,Time
,,S24,1,男,19,anonymized,Serial_Dependence_U,2023.2.3,Win32,60.60606060606061,,,,,,1039.9085999999645,96.0,4.0,1039.9087999999524,96.0,,,,1043.8475999999644,1044.339199999988,1043.3402999999523,1043.8475,1040.909199999988,1043.3402999999523,1044.3392999999523,1044.8313999999762,1044.8313999999762,1046.6532999999524,1418.0,1046.6532999999524,3.0,1046.6535,4.0,9.0,129.0,8.0,1.0,1.4,0.7,Time
,,S24,1,男,19,anonymized,Serial_Dependence_U,2023.2.3,Win32,60.60606060606061,,,,,,1046.653899999976,26.0,4.0,1046.653899999976,26.0,,,,1050.625199999988,1051.1177999999522,1050.116199999988,1050.6250999999645,1047.6553999999762,1050.1160999999645,1051.1177999999522,1051.6097999999524,1051.6097999999524,1052.7092999999525,771.0,1052.709399999976,1.0,1052.7095999999642,4.0,10.0,130.0,3.0,1.0,1.4,0.3,Time
,,S24,1,男,19,anonymized,Serial_Dependence_U,2023.2.3,Win32,60.60606060606061,,,,,,1052.7098999999762,2.0,4.0,1052.71,2.0,,,,1056.255,1056.7465,1055.746,1056.2548999999765,1053.710699999988,1055.7458999999762,1056.7465,1057.2387999999523,1057.2388999999762,1059.0445999999642,1194.0,1059.0445999999642,4.0,1059.0445999999642,4.0,11.0,131.0,16.0,1.0,1.0,0.7,Time
,,S24,1,男,19,anonymized,Serial_Dependence_U,2023.2.3,Win32,60.60606060606061,,,,,,1059.0448999999762,246.0,4.0,1059.0448999999762,246.0,,,,1063.2295999999642,1063.722,1062.7208999999762,1063.2295,1060.046,1062.7207999999523,1063.7220999999645,1064.2142999999523,1064.2142999999523,1065.6420999999643,1160.0,1065.6420999999643,2.0,1065.6425,4.0,12.0,132.0,14.0,1.0,1.6,0.3,Time
,,S24,1,男,19,anonymized,Serial_Dependence_U,2023.2.3,Win32,60.60606060606061,,,,,,1065.6427999999523,278.0,4.0,1065.6428999999762,278.0,,,,1068.994,1069.483199999988,1068.4815999999644,1068.994,1066.6431999999882,1068.4815,1069.483199999988,1069.975,1069.9750999999642,1070.9632999999524,655.0,1070.9633999999762,2.0,1070.9635999999643,4.0,13.0,133.0,15.0,1.0,0.8,0.7,Time
,,S24,1,男,19,anonymized,Serial_Dependence_U,2023.2.3,Win32,60.60606060606061,,,,,,1070.9636999999882,18.0,4.0,1070.9637999999522,18.0,,,,1074.504699999988,1074.9970999999643,1073.9960999999644,1074.504699999988,1071.9617999999523,1073.9960999999644,1074.9971999999882,1075.4895999999642,1075.4895999999642,1077.3112999999523,1055.0,1077.3113999999762,4.0,1077.3116999999882,4.0,14.0,134.0,6.0,1.0,1.0,0.7,Time
,,S24,1,男,19,anonymized,Serial_Dependence_U,2023.2.3,Win32,60.60606060606061,,,,,,1077.3120999999642,359.0,4.0,1077.3120999999642,359.0,,,,1080.8888999999765,1081.3810999999644,1080.3807999999524,1080.8887999999524,1078.3123999999762,1080.380699999988,1081.3810999999644,1081.8733999999763,1081.8735,1083.3835,962.0,1083.3835,3.0,1083.383699999988,4.0,15.0,135.0,21.0,1.0,1.0,0.3,Time
,,S24,1,男,19,anonymized,Serial_Dependence_U,2023.2.3,Win32,60.60606060606061,,,,,,1083.3838999999762,161.0,4.0,1083.3838999999762,161.0,,,,1086.764699999988,1087.2565,1086.2560999999644,1086.764699999988,1084.384899999976,1086.256,1087.2565999999642,1087.7491999999882,1087.7491999999882,1088.898699999988,804.0,1088.898699999988,3.0,1088.899199999988,4.0,16.0,136.0,0.0,1.0,0.8,0.3,Time
,,S24,1,男,19,anonymized,Serial_Dependence_U,2023.2.3,Win32,60.60606060606061,,,,,,1088.8995,183.0,4.0,1088.8995999999645,183.0,,,,1092.2462999999525,1092.738,1091.738699999988,1092.2462999999525,1089.8997999999524,1091.738699999988,1092.7380999999643,1093.2305,1093.2305,1094.297699999988,524.0,1094.297699999988,1.0,1094.298,4.0,17.0,137.0,25.0,1.0,0.8,0.7,Time
,,S24,1,男,19,anonymized,Serial_Dependence_U,2023.2.3,Win32,60.60606060606061,,,,,,1094.2982999999524,103.0,4.0,1094.2982999999524,103.0,,,,1097.6456999999882,1098.1377999999524,1097.1372999999523,1097.6456999999882,1095.2990999999645,1097.137199999988,1098.1377999999524,1098.630399999976,1098.6305,1099.6320999999643,702.0,1099.6321999999882,2.0,1099.632399999976,4.0,18.0,138.0,5.0,1.0,0.8,0.7,Time
,,S24,1,男,19,anonymized,Serial_Dependence_U,2023.2.3,Win32,60.60606060606061,,,,,,1099.6325,177.0,4.0,1099.632699999988,177.0,,,,1103.2130999999642,1103.701899999976,1102.704199999988,1103.2130999999642,1100.6325999999642,1102.7040999999642,1103.702,1104.1937999999525,1104.1937999999525,1105.4287999999524,843.0,1105.4287999999524,2.0,1105.429,4.0,19.0,139.0,11.0,1.0,1.0,0.3,Time
,,S24,1,男,19,anonymized,Serial_Dependence_U,2023.2.3,Win32,60.60606060606061,,,,,,1105.4291999999882,263.0,4.0,1105.4292999999525,263.0,,,,1109.383699999988,1109.8722999999522,1108.8717999999524,1109.383699999988,1106.4260999999642,1108.871699999988,1109.8722999999522,1110.3645999999642,1110.3645999999642,1112.174199999988,1295.0,1112.1742999999524,2.0,1112.1743999999762,4.0,20.0,140.0,28.0,1.0,1.4,0.7,Time
,,S24,1,男,19,anonymized,Serial_Dependence_U,2023.2.3,Win32,60.60606060606061,,,,,,1112.1745999999644,115.0,4.0,1112.1746999999882,115.0,,,,1116.360199999988,1116.8476999999882,1115.8500999999642,1116.360199999988,1113.1885,1115.8500999999642,1116.8476999999882,1117.3398999999763,1117.3398999999763,1118.8543999999763,1108.0,1118.8543999999763,1.0,1118.8545,4.0,21.0,141.0,4.0,1.0,1.6,0.3,Time
,,S24,1,男,19,anonymized,Serial_Dependence_U,2023.2.3,Win32,60.60606060606061,,,,,,1118.854699999988,74.0,4.0,1118.8547999999523,74.0,,,,1122.2475999999642,1122.7400999999643,1121.739,1122.2475,1119.8675,1121.7388999999762,1122.7400999999643,1123.232,1123.232,1124.168399999976,603.0,1124.1685,2.0,1124.169,4.0,22.0,142.0,10.0,1.0,0.8,0.3,Time
,,S24,1,男,19,anonymized,Serial_Dependence_U,2023.2.3,Win32,60.60606060606061,,,,,,1124.169399999976,261.0,4.0,1124.1695,261.0,,,,1128.3531999999882,1128.844699999988,1127.8450999999643,1128.3530999999643,1125.1690999999644,1127.8448999999762,1128.8447999999523,1129.337199999988,1129.3373999999762,1131.192,1127.0,1131.192,2.0,1131.192199999988,4.0,23.0,143.0,24.0,1.0,1.6,0.3,Time
,,S24,1,男,19,anonymized,Serial_Dependence_U,2023.2.3,Win32,60.60606060606061,,,,,,1131.1925999999642,154.0,4.0,1131.192699999988,154.0,,,,1134.9671999999882,1135.4590999999643,1134.4580999999644,1134.967,1132.1932999999524,1134.458,1135.4590999999643,1135.9515999999642,1135.9515999999642,1140.8462999999524,789.0,1140.8463999999765,1.0,1140.8465,4.0,24.0,144.0,2.0,1.0,1.2,0.3,Time
,,S24,1,男,19,anonymized,Serial_Dependence_U,2023.2.3,Win32,60.60606060606061,,,,,,1140.8467999999525,204.0,4.0,1140.846899999976,204.0,,,,1144.601199999988,1145.093,1144.0918999999762,1144.601,1141.847,1144.0918999999762,1145.093,1145.5851999999882,1145.5851999999882,1147.7027999999525,1346.0,1147.7027999999525,4.0,1147.703199999988,4.0,25.0,145.0,7.0,1.0,1.2,0.7,Time
,,S24,1,男,19,anonymized,Serial_Dependence_U,2023.2.3,Win32,60.60606060606061,,,,,,1147.7035,139.0,4.0,1147.7035,139.0,,,,1151.4780999999643,1151.9695,1150.9692999999525,1151.4780999999643,1148.7035999999644,1150.9690999999643,1151.9695,1152.462199999988,1152.462199999988,1153.971699999988,1196.0,1153.971699999988,3.0,1153.971899999976,4.0,26.0,146.0,22.0,1.0,1.2,0.3,Time
,,S24,1,男,19,anonymized,Serial_Dependence_U,2023.2.3,Win32,60.60606060606061,,,,,,1153.972199999988,248.0,4.0,1153.9722999999524,248.0,,,,1157.714199999988,1158.2223999999762,1157.2053999999762,1157.714199999988,1154.9735,1157.2052999999523,1158.2223999999762,1158.7147999999524,1158.7148999999763,1160.241199999988,1199.0,1160.2412999999524,3.0,1160.2415,4.0,27.0,147.0,17.0,1.0,1.2,0.7,Time
,,S24,1,男,19,anonymized,Serial_Dependence_U,2023.2.3,Win32,60.60606060606061,,,,,,1160.2417999999525,313.0,4.0,1160.2417999999525,313.0,,,,1164.3937999999523,1164.8856999999882,1163.8850999999645,1164.393699999988,1161.2430999999642,1163.885,1164.8856999999882,1165.378199999988,1165.378199999988,1167.1833999999762,1320.0,1167.1835,2.0,1167.1836999999882,4.0,28.0,148.0,29.0,1.0,1.6,0.7,Time
,,S24,1,男,19,anonymized,Serial_Dependence_U,2023.2.3,Win32,60.60606060606061,,,,,,1167.184,160.0,4.0,1167.184,160.0,,,,1170.9585,1171.450699999988,1170.4500999999643,1170.9585,1168.184899999976,1170.45,1171.450699999988,1171.942899999976,1171.943,1173.5515,1229.0,1173.5515,3.0,1173.5517999999524,4.0,29.0,149.0,12.0,1.0,1.2,0.3,Time
,,S24,1,男,19,anonymized,Serial_Dependence_U,2023.2.3,Win32,60.60606060606061,,,,,,1173.5520999999642,273.0,5.0,1302.582699999988,273.0,s,129.0107999999525,,1306.538199999988,1307.0306999999882,1306.0295,1306.5380999999643,1303.5837999999524,1306.0293999999762,1307.0307999999525,1307.5225,1307.5225999999643,1309.317199999988,1386.0,1309.317199999988,3.0,1309.3172999999524,5.0,0.0,150.0,18.0,1.0,1.4,0.7,Time
,,S24,1,男,19,anonymized,Serial_Dependence_U,2023.2.3,Win32,60.60606060606061,,,,,,1309.3175999999642,10.0,5.0,1309.3182999999524,10.0,,,,1313.514,1314.005399999976,1313.0055,1313.5138999999765,1310.3295999999643,1313.005399999976,1314.0055,1314.497699999988,1314.4977999999523,1316.2047999999525,1023.0,1316.2047999999525,1.0,1316.2050999999642,5.0,1.0,151.0,14.0,1.0,1.6,0.3,Time
,,S24,1,男,19,anonymized,Serial_Dependence_U,2023.2.3,Win32,60.60606060606061,,,,,,1316.2052999999523,65.0,5.0,1316.2053999999762,65.0,,,,1320.177,1320.6691999999882,1319.668399999976,1320.1768999999765,1317.2063999999762,1319.6682999999523,1320.6691999999882,1321.161699999988,1321.1617999999523,1322.6715,1071.0,1322.6715,2.0,1322.672,5.0,2.0,152.0,23.0,1.0,1.4,0.3,Time
,,S24,1,男,19,anonymized,Serial_Dependence_U,2023.2.3,Win32,60.60606060606061,,,,,,1322.6723999999765,76.0,5.0,1322.6725,76.0,,,,1326.2426999999882,1326.741199999988,1325.7405999999642,1326.2425999999643,1323.672699999988,1325.7405,1326.7412999999524,1327.2335999999643,1327.2335999999643,1328.7278999999762,1132.0,1328.7278999999762,4.0,1328.7281999999882,5.0,3.0,153.0,21.0,1.0,1.0,0.3,Time
,,S24,1,男,19,anonymized,Serial_Dependence_U,2023.2.3,Win32,60.60606060606061,,,,,,1328.7285999999642,348.0,5.0,1328.728699999988,348.0,,,,1332.2733999999762,1332.7648999999765,1331.7637999999524,1332.2732999999523,1329.7288999999762,1331.763699999988,1332.765,1333.2568999999762,1333.257,1334.5696999999882,999.0,1334.5697999999522,3.0,1334.57,5.0,4.0,154.0,26.0,1.0,1.0,0.7,Time
,,S24,1,男,19,anonymized,Serial_Dependence_U,2023.2.3,Win32,60.60606060606061,,,,,,1334.5702999999523,170.0,5.0,1334.5705,170.0,,,,1338.525699999988,1339.0177999999523,1338.017,1338.5255999999642,1335.5710999999642,1338.0168999999762,1339.0177999999523,1339.5097999999523,1339.5097999999523,1341.2172999999525,1190.0,1341.2172999999525,2.0,1341.217699999988,5.0,5.0,155.0,28.0,1.0,1.4,0.7,Time
,,S24,1,男,19,anonymized,Serial_Dependence_U,2023.2.3,Win32,60.60606060606061,,,,,,1341.2180999999644,102.0,5.0,1341.2181999999882,102.0,,,,1344.598,1345.0903999999762,1344.0892999999523,1344.598,1342.2181999999882,1344.089199999988,1345.0903999999762,1345.5828999999762,1345.5828999999762,1346.6822999999524,1056.0,1346.6823999999765,5.0,1346.6825999999642,5.0,6.0,156.0,20.0,1.0,0.8,0.3,Time
,,S24,1,男,19,anonymized,Serial_Dependence_U,2023.2.3,Win32,60.60606060606061,,,,,,1346.682899999976,199.0,5.0,1346.683,199.0,,,,1350.063199999988,1350.555699999988,1349.5545999999642,1350.0630999999644,1347.6836999999882,1349.5545,1350.5557999999523,1351.0475999999642,1351.0475999999642,1352.4263999999762,940.0,1352.4265,4.0,1352.4268999999765,5.0,7.0,157.0,10.0,1.0,0.8,0.3,Time
,,S24,1,男,19,anonymized,Serial_Dependence_U,2023.2.3,Win32,60.60606060606061,,,,,,1352.4272999999523,75.0,5.0,1352.4273999999762,75.0,,,,1356.3988999999765,1356.890699999988,1355.8895999999645,1356.3988999999765,1353.4277999999524,1355.8895,1356.8907999999524,1357.3825,1357.3825999999642,1358.679399999976,922.0,1358.6795,1.0,1358.6797999999524,5.0,8.0,158.0,13.0,1.0,1.4,0.3,Time
,,S24,1,男,19,anonymized,Serial_Dependence_U,2023.2.3,Win32,60.60606060606061,,,,,,1358.6800999999643,159.0,5.0,1358.6801999999882,159.0,,,,1362.0271999999882,1362.5193999999765,1361.5190999999645,1362.0270999999643,1359.680699999988,1361.519,1362.5193999999765,1363.012,1363.012,1364.5050999999642,978.0,1364.5050999999642,4.0,1364.5052999999525,5.0,9.0,159.0,15.0,1.0,0.8,0.7,Time
,,S24,1,男,19,anonymized,Serial_Dependence_U,2023.2.3,Win32,60.60606060606061,,,,,,1364.5055,285.0,5.0,1364.5055999999645,285.0,,,,1368.690399999976,1369.182699999988,1368.181699999988,1368.690399999976,1365.5072999999522,1368.181699999988,1369.182699999988,1369.6760999999642,1369.6760999999642,1371.628,1124.0,1371.628,2.0,1371.6282999999523,5.0,10.0,160.0,4.0,1.0,1.6,0.3,Time
,,S24,1,男,19,anonymized,Serial_Dependence_U,2023.2.3,Win32,60.60606060606061,,,,,,1371.6285,313.0,5.0,1371.6285999999643,313.0,,,,1375.7805,1376.2727999999524,1375.2747999999524,1375.7803999999762,1372.6293999999762,1375.274699999988,1376.2727999999524,1376.7647999999524,1376.7647999999524,1378.6858999999763,1551.0,1378.6858999999763,3.0,1378.6862999999523,5.0,11.0,161.0,29.0,1.0,1.6,0.7,Time
,,S24,1,男,19,anonymized,Serial_Dependence_U,2023.2.3,Win32,60.60606060606061,,,,,,1378.6865999999643,73.0,5.0,1378.6866999999882,73.0,,,,1382.8705,1383.3625,1382.362699999988,1382.870399999976,1379.6867999999524,1382.3625999999642,1383.3625999999642,1383.8552999999524,1383.8555,1385.7103999999763,1492.0,1385.7105,2.0,1385.711,5.0,12.0,162.0,24.0,1.0,1.6,0.3,Time
,,S24,1,男,19,anonymized,Serial_Dependence_U,2023.2.3,Win32,60.60606060606061,,,,,,1385.711199999988,139.0,5.0,1385.7112999999524,139.0,,,,1389.0910999999642,1389.582699999988,1388.5828999999762,1389.091,1386.712199999988,1388.582699999988,1389.582699999988,1390.0751999999882,1390.0752999999524,1391.159,782.0,1391.159,3.0,1391.1592999999525,5.0,13.0,163.0,0.0,1.0,0.8,0.3,Time
,,S24,1,男,19,anonymized,Serial_Dependence_U,2023.2.3,Win32,60.60606060606061,,,,,,1391.1595,0.0,5.0,1391.159699999988,0.0,,,,1394.9340999999642,1395.4256999999882,1394.4252999999524,1394.9340999999642,1392.1602999999525,1394.425199999988,1395.4256999999882,1395.9180999999642,1395.9180999999642,1397.264,851.0,1397.2640999999642,2.0,1397.2642999999523,5.0,14.0,164.0,2.0,1.0,1.2,0.3,Time
,,S24,1,男,19,anonymized,Serial_Dependence_U,2023.2.3,Win32,60.60606060606061,,,,,,1397.2645999999645,189.0,5.0,1397.264699999988,189.0,,,,1400.8422999999525,1401.3342999999525,1400.3331999999882,1400.8422999999525,1398.2657999999524,1400.3330999999644,1401.3342999999525,1401.8263999999765,1401.8265999999642,1402.9752999999523,679.0,1402.9753999999762,1.0,1402.975699999988,5.0,15.0,165.0,11.0,1.0,1.0,0.3,Time
,,S24,1,男,19,anonymized,Serial_Dependence_U,2023.2.3,Win32,60.60606060606061,,,,,,1402.976,45.0,5.0,1402.9760999999642,45.0,,,,1407.127899999976,1407.62,1406.6188999999763,1407.1277999999525,1403.9765,1406.6187999999524,1407.62,1408.1121999999882,1408.1121999999882,1409.4745,1105.0,1409.4746999999882,1.0,1409.475,5.0,16.0,166.0,9.0,1.0,1.6,0.7,Time
,,S24,1,男,19,anonymized,Serial_Dependence_U,2023.2.3,Win32,60.60606060606061,,,,,,1409.4752999999523,359.0,5.0,1409.4755,359.0,,,,1413.0522999999523,1413.544699999988,1412.5437999999524,1413.0522999999523,1410.4758999999765,1412.5435999999645,1413.544699999988,1414.0368999999762,1414.037,1415.8588999999763,1191.0,1415.8588999999763,4.0,1415.859199999988,5.0,17.0,167.0,1.0,1.0,1.0,0.3,Time
,,S24,1,男,19,anonymized,Serial_Dependence_U,2023.2.3,Win32,60.60606060606061,,,,,,1415.8595999999643,49.0,5.0,1415.8596999999882,49.0,,,,1420.0115999999643,1420.5030999999642,1419.5057999999524,1420.0115,1416.8602999999523,1419.505699999988,1420.5030999999642,1420.9955,1420.9955999999645,1422.9692999999525,1215.0,1422.9693999999763,2.0,1422.9695,5.0,18.0,168.0,19.0,1.0,1.6,0.7,Time
,,S24,1,男,19,anonymized,Serial_Dependence_U,2023.2.3,Win32,60.60606060606061,,,,,,1422.969699999988,39.0,5.0,1422.9698999999762,39.0,,,,1426.9533999999762,1427.4455999999643,1426.444899999976,1426.9532999999524,1423.9836999999882,1426.4447999999522,1427.4455999999643,1427.9375999999645,1427.937699999988,1429.5468999999762,1084.0,1429.5470999999643,2.0,1429.5472999999524,5.0,19.0,169.0,3.0,1.0,1.4,0.3,Time
,,S24,1,男,19,anonymized,Serial_Dependence_U,2023.2.3,Win32,60.60606060606061,,,,,,1429.5475,232.0,5.0,1429.547699999988,232.0,,,,1433.501899999976,1433.9943999999762,1432.9933999999762,1433.5017999999525,1430.547699999988,1432.993199999988,1433.9945,1434.486199999988,1434.4862999999525,1436.227699999988,1384.0,1436.227699999988,3.0,1436.228,5.0,20.0,170.0,8.0,1.0,1.4,0.7,Time
,,S24,1,男,19,anonymized,Serial_Dependence_U,2023.2.3,Win32,60.60606060606061,,,,,,1436.2282999999522,30.0,5.0,1436.228399999976,30.0,,,,1439.5745999999642,1440.0662999999524,1439.0657999999523,1439.5745999999642,1437.227399999976,1439.065699999988,1440.0662999999524,1440.5587999999525,1440.5587999999525,1441.8063999999763,738.0,1441.8065,2.0,1441.8067999999523,5.0,21.0,171.0,5.0,1.0,0.8,0.7,Time
,,S24,1,男,19,anonymized,Serial_Dependence_U,2023.2.3,Win32,60.60606060606061,,,,,,1441.8070999999643,336.0,5.0,1441.807199999988,336.0,,,,1445.5812999999523,1446.0727999999524,1445.072399999976,1445.581199999988,1442.8075,1445.072199999988,1446.0727999999524,1446.5657999999523,1446.5657999999523,1448.1620999999643,1210.0,1448.1620999999643,3.0,1448.1622999999524,5.0,22.0,172.0,12.0,1.0,1.2,0.3,Time
,,S24,1,男,19,anonymized,Serial_Dependence_U,2023.2.3,Win32,60.60606060606061,,,,,,1448.1625,92.0,5.0,1448.1625999999642,92.0,,,,1451.9030999999643,1452.392,1451.394,1451.9030999999643,1449.159199999988,1451.394,1452.392,1452.8838999999762,1452.884,1454.381399999976,1161.0,1454.381399999976,3.0,1454.3815999999642,5.0,23.0,173.0,7.0,1.0,1.2,0.7,Time
,,S24,1,男,19,anonymized,Serial_Dependence_U,2023.2.3,Win32,60.60606060606061,,,,,,1454.3817999999524,245.0,5.0,1454.3818999999762,245.0,,,,1458.1197999999524,1458.612,1457.6145,1458.119699999988,1455.3790999999642,1457.6145,1458.612,1459.1042999999524,1459.1042999999524,1460.5857999999523,1182.0,1460.5857999999523,3.0,1460.5858999999762,5.0,24.0,174.0,27.0,1.0,1.2,0.7,Time
,,S24,1,男,19,anonymized,Serial_Dependence_U,2023.2.3,Win32,60.60606060606061,,,,,,1460.5860999999643,114.0,5.0,1460.586199999988,114.0,,,,1464.3733999999763,1464.864699999988,1463.866,1464.3732999999525,1461.6025,1463.866,1464.8647999999523,1465.3573999999762,1465.3573999999762,1466.6097999999524,680.0,1466.6097999999524,1.0,1466.61,5.0,25.0,175.0,22.0,1.0,1.2,0.3,Time
,,S24,1,男,19,anonymized,Serial_Dependence_U,2023.2.3,Win32,60.60606060606061,,,,,,1466.610199999988,196.0,5.0,1466.6102999999523,196.0,,,,1469.9698999999762,1470.4615999999642,1469.4605999999642,1469.9697999999523,1467.622699999988,1469.4605999999642,1470.4615999999642,1470.9540999999642,1470.954199999988,1472.1688999999762,816.0,1472.169,3.0,1472.1692999999525,5.0,26.0,176.0,25.0,1.0,0.8,0.7,Time
,,S24,1,男,19,anonymized,Serial_Dependence_U,2023.2.3,Win32,60.60606060606061,,,,,,1472.1695999999642,163.0,5.0,1472.169699999988,163.0,,,,1475.7135999999643,1476.2058999999765,1475.2050999999642,1475.7135999999643,1473.1698999999762,1475.205,1476.2058999999765,1476.6980999999644,1476.6980999999644,1477.9785,839.0,1477.9785999999642,2.0,1477.9788999999762,5.0,27.0,177.0,16.0,1.0,1.0,0.7,Time
,,S24,1,男,19,anonymized,Serial_Dependence_U,2023.2.3,Win32,60.60606060606061,,,,,,1477.9791999999882,285.0,5.0,1477.9793999999763,285.0,,,,1481.523699999988,1482.0152999999525,1481.0180999999643,1481.5235999999643,1478.9803999999765,1481.018,1482.0152999999525,1482.5083999999763,1482.5083999999763,1484.005399999976,968.0,1484.005399999976,3.0,1484.0055999999645,5.0,28.0,178.0,6.0,1.0,1.0,0.7,Time
,,S24,1,男,19,anonymized,Serial_Dependence_U,2023.2.3,Win32,60.60606060606061,,,,,,1484.005699999988,37.0,5.0,1484.0057999999524,37.0,,,,1487.7436999999882,1488.235699999988,1487.2382999999525,1487.7435999999643,1485.0025,1487.2380999999643,1488.235699999988,1488.7280999999643,1488.7281999999882,1490.3085999999644,1084.0,1490.3085999999644,2.0,1490.3087999999525,5.0,29.0,179.0,17.0,1.0,1.2,0.7,Time
,,S24,1,男,19,anonymized,Serial_Dependence_U,2023.2.3,Win32,60.60606060606061,,,,,,1490.309,6.0,6.0,1586.248699999988,6.0,s,95.91450000000007,0.0023000000119282,1589.639399999976,1590.138,1589.1215,1589.6392999999523,1587.2535999999643,1589.1215,1590.1380999999642,1590.631,1590.631,1591.6153999999765,591.0,1591.6153999999765,2.0,1591.615699999988,6.0,0.0,180.0,0.0,1.0,0.8,0.3,Time
,,S24,1,男,19,anonymized,Serial_Dependence_U,2023.2.3,Win32,60.60606060606061,,,,,,1591.615899999976,194.0,6.0,1591.6172999999524,194.0,,,,1595.801199999988,1596.2922999999523,1595.2916999999882,1595.8010999999642,1592.620199999988,1595.2916999999882,1596.2922999999523,1596.7848999999762,1596.7848999999762,1598.3441999999882,1059.0,1598.3442999999525,1.0,1598.3445,6.0,1.0,181.0,24.0,1.0,1.6,0.3,Time
,,S24,1,男,19,anonymized,Serial_Dependence_U,2023.2.3,Win32,60.60606060606061,,,,,,1598.344699999988,120.0,6.0,1598.344699999988,120.0,,,,1602.316,1602.807899999976,1601.808199999988,1602.3157999999523,1599.3453999999765,1601.8080999999645,1602.808,1603.3005999999643,1603.3005999999643,1604.3517999999524,583.0,1604.3517999999524,1.0,1604.3520999999644,6.0,2.0,182.0,3.0,1.0,1.4,0.3,Time
,,S24,1,男,19,anonymized,Serial_Dependence_U,2023.2.3,Win32,60.60606060606061,,,,,,1604.352399999976,2.0,6.0,1604.3525,2.0,,,,1607.9295,1608.4212999999525,1607.4205,1607.9295,1605.3528999999762,1607.420399999976,1608.4212999999525,1608.913699999988,1608.913699999988,1610.2435,559.0,1610.2435999999643,1.0,1610.244,6.0,3.0,183.0,1.0,1.0,1.0,0.3,Time
,,S24,1,男,19,anonymized,Serial_Dependence_U,2023.2.3,Win32,60.60606060606061,,,,,,1610.244199999988,218.0,6.0,1610.2442999999523,218.0,,,,1614.2148999999763,1614.707,1613.7062999999523,1614.2147999999524,1611.244199999988,1613.706199999988,1614.7070999999644,1615.199399999976,1615.1995,1616.7922999999523,880.0,1616.7923999999762,1.0,1616.792699999988,6.0,4.0,184.0,23.0,1.0,1.4,0.3,Time
,,S24,1,男,19,anonymized,Serial_Dependence_U,2023.2.3,Win32,60.60606060606061,,,,,,1616.793,295.0,6.0,1616.793199999988,295.0,,,,1620.5667999999523,1621.058899999976,1620.058,1620.566699999988,1617.7928999999765,1620.057899999976,1621.058899999976,1621.5507999999525,1621.550899999976,1622.8965,908.0,1622.8965999999643,2.0,1622.8967999999525,6.0,5.0,185.0,12.0,1.0,1.2,0.3,Time
,,S24,1,男,19,anonymized,Serial_Dependence_U,2023.2.3,Win32,60.60606060606061,,,,,,1622.8970999999642,184.0,6.0,1622.8970999999642,184.0,,,,1626.4745999999643,1626.9670999999644,1625.9658999999765,1626.4745,1623.8976999999882,1625.9657999999524,1626.9670999999644,1627.4590999999643,1627.4590999999643,1628.9035,1169.0,1628.9035,4.0,1628.903699999988,6.0,6.0,186.0,11.0,1.0,1.0,0.3,Time
,,S24,1,男,19,anonymized,Serial_Dependence_U,2023.2.3,Win32,60.60606060606061,,,,,,1628.903899999976,201.0,6.0,1628.904,201.0,,,,1633.0560999999643,1633.5487999999525,1632.5478999999762,1633.056,1629.904899999976,1632.5477999999523,1633.5487999999525,1634.0402999999524,1634.0403999999762,1635.7470999999643,1169.0,1635.7471999999882,2.0,1635.7475,6.0,7.0,187.0,29.0,1.0,1.6,0.7,Time
,,S24,1,男,19,anonymized,Serial_Dependence_U,2023.2.3,Win32,60.60606060606061,,,,,,1635.7477999999523,313.0,6.0,1635.7477999999523,313.0,,,,1639.1283999999762,1639.6207999999524,1638.6205,1639.128199999988,1636.7485999999642,1638.620399999976,1639.6207999999524,1640.113399999976,1640.113399999976,1640.9336999999882,532.0,1640.9336999999882,1.0,1640.934,6.0,8.0,188.0,10.0,1.0,0.8,0.3,Time
,,S24,1,男,19,anonymized,Serial_Dependence_U,2023.2.3,Win32,60.60606060606061,,,,,,1640.9342999999524,295.0,6.0,1640.9343999999762,295.0,,,,1644.6755,1645.1690999999644,1644.1678999999765,1644.6753999999762,1641.9347999999522,1644.167699999988,1645.1690999999644,1645.6605,1645.6605,1647.1582999999523,1061.0,1647.1583999999762,2.0,1647.1585,6.0,9.0,189.0,7.0,1.0,1.2,0.7,Time
,,S24,1,男,19,anonymized,Serial_Dependence_U,2023.2.3,Win32,60.60606060606061,,,,,,1647.158699999988,24.0,6.0,1647.1587999999524,24.0,,,,1650.5516999999882,1651.043199999988,1650.0427999999524,1650.5515999999643,1648.1746999999882,1650.042699999988,1651.0432999999523,1651.5357999999524,1651.5357999999524,1652.5245999999645,715.0,1652.5245999999645,2.0,1652.524699999988,6.0,10.0,190.0,20.0,1.0,0.8,0.3,Time
,,S24,1,男,19,anonymized,Serial_Dependence_U,2023.2.3,Win32,60.60606060606061,,,,,,1652.525,95.0,6.0,1652.525,95.0,,,,1656.0657999999523,1656.558,1655.5568999999762,1656.065699999988,1653.5217999999525,1655.5567999999523,1656.5580999999645,1657.049899999976,1657.05,1658.433199999988,853.0,1658.433199999988,2.0,1658.4333999999762,6.0,11.0,191.0,16.0,1.0,1.0,0.7,Time
,,S24,1,男,19,anonymized,Serial_Dependence_U,2023.2.3,Win32,60.60606060606061,,,,,,1658.4335999999644,59.0,6.0,1658.4335999999644,59.0,,,,1661.7935,1662.285699999988,1661.2847999999524,1661.793399999976,1659.447199999988,1661.284699999988,1662.2857999999524,1662.777699999988,1662.7777999999523,1664.1733999999765,898.0,1664.1735,4.0,1664.1737999999525,6.0,12.0,192.0,5.0,1.0,0.8,0.7,Time
,,S24,1,男,19,anonymized,Serial_Dependence_U,2023.2.3,Win32,60.60606060606061,,,,,,1664.1740999999645,44.0,6.0,1664.1742999999524,44.0,,,,1667.5212999999524,1668.0130999999642,1667.0123999999762,1667.5210999999642,1665.1740999999645,1667.0123999999762,1668.0130999999642,1668.505399999976,1668.505399999976,1669.7861999999882,977.0,1669.7861999999882,4.0,1669.786399999976,6.0,13.0,193.0,25.0,1.0,0.8,0.7,Time
,,S24,1,男,19,anonymized,Serial_Dependence_U,2023.2.3,Win32,60.60606060606061,,,,,,1669.7865999999642,148.0,6.0,1669.786699999988,148.0,,,,1673.3315,1673.823,1672.822699999988,1673.3312999999523,1670.787699999988,1672.8225999999645,1673.823,1674.315399999976,1674.315399999976,1675.7762999999522,1180.0,1675.776399999976,4.0,1675.776699999988,6.0,14.0,194.0,6.0,1.0,1.0,0.7,Time
,,S24,1,男,19,anonymized,Serial_Dependence_U,2023.2.3,Win32,60.60606060606061,,,,,,1675.777,171.0,6.0,1675.7770999999643,171.0,,,,1679.7316999999882,1680.2236999999882,1679.2233999999762,1679.7315999999644,1676.7778999999762,1679.2232999999524,1680.2236999999882,1680.716199999988,1680.716199999988,1682.160399999976,1140.0,1682.160399999976,2.0,1682.1605999999642,6.0,15.0,195.0,8.0,1.0,1.4,0.7,Time
,,S24,1,男,19,anonymized,Serial_Dependence_U,2023.2.3,Win32,60.60606060606061,,,,,,1682.1608999999762,283.0,6.0,1682.161,283.0,,,,1686.313199999988,1686.8048999999762,1685.8040999999644,1686.313199999988,1683.1618999999762,1685.8040999999644,1686.8048999999762,1687.2975999999642,1687.2975999999642,1689.4805,1435.0,1689.4805,2.0,1689.480699999988,6.0,16.0,196.0,9.0,1.0,1.6,0.7,Time
,,S24,1,男,19,anonymized,Serial_Dependence_U,2023.2.3,Win32,60.60606060606061,,,,,,1689.4810999999645,158.0,6.0,1689.4812999999524,158.0,,,,1693.2225,1693.7147999999524,1692.7146999999882,1693.2225,1690.4817999999525,1692.7145999999643,1693.7147999999524,1694.207699999988,1694.2077999999524,1695.8152999999525,1302.0,1695.815399999976,4.0,1695.8155,6.0,17.0,197.0,27.0,1.0,1.2,0.7,Time
,,S24,1,男,19,anonymized,Serial_Dependence_U,2023.2.3,Win32,60.60606060606061,,,,,,1695.8157999999523,44.0,6.0,1695.816,44.0,,,,1699.7870999999643,1700.2792999999524,1699.279199999988,1699.787,1696.816699999988,1699.279199999988,1700.2793999999762,1700.7715,1700.7715999999643,1701.954,870.0,1701.9540999999642,1.0,1701.9543999999762,6.0,18.0,198.0,13.0,1.0,1.4,0.3,Time
,,S24,1,男,19,anonymized,Serial_Dependence_U,2023.2.3,Win32,60.60606060606061,,,,,,1701.9547999999525,137.0,6.0,1701.955,137.0,,,,1705.729,1706.2205,1705.2205999999642,1705.7288999999762,1702.9546999999882,1705.2205999999642,1706.2205,1706.713,1706.7130999999642,1708.1453999999762,703.0,1708.1455,1.0,1708.1456999999882,6.0,19.0,199.0,22.0,1.0,1.2,0.3,Time
,,S24,1,男,19,anonymized,Serial_Dependence_U,2023.2.3,Win32,60.60606060606061,,,,,,1708.145899999976,271.0,6.0,1708.146,271.0,,,,1711.5085999999642,1711.9978999999762,1710.9971999999882,1711.5085,1709.1585,1710.9970999999643,1711.998,1712.4895999999642,1712.4895999999642,1713.855699999988,919.0,1713.8557999999523,4.0,1713.855899999976,6.0,20.0,200.0,15.0,1.0,0.8,0.7,Time
,,S24,1,男,19,anonymized,Serial_Dependence_U,2023.2.3,Win32,60.60606060606061,,,,,,1713.856199999988,283.0,6.0,1713.8562999999524,283.0,,,,1717.4302999999522,1717.9225,1716.9215,1717.4301999999882,1714.857199999988,1716.9215,1717.9225999999642,1718.4145,1718.4145,1719.629199999988,895.0,1719.6292999999523,2.0,1719.6295999999645,6.0,21.0,201.0,21.0,1.0,1.0,0.3,Time
,,S24,1,男,19,anonymized,Serial_Dependence_U,2023.2.3,Win32,60.60606060606061,,,,,,1719.6298999999765,48.0,6.0,1719.630199999988,48.0,,,,1723.4042999999524,1723.896199999988,1722.8953999999762,1723.4042999999524,1720.630699999988,1722.8952999999524,1723.896199999988,1724.388699999988,1724.388699999988,1725.488,805.0,1725.4880999999643,1.0,1725.4882999999525,6.0,22.0,202.0,2.0,1.0,1.2,0.3,Time
,,S24,1,男,19,anonymized,Serial_Dependence_U,2023.2.3,Win32,60.60606060606061,,,,,,1725.4885,107.0,6.0,1725.488699999988,107.0,,,,1729.2302999999524,1729.7230999999642,1728.721699999988,1729.230199999988,1726.489699999988,1728.7215999999644,1729.723199999988,1730.2155999999643,1730.2155999999643,1731.806699999988,1259.0,1731.8067999999523,3.0,1731.807,6.0,23.0,203.0,17.0,1.0,1.2,0.7,Time
,,S24,1,男,19,anonymized,Serial_Dependence_U,2023.2.3,Win32,60.60606060606061,,,,,,1731.8072999999524,154.0,6.0,1731.8075,154.0,,,,1735.9922999999524,1736.4838999999763,1735.483199999988,1735.9922999999524,1732.808199999988,1735.4830999999642,1736.484,1736.9771999999882,1736.9771999999882,1738.437199999988,1157.0,1738.4372999999523,2.0,1738.4373999999762,6.0,24.0,204.0,14.0,1.0,1.6,0.3,Time
,,S24,1,男,19,anonymized,Serial_Dependence_U,2023.2.3,Win32,60.60606060606061,,,,,,1738.437699999988,250.0,6.0,1738.4377999999524,250.0,,,,1741.9833999999762,1742.475,1741.4740999999642,1741.9832999999524,1739.439,1741.4740999999642,1742.475,1742.967,1742.967,1744.4115,1042.0,1744.4115999999642,3.0,1744.4117999999523,6.0,25.0,205.0,26.0,1.0,1.0,0.7,Time
,,S24,1,男,19,anonymized,Serial_Dependence_U,2023.2.3,Win32,60.60606060606061,,,,,,1744.4120999999643,296.0,6.0,1744.4121999999882,296.0,,,,1748.5641999999882,1749.0558999999762,1748.0548999999762,1748.5640999999644,1745.413,1748.0547999999524,1749.0558999999762,1749.548,1749.5480999999645,1751.0415999999643,1225.0,1751.0415999999643,2.0,1751.0417999999524,6.0,26.0,206.0,19.0,1.0,1.6,0.7,Time
,,S24,1,男,19,anonymized,Serial_Dependence_U,2023.2.3,Win32,60.60606060606061,,,,,,1751.0420999999642,19.0,6.0,1751.0420999999642,19.0,,,,1755.2127999999525,1755.7027999999525,1754.7048999999763,1755.2127999999525,1752.0440999999644,1754.7048999999763,1755.7027999999525,1756.194899999976,1756.195,1757.1510999999643,666.0,1757.1511999999882,1.0,1757.1512999999522,6.0,27.0,207.0,4.0,1.0,1.6,0.3,Time
,,S24,1,男,19,anonymized,Serial_Dependence_U,2023.2.3,Win32,60.60606060606061,,,,,,1757.1515,147.0,6.0,1757.1515999999642,147.0,,,,1761.119199999988,1761.611399999976,1760.6103999999762,1761.1190999999642,1758.1680999999642,1760.6102999999523,1761.6115,1762.1038999999762,1762.1038999999762,1763.482199999988,1132.0,1763.4822999999524,2.0,1763.4825999999643,6.0,28.0,208.0,28.0,1.0,1.4,0.7,Time
,,S24,1,男,19,anonymized,Serial_Dependence_U,2023.2.3,Win32,60.60606060606061,,,,,,1763.482899999976,263.0,6.0,1763.4830999999642,263.0,,,,1767.4378999999765,1767.9301999999882,1766.930699999988,1767.4378999999765,1764.4833999999762,1766.9305999999642,1767.9301999999882,1768.4220999999643,1768.4220999999643,1770.2115,1396.0,1770.211699999988,3.0,1770.211899999976,6.0,29.0,209.0,18.0,1.0,1.4,0.7,Time
,,S24,1,男,19,anonymized,Serial_Dependence_U,2023.2.3,Win32,60.60606060606061,,,,,,1770.212199999988,179.0,7.0,1826.1275999999643,179.0,s,55.89539999997601,,1830.2792999999524,1830.771199999988,1829.7707999999525,1830.2792999999524,1827.1287999999524,1829.7707999999525,1830.771199999988,1831.2638999999765,1831.2638999999765,1832.8762999999524,1325.0,1832.8762999999524,2.0,1832.8765,7.0,0.0,210.0,9.0,1.0,1.6,0.7,Time
,,S24,1,男,19,anonymized,Serial_Dependence_U,2023.2.3,Win32,60.60606060606061,,,,,,1832.876699999988,112.0,7.0,1832.8775,112.0,,,,1836.418099999964,1836.909699999988,1835.9085,1836.418099999964,1833.8735,1835.9085,1836.909699999988,1837.4023999999763,1837.4025,1838.6005,970.0,1838.6005,3.0,1838.6007999999524,7.0,1.0,211.0,26.0,1.0,1.0,0.7,Time
,,S24,1,男,19,anonymized,Serial_Dependence_U,2023.2.3,Win32,60.60606060606061,,,,,,1838.601,269.0,7.0,1838.601099999964,269.0,,,,1842.1785999999645,1842.669899999976,1841.669599999964,1842.1785,1839.6015,1841.669399999976,1842.67,1843.1623999999763,1843.1625,1844.0325,592.0,1844.0325999999643,1.0,1844.0327999999524,7.0,2.0,212.0,21.0,1.0,1.0,0.3,Time
,,S24,1,男,19,anonymized,Serial_Dependence_U,2023.2.3,Win32,60.60606060606061,,,,,,1844.033,96.0,7.0,1844.033199999988,96.0,,,,1848.2180999999644,1848.709699999988,1847.709,1848.218,1845.0338999999765,1847.709,1848.7097999999523,1849.2067999999524,1849.2068999999765,1850.6298999999765,1039.0,1850.6298999999765,1.0,1850.630099999964,7.0,3.0,213.0,24.0,1.0,1.6,0.3,Time
,,S24,1,男,19,anonymized,Serial_Dependence_U,2023.2.3,Win32,60.60606060606061,,,,,,1850.630199999988,240.0,7.0,1850.630399999976,240.0,,,,1854.0122999999523,1854.503099999964,1853.506699999988,1854.012099999964,1851.631399999976,1853.5065,1854.503099999964,1854.9955999999645,1854.9955999999645,1856.1162999999524,863.0,1856.116399999976,4.0,1856.1165999999644,7.0,4.0,214.0,20.0,1.0,0.8,0.3,Time
,,S24,1,男,19,anonymized,Serial_Dependence_U,2023.2.3,Win32,60.60606060606061,,,,,,1856.1167999999525,39.0,7.0,1856.117,39.0,,,,1860.296599999964,1860.7887999999523,1859.791099999964,1860.296599999964,1857.129399999976,1859.791099999964,1860.7887999999523,1861.2812999999524,1861.2812999999524,1862.413599999964,800.0,1862.413699999988,1.0,1862.4137999999523,7.0,5.0,215.0,14.0,1.0,1.6,0.3,Time
,,S24,1,男,19,anonymized,Serial_Dependence_U,2023.2.3,Win32,60.60606060606061,,,,,,1862.4140999999645,198.0,7.0,1862.4142999999524,198.0,,,,1866.3567999999525,1866.845,1865.8475,1866.356699999988,1863.4152999999524,1865.847399999976,1866.8450999999643,1867.3375,1867.3375,1869.2457999999524,1321.0,1869.245899999976,2.0,1869.246,7.0,6.0,216.0,28.0,1.0,1.4,0.7,Time
,,S24,1,男,19,anonymized,Serial_Dependence_U,2023.2.3,Win32,60.60606060606061,,,,,,1869.2460999999644,207.0,7.0,1869.2462999999525,207.0,,,,1873.4102999999525,1873.903199999988,1872.901299999952,1873.410199999988,1870.262399999976,1872.901299999952,1873.9032999999524,1874.3945,1874.3945999999644,1876.0385,1378.0,1876.0385,2.0,1876.038699999988,7.0,7.0,217.0,19.0,1.0,1.6,0.7,Time
,,S24,1,男,19,anonymized,Serial_Dependence_U,2023.2.3,Win32,60.60606060606061,,,,,,1876.038899999976,69.0,7.0,1876.039,69.0,,,,1880.027899999976,1880.5205999999644,1879.515399999976,1880.0277999999523,1877.040799999952,1879.5152999999525,1880.5205999999644,1881.0087999999523,1881.008899999976,1882.2760999999643,949.0,1882.2760999999643,1.0,1882.276299999952,7.0,8.0,218.0,13.0,1.0,1.4,0.3,Time
,,S24,1,男,19,anonymized,Serial_Dependence_U,2023.2.3,Win32,60.60606060606061,,,,,,1882.276399999976,127.0,7.0,1882.2765,127.0,,,,1885.656,1886.1455999999644,1885.145,1885.655899999976,1883.2775,1885.1447999999525,1886.1455999999644,1886.638,1886.638,1887.8405999999643,935.0,1887.840699999988,4.0,1887.8407999999524,7.0,9.0,219.0,10.0,1.0,0.8,0.3,Time
,,S24,1,男,19,anonymized,Serial_Dependence_U,2023.2.3,Win32,60.60606060606061,,,,,,1887.8408999999765,309.0,7.0,1887.841099999964,309.0,,,,1891.200599999964,1891.6927999999525,1890.697,1891.2005,1888.853899999976,1890.697,1891.692899999976,1892.185699999988,1892.1857999999525,1893.338699999988,870.0,1893.338899999976,4.0,1893.339,7.0,10.0,220.0,15.0,1.0,0.8,0.7,Time
,,S24,1,男,19,anonymized,Serial_Dependence_U,2023.2.3,Win32,60.60606060606061,,,,,,1893.339099999964,248.0,7.0,1893.3392999999523,248.0,,,,1897.125699999988,1897.6175,1896.6185,1897.125699999988,1894.352,1896.6185,1897.6175,1898.110099999964,1898.110099999964,1899.2807999999525,832.0,1899.280899999976,1.0,1899.281,7.0,11.0,221.0,22.0,1.0,1.2,0.3,Time
,,S24,1,男,19,anonymized,Serial_Dependence_U,2023.2.3,Win32,60.60606060606061,,,,,,1899.281199999988,300.0,7.0,1899.2812999999524,300.0,,,,1903.067199999988,1903.5587999999525,1902.5615,1903.0670999999645,1900.2962999999525,1902.561399999976,1903.5587999999525,1904.0517999999524,1904.0517999999524,1905.495699999988,947.0,1905.4957999999524,2.0,1905.496,7.0,12.0,222.0,12.0,1.0,1.2,0.3,Time
,,S24,1,男,19,anonymized,Serial_Dependence_U,2023.2.3,Win32,60.60606060606061,,,,,,1905.4960999999644,286.0,7.0,1905.4962999999525,286.0,,,,1908.8775999999643,1909.3687999999524,1908.368099999964,1908.8775,1906.496899999976,1908.368099999964,1909.3687999999524,1909.861,1909.861,1911.141899999976,1029.0,1911.1420999999643,4.0,1911.1422999999525,7.0,13.0,223.0,0.0,1.0,0.8,0.3,Time
,,S24,1,男,19,anonymized,Serial_Dependence_U,2023.2.3,Win32,60.60606060606061,,,,,,1911.1425,330.0,7.0,1911.142699999988,330.0,,,,1914.6865999999643,1915.178899999976,1914.1778999999765,1914.6865,1912.142899999976,1914.1777999999524,1915.179,1915.6710999999643,1915.6710999999643,1917.066199999988,1129.0,1917.0662999999524,4.0,1917.066599999964,7.0,14.0,224.0,16.0,1.0,1.0,0.7,Time
,,S24,1,男,19,anonymized,Serial_Dependence_U,2023.2.3,Win32,60.60606060606061,,,,,,1917.067,122.0,7.0,1917.0670999999645,122.0,,,,1920.843199999988,1921.333199999988,1920.3325999999645,1920.8430999999644,1918.067699999988,1920.3325,1921.333199999988,1921.826,1921.826,1923.614899999976,1250.0,1923.615,3.0,1923.6155,7.0,15.0,225.0,2.0,1.0,1.2,0.3,Time
,,S24,1,男,19,anonymized,Serial_Dependence_U,2023.2.3,Win32,60.60606060606061,,,,,,1923.6157999999523,321.0,7.0,1923.616,321.0,,,,1927.1958999999763,1927.684399999976,1926.683399999976,1927.1957999999524,1924.6165999999644,1926.683399999976,1927.684399999976,1928.1768999999765,1928.1768999999765,1929.478299999952,1007.0,1929.478299999952,3.0,1929.478399999976,7.0,16.0,226.0,1.0,1.0,1.0,0.3,Time
,,S24,1,男,19,anonymized,Serial_Dependence_U,2023.2.3,Win32,60.60606060606061,,,,,,1929.478599999964,192.0,7.0,1929.478699999988,192.0,,,,1933.430599999964,1933.9210999999643,1932.9233999999765,1933.4305,1930.478199999988,1932.9232999999524,1933.9210999999643,1934.4135,1934.4135,1936.141,1429.0,1936.1410999999644,3.0,1936.1412999999525,7.0,17.0,227.0,18.0,1.0,1.4,0.7,Time
,,S24,1,男,19,anonymized,Serial_Dependence_U,2023.2.3,Win32,60.60606060606061,,,,,,1936.141399999976,152.0,7.0,1936.1415,152.0,,,,1940.125199999988,1940.617099999964,1939.6195,1940.1250999999645,1937.1565999999643,1939.6195,1940.617099999964,1941.112199999988,1941.112199999988,1942.932,1084.0,1942.9320999999643,2.0,1942.9322999999524,7.0,18.0,228.0,3.0,1.0,1.4,0.3,Time
,,S24,1,男,19,anonymized,Serial_Dependence_U,2023.2.3,Win32,60.60606060606061,,,,,,1942.9325,340.0,7.0,1942.932699999988,340.0,,,,1947.119699999988,1947.6085999999643,1946.6112999999525,1947.119699999988,1943.9365999999643,1946.611199999988,1947.6085999999643,1948.1025,1948.1025,1949.7795,1027.0,1949.7795,1.0,1949.7795,7.0,19.0,229.0,4.0,1.0,1.6,0.3,Time
,,S24,1,男,19,anonymized,Serial_Dependence_U,2023.2.3,Win32,60.60606060606061,,,,,,1949.779699999988,175.0,7.0,1949.779899999976,175.0,,,,1953.928099999964,1954.4195,1953.419,1953.928,1950.7765,1953.418899999976,1954.419599999964,1954.912599999964,1954.912699999988,1956.668099999964,1474.0,1956.668099999964,2.0,1956.6682999999523,7.0,20.0,230.0,29.0,1.0,1.6,0.7,Time
,,S24,1,男,19,anonymized,Serial_Dependence_U,2023.2.3,Win32,60.60606060606061,,,,,,1956.6685,319.0,7.0,1956.668699999988,319.0,,,,1960.2135999999643,1960.7055999999643,1959.705399999976,1960.2135,1957.6700999999643,1959.7052999999523,1960.7055999999643,1961.199699999988,1961.199699999988,1962.5115999999643,1033.0,1962.511699999988,3.0,1962.511899999976,7.0,21.0,231.0,6.0,1.0,1.0,0.7,Time
,,S24,1,男,19,anonymized,Serial_Dependence_U,2023.2.3,Win32,60.60606060606061,,,,,,1962.512099999964,208.0,7.0,1962.512199999988,208.0,,,,1966.252899999976,1966.745199999988,1965.7448999999765,1966.2527999999525,1963.512199999988,1965.7447999999524,1966.745199999988,1967.2375,1967.2375,1968.731399999976,1212.0,1968.731399999976,3.0,1968.731699999988,7.0,22.0,232.0,17.0,1.0,1.2,0.7,Time
,,S24,1,男,19,anonymized,Serial_Dependence_U,2023.2.3,Win32,60.60606060606061,,,,,,1968.7317999999525,176.0,7.0,1968.731899999976,176.0,,,,1972.6868999999765,1973.1787999999524,1972.1787999999524,1972.6868999999765,1969.732899999976,1972.178699999988,1973.1787999999524,1973.671199999988,1973.6712999999525,1975.2142999999523,1272.0,1975.214399999976,2.0,1975.2145999999643,7.0,23.0,233.0,8.0,1.0,1.4,0.7,Time
,,S24,1,男,19,anonymized,Serial_Dependence_U,2023.2.3,Win32,60.60606060606061,,,,,,1975.2148999999763,75.0,7.0,1975.215099999964,75.0,,,,1978.9562999999523,1979.448199999988,1978.447199999988,1978.956199999988,1976.2155999999643,1978.447199999988,1979.448199999988,1979.940599999964,1979.9407999999523,1981.369,1205.0,1981.369,3.0,1981.369399999976,7.0,24.0,234.0,7.0,1.0,1.2,0.7,Time
,,S24,1,男,19,anonymized,Serial_Dependence_U,2023.2.3,Win32,60.60606060606061,,,,,,1981.3697999999524,329.0,7.0,1981.37,329.0,,,,1984.716899999976,1985.209,1984.2085,1984.716899999976,1982.370399999976,1984.208399999976,1985.209,1985.7012999999524,1985.7013999999765,1986.6700999999643,690.0,1986.670199999988,2.0,1986.670599999964,7.0,25.0,235.0,5.0,1.0,0.8,0.7,Time
,,S24,1,男,19,anonymized,Serial_Dependence_U,2023.2.3,Win32,60.60606060606061,,,,,,1986.670899999976,329.0,7.0,1986.671,329.0,,,,1990.4117999999523,1990.903699999988,1989.9033999999765,1990.411599999964,1987.6713999999763,1989.9032999999524,1990.903699999988,1991.3962999999524,1991.396399999976,1993.0875999999644,1357.0,1993.087699999988,4.0,1993.088,7.0,26.0,236.0,27.0,1.0,1.2,0.7,Time
,,S24,1,男,19,anonymized,Serial_Dependence_U,2023.2.3,Win32,60.60606060606061,,,,,,1993.0882999999524,82.0,7.0,1993.0885,82.0,,,,1997.0592999999524,1997.5505999999643,1996.55,1997.0592999999524,1994.087899999976,1996.549899999976,1997.5505999999643,1998.0432999999523,1998.0432999999523,1999.126399999976,794.0,1999.1265,1.0,1999.126699999988,7.0,27.0,237.0,23.0,1.0,1.4,0.3,Time
,,S24,1,男,19,anonymized,Serial_Dependence_U,2023.2.3,Win32,60.60606060606061,,,,,,1999.127,143.0,7.0,1999.127099999964,143.0,,,,2002.4747999999524,2002.966699999988,2001.966,2002.4745999999643,2000.128399999976,2001.9658999999765,2002.966699999988,2003.4593999999763,2003.4595,2004.985599999964,1159.0,2004.985699999988,5.0,2004.986,7.0,28.0,238.0,25.0,1.0,0.8,0.7,Time
,,S24,1,男,19,anonymized,Serial_Dependence_U,2023.2.3,Win32,60.60606060606061,,,,,,2004.986199999988,226.0,7.0,2004.986399999976,226.0,,,,2008.563399999976,2009.0555,2008.055,2008.563299999952,2005.986799999952,2008.054899999976,2009.0555,2009.548199999988,2009.548299999952,2010.795199999988,881.0,2010.795299999952,2.0,2010.795399999976,7.0,29.0,239.0,11.0,1.0,1.0,0.3,Time
,,S24,1,男,19,anonymized,Serial_Dependence_U,2023.2.3,Win32,60.60606060606061,,,,,,2010.795599999964,345.0,8.0,2060.920899999976,345.0,s,50.116899999975885,,2064.892599999964,2065.386899999976,2064.384199999988,2064.892599999964,2061.922,2064.384099999964,2065.386899999976,2065.876399999976,2065.876399999976,2067.601,1280.0,2067.601,2.0,2067.601099999964,8.0,0.0,240.0,23.0,1.0,1.4,0.3,Time
,,S24,1,男,19,anonymized,Serial_Dependence_U,2023.2.3,Win32,60.60606060606061,,,,,,2067.601299999952,43.0,8.0,2067.601899999976,43.0,,,,2071.145799999952,2071.636899999976,2070.637099999964,2071.145799999952,2068.601699999988,2070.637,2071.637099999964,2072.1292999999523,2072.129399999976,2073.985299999952,1313.0,2073.985299999952,5.0,2073.985299999952,8.0,1.0,241.0,6.0,1.0,1.0,0.7,Time
,,S24,1,男,19,anonymized,Serial_Dependence_U,2023.2.3,Win32,60.60606060606061,,,,,,2073.985399999976,164.0,8.0,2073.985599999964,164.0,,,,2077.529899999976,2078.0215,2077.0242999999523,2077.529899999976,2074.9862999999523,2077.0242999999523,2078.0215,2078.513699999988,2078.513699999988,2080.9275,1165.0,2080.927599999964,4.0,2080.927699999988,8.0,2.0,242.0,16.0,1.0,1.0,0.7,Time
,,S24,1,男,19,anonymized,Serial_Dependence_U,2023.2.3,Win32,60.60606060606061,,,,,,2080.927799999952,166.0,8.0,2080.927799999952,166.0,,,,2084.915,2085.409699999988,2084.407099999964,2084.915,2081.930899999976,2084.407099999964,2085.409699999988,2085.899199999988,2085.899199999988,2087.603599999964,1099.0,2087.603699999988,2.0,2087.604,8.0,3.0,243.0,3.0,1.0,1.4,0.3,Time
,,S24,1,男,19,anonymized,Serial_Dependence_U,2023.2.3,Win32,60.60606060606061,,,,,,2087.604199999988,4.0,8.0,2087.604299999952,4.0,,,,2090.985399999976,2091.4765,2090.479399999976,2090.985199999988,2088.6055,2090.479399999976,2091.4765,2091.969599999964,2091.969599999964,2093.433899999976,1035.0,2093.433899999976,4.0,2093.434099999964,8.0,4.0,244.0,0.0,1.0,0.8,0.3,Time
,,S24,1,男,19,anonymized,Serial_Dependence_U,2023.2.3,Win32,60.60606060606061,,,,,,2093.434299999952,65.0,8.0,2093.434399999976,65.0,,,,2097.602099999964,2098.090699999988,2097.093199999988,2097.602099999964,2094.447599999964,2097.093099999964,2098.090699999988,2098.583,2098.583099999964,2100.6717999999523,1640.0,2100.6717999999523,3.0,2100.672099999964,8.0,5.0,245.0,9.0,1.0,1.6,0.7,Time
,,S24,1,男,19,anonymized,Serial_Dependence_U,2023.2.3,Win32,60.60606060606061,,,,,,2100.672199999988,137.0,8.0,2100.672399999976,137.0,,,,2104.462599999964,2104.9507999999523,2103.950199999988,2104.462599999964,2101.685199999988,2103.950099999964,2104.9507999999523,2105.443299999952,2105.443299999952,2106.776599999964,1041.0,2106.776599999964,2.0,2106.7767999999523,8.0,6.0,246.0,12.0,1.0,1.2,0.3,Time
,,S24,1,男,19,anonymized,Serial_Dependence_U,2023.2.3,Win32,60.60606060606061,,,,,,2106.777,68.0,8.0,2106.777199999988,68.0,,,,2110.173699999988,2110.6625,2109.665,2110.173699999988,2107.795199999988,2109.664899999976,2110.662599999964,2111.154799999952,2111.154799999952,2112.522599999964,947.0,2112.522699999988,4.0,2112.522799999952,8.0,7.0,247.0,20.0,1.0,0.8,0.3,Time
,,S24,1,男,19,anonymized,Serial_Dependence_U,2023.2.3,Win32,60.60606060606061,,,,,,2112.522899999976,219.0,8.0,2112.523099999964,219.0,,,,2116.686199999988,2117.1782999999523,2116.1775,2116.686199999988,2113.534799999952,2116.1775,2117.1782999999523,2117.670299999952,2117.670299999952,2119.951599999964,1657.0,2119.951599999964,3.0,2119.951699999988,8.0,8.0,248.0,29.0,1.0,1.6,0.7,Time
,,S24,1,男,19,anonymized,Serial_Dependence_U,2023.2.3,Win32,60.60606060606061,,,,,,2119.952,145.0,8.0,2119.952099999964,145.0,,,,2123.727599999964,2124.218599999964,2123.218099999964,2123.7275,2120.953,2123.218,2124.218699999988,2124.711199999988,2124.711199999988,2126.5175,1225.0,2126.517599999964,3.0,2126.517899999976,8.0,9.0,249.0,2.0,1.0,1.2,0.3,Time
,,S24,1,男,19,anonymized,Serial_Dependence_U,2023.2.3,Win32,60.60606060606061,,,,,,2126.518199999988,173.0,8.0,2126.518399999976,173.0,,,,2130.669199999988,2131.161199999988,2130.160399999976,2130.669099999964,2127.518099999964,2130.1602999999523,2131.161199999988,2131.653599999964,2131.653699999988,2133.6075,1544.0,2133.607599999964,3.0,2133.607899999976,8.0,10.0,250.0,19.0,1.0,1.6,0.7,Time
,,S24,1,男,19,anonymized,Serial_Dependence_U,2023.2.3,Win32,60.60606060606061,,,,,,2133.608199999988,238.0,8.0,2133.608399999976,238.0,,,,2136.955,2137.446799999952,2136.446099999964,2136.954899999976,2134.608099999964,2136.446099999964,2137.446799999952,2137.9417999999523,2137.941899999976,2139.744599999964,936.0,2139.744699999988,4.0,2139.745,8.0,11.0,251.0,5.0,1.0,0.8,0.7,Time
,,S24,1,男,19,anonymized,Serial_Dependence_U,2023.2.3,Win32,60.60606060606061,,,,,,2139.745199999988,180.0,8.0,2139.745399999976,180.0,,,,2143.093099999964,2143.585099999964,2142.584699999988,2143.093,2140.747299999952,2142.5845,2143.585099999964,2144.078,2144.078,2145.916099999964,969.0,2145.916099999964,4.0,2145.916299999952,8.0,12.0,252.0,15.0,1.0,0.8,0.7,Time
,,S24,1,男,19,anonymized,Serial_Dependence_U,2023.2.3,Win32,60.60606060606061,,,,,,2145.916599999964,200.0,8.0,2145.916599999964,200.0,,,,2149.6575,2150.149899999976,2149.149399999976,2149.6575,2146.916599999964,2149.1492999999523,2150.149899999976,2150.642199999988,2150.642199999988,2152.480399999976,1361.0,2152.480399999976,4.0,2152.480699999988,8.0,13.0,253.0,17.0,1.0,1.2,0.7,Time
,,S24,1,男,19,anonymized,Serial_Dependence_U,2023.2.3,Win32,60.60606060606061,,,,,,2152.481,295.0,8.0,2152.481199999988,295.0,,,,2156.419699999988,2156.9115,2155.910699999988,2156.419699999988,2153.480099999964,2155.910599999964,2156.911599999964,2157.403899999976,2157.404,2159.374199999988,1489.0,2159.374199999988,4.0,2159.3745,8.0,14.0,254.0,8.0,1.0,1.4,0.7,Time
,,S24,1,男,19,anonymized,Serial_Dependence_U,2023.2.3,Win32,60.60606060606061,,,,,,2159.3747999999523,136.0,8.0,2159.374899999976,136.0,,,,2162.952299999952,2163.4437999999523,2162.4425,2162.952199999988,2160.375899999976,2162.442399999976,2163.443899999976,2163.936,2163.936,2165.938399999976,1506.0,2165.938399999976,5.0,2165.938599999964,8.0,15.0,255.0,11.0,1.0,1.0,0.3,Time
,,S24,1,男,19,anonymized,Serial_Dependence_U,2023.2.3,Win32,60.60606060606061,,,,,,2165.939,140.0,8.0,2165.939199999988,140.0,,,,2169.516799999952,2170.008299999952,2169.007899999976,2169.516699999988,2166.939699999988,2169.007799999952,2170.008399999976,2170.501299999952,2170.501399999976,2171.666199999988,829.0,2171.666199999988,2.0,2171.666399999976,8.0,16.0,256.0,21.0,1.0,1.0,0.3,Time
