Scale_setup.started,Scale_setup.stopped,participant,session,sex,age,date,expName,psychopyVersion,OS,frameRate,Intro.started,Intro.stopped,key_resp_2.keys,key_resp_2.rt,key_resp_2.duration,block.started,direction,Block_id,block.stopped,trial_direction,Block_resp_2.keys,Block_resp_2.rt,Block_resp_2.duration,ITI.started,ITI.stopped,Mask_2.started,Mask_2.stopped,encoding.started,encoding.stopped,Cue.started,Cue.stopped,Response.started,Response.stopped,keyDuration,Feedback_Time.started,FeedbackID_T,Feedback_Time.stopped,trials.thisRepN,trials.thisTrialN,trials.thisN,trials.thisIndex,trials.ran,TimeDur,Coherence1,TrialType
0.0001000000014883,0.0003000000007489,S25,1,male,25,anonymized,Serial_Dependence_U,2023.2.3,Win32,163.93442622935177,,,,,,,,,,,,,,,,,,,,,,,,,,,,,,,,,,,
,,S25,1,male,25,anonymized,Serial_Dependence_U,2023.2.3,Win32,163.93442622935177,30.75080000000074,96.9635,space,66.19119999999926,,,,,,,,,,,,,,,,,,,,,,,,,,,,,,,
,,S25,1,male,25,anonymized,Serial_Dependence_U,2023.2.3,Win32,163.93442622935177,,,,,,96.975,118.0,0.0,100.13260000000147,118.0,s,3.146399999998493,,103.67210000000148,104.16840000000222,103.16919999999926,103.672,101.1335,103.16919999999926,104.16869999999923,104.66540000000224,104.6656000000015,106.938,1469.0,106.93819999999928,5.0,107.93830000000077,0.0,0.0,0.0,16.0,1.0,1.0,0.7,Time
,,S25,1,male,25,anonymized,Serial_Dependence_U,2023.2.3,Win32,163.93442622935177,,,,,,107.93910000000147,0.0,0.0,107.94160000000149,0.0,,,,111.91369999999924,112.41010000000148,111.411,111.91369999999924,108.9446000000015,111.411,112.41010000000148,112.90669999999923,112.90680000000076,114.97369999999924,1423.0,114.97380000000074,3.0,115.973,0.0,1.0,1.0,3.0,1.0,1.4,0.3,Time
,,S25,1,male,25,anonymized,Serial_Dependence_U,2023.2.3,Win32,163.93442622935177,,,,,,115.9736000000015,9.0,0.0,115.97380000000074,9.0,,,,119.94319999999928,120.4396000000015,119.44040000000224,119.94319999999928,116.97440000000223,119.44040000000224,120.43969999999926,120.93669999999923,120.93680000000076,123.42180000000074,1535.0,123.42190000000222,4.0,124.421,0.0,2.0,2.0,13.0,1.0,1.4,0.3,Time
,,S25,1,male,25,anonymized,Serial_Dependence_U,2023.2.3,Win32,163.93442622935177,,,,,,124.42169999999926,112.0,0.0,124.42190000000222,112.0,,,,128.1606000000015,128.65680000000077,127.65769999999924,128.1605,125.42190000000222,127.6576000000015,128.65690000000225,129.15380000000076,129.15390000000224,131.2386000000015,1423.0,131.23869999999928,4.0,132.23819999999927,0.0,3.0,3.0,17.0,1.0,1.2,0.7,Time
,,S25,1,male,25,anonymized,Serial_Dependence_U,2023.2.3,Win32,163.93442622935177,,,,,,132.23880000000077,69.0,0.0,132.239,69.0,,,,136.1785,136.67990000000225,135.67519999999928,136.1785,133.23930000000075,135.675,136.68,137.17700000000002,137.17700000000002,139.7711000000015,1804.0,139.7711000000015,4.0,140.7706000000015,0.0,4.0,4.0,28.0,1.0,1.4,0.7,Time
,,S25,1,male,25,anonymized,Serial_Dependence_U,2023.2.3,Win32,163.93442622935177,,,,,,140.77130000000076,296.0,0.0,140.77190000000226,296.0,,,,144.71019999999928,145.2065,144.2076000000015,144.71010000000152,141.7715,144.2076000000015,145.2065,145.70350000000002,145.70350000000002,147.83100000000002,1350.0,147.83100000000002,3.0,148.83040000000224,0.0,5.0,5.0,18.0,1.0,1.4,0.7,Time
,,S25,1,male,25,anonymized,Serial_Dependence_U,2023.2.3,Win32,163.93442622935177,,,,,,148.83100000000002,54.0,0.0,148.83130000000077,54.0,,,,152.40040000000226,152.8965,151.89690000000226,152.40040000000226,149.83100000000002,151.89680000000075,152.8966000000015,153.39340000000226,153.39350000000002,154.74540000000226,821.0,154.74540000000226,2.0,155.745,0.0,6.0,6.0,11.0,1.0,1.0,0.3,Time
,,S25,1,male,25,anonymized,Serial_Dependence_U,2023.2.3,Win32,163.93442622935177,,,,,,155.74580000000077,178.0,0.0,155.746,178.0,,,,159.11530000000076,159.61100000000002,158.6121000000015,159.11519999999928,156.7456000000015,158.6121000000015,159.6111000000015,160.10790000000225,160.10790000000225,161.50850000000003,860.0,161.50850000000003,4.0,162.50780000000077,0.0,7.0,7.0,0.0,1.0,0.8,0.3,Time
,,S25,1,male,25,anonymized,Serial_Dependence_U,2023.2.3,Win32,163.93442622935177,,,,,,162.50830000000076,190.0,0.0,162.50850000000003,190.0,,,,166.67790000000224,167.174,166.175,166.67769999999928,163.50830000000076,166.17490000000225,167.174,167.67100000000002,167.67100000000002,169.63469999999927,1284.0,169.63480000000075,2.0,170.63440000000224,0.0,8.0,8.0,14.0,1.0,1.6,0.3,Time
,,S25,1,male,25,anonymized,Serial_Dependence_U,2023.2.3,Win32,163.93442622935177,,,,,,170.6351000000015,42.0,0.0,170.63530000000077,42.0,,,,173.97390000000226,174.4701000000015,173.47090000000225,173.97380000000075,171.63540000000225,173.47090000000225,174.4701000000015,174.9671000000015,174.9671000000015,176.49440000000226,1100.0,176.49450000000002,5.0,177.49390000000224,0.0,9.0,9.0,25.0,1.0,0.8,0.7,Time
,,S25,1,male,25,anonymized,Serial_Dependence_U,2023.2.3,Win32,163.93442622935177,,,,,,177.49430000000075,114.0,0.0,177.49440000000226,114.0,,,,181.63380000000075,182.1301999999993,181.13100000000003,181.6336999999993,178.49440000000226,181.13090000000224,182.1301999999993,182.6268000000008,182.62690000000225,185.56619999999927,2153.0,185.56619999999927,5.0,186.5658000000008,0.0,10.0,10.0,19.0,1.0,1.6,0.7,Time
,,S25,1,male,25,anonymized,Serial_Dependence_U,2023.2.3,Win32,163.93442622935177,,,,,,186.56630000000075,216.0,0.0,186.56640000000223,216.0,,,,190.1363000000008,190.63219999999927,189.63319999999928,190.1361999999993,187.5668000000008,189.63319999999928,190.63219999999927,191.1291000000015,191.1291999999993,193.026,1429.0,193.0261000000015,5.0,194.0256000000015,0.0,11.0,11.0,21.0,1.0,1.0,0.3,Time
,,S25,1,male,25,anonymized,Serial_Dependence_U,2023.2.3,Win32,163.93442622935177,,,,,,194.02590000000225,100.0,0.0,194.0261000000015,100.0,,,,197.7656000000015,198.2615,197.2625,197.76540000000224,195.0263000000008,197.26240000000223,198.2616000000015,198.7591000000015,198.7591000000015,200.98890000000225,1602.0,200.989,5.0,201.98819999999927,0.0,12.0,12.0,27.0,1.0,1.2,0.7,Time
,,S25,1,male,25,anonymized,Serial_Dependence_U,2023.2.3,Win32,163.93442622935177,,,,,,201.9885,311.0,0.0,201.9886000000015,311.0,,,,205.75850000000003,206.2551000000015,205.2558000000008,205.75840000000224,202.98919999999927,205.25569999999928,206.2551000000015,206.7518000000008,206.7518000000008,209.46090000000223,1699.0,209.461,5.0,210.4603000000008,0.0,13.0,13.0,22.0,1.0,1.2,0.3,Time
,,S25,1,male,25,anonymized,Serial_Dependence_U,2023.2.3,Win32,163.93442622935177,,,,,,210.4608000000008,214.0,0.0,210.461,214.0,,,,214.5995,215.09630000000075,214.097,214.5995,211.46090000000223,214.09690000000225,215.09640000000223,215.5935,215.5935,220.49,2362.0,220.49010000000152,5.0,221.4896999999993,0.0,14.0,14.0,29.0,1.0,1.6,0.7,Time
,,S25,1,male,25,anonymized,Serial_Dependence_U,2023.2.3,Win32,163.93442622935177,,,,,,221.49019999999928,160.0,0.0,221.49040000000224,160.0,,,,225.25950000000003,225.75569999999928,224.75700000000003,225.25950000000003,222.4903000000008,224.75690000000228,225.75569999999928,226.25280000000075,226.25280000000075,228.1863000000008,1443.0,228.1864000000022,4.0,229.186,0.0,15.0,15.0,12.0,1.0,1.2,0.3,Time
,,S25,1,male,25,anonymized,Serial_Dependence_U,2023.2.3,Win32,163.93442622935177,,,,,,229.1863000000008,178.0,0.0,229.1865,178.0,,,,233.15590000000225,233.65180000000072,232.65280000000075,233.15590000000225,230.1863000000008,232.65280000000075,233.65190000000223,234.149,234.14910000000145,237.21560000000147,1895.0,237.21569999999923,5.0,238.2155,0.0,16.0,16.0,23.0,1.0,1.4,0.3,Time
,,S25,1,male,25,anonymized,Serial_Dependence_U,2023.2.3,Win32,163.93442622935177,,,,,,238.21630000000076,340.0,0.0,238.21660000000145,340.0,,,,241.98540000000224,242.4816000000015,241.48269999999923,241.98540000000224,239.21630000000076,241.48260000000147,242.48169999999925,242.97860000000145,242.9786999999993,245.10580000000076,1465.0,245.10590000000224,4.0,246.10519999999923,0.0,17.0,17.0,2.0,1.0,1.2,0.3,Time
,,S25,1,male,25,anonymized,Serial_Dependence_U,2023.2.3,Win32,163.93442622935177,,,,,,246.10560000000143,154.0,0.0,246.10580000000076,154.0,,,,249.44480000000075,249.94130000000075,248.94210000000143,249.44480000000075,247.10580000000076,248.942,249.94130000000075,250.438,250.438,252.6623000000008,1383.0,252.6623000000008,5.0,253.66169999999929,0.0,18.0,18.0,15.0,1.0,0.8,0.7,Time
,,S25,1,male,25,anonymized,Serial_Dependence_U,2023.2.3,Win32,163.93442622935177,,,,,,253.6621000000015,146.0,0.0,253.66219999999925,146.0,,,,257.8326000000015,258.3341999999992,257.32910000000146,257.8326000000015,254.66260000000148,257.329,258.3341999999992,258.8311999999992,258.8311999999992,260.72219999999925,1341.0,260.72219999999925,2.0,261.7218000000007,0.0,19.0,19.0,24.0,1.0,1.6,0.3,Time
,,S25,1,male,25,anonymized,Serial_Dependence_U,2023.2.3,Win32,163.93442622935177,,,,,,261.7221000000015,7.0,0.0,261.72219999999925,7.0,,,,265.29230000000075,265.788,264.78919999999925,265.29219999999924,262.7226000000015,264.7891000000015,265.788,266.2851000000015,266.2851000000015,267.8851000000015,1236.0,267.8851000000015,4.0,268.8845,0.0,20.0,20.0,1.0,1.0,1.0,0.3,Time
,,S25,1,male,25,anonymized,Serial_Dependence_U,2023.2.3,Win32,163.93442622935177,,,,,,268.88490000000223,198.0,0.0,268.8851000000015,198.0,,,,272.25419999999923,272.751,271.75169999999923,272.2541000000015,269.8846999999992,271.75169999999923,272.751,273.24790000000223,273.24790000000223,274.3025,705.0,274.30260000000146,2.0,275.30219999999923,0.0,21.0,21.0,10.0,1.0,0.8,0.3,Time
,,S25,1,male,25,anonymized,Serial_Dependence_U,2023.2.3,Win32,163.93442622935177,,,,,,275.30260000000146,323.0,0.0,275.3028000000008,323.0,,,,279.0419000000022,279.5381999999992,278.54,279.0418000000007,276.3024000000022,278.5399000000022,279.5383000000008,280.0349000000022,280.0349000000022,281.878,1270.0,281.878,4.0,282.8771999999992,0.0,22.0,22.0,7.0,1.0,1.2,0.7,Time
,,S25,1,male,25,anonymized,Serial_Dependence_U,2023.2.3,Win32,163.93442622935177,,,,,,282.87760000000145,312.0,0.0,282.87769999999927,312.0,,,,286.41669999999925,286.9133000000008,285.914,286.4166000000015,283.87769999999927,285.91390000000223,286.91340000000224,287.4101000000015,287.41019999999924,289.1013000000007,1381.0,289.1013000000007,5.0,290.1006999999992,0.0,23.0,23.0,6.0,1.0,1.0,0.7,Time
,,S25,1,male,25,anonymized,Serial_Dependence_U,2023.2.3,Win32,163.93442622935177,,,,,,290.101,190.0,0.0,290.10110000000145,190.0,,,,294.0404000000022,294.53640000000223,293.5373000000008,294.04030000000074,291.10119999999927,293.53719999999925,294.5365,295.0336999999992,295.0336999999992,297.1914000000022,1703.0,297.1914000000022,4.0,298.1909000000022,0.0,24.0,24.0,8.0,1.0,1.4,0.7,Time
,,S25,1,male,25,anonymized,Serial_Dependence_U,2023.2.3,Win32,163.93442622935177,,,,,,298.19130000000075,110.0,0.0,298.1915,110.0,,,,301.5608000000007,302.0571999999992,301.05819999999926,301.56069999999926,299.191,301.0581000000015,302.0571999999992,302.554,302.554,303.736,779.0,303.7361000000015,3.0,304.73560000000145,0.0,25.0,25.0,20.0,1.0,0.8,0.3,Time
,,S25,1,male,25,anonymized,Serial_Dependence_U,2023.2.3,Win32,163.93442622935177,,,,,,304.7361000000015,159.0,0.0,304.7363000000007,159.0,,,,308.07580000000075,308.5775,307.57269999999926,308.07569999999924,305.73619999999926,307.5726000000015,308.5775,309.07469999999927,309.0748000000007,310.178,793.0,310.178,3.0,311.17719999999923,0.0,26.0,26.0,5.0,1.0,0.8,0.7,Time
,,S25,1,male,25,anonymized,Serial_Dependence_U,2023.2.3,Win32,163.93442622935177,,,,,,311.1776999999992,162.0,0.0,311.17790000000224,162.0,,,,315.31710000000146,315.8131000000015,314.8139000000022,315.317,312.178,314.81380000000075,315.8131000000015,316.31010000000146,316.31010000000146,318.27390000000224,1449.0,318.274,2.0,319.27360000000147,0.0,27.0,27.0,9.0,1.0,1.6,0.7,Time
,,S25,1,male,25,anonymized,Serial_Dependence_U,2023.2.3,Win32,163.93442622935177,,,,,,319.27419999999927,338.0,0.0,319.2743000000007,338.0,,,,323.4433000000007,323.9394000000022,322.9409000000022,323.4433000000007,320.27410000000145,322.9408000000007,323.9395,324.43619999999925,324.4363000000008,326.3701999999992,1489.0,326.3701999999992,2.0,327.3695,0.0,28.0,28.0,4.0,1.0,1.6,0.3,Time
,,S25,1,male,25,anonymized,Serial_Dependence_U,2023.2.3,Win32,163.93442622935177,,,,,,327.36980000000074,225.0,0.0,327.37,225.0,,,,330.90919999999926,331.40580000000074,330.4066000000015,330.90919999999926,328.3708000000007,330.4066000000015,331.40590000000225,331.9024000000022,331.9024000000022,333.4905,1165.0,333.4905,4.0,334.49010000000146,0.0,29.0,29.0,26.0,1.0,1.0,0.7,Time
,,S25,1,male,25,anonymized,Serial_Dependence_U,2023.2.3,Win32,163.93442622935177,,,,,,334.4905,268.0,1.0,338.9754000000022,268.0,s,4.466600000001506,,342.9439000000022,343.4406000000015,342.44119999999924,342.9439000000022,339.9749000000022,342.4411000000015,343.4406000000015,343.93730000000073,343.9375,345.87119999999925,1246.0,345.87119999999925,2.0,345.8784000000022,1.0,0.0,30.0,3.0,1.0,1.4,0.3,Time
,,S25,1,male,25,anonymized,Serial_Dependence_U,2023.2.3,Win32,163.93442622935177,,,,,,345.8785,76.0,1.0,345.87940000000225,76.0,,,,350.0224000000022,350.5186999999992,349.5196000000015,350.0223000000007,346.8836000000015,349.5195,350.5186999999992,351.0155,351.0156000000015,352.84610000000146,1461.0,352.84610000000146,2.0,352.8463000000007,1.0,1.0,31.0,9.0,1.0,1.6,0.7,Time
,,S25,1,male,25,anonymized,Serial_Dependence_U,2023.2.3,Win32,163.93442622935177,,,,,,352.8466000000015,174.0,1.0,352.84669999999926,174.0,,,,357.01630000000074,357.518,356.5128000000007,357.01630000000074,353.846,356.51269999999926,357.5181000000015,358.01469999999927,358.0148000000007,359.6211000000015,1296.0,359.6211000000015,2.0,359.62819999999925,1.0,2.0,32.0,4.0,1.0,1.6,0.3,Time
,,S25,1,male,25,anonymized,Serial_Dependence_U,2023.2.3,Win32,163.93442622935177,,,,,,359.6284000000022,78.0,1.0,359.6284000000022,78.0,,,,363.603,364.0993000000007,363.1001999999992,363.603,360.6336000000015,363.1001999999992,364.0993000000007,364.5961999999992,364.5961999999992,366.1116000000015,1231.0,366.1116000000015,2.0,366.1193000000008,1.0,3.0,33.0,23.0,1.0,1.4,0.3,Time
,,S25,1,male,25,anonymized,Serial_Dependence_U,2023.2.3,Win32,163.93442622935177,,,,,,366.1194000000022,287.0,1.0,366.1195,287.0,,,,369.6934000000022,370.1895,369.1906000000015,369.6933000000007,367.1239000000022,369.1906000000015,370.1895,370.6863000000008,370.6865,370.8384000000022,66.0,370.8384000000022,1.0,370.8461000000015,1.0,4.0,34.0,21.0,1.0,1.0,0.3,Time
,,S25,1,male,25,anonymized,Serial_Dependence_U,2023.2.3,Win32,163.93442622935177,,,,,,370.8463000000007,101.0,1.0,370.84640000000223,101.0,,,,374.6199000000023,375.11619999999925,374.1169000000022,374.6199000000023,371.8505,374.1168000000008,375.11619999999925,375.61319999999927,375.6133000000007,377.074,1079.0,377.074,2.0,377.0806000000015,1.0,5.0,35.0,2.0,1.0,1.2,0.3,Time
,,S25,1,male,25,anonymized,Serial_Dependence_U,2023.2.3,Win32,163.93442622935177,,,,,,377.0808000000008,291.0,1.0,377.0809000000022,291.0,,,,380.4255,380.9215,379.9225,380.4255,378.08640000000224,379.9224000000022,380.9216000000015,381.41840000000224,381.4185,382.7098000000007,915.0,382.7099000000022,4.0,382.7184000000023,1.0,6.0,36.0,15.0,1.0,0.8,0.7,Time
,,S25,1,male,25,anonymized,Serial_Dependence_U,2023.2.3,Win32,163.93442622935177,,,,,,382.7186000000015,16.0,1.0,382.7186000000015,16.0,,,,386.8913000000008,387.3876000000015,386.3885,386.8911999999992,383.7221000000015,386.3885,387.3876000000015,387.8848000000007,387.8848000000007,389.9336000000015,1730.0,389.9336999999993,4.0,389.94069999999925,1.0,7.0,37.0,14.0,1.0,1.6,0.3,Time
,,S25,1,male,25,anonymized,Serial_Dependence_U,2023.2.3,Win32,163.93442622935177,,,,,,389.9408000000007,182.0,1.0,389.9408000000007,182.0,,,,394.1086000000015,394.6051999999992,393.60590000000224,394.1086000000015,390.9395,393.6058000000007,394.6051999999992,395.1021000000015,395.1021999999992,397.587,2000.0,397.587,4.0,397.59390000000224,1.0,8.0,38.0,24.0,1.0,1.6,0.3,Time
,,S25,1,male,25,anonymized,Serial_Dependence_U,2023.2.3,Win32,163.93442622935177,,,,,,397.59419999999926,160.0,1.0,397.59419999999926,160.0,,,,401.1688000000007,401.6649000000022,400.66580000000073,401.1688000000007,398.6,400.6656999999992,401.665,402.162,402.1621000000015,404.3195,1743.0,404.3195,5.0,404.32680000000073,1.0,9.0,39.0,11.0,1.0,1.0,0.3,Time
,,S25,1,male,25,anonymized,Serial_Dependence_U,2023.2.3,Win32,163.93442622935177,,,,,,404.327,91.0,1.0,404.3271000000015,91.0,,,,408.2715,408.76719999999926,407.7681000000015,408.2715,405.332,407.768,408.76719999999926,409.2641999999992,409.26430000000073,411.5734000000022,1983.0,411.5735,5.0,411.5801000000015,1.0,10.0,40.0,8.0,1.0,1.4,0.7,Time
,,S25,1,male,25,anonymized,Serial_Dependence_U,2023.2.3,Win32,163.93442622935177,,,,,,411.58019999999925,188.0,1.0,411.5803000000007,188.0,,,,415.51969999999926,416.0211000000015,415.016,415.5196000000015,412.5796000000015,415.0159000000022,416.0211999999992,416.5179000000022,416.5179000000022,418.5666999999992,1726.0,418.5666999999992,4.0,418.5736000000015,1.0,11.0,41.0,18.0,1.0,1.4,0.7,Time
,,S25,1,male,25,anonymized,Serial_Dependence_U,2023.2.3,Win32,163.93442622935177,,,,,,418.5739000000022,13.0,1.0,418.5739000000022,13.0,,,,422.5181000000015,423.0141000000015,422.0153000000007,422.518,419.5791999999992,422.0153000000007,423.0141000000015,423.5114000000022,423.5114000000022,425.5658000000007,1759.0,425.5659000000022,4.0,425.5726000000015,1.0,12.0,42.0,28.0,1.0,1.4,0.7,Time
,,S25,1,male,25,anonymized,Serial_Dependence_U,2023.2.3,Win32,163.93442622935177,,,,,,425.5728000000007,318.0,1.0,425.5728000000007,318.0,,,,429.1116000000015,429.6074000000022,428.6085,429.1115,426.5723000000007,428.60840000000223,429.6074000000022,430.1045,430.1045,431.6803000000007,1229.0,431.68040000000224,4.0,431.6869000000022,1.0,13.0,43.0,6.0,1.0,1.0,0.7,Time
,,S25,1,male,25,anonymized,Serial_Dependence_U,2023.2.3,Win32,163.93442622935177,,,,,,431.6871000000015,234.0,1.0,431.6871000000015,234.0,,,,435.4258000000007,435.9219000000022,434.92319999999927,435.42569999999927,432.6865,434.92319999999927,435.9219000000022,436.419,436.419,438.9101000000015,2150.0,438.9101999999992,5.0,438.9181000000015,1.0,14.0,44.0,17.0,1.0,1.2,0.7,Time
,,S25,1,male,25,anonymized,Serial_Dependence_U,2023.2.3,Win32,163.93442622935177,,,,,,438.9181999999992,57.0,1.0,438.9183000000007,57.0,,,,442.2913000000007,442.788,441.78869999999927,442.2913000000007,439.9225,441.78869999999927,442.788,443.2848000000008,443.2848000000008,444.5761000000015,982.0,444.5761999999992,4.0,444.5828000000008,1.0,15.0,45.0,0.0,1.0,0.8,0.3,Time
,,S25,1,male,25,anonymized,Serial_Dependence_U,2023.2.3,Win32,163.93442622935177,,,,,,444.583,273.0,1.0,444.583,273.0,,,,448.7271999999992,449.2236000000015,448.2249000000022,448.7271999999992,445.5883000000008,448.2248000000008,449.22369999999927,449.7205,449.7205,451.9144000000022,1825.0,451.9144000000022,4.0,451.9198000000008,1.0,16.0,46.0,29.0,1.0,1.6,0.7,Time
,,S25,1,male,25,anonymized,Serial_Dependence_U,2023.2.3,Win32,163.93442622935177,,,,,,451.9199000000022,290.0,1.0,451.92,290.0,,,,455.2905,455.7865,454.7874000000022,455.2905,452.92119999999926,454.7873000000008,455.7865,456.2835,456.2835,457.48369999999926,884.0,457.4838000000007,4.0,457.491,1.0,17.0,47.0,10.0,1.0,0.8,0.3,Time
,,S25,1,male,25,anonymized,Serial_Dependence_U,2023.2.3,Win32,163.93442622935177,,,,,,457.49119999999925,236.0,1.0,457.4913000000007,236.0,,,,460.8351999999993,461.3314000000023,460.3324000000022,460.8351999999993,458.4959000000022,460.3323000000007,461.3314000000023,461.8286999999992,461.8286999999992,461.9744000000022,140.0,461.9745,1.0,461.982,1.0,18.0,48.0,25.0,1.0,0.8,0.7,Time
,,S25,1,male,25,anonymized,Serial_Dependence_U,2023.2.3,Win32,163.93442622935177,,,,,,461.9821000000015,117.0,1.0,461.9823000000008,117.0,,,,465.5261000000015,466.022,465.023,465.526,462.9865,465.023,466.022,466.5188000000008,466.5188000000008,468.41080000000073,1425.0,468.41090000000224,5.0,468.4188000000007,1.0,19.0,49.0,26.0,1.0,1.0,0.7,Time
,,S25,1,male,25,anonymized,Serial_Dependence_U,2023.2.3,Win32,163.93442622935177,,,,,,468.419,277.0,1.0,468.4191000000015,277.0,,,,471.7615,472.25769999999926,471.2586000000015,471.7614000000022,469.42280000000073,471.2585,472.25769999999926,472.7548000000007,472.7548000000007,473.91840000000224,812.0,473.91840000000224,3.0,473.9249000000022,1.0,20.0,50.0,5.0,1.0,0.8,0.7,Time
,,S25,1,male,25,anonymized,Serial_Dependence_U,2023.2.3,Win32,163.93442622935177,,,,,,473.925,273.0,1.0,473.9251000000015,273.0,,,,477.6943000000008,478.1903000000007,477.1914000000022,477.6941999999992,474.925,477.1914000000022,478.1903000000007,478.68769999999927,478.68769999999927,480.3663000000008,1306.0,480.3663000000008,4.0,480.37360000000143,1.0,21.0,51.0,22.0,1.0,1.2,0.3,Time
,,S25,1,male,25,anonymized,Serial_Dependence_U,2023.2.3,Win32,163.93442622935177,,,,,,480.3738000000007,0.0,1.0,480.3738000000007,0.0,,,,484.3481000000015,484.8445,483.8451999999993,484.34800000000007,481.3786000000014,483.8451000000015,484.8445,485.3411000000016,485.3411000000016,486.74740000000224,1091.0,486.74750000000006,2.0,486.7541000000016,1.0,22.0,52.0,13.0,1.0,1.4,0.3,Time
,,S25,1,male,25,anonymized,Serial_Dependence_U,2023.2.3,Win32,163.93442622935177,,,,,,486.7543000000008,327.0,1.0,486.7543000000008,327.0,,,,490.49290000000224,490.9891000000015,489.9901000000016,490.4928000000008,487.7539000000023,489.99,490.9891000000015,491.4861000000016,491.4861000000016,493.40140000000224,1534.0,493.40140000000224,4.0,493.4085,1.0,23.0,53.0,27.0,1.0,1.2,0.7,Time
,,S25,1,male,25,anonymized,Serial_Dependence_U,2023.2.3,Win32,163.93442622935177,,,,,,493.40869999999927,98.0,1.0,493.4088000000008,98.0,,,,497.1829000000023,497.6791000000016,496.68040000000224,497.1828000000008,494.41369999999927,496.6803000000008,497.67919999999935,498.1761999999993,498.1761999999993,499.6068000000008,1049.0,499.6069000000023,2.0,499.6136000000015,1.0,24.0,54.0,12.0,1.0,1.2,0.3,Time
,,S25,1,male,25,anonymized,Serial_Dependence_U,2023.2.3,Win32,163.93442622935177,,,,,,499.6136999999993,55.0,1.0,499.6138000000008,55.0,,,,503.3523000000008,503.84840000000224,502.8496999999993,503.3521999999992,500.61300000000006,502.8496999999993,503.84850000000006,504.3455,504.3455,505.92090000000223,1193.0,505.92090000000223,3.0,505.9266000000015,1.0,25.0,55.0,7.0,1.0,1.2,0.7,Time
,,S25,1,male,25,anonymized,Serial_Dependence_U,2023.2.3,Win32,163.93442622935177,,,,,,505.9268000000008,49.0,1.0,505.9268000000008,49.0,,,,509.4969000000023,509.9931000000015,508.9939000000023,509.4968000000008,506.9276000000016,508.9938000000008,509.9931000000015,510.49,510.49,512.0540000000001,1182.0,512.0541000000015,4.0,512.0611999999993,1.0,26.0,56.0,1.0,1.0,1.0,0.3,Time
,,S25,1,male,25,anonymized,Serial_Dependence_U,2023.2.3,Win32,163.93442622935177,,,,,,512.0613000000008,299.0,1.0,512.0614000000023,299.0,,,,516.2053000000008,516.7014000000023,515.7024000000023,516.2053000000008,513.0665,515.7023000000008,516.7014000000023,517.1984000000023,517.1984000000023,519.4833000000008,1913.0,519.4834000000022,4.0,519.4901999999993,1.0,27.0,57.0,19.0,1.0,1.6,0.7,Time
,,S25,1,male,25,anonymized,Serial_Dependence_U,2023.2.3,Win32,163.93442622935177,,,,,,519.4903000000008,230.0,1.0,519.4903000000008,230.0,,,,523.0285,523.5251000000015,522.5256999999993,523.0284000000023,520.4895,522.5256000000015,523.5251000000015,524.0221999999993,524.0221999999993,525.5736000000015,1207.0,525.5736999999993,4.0,525.5803000000008,1.0,28.0,58.0,16.0,1.0,1.0,0.7,Time
,,S25,1,male,25,anonymized,Serial_Dependence_U,2023.2.3,Win32,163.93442622935177,,,,,,525.5805,249.0,1.0,525.5805,249.0,,,,528.9494000000022,529.4459000000023,528.4464000000023,528.9494000000022,526.5801999999993,528.4463000000007,529.4459000000023,529.9426000000016,529.9426000000016,531.6458000000008,1187.0,531.6458000000008,5.0,531.6521000000015,1.0,29.0,59.0,20.0,1.0,0.8,0.3,Time
,,S25,1,male,25,anonymized,Serial_Dependence_U,2023.2.3,Win32,163.93442622935177,,,,,,531.6524000000023,50.0,2.0,534.5300000000001,50.0,s,2.870800000000713,,538.7001000000015,539.1961999999993,538.197,538.7001000000015,535.5305000000001,538.197,539.1961999999993,539.6931000000016,539.6931000000016,539.7539000000023,47.0,539.754,1.0,539.76,2.0,0.0,60.0,24.0,1.0,1.6,0.3,Time
,,S25,1,male,25,anonymized,Serial_Dependence_U,2023.2.3,Win32,163.93442622935177,,,,,,539.7601000000016,240.0,2.0,539.7615000000001,240.0,,,,543.5055000000001,544.0018000000008,543.0029000000022,543.5055000000001,540.7660000000001,543.0029000000022,544.0019000000023,544.499,544.4991000000016,546.7776000000015,1804.0,546.7776999999993,5.0,546.7779000000023,2.0,1.0,61.0,27.0,1.0,1.2,0.7,Time
,,S25,1,male,25,anonymized,Serial_Dependence_U,2023.2.3,Win32,163.93442622935177,,,,,,546.7781999999993,279.0,2.0,546.7783000000007,279.0,,,,550.1531000000016,550.6495,549.6509000000023,550.1531000000016,547.7836999999993,549.6508000000008,550.6495,551.1465000000001,551.1466000000015,553.2133000000008,1427.0,553.2133000000008,5.0,553.2195,2.0,2.0,62.0,20.0,1.0,0.8,0.3,Time
,,S25,1,male,25,anonymized,Serial_Dependence_U,2023.2.3,Win32,163.93442622935177,,,,,,553.2196999999993,176.0,2.0,553.2196999999993,176.0,,,,556.9583000000008,557.4545,556.456,556.9583000000008,554.2198000000008,556.4559000000023,557.4545,557.9519000000023,557.9519000000023,560.6613000000008,2328.0,560.6613000000008,5.0,560.6681999999993,2.0,3.0,63.0,7.0,1.0,1.2,0.7,Time
,,S25,1,male,25,anonymized,Serial_Dependence_U,2023.2.3,Win32,163.93442622935177,,,,,,560.6683000000008,25.0,2.0,560.6684000000023,25.0,,,,564.8125,565.3086000000015,564.3100000000001,564.8125,561.6731999999993,564.3100000000001,565.3086000000015,565.8056000000015,565.8056999999993,568.2421000000015,2050.0,568.2421000000015,4.0,568.2495,2.0,4.0,64.0,19.0,1.0,1.6,0.7,Time
,,S25,1,male,25,anonymized,Serial_Dependence_U,2023.2.3,Win32,163.93442622935177,,,,,,568.2496999999993,48.0,2.0,568.2496999999993,48.0,,,,572.3929000000023,572.8899000000023,571.8916000000015,572.3929000000023,569.2549000000023,571.8914000000022,572.8899000000023,573.3865000000001,573.3865000000001,575.9868000000008,2426.0,575.9868000000008,5.0,575.9934000000022,2.0,5.0,65.0,9.0,1.0,1.6,0.7,Time
,,S25,1,male,25,anonymized,Serial_Dependence_U,2023.2.3,Win32,163.93442622935177,,,,,,575.9936000000015,8.0,2.0,575.9936999999993,8.0,,,,579.9628000000008,580.4588000000008,579.4595,579.9628000000008,576.9928000000008,579.4594000000022,580.4588000000008,580.956,580.956,583.5316999999993,2048.0,583.5316999999993,5.0,583.5398000000008,2.0,6.0,66.0,23.0,1.0,1.4,0.3,Time
,,S25,1,male,25,anonymized,Serial_Dependence_U,2023.2.3,Win32,163.93442622935177,,,,,,583.5399000000023,340.0,2.0,583.5399000000023,340.0,,,,587.5131999999993,588.0094000000023,587.0103000000008,587.5131000000015,584.5438000000008,587.0101999999993,588.0094000000023,588.5061999999994,588.5061999999994,590.8701000000016,1818.0,590.8701999999993,4.0,590.8775,2.0,7.0,67.0,3.0,1.0,1.4,0.3,Time
,,S25,1,male,25,anonymized,Serial_Dependence_U,2023.2.3,Win32,163.93442622935177,,,,,,590.8776000000015,222.0,2.0,590.8776000000015,222.0,,,,594.8521000000015,595.3480000000001,594.3489000000022,594.8521000000015,591.8826999999993,594.3489000000022,595.3480000000001,595.8449000000023,595.8449000000023,597.8694000000023,1653.0,597.8694000000023,4.0,597.8763000000008,2.0,8.0,68.0,13.0,1.0,1.4,0.3,Time
,,S25,1,male,25,anonymized,Serial_Dependence_U,2023.2.3,Win32,163.93442622935177,,,,,,597.8765000000001,63.0,2.0,597.8766000000015,63.0,,,,601.2511000000015,601.7471999999993,600.7486000000015,601.2511000000015,598.8816999999993,600.7486000000015,601.7471999999993,602.2441000000015,602.2441999999993,603.8021000000016,1224.0,603.8021000000016,5.0,603.8090000000001,2.0,9.0,69.0,0.0,1.0,0.8,0.3,Time
,,S25,1,male,25,anonymized,Serial_Dependence_U,2023.2.3,Win32,163.93442622935177,,,,,,603.8091000000015,196.0,2.0,603.8091999999994,196.0,,,,607.5836000000015,608.08,607.0814000000023,607.5835000000001,604.8146999999993,607.0814000000023,608.0801000000015,608.5769000000023,608.5769000000023,611.1165000000001,1939.0,611.1166000000015,5.0,611.1243000000007,2.0,10.0,70.0,22.0,1.0,1.2,0.3,Time
,,S25,1,male,25,anonymized,Serial_Dependence_U,2023.2.3,Win32,163.93442622935177,,,,,,611.1245,252.0,2.0,611.1245,252.0,,,,614.6681000000016,615.1641999999993,614.1653000000008,614.668,612.1283000000008,614.1651999999993,615.1643000000008,615.6609000000022,615.6609000000022,618.231,2213.0,618.231,5.0,618.2386000000015,2.0,11.0,71.0,6.0,1.0,1.0,0.7,Time
,,S25,1,male,25,anonymized,Serial_Dependence_U,2023.2.3,Win32,163.93442622935177,,,,,,618.2386999999993,221.0,2.0,618.2388000000008,221.0,,,,622.1824000000023,622.6786000000016,621.6795000000001,622.1823000000007,619.2433000000008,621.6794000000023,622.6786000000016,623.1754000000022,623.1755,625.7151000000015,2102.0,625.7151000000015,5.0,625.7231999999993,2.0,12.0,72.0,28.0,1.0,1.4,0.7,Time
,,S25,1,male,25,anonymized,Serial_Dependence_U,2023.2.3,Win32,163.93442622935177,,,,,,625.7234000000022,104.0,2.0,625.7234000000022,104.0,,,,629.8969000000022,630.3926999999993,629.3936000000016,629.8969000000022,626.7273000000008,629.3936000000016,630.3928000000008,630.8896999999993,630.8896999999993,633.6901000000015,2363.0,633.6901000000015,5.0,633.6981999999992,2.0,13.0,73.0,14.0,1.0,1.6,0.3,Time
,,S25,1,male,25,anonymized,Serial_Dependence_U,2023.2.3,Win32,163.93442622935177,,,,,,633.6984000000023,164.0,2.0,633.6984000000023,164.0,,,,637.2714000000022,637.768,636.7684000000023,637.2713000000008,634.7021000000016,636.7683000000007,637.768,638.2646000000016,638.2646999999993,640.1438000000007,1522.0,640.1438000000007,5.0,640.1503000000008,2.0,14.0,74.0,11.0,1.0,1.0,0.3,Time
,,S25,1,male,25,anonymized,Serial_Dependence_U,2023.2.3,Win32,163.93442622935177,,,,,,640.1506000000015,355.0,2.0,640.1506000000015,355.0,,,,644.0891000000015,644.5856000000015,643.5861000000016,644.089,641.1501999999992,643.5861000000016,644.5856000000015,645.0823000000008,645.0824000000023,647.1369000000022,1594.0,647.1369000000022,4.0,647.1435,2.0,15.0,75.0,18.0,1.0,1.4,0.7,Time
,,S25,1,male,25,anonymized,Serial_Dependence_U,2023.2.3,Win32,163.93442622935177,,,,,,647.1436999999993,111.0,2.0,647.1438000000007,111.0,,,,651.3126999999993,651.8089000000023,650.8098000000008,651.3126000000016,648.1431000000015,650.8096999999993,651.8089000000023,652.3058000000008,652.3058000000008,654.6939000000023,1741.0,654.6940000000001,4.0,654.7008000000008,2.0,16.0,76.0,4.0,1.0,1.6,0.3,Time
,,S25,1,male,25,anonymized,Serial_Dependence_U,2023.2.3,Win32,163.93442622935177,,,,,,654.7009000000023,93.0,2.0,654.701,93.0,,,,658.0455000000001,658.5415,657.5428000000007,658.0454000000022,655.7063000000007,657.5426999999993,658.5415,659.0386999999993,659.0386999999993,661.2264000000023,1755.0,661.2265,5.0,661.2336999999993,2.0,17.0,77.0,5.0,1.0,0.8,0.7,Time
,,S25,1,male,25,anonymized,Serial_Dependence_U,2023.2.3,Win32,163.93442622935177,,,,,,661.2338000000008,179.0,2.0,661.2339000000022,179.0,,,,665.0081000000015,665.5045,664.5054000000023,665.008,662.2388000000008,664.5053000000008,665.5046000000016,666.0011999999992,666.0011999999992,668.3954000000023,1956.0,668.3955000000001,5.0,668.4029000000023,2.0,18.0,78.0,12.0,1.0,1.2,0.3,Time
,,S25,1,male,25,anonymized,Serial_Dependence_U,2023.2.3,Win32,163.93442622935177,,,,,,668.4031000000016,61.0,2.0,668.4031999999993,61.0,,,,672.1773000000007,672.6733000000008,671.6741000000015,672.1771000000016,669.4078000000007,671.6740000000001,672.6734000000023,673.1704000000022,673.1704000000022,675.5581999999993,2006.0,675.5583000000008,5.0,675.5654000000022,2.0,19.0,79.0,2.0,1.0,1.2,0.3,Time
,,S25,1,male,25,anonymized,Serial_Dependence_U,2023.2.3,Win32,163.93442622935177,,,,,,675.5655,276.0,2.0,675.5656000000015,276.0,,,,679.1399000000023,679.6365000000001,678.6375,679.1396999999993,676.5709000000023,678.6374000000022,679.6366000000015,680.1331000000015,680.1331000000015,681.4060000000001,952.0,681.4061000000015,3.0,681.4126999999993,2.0,20.0,80.0,21.0,1.0,1.0,0.3,Time
,,S25,1,male,25,anonymized,Serial_Dependence_U,2023.2.3,Win32,163.93442622935177,,,,,,681.4129000000023,340.0,2.0,681.413,340.0,,,,685.5573000000007,686.0536999999993,685.0546999999993,685.5571999999993,682.4184000000023,685.0546000000015,686.0538000000008,686.5506999999993,686.5508000000008,689.0358000000008,2065.0,689.0359000000022,4.0,689.0428000000007,2.0,21.0,81.0,29.0,1.0,1.6,0.7,Time
,,S25,1,male,25,anonymized,Serial_Dependence_U,2023.2.3,Win32,163.93442622935177,,,,,,689.043,192.0,2.0,689.043,192.0,,,,692.587,693.0831999999994,692.0844000000022,692.587,690.0476999999993,692.0843000000008,693.0833000000008,693.58,693.5801000000015,695.8046000000015,1723.0,695.8046999999993,5.0,695.811,2.0,22.0,82.0,26.0,1.0,1.0,0.7,Time
,,S25,1,male,25,anonymized,Serial_Dependence_U,2023.2.3,Win32,163.93442622935177,,,,,,695.8111999999993,205.0,2.0,695.8113000000008,205.0,,,,699.3799000000023,699.8763000000008,698.8775,699.3799000000023,696.8106000000015,698.8775,699.8764000000023,700.3731999999993,700.3731999999993,702.1494000000023,1261.0,702.1494000000023,4.0,702.1563000000008,2.0,23.0,83.0,1.0,1.0,1.0,0.3,Time
,,S25,1,male,25,anonymized,Serial_Dependence_U,2023.2.3,Win32,163.93442622935177,,,,,,702.1565,298.0,2.0,702.1566000000015,298.0,,,,706.0951000000015,706.5909000000023,705.5921000000016,706.0949000000023,703.1556999999993,705.5920000000001,706.5909000000023,707.0879000000023,707.0879000000023,709.0096999999993,1907.0,709.0098000000008,5.0,709.0171000000015,2.0,24.0,84.0,8.0,1.0,1.4,0.7,Time
,,S25,1,male,25,anonymized,Serial_Dependence_U,2023.2.3,Win32,163.93442622935177,,,,,,709.0174000000022,258.0,2.0,709.0174000000022,258.0,,,,712.361,712.8576000000015,711.8581999999993,712.361,710.022,711.8581999999993,712.8576000000015,713.354,713.3541000000015,715.542,1654.0,715.5421000000015,5.0,715.5491999999992,2.0,25.0,85.0,15.0,1.0,0.8,0.7,Time
,,S25,1,male,25,anonymized,Serial_Dependence_U,2023.2.3,Win32,163.93442622935177,,,,,,715.5494000000023,224.0,2.0,715.5494000000023,224.0,,,,719.0935000000001,719.5899000000023,718.591,719.0935000000001,716.5546000000015,718.5909000000023,719.5899000000023,720.087,720.087,722.2746000000016,1773.0,722.2746999999993,5.0,722.2816999999993,2.0,26.0,86.0,16.0,1.0,1.0,0.7,Time
,,S25,1,male,25,anonymized,Serial_Dependence_U,2023.2.3,Win32,163.93442622935177,,,,,,722.2818000000008,141.0,2.0,722.2818000000008,141.0,,,,725.6266000000015,726.1225000000001,725.1235,725.6265000000001,723.287,725.1235,726.1226000000015,726.6194000000023,726.6195,728.8251000000015,1809.0,728.8253000000008,5.0,728.8305,2.0,27.0,87.0,25.0,1.0,0.8,0.7,Time
,,S25,1,male,25,anonymized,Serial_Dependence_U,2023.2.3,Win32,163.93442622935177,,,,,,728.8306999999993,223.0,2.0,728.8306999999993,223.0,,,,732.2013000000007,732.6974000000023,731.6981999999992,732.2013000000007,729.8318000000008,731.6981000000015,732.6974000000023,733.1944000000022,733.1944000000022,735.6374000000022,1931.0,735.6374000000022,5.0,735.6446999999993,2.0,28.0,88.0,10.0,1.0,0.8,0.3,Time
,,S25,1,male,25,anonymized,Serial_Dependence_U,2023.2.3,Win32,163.93442622935177,,,,,,735.6449000000023,114.0,2.0,735.6450000000001,114.0,,,,739.3881999999993,739.8846999999993,738.8861000000015,739.3881000000015,736.6494000000023,738.8861000000015,739.8846999999993,740.3816999999993,740.3816999999993,743.9331000000016,2490.0,743.9331000000016,5.0,743.9401999999993,2.0,29.0,89.0,17.0,1.0,1.2,0.7,Time
,,S25,1,male,25,anonymized,Serial_Dependence_U,2023.2.3,Win32,163.93442622935177,,,,,,743.9404000000022,351.0,3.0,766.3846999999993,351.0,s,22.436199999999303,,770.1546999999993,770.6511000000015,769.6518000000008,770.1546000000016,767.3860000000001,769.6516999999993,770.6511000000015,771.1479000000023,771.148,773.2206999999993,1593.0,773.2206999999993,5.0,773.2269000000023,3.0,0.0,90.0,12.0,1.0,1.2,0.3,Time
,,S25,1,male,25,anonymized,Serial_Dependence_U,2023.2.3,Win32,163.93442622935177,,,,,,773.2270000000001,286.0,3.0,773.2278000000008,286.0,,,,777.3665000000001,777.8625000000001,776.8636000000015,777.3665000000001,774.2271999999992,776.8635,777.8625000000001,778.3593000000008,778.3594000000023,780.4929000000022,1981.0,780.493,4.0,780.5001999999993,3.0,1.0,91.0,19.0,1.0,1.6,0.7,Time
,,S25,1,male,25,anonymized,Serial_Dependence_U,2023.2.3,Win32,163.93442622935177,,,,,,780.5004000000023,160.0,3.0,780.5004000000023,160.0,,,,783.8448000000008,784.3413000000008,783.3416000000016,783.8446000000015,781.5055000000001,783.3415,784.3414000000023,784.8376000000015,784.8376999999992,786.7286000000015,1508.0,786.7286999999993,5.0,786.7356000000016,3.0,2.0,92.0,15.0,1.0,0.8,0.7,Time
,,S25,1,male,25,anonymized,Serial_Dependence_U,2023.2.3,Win32,163.93442622935177,,,,,,786.7358000000008,218.0,3.0,786.7359000000023,218.0,,,,790.2801999999994,790.7763000000008,789.777,790.2801999999994,787.7411999999993,789.777,790.7763000000008,791.2733000000007,791.2734000000023,793.4371999999993,1842.0,793.4371999999993,5.0,793.4444000000022,3.0,3.0,93.0,26.0,1.0,1.0,0.7,Time
,,S25,1,male,25,anonymized,Serial_Dependence_U,2023.2.3,Win32,163.93442622935177,,,,,,793.4445000000001,23.0,3.0,793.4445000000001,23.0,,,,797.6191999999993,798.1149000000023,797.1163000000008,797.6189000000023,794.4498000000008,797.1163000000008,798.1149000000023,798.6118000000008,798.6119000000023,800.8183000000008,1588.0,800.8183000000008,3.0,800.825,3.0,4.0,94.0,4.0,1.0,1.6,0.3,Time
,,S25,1,male,25,anonymized,Serial_Dependence_U,2023.2.3,Win32,163.93442622935177,,,,,,800.8251999999993,307.0,3.0,800.8253000000008,307.0,,,,804.4000000000001,804.8964000000022,803.8969000000022,804.3999000000023,801.8303000000008,803.8969000000022,804.8964000000022,805.3929000000023,805.393,807.8295,1768.0,807.8295,5.0,807.8368000000008,3.0,5.0,95.0,11.0,1.0,1.0,0.3,Time
,,S25,1,male,25,anonymized,Serial_Dependence_U,2023.2.3,Win32,163.93442622935177,,,,,,807.837,149.0,3.0,807.837,149.0,,,,811.8109000000023,812.3071999999993,811.3079000000023,811.8108000000008,808.8419000000023,811.3079000000023,812.3073000000007,812.8041000000015,812.8041000000015,816.1798000000008,2519.0,816.1800000000001,5.0,816.1865,3.0,6.0,96.0,23.0,1.0,1.4,0.3,Time
,,S25,1,male,25,anonymized,Serial_Dependence_U,2023.2.3,Win32,163.93442622935177,,,,,,816.1866999999993,230.0,3.0,816.1868000000007,230.0,,,,819.5561000000015,820.0521000000016,819.0523000000007,819.556,817.1859000000023,819.0523000000007,820.0521000000016,820.5493000000008,820.5494000000023,822.3431000000015,1292.0,822.3431000000015,5.0,822.3501000000016,3.0,7.0,97.0,10.0,1.0,0.8,0.3,Time
,,S25,1,male,25,anonymized,Serial_Dependence_U,2023.2.3,Win32,163.93442622935177,,,,,,822.3503000000007,50.0,3.0,822.3504000000023,50.0,,,,825.8886000000016,826.3846999999993,825.3861000000015,825.8886000000016,823.3495,825.3860000000001,826.3848000000008,826.8816999999993,826.8816999999993,829.2275000000001,1906.0,829.2275000000001,5.0,829.2345,3.0,8.0,98.0,16.0,1.0,1.0,0.7,Time
,,S25,1,male,25,anonymized,Serial_Dependence_U,2023.2.3,Win32,163.93442622935177,,,,,,829.2346000000015,137.0,3.0,829.2346000000015,137.0,,,,832.9785,833.4749000000023,832.4756000000016,832.9785,830.2396999999993,832.4756000000016,833.475,833.9719000000023,833.9719000000023,836.2570000000001,1832.0,836.2571000000015,5.0,836.264,3.0,9.0,99.0,27.0,1.0,1.2,0.7,Time
,,S25,1,male,25,anonymized,Serial_Dependence_U,2023.2.3,Win32,163.93442622935177,,,,,,836.2641999999993,207.0,3.0,836.2643000000008,207.0,,,,840.2083000000008,840.7045,839.7053000000008,840.2081999999994,837.2695,839.7053000000008,840.7045,841.2016000000016,841.2016000000016,843.7956000000015,2065.0,843.7956000000015,5.0,843.8025,3.0,10.0,100.0,18.0,1.0,1.4,0.7,Time
,,S25,1,male,25,anonymized,Serial_Dependence_U,2023.2.3,Win32,163.93442622935177,,,,,,843.8026999999993,204.0,3.0,843.8026999999993,204.0,,,,847.5773000000008,848.0734000000023,847.0744000000022,847.5771999999993,844.8081999999993,847.0744000000022,848.0734000000023,848.5705,848.5706000000015,850.7460000000001,1671.0,850.7461999999992,5.0,850.7521000000015,3.0,11.0,101.0,22.0,1.0,1.2,0.3,Time
,,S25,1,male,25,anonymized,Serial_Dependence_U,2023.2.3,Win32,163.93442622935177,,,,,,850.7521999999993,137.0,3.0,850.7523000000008,137.0,,,,854.522,855.018,854.0191000000016,854.5219000000022,851.7529000000022,854.019,855.018,855.5150000000001,855.5151000000016,857.994,2055.0,857.994,5.0,858.0005,3.0,12.0,102.0,2.0,1.0,1.2,0.3,Time
,,S25,1,male,25,anonymized,Serial_Dependence_U,2023.2.3,Win32,163.93442622935177,,,,,,858.0006999999993,6.0,3.0,858.0006999999993,6.0,,,,861.9698000000008,862.4661999999993,861.4669000000023,861.9698000000008,859.0004000000023,861.4666999999993,862.4661999999993,862.9625000000001,862.9625000000001,865.5326999999993,2120.0,865.5328000000007,5.0,865.5401000000015,3.0,13.0,103.0,13.0,1.0,1.4,0.3,Time
,,S25,1,male,25,anonymized,Serial_Dependence_U,2023.2.3,Win32,163.93442622935177,,,,,,865.5401999999993,192.0,3.0,865.5403000000008,192.0,,,,868.8843000000007,869.3801999999993,868.3811999999994,868.8841999999993,866.5451000000015,868.3811000000015,869.3801999999993,869.8773000000008,869.8774000000022,872.1378000000008,1570.0,872.1379000000023,5.0,872.1448000000008,3.0,14.0,104.0,5.0,1.0,0.8,0.7,Time
,,S25,1,male,25,anonymized,Serial_Dependence_U,2023.2.3,Win32,163.93442622935177,,,,,,872.1450000000001,109.0,3.0,872.1450000000001,109.0,,,,875.7201000000015,876.2159000000023,875.2166999999993,875.7201000000015,873.1505000000001,875.2166999999993,876.216,876.7129000000023,876.7130000000001,879.4523000000008,2266.0,879.4524000000023,5.0,879.4595,3.0,15.0,105.0,21.0,1.0,1.0,0.3,Time
,,S25,1,male,25,anonymized,Serial_Dependence_U,2023.2.3,Win32,163.93442622935177,,,,,,879.4596000000015,57.0,3.0,879.4596000000015,57.0,,,,882.8344000000022,883.3303000000008,882.3315,882.8343000000008,880.4641999999993,882.3314000000023,883.3303000000008,883.8276000000016,883.8276000000016,885.4214000000022,1145.0,885.4215,5.0,885.428,3.0,16.0,106.0,20.0,1.0,0.8,0.3,Time
,,S25,1,male,25,anonymized,Serial_Dependence_U,2023.2.3,Win32,163.93442622935177,,,,,,885.4281000000016,114.0,3.0,885.4281999999993,114.0,,,,889.567,890.0631999999993,889.0639000000023,889.5669000000023,886.4279000000023,889.0638000000008,890.0631999999993,890.5600000000001,890.5601000000015,893.3055,2422.0,893.3055,5.0,893.3126000000016,3.0,17.0,107.0,9.0,1.0,1.6,0.7,Time
,,S25,1,male,25,anonymized,Serial_Dependence_U,2023.2.3,Win32,163.93442622935177,,,,,,893.3126999999993,203.0,3.0,893.3129000000023,203.0,,,,896.8874000000022,897.3836000000015,896.384,896.8874000000022,894.3180000000001,896.384,897.3836999999993,897.8809000000023,897.8809000000023,900.6441000000016,1710.0,900.6441999999993,5.0,900.6519000000022,3.0,18.0,108.0,1.0,1.0,1.0,0.3,Time
,,S25,1,male,25,anonymized,Serial_Dependence_U,2023.2.3,Win32,163.93442622935177,,,,,,900.6521999999993,9.0,3.0,900.6521999999993,9.0,,,,904.6263000000008,905.1221000000016,904.1234000000024,904.6261999999992,901.6564000000022,904.1231999999992,905.1221000000016,905.619,905.6191000000016,907.5645,1525.0,907.5646000000016,4.0,907.5718000000008,3.0,19.0,109.0,3.0,1.0,1.4,0.3,Time
,,S25,1,male,25,anonymized,Serial_Dependence_U,2023.2.3,Win32,163.93442622935177,,,,,,907.5719000000024,203.0,3.0,907.572,203.0,,,,911.3163000000008,911.8124000000024,910.8136999999992,911.3161999999992,908.5771000000016,910.8135,911.8124000000024,912.3094000000024,912.3095,914.5701000000016,1982.0,914.5701999999992,5.0,914.5779000000024,3.0,20.0,110.0,7.0,1.0,1.2,0.7,Time
,,S25,1,male,25,anonymized,Serial_Dependence_U,2023.2.3,Win32,163.93442622935177,,,,,,914.5781000000017,174.0,3.0,914.5781000000017,174.0,,,,918.3216000000016,918.8175,917.8186000000017,918.3215,915.5826000000015,917.8186000000017,918.8176000000016,919.3146000000016,919.3146000000016,921.9933000000008,2351.0,921.9933000000008,5.0,922.0001000000016,3.0,21.0,111.0,17.0,1.0,1.2,0.7,Time
,,S25,1,male,25,anonymized,Serial_Dependence_U,2023.2.3,Win32,163.93442622935177,,,,,,922.0001999999992,199.0,3.0,922.0003000000008,199.0,,,,926.1691000000015,926.6655,925.6666999999992,926.1691000000015,922.9996999999992,925.6666999999992,926.6656000000016,927.1628000000007,927.1628000000007,929.4896000000016,1872.0,929.4896999999992,4.0,929.4968000000008,3.0,22.0,112.0,14.0,1.0,1.6,0.3,Time
,,S25,1,male,25,anonymized,Serial_Dependence_U,2023.2.3,Win32,163.93442622935177,,,,,,929.497,13.0,3.0,929.497,13.0,,,,933.4413000000008,933.9373000000008,932.9383000000008,933.4411999999992,930.502,932.9383000000008,933.9373000000008,934.4341999999994,934.4343000000008,936.7614000000024,1965.0,936.7615,5.0,936.7681000000016,3.0,23.0,113.0,28.0,1.0,1.4,0.7,Time
,,S25,1,male,25,anonymized,Serial_Dependence_U,2023.2.3,Win32,163.93442622935177,,,,,,936.7681999999992,331.0,3.0,936.7683000000007,331.0,,,,940.7071999999991,941.2031999999992,940.2041000000016,940.7071000000016,937.7681999999992,940.2041000000016,941.2033000000008,941.7003000000008,941.7003000000008,944.5671000000016,2392.0,944.5671000000016,5.0,944.5746999999992,3.0,24.0,114.0,8.0,1.0,1.4,0.7,Time
,,S25,1,male,25,anonymized,Serial_Dependence_U,2023.2.3,Win32,163.93442622935177,,,,,,944.5749000000022,300.0,3.0,944.5749000000022,300.0,,,,947.9183000000008,948.4149000000024,947.4159000000022,947.9181999999992,945.579,947.4156000000016,948.4149000000024,948.9116999999992,948.9116999999992,952.0086999999992,2687.0,952.0086999999992,5.0,952.016,3.0,25.0,115.0,25.0,1.0,0.8,0.7,Time
,,S25,1,male,25,anonymized,Serial_Dependence_U,2023.2.3,Win32,163.93442622935177,,,,,,952.0161000000016,217.0,3.0,952.0161999999992,217.0,,,,956.1903000000008,956.6864000000024,955.6876000000016,956.1903000000008,953.0211999999992,955.6875,956.6864000000024,957.1839000000024,957.184,959.9956999999991,2346.0,959.9958000000008,5.0,960.0045,3.0,26.0,116.0,24.0,1.0,1.6,0.3,Time
,,S25,1,male,25,anonymized,Serial_Dependence_U,2023.2.3,Win32,163.93442622935177,,,,,,960.0046999999992,149.0,3.0,960.0048000000008,149.0,,,,964.147,964.6431999999992,963.6443000000008,964.147,961.0083000000008,963.6443000000008,964.6433000000007,965.1405,965.1406000000017,967.7946999999994,2157.0,967.7946999999994,5.0,967.802,3.0,27.0,117.0,29.0,1.0,1.6,0.7,Time
,,S25,1,male,25,anonymized,Serial_Dependence_U,2023.2.3,Win32,163.93442622935177,,,,,,967.8021000000016,338.0,3.0,967.8023000000009,338.0,,,,971.1765,971.6726999999992,970.674,971.1764000000024,968.8073000000009,970.6739000000024,971.6726999999992,972.17,972.17,973.6971000000016,939.0,973.6971999999992,4.0,973.7036999999992,3.0,28.0,118.0,0.0,1.0,0.8,0.3,Time
,,S25,1,male,25,anonymized,Serial_Dependence_U,2023.2.3,Win32,163.93442622935177,,,,,,973.7039000000022,114.0,3.0,973.704,114.0,,,,977.2426999999992,977.7391999999992,976.7396999999992,977.2426000000016,974.7035,976.7396999999992,977.7391999999992,978.2358000000008,978.2358000000008,980.3391999999992,1743.0,980.3391999999992,5.0,980.3463000000008,3.0,29.0,119.0,6.0,1.0,1.0,0.7,Time
,,S25,1,male,25,anonymized,Serial_Dependence_U,2023.2.3,Win32,163.93442622935177,,,,,,980.3465,231.0,4.0,995.7981999999992,231.0,s,15.437899999998308,,999.7676999999992,1000.2636999999992,999.2644000000022,999.7676999999992,996.7983000000008,999.2644000000022,1000.2638000000009,1000.7611999999992,1000.7611999999992,1003.3849000000022,1595.0,1003.3849000000022,4.0,1003.3925,4.0,0.0,120.0,23.0,1.0,1.4,0.3,Time
,,S25,1,male,25,anonymized,Serial_Dependence_U,2023.2.3,Win32,163.93442622935177,,,,,,1003.3926000000014,342.0,4.0,1003.3935,342.0,,,,1006.9366000000016,1007.4325,1006.4336000000012,1006.9365,1004.3973000000008,1006.4335,1007.4325,1007.9294999999998,1007.9296000000014,1010.2993000000008,2045.0,1010.2994000000024,5.0,1010.2996999999992,4.0,1.0,121.0,6.0,1.0,1.0,0.7,Time
,,S25,1,male,25,anonymized,Serial_Dependence_U,2023.2.3,Win32,163.93442622935177,,,,,,1010.2998000000006,304.0,4.0,1010.2999999999998,304.0,,,,1014.4689000000022,1014.9651999999992,1013.9665,1014.4688000000008,1011.2996999999992,1013.9664000000022,1014.9651999999992,1015.4621000000014,1015.4621000000014,1018.014,2129.0,1018.0141000000012,5.0,1018.0208000000006,4.0,2.0,122.0,14.0,1.0,1.6,0.3,Time
,,S25,1,male,25,anonymized,Serial_Dependence_U,2023.2.3,Win32,163.93442622935177,,,,,,1018.0209999999998,346.0,4.0,1018.0209999999998,346.0,,,,1021.9956999999991,1022.4921000000014,1021.4926999999992,1021.9956999999991,1019.0263000000008,1021.4926999999992,1022.4921000000014,1022.989,1022.989,1026.7461999999991,3260.0,1026.7461999999991,5.0,1026.752900000002,4.0,3.0,123.0,3.0,1.0,1.4,0.3,Time
,,S25,1,male,25,anonymized,Serial_Dependence_U,2023.2.3,Win32,163.93442622935177,,,,,,1026.7531000000013,343.0,4.0,1026.7531000000013,343.0,,,,1030.892199999999,1031.388,1030.389,1030.8918000000006,1027.752800000001,1030.389,1031.388,1031.8846999999992,1031.8848000000005,1034.5096000000012,1781.0,1034.5096999999992,4.0,1034.5175,4.0,4.0,124.0,9.0,1.0,1.6,0.7,Time
,,S25,1,male,25,anonymized,Serial_Dependence_U,2023.2.3,Win32,163.93442622935177,,,,,,1034.517699999999,312.0,4.0,1034.5178000000003,312.0,,,,1038.6911000000014,1039.1868000000006,1038.1884999999995,1038.6909999999998,1035.521699999999,1038.188400000002,1039.1868000000006,1039.6841000000013,1039.6841000000013,1041.8173000000006,2093.0,1041.8173000000006,5.0,1041.8229000000022,4.0,5.0,125.0,4.0,1.0,1.6,0.3,Time
,,S25,1,male,25,anonymized,Serial_Dependence_U,2023.2.3,Win32,163.93442622935177,,,,,,1041.8231000000012,8.0,4.0,1041.8231000000012,8.0,,,,1045.1631000000014,1045.6591000000012,1044.6601999999991,1045.1629999999998,1042.8239999999998,1044.6601999999991,1045.6591000000012,1046.1561000000013,1046.1561000000013,1048.0591000000013,1567.0,1048.059199999999,5.0,1048.0658000000003,4.0,6.0,126.0,25.0,1.0,0.8,0.7,Time
,,S25,1,male,25,anonymized,Serial_Dependence_U,2023.2.3,Win32,163.93442622935177,,,,,,1048.0659999999998,235.0,4.0,1048.0661000000014,235.0,,,,1051.6354000000022,1052.1311000000012,1051.132199999999,1051.6354000000022,1049.0656000000013,1051.1321000000014,1052.1311000000012,1052.628199999999,1052.6283000000003,1054.9009999999998,1988.0,1054.9011000000014,5.0,1054.9076000000014,4.0,7.0,127.0,1.0,1.0,1.0,0.3,Time
,,S25,1,male,25,anonymized,Serial_Dependence_U,2023.2.3,Win32,163.93442622935177,,,,,,1054.907699999999,234.0,4.0,1054.9078000000006,234.0,,,,1058.8466000000012,1059.342400000002,1058.3433000000005,1058.8465,1055.907400000002,1058.3431999999991,1059.3424999999995,1059.8394999999998,1059.8396000000014,1062.1609999999998,1821.0,1062.1609999999998,5.0,1062.1678000000006,4.0,8.0,128.0,28.0,1.0,1.4,0.7,Time
,,S25,1,male,25,anonymized,Serial_Dependence_U,2023.2.3,Win32,163.93442622935177,,,,,,1062.168,201.0,4.0,1062.1681000000012,201.0,,,,1065.5428000000006,1066.038900000002,1065.039900000002,1065.5428000000006,1063.1735,1065.039900000002,1066.038900000002,1066.5359999999998,1066.5359999999998,1068.6508000000006,1636.0,1068.650900000002,5.0,1068.657900000002,4.0,9.0,129.0,20.0,1.0,0.8,0.3,Time
,,S25,1,male,25,anonymized,Serial_Dependence_U,2023.2.3,Win32,163.93442622935177,,,,,,1068.6581000000012,248.0,4.0,1068.6581000000012,248.0,,,,1072.7968000000003,1073.293,1072.294,1072.796699999999,1069.6576000000014,1072.293900000002,1073.293,1073.7896000000012,1073.7896000000012,1076.0686000000012,1912.0,1076.0686000000012,4.0,1076.075699999999,4.0,10.0,130.0,19.0,1.0,1.6,0.7,Time
,,S25,1,male,25,anonymized,Serial_Dependence_U,2023.2.3,Win32,163.93442622935177,,,,,,1076.0758000000003,24.0,4.0,1076.075900000002,24.0,,,,1079.4501000000014,1079.946400000002,1078.9474999999998,1079.4501000000014,1077.081400000002,1078.9474999999998,1079.9464999999998,1080.4436000000012,1080.4436000000012,1082.0496000000014,1118.0,1082.0496000000014,5.0,1082.0559999999998,4.0,11.0,131.0,0.0,1.0,0.8,0.3,Time
,,S25,1,male,25,anonymized,Serial_Dependence_U,2023.2.3,Win32,163.93442622935177,,,,,,1082.056199999999,56.0,4.0,1082.0563000000006,56.0,,,,1085.7951000000014,1086.291199999999,1085.2921999999992,1085.7949999999998,1083.0568000000003,1085.2921000000013,1086.2913000000003,1086.788400000002,1086.788400000002,1089.2184999999995,2071.0,1089.2184999999995,5.0,1089.2256000000014,4.0,12.0,132.0,7.0,1.0,1.2,0.7,Time
,,S25,1,male,25,anonymized,Serial_Dependence_U,2023.2.3,Win32,163.93442622935177,,,,,,1089.225699999999,37.0,4.0,1089.2258000000006,37.0,,,,1092.7643000000005,1093.2604000000022,1092.2606999999991,1092.7643000000005,1090.225,1092.2606999999991,1093.2604000000022,1093.7571000000014,1093.7571000000014,1095.7574999999997,1609.0,1095.7574999999997,5.0,1095.764600000001,4.0,13.0,133.0,16.0,1.0,1.0,0.7,Time
,,S25,1,male,25,anonymized,Serial_Dependence_U,2023.2.3,Win32,163.93442622935177,,,,,,1095.7648000000006,30.0,4.0,1095.7648000000006,30.0,,,,1099.703400000002,1100.1989999999998,1099.1998000000006,1099.7033000000006,1096.7641000000012,1099.1998000000006,1100.1991000000014,1100.6961999999992,1100.6961999999992,1102.9931000000013,1943.0,1102.9931000000013,5.0,1103.000199999999,4.0,14.0,134.0,8.0,1.0,1.4,0.7,Time
,,S25,1,male,25,anonymized,Serial_Dependence_U,2023.2.3,Win32,163.93442622935177,,,,,,1103.0003000000006,50.0,4.0,1103.0005,50.0,,,,1106.7446000000014,1107.2408000000005,1106.2416999999991,1106.7446000000014,1104.005699999999,1106.2416999999991,1107.240900000002,1107.7378000000006,1107.7378000000006,1109.9801000000014,1798.0,1109.980199999999,5.0,1109.9871999999991,4.0,15.0,135.0,17.0,1.0,1.2,0.7,Time
,,S25,1,male,25,anonymized,Serial_Dependence_U,2023.2.3,Win32,163.93442622935177,,,,,,1109.987400000002,26.0,4.0,1109.987400000002,26.0,,,,1113.331699999999,1113.827900000002,1112.8289999999995,1113.331699999999,1110.992900000002,1112.828900000002,1113.8279999999995,1114.3248000000006,1114.3248000000006,1116.5913000000005,1898.0,1116.5913000000005,5.0,1116.597199999999,4.0,16.0,136.0,5.0,1.0,0.8,0.7,Time
,,S25,1,male,25,anonymized,Serial_Dependence_U,2023.2.3,Win32,163.93442622935177,,,,,,1116.5974000000022,148.0,4.0,1116.5974000000022,148.0,,,,1120.3375,1120.8331000000012,1119.834199999999,1120.3375,1117.5979999999995,1119.8341000000014,1120.8331999999991,1121.330199999999,1121.330199999999,1123.5908000000006,1918.0,1123.5908000000006,5.0,1123.5975,4.0,17.0,137.0,27.0,1.0,1.2,0.7,Time
,,S25,1,male,25,anonymized,Serial_Dependence_U,2023.2.3,Win32,163.93442622935177,,,,,,1123.5976000000012,56.0,4.0,1123.5976999999991,56.0,,,,1127.3666000000012,1127.862699999999,1126.863699999999,1127.3666000000012,1124.597100000001,1126.8636000000013,1127.8628000000006,1128.36,1128.36,1130.4143000000006,1507.0,1130.4144000000022,4.0,1130.4206000000013,4.0,18.0,138.0,12.0,1.0,1.2,0.3,Time
,,S25,1,male,25,anonymized,Serial_Dependence_U,2023.2.3,Win32,163.93442622935177,,,,,,1130.4208000000006,163.0,4.0,1130.4208000000006,163.0,,,,1134.3903000000005,1134.886199999999,1133.8869999999995,1134.3903000000005,1131.4208000000006,1133.8869999999995,1134.8863000000006,1135.3835,1135.3835,1137.8621000000014,2116.0,1137.8621000000014,5.0,1137.869,4.0,19.0,139.0,13.0,1.0,1.4,0.3,Time
,,S25,1,male,25,anonymized,Serial_Dependence_U,2023.2.3,Win32,163.93442622935177,,,,,,1137.8691000000013,313.0,4.0,1137.8691999999992,313.0,,,,1141.4444999999998,1141.9401000000014,1140.9411000000014,1141.4444999999998,1138.874199999999,1140.9411000000014,1141.9401000000014,1142.4371000000012,1142.4371000000012,1144.8434999999995,1878.0,1144.8434999999995,5.0,1144.8514999999998,4.0,20.0,140.0,11.0,1.0,1.0,0.3,Time
,,S25,1,male,25,anonymized,Serial_Dependence_U,2023.2.3,Win32,163.93442622935177,,,,,,1144.851699999999,173.0,4.0,1144.8518000000006,173.0,,,,1148.7951000000014,1149.290900000002,1148.2918000000006,1148.7951000000014,1145.8556999999992,1148.2918000000006,1149.2909999999997,1149.7876999999992,1149.7876999999992,1152.206,1915.0,1152.2061000000012,5.0,1152.2128000000005,4.0,21.0,141.0,18.0,1.0,1.4,0.7,Time
,,S25,1,male,25,anonymized,Serial_Dependence_U,2023.2.3,Win32,163.93442622935177,,,,,,1152.212900000002,340.0,4.0,1152.212900000002,340.0,,,,1155.5818000000006,1156.0779999999995,1155.0786999999991,1155.5818000000006,1153.2119999999998,1155.0786999999991,1156.0779999999995,1156.5755,1156.5756000000013,1158.944800000001,1804.0,1158.944900000002,5.0,1158.9516000000012,4.0,22.0,142.0,10.0,1.0,0.8,0.3,Time
,,S25,1,male,25,anonymized,Serial_Dependence_U,2023.2.3,Win32,163.93442622935177,,,,,,1158.9516999999992,44.0,4.0,1158.9516999999992,44.0,,,,1163.0901000000013,1163.586199999999,1162.5875,1163.09,1159.9516000000012,1162.5875,1163.586199999999,1164.0833000000005,1164.083400000002,1167.2833000000005,2672.0,1167.283400000002,5.0,1167.2899999999995,4.0,23.0,143.0,29.0,1.0,1.6,0.7,Time
,,S25,1,male,25,anonymized,Serial_Dependence_U,2023.2.3,Win32,163.93442622935177,,,,,,1167.2901000000013,238.0,4.0,1167.290199999999,238.0,,,,1170.635199999999,1171.1311999999991,1170.131900000002,1170.6349999999998,1168.295699999999,1170.1318000000006,1171.1313000000005,1171.6281000000013,1171.628199999999,1173.313,1219.0,1173.313,5.0,1173.319800000001,4.0,24.0,144.0,15.0,1.0,0.8,0.7,Time
,,S25,1,male,25,anonymized,Serial_Dependence_U,2023.2.3,Win32,163.93442622935177,,,,,,1173.319900000002,273.0,4.0,1173.3199999999997,273.0,,,,1177.088699999999,1177.5853000000006,1176.5868000000005,1177.088699999999,1174.319699999999,1176.5866999999992,1177.5853000000006,1178.0818000000006,1178.0818000000006,1180.3666999999991,1825.0,1180.3666999999991,5.0,1180.373199999999,4.0,25.0,145.0,22.0,1.0,1.2,0.3,Time
,,S25,1,male,25,anonymized,Serial_Dependence_U,2023.2.3,Win32,163.93442622935177,,,,,,1180.3733000000009,207.0,4.0,1180.373400000002,207.0,,,,1184.1428000000003,1184.639,1183.6398000000006,1184.142699999999,1181.3729999999998,1183.6398000000006,1184.639,1185.1356999999991,1185.1356999999991,1187.257400000002,1672.0,1187.257400000002,5.0,1187.2641999999992,4.0,26.0,146.0,2.0,1.0,1.2,0.3,Time
,,S25,1,male,25,anonymized,Serial_Dependence_U,2023.2.3,Win32,163.93442622935177,,,,,,1187.264400000002,90.0,4.0,1187.2644999999998,90.0,,,,1191.4384999999995,1191.9351000000013,1190.936199999999,1191.4384999999995,1188.269400000002,1190.9361000000013,1191.9351000000013,1192.431900000002,1192.4319999999998,1194.740900000002,1888.0,1194.741100000001,4.0,1194.7473000000005,4.0,27.0,147.0,24.0,1.0,1.6,0.3,Time
,,S25,1,male,25,anonymized,Serial_Dependence_U,2023.2.3,Win32,163.93442622935177,,,,,,1194.747400000002,180.0,4.0,1194.7476000000013,180.0,,,,1198.3171000000011,1198.8133000000005,1197.814,1198.3169999999998,1195.7476000000013,1197.813900000002,1198.8133000000005,1199.3099999999995,1199.3099999999995,1201.741100000001,1662.0,1201.7413000000006,5.0,1201.7489999999998,4.0,28.0,148.0,21.0,1.0,1.0,0.3,Time
,,S25,1,male,25,anonymized,Serial_Dependence_U,2023.2.3,Win32,163.93442622935177,,,,,,1201.749199999999,343.0,4.0,1201.7493000000006,343.0,,,,1205.2924999999998,1205.788400000002,1204.789199999999,1205.292400000002,1202.752699999999,1204.789100000001,1205.788400000002,1206.2853000000005,1206.2853000000005,1208.521699999999,1678.0,1208.521699999999,5.0,1208.5285,4.0,29.0,149.0,26.0,1.0,1.0,0.7,Time
,,S25,1,male,25,anonymized,Serial_Dependence_U,2023.2.3,Win32,163.93442622935177,,,,,,1208.5286999999992,332.0,5.0,1211.0178000000003,332.0,s,2.481700000003002,,1214.987699999999,1215.484199999999,1214.4858000000006,1214.9876000000013,1212.0185,1214.485699999999,1215.4843000000003,1215.981100000001,1215.981199999999,1218.1568000000009,1775.0,1218.1568000000009,4.0,1218.1629999999998,5.0,0.0,150.0,3.0,1.0,1.4,0.3,Time
,,S25,1,male,25,anonymized,Serial_Dependence_U,2023.2.3,Win32,163.93442622935177,,,,,,1218.1631000000014,85.0,5.0,1218.163900000002,85.0,,,,1221.533,1222.0288000000005,1221.030199999999,1221.532900000002,1219.1631000000014,1221.0301000000013,1222.028900000002,1222.525699999999,1222.5258000000006,1224.204800000001,1364.0,1224.204800000001,5.0,1224.2051000000013,5.0,1.0,151.0,0.0,1.0,0.8,0.3,Time
,,S25,1,male,25,anonymized,Serial_Dependence_U,2023.2.3,Win32,163.93442622935177,,,,,,1224.2053000000003,207.0,5.0,1224.205400000002,207.0,,,,1228.344400000002,1228.8401000000013,1227.8413000000005,1228.3443000000009,1225.205,1227.8413000000005,1228.8401000000013,1229.337199999999,1229.337199999999,1231.3856999999991,1972.0,1231.3858000000005,4.0,1231.3921000000014,5.0,2.0,152.0,29.0,1.0,1.6,0.7,Time
,,S25,1,male,25,anonymized,Serial_Dependence_U,2023.2.3,Win32,163.93442622935177,,,,,,1231.392199999999,175.0,5.0,1231.392400000002,175.0,,,,1235.331400000002,1235.8275,1234.828199999999,1235.3313000000005,1232.392199999999,1234.8281000000013,1235.8275,1236.3246000000013,1236.3246000000013,1238.324400000002,1593.0,1238.324400000002,4.0,1238.3304999999998,5.0,3.0,153.0,28.0,1.0,1.4,0.7,Time
,,S25,1,male,25,anonymized,Serial_Dependence_U,2023.2.3,Win32,163.93442622935177,,,,,,1238.330699999999,72.0,5.0,1238.3308000000006,72.0,,,,1241.8696000000014,1242.3663000000006,1241.3669999999995,1241.8696000000014,1239.3311000000012,1241.3669999999995,1242.3663000000006,1242.863199999999,1242.863199999999,1245.1418000000006,1958.0,1245.141900000002,5.0,1245.148,5.0,4.0,154.0,6.0,1.0,1.0,0.7,Time
,,S25,1,male,25,anonymized,Serial_Dependence_U,2023.2.3,Win32,163.93442622935177,,,,,,1245.1481999999992,0.0,5.0,1245.148400000002,0.0,,,,1248.487699999999,1248.9836000000014,1247.9844999999998,1248.4876000000013,1246.147699999999,1247.9843000000003,1248.9836000000014,1249.4805,1249.4805,1251.7418000000005,1843.0,1251.741900000002,5.0,1251.7479999999998,5.0,5.0,155.0,5.0,1.0,0.8,0.7,Time
,,S25,1,male,25,anonymized,Serial_Dependence_U,2023.2.3,Win32,163.93442622935177,,,,,,1251.7481000000014,162.0,5.0,1251.748199999999,162.0,,,,1255.8928000000003,1256.3888000000006,1255.39,1255.8928000000003,1252.7531000000013,1255.39,1256.388900000002,1256.8856999999991,1256.8856999999991,1259.6618000000003,2483.0,1259.661900000002,5.0,1259.668600000001,5.0,6.0,156.0,9.0,1.0,1.6,0.7,Time
,,S25,1,male,25,anonymized,Serial_Dependence_U,2023.2.3,Win32,163.93442622935177,,,,,,1259.6688000000006,301.0,5.0,1259.668900000002,301.0,,,,1263.613199999999,1264.1091000000013,1263.1101999999992,1263.613199999999,1260.674199999999,1263.1101000000012,1264.1091000000013,1264.6063000000006,1264.6063000000006,1266.8911999999991,2139.0,1266.8913000000005,5.0,1266.8986000000014,5.0,7.0,157.0,8.0,1.0,1.4,0.7,Time
,,S25,1,male,25,anonymized,Serial_Dependence_U,2023.2.3,Win32,163.93442622935177,,,,,,1266.8988000000006,218.0,5.0,1266.8988000000006,218.0,,,,1270.242699999999,1270.738900000002,1269.739900000002,1270.242699999999,1267.9036000000012,1269.739900000002,1270.7389999999998,1271.2358000000006,1271.235900000002,1273.8359999999998,2107.0,1273.8359999999998,5.0,1273.842,5.0,8.0,158.0,25.0,1.0,0.8,0.7,Time
,,S25,1,male,25,anonymized,Serial_Dependence_U,2023.2.3,Win32,163.93442622935177,,,,,,1273.8421000000012,94.0,5.0,1273.8421999999991,94.0,,,,1277.611600000001,1278.1078000000005,1277.1088000000009,1277.6114999999998,1274.8421999999991,1277.108699999999,1278.107900000002,1278.605199999999,1278.605199999999,1280.677699999999,1631.0,1280.6778000000006,5.0,1280.6846000000014,5.0,9.0,159.0,2.0,1.0,1.2,0.3,Time
,,S25,1,male,25,anonymized,Serial_Dependence_U,2023.2.3,Win32,163.93442622935177,,,,,,1280.684900000002,13.0,5.0,1280.684900000002,13.0,,,,1284.252900000002,1284.7493000000006,1283.7506000000012,1284.252900000002,1281.685199999999,1283.7505,1284.7493000000006,1285.246400000002,1285.2464999999995,1287.4101999999991,2129.0,1287.4101999999991,5.0,1287.4173000000003,5.0,10.0,160.0,1.0,1.0,1.0,0.3,Time
,,S25,1,male,25,anonymized,Serial_Dependence_U,2023.2.3,Win32,163.93442622935177,,,,,,1287.417400000002,135.0,5.0,1287.4174999999998,135.0,,,,1291.3856999999991,1291.8824999999997,1290.8831000000014,1291.3856000000012,1288.4164999999998,1290.8831000000014,1291.8824999999997,1292.3791000000012,1292.3791000000012,1294.385100000001,1621.0,1294.385100000001,4.0,1294.3919999999998,5.0,11.0,161.0,13.0,1.0,1.4,0.3,Time
,,S25,1,male,25,anonymized,Serial_Dependence_U,2023.2.3,Win32,163.93442622935177,,,,,,1294.3921000000014,279.0,5.0,1294.392199999999,279.0,,,,1297.760900000002,1298.257300000001,1297.2581000000014,1297.7608000000005,1295.3916000000013,1297.2581000000014,1298.257400000002,1298.7541999999992,1298.7541999999992,1301.317900000002,2098.0,1301.317900000002,5.0,1301.324900000002,5.0,12.0,162.0,10.0,1.0,0.8,0.3,Time
,,S25,1,male,25,anonymized,Serial_Dependence_U,2023.2.3,Win32,163.93442622935177,,,,,,1301.3251000000014,247.0,5.0,1301.325199999999,247.0,,,,1305.069699999999,1305.565400000002,1304.5666999999992,1305.069699999999,1302.330400000002,1304.5666000000012,1305.565400000002,1306.0623000000005,1306.0623000000005,1308.1231000000014,1688.0,1308.1231000000014,5.0,1308.129,5.0,13.0,163.0,27.0,1.0,1.2,0.7,Time
,,S25,1,male,25,anonymized,Serial_Dependence_U,2023.2.3,Win32,163.93442622935177,,,,,,1308.1291000000012,45.0,5.0,1308.1291000000012,45.0,,,,1311.6991000000014,1312.1951000000013,1311.196400000002,1311.6989999999998,1309.1296000000011,1311.196400000002,1312.1951000000013,1312.6926999999991,1312.6928000000005,1314.8926000000013,2194.0,1314.892699999999,5.0,1314.8991999999992,5.0,14.0,164.0,11.0,1.0,1.0,0.3,Time
,,S25,1,male,25,anonymized,Serial_Dependence_U,2023.2.3,Win32,163.93442622935177,,,,,,1314.899400000002,354.0,5.0,1314.8994999999998,354.0,,,,1318.6739999999998,1319.1706000000013,1318.1718000000003,1318.6739999999998,1315.9046000000012,1318.1718000000003,1319.1706000000013,1319.6673000000003,1319.667400000002,1321.928,1792.0,1321.9281000000012,5.0,1321.934199999999,5.0,15.0,165.0,12.0,1.0,1.2,0.3,Time
,,S25,1,male,25,anonymized,Serial_Dependence_U,2023.2.3,Win32,163.93442622935177,,,,,,1321.934400000002,12.0,5.0,1321.934400000002,12.0,,,,1325.7036000000014,1326.1999999999998,1325.201199999999,1325.7034999999998,1322.9343000000006,1325.2011000000014,1326.1999999999998,1326.6973000000005,1326.6973000000005,1329.3459999999998,2079.0,1329.3459999999998,5.0,1329.353300000001,5.0,16.0,166.0,22.0,1.0,1.2,0.3,Time
,,S25,1,male,25,anonymized,Serial_Dependence_U,2023.2.3,Win32,163.93442622935177,,,,,,1329.3534999999997,351.0,5.0,1329.3536000000013,351.0,,,,1333.327100000001,1333.8236000000013,1332.8243000000004,1333.3269999999998,1330.3579999999995,1332.824199999999,1333.823699999999,1334.320400000002,1334.320400000002,1336.3511999999992,2000.0,1336.3511999999992,5.0,1336.359,5.0,17.0,167.0,23.0,1.0,1.4,0.3,Time
,,S25,1,male,25,anonymized,Serial_Dependence_U,2023.2.3,Win32,163.93442622935177,,,,,,1336.3591000000013,19.0,5.0,1336.3591000000013,19.0,,,,1340.301699999999,1340.798400000002,1339.7993000000006,1340.301699999999,1337.362900000002,1339.7993000000006,1340.798400000002,1341.2953000000005,1341.295400000002,1343.6711000000014,1940.0,1343.671199999999,5.0,1343.678,5.0,18.0,168.0,18.0,1.0,1.4,0.7,Time
,,S25,1,male,25,anonymized,Serial_Dependence_U,2023.2.3,Win32,163.93442622935177,,,,,,1343.6781999999992,293.0,5.0,1343.6781999999992,293.0,,,,1347.4171000000013,1347.9133000000006,1346.914199999999,1347.4171000000013,1344.6776000000011,1346.914100000001,1347.9133000000006,1348.409600000001,1348.409600000001,1350.8344999999997,2033.0,1350.8344999999997,5.0,1350.842,5.0,19.0,169.0,7.0,1.0,1.2,0.7,Time
,,S25,1,male,25,anonymized,Serial_Dependence_U,2023.2.3,Win32,163.93442622935177,,,,,,1350.8421999999991,28.0,5.0,1350.8423000000005,28.0,,,,1354.1858000000009,1354.6816999999992,1353.683100000001,1354.185699999999,1351.846400000002,1353.6829999999998,1354.6816999999992,1355.178699999999,1355.1789000000022,1357.293900000002,1644.0,1357.294,5.0,1357.2998000000005,5.0,20.0,170.0,15.0,1.0,0.8,0.7,Time
,,S25,1,male,25,anonymized,Serial_Dependence_U,2023.2.3,Win32,163.93442622935177,,,,,,1357.3001000000013,101.0,5.0,1357.3001000000013,101.0,,,,1361.469900000002,1361.965900000002,1360.966699999999,1361.4698000000003,1358.300400000002,1360.966600000001,1361.965900000002,1362.462900000002,1362.4631000000013,1364.9543000000006,2297.0,1364.954400000002,5.0,1364.961199999999,5.0,21.0,171.0,4.0,1.0,1.6,0.3,Time
,,S25,1,male,25,anonymized,Serial_Dependence_U,2023.2.3,Win32,163.93442622935177,,,,,,1364.961400000002,198.0,5.0,1364.9615,198.0,,,,1369.1058000000005,1369.601600000001,1368.6023000000005,1369.1056999999992,1365.9661000000012,1368.6021999999991,1369.601600000001,1370.0986000000014,1370.0986000000014,1372.4743000000003,2012.0,1372.474400000002,4.0,1372.4813000000006,5.0,22.0,172.0,19.0,1.0,1.6,0.7,Time
,,S25,1,male,25,anonymized,Serial_Dependence_U,2023.2.3,Win32,163.93442622935177,,,,,,1372.481400000002,323.0,5.0,1372.4815,323.0,,,,1376.6558000000005,1377.1525,1376.153199999999,1376.6556999999991,1373.486699999999,1376.153199999999,1377.1525,1377.6491000000012,1377.6491999999992,1379.3584999999998,1693.0,1379.3584999999998,4.0,1379.365400000002,5.0,23.0,173.0,14.0,1.0,1.6,0.3,Time
,,S25,1,male,25,anonymized,Serial_Dependence_U,2023.2.3,Win32,163.93442622935177,,,,,,1379.3656000000012,91.0,5.0,1379.3656000000012,91.0,,,,1383.1096000000014,1383.606199999999,1382.607199999999,1383.1094999999998,1380.3708000000006,1382.6071000000013,1383.6063000000006,1384.1031000000014,1384.1031000000014,1386.6484999999998,1914.0,1386.6484999999998,5.0,1386.656199999999,5.0,24.0,174.0,17.0,1.0,1.2,0.7,Time
,,S25,1,male,25,anonymized,Serial_Dependence_U,2023.2.3,Win32,163.93442622935177,,,,,,1386.6564999999998,349.0,5.0,1386.6564999999998,349.0,,,,1390.2003000000009,1390.6961999999992,1389.697600000001,1390.2003000000009,1387.6604999999995,1389.697400000002,1390.6961999999992,1391.193199999999,1391.1933000000006,1394.017400000002,2139.0,1394.0175,5.0,1394.0234999999998,5.0,25.0,175.0,16.0,1.0,1.0,0.7,Time
,,S25,1,male,25,anonymized,Serial_Dependence_U,2023.2.3,Win32,163.93442622935177,,,,,,1394.023699999999,310.0,5.0,1394.023699999999,310.0,,,,1397.3936000000012,1397.889600000001,1396.8906000000013,1397.3935,1395.024,1396.8906000000013,1397.889699999999,1398.3864999999998,1398.3866000000014,1399.7258000000006,823.0,1399.725900000002,3.0,1399.7323000000006,5.0,26.0,176.0,20.0,1.0,0.8,0.3,Time
,,S25,1,male,25,anonymized,Serial_Dependence_U,2023.2.3,Win32,163.93442622935177,,,,,,1399.7324999999998,181.0,5.0,1399.7324999999998,181.0,,,,1403.902699999999,1404.403900000002,1403.3991000000012,1403.9025,1400.732199999999,1403.3991000000012,1404.4039999999998,1404.900900000002,1404.900900000002,1407.41,2196.0,1407.4101000000012,5.0,1407.4166000000014,5.0,27.0,177.0,24.0,1.0,1.6,0.3,Time
,,S25,1,male,25,anonymized,Serial_Dependence_U,2023.2.3,Win32,163.93442622935177,,,,,,1407.416900000002,271.0,5.0,1407.416900000002,271.0,,,,1410.9858000000006,1411.4819999999995,1410.483699999999,1410.985699999999,1408.4166000000014,1410.4836000000014,1411.4819999999995,1411.9789999999998,1411.9791000000014,1414.1486000000014,1829.0,1414.148699999999,5.0,1414.1549999999995,5.0,28.0,178.0,21.0,1.0,1.0,0.3,Time
,,S25,1,male,25,anonymized,Serial_Dependence_U,2023.2.3,Win32,163.93442622935177,,,,,,1414.1551000000013,246.0,5.0,1414.155199999999,246.0,,,,1417.694400000002,1418.1905,1417.191400000002,1417.6943000000006,1415.155199999999,1417.191400000002,1418.1905,1418.6871000000012,1418.6871999999992,1420.5666000000012,1465.0,1420.5666000000012,5.0,1420.573,5.0,29.0,179.0,26.0,1.0,1.0,0.7,Time
,,S25,1,male,25,anonymized,Serial_Dependence_U,2023.2.3,Win32,163.93442622935177,,,,,,1420.5731000000012,300.0,6.0,1446.841900000002,300.0,s,26.25990000000229,,1450.1816999999992,1450.678,1449.6791000000012,1450.1816999999992,1447.8428000000006,1449.679,1450.6781000000012,1451.1751000000013,1451.1751000000013,1453.2053000000003,1643.0,1453.2053000000003,5.0,1453.211900000002,6.0,0.0,180.0,15.0,1.0,0.8,0.7,Time
,,S25,1,male,25,anonymized,Serial_Dependence_U,2023.2.3,Win32,163.93442622935177,,,,,,1453.212100000001,237.0,6.0,1453.2128000000005,237.0,,,,1456.7875,1457.283400000002,1456.2843000000005,1456.787400000002,1454.2179999999998,1456.2841999999991,1457.2834999999998,1457.780400000002,1457.7804999999998,1459.465400000002,1327.0,1459.4654999999998,5.0,1459.465699999999,6.0,1.0,181.0,1.0,1.0,1.0,0.3,Time
,,S25,1,male,25,anonymized,Serial_Dependence_U,2023.2.3,Win32,163.93442622935177,,,,,,1459.465900000002,65.0,6.0,1459.466,65.0,,,,1463.4043000000006,1463.900900000002,1462.901900000002,1463.4043000000006,1460.465699999999,1462.9018000000003,1463.900900000002,1464.398,1464.398,1466.634400000002,1903.0,1466.6345,5.0,1466.6411999999991,6.0,2.0,182.0,8.0,1.0,1.4,0.7,Time
,,S25,1,male,25,anonymized,Serial_Dependence_U,2023.2.3,Win32,163.93442622935177,,,,,,1466.6413000000005,357.0,6.0,1466.6413000000005,357.0,,,,1470.215900000002,1470.712199999999,1469.7133000000006,1470.215900000002,1467.6471000000013,1469.713199999999,1470.712199999999,1471.209300000001,1471.209400000002,1472.7608000000005,1523.0,1472.7608000000005,5.0,1472.768199999999,6.0,3.0,183.0,11.0,1.0,1.0,0.3,Time
,,S25,1,male,25,anonymized,Serial_Dependence_U,2023.2.3,Win32,163.93442622935177,,,,,,1472.768400000002,92.0,6.0,1472.7685,92.0,,,,1476.512400000002,1477.0086000000013,1476.009900000002,1476.512400000002,1473.7733000000003,1476.009900000002,1477.0086000000013,1477.5054999999998,1477.5054999999998,1479.959900000002,2019.0,1479.959900000002,5.0,1479.9658000000006,6.0,4.0,184.0,17.0,1.0,1.2,0.7,Time
,,S25,1,male,25,anonymized,Serial_Dependence_U,2023.2.3,Win32,163.93442622935177,,,,,,1479.966,327.0,6.0,1479.966,327.0,,,,1484.136199999999,1484.6321000000014,1483.632900000002,1484.1359999999995,1480.9661999999992,1483.632900000002,1484.632199999999,1485.128900000002,1485.128900000002,1487.662400000002,2034.0,1487.662400000002,4.0,1487.669699999999,6.0,5.0,185.0,24.0,1.0,1.6,0.3,Time
,,S25,1,male,25,anonymized,Serial_Dependence_U,2023.2.3,Win32,163.93442622935177,,,,,,1487.6699999999998,278.0,6.0,1487.6699999999998,278.0,,,,1491.213699999999,1491.710199999999,1490.7109999999998,1491.2136000000014,1488.6744000000022,1490.710900000002,1491.710199999999,1492.2071000000012,1492.2071999999991,1494.8859999999995,2127.0,1494.8861000000013,5.0,1494.892199999999,6.0,6.0,186.0,6.0,1.0,1.0,0.7,Time
,,S25,1,male,25,anonymized,Serial_Dependence_U,2023.2.3,Win32,163.93442622935177,,,,,,1494.8925,78.0,6.0,1494.8925,78.0,,,,1498.231199999999,1498.7278000000006,1497.7286000000013,1498.231100000001,1495.892199999999,1497.7286000000013,1498.7278000000006,1499.2244999999998,1499.2246000000014,1501.969900000002,2252.0,1501.9701000000014,5.0,1501.9768000000006,6.0,7.0,187.0,25.0,1.0,0.8,0.7,Time
,,S25,1,male,25,anonymized,Serial_Dependence_U,2023.2.3,Win32,163.93442622935177,,,,,,1501.9768000000006,232.0,6.0,1501.977,232.0,,,,1505.715900000002,1506.2116999999992,1505.2128000000005,1505.7158000000006,1502.976,1505.2126000000012,1506.2116999999992,1506.708699999999,1506.7088000000006,1509.2661000000014,2151.0,1509.2661999999991,5.0,1509.2728000000006,6.0,8.0,188.0,27.0,1.0,1.2,0.7,Time
,,S25,1,male,25,anonymized,Serial_Dependence_U,2023.2.3,Win32,163.93442622935177,,,,,,1509.273,18.0,6.0,1509.273,18.0,,,,1513.412400000002,1513.913900000002,1512.9091999999991,1513.4123000000006,1510.272400000002,1512.9091999999991,1513.913900000002,1514.410900000002,1514.410900000002,1517.156199999999,2417.0,1517.156199999999,5.0,1517.1626999999992,6.0,9.0,189.0,19.0,1.0,1.6,0.7,Time
,,S25,1,male,25,anonymized,Serial_Dependence_U,2023.2.3,Win32,163.93442622935177,,,,,,1517.162900000002,82.0,6.0,1517.162900000002,82.0,,,,1520.9319999999998,1521.4281999999992,1520.4294999999995,1520.931900000002,1518.1628000000003,1520.4294999999995,1521.4283000000005,1521.9249999999995,1521.9249999999995,1524.0406000000014,1736.0,1524.040699999999,5.0,1524.0473000000006,6.0,10.0,190.0,22.0,1.0,1.2,0.3,Time
,,S25,1,male,25,anonymized,Serial_Dependence_U,2023.2.3,Win32,163.93442622935177,,,,,,1524.047400000002,167.0,6.0,1524.0475,167.0,,,,1527.3921000000014,1527.888,1526.8891999999992,1527.3919999999998,1525.053,1526.8891999999992,1527.8881000000013,1528.384900000002,1528.384900000002,1530.554900000002,1611.0,1530.554900000002,5.0,1530.5611000000013,6.0,11.0,191.0,5.0,1.0,0.8,0.7,Time
,,S25,1,male,25,anonymized,Serial_Dependence_U,2023.2.3,Win32,163.93442622935177,,,,,,1530.561199999999,70.0,6.0,1530.5613000000003,70.0,,,,1533.924900000002,1534.4211000000014,1533.422400000002,1533.924900000002,1531.561,1533.4223000000006,1534.4211000000014,1534.9176000000014,1534.9176000000014,1536.1481000000013,838.0,1536.1481999999992,3.0,1536.153900000002,6.0,12.0,192.0,0.0,1.0,0.8,0.3,Time
,,S25,1,male,25,anonymized,Serial_Dependence_U,2023.2.3,Win32,163.93442622935177,,,,,,1536.154100000001,101.0,6.0,1536.154100000001,101.0,,,,1540.0936000000013,1540.5898000000009,1539.591,1540.0934999999995,1537.155199999999,1539.590900000002,1540.589900000002,1541.0866999999992,1541.0866999999992,1543.2566000000013,1757.0,1543.2566000000013,4.0,1543.263400000002,6.0,13.0,193.0,28.0,1.0,1.4,0.7,Time
,,S25,1,male,25,anonymized,Serial_Dependence_U,2023.2.3,Win32,163.93442622935177,,,,,,1543.2634999999998,160.0,6.0,1543.2636000000014,160.0,,,,1547.232400000002,1547.728400000002,1546.7295,1547.2323000000006,1544.2631000000013,1546.7295,1547.728400000002,1548.2269000000022,1548.227,1550.4743000000003,1771.0,1550.474400000002,4.0,1550.4815,6.0,14.0,194.0,3.0,1.0,1.4,0.3,Time
,,S25,1,male,25,anonymized,Serial_Dependence_U,2023.2.3,Win32,163.93442622935177,,,,,,1550.4816999999991,121.0,6.0,1550.4816999999991,121.0,,,,1553.8559999999998,1554.3521000000012,1553.353300000001,1553.8559999999998,1551.486699999999,1553.353300000001,1554.3521000000012,1554.8491000000013,1554.8491000000013,1556.237,989.0,1556.2371000000014,4.0,1556.243900000002,6.0,15.0,195.0,10.0,1.0,0.8,0.3,Time
,,S25,1,male,25,anonymized,Serial_Dependence_U,2023.2.3,Win32,163.93442622935177,,,,,,1556.244,132.0,6.0,1556.244,132.0,,,,1559.613300000001,1560.1091000000013,1559.109900000002,1559.6131000000014,1557.2433000000003,1559.109900000002,1560.1091000000013,1560.606100000001,1560.606100000001,1561.872699999999,903.0,1561.872699999999,4.0,1561.8791999999992,6.0,16.0,196.0,20.0,1.0,0.8,0.3,Time
,,S25,1,male,25,anonymized,Serial_Dependence_U,2023.2.3,Win32,163.93442622935177,,,,,,1561.8793000000005,188.0,6.0,1561.879400000002,188.0,,,,1565.618900000002,1566.1146000000012,1565.1153000000006,1565.618699999999,1562.8793000000005,1565.1153000000006,1566.1146999999992,1566.611600000001,1566.611600000001,1568.896400000002,1864.0,1568.8964999999998,5.0,1568.902900000002,6.0,17.0,197.0,7.0,1.0,1.2,0.7,Time
,,S25,1,male,25,anonymized,Serial_Dependence_U,2023.2.3,Win32,163.93442622935177,,,,,,1568.903199999999,356.0,6.0,1568.903199999999,356.0,,,,1572.841699999999,1573.3379999999995,1572.3389999999995,1572.841699999999,1569.902900000002,1572.3389999999995,1573.3381000000013,1573.835400000002,1573.835400000002,1575.9381000000012,1789.0,1575.9381999999991,4.0,1575.945699999999,6.0,18.0,198.0,18.0,1.0,1.4,0.7,Time
,,S25,1,male,25,anonymized,Serial_Dependence_U,2023.2.3,Win32,163.93442622935177,,,,,,1575.9458000000006,336.0,6.0,1575.9458000000006,336.0,,,,1579.5196999999991,1580.0163000000005,1579.0166000000013,1579.5196999999991,1576.950400000002,1579.0164999999995,1580.0163000000005,1580.513400000002,1580.513400000002,1582.749400000002,1810.0,1582.749400000002,5.0,1582.755400000002,6.0,19.0,199.0,21.0,1.0,1.0,0.3,Time
,,S25,1,male,25,anonymized,Serial_Dependence_U,2023.2.3,Win32,163.93442622935177,,,,,,1582.755699999999,41.0,6.0,1582.755699999999,41.0,,,,1586.8953000000006,1587.3913000000005,1586.3921000000014,1586.895199999999,1583.7561000000012,1586.3919999999998,1587.3913000000005,1587.888,1587.888,1590.287900000002,1987.0,1590.287900000002,4.0,1590.2934999999998,6.0,20.0,200.0,29.0,1.0,1.6,0.7,Time
,,S25,1,male,25,anonymized,Serial_Dependence_U,2023.2.3,Win32,163.93442622935177,,,,,,1590.293600000001,356.0,6.0,1590.293699999999,356.0,,,,1594.463699999999,1594.9603000000006,1593.9609999999998,1594.463699999999,1591.2944999999995,1593.960900000002,1594.960400000002,1595.4573000000005,1595.4573000000005,1597.3418000000006,1527.0,1597.3418000000006,3.0,1597.3486000000014,6.0,21.0,201.0,4.0,1.0,1.6,0.3,Time
,,S25,1,male,25,anonymized,Serial_Dependence_U,2023.2.3,Win32,163.93442622935177,,,,,,1597.348699999999,16.0,6.0,1597.348800000001,16.0,,,,1601.118199999999,1601.613900000002,1600.6148000000003,1601.118199999999,1598.348400000002,1600.6146999999992,1601.613900000002,1602.1111000000012,1602.1111000000012,1604.3351000000014,1852.0,1604.335199999999,5.0,1604.3418000000006,6.0,22.0,202.0,2.0,1.0,1.2,0.3,Time
,,S25,1,male,25,anonymized,Serial_Dependence_U,2023.2.3,Win32,163.93442622935177,,,,,,1604.342,145.0,6.0,1604.3421000000012,145.0,,,,1608.4806999999992,1608.9768000000006,1607.9778000000006,1608.4805,1605.341699999999,1607.9778000000006,1608.9768000000006,1609.473800000001,1609.473900000002,1611.7176000000013,1834.0,1611.717699999999,4.0,1611.725699999999,6.0,23.0,203.0,9.0,1.0,1.6,0.7,Time
,,S25,1,male,25,anonymized,Serial_Dependence_U,2023.2.3,Win32,163.93442622935177,,,,,,1611.725900000002,25.0,6.0,1611.726,25.0,,,,1615.267699999999,1615.7641000000012,1614.765,1615.267699999999,1612.7286000000013,1614.7648000000006,1615.7641000000012,1616.2609999999995,1616.2611000000013,1619.0546000000013,2132.0,1619.054699999999,5.0,1619.0598000000005,6.0,24.0,204.0,26.0,1.0,1.0,0.7,Time
,,S25,1,male,25,anonymized,Serial_Dependence_U,2023.2.3,Win32,163.93442622935177,,,,,,1619.059900000002,207.0,6.0,1619.0599999999995,207.0,,,,1623.0244999999998,1623.5209999999995,1622.5219999999997,1623.0244999999998,1620.060699999999,1622.521900000002,1623.5209999999995,1624.0178000000003,1624.017900000002,1626.4905,1988.0,1626.4906000000012,5.0,1626.4974999999995,6.0,25.0,205.0,13.0,1.0,1.4,0.3,Time
,,S25,1,male,25,anonymized,Serial_Dependence_U,2023.2.3,Win32,163.93442622935177,,,,,,1626.497699999999,124.0,6.0,1626.4978000000006,124.0,,,,1630.673400000002,1631.1745,1630.1693000000005,1630.673400000002,1627.503,1630.1691999999991,1631.1745,1631.671400000002,1631.671400000002,1642.337199999999,1527.0,1642.337199999999,3.0,1642.3438000000006,6.0,26.0,206.0,14.0,1.0,1.6,0.3,Time
,,S25,1,male,25,anonymized,Serial_Dependence_U,2023.2.3,Win32,163.93442622935177,,,,,,1642.3441000000014,141.0,6.0,1642.3441000000014,141.0,,,,1646.3128000000006,1646.808900000002,1645.8108000000009,1646.312699999999,1643.343900000002,1645.810699999999,1646.808900000002,1647.3061000000014,1647.306199999999,1649.725,1959.0,1649.725,5.0,1649.731400000002,6.0,27.0,207.0,23.0,1.0,1.4,0.3,Time
,,S25,1,male,25,anonymized,Serial_Dependence_U,2023.2.3,Win32,163.93442622935177,,,,,,1649.7316000000012,264.0,6.0,1649.7316000000012,264.0,,,,1653.2703000000006,1653.7661999999991,1652.7671000000014,1653.270100000001,1650.7308000000005,1652.7669999999998,1653.7663000000005,1654.263199999999,1654.2633000000003,1656.373199999999,1663.0,1656.373199999999,5.0,1656.3801000000012,6.0,28.0,208.0,16.0,1.0,1.0,0.7,Time
,,S25,1,male,25,anonymized,Serial_Dependence_U,2023.2.3,Win32,163.93442622935177,,,,,,1656.3801999999991,208.0,6.0,1656.3803000000005,208.0,,,,1660.1536999999992,1660.65,1659.6511000000014,1660.1536999999992,1657.3849999999998,1659.6509999999998,1660.6501000000012,1661.146800000001,1661.146800000001,1663.4444999999998,1960.0,1663.4444999999998,5.0,1663.4526000000012,6.0,29.0,209.0,12.0,1.0,1.2,0.3,Time
,,S25,1,male,25,anonymized,Serial_Dependence_U,2023.2.3,Win32,163.93442622935177,,,,,,1663.4526999999991,224.0,7.0,1712.8953000000006,224.0,s,49.42559999999776,0.0006999999993695,1716.869400000002,1717.3659999999998,1716.366900000002,1716.8693000000003,1713.9001000000012,1716.3668000000005,1717.366100000001,1717.862699999999,1717.862699999999,1719.9723000000006,1590.0,1719.9724000000022,4.0,1719.9793000000006,7.0,0.0,210.0,23.0,1.0,1.4,0.3,Time
,,S25,1,male,25,anonymized,Serial_Dependence_U,2023.2.3,Win32,163.93442622935177,,,,,,1719.9795,229.0,7.0,1719.9803000000006,229.0,,,,1723.9536999999991,1724.449900000002,1723.4515,1723.9536000000014,1720.984400000002,1723.4515,1724.449900000002,1724.946699999999,1724.946699999999,1726.916900000002,1593.0,1726.916900000002,4.0,1726.9173000000003,7.0,1.0,211.0,13.0,1.0,1.4,0.3,Time
,,S25,1,male,25,anonymized,Serial_Dependence_U,2023.2.3,Win32,163.93442622935177,,,,,,1726.9176000000014,253.0,7.0,1726.917699999999,253.0,,,,1730.8558000000005,1731.3521999999991,1730.3529999999998,1730.8556999999992,1727.916699999999,1730.352900000002,1731.3521999999991,1731.849199999999,1731.8493000000003,1734.0858000000003,1810.0,1734.0858000000003,4.0,1734.0931999999991,7.0,2.0,212.0,28.0,1.0,1.4,0.7,Time
,,S25,1,male,25,anonymized,Serial_Dependence_U,2023.2.3,Win32,163.93442622935177,,,,,,1734.093400000002,15.0,7.0,1734.093400000002,15.0,,,,1737.4674999999995,1737.963699999999,1736.9646000000014,1737.4674999999995,1735.0979999999995,1736.9644999999998,1737.963699999999,1738.4606999999992,1738.4606999999992,1740.521199999999,1563.0,1740.521199999999,5.0,1740.5278000000003,7.0,3.0,213.0,20.0,1.0,0.8,0.3,Time
,,S25,1,male,25,anonymized,Serial_Dependence_U,2023.2.3,Win32,163.93442622935177,,,,,,1740.527900000002,10.0,7.0,1740.5279999999998,10.0,,,,1744.6968000000006,1745.1929999999998,1744.193900000002,1744.6968000000006,1741.527699999999,1744.1938000000005,1745.1929999999998,1745.690300000001,1745.690300000001,1748.0295,1917.0,1748.0296000000012,4.0,1748.0364999999997,7.0,4.0,214.0,4.0,1.0,1.6,0.3,Time
,,S25,1,male,25,anonymized,Serial_Dependence_U,2023.2.3,Win32,163.93442622935177,,,,,,1748.0366000000013,118.0,7.0,1748.036699999999,118.0,,,,1751.7751000000012,1752.2709999999995,1751.2724999999998,1751.775,1749.035900000002,1751.2724999999998,1752.2711000000013,1752.7681000000014,1752.7681000000014,1754.925699999999,1740.0,1754.925800000001,5.0,1754.933199999999,7.0,5.0,215.0,7.0,1.0,1.2,0.7,Time
,,S25,1,male,25,anonymized,Serial_Dependence_U,2023.2.3,Win32,163.93442622935177,,,,,,1754.9333000000006,269.0,7.0,1754.933400000002,269.0,,,,1758.4778000000006,1758.973699999999,1757.9746000000014,1758.4778000000006,1755.938900000002,1757.9744999999998,1758.973699999999,1759.470400000002,1759.4705,1761.507400000002,1587.0,1761.507400000002,5.0,1761.5136000000014,7.0,6.0,216.0,16.0,1.0,1.0,0.7,Time
,,S25,1,male,25,anonymized,Serial_Dependence_U,2023.2.3,Win32,163.93442622935177,,,,,,1761.5138000000006,344.0,7.0,1761.513900000002,344.0,,,,1765.458400000002,1765.954699999999,1764.956,1765.4583000000005,1762.519199999999,1764.956,1765.954800000001,1766.4518000000005,1766.451900000002,1768.773,1978.0,1768.773,5.0,1768.780400000002,7.0,7.0,217.0,8.0,1.0,1.4,0.7,Time
,,S25,1,male,25,anonymized,Serial_Dependence_U,2023.2.3,Win32,163.93442622935177,,,,,,1768.7804999999998,227.0,7.0,1768.7806000000014,227.0,,,,1772.3546000000013,1772.851,1771.851699999999,1772.3546000000013,1769.7851000000012,1771.851600000001,1772.851,1773.3476999999991,1773.3476999999991,1775.329800000001,1503.0,1775.329900000002,5.0,1775.3363000000006,7.0,8.0,218.0,1.0,1.0,1.0,0.3,Time
,,S25,1,male,25,anonymized,Serial_Dependence_U,2023.2.3,Win32,163.93442622935177,,,,,,1775.336400000002,245.0,7.0,1775.3365,245.0,,,,1779.4753000000003,1779.971400000002,1778.9725,1779.4751999999992,1776.336199999999,1778.9724000000022,1779.9716000000012,1780.4686000000013,1780.4686000000013,1782.771800000001,2004.0,1782.771800000001,4.0,1782.7801000000013,7.0,9.0,219.0,19.0,1.0,1.6,0.7,Time
,,S25,1,male,25,anonymized,Serial_Dependence_U,2023.2.3,Win32,163.93442622935177,,,,,,1782.780199999999,222.0,7.0,1782.7803000000006,222.0,,,,1786.353699999999,1786.8496000000014,1785.8504999999998,1786.353699999999,1783.784,1785.8504999999998,1786.8496000000014,1787.3466999999991,1787.3466999999991,1789.564400000002,1386.0,1789.5644999999995,5.0,1789.5704999999998,7.0,10.0,220.0,11.0,1.0,1.0,0.3,Time
,,S25,1,male,25,anonymized,Serial_Dependence_U,2023.2.3,Win32,163.93442622935177,,,,,,1789.570699999999,151.0,7.0,1789.570699999999,151.0,,,,1793.3404999999998,1793.8366999999992,1792.8378000000005,1793.3404999999998,1790.570900000002,1792.8376999999991,1793.8368000000005,1794.3336000000013,1794.333699999999,1796.460900000002,1727.0,1796.4609999999998,5.0,1796.4676000000013,7.0,11.0,221.0,22.0,1.0,1.2,0.3,Time
,,S25,1,male,25,anonymized,Serial_Dependence_U,2023.2.3,Win32,163.93442622935177,,,,,,1796.467900000002,215.0,7.0,1796.467900000002,215.0,,,,1800.2066000000011,1800.7026999999991,1799.7036999999991,1800.206400000002,1797.4676000000013,1799.7036000000014,1800.7026999999991,1801.1998000000006,1801.1998000000006,1803.224,1604.0,1803.224,5.0,1803.232900000002,7.0,12.0,222.0,27.0,1.0,1.2,0.7,Time
,,S25,1,male,25,anonymized,Serial_Dependence_U,2023.2.3,Win32,163.93442622935177,,,,,,1803.233,326.0,7.0,1803.2331000000013,326.0,,,,1806.7755,1807.271699999999,1806.2733000000003,1806.775400000002,1804.236600000001,1806.2733000000003,1807.271800000001,1807.7685,1807.7685,1809.9263000000003,1805.0,1809.9263000000003,5.0,1809.9323000000009,7.0,13.0,223.0,26.0,1.0,1.0,0.7,Time
,,S25,1,male,25,anonymized,Serial_Dependence_U,2023.2.3,Win32,163.93442622935177,,,,,,1809.9325,120.0,7.0,1809.9325,120.0,,,,1813.872199999999,1814.367900000002,1813.368199999999,1813.8721000000012,1810.933,1813.3681000000013,1814.368,1814.865199999999,1814.8653000000008,1817.4466000000011,2168.0,1817.4468000000008,5.0,1817.454699999999,7.0,14.0,224.0,18.0,1.0,1.4,0.7,Time
,,S25,1,male,25,anonymized,Serial_Dependence_U,2023.2.3,Win32,163.93442622935177,,,,,,1817.454800000001,184.0,7.0,1817.454900000002,184.0,,,,1821.2286000000013,1821.7253000000003,1820.7258000000008,1821.2286000000013,1818.459199999999,1820.7258000000008,1821.725400000002,1822.221199999999,1822.221199999999,1824.912900000002,2335.0,1824.913,5.0,1824.92,7.0,15.0,225.0,2.0,1.0,1.2,0.3,Time
,,S25,1,male,25,anonymized,Serial_Dependence_U,2023.2.3,Win32,163.93442622935177,,,,,,1824.92,291.0,7.0,1824.9201000000012,291.0,,,,1828.894,1829.390699999999,1828.3915,1828.893900000002,1825.925,1828.391400000002,1829.390699999999,1829.8876000000012,1829.8876000000012,1833.117699999999,2856.0,1833.117699999999,5.0,1833.126100000001,7.0,16.0,226.0,3.0,1.0,1.4,0.3,Time
,,S25,1,male,25,anonymized,Serial_Dependence_U,2023.2.3,Win32,163.93442622935177,,,,,,1833.1263000000008,192.0,7.0,1833.1263000000008,192.0,,,,1836.4693000000009,1836.965900000002,1835.9668000000008,1836.469199999999,1834.1301999999991,1835.966699999999,1836.966,1837.4626000000007,1837.4626000000007,1839.1776000000011,1333.0,1839.177699999999,5.0,1839.184199999999,7.0,17.0,227.0,15.0,1.0,0.8,0.7,Time
,,S25,1,male,25,anonymized,Serial_Dependence_U,2023.2.3,Win32,163.93442622935177,,,,,,1839.184400000002,336.0,7.0,1839.184400000002,336.0,,,,1842.5233000000003,1843.019400000002,1842.0203000000008,1842.5231999999992,1840.1841000000013,1842.0203000000008,1843.0195,1843.5168000000008,1843.516900000002,1845.244,1284.0,1845.244,5.0,1845.251900000002,7.0,18.0,228.0,5.0,1.0,0.8,0.7,Time
,,S25,1,male,25,anonymized,Serial_Dependence_U,2023.2.3,Win32,163.93442622935177,,,,,,1845.252,67.0,7.0,1845.2521000000013,67.0,,,,1849.4256000000012,1849.9218000000003,1848.922900000002,1849.4256000000012,1846.2559000000024,1848.922900000002,1849.9218000000003,1850.418900000002,1850.419,1852.3521999999991,1529.0,1852.3521999999991,3.0,1852.358900000002,7.0,19.0,229.0,14.0,1.0,1.6,0.3,Time
,,S25,1,male,25,anonymized,Serial_Dependence_U,2023.2.3,Win32,163.93442622935177,,,,,,1852.359,288.0,7.0,1852.359199999999,288.0,,,,1855.7286000000013,1856.2303000000009,1855.225400000002,1855.7285,1853.3586000000012,1855.2253000000003,1856.2303000000009,1856.727,1856.7271000000007,1858.600400000002,1459.0,1858.6005,5.0,1858.6071000000013,7.0,20.0,230.0,0.0,1.0,0.8,0.3,Time
,,S25,1,male,25,anonymized,Serial_Dependence_U,2023.2.3,Win32,163.93442622935177,,,,,,1858.607199999999,239.0,7.0,1858.6073000000008,239.0,,,,1862.745900000002,1863.2416000000007,1862.2426000000012,1862.745900000002,1859.606400000002,1862.2426000000012,1863.2416000000007,1863.7385,1863.7385,1866.090400000002,1643.0,1866.090400000002,3.0,1866.097,7.0,21.0,231.0,9.0,1.0,1.6,0.7,Time
,,S25,1,male,25,anonymized,Serial_Dependence_U,2023.2.3,Win32,163.93442622935177,,,,,,1866.097199999999,320.0,7.0,1866.097199999999,320.0,,,,1869.4416999999992,1869.937900000002,1868.939400000002,1869.4416999999992,1867.1028000000008,1868.9393000000005,1869.938,1870.4351000000013,1870.4351000000013,1872.337900000002,1467.0,1872.337900000002,5.0,1872.345900000002,7.0,22.0,232.0,25.0,1.0,0.8,0.7,Time
,,S25,1,male,25,anonymized,Serial_Dependence_U,2023.2.3,Win32,163.93442622935177,,,,,,1872.3461000000011,239.0,7.0,1872.346199999999,239.0,,,,1876.089699999999,1876.5858000000003,1875.586900000002,1876.0896000000012,1873.350400000002,1875.5868000000005,1876.5858000000003,1877.082699999999,1877.082699999999,1879.3676000000012,1727.0,1879.367699999999,5.0,1879.374900000002,7.0,23.0,233.0,17.0,1.0,1.2,0.7,Time
,,S25,1,male,25,anonymized,Serial_Dependence_U,2023.2.3,Win32,163.93442622935177,,,,,,1879.375100000001,110.0,7.0,1879.375199999999,110.0,,,,1882.949699999999,1883.4458000000009,1882.446,1882.949699999999,1880.379900000002,1882.445900000002,1883.4458000000009,1883.9428000000005,1883.9428000000005,1886.2641999999992,1748.0,1886.2643000000005,5.0,1886.272199999999,7.0,24.0,234.0,21.0,1.0,1.0,0.3,Time
,,S25,1,male,25,anonymized,Serial_Dependence_U,2023.2.3,Win32,163.93442622935177,,,,,,1886.272400000002,287.0,7.0,1886.272400000002,287.0,,,,1890.045699999999,1890.5418000000009,1889.542900000002,1890.045699999999,1887.2768000000003,1889.5428000000009,1890.5418000000009,1891.0386999999992,1891.0386999999992,1893.359900000002,1807.0,1893.359900000002,5.0,1893.367400000002,7.0,25.0,235.0,12.0,1.0,1.2,0.3,Time
,,S25,1,male,25,anonymized,Serial_Dependence_U,2023.2.3,Win32,163.93442622935177,,,,,,1893.367699999999,319.0,7.0,1893.367699999999,319.0,,,,1897.5118000000004,1898.0078000000003,1897.0086999999992,1897.511699999999,1894.3723000000005,1897.0086000000013,1898.0078000000003,1898.504900000002,1898.504900000002,1901.5468000000003,2638.0,1901.5468000000003,5.0,1901.5526000000011,7.0,26.0,236.0,29.0,1.0,1.6,0.7,Time
,,S25,1,male,25,anonymized,Serial_Dependence_U,2023.2.3,Win32,163.93442622935177,,,,,,1901.552699999999,291.0,7.0,1901.5528000000008,291.0,,,,1905.7226000000007,1906.219199999999,1905.2201000000011,1905.7224000000024,1902.553400000002,1905.22,1906.219199999999,1906.7163000000005,1906.7163000000005,1908.4008000000008,1669.0,1908.4008000000008,3.0,1908.4076000000011,7.0,27.0,237.0,24.0,1.0,1.6,0.3,Time
,,S25,1,male,25,anonymized,Serial_Dependence_U,2023.2.3,Win32,163.93442622935177,,,,,,1908.4078000000009,223.0,7.0,1908.4078000000009,223.0,,,,1911.946400000002,1912.4426999999991,1911.4435,1911.9461999999992,1909.4075,1911.4435,1912.4426999999991,1912.9398000000008,1912.9398000000008,1915.588,2187.0,1915.588,5.0,1915.595199999999,7.0,28.0,238.0,6.0,1.0,1.0,0.7,Time
,,S25,1,male,25,anonymized,Serial_Dependence_U,2023.2.3,Win32,163.93442622935177,,,,,,1915.595400000002,106.0,7.0,1915.5955,106.0,,,,1918.964199999999,1919.460199999999,1918.461199999999,1918.9641000000013,1916.5946000000013,1918.4611000000011,1919.460199999999,1919.957,1919.957,1921.9146999999991,1550.0,1921.9148000000005,5.0,1921.921199999999,7.0,29.0,239.0,10.0,1.0,0.8,0.3,Time
,,S25,1,male,25,anonymized,Serial_Dependence_U,2023.2.3,Win32,163.93442622935177,,,,,,1921.921400000002,126.0,8.0,2141.2689000000023,126.0,s,219.33490000000236,,2144.6438000000007,2145.1396000000013,2144.1408000000006,2144.6438000000007,2142.274300000001,2144.1408000000006,2145.1396999999997,2145.6365,2145.6366000000016,2147.4731999999995,1426.0,2147.4731999999995,5.0,2147.4738000000007,8.0,0.0,240.0,0.0,1.0,0.8,0.3,Time
,,S25,1,male,25,anonymized,Serial_Dependence_U,2023.2.3,Win32,163.93442622935177,,,,,,2147.4751999999994,169.0,8.0,2147.477900000002,169.0,,,,2150.849,2151.3450000000003,2150.346400000002,2150.849,2148.4794000000024,2150.346400000002,2151.3450000000003,2151.8426999999992,2151.8426999999992,2153.4966999999992,1219.0,2153.4969000000024,5.0,2153.497,8.0,1.0,241.0,10.0,1.0,0.8,0.3,Time
,,S25,1,male,25,anonymized,Serial_Dependence_U,2023.2.3,Win32,163.93442622935177,,,,,,2153.497600000001,178.0,8.0,2153.4976999999994,178.0,,,,2157.6726000000017,2158.1686000000013,2157.1696999999995,2157.6725,2154.5031000000017,2157.169600000001,2158.1686000000013,2158.6656000000016,2158.665699999999,2160.9023000000007,1698.0,2160.9023000000007,4.0,2160.9094000000023,8.0,2.0,242.0,14.0,1.0,1.6,0.3,Time
,,S25,1,male,25,anonymized,Serial_Dependence_U,2023.2.3,Win32,163.93442622935177,,,,,,2160.9096000000013,104.0,8.0,2160.9096000000013,104.0,,,,2164.684300000001,2165.1801000000014,2164.180900000002,2164.6841999999992,2161.9147,2164.180800000001,2165.1801000000014,2165.677199999999,2165.677199999999,2167.4529000000025,1405.0,2167.453,4.0,2167.4606000000017,8.0,3.0,243.0,12.0,1.0,1.2,0.3,Time
,,S25,1,male,25,anonymized,Serial_Dependence_U,2023.2.3,Win32,163.93442622935177,,,,,,2167.4609000000023,290.0,8.0,2167.461,290.0,,,,2171.6346000000017,2172.1309000000024,2171.1314000000025,2171.6346000000017,2168.465800000001,2171.1314000000025,2172.1309000000024,2172.628,2172.628,2174.6945,1692.0,2174.6945,4.0,2174.7015,8.0,4.0,244.0,24.0,1.0,1.6,0.3,Time
,,S25,1,male,25,anonymized,Serial_Dependence_U,2023.2.3,Win32,163.93442622935177,,,,,,2174.7018000000007,40.0,8.0,2174.7018000000007,40.0,,,,2178.646199999999,2179.142300000001,2178.143,2178.646199999999,2175.707,2178.143,2179.142300000001,2179.639199999999,2179.639199999999,2182.0394000000024,2035.0,2182.0395,5.0,2182.046800000001,8.0,5.0,245.0,8.0,1.0,1.4,0.7,Time
,,S25,1,male,25,anonymized,Serial_Dependence_U,2023.2.3,Win32,163.93442622935177,,,,,,2182.046900000002,35.0,8.0,2182.047,35.0,,,,2185.791,2186.2869000000023,2185.2881999999995,2185.791,2183.051699999999,2185.2881999999995,2186.2870000000003,2186.7838000000006,2186.783900000002,2189.2686000000017,1993.0,2189.268699999999,5.0,2189.2746000000016,8.0,6.0,246.0,7.0,1.0,1.2,0.7,Time
,,S25,1,male,25,anonymized,Serial_Dependence_U,2023.2.3,Win32,163.93442622935177,,,,,,2189.2748000000006,20.0,8.0,2189.274900000002,20.0,,,,2193.2444000000023,2193.7406999999994,2192.7416000000017,2193.2443000000007,2190.275,2192.7415,2193.740800000001,2194.237699999999,2194.237699999999,2196.474,1769.0,2196.4741000000017,4.0,2196.4806000000017,8.0,7.0,247.0,13.0,1.0,1.4,0.3,Time
,,S25,1,male,25,anonymized,Serial_Dependence_U,2023.2.3,Win32,163.93442622935177,,,,,,2196.480699999999,145.0,8.0,2196.4808000000007,145.0,,,,2199.849199999999,2200.3461999999995,2199.3471999999992,2199.849199999999,2197.4809000000023,2199.3471999999992,2200.3461999999995,2200.8429000000024,2200.843,2202.8671999999992,1563.0,2202.8671999999992,5.0,2202.8736000000017,8.0,8.0,248.0,20.0,1.0,0.8,0.3,Time
,,S25,1,male,25,anonymized,Serial_Dependence_U,2023.2.3,Win32,163.93442622935177,,,,,,2202.8738000000008,170.0,8.0,2202.8738000000008,170.0,,,,2206.6125,2207.109,2206.1098000000006,2206.6125,2203.8736000000017,2206.1096999999995,2207.109,2207.6059000000023,2207.606,2209.787900000002,1715.0,2209.787900000002,5.0,2209.795,8.0,9.0,249.0,27.0,1.0,1.2,0.7,Time
,,S25,1,male,25,anonymized,Serial_Dependence_U,2023.2.3,Win32,163.93442622935177,,,,,,2209.795199999999,319.0,8.0,2209.795199999999,319.0,,,,2213.363600000001,2213.859900000002,2212.8606999999997,2213.3635,2210.7942,2212.8606999999997,2213.859900000002,2214.356600000001,2214.3567,2216.678100000001,1594.0,2216.678100000001,5.0,2216.6845,8.0,10.0,250.0,11.0,1.0,1.0,0.3,Time
,,S25,1,male,25,anonymized,Serial_Dependence_U,2023.2.3,Win32,163.93442622935177,,,,,,2216.684800000001,203.0,8.0,2216.684800000001,203.0,,,,2220.8540000000003,2221.350300000001,2220.3508000000006,2220.8539000000023,2217.6846000000014,2220.3508000000006,2221.350300000001,2221.847,2221.8471000000013,2224.089400000002,1750.0,2224.089400000002,4.0,2224.0965,8.0,11.0,251.0,4.0,1.0,1.6,0.3,Time
,,S25,1,male,25,anonymized,Serial_Dependence_U,2023.2.3,Win32,163.93442622935177,,,,,,2224.0966000000017,39.0,8.0,2224.096699999999,39.0,,,,2228.034800000001,2228.531100000001,2227.531900000002,2228.034800000001,2225.095800000001,2227.531900000002,2228.531100000001,2229.028,2229.0281000000014,2231.446300000001,2017.0,2231.446300000001,5.0,2231.4547,8.0,12.0,252.0,28.0,1.0,1.4,0.7,Time
