Scale_setup.started,Scale_setup.stopped,participant,session,sex,age,date,expName,psychopyVersion,OS,frameRate,Intro.started,Intro.stopped,key_resp_2.keys,key_resp_2.rt,key_resp_2.duration,block.started,direction,Block_id,block.stopped,trial_direction,Block_resp_2.keys,Block_resp_2.rt,Block_resp_2.duration,ITI.started,ITI.stopped,Mask_2.started,Mask_2.stopped,encoding.started,encoding.stopped,Cue.started,Cue.stopped,Response.started,Response.stopped,keyDuration,Feedback_Time.started,FeedbackID_T,Feedback_Time.stopped,trials.thisRepN,trials.thisTrialN,trials.thisN,trials.thisIndex,trials.ran,TimeDur,Coherence1,TrialType
0.000200000047684,0.0002999999523183,S26,1,,,anonymized,Serial_Dependence_U,2023.2.3,Win32,59.17159763315647,,,,,,,,,,,,,,,,,,,,,,,,,,,,,,,,,,,
,,S26,1,,,anonymized,Serial_Dependence_U,2023.2.3,Win32,59.17159763315647,349.9760999999046,496.9764000000954,space,146.9620000000001,,,,,,,,,,,,,,,,,,,,,,,,,,,,,,,
,,S26,1,,,anonymized,Serial_Dependence_U,2023.2.3,Win32,59.17159763315647,,,,,,496.9890999999046,174.0,0.0,511.3184000000954,174.0,s,14.313599999904568,,515.514,516.0137000000477,514.9974000000954,515.5139000000954,512.3355,514.9972999999524,516.0137999999523,516.5154000000954,516.5160000000001,552.0974000000954,183.0,552.0977000000477,1.0,553.0945999999046,0.0,0.0,0.0,14.0,1.0,1.6,0.3,Time
,,S26,1,,,anonymized,Serial_Dependence_U,2023.2.3,Win32,59.17159763315647,,,,,,553.0964000000954,270.0,0.0,553.0997000000477,270.0,,,,556.6469000000953,557.1464000000954,556.1312999999524,556.6467000000478,554.0965999999047,556.1310999999047,557.1465000000001,557.6422999999523,557.6424000000954,566.2000999999046,116.0,566.2000999999046,1.0,567.1952999999523,0.0,1.0,1.0,6.0,1.0,1.0,0.7,Time
,,S26,1,,,anonymized,Serial_Dependence_U,2023.2.3,Win32,59.17159763315647,,,,,,567.1977000000477,204.0,0.0,567.1982000000477,204.0,,,,571.1467000000478,571.6462000000477,570.6370000000001,571.1465999999047,568.2005,570.6367999999524,571.6462999999524,572.1350999999047,572.1352999999524,575.2002999999523,142.0,575.2005,1.0,576.197,0.0,2.0,2.0,28.0,1.0,1.4,0.7,Time
,,S26,1,,,anonymized,Serial_Dependence_U,2023.2.3,Win32,59.17159763315647,,,,,,576.198,119.0,0.0,576.1984000000954,119.0,,,,579.9555,580.4477000000477,579.4385999999047,579.9555,577.1997000000478,579.4385,580.4477000000477,580.948,580.948,581.9155000000001,208.0,581.9155000000001,1.0,582.9150999999047,0.0,3.0,3.0,27.0,1.0,1.2,0.7,Time
,,S26,1,,,anonymized,Serial_Dependence_U,2023.2.3,Win32,59.17159763315647,,,,,,582.9155000000001,185.0,0.0,582.9155999999047,185.0,,,,586.7195,587.2169000000954,586.2054000000954,586.7194000000954,583.9395999999047,586.2054000000954,587.217,587.717,587.7170999999047,589.9730000000001,167.0,589.9730999999047,1.0,590.9667999999523,0.0,4.0,4.0,22.0,1.0,1.2,0.3,Time
,,S26,1,,,anonymized,Serial_Dependence_U,2023.2.3,Win32,59.17159763315647,,,,,,590.9670999999047,48.0,0.0,590.9672999999524,48.0,,,,594.3755999999047,594.869,593.8584000000953,594.3755999999047,591.9902000000477,593.8582999999524,594.8690999999046,595.3687999999523,595.3687999999523,597.7585,188.0,597.7585999999046,1.0,598.7595,0.0,5.0,5.0,10.0,1.0,0.8,0.3,Time
,,S26,1,,,anonymized,Serial_Dependence_U,2023.2.3,Win32,59.17159763315647,,,,,,598.7604000000954,307.0,0.0,598.7609000000954,307.0,,,,602.9059000000954,603.4085,602.3959000000954,602.9057999999524,599.7560999999047,602.3957999999524,603.4085,603.9044000000954,603.9044000000954,607.3615999999047,184.0,607.3615999999047,1.0,608.355,0.0,6.0,6.0,19.0,1.0,1.6,0.7,Time
,,S26,1,,,anonymized,Serial_Dependence_U,2023.2.3,Win32,59.17159763315647,,,,,,608.3550999999046,148.0,0.0,608.3554000000954,148.0,,,,611.7289000000955,612.2307000000477,611.2139000000954,611.7289000000955,609.3639000000954,611.2137000000478,612.2307999999523,612.7232999999524,612.7235000000001,614.3489000000953,198.0,614.3492000000477,1.0,615.3414000000954,0.0,7.0,7.0,25.0,1.0,0.8,0.7,Time
,,S26,1,,,anonymized,Serial_Dependence_U,2023.2.3,Win32,59.17159763315647,,,,,,615.3425,286.0,0.0,615.3427999999524,286.0,,,,619.3480000000001,619.8415999999047,618.8442000000477,619.3480000000001,616.366,618.844,619.8417000000477,620.3422999999524,620.3422999999524,623.2109000000954,194.0,623.211,1.0,624.2160999999047,0.0,8.0,8.0,13.0,1.0,1.4,0.3,Time
,,S26,1,,,anonymized,Serial_Dependence_U,2023.2.3,Win32,59.17159763315647,,,,,,624.217,267.0,0.0,624.2174000000954,267.0,,,,627.7947000000477,628.2935,627.2850999999047,627.7945999999047,625.2117999999523,627.2849000000954,628.2935,628.7942000000477,628.7942999999524,642.1692000000477,173.0,642.1694000000954,1.0,643.1649000000954,0.0,9.0,9.0,21.0,1.0,1.0,0.3,Time
,,S26,1,,,anonymized,Serial_Dependence_U,2023.2.3,Win32,59.17159763315647,,,,,,643.1652999999524,61.0,0.0,643.1655000000001,61.0,,,,646.5199000000954,647.0165000000001,646.0089000000954,646.5195999999047,644.1672000000477,646.0087999999523,647.0165999999047,647.5217999999523,647.5219000000953,650.8034000000954,208.0,650.8035,1.0,651.8002999999524,0.0,10.0,10.0,5.0,1.0,0.8,0.7,Time
,,S26,1,,,anonymized,Serial_Dependence_U,2023.2.3,Win32,59.17159763315647,,,,,,651.8005999999046,120.0,0.0,651.8007999999523,120.0,,,,655.3409000000954,655.8342000000478,654.8350999999046,655.3407999999523,652.801,654.835,655.8342999999523,656.3347999999523,656.335,656.71,200.0,656.7100999999046,1.0,657.702,0.0,11.0,11.0,16.0,1.0,1.0,0.7,Time
,,S26,1,,,anonymized,Serial_Dependence_U,2023.2.3,Win32,59.17159763315647,,,,,,657.7024000000954,63.0,0.0,657.7025999999047,63.0,,,,661.8942999999523,662.3872000000478,661.3919000000953,661.8942000000477,658.7232000000477,661.3917999999524,662.3872000000478,662.8875999999046,662.8875999999046,663.1867999999523,200.0,663.1869000000954,1.0,664.1872999999523,0.0,12.0,12.0,24.0,1.0,1.6,0.3,Time
,,S26,1,,,anonymized,Serial_Dependence_U,2023.2.3,Win32,59.17159763315647,,,,,,664.1880999999047,34.0,0.0,664.1885,34.0,,,,668.1750999999047,668.6715999999046,667.6615,668.1749000000954,665.1895000000001,667.6614000000953,668.6715999999046,669.1722000000477,669.1722999999523,670.5722000000477,186.0,670.5722000000477,1.0,671.5722000000477,0.0,13.0,13.0,23.0,1.0,1.4,0.3,Time
,,S26,1,,,anonymized,Serial_Dependence_U,2023.2.3,Win32,59.17159763315647,,,,,,671.5725,221.0,0.0,671.5727000000477,221.0,,,,675.3647999999523,675.8570999999047,674.8459000000954,675.3647000000477,672.5777000000477,674.8459000000954,675.8570999999047,676.3574000000954,676.3575000000001,678.1469000000953,215.0,678.1469000000953,1.0,679.1409000000954,0.0,14.0,14.0,2.0,1.0,1.2,0.3,Time
,,S26,1,,,anonymized,Serial_Dependence_U,2023.2.3,Win32,59.17159763315647,,,,,,679.1412999999524,271.0,0.0,679.1414000000954,271.0,,,,682.7185000000001,683.211,682.2134000000954,682.7182000000477,680.1487999999523,682.2132999999524,683.211,683.7119000000954,683.712,686.7935999999047,247.0,686.7937000000477,1.0,687.7947999999524,0.0,15.0,15.0,11.0,1.0,1.0,0.3,Time
,,S26,1,,,anonymized,Serial_Dependence_U,2023.2.3,Win32,59.17159763315647,,,,,,687.7954000000954,14.0,0.0,687.7957999999524,14.0,,,,691.7627999999523,692.2612999999524,691.2532999999523,691.7627000000477,688.8015999999046,691.253,692.2614000000954,692.7617000000477,692.7617000000477,698.9875999999047,184.0,698.9877999999524,1.0,699.98,0.0,16.0,16.0,18.0,1.0,1.4,0.7,Time
,,S26,1,,,anonymized,Serial_Dependence_U,2023.2.3,Win32,59.17159763315647,,,,,,699.9802999999523,330.0,0.0,699.9804000000954,330.0,,,,704.1552000000477,704.649,703.6387999999523,704.1550999999047,700.9870000000001,703.6387000000477,704.649,705.1482999999523,705.1482999999523,706.6064000000954,183.0,706.6065,1.0,707.6022999999524,0.0,17.0,17.0,29.0,1.0,1.6,0.7,Time
,,S26,1,,,anonymized,Serial_Dependence_U,2023.2.3,Win32,59.17159763315647,,,,,,707.6034000000953,152.0,0.0,707.6037000000478,152.0,,,,711.7679000000954,712.2672000000478,711.2545,711.7677000000477,708.6220000000001,711.2542999999523,712.2672000000478,712.7715999999047,712.7715999999047,714.7232000000477,191.0,714.7232000000477,1.0,715.7172000000477,0.0,18.0,18.0,9.0,1.0,1.6,0.7,Time
,,S26,1,,,anonymized,Serial_Dependence_U,2023.2.3,Win32,59.17159763315647,,,,,,715.7175,338.0,0.0,715.7177000000477,338.0,,,,719.0522999999523,719.5525999999047,718.5517000000477,719.0522999999523,716.7195999999046,718.5515999999046,719.5525999999047,720.0520999999046,720.0520999999046,723.2205999999046,223.0,723.2207999999523,1.0,724.2092000000478,0.0,19.0,19.0,15.0,1.0,0.8,0.7,Time
,,S26,1,,,anonymized,Serial_Dependence_U,2023.2.3,Win32,59.17159763315647,,,,,,724.2094000000953,227.0,0.0,724.2095999999046,227.0,,,,728.1607000000477,728.6542999999523,727.6454000000954,728.1607000000477,725.2037999999524,727.6452000000477,728.6542999999523,729.1545999999047,729.1545999999047,731.2289000000955,187.0,731.229,1.0,732.2225000000001,0.0,20.0,20.0,8.0,1.0,1.4,0.7,Time
,,S26,1,,,anonymized,Serial_Dependence_U,2023.2.3,Win32,59.17159763315647,,,,,,732.2232999999524,254.0,0.0,732.2237999999523,254.0,,,,736.0249000000954,736.5229000000954,735.5072999999524,736.0247999999524,733.2455,735.5072000000478,736.5229000000954,737.0229000000954,737.023,749.666,209.0,749.666,1.0,750.6627000000477,0.0,21.0,21.0,12.0,1.0,1.2,0.3,Time
,,S26,1,,,anonymized,Serial_Dependence_U,2023.2.3,Win32,59.17159763315647,,,,,,750.6635999999047,191.0,0.0,750.6642000000477,191.0,,,,754.219,754.7127000000477,753.7005999999046,754.2187999999524,751.6662000000478,753.7005,754.7127999999524,755.2125,755.2125999999047,757.2322000000477,231.0,757.2324000000954,1.0,758.2285999999046,0.0,22.0,22.0,26.0,1.0,1.0,0.7,Time
,,S26,1,,,anonymized,Serial_Dependence_U,2023.2.3,Win32,59.17159763315647,,,,,,758.229,163.0,0.0,758.2290999999046,163.0,,,,762.4142000000477,762.9145,761.9027000000477,762.4140999999047,759.2299000000954,761.9025999999046,762.9145999999047,763.4032000000477,763.4032999999523,765.8524000000954,240.0,765.8527000000477,1.0,766.8475999999047,0.0,23.0,23.0,4.0,1.0,1.6,0.3,Time
,,S26,1,,,anonymized,Serial_Dependence_U,2023.2.3,Win32,59.17159763315647,,,,,,766.8480000000001,169.0,0.0,766.8482000000477,169.0,,,,770.8330999999047,771.333,770.3222000000477,770.8329000000954,767.8537000000478,770.3220999999047,771.333,771.8332000000477,771.8332999999524,801.6487999999523,116.0,801.649,1.0,802.6427000000477,0.0,24.0,24.0,3.0,1.0,1.4,0.3,Time
,,S26,1,,,anonymized,Serial_Dependence_U,2023.2.3,Win32,59.17159763315647,,,,,,802.6434000000954,71.0,0.0,802.6437999999523,71.0,,,,806.4097000000477,806.9095,805.8980999999046,806.4097000000477,803.6659000000953,805.898,806.9095999999047,807.4114000000953,807.4114000000953,808.5774000000954,643.0,808.5775,1.0,809.5772999999523,0.0,25.0,25.0,17.0,1.0,1.2,0.7,Time
,,S26,1,,,anonymized,Serial_Dependence_U,2023.2.3,Win32,59.17159763315647,,,,,,809.5782000000477,253.0,0.0,809.5787000000477,253.0,,,,813.3167999999523,813.8155999999046,812.8162999999523,813.3167000000477,810.5787000000477,812.8160999999046,813.8157000000477,814.3112999999523,814.3114000000954,819.7689000000954,4500.0,819.769,5.0,820.7682999999523,0.0,26.0,26.0,7.0,1.0,1.2,0.7,Time
,,S26,1,,,anonymized,Serial_Dependence_U,2023.2.3,Win32,59.17159763315647,,,,,,820.7685,221.0,0.0,820.7685999999046,221.0,,,,824.1377999999523,824.631,823.6362999999524,824.1375999999046,821.7687000000477,823.6362999999524,824.6310999999047,825.1307999999524,825.1307999999524,829.5372999999523,3917.0,829.5374000000954,5.0,830.5335999999047,0.0,27.0,27.0,20.0,1.0,0.8,0.3,Time
,,S26,1,,,anonymized,Serial_Dependence_U,2023.2.3,Win32,59.17159763315647,,,,,,830.534,116.0,0.0,830.5342000000477,116.0,,,,833.9024000000954,834.4002999999524,833.4007000000477,833.9022999999523,831.5342999999524,833.4005999999047,834.4004000000954,834.9005999999047,834.9005999999047,838.0072000000478,2872.0,838.0072000000478,5.0,839.0017000000477,0.0,28.0,28.0,0.0,1.0,0.8,0.3,Time
,,S26,1,,,anonymized,Serial_Dependence_U,2023.2.3,Win32,59.17159763315647,,,,,,839.0025,98.0,0.0,839.0027999999523,98.0,,,,842.5930999999047,843.0860999999046,842.0739000000954,842.5929000000954,840.0027999999523,842.0737999999524,843.0860999999046,843.5865,843.5865999999047,847.2435999999046,3634.0,847.2435999999046,5.0,848.2375000000001,0.0,29.0,29.0,1.0,1.0,1.0,0.3,Time
,,S26,1,,,anonymized,Serial_Dependence_U,2023.2.3,Win32,59.17159763315647,,,,,,848.2382999999523,298.0,1.0,855.525,298.0,s,7.239799999952311,,859.5260000000001,860.0227000000477,859.0144000000954,859.5259000000954,856.5392000000477,859.0142000000477,860.0227000000477,860.5239000000954,860.5239000000954,864.6975999999047,3552.0,864.6975999999047,5.0,864.7067000000477,1.0,0.0,30.0,13.0,1.0,1.4,0.3,Time
,,S26,1,,,anonymized,Serial_Dependence_U,2023.2.3,Win32,59.17159763315647,,,,,,864.7069000000954,11.0,1.0,864.7075999999047,11.0,,,,868.8649000000954,869.3597000000477,868.3610999999047,868.8647999999523,865.7247000000477,868.361,869.3599000000954,869.8655,869.8655999999047,873.8435000000001,3474.0,873.8435999999047,5.0,873.851,1.0,1.0,31.0,29.0,1.0,1.6,0.7,Time
,,S26,1,,,anonymized,Serial_Dependence_U,2023.2.3,Win32,59.17159763315647,,,,,,873.8512000000477,217.0,1.0,873.8512000000477,217.0,,,,878.0290999999047,878.5292999999523,877.5199000000954,878.029,874.8519000000954,877.5197000000477,878.5294000000954,879.0285,879.0285999999047,884.2462000000477,4660.0,884.2462999999524,5.0,884.2530999999046,1.0,2.0,32.0,24.0,1.0,1.6,0.3,Time
,,S26,1,,,anonymized,Serial_Dependence_U,2023.2.3,Win32,59.17159763315647,,,,,,884.2532999999523,60.0,1.0,884.2534000000954,60.0,,,,888.248,888.7485999999046,887.7312000000477,888.248,885.2657000000477,887.7310999999047,888.7487000000477,889.2475000000001,889.2475999999047,893.2154000000954,3670.0,893.2154000000954,5.0,893.2220999999047,1.0,3.0,33.0,23.0,1.0,1.4,0.3,Time
,,S26,1,,,anonymized,Serial_Dependence_U,2023.2.3,Win32,59.17159763315647,,,,,,893.2222999999524,172.0,1.0,893.2224000000954,172.0,,,,897.1725999999046,897.668,896.6665,897.1725,894.2327000000477,896.6665,897.6680999999047,898.1685999999047,898.1685999999047,902.1177000000478,3651.0,902.1177999999524,5.0,902.1255999999048,1.0,4.0,34.0,28.0,1.0,1.4,0.7,Time
,,S26,1,,,anonymized,Serial_Dependence_U,2023.2.3,Win32,59.17159763315647,,,,,,902.1257999999524,108.0,1.0,902.1259000000954,108.0,,,,905.6744000000954,906.1687000000476,905.17,905.6742000000476,903.1349000000954,905.1699000000954,906.1687000000476,906.669,906.669,909.8370999999048,2899.0,909.8370999999048,5.0,909.8437000000478,1.0,5.0,35.0,6.0,1.0,1.0,0.7,Time
,,S26,1,,,anonymized,Serial_Dependence_U,2023.2.3,Win32,59.17159763315647,,,,,,909.8439000000952,292.0,1.0,909.8439000000952,292.0,,,,913.3749000000954,913.8707999999524,912.871,913.3747999999524,910.8392999999523,912.8709000000954,913.8709000000954,914.3712000000476,914.3712000000476,918.4565,3504.0,918.4565999999048,5.0,918.4634000000954,1.0,6.0,36.0,26.0,1.0,1.0,0.7,Time
,,S26,1,,,anonymized,Serial_Dependence_U,2023.2.3,Win32,59.17159763315647,,,,,,918.4635999999048,224.0,1.0,918.4635999999048,224.0,,,,921.8430999999048,922.3412999999524,921.3407999999524,921.843,919.4732999999522,921.3407999999524,922.3412999999524,922.84,922.84,927.8429000000956,4037.0,927.843,5.0,927.8537000000478,1.0,7.0,37.0,20.0,1.0,0.8,0.3,Time
,,S26,1,,,anonymized,Serial_Dependence_U,2023.2.3,Win32,59.17159763315647,,,,,,927.8539000000956,341.0,1.0,927.8539000000956,341.0,,,,931.829,932.3260999999046,931.3275999999048,931.8287999999524,928.859,931.3275,932.3260999999046,932.8265999999048,932.8265999999048,937.1465999999048,3727.0,937.1467999999523,5.0,937.1580999999048,1.0,8.0,38.0,3.0,1.0,1.4,0.3,Time
,,S26,1,,,anonymized,Serial_Dependence_U,2023.2.3,Win32,59.17159763315647,,,,,,937.1582999999524,1.0,1.0,937.1584000000954,1.0,,,,940.7622999999522,941.2625,940.2472000000477,940.7622000000478,938.1780999999048,940.2470999999048,941.2625999999046,941.7632000000476,941.7632999999524,946.9155,4444.0,946.9155999999048,5.0,946.9399000000956,1.0,9.0,39.0,1.0,1.0,1.0,0.3,Time
,,S26,1,,,anonymized,Serial_Dependence_U,2023.2.3,Win32,59.17159763315647,,,,,,946.9402999999523,225.0,1.0,946.9404000000952,225.0,,,,950.2662999999524,950.7657000000478,949.7644000000954,950.2660999999048,947.9327000000476,949.7642999999524,950.7657000000478,951.2647000000478,951.2647999999524,954.2492000000476,2578.0,954.2492000000476,5.0,954.2582999999524,1.0,10.0,40.0,25.0,1.0,0.8,0.7,Time
,,S26,1,,,anonymized,Serial_Dependence_U,2023.2.3,Win32,59.17159763315647,,,,,,954.2585999999048,116.0,1.0,954.2585999999048,116.0,,,,958.0175,958.5175,957.5169000000956,958.0174000000952,955.2522999999522,957.5169000000956,958.5175,959.0177999999524,959.0179000000954,964.2872999999524,4715.0,964.2875,5.0,964.3040999999048,1.0,11.0,41.0,22.0,1.0,1.2,0.3,Time
,,S26,1,,,anonymized,Serial_Dependence_U,2023.2.3,Win32,59.17159763315647,,,,,,964.3044000000954,103.0,1.0,964.3045,103.0,,,,967.8712000000476,968.3700999999048,967.3567000000476,967.8710999999048,965.3204000000954,967.3565,968.3702000000476,968.8715,968.8715999999046,973.6225999999048,3752.0,973.6227000000478,5.0,973.6445,1.0,12.0,42.0,16.0,1.0,1.0,0.7,Time
,,S26,1,,,anonymized,Serial_Dependence_U,2023.2.3,Win32,59.17159763315647,,,,,,973.6447999999524,238.0,1.0,973.645,238.0,,,,977.438,977.9404000000952,976.9237999999524,977.438,974.6557999999524,976.9237000000476,977.9404000000952,978.4382000000476,978.4382000000476,982.8562000000478,3837.0,982.8562000000478,5.0,982.8632000000476,1.0,13.0,43.0,12.0,1.0,1.2,0.3,Time
,,S26,1,,,anonymized,Serial_Dependence_U,2023.2.3,Win32,59.17159763315647,,,,,,982.8632999999523,47.0,1.0,982.8634000000952,47.0,,,,987.0415,987.5410999999048,986.5405999999048,987.0415,983.8737000000476,986.5405999999048,987.5412000000478,988.0420999999048,988.0420999999048,992.3110999999049,3120.0,992.3112000000476,5.0,992.3257000000476,1.0,14.0,44.0,4.0,1.0,1.6,0.3,Time
,,S26,1,,,anonymized,Serial_Dependence_U,2023.2.3,Win32,59.17159763315647,,,,,,992.326,193.0,1.0,992.3260999999046,193.0,,,,996.11,996.611,995.5955999999048,996.11,993.3282000000478,995.5955,996.611,997.1109000000952,997.111,1001.6780999999048,3848.0,1001.6782000000476,5.0,1001.6849000000954,1.0,15.0,45.0,2.0,1.0,1.2,0.3,Time
,,S26,1,,,anonymized,Serial_Dependence_U,2023.2.3,Win32,59.17159763315647,,,,,,1001.6850999999048,283.0,1.0,1001.6852999999522,283.0,,,,1005.6187999999524,1006.1127000000478,1005.1127999999522,1005.6187000000476,1002.6805999999048,1005.1127999999522,1006.1127000000478,1006.613,1006.6130999999046,1010.4150999999046,2953.0,1010.4150999999046,5.0,1010.4222000000476,1.0,16.0,46.0,8.0,1.0,1.4,0.7,Time
,,S26,1,,,anonymized,Serial_Dependence_U,2023.2.3,Win32,59.17159763315647,,,,,,1010.4225,89.0,1.0,1010.4225999999048,89.0,,,,1013.7985999999048,1014.2982000000478,1013.2840999999048,1013.7985999999048,1011.4162000000478,1013.2839000000952,1014.2982000000478,1014.8027000000478,1014.8027000000478,1018.0870999999046,2249.0,1018.0872000000478,5.0,1018.0879000000954,1.0,17.0,47.0,10.0,1.0,0.8,0.3,Time
,,S26,1,,,anonymized,Serial_Dependence_U,2023.2.3,Win32,59.17159763315647,,,,,,1018.0885999999048,233.0,1.0,1018.0889000000954,233.0,,,,1021.6687000000478,1022.1667999999524,1021.1525999999049,1021.6687000000478,1019.0847999999525,1021.1525,1022.1667999999524,1022.6667000000476,1022.6667999999524,1027.0680999999047,2952.0,1027.068200000048,5.0,1027.0749000000956,1.0,18.0,48.0,21.0,1.0,1.0,0.3,Time
,,S26,1,,,anonymized,Serial_Dependence_U,2023.2.3,Win32,59.17159763315647,,,,,,1027.0752000000475,76.0,1.0,1027.0752000000475,76.0,,,,1030.4580999999048,1030.9525999999048,1029.9527000000478,1030.4577999999524,1028.0874000000956,1029.9527000000478,1030.9527000000478,1031.4525999999048,1031.4525999999048,1034.9202000000478,3070.0,1034.9202000000478,5.0,1034.9204000000957,1.0,19.0,49.0,0.0,1.0,0.8,0.3,Time
,,S26,1,,,anonymized,Serial_Dependence_U,2023.2.3,Win32,59.17159763315647,,,,,,1034.9205999999049,163.0,1.0,1034.920700000048,163.0,,,,1038.5045999999047,1039.004700000048,1037.988,1038.5045999999047,1035.9212000000475,1037.9879000000956,1039.004700000048,1039.5045999999047,1039.5045999999047,1042.2387999999526,2707.0,1042.2387999999526,5.0,1042.2465000000002,1.0,20.0,50.0,11.0,1.0,1.0,0.3,Time
,,S26,1,,,anonymized,Serial_Dependence_U,2023.2.3,Win32,59.17159763315647,,,,,,1042.246700000048,244.0,1.0,1042.2467999999524,244.0,,,,1046.1902000000478,1046.6900999999048,1045.6772999999523,1046.1900999999048,1043.2392000000475,1045.6767999999524,1046.6902000000478,1047.1915,1047.1915999999048,1051.3102999999523,3635.0,1051.3105,5.0,1051.3334000000957,1.0,21.0,51.0,18.0,1.0,1.4,0.7,Time
,,S26,1,,,anonymized,Serial_Dependence_U,2023.2.3,Win32,59.17159763315647,,,,,,1051.333700000048,149.0,1.0,1051.3337999999524,149.0,,,,1054.6757999999525,1055.1755999999048,1054.1630999999047,1054.6757999999525,1052.3252999999524,1054.1630999999047,1055.1755999999048,1055.6775000000002,1055.6775999999047,1059.115200000048,2648.0,1059.1152999999524,5.0,1059.1332999999524,1.0,22.0,52.0,5.0,1.0,0.8,0.7,Time
,,S26,1,,,anonymized,Serial_Dependence_U,2023.2.3,Win32,59.17159763315647,,,,,,1059.1335999999048,246.0,1.0,1059.1337999999523,246.0,,,,1062.8800999999048,1063.3789000000954,1062.3785999999047,1062.88,1060.1445999999048,1062.3785999999047,1063.379,1063.8779000000957,1063.8779000000957,1069.0135000000002,3205.0,1069.0135000000002,5.0,1069.0212999999524,1.0,23.0,53.0,17.0,1.0,1.2,0.7,Time
,,S26,1,,,anonymized,Serial_Dependence_U,2023.2.3,Win32,59.17159763315647,,,,,,1069.0215,61.0,1.0,1069.0215999999048,61.0,,,,1072.3644000000954,1072.8682999999526,1071.848099999905,1072.3642999999524,1070.0157999999524,1071.8480000000002,1072.8684000000956,1073.3669000000957,1073.3670000000002,1076.8325000000002,2854.0,1076.8325999999047,5.0,1076.8412000000478,1.0,24.0,54.0,15.0,1.0,0.8,0.7,Time
,,S26,1,,,anonymized,Serial_Dependence_U,2023.2.3,Win32,59.17159763315647,,,,,,1076.8414000000955,107.0,1.0,1076.8414000000955,107.0,,,,1080.9679000000956,1081.4679000000956,1080.466700000048,1080.9679000000956,1077.8322999999525,1080.4665999999047,1081.4679000000956,1081.9702000000475,1081.9702999999524,1086.601,3604.0,1086.601,5.0,1086.6075,1.0,25.0,55.0,19.0,1.0,1.6,0.7,Time
,,S26,1,,,anonymized,Serial_Dependence_U,2023.2.3,Win32,59.17159763315647,,,,,,1086.6077999999525,164.0,1.0,1086.6079000000957,164.0,,,,1090.737599999905,1091.2385999999049,1090.237,1090.737599999905,1087.6032000000478,1090.2369000000956,1091.2385999999049,1091.7369000000956,1091.737,1095.704200000048,3279.0,1095.704200000048,5.0,1095.7115,1.0,26.0,56.0,9.0,1.0,1.6,0.7,Time
,,S26,1,,,anonymized,Serial_Dependence_U,2023.2.3,Win32,59.17159763315647,,,,,,1095.7115999999048,254.0,1.0,1095.7117000000478,254.0,,,,1099.4575999999047,1099.9547000000478,1098.9562000000478,1099.4574000000955,1096.722200000048,1098.9562000000478,1099.9547000000478,1100.4604000000954,1100.4605,1104.7949000000956,3502.0,1104.7950999999048,5.0,1104.8119000000954,1.0,27.0,57.0,7.0,1.0,1.2,0.7,Time
,,S26,1,,,anonymized,Serial_Dependence_U,2023.2.3,Win32,59.17159763315647,,,,,,1104.8120999999048,117.0,1.0,1104.8122000000478,117.0,,,,1108.9762999999523,1109.4755999999047,1108.4740999999049,1108.9762999999523,1105.8112000000478,1108.4740999999049,1109.475700000048,1109.9740999999049,1109.9740999999049,1114.0915000000002,3304.0,1114.0915000000002,5.0,1114.0997000000475,1.0,28.0,58.0,14.0,1.0,1.6,0.3,Time
,,S26,1,,,anonymized,Serial_Dependence_U,2023.2.3,Win32,59.17159763315647,,,,,,1114.0999000000954,352.0,1.0,1114.1,352.0,,,,1117.8599000000954,1118.3597000000475,1117.3435999999049,1117.8597999999524,1115.1110999999048,1117.3435000000002,1118.3597000000475,1118.86,1118.8600999999048,1122.3775,3067.0,1122.3775999999048,5.0,1122.3850000000002,1.0,29.0,59.0,27.0,1.0,1.2,0.7,Time
,,S26,1,,,anonymized,Serial_Dependence_U,2023.2.3,Win32,59.17159763315647,,,,,,1122.385200000048,300.0,2.0,1126.5432000000478,300.0,s,4.130400000095278,,1130.3295,1130.834,1129.8139000000956,1130.3294000000956,1127.5477999999523,1129.8137999999524,1130.834,1131.3307999999524,1131.3309000000954,1135.6979000000956,3877.0,1135.6979000000956,5.0,1135.7045,2.0,0.0,60.0,12.0,1.0,1.2,0.3,Time
,,S26,1,,,anonymized,Serial_Dependence_U,2023.2.3,Win32,59.17159763315647,,,,,,1135.7047000000478,53.0,2.0,1135.705200000048,53.0,,,,1139.9022000000475,1140.3995999999047,1139.385200000048,1139.9019000000956,1136.717,1139.3850999999047,1140.399700000048,1140.8995000000002,1140.8995999999047,1145.0000999999047,3503.0,1145.0000999999047,5.0,1145.0069000000956,2.0,1.0,61.0,24.0,1.0,1.6,0.3,Time
,,S26,1,,,anonymized,Serial_Dependence_U,2023.2.3,Win32,59.17159763315647,,,,,,1145.0070999999048,1.0,2.0,1145.0072000000478,1.0,,,,1149.203200000048,1149.7015999999048,1148.6912999999524,1149.2030000000002,1146.0194000000954,1148.6912000000475,1149.7015999999048,1150.2027000000478,1150.2027999999525,1155.7762999999525,4949.0,1155.7762999999525,5.0,1155.7830999999048,2.0,2.0,62.0,4.0,1.0,1.6,0.3,Time
,,S26,1,,,anonymized,Serial_Dependence_U,2023.2.3,Win32,59.17159763315647,,,,,,1155.7832999999523,160.0,2.0,1155.7832999999523,160.0,,,,1159.7557999999524,1160.2542000000478,1159.2540999999048,1159.755700000048,1156.7917999999524,1159.2540999999048,1160.2542000000478,1160.7555000000002,1160.7555999999047,1164.3985000000002,2704.0,1164.3985999999047,5.0,1164.4145999999048,2.0,3.0,63.0,23.0,1.0,1.4,0.3,Time
,,S26,1,,,anonymized,Serial_Dependence_U,2023.2.3,Win32,59.17159763315647,,,,,,1164.4147999999525,23.0,2.0,1164.4147999999525,23.0,,,,1168.3979000000954,1168.8960000000002,1167.8770999999049,1168.3977000000475,1165.408,1167.8769000000957,1168.8960000000002,1169.3902999999525,1169.3904000000955,1173.2807999999525,2909.0,1173.2807999999525,5.0,1173.2870999999047,2.0,4.0,64.0,13.0,1.0,1.4,0.3,Time
,,S26,1,,,anonymized,Serial_Dependence_U,2023.2.3,Win32,59.17159763315647,,,,,,1173.2874000000954,351.0,2.0,1173.2874000000954,351.0,,,,1176.8614000000955,1177.3589000000954,1176.3440999999048,1176.8612999999525,1174.277,1176.3440999999048,1177.3589000000954,1177.8590000000002,1177.8590000000002,1182.111599999905,3342.0,1182.111599999905,5.0,1182.126200000048,2.0,5.0,65.0,11.0,1.0,1.0,0.3,Time
,,S26,1,,,anonymized,Serial_Dependence_U,2023.2.3,Win32,59.17159763315647,,,,,,1182.1264000000956,141.0,2.0,1182.1265,141.0,,,,1186.0842000000478,1186.5837999999524,1185.5814000000955,1186.0842000000478,1183.1470000000002,1185.5812000000478,1186.5837999999524,1187.0842000000478,1187.0842000000478,1191.7725999999047,3869.0,1191.7727000000475,5.0,1191.794,2.0,6.0,66.0,8.0,1.0,1.4,0.7,Time
,,S26,1,,,anonymized,Serial_Dependence_U,2023.2.3,Win32,59.17159763315647,,,,,,1191.7944000000955,45.0,2.0,1191.7944000000955,45.0,,,,1195.7505999999048,1196.2469000000956,1195.2362000000478,1195.7505999999048,1192.799200000048,1195.2360999999048,1196.2469000000956,1196.7494000000954,1196.7495,1200.7910000000002,3406.0,1200.791200000048,5.0,1200.8099000000957,2.0,7.0,67.0,18.0,1.0,1.4,0.7,Time
,,S26,1,,,anonymized,Serial_Dependence_U,2023.2.3,Win32,59.17159763315647,,,,,,1200.810200000048,336.0,2.0,1200.810200000048,336.0,,,,1204.9662000000478,1205.4665000000002,1204.4537000000478,1204.9662000000478,1201.8049000000956,1204.4537000000478,1205.4665000000002,1205.9692000000475,1205.9692000000475,1211.0530999999048,4031.0,1211.0532999999523,5.0,1211.0775,2.0,8.0,68.0,9.0,1.0,1.6,0.7,Time
,,S26,1,,,anonymized,Serial_Dependence_U,2023.2.3,Win32,59.17159763315647,,,,,,1211.0777000000478,72.0,2.0,1211.0779000000955,72.0,,,,1214.4690999999048,1214.9699000000955,1213.9554000000956,1214.469,1212.0849000000956,1213.955200000048,1214.97,1215.469700000048,1215.469700000048,1219.3539000000956,3463.0,1219.354,5.0,1219.360700000048,2.0,9.0,69.0,20.0,1.0,0.8,0.3,Time
,,S26,1,,,anonymized,Serial_Dependence_U,2023.2.3,Win32,59.17159763315647,,,,,,1219.361,185.0,2.0,1219.361,185.0,,,,1223.3242999999525,1223.8225999999047,1222.8214000000955,1223.3242999999525,1220.353700000048,1222.8212999999523,1223.8225999999047,1224.322700000048,1224.322700000048,1227.3227999999524,2116.0,1227.3227999999524,5.0,1227.3294000000956,2.0,10.0,70.0,3.0,1.0,1.4,0.3,Time
,,S26,1,,,anonymized,Serial_Dependence_U,2023.2.3,Win32,59.17159763315647,,,,,,1227.3295,254.0,2.0,1227.3295999999048,254.0,,,,1231.4764000000955,1231.974200000048,1230.9574000000955,1231.4762999999523,1228.324700000048,1230.9574000000955,1231.9742999999526,1232.4752000000478,1232.4755000000002,1240.110700000048,5736.0,1240.1107999999524,5.0,1240.123,2.0,11.0,71.0,19.0,1.0,1.6,0.7,Time
,,S26,1,,,anonymized,Serial_Dependence_U,2023.2.3,Win32,59.17159763315647,,,,,,1240.1232000000475,117.0,2.0,1240.1232999999525,117.0,,,,1244.0820999999048,1244.5770000000002,1243.5795999999048,1244.082,1241.1432999999524,1243.5794000000956,1244.5770000000002,1245.0789000000957,1245.0790000000002,1249.6955,4223.0,1249.6955,5.0,1249.7029000000955,2.0,12.0,72.0,28.0,1.0,1.4,0.7,Time
,,S26,1,,,anonymized,Serial_Dependence_U,2023.2.3,Win32,59.17159763315647,,,,,,1249.703099999905,91.0,2.0,1249.703200000048,91.0,,,,1253.0990000000002,1253.5965999999048,1252.5815000000002,1253.0989000000957,1250.7165000000002,1252.5812999999523,1253.5965999999048,1254.1002999999523,1254.1004000000955,1257.157200000048,2795.0,1257.1572999999526,5.0,1257.1719000000955,2.0,13.0,73.0,10.0,1.0,0.8,0.3,Time
,,S26,1,,,anonymized,Serial_Dependence_U,2023.2.3,Win32,59.17159763315647,,,,,,1257.1720999999047,135.0,2.0,1257.1722000000475,135.0,,,,1260.9547000000478,1261.4490999999048,1260.448,1260.9545999999048,1258.1857999999525,1260.4479000000956,1261.4492000000478,1261.949,1261.9492000000478,1265.7895,3333.0,1265.7895,5.0,1265.7960999999048,2.0,14.0,74.0,2.0,1.0,1.2,0.3,Time
,,S26,1,,,anonymized,Serial_Dependence_U,2023.2.3,Win32,59.17159763315647,,,,,,1265.7962000000475,276.0,2.0,1265.7964000000954,276.0,,,,1269.3732000000475,1269.8667999999525,1268.8565,1269.3732000000475,1266.805700000048,1268.8565,1269.8667999999525,1270.3667999999525,1270.3667999999525,1273.8919000000956,2904.0,1273.8919000000956,5.0,1273.9034000000954,2.0,15.0,75.0,6.0,1.0,1.0,0.7,Time
,,S26,1,,,anonymized,Serial_Dependence_U,2023.2.3,Win32,59.17159763315647,,,,,,1273.9035999999048,57.0,2.0,1273.9037999999523,57.0,,,,1277.3027999999524,1277.8022999999523,1276.7944000000955,1277.302700000048,1274.918700000048,1276.7942000000478,1277.8022999999523,1278.3032000000478,1278.3032000000478,1287.2055999999047,3409.0,1287.2057000000475,5.0,1287.213099999905,2.0,16.0,76.0,0.0,1.0,0.8,0.3,Time
,,S26,1,,,anonymized,Serial_Dependence_U,2023.2.3,Win32,59.17159763315647,,,,,,1287.2132999999524,141.0,2.0,1287.2134000000956,141.0,,,,1291.3950999999047,1291.8904000000955,1290.8792999999523,1291.3950000000002,1288.2282999999525,1290.8792000000478,1291.8904000000955,1292.390599999905,1292.3907999999524,1295.4972999999525,2753.0,1295.4972999999525,5.0,1295.5040999999048,2.0,17.0,77.0,29.0,1.0,1.6,0.7,Time
,,S26,1,,,anonymized,Serial_Dependence_U,2023.2.3,Win32,59.17159763315647,,,,,,1295.5042999999523,291.0,2.0,1295.5044000000955,291.0,,,,1299.7160999999048,1300.2092999999525,1299.199700000048,1299.716,1296.5314000000956,1299.1994000000957,1300.2092999999525,1300.7099000000956,1300.71,1305.2944000000955,3768.0,1305.2945000000002,5.0,1305.3019000000954,2.0,18.0,78.0,14.0,1.0,1.6,0.3,Time
,,S26,1,,,anonymized,Serial_Dependence_U,2023.2.3,Win32,59.17159763315647,,,,,,1305.3020999999048,213.0,2.0,1305.3022000000478,213.0,,,,1308.8650999999047,1309.3617999999524,1308.3505000000002,1308.8650000000002,1306.3164000000954,1308.3504000000955,1309.3617999999524,1309.861700000048,1309.8617999999524,1313.938700000048,3582.0,1313.9387999999524,5.0,1313.9520999999047,2.0,19.0,79.0,16.0,1.0,1.0,0.7,Time
,,S26,1,,,anonymized,Serial_Dependence_U,2023.2.3,Win32,59.17159763315647,,,,,,1313.9522999999524,128.0,2.0,1313.9522999999524,128.0,,,,1317.4985,1317.9964000000955,1316.9879000000956,1317.4984000000954,1314.9527999999525,1316.9877999999524,1317.9964000000955,1318.497700000048,1318.4977999999523,1322.3185999999048,3019.0,1322.3187999999525,5.0,1322.3360000000002,2.0,20.0,80.0,26.0,1.0,1.0,0.7,Time
,,S26,1,,,anonymized,Serial_Dependence_U,2023.2.3,Win32,59.17159763315647,,,,,,1322.3364000000954,306.0,2.0,1322.3365,306.0,,,,1325.6894000000957,1326.1875000000002,1325.1725999999048,1325.6892000000478,1323.3399000000954,1325.1725999999048,1326.1875000000002,1326.6872999999523,1326.6874000000955,1330.2757999999524,2533.0,1330.2759000000956,5.0,1330.2884000000954,2.0,21.0,81.0,5.0,1.0,0.8,0.7,Time
,,S26,1,,,anonymized,Serial_Dependence_U,2023.2.3,Win32,59.17159763315647,,,,,,1330.2885999999048,32.0,2.0,1330.2885999999048,32.0,,,,1334.0412999999523,1334.5357999999524,1333.5239000000954,1334.041200000048,1331.2844000000955,1333.5239000000954,1334.5357999999524,1335.0407999999525,1335.0410000000002,1338.9955000000002,3568.0,1338.9955000000002,5.0,1339.0084000000954,2.0,22.0,82.0,27.0,1.0,1.2,0.7,Time
,,S26,1,,,anonymized,Serial_Dependence_U,2023.2.3,Win32,59.17159763315647,,,,,,1339.0085999999048,318.0,2.0,1339.0087000000478,318.0,,,,1342.3565,1342.8547000000478,1341.8440999999048,1342.3564000000956,1340.0062000000478,1341.844,1342.8547000000478,1343.3549000000955,1343.3550000000002,1347.4782000000478,3244.0,1347.4782999999525,5.0,1347.4900000000002,2.0,23.0,83.0,25.0,1.0,0.8,0.7,Time
,,S26,1,,,anonymized,Serial_Dependence_U,2023.2.3,Win32,59.17159763315647,,,,,,1347.4902999999524,217.0,2.0,1347.4902999999524,217.0,,,,1351.2444000000955,1351.7395,1350.7289000000956,1351.2442999999523,1348.4937999999524,1350.7289000000956,1351.7395,1352.228,1352.2280999999048,1356.5912999999523,3139.0,1356.5914000000955,5.0,1356.5984000000956,2.0,24.0,84.0,7.0,1.0,1.2,0.7,Time
,,S26,1,,,anonymized,Serial_Dependence_U,2023.2.3,Win32,59.17159763315647,,,,,,1356.5985999999048,69.0,2.0,1356.5987000000478,69.0,,,,1360.198700000048,1360.692200000048,1359.6822000000475,1360.198599999905,1357.614,1359.6820999999047,1360.6922999999524,1361.1922999999524,1361.1922999999524,1364.703200000048,2918.0,1364.7032999999524,5.0,1364.7240999999049,2.0,25.0,85.0,1.0,1.0,1.0,0.3,Time
,,S26,1,,,anonymized,Serial_Dependence_U,2023.2.3,Win32,59.17159763315647,,,,,,1364.7242999999526,331.0,2.0,1364.7244000000956,331.0,,,,1368.0800999999049,1368.5772999999524,1367.5679000000955,1368.0800000000002,1365.7344000000955,1367.5677999999525,1368.5772999999524,1369.0785,1369.0785999999048,1372.6682000000478,2900.0,1372.6682000000478,5.0,1372.6750000000002,2.0,26.0,86.0,15.0,1.0,0.8,0.7,Time
,,S26,1,,,anonymized,Serial_Dependence_U,2023.2.3,Win32,59.17159763315647,,,,,,1372.675200000048,359.0,2.0,1372.675200000048,359.0,,,,1376.2669000000956,1376.7632000000478,1375.7635000000002,1376.2667999999524,1373.7015,1375.7635000000002,1376.7632999999526,1377.2630999999049,1377.2630999999049,1382.0205999999048,2685.0,1382.0207000000478,5.0,1382.0275999999049,2.0,27.0,87.0,21.0,1.0,1.0,0.3,Time
,,S26,1,,,anonymized,Serial_Dependence_U,2023.2.3,Win32,59.17159763315647,,,,,,1382.0279000000955,288.0,2.0,1382.0280999999047,288.0,,,,1385.8397999999524,1386.3380000000002,1385.3232000000478,1385.8395999999047,1383.0390000000002,1385.323,1386.3380000000002,1386.8375,1386.8375,1390.9357999999525,3541.0,1390.9357999999525,5.0,1390.9482999999525,2.0,28.0,88.0,22.0,1.0,1.2,0.3,Time
,,S26,1,,,anonymized,Serial_Dependence_U,2023.2.3,Win32,59.17159763315647,,,,,,1390.948599999905,219.0,2.0,1390.948700000048,219.0,,,,1394.7189000000956,1395.2184000000957,1394.2074000000955,1394.718700000048,1391.9680999999048,1394.2074000000955,1395.2184000000957,1395.7210000000002,1395.7210999999047,1399.9952999999523,3483.0,1399.9955000000002,5.0,1400.0114000000956,2.0,29.0,89.0,17.0,1.0,1.2,0.7,Time
,,S26,1,,,anonymized,Serial_Dependence_U,2023.2.3,Win32,59.17159763315647,,,,,,1400.0115999999048,335.0,3.0,1750.4045,335.0,s,350.3740999999048,,1753.7994000000956,1754.299099999905,1753.282200000048,1753.7992999999524,1751.4137999999523,1753.2820999999049,1754.299099999905,1754.7987999999525,1754.7987999999525,1758.8325999999047,3117.0,1758.832700000048,5.0,1758.8410999999048,3.0,0.0,90.0,0.0,1.0,0.8,0.3,Time
,,S26,1,,,anonymized,Serial_Dependence_U,2023.2.3,Win32,59.17159763315647,,,,,,1758.8412999999523,153.0,3.0,1758.8419000000956,153.0,,,,1762.9835,1763.4834000000956,1762.4667999999524,1762.9835,1759.8330999999048,1762.4667999999524,1763.4835,1763.9835999999048,1763.9835999999048,1768.7197999999526,3134.0,1768.7199000000955,5.0,1768.727,3.0,1.0,91.0,19.0,1.0,1.6,0.7,Time
,,S26,1,,,anonymized,Serial_Dependence_U,2023.2.3,Win32,59.17159763315647,,,,,,1768.7270999999048,175.0,3.0,1768.7272000000478,175.0,,,,1772.2862999999525,1772.7857999999524,1771.7695999999048,1772.2862000000478,1769.735700000048,1771.7695,1772.7859000000956,1773.286,1773.286,1777.4904000000954,3414.0,1777.4905,5.0,1777.5122999999523,3.0,2.0,92.0,6.0,1.0,1.0,0.7,Time
,,S26,1,,,anonymized,Serial_Dependence_U,2023.2.3,Win32,59.17159763315647,,,,,,1777.5127000000475,20.0,3.0,1777.5127999999524,20.0,,,,1781.4744000000956,1781.9722999999524,1780.9575999999047,1781.4742999999526,1778.521200000048,1780.9575999999047,1781.9724000000956,1782.4605999999048,1782.4607000000478,1786.9757999999524,3696.0,1786.976,5.0,1786.9985999999049,3.0,3.0,93.0,28.0,1.0,1.4,0.7,Time
,,S26,1,,,anonymized,Serial_Dependence_U,2023.2.3,Win32,59.17159763315647,,,,,,1786.9989000000955,292.0,3.0,1786.9990999999047,292.0,,,,1790.5435000000002,1791.0424000000955,1790.0412999999523,1790.5434000000955,1788.0092000000477,1790.0412999999523,1791.0425000000002,1791.5422000000478,1791.5422999999523,1796.0114000000956,3437.0,1796.0115,5.0,1796.0242999999523,3.0,4.0,94.0,26.0,1.0,1.0,0.7,Time
,,S26,1,,,anonymized,Serial_Dependence_U,2023.2.3,Win32,59.17159763315647,,,,,,1796.0245000000002,156.0,3.0,1796.0245000000002,156.0,,,,1800.1777999999524,1800.6770999999048,1799.6627999999523,1800.1777999999524,1797.0287000000478,1799.6627999999523,1800.6770999999048,1801.1780999999048,1801.1782000000478,1804.4615,2568.0,1804.461700000048,5.0,1804.4690999999048,3.0,5.0,95.0,9.0,1.0,1.6,0.7,Time
,,S26,1,,,anonymized,Serial_Dependence_U,2023.2.3,Win32,59.17159763315647,,,,,,1804.4692999999525,27.0,3.0,1804.4694000000957,27.0,,,,1807.7965,1808.2992999999524,1807.296,1807.7965,1805.462,1807.296,1808.299400000096,1808.795700000048,1808.795700000048,1812.314900000096,2818.0,1812.314900000096,5.0,1812.3214000000955,3.0,6.0,96.0,15.0,1.0,0.8,0.7,Time
,,S26,1,,,anonymized,Serial_Dependence_U,2023.2.3,Win32,59.17159763315647,,,,,,1812.3215999999047,293.0,3.0,1812.321700000048,293.0,,,,1815.7149000000957,1816.2155,1815.2005999999049,1815.7149000000957,1813.3309000000957,1815.2005,1816.2155999999047,1816.7155,1816.7155999999047,1820.551700000048,2857.0,1820.5519000000957,5.0,1820.5699000000957,3.0,7.0,97.0,10.0,1.0,0.8,0.3,Time
,,S26,1,,,anonymized,Serial_Dependence_U,2023.2.3,Win32,59.17159763315647,,,,,,1820.570200000048,143.0,3.0,1820.570400000096,143.0,,,,1824.1340999999047,1824.6342999999524,1823.621599999905,1824.1340999999047,1821.5837999999524,1823.6215,1824.6342999999524,1825.1332999999524,1825.1332999999524,1829.5517999999524,3833.0,1829.5517999999524,5.0,1829.5582999999524,3.0,8.0,98.0,16.0,1.0,1.0,0.7,Time
,,S26,1,,,anonymized,Serial_Dependence_U,2023.2.3,Win32,59.17159763315647,,,,,,1829.5585,241.0,3.0,1829.5585,241.0,,,,1833.5360999999048,1834.0399000000957,1833.0245999999047,1833.5360999999048,1830.554200000048,1833.0245,1834.04,1834.536700000048,1834.536700000048,1838.520700000048,3418.0,1838.5207999999525,5.0,1838.5272999999524,3.0,9.0,99.0,13.0,1.0,1.4,0.3,Time
,,S26,1,,,anonymized,Serial_Dependence_U,2023.2.3,Win32,59.17159763315647,,,,,,1838.5275,120.0,3.0,1838.5275,120.0,,,,1842.7225999999048,1843.224,1842.208,1842.7225999999048,1839.5415,1842.207900000096,1843.224,1843.7222999999524,1843.7222999999524,1847.4249000000957,3237.0,1847.425,5.0,1847.4312999999524,3.0,10.0,100.0,4.0,1.0,1.6,0.3,Time
,,S26,1,,,anonymized,Serial_Dependence_U,2023.2.3,Win32,59.17159763315647,,,,,,1847.4315,17.0,3.0,1847.4315999999048,17.0,,,,1850.761200000048,1851.2574000000957,1850.2577999999528,1850.761200000048,1848.4267999999524,1850.257700000048,1851.2574000000957,1851.758,1851.758,1854.842900000096,2623.0,1854.8430999999048,5.0,1854.857099999905,3.0,11.0,101.0,25.0,1.0,0.8,0.7,Time
,,S26,1,,,anonymized,Serial_Dependence_U,2023.2.3,Win32,59.17159763315647,,,,,,1854.8572999999524,328.0,3.0,1854.857400000096,328.0,,,,1859.045200000048,1859.544,1858.5430999999048,1859.0450999999048,1855.877400000096,1858.5430999999048,1859.544,1860.0435,1860.0435,1863.327200000048,2795.0,1863.327200000048,5.0,1863.3347999999528,3.0,12.0,102.0,14.0,1.0,1.6,0.3,Time
,,S26,1,,,anonymized,Serial_Dependence_U,2023.2.3,Win32,59.17159763315647,,,,,,1863.335,209.0,3.0,1863.3350999999047,209.0,,,,1867.2954000000957,1867.7950999999048,1866.779,1867.2954000000957,1864.3449000000955,1866.779,1867.7950999999048,1868.2964000000957,1868.2964000000957,1872.8635999999049,3981.0,1872.863700000048,5.0,1872.8700999999048,3.0,13.0,103.0,8.0,1.0,1.4,0.7,Time
,,S26,1,,,anonymized,Serial_Dependence_U,2023.2.3,Win32,59.17159763315647,,,,,,1872.8702999999523,125.0,3.0,1872.8704000000955,125.0,,,,1876.834,1877.3354000000957,1876.3327999999524,1876.8337999999524,1873.8644000000957,1876.332700000048,1877.3355,1877.837,1877.8370999999047,1881.592200000048,3485.0,1881.5922999999525,5.0,1881.6040999999047,3.0,14.0,104.0,3.0,1.0,1.4,0.3,Time
,,S26,1,,,anonymized,Serial_Dependence_U,2023.2.3,Win32,59.17159763315647,,,,,,1881.6042999999524,340.0,3.0,1881.6042999999524,340.0,,,,1885.2019000000955,1885.7,1884.6995,1885.2017999999523,1882.6069000000955,1884.6994000000957,1885.7,1886.2015999999048,1886.201700000048,1890.018,3285.0,1890.018,5.0,1890.024700000048,3.0,15.0,105.0,21.0,1.0,1.0,0.3,Time
,,S26,1,,,anonymized,Serial_Dependence_U,2023.2.3,Win32,59.17159763315647,,,,,,1890.025,220.0,3.0,1890.025,220.0,,,,1893.3735999999049,1893.8690999999048,1892.8705999999047,1893.3735,1891.034900000096,1892.8705,1893.8690999999048,1894.369,1894.3690999999048,1897.9369000000956,2832.0,1897.937,5.0,1897.9439000000957,3.0,16.0,106.0,5.0,1.0,0.8,0.7,Time
,,S26,1,,,anonymized,Serial_Dependence_U,2023.2.3,Win32,59.17159763315647,,,,,,1897.944099999905,14.0,3.0,1897.9442999999524,14.0,,,,1901.5240999999048,1902.005700000048,1901.0067999999524,1901.5240999999048,1898.9395999999049,1901.0067999999524,1902.005700000048,1902.5049000000956,1902.5049000000956,1907.1235999999049,3435.0,1907.1235999999049,5.0,1907.1305999999047,3.0,17.0,107.0,11.0,1.0,1.0,0.3,Time
,,S26,1,,,anonymized,Serial_Dependence_U,2023.2.3,Win32,59.17159763315647,,,,,,1907.1307999999524,44.0,3.0,1907.1307999999524,44.0,,,,1910.8770999999049,1911.374200000048,1910.3734000000957,1910.877,1908.1399000000956,1910.3734000000957,1911.374200000048,1911.8750999999047,1911.8750999999047,1915.8939000000955,3333.0,1915.8940999999047,5.0,1915.9125999999048,3.0,18.0,108.0,17.0,1.0,1.2,0.7,Time
,,S26,1,,,anonymized,Serial_Dependence_U,2023.2.3,Win32,59.17159763315647,,,,,,1915.913,139.0,3.0,1915.9130999999047,139.0,,,,1919.6955999999047,1920.195,1919.175700000048,1919.695200000048,1916.9112999999525,1919.175700000048,1920.195,1920.6935,1920.6935,1923.5297999999525,2128.0,1923.5299000000955,5.0,1923.5469000000955,3.0,19.0,109.0,12.0,1.0,1.2,0.3,Time
,,S26,1,,,anonymized,Serial_Dependence_U,2023.2.3,Win32,59.17159763315647,,,,,,1923.5470999999047,67.0,3.0,1923.5470999999047,67.0,,,,1926.9277999999524,1927.4285,1926.4122999999524,1926.927700000048,1924.5470000000005,1926.412200000048,1927.4285,1927.9279000000956,1927.928,1931.0795999999048,2365.0,1931.0795999999048,5.0,1931.0860999999047,3.0,20.0,110.0,20.0,1.0,0.8,0.3,Time
,,S26,1,,,anonymized,Serial_Dependence_U,2023.2.3,Win32,59.17159763315647,,,,,,1931.0864000000956,76.0,3.0,1931.0864000000956,76.0,,,,1935.0529000000956,1935.546700000048,1934.5305999999048,1935.0527999999524,1932.096,1934.5305999999048,1935.546700000048,1936.0470000000005,1936.0470999999047,1939.232,2971.0,1939.232,5.0,1939.238700000048,3.0,21.0,111.0,18.0,1.0,1.4,0.7,Time
,,S26,1,,,anonymized,Serial_Dependence_U,2023.2.3,Win32,59.17159763315647,,,,,,1939.2387999999528,120.0,3.0,1939.239,120.0,,,,1942.9992999999524,1943.498700000048,1942.4847999999524,1942.9992999999524,1940.251400000096,1942.484700000048,1943.4987999999523,1943.9994000000956,1943.9995,1948.4587999999524,3865.0,1948.4589000000956,5.0,1948.4762999999523,3.0,22.0,112.0,27.0,1.0,1.2,0.7,Time
,,S26,1,,,anonymized,Serial_Dependence_U,2023.2.3,Win32,59.17159763315647,,,,,,1948.4765999999047,214.0,3.0,1948.476700000048,214.0,,,,1952.6235,1953.1190999999048,1952.1069000000955,1952.623299999953,1949.4732999999528,1952.1067999999525,1953.119200000048,1953.6182999999528,1953.6182999999528,1957.7260999999048,3551.0,1957.726200000048,5.0,1957.732900000096,3.0,23.0,113.0,29.0,1.0,1.6,0.7,Time
,,S26,1,,,anonymized,Serial_Dependence_U,2023.2.3,Win32,59.17159763315647,,,,,,1957.733200000048,32.0,3.0,1957.733200000048,32.0,,,,1961.5230000000004,1962.0215999999048,1961.0137999999529,1961.522799999953,1958.7395000000004,1961.013599999905,1962.021700000048,1962.5214000000956,1962.5215,1965.7262999999523,2657.0,1965.7264000000955,5.0,1965.7409000000955,3.0,24.0,114.0,2.0,1.0,1.2,0.3,Time
,,S26,1,,,anonymized,Serial_Dependence_U,2023.2.3,Win32,59.17159763315647,,,,,,1965.7412999999528,104.0,3.0,1965.741400000096,104.0,,,,1969.9475,1970.440400000096,1969.430900000096,1969.9474000000955,1966.7575,1969.4307999999528,1970.440400000096,1970.940200000048,1970.940299999952,1974.6134000000957,2983.0,1974.6135,5.0,1974.6205,3.0,25.0,115.0,24.0,1.0,1.6,0.3,Time
,,S26,1,,,anonymized,Serial_Dependence_U,2023.2.3,Win32,59.17159763315647,,,,,,1974.620900000096,326.0,3.0,1974.6210000000003,326.0,,,,1978.197700000048,1978.692900000096,1977.6919000000955,1978.1975999999047,1975.627400000096,1977.6917999999523,1978.692900000096,1979.1915999999048,1979.1915999999048,1982.8262999999529,2912.0,1982.826400000096,5.0,1982.833599999905,3.0,26.0,116.0,1.0,1.0,1.0,0.3,Time
,,S26,1,,,anonymized,Serial_Dependence_U,2023.2.3,Win32,59.17159763315647,,,,,,1982.833700000048,114.0,3.0,1982.8339000000956,114.0,,,,1986.801599999905,1987.294900000096,1986.3007999999525,1986.801599999905,1983.8295,1986.300700000048,1987.294900000096,1987.7835,1987.783599999905,1992.279400000096,3850.0,1992.2795000000003,5.0,1992.2865999999049,3.0,27.0,117.0,23.0,1.0,1.4,0.3,Time
,,S26,1,,,anonymized,Serial_Dependence_U,2023.2.3,Win32,59.17159763315647,,,,,,1992.2867999999523,159.0,3.0,1992.2869000000956,159.0,,,,1996.033599999905,1996.530700000048,1995.5192999999524,1996.0335,1993.287200000048,1995.519200000048,1996.5307999999525,1997.019,1997.019,2000.6207999999529,3015.0,2000.6207999999529,5.0,2000.627,3.0,28.0,118.0,7.0,1.0,1.2,0.7,Time
,,S26,1,,,anonymized,Serial_Dependence_U,2023.2.3,Win32,59.17159763315647,,,,,,2000.6272999999528,163.0,3.0,2000.6272999999528,163.0,,,,2004.4065000000005,2004.899700000048,2003.905099999905,2004.4065000000005,2001.631599999905,2003.905,2004.8997999999528,2005.4005,2005.400700000048,2008.875900000096,2880.0,2008.876099999905,5.0,2008.8985,3.0,29.0,119.0,22.0,1.0,1.2,0.3,Time
,,S26,1,,,anonymized,Serial_Dependence_U,2023.2.3,Win32,59.17159763315647,,,,,,2008.898700000048,187.0,4.0,2402.639799999952,187.0,s,393.7139000000957,,2406.392299999952,2406.890700000048,2405.8907999999524,2406.3922000000475,2403.6435999999044,2405.8907999999524,2406.890700000048,2407.3917000000474,2407.391799999952,2411.8255999999046,3854.0,2411.825700000048,5.0,2411.832200000048,4.0,0.0,120.0,27.0,1.0,1.2,0.7,Time
,,S26,1,,,anonymized,Serial_Dependence_U,2023.2.3,Win32,59.17159763315647,,,,,,2411.8325,153.0,4.0,2411.8330999999043,153.0,,,,2415.3795,2415.878299999952,2414.877400000096,2415.3794000000958,2412.842799999952,2414.8772999999524,2415.878400000095,2416.3780999999044,2416.3782000000474,2420.3785999999045,3438.0,2420.3787000000475,5.0,2420.3857999999523,4.0,1.0,121.0,16.0,1.0,1.0,0.7,Time
,,S26,1,,,anonymized,Serial_Dependence_U,2023.2.3,Win32,59.17159763315647,,,,,,2420.386,111.0,4.0,2420.3860999999047,111.0,,,,2424.3655999999046,2424.8625,2423.851,2424.3655,2421.3807000000475,2423.8509000000954,2424.8625,2425.3630999999045,2425.3632000000475,2428.313799999952,2451.0,2428.313900000095,5.0,2428.3205,4.0,2.0,122.0,23.0,1.0,1.4,0.3,Time
,,S26,1,,,anonymized,Serial_Dependence_U,2023.2.3,Win32,59.17159763315647,,,,,,2428.3207000000475,333.0,4.0,2428.320799999952,333.0,,,,2431.9004000000955,2432.4032000000475,2431.383400000095,2431.9004000000955,2429.3165999999046,2431.383400000095,2432.4032000000475,2432.899200000048,2432.899200000048,2436.5492999999524,2966.0,2436.5492999999524,5.0,2436.556,4.0,3.0,123.0,1.0,1.0,1.0,0.3,Time
,,S26,1,,,anonymized,Serial_Dependence_U,2023.2.3,Win32,59.17159763315647,,,,,,2436.5560999999047,298.0,4.0,2436.556200000048,298.0,,,,2440.7174000000955,2441.2167999999524,2440.202299999952,2440.7174000000955,2437.5680999999045,2440.2022000000475,2441.2169000000954,2441.7177000000474,2441.717799999952,2445.9714000000954,3675.0,2445.9715999999044,5.0,2445.9822999999524,4.0,4.0,124.0,19.0,1.0,1.6,0.7,Time
,,S26,1,,,anonymized,Serial_Dependence_U,2023.2.3,Win32,59.17159763315647,,,,,,2445.9825,283.0,4.0,2445.9825999999043,283.0,,,,2450.1542999999524,2450.654700000048,2449.6527000000474,2450.1542999999524,2446.9874000000955,2449.6527000000474,2450.654799999952,2451.1557999999523,2451.1557999999523,2455.5045,3697.0,2455.5045999999047,5.0,2455.5110999999047,4.0,5.0,125.0,4.0,1.0,1.6,0.3,Time
,,S26,1,,,anonymized,Serial_Dependence_U,2023.2.3,Win32,59.17159763315647,,,,,,2455.5112999999524,298.0,4.0,2455.5112999999524,298.0,,,,2459.6892000000475,2460.189900000096,2459.1724000000954,2459.6892000000475,2456.5064000000957,2459.1724000000954,2460.19,2460.689,2460.689099999905,2464.825299999952,3303.0,2464.825400000095,5.0,2464.8434000000952,4.0,6.0,126.0,24.0,1.0,1.6,0.3,Time
,,S26,1,,,anonymized,Serial_Dependence_U,2023.2.3,Win32,59.17159763315647,,,,,,2464.843700000048,293.0,4.0,2464.843700000048,293.0,,,,2468.224900000095,2468.7252999999523,2467.723799999952,2468.224900000095,2465.8590999999046,2467.723799999952,2468.7254000000958,2469.2255999999047,2469.225700000048,2472.8092000000474,2844.0,2472.809299999952,5.0,2472.815799999952,4.0,7.0,127.0,0.0,1.0,0.8,0.3,Time
,,S26,1,,,anonymized,Serial_Dependence_U,2023.2.3,Win32,59.17159763315647,,,,,,2472.816,135.0,4.0,2472.816,135.0,,,,2476.795799999952,2477.293900000095,2476.2822000000474,2476.7955999999044,2473.811,2476.2820999999044,2477.293900000095,2477.7945,2477.7945999999047,2481.2287000000474,3104.0,2481.2287000000474,5.0,2481.235299999952,4.0,8.0,128.0,3.0,1.0,1.4,0.3,Time
,,S26,1,,,anonymized,Serial_Dependence_U,2023.2.3,Win32,59.17159763315647,,,,,,2481.235400000095,237.0,4.0,2481.2355999999045,237.0,,,,2484.982400000096,2485.4785999999044,2484.4639000000952,2484.9822999999524,2482.229400000095,2484.463799999952,2485.4785999999044,2485.979,2485.979,2489.3827000000474,2936.0,2489.382799999952,5.0,2489.3985,4.0,9.0,129.0,7.0,1.0,1.2,0.7,Time
,,S26,1,,,anonymized,Serial_Dependence_U,2023.2.3,Win32,59.17159763315647,,,,,,2489.3987000000475,80.0,4.0,2489.3987000000475,80.0,,,,2493.365,2493.8662999999524,2492.8492000000474,2493.365,2490.4134000000954,2492.8492000000474,2493.8662999999524,2494.3652000000475,2494.3652000000475,2508.811,3902.0,2508.811,5.0,2508.8247000000474,4.0,10.0,130.0,18.0,1.0,1.4,0.7,Time
,,S26,1,,,anonymized,Serial_Dependence_U,2023.2.3,Win32,59.17159763315647,,,,,,2508.824900000095,282.0,4.0,2508.824900000095,282.0,,,,2512.8202000000474,2513.3195999999048,2512.309799999952,2512.8200999999044,2509.835799999952,2512.3097000000475,2513.3195999999048,2513.8195999999048,2513.8195999999048,2517.5065999999047,3413.0,2517.506700000048,5.0,2517.528,4.0,11.0,131.0,13.0,1.0,1.4,0.3,Time
,,S26,1,,,anonymized,Serial_Dependence_U,2023.2.3,Win32,59.17159763315647,,,,,,2517.5282000000475,87.0,4.0,2517.5282000000475,87.0,,,,2521.1127000000474,2521.6110999999046,2520.5964000000954,2521.1125999999044,2518.5232000000474,2520.5962999999524,2521.6112999999523,2522.1049000000958,2522.1049000000958,2525.6730999999045,2948.0,2525.6732000000475,5.0,2525.679799999952,4.0,12.0,132.0,21.0,1.0,1.0,0.3,Time
,,S26,1,,,anonymized,Serial_Dependence_U,2023.2.3,Win32,59.17159763315647,,,,,,2525.6800999999045,98.0,4.0,2525.6800999999045,98.0,,,,2529.2305,2529.7247000000475,2528.714,2529.2304000000954,2526.675299999952,2528.7139000000952,2529.724799999952,2530.224299999952,2530.224299999952,2533.944,3550.0,2533.9440999999047,5.0,2533.9505999999046,4.0,13.0,133.0,26.0,1.0,1.0,0.7,Time
,,S26,1,,,anonymized,Serial_Dependence_U,2023.2.3,Win32,59.17159763315647,,,,,,2533.9507999999523,280.0,4.0,2533.9509000000958,280.0,,,,2538.1269000000952,2538.6269000000952,2537.618,2538.1267999999523,2534.944,2537.617799999952,2538.6269000000952,2539.1265,2539.126599999905,2542.570900000095,3368.0,2542.571,5.0,2542.5862000000475,4.0,14.0,134.0,14.0,1.0,1.6,0.3,Time
,,S26,1,,,anonymized,Serial_Dependence_U,2023.2.3,Win32,59.17159763315647,,,,,,2542.586299999952,344.0,4.0,2542.586400000095,344.0,,,,2546.7304000000954,2547.232799999952,2546.219799999952,2546.7304000000954,2543.586400000095,2546.2197000000474,2547.232799999952,2547.732799999952,2547.7329000000955,2550.7195999999044,2577.0,2550.7195999999044,5.0,2550.727200000048,4.0,15.0,135.0,9.0,1.0,1.6,0.7,Time
,,S26,1,,,anonymized,Serial_Dependence_U,2023.2.3,Win32,59.17159763315647,,,,,,2550.7274000000957,26.0,4.0,2550.7275,26.0,,,,2554.6715999999046,2555.1675999999047,2554.170200000048,2554.6715,2551.733900000095,2554.170200000048,2555.167700000048,2555.6685,2555.6685999999045,2558.4392999999523,2683.0,2558.4392999999523,5.0,2558.4510999999047,4.0,16.0,136.0,8.0,1.0,1.4,0.7,Time
,,S26,1,,,anonymized,Serial_Dependence_U,2023.2.3,Win32,59.17159763315647,,,,,,2558.4512999999524,40.0,4.0,2558.4514000000954,40.0,,,,2562.1905,2562.687200000048,2561.6892000000475,2562.1904000000955,2559.451200000048,2561.689099999905,2562.6872999999523,2563.186299999952,2563.186400000095,2566.073700000048,2625.0,2566.073700000048,5.0,2566.080200000048,4.0,17.0,137.0,17.0,1.0,1.2,0.7,Time
,,S26,1,,,anonymized,Serial_Dependence_U,2023.2.3,Win32,59.17159763315647,,,,,,2566.080400000096,298.0,4.0,2566.0805,298.0,,,,2569.8690999999044,2570.368200000048,2569.3525999999047,2569.869,2567.0862000000475,2569.3524000000957,2570.368200000048,2570.8565,2570.8565,2574.4625999999043,3267.0,2574.462700000048,5.0,2574.4739000000955,4.0,18.0,138.0,12.0,1.0,1.2,0.3,Time
,,S26,1,,,anonymized,Serial_Dependence_U,2023.2.3,Win32,59.17159763315647,,,,,,2574.4742000000474,222.0,4.0,2574.4742000000474,222.0,,,,2577.8279000000957,2578.320799999952,2577.3262999999524,2577.8277999999523,2575.492400000095,2577.3262999999524,2578.320900000095,2578.8214000000958,2578.8215,2582.2727999999524,2976.0,2582.273,5.0,2582.28,4.0,19.0,139.0,25.0,1.0,0.8,0.7,Time
,,S26,1,,,anonymized,Serial_Dependence_U,2023.2.3,Win32,59.17159763315647,,,,,,2582.2800999999045,58.0,4.0,2582.280299999952,58.0,,,,2585.8400999999044,2586.3400999999044,2585.328700000048,2585.8399000000954,2583.2900999999047,2585.3285999999043,2586.3402000000474,2586.84,2586.84,2590.0920999999043,2723.0,2590.092200000048,5.0,2590.1115999999047,4.0,20.0,140.0,6.0,1.0,1.0,0.7,Time
,,S26,1,,,anonymized,Serial_Dependence_U,2023.2.3,Win32,59.17159763315647,,,,,,2590.1117999999524,335.0,4.0,2590.1117999999524,335.0,,,,2594.2780999999045,2594.7755,2593.764900000095,2594.278,2591.1305999999045,2593.764799999952,2594.7755,2595.2645,2595.2645,2598.735799999952,3252.0,2598.736,5.0,2598.747299999952,4.0,21.0,141.0,29.0,1.0,1.6,0.7,Time
,,S26,1,,,anonymized,Serial_Dependence_U,2023.2.3,Win32,59.17159763315647,,,,,,2598.7475,312.0,4.0,2598.7475,312.0,,,,2602.730200000048,2603.2302999999524,2602.218099999905,2602.7300999999047,2599.7677999999523,2602.218,2603.2302999999524,2603.728299999952,2603.7285,2607.1385999999047,3085.0,2607.138700000048,5.0,2607.152799999952,4.0,22.0,142.0,28.0,1.0,1.4,0.7,Time
,,S26,1,,,anonymized,Serial_Dependence_U,2023.2.3,Win32,59.17159763315647,,,,,,2607.152900000095,196.0,4.0,2607.153,196.0,,,,2610.9352999999523,2611.4302000000475,2610.418299999952,2610.935200000048,2608.1507000000474,2610.418200000048,2611.430299999952,2611.932700000048,2611.9327999999523,2615.007200000048,2984.0,2615.007299999952,5.0,2615.025900000095,4.0,23.0,143.0,22.0,1.0,1.2,0.3,Time
,,S26,1,,,anonymized,Serial_Dependence_U,2023.2.3,Win32,59.17159763315647,,,,,,2615.0262000000475,63.0,4.0,2615.0262000000475,63.0,,,,2618.4170999999046,2618.916900000095,2617.906200000048,2618.417,2616.0385999999044,2617.9060999999047,2618.916900000095,2619.4210999999045,2619.4212000000475,2623.9895,4187.0,2623.9895999999044,5.0,2623.9964000000955,4.0,24.0,144.0,10.0,1.0,0.8,0.3,Time
,,S26,1,,,anonymized,Serial_Dependence_U,2023.2.3,Win32,59.17159763315647,,,,,,2623.9965,36.0,4.0,2623.9965999999044,36.0,,,,2627.373,2627.8715999999044,2626.8562000000475,2627.373,2625.0182999999524,2626.8562000000475,2627.8715999999044,2628.3675,2628.3675,2630.441700000048,1739.0,2630.441700000048,5.0,2630.448,4.0,25.0,145.0,15.0,1.0,0.8,0.7,Time
,,S26,1,,,anonymized,Serial_Dependence_U,2023.2.3,Win32,59.17159763315647,,,,,,2630.448200000048,291.0,4.0,2630.4482999999523,291.0,,,,2634.236,2634.735799999952,2633.7255999999047,2634.236,2631.4595999999046,2633.7255999999047,2634.735799999952,2635.2357000000475,2635.2357000000475,2638.076200000048,2818.0,2638.076200000048,5.0,2638.083299999952,4.0,26.0,146.0,2.0,1.0,1.2,0.3,Time
,,S26,1,,,anonymized,Serial_Dependence_U,2023.2.3,Win32,59.17159763315647,,,,,,2638.0835,134.0,4.0,2638.0835999999044,134.0,,,,2641.4945,2641.9905999999046,2640.9787000000474,2641.494400000095,2639.1114000000957,2640.9785,2641.9905999999046,2642.4895,2642.4895999999044,2644.9452000000474,2345.0,2644.9452000000474,5.0,2644.9510999999047,4.0,27.0,147.0,20.0,1.0,0.8,0.3,Time
,,S26,1,,,anonymized,Serial_Dependence_U,2023.2.3,Win32,59.17159763315647,,,,,,2644.9512999999524,217.0,4.0,2644.9514000000954,217.0,,,,2648.306799999952,2648.806900000095,2647.7967999999523,2648.3065999999044,2645.956900000095,2647.796700000048,2648.806900000095,2649.3075,2649.3075,2652.2805,2224.0,2652.2805,5.0,2652.2875,4.0,28.0,148.0,5.0,1.0,0.8,0.7,Time
,,S26,1,,,anonymized,Serial_Dependence_U,2023.2.3,Win32,59.17159763315647,,,,,,2652.287700000048,3.0,4.0,2652.2877999999523,3.0,,,,2655.880799999952,2656.378400000095,2655.3780999999044,2655.880799999952,2653.3082999999524,2655.378,2656.3785,2656.875700000048,2656.875799999952,2661.2525,3728.0,2661.2525999999048,5.0,2661.2742999999523,4.0,29.0,149.0,11.0,1.0,1.0,0.3,Time
,,S26,1,,,anonymized,Serial_Dependence_U,2023.2.3,Win32,59.17159763315647,,,,,,2661.2745999999047,267.0,5.0,2707.7965,267.0,s,46.49919999980921,,2711.531200000048,2712.0240999999046,2711.0294000000954,2711.531200000048,2708.7924000000958,2711.0294000000954,2712.0240999999046,2712.523799999952,2712.523900000095,2716.2985999999046,2926.0,2716.298700000048,5.0,2716.3052000000475,5.0,0.0,150.0,7.0,1.0,1.2,0.7,Time
,,S26,1,,,anonymized,Serial_Dependence_U,2023.2.3,Win32,59.17159763315647,,,,,,2716.305299999952,131.0,5.0,2716.306,131.0,,,,2719.8595,2720.3612999999523,2719.348200000048,2719.8592999999523,2717.3142000000475,2719.348200000048,2720.3614000000957,2720.8597999999524,2720.8597999999524,2723.4330999999047,2227.0,2723.433200000048,5.0,2723.4395999999047,5.0,1.0,151.0,6.0,1.0,1.0,0.7,Time
,,S26,1,,,anonymized,Serial_Dependence_U,2023.2.3,Win32,59.17159763315647,,,,,,2723.439900000096,224.0,5.0,2723.439900000096,224.0,,,,2727.6110999999046,2728.110799999952,2727.102,2727.611,2724.432400000095,2727.101900000095,2728.110799999952,2728.6105999999045,2728.6105999999045,2732.3020999999044,3210.0,2732.3022000000474,5.0,2732.308700000048,5.0,2.0,152.0,4.0,1.0,1.6,0.3,Time
,,S26,1,,,anonymized,Serial_Dependence_U,2023.2.3,Win32,59.17159763315647,,,,,,2732.3089000000955,27.0,5.0,2732.309,27.0,,,,2736.2637999999524,2736.7637999999524,2735.746900000095,2736.2637999999524,2733.3130999999044,2735.746799999952,2736.7639000000954,2737.2639000000954,2737.264,2741.398,2932.0,2741.3980999999044,5.0,2741.404700000048,5.0,3.0,153.0,8.0,1.0,1.4,0.7,Time
,,S26,1,,,anonymized,Serial_Dependence_U,2023.2.3,Win32,59.17159763315647,,,,,,2741.4049000000955,28.0,5.0,2741.405,28.0,,,,2745.1362999999524,2745.6365,2744.6327000000474,2745.136200000048,2742.398799999952,2744.6327000000474,2745.6365,2746.1325,2746.1325999999044,2750.1690999999046,3120.0,2750.1692999999523,5.0,2750.1805999999046,5.0,4.0,154.0,17.0,1.0,1.2,0.7,Time
,,S26,1,,,anonymized,Serial_Dependence_U,2023.2.3,Win32,59.17159763315647,,,,,,2750.1807999999523,187.0,5.0,2750.180900000096,187.0,,,,2754.122299999952,2754.620200000048,2753.617799999952,2754.1222000000475,2751.184,2753.6177000000475,2754.620200000048,2755.118400000096,2755.1185,2759.072400000095,3386.0,2759.072400000095,5.0,2759.0792000000474,5.0,5.0,155.0,18.0,1.0,1.4,0.7,Time
,,S26,1,,,anonymized,Serial_Dependence_U,2023.2.3,Win32,59.17159763315647,,,,,,2759.079400000095,19.0,5.0,2759.079400000095,19.0,,,,2762.6390999999044,2763.1375999999045,2762.137,2762.639,2760.0719000000954,2762.1369000000955,2763.1375999999045,2763.637,2763.637,2766.488,2215.0,2766.4880999999045,5.0,2766.4945999999045,5.0,6.0,156.0,11.0,1.0,1.0,0.3,Time
,,S26,1,,,anonymized,Serial_Dependence_U,2023.2.3,Win32,59.17159763315647,,,,,,2766.494799999952,10.0,5.0,2766.494799999952,10.0,,,,2770.4890999999047,2770.989799999952,2769.9757999999524,2770.489,2767.5047999999524,2769.9755999999047,2770.989799999952,2771.489,2771.489,2775.399700000048,3080.0,2775.399700000048,5.0,2775.4185,5.0,7.0,157.0,13.0,1.0,1.4,0.3,Time
,,S26,1,,,anonymized,Serial_Dependence_U,2023.2.3,Win32,59.17159763315647,,,,,,2775.418799999952,131.0,5.0,2775.418900000095,131.0,,,,2779.547900000095,2780.0410999999044,2779.0424000000958,2779.547900000095,2776.409799999952,2779.0422999999523,2780.0410999999044,2780.543299999952,2780.543299999952,2783.8857999999523,2958.0,2783.8857999999523,5.0,2783.886400000096,5.0,8.0,158.0,19.0,1.0,1.6,0.7,Time
,,S26,1,,,anonymized,Serial_Dependence_U,2023.2.3,Win32,59.17159763315647,,,,,,2783.8870999999044,165.0,5.0,2783.887400000095,165.0,,,,2788.03,2788.532400000095,2787.518,2788.03,2784.8827000000474,2787.517900000096,2788.532400000095,2789.0275999999044,2789.0275999999044,2792.7554000000955,3393.0,2792.7555999999045,5.0,2792.7722999999523,5.0,9.0,159.0,29.0,1.0,1.6,0.7,Time
,,S26,1,,,anonymized,Serial_Dependence_U,2023.2.3,Win32,59.17159763315647,,,,,,2792.7725,318.0,5.0,2792.7725999999047,318.0,,,,2796.7667000000474,2797.2672000000475,2796.2515,2796.7665,2793.781200000048,2796.2515,2797.267299999952,2797.767400000095,2797.7675,2801.091200000048,2907.0,2801.0912999999523,5.0,2801.113900000096,5.0,10.0,160.0,3.0,1.0,1.4,0.3,Time
,,S26,1,,,anonymized,Serial_Dependence_U,2023.2.3,Win32,59.17159763315647,,,,,,2801.1144000000954,340.0,5.0,2801.1145999999044,340.0,,,,2804.4715,2804.9665,2803.955700000048,2804.4714000000954,2802.119799999952,2803.9555999999047,2804.9665999999047,2805.4652000000474,2805.4652000000474,2808.8670999999044,3029.0,2808.8672000000474,5.0,2808.874299999952,5.0,11.0,161.0,5.0,1.0,0.8,0.7,Time
,,S26,1,,,anonymized,Serial_Dependence_U,2023.2.3,Win32,59.17159763315647,,,,,,2808.8745999999046,346.0,5.0,2808.8745999999046,346.0,,,,2812.668400000095,2813.173,2812.1567999999525,2812.668299999952,2809.8884000000958,2812.1565999999048,2813.173,2813.672200000048,2813.672200000048,2817.3395999999047,2909.0,2817.339700000048,5.0,2817.355200000048,5.0,12.0,162.0,2.0,1.0,1.2,0.3,Time
,,S26,1,,,anonymized,Serial_Dependence_U,2023.2.3,Win32,59.17159763315647,,,,,,2817.3554000000954,244.0,5.0,2817.3555,244.0,,,,2820.7030999999047,2821.202400000095,2820.1912000000475,2820.703,2818.3565,2820.1910999999045,2821.202400000095,2821.7030999999047,2821.7030999999047,2825.4900999999045,3089.0,2825.4902000000475,5.0,2825.5107999999523,5.0,13.0,163.0,25.0,1.0,0.8,0.7,Time
,,S26,1,,,anonymized,Serial_Dependence_U,2023.2.3,Win32,59.17159763315647,,,,,,2825.511,271.0,5.0,2825.511200000048,271.0,,,,2829.0737999999524,2829.5717999999524,2828.5715,2829.0735999999047,2826.5065999999047,2828.5714000000958,2829.5717999999524,2830.0720999999044,2830.0720999999044,2833.6790999999043,3091.0,2833.679200000048,5.0,2833.697299999952,5.0,14.0,164.0,1.0,1.0,1.0,0.3,Time
,,S26,1,,,anonymized,Serial_Dependence_U,2023.2.3,Win32,59.17159763315647,,,,,,2833.6975999999045,213.0,5.0,2833.6977000000475,213.0,,,,2837.857200000048,2838.357700000048,2837.340400000095,2837.8570999999047,2834.7065,2837.340400000095,2838.357799999952,2838.857200000048,2838.857200000048,2842.6422000000475,2184.0,2842.642299999952,5.0,2842.6490999999046,5.0,15.0,165.0,9.0,1.0,1.6,0.7,Time
,,S26,1,,,anonymized,Serial_Dependence_U,2023.2.3,Win32,59.17159763315647,,,,,,2842.6492999999523,210.0,5.0,2842.6494000000957,210.0,,,,2846.0310999999047,2846.5319000000954,2845.5170999999045,2846.031,2843.6425,2845.516900000095,2846.532,2847.026900000096,2847.0270999999047,2850.5544000000955,3011.0,2850.5545,5.0,2850.5732999999523,5.0,16.0,166.0,20.0,1.0,0.8,0.3,Time
,,S26,1,,,anonymized,Serial_Dependence_U,2023.2.3,Win32,59.17159763315647,,,,,,2850.5735,352.0,5.0,2850.5735,352.0,,,,2854.3452000000475,2854.8445999999044,2853.8337000000474,2854.3450999999045,2851.600200000048,2853.8337000000474,2854.8445999999044,2855.3455,2855.3455,2859.046900000096,2306.0,2859.0470999999047,5.0,2859.0545,5.0,17.0,167.0,27.0,1.0,1.2,0.7,Time
,,S26,1,,,anonymized,Serial_Dependence_U,2023.2.3,Win32,59.17159763315647,,,,,,2859.054799999952,288.0,5.0,2859.054799999952,288.0,,,,2862.8385,2863.3317000000475,2862.3195,2862.838299999952,2860.0550999999045,2862.319400000096,2863.331799999952,2863.836299999952,2863.836400000095,2867.153299999952,2783.0,2867.153400000095,5.0,2867.173299999952,5.0,18.0,168.0,12.0,1.0,1.2,0.3,Time
,,S26,1,,,anonymized,Serial_Dependence_U,2023.2.3,Win32,59.17159763315647,,,,,,2867.1735999999046,247.0,5.0,2867.1737999999523,247.0,,,,2870.733,2871.2349000000954,2870.218,2870.7329000000955,2868.17,2870.218,2871.2349000000954,2871.736200000048,2871.7362999999523,2874.2840999999044,2352.0,2874.284200000048,5.0,2874.284299999952,5.0,19.0,169.0,26.0,1.0,1.0,0.7,Time
,,S26,1,,,anonymized,Serial_Dependence_U,2023.2.3,Win32,59.17159763315647,,,,,,2874.2845999999045,253.0,5.0,2874.2847000000475,253.0,,,,2878.054799999952,2878.5544000000955,2877.5539000000954,2878.0547000000474,2875.285099999905,2877.5537999999524,2878.5545,2879.0544000000955,2879.0545999999044,2881.8290999999044,2554.0,2881.8292000000474,5.0,2881.849900000095,5.0,20.0,170.0,22.0,1.0,1.2,0.3,Time
,,S26,1,,,anonymized,Serial_Dependence_U,2023.2.3,Win32,59.17159763315647,,,,,,2881.8502999999523,167.0,5.0,2881.8504000000958,167.0,,,,2886.037700000048,2886.536900000095,2885.5212000000474,2886.0375999999046,2882.856,2885.521,2886.536900000095,2887.038200000048,2887.0384000000954,2889.7452999999523,2267.0,2889.7452999999523,5.0,2889.7517999999523,5.0,21.0,171.0,24.0,1.0,1.6,0.3,Time
,,S26,1,,,anonymized,Serial_Dependence_U,2023.2.3,Win32,59.17159763315647,,,,,,2889.7519000000952,175.0,5.0,2889.752,175.0,,,,2893.1227999999523,2893.621900000095,2892.6135999999046,2893.122700000048,2890.7719000000952,2892.6135,2893.621900000095,2894.1220999999045,2894.1220999999045,2898.1802000000475,3460.0,2898.1802000000475,5.0,2898.186900000095,5.0,22.0,172.0,15.0,1.0,0.8,0.7,Time
,,S26,1,,,anonymized,Serial_Dependence_U,2023.2.3,Win32,59.17159763315647,,,,,,2898.187,294.0,5.0,2898.1870999999046,294.0,,,,2902.3782000000474,2902.88,2901.8635,2902.3782000000474,2899.197,2901.863400000095,2902.88,2903.3747999999523,2903.3749000000957,2906.5615999999045,2546.0,2906.561799999952,5.0,2906.5625999999047,5.0,23.0,173.0,14.0,1.0,1.6,0.3,Time
,,S26,1,,,anonymized,Serial_Dependence_U,2023.2.3,Win32,59.17159763315647,,,,,,2906.5635,167.0,5.0,2906.564,167.0,,,,2910.511400000096,2910.999400000095,2910.0105,2910.5112999999524,2907.576900000095,2910.0105,2910.999400000095,2911.4940999999044,2911.4940999999044,2914.711700000048,2553.0,2914.7117999999523,5.0,2914.7182999999523,5.0,24.0,174.0,28.0,1.0,1.4,0.7,Time
,,S26,1,,,anonymized,Serial_Dependence_U,2023.2.3,Win32,59.17159763315647,,,,,,2914.7185,119.0,5.0,2914.7185999999047,119.0,,,,2918.2982000000475,2918.7960999999045,2917.781200000048,2918.298,2915.7145,2917.781,2918.7960999999045,2919.2839000000954,2919.2839000000954,2922.7140999999046,2976.0,2922.7140999999046,5.0,2922.714400000096,5.0,25.0,175.0,21.0,1.0,1.0,0.3,Time
,,S26,1,,,anonymized,Serial_Dependence_U,2023.2.3,Win32,59.17159763315647,,,,,,2922.7145999999047,354.0,5.0,2922.7145999999047,354.0,,,,2926.1175999999045,2926.6147000000474,2925.6000999999046,2926.117400000095,2923.731299999952,2925.6,2926.6147000000474,2927.1145999999044,2927.1145999999044,2930.482400000096,2850.0,2930.4825,5.0,2930.488900000096,5.0,26.0,176.0,0.0,1.0,0.8,0.3,Time
,,S26,1,,,anonymized,Serial_Dependence_U,2023.2.3,Win32,59.17159763315647,,,,,,2930.489,158.0,5.0,2930.4890999999047,158.0,,,,2933.856400000095,2934.3549000000958,2933.355799999952,2933.856299999952,2931.484700000048,2933.355799999952,2934.355,2934.856400000095,2934.8565,2938.0422999999523,2801.0,2938.0422999999523,5.0,2938.048299999952,5.0,27.0,177.0,10.0,1.0,0.8,0.3,Time
,,S26,1,,,anonymized,Serial_Dependence_U,2023.2.3,Win32,59.17159763315647,,,,,,2938.0485,126.0,5.0,2938.0485,126.0,,,,2942.025299999952,2942.5249000000954,2941.5089000000958,2942.025299999952,2939.0429000000954,2941.5089000000958,2942.5249000000954,2943.0250999999043,2943.025200000048,2946.676700000048,3483.0,2946.676700000048,5.0,2946.6832999999524,5.0,28.0,178.0,23.0,1.0,1.4,0.3,Time
,,S26,1,,,anonymized,Serial_Dependence_U,2023.2.3,Win32,59.17159763315647,,,,,,2946.6835,44.0,5.0,2946.6835999999043,44.0,,,,2950.2394000000954,2950.7377000000474,2949.727200000048,2950.2392999999524,2947.6895999999047,2949.727200000048,2950.7377000000474,2951.238400000095,2951.2385,2954.878799999952,3033.0,2954.878799999952,5.0,2954.885400000095,5.0,29.0,179.0,16.0,1.0,1.0,0.7,Time
,,S26,1,,,anonymized,Serial_Dependence_U,2023.2.3,Win32,59.17159763315647,,,,,,2954.885599999905,127.0,6.0,2957.847599999905,127.0,s,2.943100000143204,,2961.215299999952,2961.7077999999524,2960.7132000000474,2961.2152000000474,2958.8442999999525,2960.7132000000474,2961.7079000000954,2962.2085,2962.2085999999044,2965.4815999999046,2863.0,2965.4817999999523,5.0,2965.487900000095,6.0,0.0,180.0,10.0,1.0,0.8,0.3,Time
,,S26,1,,,anonymized,Serial_Dependence_U,2023.2.3,Win32,59.17159763315647,,,,,,2965.4882000000475,196.0,6.0,2965.4887999999523,196.0,,,,2969.4452000000474,2969.948200000048,2968.9340999999044,2969.4450999999044,2966.492799999952,2968.934,2969.948200000048,2970.4425,2970.4425,2973.8374000000954,3335.0,2973.8375999999043,5.0,2973.8522999999523,6.0,1.0,181.0,28.0,1.0,1.4,0.7,Time
,,S26,1,,,anonymized,Serial_Dependence_U,2023.2.3,Win32,59.17159763315647,,,,,,2973.8525,104.0,6.0,2973.8525,104.0,,,,2977.813,2978.312200000048,2977.303,2977.813,2974.8685999999047,2977.302799999952,2978.312200000048,2978.813200000048,2978.813299999952,2982.0567000000474,2746.0,2982.056900000095,5.0,2982.076200000048,6.0,2.0,182.0,18.0,1.0,1.4,0.7,Time
,,S26,1,,,anonymized,Serial_Dependence_U,2023.2.3,Win32,59.17159763315647,,,,,,2982.0765999999044,286.0,6.0,2982.0765999999044,286.0,,,,2985.4700999999045,2985.964400000096,2984.9535,2985.4700999999045,2983.0822999999523,2984.953400000096,2985.964400000096,2986.4650999999044,2986.4652000000474,2988.3480999999047,1369.0,2988.348200000048,5.0,2988.3549000000958,6.0,3.0,183.0,0.0,1.0,0.8,0.3,Time
,,S26,1,,,anonymized,Serial_Dependence_U,2023.2.3,Win32,59.17159763315647,,,,,,2988.3550999999047,274.0,6.0,2988.3550999999047,274.0,,,,2992.1225,2992.6172000000474,2991.6202999999523,2992.122299999952,2989.349900000095,2991.620200000048,2992.6172000000474,2993.121,2993.121,2995.9059000000952,2313.0,2995.9059000000952,5.0,2995.9122000000475,6.0,4.0,184.0,2.0,1.0,1.2,0.3,Time
,,S26,1,,,anonymized,Serial_Dependence_U,2023.2.3,Win32,59.17159763315647,,,,,,2995.912400000095,110.0,6.0,2995.912400000095,110.0,,,,2999.6524000000954,3000.1562999999524,2999.139799999952,2999.6522999999524,2996.907,2999.139799999952,3000.1562999999524,3000.6590999999044,3000.6590999999044,3003.445400000095,2518.0,3003.4455,5.0,3003.456900000095,6.0,5.0,185.0,27.0,1.0,1.2,0.7,Time
,,S26,1,,,anonymized,Serial_Dependence_U,2023.2.3,Win32,59.17159763315647,,,,,,3003.457,308.0,6.0,3003.4570999999046,308.0,,,,3007.0365,3007.539299999952,3006.5257000000474,3007.0364000000955,3004.4595,3006.5255999999044,3007.539299999952,3008.0367000000474,3008.0367000000474,3012.210799999952,3192.0,3012.210900000095,5.0,3012.219200000048,6.0,6.0,186.0,1.0,1.0,1.0,0.3,Time
,,S26,1,,,anonymized,Serial_Dependence_U,2023.2.3,Win32,59.17159763315647,,,,,,3012.2194000000954,143.0,6.0,3012.2195,143.0,,,,3016.195,3016.688900000095,3015.688900000095,3016.195,3013.223,3015.688900000095,3016.688900000095,3017.1897999999524,3017.189900000096,3020.5165999999044,2707.0,3020.5167000000474,5.0,3020.537299999952,6.0,7.0,187.0,3.0,1.0,1.4,0.3,Time
,,S26,1,,,anonymized,Serial_Dependence_U,2023.2.3,Win32,59.17159763315647,,,,,,3020.5375,311.0,6.0,3020.5375999999046,311.0,,,,3024.491200000048,3024.9915,3023.9830999999044,3024.4910999999047,3021.546299999952,3023.983,3024.9915999999043,3025.4910999999047,3025.4910999999047,3029.198900000096,2626.0,3029.199,5.0,3029.205700000048,6.0,8.0,188.0,8.0,1.0,1.4,0.7,Time
,,S26,1,,,anonymized,Serial_Dependence_U,2023.2.3,Win32,59.17159763315647,,,,,,3029.2059000000954,15.0,6.0,3029.2059000000954,15.0,,,,3033.3464000000954,3033.8485999999048,3032.8329000000954,3033.346200000048,3030.1984000000957,3032.8327999999524,3033.848700000048,3034.3485999999048,3034.3485999999048,3037.7355,3102.0,3037.7355,5.0,3037.741799999952,6.0,9.0,189.0,19.0,1.0,1.6,0.7,Time
,,S26,1,,,anonymized,Serial_Dependence_U,2023.2.3,Win32,59.17159763315647,,,,,,3037.7419000000955,123.0,6.0,3037.742,123.0,,,,3041.3045,3041.800799999952,3040.7882999999524,3041.304299999952,3038.7505999999044,3040.7880999999047,3041.800799999952,3042.3012999999523,3042.3012999999523,3046.7209000000958,4335.0,3046.721,5.0,3046.7272999999523,6.0,10.0,190.0,6.0,1.0,1.0,0.7,Time
,,S26,1,,,anonymized,Serial_Dependence_U,2023.2.3,Win32,59.17159763315647,,,,,,3046.7275999999047,254.0,6.0,3046.7275999999047,254.0,,,,3050.104299999952,3050.603799999952,3049.5875999999043,3050.104299999952,3047.722299999952,3049.5875,3050.603900000095,3051.103200000048,3051.103200000048,3054.006,2416.0,3054.006,5.0,3054.016200000048,6.0,11.0,191.0,20.0,1.0,0.8,0.3,Time
,,S26,1,,,anonymized,Serial_Dependence_U,2023.2.3,Win32,59.17159763315647,,,,,,3054.0167000000474,200.0,6.0,3054.016900000095,200.0,,,,3057.574299999952,3058.069,3057.0555,3057.574200000048,3055.0167000000474,3057.0555,3058.069,3058.5680999999045,3058.5680999999045,3061.8080999999047,2883.0,3061.808200000048,5.0,3061.8157000000474,6.0,12.0,192.0,26.0,1.0,1.0,0.7,Time
,,S26,1,,,anonymized,Serial_Dependence_U,2023.2.3,Win32,59.17159763315647,,,,,,3061.815900000095,266.0,6.0,3061.8160999999045,266.0,,,,3066.0032000000474,3066.503400000095,3065.486700000048,3066.003,3062.819700000048,3065.4865999999047,3066.503400000095,3067.002799999952,3067.0029000000955,3069.9890999999047,2680.0,3069.9892999999524,5.0,3070.0120999999044,6.0,13.0,193.0,4.0,1.0,1.6,0.3,Time
,,S26,1,,,anonymized,Serial_Dependence_U,2023.2.3,Win32,59.17159763315647,,,,,,3070.0125,98.0,6.0,3070.0125999999045,98.0,,,,3073.5572000000475,3074.0585999999043,3073.055700000048,3073.5570999999045,3071.0202999999524,3073.0555999999046,3074.058700000048,3074.5567000000474,3074.556799999952,3077.7555999999045,2800.0,3077.7555999999045,5.0,3077.7625999999045,6.0,14.0,194.0,16.0,1.0,1.0,0.7,Time
,,S26,1,,,anonymized,Serial_Dependence_U,2023.2.3,Win32,59.17159763315647,,,,,,3077.762900000095,109.0,6.0,3077.763,109.0,,,,3081.956400000095,3082.4567000000475,3081.4404000000955,3081.956299999952,3078.7725999999047,3081.440299999952,3082.4567000000475,3082.956400000095,3082.9565,3086.292,2438.0,3086.292200000048,5.0,3086.3035,6.0,15.0,195.0,14.0,1.0,1.6,0.3,Time
,,S26,1,,,anonymized,Serial_Dependence_U,2023.2.3,Win32,59.17159763315647,,,,,,3086.3037999999524,315.0,6.0,3086.3039000000954,315.0,,,,3089.8780999999044,3090.3767999999523,3089.359,3089.878,3087.2965,3089.358799999952,3090.3767999999523,3090.877,3090.8770999999047,3093.660200000048,2412.0,3093.6602999999523,5.0,3093.6680999999044,6.0,16.0,196.0,21.0,1.0,1.0,0.3,Time
,,S26,1,,,anonymized,Serial_Dependence_U,2023.2.3,Win32,59.17159763315647,,,,,,3093.668400000095,338.0,6.0,3093.6685,338.0,,,,3097.396400000095,3097.895200000048,3096.8940999999045,3097.396400000095,3094.662299999952,3096.894,3097.8952999999524,3098.394400000095,3098.394400000095,3101.3122999999523,2606.0,3101.3124000000957,5.0,3101.321200000048,6.0,17.0,197.0,17.0,1.0,1.2,0.7,Time
,,S26,1,,,anonymized,Serial_Dependence_U,2023.2.3,Win32,59.17159763315647,,,,,,3101.3214000000958,322.0,6.0,3101.3214000000958,322.0,,,,3105.2982000000475,3105.7972999999524,3104.7815999999048,3105.2980999999045,3102.314700000048,3104.7815,3105.7974000000954,3106.297200000048,3106.2972999999524,3109.3865999999043,3026.0,3109.386700000048,5.0,3109.400799999952,6.0,18.0,198.0,23.0,1.0,1.4,0.3,Time
,,S26,1,,,anonymized,Serial_Dependence_U,2023.2.3,Win32,59.17159763315647,,,,,,3109.401,36.0,6.0,3109.401,36.0,,,,3112.7485999999044,3113.2499000000957,3112.2365999999047,3112.7485999999044,3110.4,3112.2364000000957,3113.2499000000957,3113.749700000048,3113.7497999999523,3116.166799999952,2022.0,3116.166900000095,5.0,3116.1814000000954,6.0,19.0,199.0,15.0,1.0,0.8,0.7,Time
,,S26,1,,,anonymized,Serial_Dependence_U,2023.2.3,Win32,59.17159763315647,,,,,,3116.181799999952,178.0,6.0,3116.181799999952,178.0,,,,3120.318400000095,3120.8220999999044,3119.8175999999044,3120.318400000095,3117.184400000095,3119.8175,3120.822200000048,3121.3210999999046,3121.3210999999046,3124.220299999952,2700.0,3124.220400000095,5.0,3124.2410999999047,6.0,20.0,200.0,9.0,1.0,1.6,0.7,Time
,,S26,1,,,anonymized,Serial_Dependence_U,2023.2.3,Win32,59.17159763315647,,,,,,3124.2412999999524,187.0,6.0,3124.2412999999524,187.0,,,,3128.386700000048,3128.889400000095,3127.8705999999047,3128.3865999999043,3125.237200000048,3127.8705999999047,3128.8895999999045,3129.385700000048,3129.385700000048,3133.356700000048,3682.0,3133.3567999999523,5.0,3133.3647000000474,6.0,21.0,201.0,29.0,1.0,1.6,0.7,Time
,,S26,1,,,anonymized,Serial_Dependence_U,2023.2.3,Win32,59.17159763315647,,,,,,3133.364900000095,272.0,6.0,3133.364900000095,272.0,,,,3137.089400000096,3137.5892999999523,3136.588299999952,3137.0892999999523,3134.3542000000475,3136.588299999952,3137.589400000096,3138.0895,3138.0895999999047,3141.824,3521.0,3141.8240999999043,5.0,3141.834700000048,6.0,22.0,202.0,7.0,1.0,1.2,0.7,Time
,,S26,1,,,anonymized,Serial_Dependence_U,2023.2.3,Win32,59.17159763315647,,,,,,3141.834900000096,73.0,6.0,3141.835,73.0,,,,3145.6079000000955,3146.108299999952,3145.091,3145.607799999952,3142.8260999999047,3145.090799999952,3146.108400000095,3146.6075,3146.6075,3149.525299999952,2275.0,3149.525299999952,5.0,3149.532,6.0,23.0,203.0,22.0,1.0,1.2,0.3,Time
,,S26,1,,,anonymized,Serial_Dependence_U,2023.2.3,Win32,59.17159763315647,,,,,,3149.5322000000474,307.0,6.0,3149.5322000000474,307.0,,,,3153.509900000095,3154.010700000048,3153.0092999999524,3153.509900000095,3150.543799999952,3153.009200000048,3154.010700000048,3154.5100999999045,3154.5100999999045,3159.7119000000957,3694.0,3159.712,5.0,3159.718900000096,6.0,24.0,204.0,13.0,1.0,1.4,0.3,Time
,,S26,1,,,anonymized,Serial_Dependence_U,2023.2.3,Win32,59.17159763315647,,,,,,3159.7190999999048,55.0,6.0,3159.719200000048,55.0,,,,3163.4975,3163.995200000048,3162.9842999999523,3163.4974000000952,3160.7115999999046,3162.984200000048,3163.995200000048,3164.497,3164.4970999999045,3166.3479000000957,1398.0,3166.3480999999047,4.0,3166.3665999999043,6.0,25.0,205.0,12.0,1.0,1.2,0.3,Time
,,S26,1,,,anonymized,Serial_Dependence_U,2023.2.3,Win32,59.17159763315647,,,,,,3166.3669000000955,352.0,6.0,3166.367,352.0,,,,3170.5475999999044,3171.0487999999523,3170.0307999999523,3170.5475999999044,3167.3635999999046,3170.0307999999523,3171.0487999999523,3171.547799999952,3171.547799999952,3175.583,3637.0,3175.583,5.0,3175.589700000048,6.0,26.0,206.0,24.0,1.0,1.6,0.3,Time
,,S26,1,,,anonymized,Serial_Dependence_U,2023.2.3,Win32,59.17159763315647,,,,,,3175.5899000000954,86.0,6.0,3175.5899000000954,86.0,,,,3179.168900000095,3179.668400000095,3178.651700000048,3179.1687000000475,3176.583,3178.6515999999046,3179.668400000095,3180.1674000000958,3180.1674000000958,3184.2512000000474,3597.0,3184.251299999952,5.0,3184.257799999952,6.0,27.0,207.0,11.0,1.0,1.0,0.3,Time
,,S26,1,,,anonymized,Serial_Dependence_U,2023.2.3,Win32,59.17159763315647,,,,,,3184.257900000095,51.0,6.0,3184.258,51.0,,,,3187.603200000048,3188.1042000000475,3187.1022999999523,3187.603200000048,3185.2675999999046,3187.1022999999523,3188.1042000000475,3188.6035,3188.6035,3192.3419000000954,3351.0,3192.3420999999043,5.0,3192.357,6.0,28.0,208.0,5.0,1.0,0.8,0.7,Time
,,S26,1,,,anonymized,Serial_Dependence_U,2023.2.3,Win32,59.17159763315647,,,,,,3192.357200000048,347.0,6.0,3192.3572999999524,347.0,,,,3195.706799999952,3196.204299999952,3195.1892999999523,3195.7065999999045,3193.353799999952,3195.189099999905,3196.204299999952,3196.703700000048,3196.703799999952,3199.473700000048,2385.0,3199.473799999952,5.0,3199.4922000000474,6.0,29.0,209.0,25.0,1.0,0.8,0.7,Time
,,S26,1,,,anonymized,Serial_Dependence_U,2023.2.3,Win32,59.17159763315647,,,,,,3199.4925999999045,96.0,7.0,3202.440299999952,96.0,s,2.934599999904549,,3205.99,3206.4950999999046,3205.4795,3205.99,3203.4405,3205.479400000095,3206.4950999999046,3206.995,3206.995200000048,3210.143200000048,2651.0,3210.1432999999524,5.0,3210.165700000048,7.0,0.0,210.0,16.0,1.0,1.0,0.7,Time
,,S26,1,,,anonymized,Serial_Dependence_U,2023.2.3,Win32,59.17159763315647,,,,,,3210.1660999999044,348.0,7.0,3210.167200000048,348.0,,,,3214.1140999999047,3214.611200000048,3213.5937999999524,3214.113900000096,3211.1602999999523,3213.5937999999524,3214.611200000048,3215.1090999999046,3215.1090999999046,3218.3457999999523,2985.0,3218.3457999999523,5.0,3218.366700000048,7.0,1.0,211.0,8.0,1.0,1.4,0.7,Time
,,S26,1,,,anonymized,Serial_Dependence_U,2023.2.3,Win32,59.17159763315647,,,,,,3218.367,156.0,7.0,3218.3670999999044,156.0,,,,3222.3635,3222.861200000048,3221.85,3222.3635,3219.3775999999048,3221.849900000095,3222.861200000048,3223.3655999999046,3223.3655999999046,3226.679299999952,3049.0,3226.679299999952,5.0,3226.6862000000474,7.0,2.0,212.0,3.0,1.0,1.4,0.3,Time
,,S26,1,,,anonymized,Serial_Dependence_U,2023.2.3,Win32,59.17159763315647,,,,,,3226.686400000095,72.0,7.0,3226.686400000095,72.0,,,,3230.632299999952,3231.1307000000475,3230.1159000000957,3230.632200000048,3227.6815999999044,3230.1157999999523,3231.1307000000475,3231.631200000048,3231.631200000048,3235.7025999999046,3556.0,3235.7025999999046,5.0,3235.7095999999046,7.0,3.0,213.0,28.0,1.0,1.4,0.7,Time
,,S26,1,,,anonymized,Serial_Dependence_U,2023.2.3,Win32,59.17159763315647,,,,,,3235.7097999999523,64.0,7.0,3235.709900000096,64.0,,,,3239.487799999952,3239.9830999999044,3238.974,3239.4875999999044,3236.704400000095,3238.9739000000955,3239.9832000000474,3240.482700000048,3240.482700000048,3243.892900000096,3293.0,3243.893,5.0,3243.9022999999524,7.0,4.0,214.0,2.0,1.0,1.2,0.3,Time
,,S26,1,,,anonymized,Serial_Dependence_U,2023.2.3,Win32,59.17159763315647,,,,,,3243.9025,171.0,7.0,3243.9025,171.0,,,,3247.2927999999524,3247.7855999999047,3246.7905999999048,3247.292700000048,3244.908700000048,3246.7905999999048,3247.785700000048,3248.2855,3248.2855999999047,3251.8707999999524,3373.0,3251.8707999999524,5.0,3251.8825,7.0,5.0,215.0,0.0,1.0,0.8,0.3,Time
,,S26,1,,,anonymized,Serial_Dependence_U,2023.2.3,Win32,59.17159763315647,,,,,,3251.8827000000474,288.0,7.0,3251.882799999952,288.0,,,,3256.0617000000475,3256.5540999999043,3255.5425999999047,3256.0617000000475,3252.904799999952,3255.5425,3256.5540999999043,3257.0532999999523,3257.0532999999523,3260.2994000000954,3218.0,3260.2995,5.0,3260.3165,7.0,6.0,216.0,29.0,1.0,1.6,0.7,Time
,,S26,1,,,anonymized,Serial_Dependence_U,2023.2.3,Win32,59.17159763315647,,,,,,3260.316700000048,110.0,7.0,3260.3169000000958,110.0,,,,3263.906400000096,3264.4057999999523,3263.3925,3263.906400000096,3261.3219000000954,3263.392299999952,3264.4057999999523,3264.9060999999047,3264.9060999999047,3267.907299999952,2767.0,3267.907299999952,5.0,3267.914599999905,7.0,7.0,217.0,11.0,1.0,1.0,0.3,Time
,,S26,1,,,anonymized,Serial_Dependence_U,2023.2.3,Win32,59.17159763315647,,,,,,3267.914700000048,65.0,7.0,3267.9147999999523,65.0,,,,3271.46,3271.9612000000475,3270.9432000000475,3271.46,3268.9115,3270.9432000000475,3271.9612000000475,3272.458200000048,3272.458200000048,3275.351900000095,2383.0,3275.352099999905,5.0,3275.370200000048,7.0,8.0,218.0,6.0,1.0,1.0,0.7,Time
,,S26,1,,,anonymized,Serial_Dependence_U,2023.2.3,Win32,59.17159763315647,,,,,,3275.3705,175.0,7.0,3275.3705999999047,175.0,,,,3278.749,3279.2490999999045,3278.2470999999045,3278.748900000095,3276.3782000000474,3278.247,3279.2492000000475,3279.747700000048,3279.7477999999523,3283.5377999999523,3219.0,3283.5379000000958,5.0,3283.5580999999047,7.0,9.0,219.0,20.0,1.0,0.8,0.3,Time
,,S26,1,,,anonymized,Serial_Dependence_U,2023.2.3,Win32,59.17159763315647,,,,,,3283.5582999999524,126.0,7.0,3283.5584000000954,126.0,,,,3287.547799999952,3288.0455,3287.0347000000475,3287.547700000048,3284.5629000000954,3287.0347000000475,3288.0455,3288.5335999999047,3288.5335999999047,3292.2235999999048,3468.0,3292.223799999952,5.0,3292.2402000000475,7.0,10.0,220.0,13.0,1.0,1.4,0.3,Time
,,S26,1,,,anonymized,Serial_Dependence_U,2023.2.3,Win32,59.17159763315647,,,,,,3292.240400000095,312.0,7.0,3292.2405,312.0,,,,3295.8142999999523,3296.3147999999524,3295.304299999952,3295.8142999999523,3293.2374000000955,3295.304200000048,3296.3147999999524,3296.8035999999047,3296.803700000048,3300.268900000095,2792.0,3300.269,5.0,3300.275900000095,7.0,11.0,221.0,21.0,1.0,1.0,0.3,Time
,,S26,1,,,anonymized,Serial_Dependence_U,2023.2.3,Win32,59.17159763315647,,,,,,3300.2760999999045,15.0,7.0,3300.2760999999045,15.0,,,,3304.0395,3304.5330999999046,3303.522700000048,3304.039400000095,3301.289299999952,3303.5225999999047,3304.5330999999046,3305.037700000048,3305.037700000048,3308.201700000048,2928.0,3308.201700000048,5.0,3308.2090999999045,7.0,12.0,222.0,17.0,1.0,1.2,0.7,Time
,,S26,1,,,anonymized,Serial_Dependence_U,2023.2.3,Win32,59.17159763315647,,,,,,3308.209299999952,340.0,7.0,3308.2094000000952,340.0,,,,3311.5875,3312.0847999999523,3311.0750999999045,3311.5874000000954,3309.2035999999043,3311.075,3312.0847999999523,3312.5865,3312.5865999999046,3316.2030999999047,3005.0,3316.2030999999047,5.0,3316.2095999999046,7.0,13.0,223.0,10.0,1.0,0.8,0.3,Time
,,S26,1,,,anonymized,Serial_Dependence_U,2023.2.3,Win32,59.17159763315647,,,,,,3316.2097999999523,321.0,7.0,3316.209900000096,321.0,,,,3319.5567000000474,3320.0547000000474,3319.054799999952,3319.5565999999044,3317.208,3319.0547000000474,3320.0547000000474,3320.555,3320.5550999999045,3323.606,2586.0,3323.6060999999045,5.0,3323.613400000095,7.0,14.0,224.0,5.0,1.0,0.8,0.7,Time
,,S26,1,,,anonymized,Serial_Dependence_U,2023.2.3,Win32,59.17159763315647,,,,,,3323.6135999999046,67.0,7.0,3323.613700000048,67.0,,,,3327.775200000048,3328.273799999952,3327.258700000048,3327.7750999999043,3324.625,3327.2585,3328.273799999952,3328.7745,3328.7745,3332.758299999952,3623.0,3332.758299999952,5.0,3332.7655,7.0,15.0,225.0,19.0,1.0,1.6,0.7,Time
,,S26,1,,,anonymized,Serial_Dependence_U,2023.2.3,Win32,59.17159763315647,,,,,,3332.765700000048,26.0,7.0,3332.765700000048,26.0,,,,3336.309299999952,3336.810400000096,3335.794200000048,3336.309299999952,3333.7595,3335.7940999999046,3336.810400000096,3337.313,3337.313,3340.6932000000475,2718.0,3340.6932000000475,5.0,3340.699900000095,7.0,16.0,226.0,26.0,1.0,1.0,0.7,Time
,,S26,1,,,anonymized,Serial_Dependence_U,2023.2.3,Win32,59.17159763315647,,,,,,3340.7000999999045,352.0,7.0,3340.7002000000475,352.0,,,,3344.8949000000957,3345.3940999999045,3344.380200000048,3344.8947999999523,3341.710200000048,3344.3800999999044,3345.3940999999045,3345.8945,3345.8945999999046,3348.8289000000955,2846.0,3348.829,5.0,3348.835900000095,7.0,17.0,227.0,14.0,1.0,1.6,0.3,Time
,,S26,1,,,anonymized,Serial_Dependence_U,2023.2.3,Win32,59.17159763315647,,,,,,3348.8360999999045,171.0,7.0,3348.8362000000475,171.0,,,,3352.7835,3353.2794000000954,3352.2802000000474,3352.7835,3349.8472000000475,3352.2800999999045,3353.2794000000954,3353.769299999952,3353.7695,3357.4045999999043,3084.0,3357.4045999999043,5.0,3357.410900000096,7.0,18.0,228.0,18.0,1.0,1.4,0.7,Time
,,S26,1,,,anonymized,Serial_Dependence_U,2023.2.3,Win32,59.17159763315647,,,,,,3357.411,316.0,7.0,3357.411200000048,316.0,,,,3360.7550999999044,3361.2540999999046,3360.2395,3360.7550999999044,3358.4065,3360.2394000000954,3361.254200000048,3361.7545999999047,3361.754700000048,3365.1162999999524,2836.0,3365.1162999999524,5.0,3365.122700000048,7.0,19.0,229.0,25.0,1.0,0.8,0.7,Time
,,S26,1,,,anonymized,Serial_Dependence_U,2023.2.3,Win32,59.17159763315647,,,,,,3365.123,215.0,7.0,3365.123,215.0,,,,3369.306799999952,3369.8017999999524,3368.8010999999046,3369.3065999999044,3366.1344000000954,3368.801,3369.8019000000954,3370.301400000096,3370.301400000096,3374.1075,2925.0,3374.107700000048,5.0,3374.1227999999523,7.0,20.0,230.0,24.0,1.0,1.6,0.3,Time
,,S26,1,,,anonymized,Serial_Dependence_U,2023.2.3,Win32,59.17159763315647,,,,,,3374.123,202.0,7.0,3374.1232999999525,202.0,,,,3377.8755,3378.3722000000475,3377.3715,3377.8754000000954,3375.136200000048,3377.3714000000955,3378.3722000000475,3378.8704000000957,3378.8704000000957,3382.9712999999524,3689.0,3382.9712999999524,5.0,3382.978299999952,7.0,21.0,231.0,27.0,1.0,1.2,0.7,Time
,,S26,1,,,anonymized,Serial_Dependence_U,2023.2.3,Win32,59.17159763315647,,,,,,3382.9785999999044,118.0,7.0,3382.9785999999044,118.0,,,,3386.7645,3387.2575999999044,3386.2467000000474,3386.764400000095,3383.9754000000958,3386.2465999999044,3387.2575999999044,3387.7622000000474,3387.762299999952,3391.017700000048,2751.0,3391.0177999999523,5.0,3391.0367000000474,7.0,22.0,232.0,12.0,1.0,1.2,0.3,Time
,,S26,1,,,anonymized,Serial_Dependence_U,2023.2.3,Win32,59.17159763315647,,,,,,3391.037,341.0,7.0,3391.037,341.0,,,,3395.180299999952,3395.6755,3394.663900000095,3395.1802000000475,3392.027900000095,3394.663799999952,3395.6755999999045,3396.1749000000955,3396.1749000000955,3400.3355,3508.0,3400.3357000000474,5.0,3400.3545,7.0,23.0,233.0,9.0,1.0,1.6,0.7,Time
,,S26,1,,,anonymized,Serial_Dependence_U,2023.2.3,Win32,59.17159763315647,,,,,,3400.3547999999523,260.0,7.0,3400.3549000000958,260.0,,,,3404.128799999952,3404.6275999999048,3403.618700000048,3404.1287000000475,3401.3444000000954,3403.6185,3404.627700000048,3405.1275999999048,3405.127700000048,3409.713,3916.0,3409.7130999999044,5.0,3409.72,7.0,24.0,234.0,22.0,1.0,1.2,0.3,Time
,,S26,1,,,anonymized,Serial_Dependence_U,2023.2.3,Win32,59.17159763315647,,,,,,3409.7202000000475,262.0,7.0,3409.720299999952,262.0,,,,3413.103299999952,3413.596200000048,3412.585799999952,3413.103200000048,3410.734700000048,3412.5857000000474,3413.5962999999524,3414.0960999999047,3414.096200000048,3416.887799999952,2366.0,3416.887900000095,5.0,3416.896,7.0,25.0,235.0,15.0,1.0,0.8,0.7,Time
,,S26,1,,,anonymized,Serial_Dependence_U,2023.2.3,Win32,59.17159763315647,,,,,,3416.896299999952,236.0,7.0,3416.896400000095,236.0,,,,3421.0820999999046,3421.5822999999523,3420.5727000000475,3421.082,3417.898900000095,3420.5725999999045,3421.5824000000957,3422.083,3422.083200000048,3426.728,4319.0,3426.728200000048,5.0,3426.7477999999523,7.0,26.0,236.0,4.0,1.0,1.6,0.3,Time
,,S26,1,,,anonymized,Serial_Dependence_U,2023.2.3,Win32,59.17159763315647,,,,,,3426.748200000048,140.0,7.0,3426.7482999999525,140.0,,,,3430.350700000048,3430.8502999999523,3429.8375,3430.3505999999047,3427.772200000048,3429.8374000000954,3430.8502999999523,3431.3515,3431.3515,3434.8417999999524,2900.0,3434.8417999999524,5.0,3434.8480999999047,7.0,27.0,237.0,1.0,1.0,1.0,0.3,Time
,,S26,1,,,anonymized,Serial_Dependence_U,2023.2.3,Win32,59.17159763315647,,,,,,3434.848400000096,186.0,7.0,3434.848400000096,186.0,,,,3438.609200000048,3439.103299999952,3438.091200000048,3438.609200000048,3435.8525999999047,3438.0910999999046,3439.1034000000955,3439.6035,3439.6035,3443.931799999952,3419.0,3443.931799999952,5.0,3443.9509000000958,7.0,28.0,238.0,7.0,1.0,1.2,0.7,Time
,,S26,1,,,anonymized,Serial_Dependence_U,2023.2.3,Win32,59.17159763315647,,,,,,3443.951200000048,38.0,7.0,3443.9514000000954,38.0,,,,3447.9297000000474,3448.4272000000474,3447.424200000048,3447.9295999999044,3444.96,3447.4239000000957,3448.4272000000474,3448.9225999999044,3448.922700000048,3452.8470999999045,3368.0,3452.8472000000475,5.0,3452.853900000095,7.0,29.0,239.0,23.0,1.0,1.4,0.3,Time
,,S26,1,,,anonymized,Serial_Dependence_U,2023.2.3,Win32,59.17159763315647,,,,,,3452.8540999999045,114.0,8.0,3458.2620999999044,114.0,s,5.369299999952091,,3461.61,3462.108799999952,3461.1004000000958,3461.6099000000954,3459.2652999999523,3461.100200000048,3462.108900000095,3462.6127000000474,3462.6127000000474,3465.500200000048,2483.0,3465.500200000048,5.0,3465.5064000000957,8.0,0.0,240.0,25.0,1.0,0.8,0.7,Time
,,S26,1,,,anonymized,Serial_Dependence_U,2023.2.3,Win32,59.17159763315647,,,,,,3465.5065999999047,19.0,8.0,3465.507299999952,19.0,,,,3469.045799999952,3469.5444000000957,3468.536200000048,3469.0457000000474,3466.5017000000475,3468.536,3469.5445,3470.0467999999523,3470.0467999999523,3473.9042999999524,2866.0,3473.9042999999524,5.0,3473.9115,8.0,1.0,241.0,26.0,1.0,1.0,0.7,Time
,,S26,1,,,anonymized,Serial_Dependence_U,2023.2.3,Win32,59.17159763315647,,,,,,3473.9117000000474,128.0,8.0,3473.911900000095,128.0,,,,3477.9050999999045,3478.398,3477.386,3477.905,3474.9150999999047,3477.386,3478.3980999999044,3478.8972999999523,3478.8972999999523,3482.0382999999524,2583.0,3482.0382999999524,5.0,3482.045299999952,8.0,2.0,242.0,3.0,1.0,1.4,0.3,Time
,,S26,1,,,anonymized,Serial_Dependence_U,2023.2.3,Win32,59.17159763315647,,,,,,3482.0455999999044,280.0,8.0,3482.0455999999044,280.0,,,,3485.4232000000475,3485.916299999952,3484.915700000048,3485.4230999999045,3483.049,3484.9155999999048,3485.916299999952,3486.4180999999044,3486.4180999999044,3490.624400000095,3101.0,3490.624400000095,5.0,3490.630799999952,8.0,3.0,243.0,0.0,1.0,0.8,0.3,Time
,,S26,1,,,anonymized,Serial_Dependence_U,2023.2.3,Win32,59.17159763315647,,,,,,3490.631,310.0,8.0,3490.631099999905,310.0,,,,3494.8207000000475,3495.3190999999047,3494.301400000096,3494.8205,3491.6377000000475,3494.3012999999523,3495.3190999999047,3495.819799999952,3495.8199000000955,3498.8527999999524,2668.0,3498.8527999999524,5.0,3498.859,8.0,4.0,244.0,4.0,1.0,1.6,0.3,Time
,,S26,1,,,anonymized,Serial_Dependence_U,2023.2.3,Win32,59.17159763315647,,,,,,3498.859200000048,290.0,8.0,3498.8592999999523,290.0,,,,3503.036900000095,3503.5375999999046,3502.520700000048,3503.036799999952,3499.8530999999048,3502.520700000048,3503.537700000048,3504.0377999999523,3504.0377999999523,3509.139,3995.0,3509.139,5.0,3509.1459000000955,8.0,5.0,245.0,24.0,1.0,1.6,0.3,Time
,,S26,1,,,anonymized,Serial_Dependence_U,2023.2.3,Win32,59.17159763315647,,,,,,3509.1460999999044,225.0,8.0,3509.1460999999044,225.0,,,,3512.523400000095,3513.023799999952,3512.008400000095,3512.523299999952,3510.1415999999044,3512.008299999952,3513.023900000095,3513.5232000000474,3513.5232000000474,3516.874299999952,2874.0,3516.874299999952,5.0,3516.885599999905,8.0,6.0,246.0,10.0,1.0,0.8,0.3,Time
,,S26,1,,,anonymized,Serial_Dependence_U,2023.2.3,Win32,59.17159763315647,,,,,,3516.8859000000957,58.0,8.0,3516.886,58.0,,,,3521.0267999999523,3521.525900000095,3520.525900000095,3521.026700000048,3517.8942000000475,3520.525900000095,3521.526,3522.0255999999044,3522.0255999999044,3526.2985,3859.0,3526.2985999999046,5.0,3526.315,8.0,7.0,247.0,19.0,1.0,1.6,0.7,Time
,,S26,1,,,anonymized,Serial_Dependence_U,2023.2.3,Win32,59.17159763315647,,,,,,3526.315299999952,303.0,8.0,3526.3154000000955,303.0,,,,3530.099400000095,3530.5955999999046,3529.595,3530.0992000000474,3527.3289000000955,3529.595,3530.595700000048,3531.096,3531.0960999999047,3534.647400000096,3065.0,3534.6475,5.0,3534.6660999999044,8.0,8.0,248.0,12.0,1.0,1.2,0.3,Time
,,S26,1,,,anonymized,Serial_Dependence_U,2023.2.3,Win32,59.17159763315647,,,,,,3534.666400000095,138.0,8.0,3534.6665,138.0,,,,3538.0470999999047,3538.5482000000475,3537.5467999999523,3538.0470999999047,3535.679799999952,3537.546700000048,3538.5482000000475,3539.0475,3539.0475999999044,3542.882900000095,3372.0,3542.883,5.0,3542.891299999952,8.0,9.0,249.0,20.0,1.0,0.8,0.3,Time
,,S26,1,,,anonymized,Serial_Dependence_U,2023.2.3,Win32,59.17159763315647,,,,,,3542.8915999999044,198.0,8.0,3542.8915999999044,198.0,,,,3547.086400000095,3547.584900000096,3546.567799999952,3547.086299999952,3543.8985,3546.567700000048,3547.584900000096,3548.082200000048,3548.0822999999523,3551.4167000000475,3047.0,3551.416799999952,5.0,3551.423299999952,8.0,10.0,250.0,14.0,1.0,1.6,0.3,Time
,,S26,1,,,anonymized,Serial_Dependence_U,2023.2.3,Win32,59.17159763315647,,,,,,3551.4235,76.0,8.0,3551.4235999999046,76.0,,,,3555.001599999905,3555.5019000000952,3554.4849000000954,3555.001599999905,3552.4220999999047,3554.4849000000954,3555.502,3556.0020999999047,3556.002200000048,3558.585799999952,2182.0,3558.585799999952,5.0,3558.592299999952,8.0,11.0,251.0,1.0,1.0,1.0,0.3,Time
,,S26,1,,,anonymized,Serial_Dependence_U,2023.2.3,Win32,59.17159763315647,,,,,,3558.5925,58.0,8.0,3558.5925999999045,58.0,,,,3562.7589000000958,3563.253900000095,3562.2374000000955,3562.7587999999523,3559.6042000000475,3562.2374000000955,3563.253900000095,3563.753,3563.753,3567.7394000000954,3264.0,3567.7395,5.0,3567.753299999952,8.0,12.0,252.0,9.0,1.0,1.6,0.7,Time
,,S26,1,,,anonymized,Serial_Dependence_U,2023.2.3,Win32,59.17159763315647,,,,,,3567.7535999999045,312.0,8.0,3567.7537000000475,312.0,,,,3571.7080999999043,3572.2062000000474,3571.2062000000474,3571.708,3568.7735999999045,3571.2062000000474,3572.206299999952,3572.706,3572.706,3576.507900000095,3295.0,3576.507900000095,5.0,3576.5145999999045,8.0,13.0,253.0,18.0,1.0,1.4,0.7,Time
,,S26,1,,,anonymized,Serial_Dependence_U,2023.2.3,Win32,59.17159763315647,,,,,,3576.514799999952,316.0,8.0,3576.514900000095,316.0,,,,3580.4585,3580.960900000095,3579.942,3580.4584000000955,3577.5095,3579.942,3580.960900000095,3581.457700000048,3581.4577999999524,3584.9429000000955,2913.0,3584.9429000000955,5.0,3584.9495999999044,8.0,14.0,254.0,28.0,1.0,1.4,0.7,Time
,,S26,1,,,anonymized,Serial_Dependence_U,2023.2.3,Win32,59.17159763315647,,,,,,3584.949799999952,70.0,8.0,3584.949799999952,70.0,,,,3588.7442000000474,3589.2439000000954,3588.2292000000475,3588.7440999999044,3585.9610999999045,3588.229,3589.2439000000954,3589.743400000096,3589.743400000096,3593.396,3197.0,3593.3960999999044,5.0,3593.4027000000474,8.0,15.0,255.0,2.0,1.0,1.2,0.3,Time
,,S26,1,,,anonymized,Serial_Dependence_U,2023.2.3,Win32,59.17159763315647,,,,,,3593.402799999952,124.0,8.0,3593.402900000095,124.0,,,,3596.947299999952,3597.4467999999524,3596.4312999999524,3596.947299999952,3594.3979000000954,3596.431200000048,3597.4469000000954,3597.947,3597.947,3601.1209000000954,2991.0,3601.1209000000954,5.0,3601.127200000048,8.0,16.0,256.0,6.0,1.0,1.0,0.7,Time
,,S26,1,,,anonymized,Serial_Dependence_U,2023.2.3,Win32,59.17159763315647,,,,,,3601.127400000096,160.0,8.0,3601.127400000096,160.0,,,,3605.081799999952,3605.5825,3604.5705,3605.081700000048,3602.136799999952,3604.5705,3605.5825999999047,3606.081599999905,3606.081799999952,3610.057099999905,3728.0,3610.057200000048,5.0,3610.071700000048,8.0,17.0,257.0,8.0,1.0,1.4,0.7,Time
,,S26,1,,,anonymized,Serial_Dependence_U,2023.2.3,Win32,59.17159763315647,,,,,,3610.071900000096,84.0,8.0,3610.072,84.0,,,,3613.835599999904,3614.334099999905,3613.319700000048,3613.8355,3611.085900000095,3613.3195999999048,3614.334099999905,3614.839299999952,3614.839299999952,3618.274900000096,2984.0,3618.274900000096,5.0,3618.2815,8.0,18.0,258.0,27.0,1.0,1.2,0.7,Time
