Scale_setup.started,Scale_setup.stopped,participant,session,sex,age,date,expName,psychopyVersion,OS,frameRate,Intro.started,Intro.stopped,key_resp_2.keys,key_resp_2.rt,key_resp_2.duration,block.started,direction,Block_id,block.stopped,trial_direction,Block_resp_2.keys,Block_resp_2.rt,Block_resp_2.duration,ITI.started,ITI.stopped,Mask_2.started,Mask_2.stopped,encoding.started,encoding.stopped,Cue.started,Cue.stopped,Response.started,Response.stopped,keyDuration,Feedback_Time.started,FeedbackID_T,Feedback_Time.stopped,trials.thisRepN,trials.thisTrialN,trials.thisN,trials.thisIndex,trials.ran,TimeDur,Coherence1,TrialType
0.0002000000476698,0.0004000000953681,S30,1,女,20,anonymized,Serial_Dependence_U,2023.2.3,Win32,59.52380952374765,,,,,,,,,,,,,,,,,,,,,,,,,,,,,,,,,,,
,,S30,1,女,20,anonymized,Serial_Dependence_U,2023.2.3,Win32,59.52380952374765,152.96190000009537,301.4955,space,148.50959999990465,,,,,,,,,,,,,,,,,,,,,,,,,,,,,,,
,,S30,1,女,20,anonymized,Serial_Dependence_U,2023.2.3,Win32,59.52380952374765,,,,,,301.5157000000477,297.0,0.0,306.9227999999524,297.0,s,5.38859999990467,,310.71320000004766,311.2054999999999,310.1974999999999,310.713,307.9309999999999,310.1972999999523,311.2057000000476,311.7057999999522,311.7062000000476,317.0569999999999,3463.0,317.0579000000953,5.0,318.0462999999522,0.0,0.0,0.0,2.0,1.0,1.2,0.3,Time
,,S30,1,女,20,anonymized,Serial_Dependence_U,2023.2.3,Win32,59.52380952374765,,,,,,318.0474000000953,210.0,0.0,318.05049999999994,210.0,,,,321.81479999995224,322.3069000000953,321.2969999999999,321.81459999990454,319.0632000000476,321.2969000000953,322.3069999999999,322.79620000004763,322.7962999999522,327.56459999990454,4251.0,327.56479999995224,5.0,328.5577000000476,0.0,1.0,1.0,27.0,1.0,1.2,0.7,Time
,,S30,1,女,20,anonymized,Serial_Dependence_U,2023.2.3,Win32,59.52380952374765,,,,,,328.5584000000953,58.0,0.0,328.559,58.0,,,,332.1154999999999,332.6090999999045,331.59770000004767,332.1152999999523,329.56509999990453,331.59759999990456,332.6090999999045,333.1137999999522,333.1139000000953,336.80029999995224,3634.0,336.80049999999994,5.0,337.7982000000476,0.0,2.0,2.0,26.0,1.0,1.0,0.7,Time
,,S30,1,女,20,anonymized,Serial_Dependence_U,2023.2.3,Win32,59.52380952374765,,,,,,337.7989000000953,345.0,0.0,337.7992000000476,345.0,,,,341.7830999999046,342.27570000004766,341.2650999999046,341.7829000000953,338.7995,341.2650999999046,342.27570000004766,342.78070000004766,342.78079999995225,345.4504000000953,2316.0,345.4505999999045,5.0,346.44859999990456,0.0,3.0,3.0,3.0,1.0,1.4,0.3,Time
,,S30,1,女,20,anonymized,Serial_Dependence_U,2023.2.3,Win32,59.52380952374765,,,,,,346.44959999990454,307.0,0.0,346.4502999999522,307.0,,,,350.4,350.8939000000953,349.8839999999999,350.3997999999523,347.4500999999045,349.8839000000953,350.8940999999046,351.3995,351.3997000000476,355.26720000004764,3767.0,355.26740000009534,5.0,356.261,0.0,4.0,4.0,18.0,1.0,1.4,0.7,Time
,,S30,1,女,20,anonymized,Serial_Dependence_U,2023.2.3,Win32,59.52380952374765,,,,,,356.2615,105.0,0.0,356.2619000000953,105.0,,,,359.818,360.3117999999522,359.3015999999045,359.8177999999523,357.26670000004765,359.3014999999999,360.3119000000953,360.8172000000476,360.8172000000476,365.2019999999999,4034.0,365.2020999999046,5.0,366.1957999999522,0.0,5.0,5.0,16.0,1.0,1.0,0.7,Time
,,S30,1,女,20,anonymized,Serial_Dependence_U,2023.2.3,Win32,59.52380952374765,,,,,,366.1965999999046,288.0,0.0,366.1967999999523,288.0,,,,370.16979999995226,370.6687999999523,369.6692000000476,370.16970000004767,367.2017999999523,369.6690999999046,370.6689000000953,371.1627999999522,371.1629000000953,374.8202999999522,3568.0,374.8204000000953,5.0,375.8135,0.0,6.0,6.0,23.0,1.0,1.4,0.3,Time
,,S30,1,女,20,anonymized,Serial_Dependence_U,2023.2.3,Win32,59.52380952374765,,,,,,375.81420000004766,122.0,0.0,375.8147000000477,122.0,,,,380.0034000000953,380.49709999990455,379.48709999990456,380.0032999999522,376.8212000000476,379.487,380.49709999990455,380.9854999999999,380.9854999999999,385.9560999999046,4617.0,385.9564000000953,5.0,386.9482000000476,0.0,7.0,7.0,24.0,1.0,1.6,0.3,Time
,,S30,1,女,20,anonymized,Serial_Dependence_U,2023.2.3,Win32,59.52380952374765,,,,,,386.9489000000953,46.0,0.0,386.94920000004765,46.0,,,,390.7220999999046,391.2154999999999,390.2059999999999,390.722,387.9720999999046,390.2059000000953,391.2154999999999,391.7039000000953,391.704,396.2399999999999,4201.0,396.2400999999046,5.0,397.23290000009536,0.0,8.0,8.0,17.0,1.0,1.2,0.7,Time
,,S30,1,女,20,anonymized,Serial_Dependence_U,2023.2.3,Win32,59.52380952374765,,,,,,397.2337999999522,148.0,0.0,397.2340999999045,148.0,,,,401.1902999999522,401.6872000000476,400.6734999999999,401.1902000000477,398.2399999999999,400.6734000000953,401.6872000000476,402.1827999999523,402.1829000000953,406.7589000000953,4534.0,406.7590999999046,5.0,407.7507000000476,0.0,9.0,9.0,28.0,1.0,1.4,0.7,Time
,,S30,1,女,20,anonymized,Serial_Dependence_U,2023.2.3,Win32,59.52380952374765,,,,,,407.75170000004766,55.0,0.0,407.752,55.0,,,,411.70890000009535,412.2012000000476,411.1919000000953,411.70870000004766,408.7565,411.1917000000476,412.2012000000476,412.7014999999999,412.7017000000476,417.0429000000953,4316.0,417.0430999999046,5.0,418.03579999995225,0.0,10.0,10.0,8.0,1.0,1.4,0.7,Time
,,S30,1,女,20,anonymized,Serial_Dependence_U,2023.2.3,Win32,59.52380952374765,,,,,,418.0367000000476,117.0,0.0,418.0375999999046,117.0,,,,422.2252999999522,422.7237999999522,421.7097999999522,422.2250999999046,419.0412000000477,421.7097999999522,422.72390000009534,423.222,423.2220999999046,427.0432000000476,3300.0,427.0434000000953,5.0,428.0367999999522,0.0,11.0,11.0,4.0,1.0,1.6,0.3,Time
,,S30,1,女,20,anonymized,Serial_Dependence_U,2023.2.3,Win32,59.52380952374765,,,,,,428.0375999999046,316.0,0.0,428.0377999999522,316.0,,,,432.1945,432.6865999999046,431.6784000000953,432.1945,429.0437000000476,431.6779999999999,432.6867000000476,433.1922999999523,433.1924000000953,437.6634999999999,4135.0,437.6635999999046,5.0,438.66059999990455,0.0,12.0,12.0,29.0,1.0,1.6,0.7,Time
,,S30,1,女,20,anonymized,Serial_Dependence_U,2023.2.3,Win32,59.52380952374765,,,,,,438.66140000009534,240.0,0.0,438.6617999999522,240.0,,,,442.4459999999999,442.938,441.9292000000477,442.4457999999522,439.6619000000953,441.92909999990457,442.938,443.4382000000476,443.4382000000476,448.9807000000476,4068.0,448.9807999999523,5.0,449.9722000000476,0.0,13.0,13.0,12.0,1.0,1.2,0.3,Time
,,S30,1,女,20,anonymized,Serial_Dependence_U,2023.2.3,Win32,59.52380952374765,,,,,,449.9729000000953,47.0,0.0,449.97340000009535,47.0,,,,453.32940000009535,453.8290999999045,452.8132999999523,453.3292999999522,450.9805999999046,452.8130999999046,453.8292000000477,454.3282000000477,454.32829999995226,470.94879999995226,3368.0,470.94879999995226,5.0,471.9414000000953,0.0,14.0,14.0,25.0,1.0,0.8,0.7,Time
,,S30,1,女,20,anonymized,Serial_Dependence_U,2023.2.3,Win32,59.52380952374765,,,,,,471.9419000000953,82.0,0.0,471.9422000000476,82.0,,,,475.73209999990456,476.2252000000476,475.21790000009526,475.732,472.9485,475.2175,476.2252000000476,476.7252999999522,476.7254000000953,480.8022000000476,3669.0,480.8024000000953,5.0,481.7927999999522,0.0,15.0,15.0,22.0,1.0,1.2,0.3,Time
,,S30,1,女,20,anonymized,Serial_Dependence_U,2023.2.3,Win32,59.52380952374765,,,,,,481.7934999999999,108.0,0.0,481.7939000000953,108.0,,,,485.1835,485.6765999999045,484.6670999999046,485.1834000000953,482.799,484.6669999999999,485.6767000000476,486.1769999999999,486.1770999999046,489.4169999999999,3084.0,489.4170999999046,5.0,490.4110999999045,0.0,16.0,16.0,20.0,1.0,0.8,0.3,Time
,,S30,1,女,20,anonymized,Serial_Dependence_U,2023.2.3,Win32,59.52380952374765,,,,,,490.4124000000953,342.0,0.0,490.4129999999999,342.0,,,,494.56990000009534,495.0669000000953,494.0514000000953,494.5697999999522,491.4170999999046,494.0512000000476,495.0669000000953,495.5652999999522,495.56540000009534,499.9687000000477,3950.0,499.9687999999522,5.0,500.9615999999046,0.0,17.0,17.0,9.0,1.0,1.6,0.7,Time
,,S30,1,女,20,anonymized,Serial_Dependence_U,2023.2.3,Win32,59.52380952374765,,,,,,500.9620999999046,238.0,0.0,500.96259999990457,238.0,,,,504.50179999995225,504.9955999999046,504.0005999999046,504.50170000004766,501.9694000000953,504.0005999999046,504.9957000000476,505.4839000000953,505.4839000000953,509.9692999999522,3952.0,509.9694999999999,5.0,510.96279999995227,0.0,18.0,18.0,6.0,1.0,1.0,0.7,Time
,,S30,1,女,20,anonymized,Serial_Dependence_U,2023.2.3,Win32,59.52380952374765,,,,,,510.96320000004766,92.0,0.0,510.9634000000953,92.0,,,,514.3214000000953,514.8135,513.8042000000477,514.3212999999522,511.9702000000476,513.8039000000953,514.8135,515.3159999999999,515.3160999999045,520.0197999999523,3583.0,520.0197999999523,5.0,521.0192000000476,0.0,19.0,19.0,5.0,1.0,0.8,0.7,Time
,,S30,1,女,20,anonymized,Serial_Dependence_U,2023.2.3,Win32,59.52380952374765,,,,,,521.0195999999046,355.0,0.0,521.0197999999523,355.0,,,,524.7552000000476,525.2477000000476,524.2539000000953,524.7550999999046,522.0212999999522,524.2537000000476,525.2477999999522,525.7480999999045,525.7482000000476,529.3722999999522,3599.0,529.3725,5.0,530.3657000000476,0.0,20.0,20.0,7.0,1.0,1.2,0.7,Time
,,S30,1,女,20,anonymized,Serial_Dependence_U,2023.2.3,Win32,59.52380952374765,,,,,,530.3664000000953,216.0,0.0,530.3667999999523,216.0,,,,533.9549000000953,534.4487999999523,533.4395,533.9547999999522,531.3725,533.4392999999523,534.4487999999523,534.9495,534.9495999999045,539.0405,3384.0,539.0405999999045,5.0,540.0397999999523,0.0,21.0,21.0,11.0,1.0,1.0,0.3,Time
,,S30,1,女,20,anonymized,Serial_Dependence_U,2023.2.3,Win32,59.52380952374765,,,,,,540.0405999999045,263.0,0.0,540.0409000000953,263.0,,,,544.2247000000476,544.7170999999046,543.7072000000476,544.2244999999999,541.0407000000477,543.7070999999046,544.7172000000476,545.2172999999523,545.2174000000953,549.6585999999046,4101.0,549.6587999999523,5.0,550.6514999999999,0.0,22.0,22.0,14.0,1.0,1.6,0.3,Time
,,S30,1,女,20,anonymized,Serial_Dependence_U,2023.2.3,Win32,59.52380952374765,,,,,,550.6522999999522,31.0,0.0,550.6527999999522,31.0,,,,554.6415999999045,555.1352000000476,554.1259000000953,554.6414000000952,551.6584999999999,554.1255999999046,555.1352000000476,555.6355,555.6355999999046,560.2102999999522,4251.0,560.2107000000476,5.0,561.2082999999523,0.0,23.0,23.0,13.0,1.0,1.4,0.3,Time
,,S30,1,女,20,anonymized,Serial_Dependence_U,2023.2.3,Win32,59.52380952374765,,,,,,561.2087999999522,245.0,0.0,561.2089000000954,245.0,,,,564.8089000000953,565.3027999999523,564.2919999999999,564.8087999999523,562.2265,564.2919000000953,565.3029000000953,565.8029000000953,565.8029999999999,569.6624999999999,3385.0,569.6625999999046,5.0,570.6535999999046,0.0,24.0,24.0,1.0,1.0,1.0,0.3,Time
,,S30,1,女,20,anonymized,Serial_Dependence_U,2023.2.3,Win32,59.52380952374765,,,,,,570.6544000000953,347.0,0.0,570.6550999999046,347.0,,,,574.2444999999999,574.7370999999046,573.7275999999046,574.2444000000953,571.6599000000953,573.7275,574.7372000000477,575.2372999999523,575.2375,578.9622999999523,3701.0,578.9624000000953,5.0,579.9607000000476,0.0,25.0,25.0,21.0,1.0,1.0,0.3,Time
,,S30,1,女,20,anonymized,Serial_Dependence_U,2023.2.3,Win32,59.52380952374765,,,,,,579.9612999999523,250.0,0.0,579.9614999999999,250.0,,,,584.1125,584.6054000000953,583.5949999999999,584.1122999999523,580.9624000000953,583.5949000000953,584.6054000000953,585.1059000000953,585.1059000000953,589.9965,4451.0,589.9967000000477,5.0,590.9894999999999,0.0,26.0,26.0,19.0,1.0,1.6,0.7,Time
,,S30,1,女,20,anonymized,Serial_Dependence_U,2023.2.3,Win32,59.52380952374765,,,,,,590.9904000000953,239.0,0.0,590.9907999999523,239.0,,,,594.3640999999045,594.8565,593.8630999999045,594.3639999999999,591.9965999999046,593.8629000000954,594.8565999999046,595.3597999999522,595.3599999999999,599.0162000000477,3368.0,599.0164000000952,5.0,600.007,0.0,27.0,27.0,0.0,1.0,0.8,0.3,Time
,,S30,1,女,20,anonymized,Serial_Dependence_U,2023.2.3,Win32,59.52380952374765,,,,,,600.0077000000476,270.0,0.0,600.0082000000476,270.0,,,,603.3639999999999,603.8574000000953,602.8477999999523,603.3637999999522,601.0135999999046,602.8477000000477,603.8575,604.358,604.3582000000476,608.0824000000953,3317.0,608.0827000000476,5.0,609.0749000000953,0.0,28.0,28.0,15.0,1.0,0.8,0.7,Time
,,S30,1,女,20,anonymized,Serial_Dependence_U,2023.2.3,Win32,59.52380952374765,,,,,,609.0754999999999,208.0,0.0,609.0757000000476,208.0,,,,612.4654999999999,612.9644000000953,611.9492999999522,612.4654999999999,610.0809999999999,611.9492000000477,612.9644000000953,613.4589000000954,613.459,617.5007000000476,3768.0,617.5007999999523,5.0,618.4925,0.0,29.0,29.0,10.0,1.0,0.8,0.3,Time
,,S30,1,女,20,anonymized,Serial_Dependence_U,2023.2.3,Win32,59.52380952374765,,,,,,618.4932999999522,271.0,1.0,710.0152999999523,271.0,s,91.49220000004776,,713.9957999999523,714.4912999999523,713.4797000000476,713.9952000000476,711.0104000000953,713.4794999999999,714.4914000000953,714.9924000000952,714.9924000000952,718.8617999999523,3835.0,718.862,5.0,718.8682999999522,1.0,0.0,30.0,23.0,1.0,1.4,0.3,Time
,,S30,1,女,20,anonymized,Serial_Dependence_U,2023.2.3,Win32,59.52380952374765,,,,,,718.8685999999045,124.0,1.0,718.8700999999046,124.0,,,,723.0292000000476,723.5219999999999,722.5120999999045,723.0289999999999,719.8787999999522,722.5120999999045,723.5219999999999,724.0219000000953,724.0219999999999,737.8807000000476,4317.0,737.8807999999523,5.0,737.8877000000476,1.0,1.0,31.0,29.0,1.0,1.6,0.7,Time
,,S30,1,女,20,anonymized,Serial_Dependence_U,2023.2.3,Win32,59.52380952374765,,,,,,737.8879000000953,14.0,1.0,737.8879999999999,14.0,,,,741.8635999999045,742.3615,741.3480999999045,741.8634999999999,738.8797999999523,741.3479000000953,742.3615,742.8622000000477,742.8622999999523,751.1144000000953,3683.0,751.1144000000953,5.0,751.1197000000476,1.0,2.0,32.0,13.0,1.0,1.4,0.3,Time
,,S30,1,女,20,anonymized,Serial_Dependence_U,2023.2.3,Win32,59.52380952374765,,,,,,751.1199000000953,74.0,1.0,751.1199999999999,74.0,,,,755.2645999999046,755.7630999999045,754.7480999999045,755.2644999999999,752.1147000000476,754.7479999999999,755.7630999999045,756.2642999999523,756.2644000000953,761.1012000000476,3652.0,761.1012000000476,5.0,761.1104999999999,1.0,3.0,33.0,19.0,1.0,1.6,0.7,Time
,,S30,1,女,20,anonymized,Serial_Dependence_U,2023.2.3,Win32,59.52380952374765,,,,,,761.1109000000953,195.0,1.0,761.1110999999046,195.0,,,,764.685,765.1774999999999,764.1837999999523,764.6847999999522,762.1179999999999,764.1837000000476,765.1774999999999,765.6769999999999,765.6770999999046,769.4184000000953,3017.0,769.4185999999046,5.0,769.4282000000476,1.0,4.0,34.0,11.0,1.0,1.0,0.3,Time
,,S30,1,女,20,anonymized,Serial_Dependence_U,2023.2.3,Win32,59.52380952374765,,,,,,769.4285,310.0,1.0,769.4285999999046,310.0,,,,773.2012999999522,773.6947999999522,772.6999000000953,773.2012000000476,770.435,772.6997999999522,773.6949000000953,774.1992999999522,774.1992999999522,777.7359999999999,3368.0,777.7362000000476,5.0,777.7495999999046,1.0,5.0,35.0,22.0,1.0,1.2,0.3,Time
,,S30,1,女,20,anonymized,Serial_Dependence_U,2023.2.3,Win32,59.52380952374765,,,,,,777.7499999999999,207.0,1.0,777.7502000000476,207.0,,,,781.1352999999523,781.6289000000953,780.6192999999522,781.1352000000476,778.7537999999522,780.6192000000476,781.6290999999046,782.1289999999999,782.1290999999046,785.7369000000953,3451.0,785.7372000000477,5.0,785.7474000000954,1.0,6.0,36.0,0.0,1.0,0.8,0.3,Time
,,S30,1,女,20,anonymized,Serial_Dependence_U,2023.2.3,Win32,59.52380952374765,,,,,,785.7475999999045,42.0,1.0,785.7477000000476,42.0,,,,789.3210999999046,789.8132999999523,788.8199999999999,789.3209999999999,786.7539000000953,788.8199000000953,789.8134000000953,790.3020999999046,790.3020999999046,794.7042000000476,4267.0,794.7044000000953,5.0,794.7159999999999,1.0,7.0,37.0,1.0,1.0,1.0,0.3,Time
,,S30,1,女,20,anonymized,Serial_Dependence_U,2023.2.3,Win32,59.52380952374765,,,,,,794.7162999999523,178.0,1.0,794.7164999999999,178.0,,,,798.9049000000953,799.4032999999522,798.3887999999522,798.9047999999523,795.7209999999999,798.3887000000476,799.4034000000953,799.8979999999999,799.8980999999046,804.7235,4751.0,804.7237000000476,5.0,804.7332000000476,1.0,8.0,38.0,24.0,1.0,1.6,0.3,Time
,,S30,1,女,20,anonymized,Serial_Dependence_U,2023.2.3,Win32,59.52380952374765,,,,,,804.7334000000953,248.0,1.0,804.7335999999045,248.0,,,,808.6747000000477,809.1657000000477,808.1737000000476,808.6745999999046,805.7372000000477,808.1734999999999,809.1657999999522,809.6539999999999,809.6542000000476,813.5572999999522,3633.0,813.5575999999046,5.0,813.5687000000477,1.0,9.0,39.0,8.0,1.0,1.4,0.7,Time
,,S30,1,女,20,anonymized,Serial_Dependence_U,2023.2.3,Win32,59.52380952374765,,,,,,813.5689000000953,92.0,1.0,813.569,92.0,,,,816.9245,817.4162999999523,816.4069999999999,816.9242999999523,814.5739000000953,816.4067999999522,817.4162999999523,817.9200999999046,817.9200999999046,820.907,2900.0,820.9070999999047,5.0,820.9137999999524,1.0,10.0,40.0,15.0,1.0,0.8,0.7,Time
,,S30,1,女,20,anonymized,Serial_Dependence_U,2023.2.3,Win32,59.52380952374765,,,,,,820.9140999999046,219.0,1.0,820.9142000000478,219.0,,,,824.3085,824.8009000000953,823.7905999999047,824.3082999999523,821.9237999999524,823.7905999999047,824.801,825.3055999999048,825.3057000000478,829.5764000000953,3250.0,829.5765999999047,5.0,829.5865999999047,1.0,11.0,41.0,20.0,1.0,0.8,0.3,Time
,,S30,1,女,20,anonymized,Serial_Dependence_U,2023.2.3,Win32,59.52380952374765,,,,,,829.5867999999524,347.0,1.0,829.5870000000001,347.0,,,,833.7590000000001,834.2539000000953,833.2570999999047,833.7589000000954,830.5919000000955,833.257,834.254,834.7522000000478,834.7524000000955,841.0445999999048,4134.0,841.0447999999523,5.0,841.0555,1.0,12.0,42.0,4.0,1.0,1.6,0.3,Time
,,S30,1,女,20,anonymized,Serial_Dependence_U,2023.2.3,Win32,59.52380952374765,,,,,,841.0557000000478,186.0,1.0,841.0557999999525,186.0,,,,844.6125999999048,845.103,844.0927999999523,844.6125000000001,842.0595,844.0925999999048,845.103,845.6035,845.6035,854.7115,3484.0,854.7115999999047,5.0,854.7207999999524,1.0,13.0,43.0,26.0,1.0,1.0,0.7,Time
,,S30,1,女,20,anonymized,Serial_Dependence_U,2023.2.3,Win32,59.52380952374765,,,,,,854.7210999999046,117.0,1.0,854.7212000000478,117.0,,,,858.7112000000478,859.2050999999047,858.1952000000477,858.7110999999046,855.7290999999046,858.1950999999048,859.2050999999047,859.7049000000953,859.705,864.3135000000001,4383.0,864.3137000000478,5.0,864.3237000000478,1.0,14.0,44.0,3.0,1.0,1.4,0.3,Time
,,S30,1,女,20,anonymized,Serial_Dependence_U,2023.2.3,Win32,59.52380952374765,,,,,,864.324,183.0,1.0,864.3240999999047,183.0,,,,867.6785999999046,868.1767999999523,867.1630999999046,867.6785999999046,865.3227999999523,867.1630000000001,868.1769000000953,868.6725,868.6725,872.697,3684.0,872.697,5.0,872.7064000000954,1.0,15.0,45.0,5.0,1.0,0.8,0.7,Time
,,S30,1,女,20,anonymized,Serial_Dependence_U,2023.2.3,Win32,59.52380952374765,,,,,,872.7067000000478,144.0,1.0,872.7067999999523,144.0,,,,876.2625999999046,876.7572999999524,875.7472999999524,876.2625000000002,873.7117000000477,875.7472000000477,876.7575,877.2452000000477,877.2452999999524,882.0985,4267.0,882.0987000000476,5.0,882.1090999999047,1.0,16.0,46.0,16.0,1.0,1.0,0.7,Time
,,S30,1,女,20,anonymized,Serial_Dependence_U,2023.2.3,Win32,59.52380952374765,,,,,,882.1094000000954,354.0,1.0,882.1095000000001,354.0,,,,885.6990999999047,886.1914000000953,885.1819000000954,885.6989000000955,883.1142999999523,885.1817000000477,886.1914000000953,886.6972999999524,886.6972999999524,901.4509000000954,3984.0,901.451,5.0,901.4605,1.0,17.0,47.0,21.0,1.0,1.0,0.3,Time
,,S30,1,女,20,anonymized,Serial_Dependence_U,2023.2.3,Win32,59.52380952374765,,,,,,901.4607999999524,153.0,1.0,901.461,153.0,,,,905.6004000000954,906.0992000000476,905.099,905.6002999999524,902.4669000000956,905.0989000000952,906.0992000000476,906.5995,906.5995,917.2685,3551.0,917.2685999999048,5.0,917.2760999999048,1.0,18.0,48.0,9.0,1.0,1.6,0.7,Time
,,S30,1,女,20,anonymized,Serial_Dependence_U,2023.2.3,Win32,59.52380952374765,,,,,,917.2765,60.0,1.0,917.2765999999048,60.0,,,,921.0359000000956,921.5295999999048,920.5199000000954,921.0357999999524,918.2852999999524,920.5195999999048,921.5297000000476,922.029,922.029,928.9380999999048,3685.0,928.9382999999524,5.0,928.9477999999524,1.0,19.0,49.0,27.0,1.0,1.2,0.7,Time
,,S30,1,女,20,anonymized,Serial_Dependence_U,2023.2.3,Win32,59.52380952374765,,,,,,928.9480999999048,85.0,1.0,928.9482000000476,85.0,,,,933.1212999999524,933.6197000000478,932.6195999999046,933.1212000000476,929.9482000000476,932.6195,933.6197000000478,934.1197000000478,934.1197999999524,938.6060999999046,4285.0,938.6062999999524,5.0,938.6195,1.0,20.0,50.0,14.0,1.0,1.6,0.3,Time
,,S30,1,女,20,anonymized,Serial_Dependence_U,2023.2.3,Win32,59.52380952374765,,,,,,938.6199000000956,223.0,1.0,938.62,223.0,,,,941.9555,942.4492999999524,941.4545999999046,941.9554000000954,939.6217999999524,941.4545999999046,942.4492999999524,942.949,942.9490999999048,947.0405999999048,3200.0,947.0407000000477,5.0,947.0530999999048,1.0,21.0,51.0,25.0,1.0,0.8,0.7,Time
,,S30,1,女,20,anonymized,Serial_Dependence_U,2023.2.3,Win32,59.52380952374765,,,,,,947.0534000000954,72.0,1.0,947.0535,72.0,,,,951.006,951.4990999999046,950.4895999999048,951.0057999999524,948.0555999999048,950.4895,951.4992999999524,951.9992999999524,951.9995,954.9887999999524,2850.0,954.9887999999524,5.0,954.9970999999048,1.0,22.0,52.0,28.0,1.0,1.4,0.7,Time
,,S30,1,女,20,anonymized,Serial_Dependence_U,2023.2.3,Win32,59.52380952374765,,,,,,954.9974000000954,277.0,1.0,954.9974000000954,277.0,,,,958.7577000000476,959.2502000000478,958.2430999999048,958.7570999999048,956.0065999999048,958.2424000000956,959.2502999999524,959.7502000000478,959.7502999999524,963.3254000000952,3084.0,963.3255,5.0,963.3355999999048,1.0,23.0,53.0,17.0,1.0,1.2,0.7,Time
,,S30,1,女,20,anonymized,Serial_Dependence_U,2023.2.3,Win32,59.52380952374765,,,,,,963.3359000000954,88.0,1.0,963.3359000000954,88.0,,,,967.1090999999049,967.6015,966.6080999999048,967.1089000000952,964.3415999999046,966.6077000000475,967.6015999999046,968.0895000000002,968.0895000000002,978.1599000000956,3051.0,978.1602000000476,5.0,978.1710999999046,1.0,24.0,54.0,12.0,1.0,1.2,0.3,Time
,,S30,1,女,20,anonymized,Serial_Dependence_U,2023.2.3,Win32,59.52380952374765,,,,,,978.1714000000952,340.0,1.0,978.1715,340.0,,,,981.9437999999524,982.4365,981.4267000000476,981.9437000000476,979.193,981.4265999999046,982.4365,982.9410999999046,982.9410999999046,986.1769000000952,3100.0,986.1770999999048,5.0,986.1874000000954,1.0,25.0,55.0,7.0,1.0,1.2,0.7,Time
,,S30,1,女,20,anonymized,Serial_Dependence_U,2023.2.3,Win32,59.52380952374765,,,,,,986.1877000000478,76.0,1.0,986.1877999999524,76.0,,,,989.7447000000478,990.2380999999046,989.2277999999524,989.7445999999046,987.1949000000952,989.2275999999048,990.2382999999523,990.7262000000476,990.7262000000476,1001.0459000000956,2701.0,1001.0459000000956,5.0,1001.0544000000954,1.0,26.0,56.0,6.0,1.0,1.0,0.7,Time
,,S30,1,女,20,anonymized,Serial_Dependence_U,2023.2.3,Win32,59.52380952374765,,,,,,1001.0547000000478,165.0,1.0,1001.0547999999524,165.0,,,,1004.8412999999524,1005.3397999999524,1004.3289000000954,1004.8412000000476,1002.062,1004.3287999999524,1005.3399000000952,1005.8390999999048,1005.8392000000478,1008.6810999999046,2501.0,1008.6812000000476,5.0,1008.6919000000954,1.0,27.0,57.0,2.0,1.0,1.2,0.3,Time
,,S30,1,女,20,anonymized,Serial_Dependence_U,2023.2.3,Win32,59.52380952374765,,,,,,1008.6922000000478,243.0,1.0,1008.6922999999524,243.0,,,,1012.6310999999048,1013.124,1012.1299000000956,1012.6310999999048,1009.6962000000476,1012.1299000000956,1013.124,1013.6289000000952,1013.629,1018.0819000000956,3684.0,1018.0822000000476,5.0,1018.0915999999046,1.0,28.0,58.0,18.0,1.0,1.4,0.7,Time
,,S30,1,女,20,anonymized,Serial_Dependence_U,2023.2.3,Win32,59.52380952374765,,,,,,1018.0917000000478,175.0,1.0,1018.0919000000956,175.0,,,,1021.4977000000478,1021.9909000000954,1020.9815,1021.4972000000477,1019.1142000000476,1020.9812999999524,1021.9909000000954,1022.4910999999046,1022.4910999999046,1035.0489000000955,2916.0,1035.0490000000002,5.0,1035.059200000048,1.0,29.0,59.0,10.0,1.0,0.8,0.3,Time
,,S30,1,女,20,anonymized,Serial_Dependence_U,2023.2.3,Win32,59.52380952374765,,,,,,1035.0595,45.0,2.0,1363.9822999999524,45.0,s,328.90110000014306,,1367.7570999999048,1368.2500000000002,1367.2399000000955,1367.7569000000956,1365.0070999999048,1367.2397999999523,1368.2500000000002,1368.7499000000955,1368.7499000000955,1371.8390999999049,3064.0,1371.8392999999526,5.0,1371.8450999999047,2.0,0.0,60.0,27.0,1.0,1.2,0.7,Time
,,S30,1,女,20,anonymized,Serial_Dependence_U,2023.2.3,Win32,59.52380952374765,,,,,,1371.8452999999524,343.0,2.0,1371.8465,343.0,,,,1375.6415000000002,1376.1334000000954,1375.122700000048,1375.6414000000957,1372.8559000000955,1375.1225999999049,1376.1334000000954,1376.6385999999047,1376.638700000048,1389.4092000000478,3849.0,1389.4092000000478,5.0,1389.4170999999048,2.0,1.0,61.0,12.0,1.0,1.2,0.3,Time
,,S30,1,女,20,anonymized,Serial_Dependence_U,2023.2.3,Win32,59.52380952374765,,,,,,1389.4172999999523,196.0,2.0,1389.4172999999523,196.0,,,,1393.3950999999047,1393.886200000048,1392.8925000000002,1393.3950000000002,1390.4259000000957,1392.8922999999525,1393.886200000048,1394.3750999999047,1394.375200000048,1398.2922000000478,3416.0,1398.2922999999523,5.0,1398.3022000000478,2.0,2.0,62.0,3.0,1.0,1.4,0.3,Time
,,S30,1,女,20,anonymized,Serial_Dependence_U,2023.2.3,Win32,59.52380952374765,,,,,,1398.3025999999047,329.0,2.0,1398.302700000048,329.0,,,,1402.0752999999524,1402.5747999999526,1401.5609000000954,1402.0752999999524,1399.3265,1401.5607999999525,1402.5747999999526,1403.0699000000957,1403.0699000000957,1415.3457999999523,3501.0,1415.3459000000955,5.0,1415.3510999999048,2.0,3.0,63.0,17.0,1.0,1.2,0.7,Time
,,S30,1,女,20,anonymized,Serial_Dependence_U,2023.2.3,Win32,59.52380952374765,,,,,,1415.3514000000955,314.0,2.0,1415.3515000000002,314.0,,,,1419.1124000000957,1419.6060999999047,1418.5965999999048,1419.1122999999525,1416.3630999999048,1418.5965,1419.606200000048,1420.1102999999523,1420.1104000000955,1424.5290000000002,4066.0,1424.5290000000002,5.0,1424.5367999999526,2.0,4.0,64.0,7.0,1.0,1.2,0.7,Time
,,S30,1,女,20,anonymized,Serial_Dependence_U,2023.2.3,Win32,59.52380952374765,,,,,,1424.5370999999047,75.0,2.0,1424.5372000000475,75.0,,,,1427.8972999999526,1428.3904000000955,1427.3814000000957,1427.8970999999049,1425.5475999999048,1427.3814000000957,1428.3905000000002,1428.8902999999525,1428.8904000000955,1433.2635000000002,3050.0,1433.2635000000002,5.0,1433.2707000000478,2.0,5.0,65.0,15.0,1.0,0.8,0.7,Time
,,S30,1,女,20,anonymized,Serial_Dependence_U,2023.2.3,Win32,59.52380952374765,,,,,,1433.2709000000957,284.0,2.0,1433.2710000000002,284.0,,,,1437.0482999999524,1437.5412999999526,1436.5475,1437.0480999999047,1434.2807000000478,1436.5474000000954,1437.5414000000956,1438.0299000000955,1438.0299000000955,1442.916200000048,4234.0,1442.9162999999526,5.0,1442.9265000000005,2.0,6.0,66.0,22.0,1.0,1.2,0.3,Time
,,S30,1,女,20,anonymized,Serial_Dependence_U,2023.2.3,Win32,59.52380952374765,,,,,,1442.9267000000475,248.0,2.0,1442.9267999999524,248.0,,,,1446.7169000000956,1447.2135999999048,1446.1997999999526,1446.7165999999047,1443.9335,1446.1995999999049,1447.2137000000478,1447.7092000000478,1447.7092000000478,1452.2839000000956,3867.0,1452.2840999999048,5.0,1452.2952000000478,2.0,7.0,67.0,2.0,1.0,1.2,0.3,Time
,,S30,1,女,20,anonymized,Serial_Dependence_U,2023.2.3,Win32,59.52380952374765,,,,,,1452.2955000000002,169.0,2.0,1452.2955999999049,169.0,,,,1455.8670000000002,1456.3600999999048,1455.3519000000956,1455.8669000000957,1453.3174000000956,1455.3517999999524,1456.3602000000478,1456.8604000000955,1456.8605000000002,1461.2209000000955,3617.0,1461.2210999999047,5.0,1461.2297000000478,2.0,8.0,68.0,6.0,1.0,1.0,0.7,Time
,,S30,1,女,20,anonymized,Serial_Dependence_U,2023.2.3,Win32,59.52380952374765,,,,,,1461.2300000000002,154.0,2.0,1461.2300999999047,154.0,,,,1464.6020999999048,1465.094700000048,1464.1014000000955,1464.602,1462.2339000000954,1464.1012999999523,1465.094700000048,1465.6002999999523,1465.6002999999523,1469.1012999999523,2917.0,1469.1014000000955,5.0,1469.1099000000954,2.0,9.0,69.0,20.0,1.0,0.8,0.3,Time
,,S30,1,女,20,anonymized,Serial_Dependence_U,2023.2.3,Win32,59.52380952374765,,,,,,1469.1102000000478,211.0,2.0,1469.1102000000478,211.0,,,,1473.0852000000475,1473.5790999999049,1472.5697000000478,1473.0850999999047,1470.135200000048,1472.5697000000478,1473.579200000048,1474.0787999999525,1474.0787999999525,1478.5200000000002,3784.0,1478.520200000048,5.0,1478.5310999999049,2.0,10.0,70.0,18.0,1.0,1.4,0.7,Time
,,S30,1,女,20,anonymized,Serial_Dependence_U,2023.2.3,Win32,59.52380952374765,,,,,,1478.5314000000956,19.0,2.0,1478.5315,19.0,,,,1481.9045999999048,1482.397200000048,1481.4037000000478,1481.9044000000956,1479.5369000000956,1481.4035999999048,1482.3972999999526,1482.9024000000954,1482.9025999999049,1534.9432999999524,3067.0,1534.9434000000956,5.0,1534.9549000000954,2.0,11.0,71.0,0.0,1.0,0.8,0.3,Time
,,S30,1,女,20,anonymized,Serial_Dependence_U,2023.2.3,Win32,59.52380952374765,,,,,,1534.9552999999526,0.0,2.0,1534.9554000000956,0.0,,,,1538.4937999999524,1538.9870999999048,1537.9925999999048,1538.4937000000475,1535.9609000000955,1537.9925,1538.9872000000478,1539.486599999905,1539.486599999905,1549.4954000000955,2967.0,1549.4955999999047,5.0,1549.5035999999047,2.0,12.0,72.0,16.0,1.0,1.0,0.7,Time
,,S30,1,女,20,anonymized,Serial_Dependence_U,2023.2.3,Win32,59.52380952374765,,,,,,1549.5037999999524,345.0,2.0,1549.5040999999048,345.0,,,,1553.0787000000478,1553.5722999999523,1552.5625000000002,1553.0785,1550.5274000000954,1552.5624000000955,1553.5724000000955,1554.0609000000954,1554.061,1559.1307999999524,3717.0,1559.1309000000956,5.0,1559.141,2.0,13.0,73.0,26.0,1.0,1.0,0.7,Time
,,S30,1,女,20,anonymized,Serial_Dependence_U,2023.2.3,Win32,59.52380952374765,,,,,,1559.1412000000478,159.0,2.0,1559.1412999999525,159.0,,,,1562.4972999999525,1562.9895999999048,1561.9810999999047,1562.4970999999048,1560.1449000000955,1561.9809000000955,1562.9897000000478,1563.4902999999524,1563.4902999999524,1571.8970000000002,3351.0,1571.897200000048,5.0,1571.9040000000002,2.0,14.0,74.0,5.0,1.0,0.8,0.7,Time
,,S30,1,女,20,anonymized,Serial_Dependence_U,2023.2.3,Win32,59.52380952374765,,,,,,1571.904200000048,89.0,2.0,1571.904200000048,89.0,,,,1575.8649000000955,1576.3579000000957,1575.3495000000005,1575.8647999999523,1572.9087999999524,1575.349200000048,1576.3580000000002,1576.8585999999048,1576.8587999999525,1580.149,3033.0,1580.1492000000478,5.0,1580.1597999999524,2.0,15.0,75.0,28.0,1.0,1.4,0.7,Time
,,S30,1,女,20,anonymized,Serial_Dependence_U,2023.2.3,Win32,59.52380952374765,,,,,,1580.1600999999048,138.0,2.0,1580.1602000000478,138.0,,,,1584.1492999999523,1584.6420999999048,1583.6337999999523,1584.1492000000478,1581.1605000000002,1583.6335999999048,1584.6420999999048,1585.1425999999049,1585.1425999999049,1589.101,3800.0,1589.1012000000478,5.0,1589.1109000000956,2.0,16.0,76.0,13.0,1.0,1.4,0.3,Time
,,S30,1,女,20,anonymized,Serial_Dependence_U,2023.2.3,Win32,59.52380952374765,,,,,,1589.1112000000478,302.0,2.0,1589.1112999999525,302.0,,,,1593.265700000048,1593.7597999999523,1592.7517999999525,1593.265599999905,1590.1169000000957,1592.7517000000478,1593.7597999999523,1594.2644000000955,1594.2644000000955,1598.1532999999524,3450.0,1598.1535999999048,5.0,1598.1640000000002,2.0,17.0,77.0,19.0,1.0,1.6,0.7,Time
,,S30,1,女,20,anonymized,Serial_Dependence_U,2023.2.3,Win32,59.52380952374765,,,,,,1598.1642999999524,75.0,2.0,1598.1645,75.0,,,,1602.3022000000478,1602.7995999999048,1601.8014000000956,1602.3020999999048,1599.1675000000002,1601.8014000000956,1602.7995999999048,1603.2992999999524,1603.2994000000956,1606.9362000000478,3367.0,1606.9364000000955,5.0,1606.9462999999523,2.0,18.0,78.0,9.0,1.0,1.6,0.7,Time
,,S30,1,女,20,anonymized,Serial_Dependence_U,2023.2.3,Win32,59.52380952374765,,,,,,1606.9465999999047,244.0,2.0,1606.946700000048,244.0,,,,1610.5362999999525,1611.0295,1610.0197999999525,1610.5362000000478,1607.9520000000002,1610.0195999999048,1611.0295,1611.5292999999524,1611.5294000000956,1615.4705,3268.0,1615.4705999999048,5.0,1615.4797999999523,2.0,19.0,79.0,11.0,1.0,1.0,0.3,Time
,,S30,1,女,20,anonymized,Serial_Dependence_U,2023.2.3,Win32,59.52380952374765,,,,,,1615.4800999999047,61.0,2.0,1615.4800999999047,61.0,,,,1619.6700999999048,1620.1675999999047,1619.1540000000002,1619.67,1616.4862999999525,1619.1537999999523,1620.167700000048,1620.663200000048,1620.6632999999524,1624.838099999905,3851.0,1624.8382999999524,5.0,1624.8485,2.0,20.0,80.0,24.0,1.0,1.6,0.3,Time
,,S30,1,女,20,anonymized,Serial_Dependence_U,2023.2.3,Win32,59.52380952374765,,,,,,1624.8489000000957,353.0,2.0,1624.8489000000957,353.0,,,,1628.4380999999048,1628.9309000000956,1627.9215999999049,1628.4379000000956,1625.8544000000954,1627.9214000000954,1628.9309000000956,1629.4197999999524,1629.4199000000956,1633.5867999999523,3334.0,1633.5869000000955,5.0,1633.5910999999048,2.0,21.0,81.0,1.0,1.0,1.0,0.3,Time
,,S30,1,女,20,anonymized,Serial_Dependence_U,2023.2.3,Win32,59.52380952374765,,,,,,1633.5914000000955,283.0,2.0,1633.5915000000002,283.0,,,,1637.7560999999048,1638.2487000000478,1637.2545000000002,1637.756,1634.5885999999048,1637.2544000000955,1638.2487000000478,1638.737599999905,1638.737700000048,1642.8162999999524,3527.0,1642.8164000000954,5.0,1642.8214000000955,2.0,22.0,82.0,4.0,1.0,1.6,0.3,Time
,,S30,1,女,20,anonymized,Serial_Dependence_U,2023.2.3,Win32,59.52380952374765,,,,,,1642.821700000048,217.0,2.0,1642.821700000048,217.0,,,,1647.0082000000475,1647.4997999999523,1646.4915,1647.0080000000005,1643.8235000000002,1646.4912999999524,1647.4999000000955,1647.9884000000957,1647.9885000000002,1652.8420999999048,4018.0,1652.8422000000478,5.0,1652.851,2.0,23.0,83.0,14.0,1.0,1.6,0.3,Time
,,S30,1,女,20,anonymized,Serial_Dependence_U,2023.2.3,Win32,59.52380952374765,,,,,,1652.8512000000478,272.0,2.0,1652.8514000000955,272.0,,,,1656.9902999999524,1657.4842999999526,1656.4895,1656.9902999999524,1653.8579000000957,1656.4895,1657.4842999999526,1657.9725999999048,1657.9725999999048,1662.3759000000955,3968.0,1662.376099999905,5.0,1662.3845,2.0,24.0,84.0,29.0,1.0,1.6,0.7,Time
,,S30,1,女,20,anonymized,Serial_Dependence_U,2023.2.3,Win32,59.52380952374765,,,,,,1662.3847999999523,333.0,2.0,1662.3850000000002,333.0,,,,1666.342,1666.8352999999524,1665.8262999999524,1666.3419000000956,1663.392,1665.826200000048,1666.8352999999524,1667.3364000000956,1667.3365999999048,1672.077200000048,3984.0,1672.0774000000956,5.0,1672.0880000000002,2.0,25.0,85.0,8.0,1.0,1.4,0.7,Time
,,S30,1,女,20,anonymized,Serial_Dependence_U,2023.2.3,Win32,59.52380952374765,,,,,,1672.0882999999524,91.0,2.0,1672.0884000000956,91.0,,,,1676.0767000000478,1676.5699000000957,1675.561,1676.0765,1673.093,1675.5609000000954,1676.5700000000002,1677.0702999999526,1677.0702999999526,1681.828099999905,3984.0,1681.828200000048,5.0,1681.8390999999049,2.0,26.0,86.0,23.0,1.0,1.4,0.3,Time
,,S30,1,女,20,anonymized,Serial_Dependence_U,2023.2.3,Win32,59.52380952374765,,,,,,1681.8394000000956,176.0,2.0,1681.8395000000005,176.0,,,,1685.4287999999524,1685.9215000000002,1684.9115000000002,1685.4285000000002,1682.8435999999049,1684.9114000000957,1685.9215000000002,1686.4257999999525,1686.4257999999525,1690.4952000000478,3268.0,1690.4952000000478,5.0,1690.4997999999523,2.0,27.0,87.0,21.0,1.0,1.0,0.3,Time
,,S30,1,女,20,anonymized,Serial_Dependence_U,2023.2.3,Win32,59.52380952374765,,,,,,1690.5000000000002,170.0,2.0,1690.5000999999047,170.0,,,,1693.8450999999047,1694.3387999999525,1693.3297000000478,1693.8450000000005,1691.4965000000002,1693.3295,1694.3387999999525,1694.8387000000478,1694.8387000000478,1699.7147999999524,3669.0,1699.7149000000954,5.0,1699.7240999999049,2.0,28.0,88.0,25.0,1.0,0.8,0.7,Time
,,S30,1,女,20,anonymized,Serial_Dependence_U,2023.2.3,Win32,59.52380952374765,,,,,,1699.7244000000956,309.0,2.0,1699.7245000000005,309.0,,,,1703.1130999999048,1703.6064000000956,1702.597200000048,1703.113,1700.7295,1702.597099999905,1703.6065,1704.0942999999525,1704.0942999999525,1708.6822999999524,3801.0,1708.6825,5.0,1708.690700000048,2.0,29.0,89.0,10.0,1.0,0.8,0.3,Time
,,S30,1,女,20,anonymized,Serial_Dependence_U,2023.2.3,Win32,59.52380952374765,,,,,,1708.6910999999047,271.0,3.0,1784.9002999999525,271.0,s,76.18970000004788,,1788.6907999999526,1789.1835999999048,1788.1747000000478,1788.6905999999049,1785.9062999999526,1788.1745999999048,1789.1835999999048,1789.6835999999048,1789.6837000000478,1793.4920000000002,3418.0,1793.492200000048,5.0,1793.5017999999525,3.0,0.0,90.0,12.0,1.0,1.2,0.3,Time
,,S30,1,女,20,anonymized,Serial_Dependence_U,2023.2.3,Win32,59.52380952374765,,,,,,1793.5020999999049,142.0,3.0,1793.5030999999049,142.0,,,,1796.8600999999048,1797.3515000000002,1796.3397000000475,1796.8597999999524,1794.507700000048,1796.3397000000475,1797.3515999999047,1797.851700000048,1797.8517999999524,1802.159700000048,3702.0,1802.159900000096,5.0,1802.17,3.0,1.0,91.0,15.0,1.0,0.8,0.7,Time
,,S30,1,女,20,anonymized,Serial_Dependence_U,2023.2.3,Win32,59.52380952374765,,,,,,1802.1702999999525,298.0,3.0,1802.1705,298.0,,,,1806.3265,1806.819,1805.8092999999524,1806.3262999999524,1803.1767999999524,1805.809200000048,1806.819099999905,1807.319200000048,1807.3192999999524,1811.3444000000957,3534.0,1811.3445999999049,5.0,1811.3549000000955,3.0,2.0,92.0,9.0,1.0,1.6,0.7,Time
,,S30,1,女,20,anonymized,Serial_Dependence_U,2023.2.3,Win32,59.52380952374765,,,,,,1811.3550999999047,83.0,3.0,1811.355200000048,83.0,,,,1815.1262999999524,1815.6200999999048,1814.625,1815.126200000048,1812.3602999999523,1814.6249000000955,1815.6200999999048,1816.1202999999523,1816.1204000000955,1822.9432999999524,3216.0,1822.9435,5.0,1822.9497999999528,3.0,3.0,93.0,2.0,1.0,1.2,0.3,Time
,,S30,1,女,20,anonymized,Serial_Dependence_U,2023.2.3,Win32,59.52380952374765,,,,,,1822.950200000048,9.0,3.0,1822.950200000048,9.0,,,,1826.295900000096,1826.7925,1825.7782999999524,1826.2957999999528,1823.944099999905,1825.7780999999047,1826.7925999999047,1827.2922999999523,1827.2922999999523,1829.6785999999047,1815.0,1829.678700000048,5.0,1829.6885,3.0,4.0,94.0,5.0,1.0,0.8,0.7,Time
,,S30,1,女,20,anonymized,Serial_Dependence_U,2023.2.3,Win32,59.52380952374765,,,,,,1829.6887999999524,307.0,3.0,1829.689,307.0,,,,1833.8457999999523,1834.339,1833.3295999999048,1833.845700000048,1830.695,1833.329400000096,1834.3390999999049,1834.8275999999048,1834.8277999999525,1839.029700000048,4051.0,1839.0297999999525,5.0,1839.0385,3.0,5.0,95.0,19.0,1.0,1.6,0.7,Time
,,S30,1,女,20,anonymized,Serial_Dependence_U,2023.2.3,Win32,59.52380952374765,,,,,,1839.039,290.0,3.0,1839.039200000048,290.0,,,,1842.4465999999047,1842.945799999953,1841.930099999905,1842.4465,1840.062200000048,1841.9300000000003,1842.945799999953,1843.4444000000956,1843.4445,1863.632900000096,3233.0,1863.633200000048,5.0,1863.6430999999047,3.0,6.0,96.0,10.0,1.0,0.8,0.3,Time
,,S30,1,女,20,anonymized,Serial_Dependence_U,2023.2.3,Win32,59.52380952374765,,,,,,1863.6434000000957,236.0,3.0,1863.6435,236.0,,,,1867.197900000096,1867.6965,1866.681,1867.1977999999528,1864.6499000000956,1866.6809000000956,1867.6965,1868.1980999999048,1868.1980999999048,1875.8012999999523,3850.0,1875.8014000000956,5.0,1875.810700000048,3.0,7.0,97.0,26.0,1.0,1.0,0.7,Time
,,S30,1,女,20,anonymized,Serial_Dependence_U,2023.2.3,Win32,59.52380952374765,,,,,,1875.8109000000957,225.0,3.0,1875.8110999999049,225.0,,,,1879.8007999999527,1880.2947999999524,1879.2847999999528,1879.8007999999527,1876.8172999999524,1879.284700000048,1880.2949000000956,1880.798200000048,1880.7982999999529,1926.4415000000004,3318.0,1926.441700000048,5.0,1926.453099999905,3.0,8.0,98.0,23.0,1.0,1.4,0.3,Time
,,S30,1,女,20,anonymized,Serial_Dependence_U,2023.2.3,Win32,59.52380952374765,,,,,,1926.4534000000956,136.0,3.0,1926.4535999999048,136.0,,,,1930.408400000096,1930.9005,1929.8910999999048,1930.408200000048,1927.458599999905,1929.891,1930.9005,1931.404700000048,1931.404700000048,1935.2257999999524,3584.0,1935.226,5.0,1935.236700000048,3.0,9.0,99.0,28.0,1.0,1.4,0.7,Time
,,S30,1,女,20,anonymized,Serial_Dependence_U,2023.2.3,Win32,59.52380952374765,,,,,,1935.237,338.0,3.0,1935.237,338.0,,,,1938.592200000048,1939.085,1938.0759000000955,1938.592,1936.242200000048,1938.0757999999523,1939.085,1939.585200000048,1939.5852999999524,1962.812400000096,2934.0,1962.8125,5.0,1962.8224000000955,3.0,10.0,100.0,25.0,1.0,0.8,0.7,Time
,,S30,1,女,20,anonymized,Serial_Dependence_U,2023.2.3,Win32,59.52380952374765,,,,,,1962.8227999999528,242.0,3.0,1962.8227999999528,242.0,,,,1967.0269000000956,1967.522200000048,1966.5120999999049,1967.026700000048,1963.8444000000957,1966.5119000000957,1967.5224000000956,1968.021700000048,1968.0217999999527,1993.215700000048,4334.0,1993.215900000096,5.0,1993.2259000000956,3.0,11.0,101.0,24.0,1.0,1.6,0.3,Time
,,S30,1,女,20,anonymized,Serial_Dependence_U,2023.2.3,Win32,59.52380952374765,,,,,,1993.226200000048,98.0,3.0,1993.2264000000955,98.0,,,,1997.3662999999524,1997.863700000048,1996.850200000048,1997.366200000048,1994.2160999999048,1996.8500000000004,1997.8637999999523,1998.3637999999523,1998.3639000000956,2002.052,3019.0,2002.0522999999523,5.0,2002.0620000000004,3.0,12.0,102.0,29.0,1.0,1.6,0.7,Time
,,S30,1,女,20,anonymized,Serial_Dependence_U,2023.2.3,Win32,59.52380952374765,,,,,,2002.0622999999523,114.0,3.0,2002.062400000096,114.0,,,,2005.6167999999525,2006.109700000048,2005.1005,2005.6167999999525,2003.0667999999523,2005.1004000000955,2006.109700000048,2006.6092999999523,2006.6092999999523,2031.0215000000003,3087.0,2031.021599999905,5.0,2031.0325000000005,3.0,13.0,103.0,16.0,1.0,1.0,0.7,Time
,,S30,1,女,20,anonymized,Serial_Dependence_U,2023.2.3,Win32,59.52380952374765,,,,,,2031.0327999999529,186.0,3.0,2031.032900000096,186.0,,,,2034.6207999999524,2035.1162999999524,2034.1037999999528,2034.6205,2032.0362999999525,2034.103700000048,2035.1162999999524,2035.613200000048,2035.613200000048,2039.054,3251.0,2039.0540999999048,5.0,2039.062200000048,3.0,14.0,104.0,21.0,1.0,1.0,0.3,Time
,,S30,1,女,20,anonymized,Serial_Dependence_U,2023.2.3,Win32,59.52380952374765,,,,,,2039.062400000096,143.0,3.0,2039.062400000096,143.0,,,,2042.4390000000003,2042.930700000048,2041.9379000000956,2042.438900000096,2040.070200000048,2041.9377999999524,2042.930700000048,2043.434900000096,2043.4350999999049,2048.8720000000003,2804.0,2048.8720000000003,5.0,2048.8794000000958,3.0,15.0,105.0,0.0,1.0,0.8,0.3,Time
,,S30,1,女,20,anonymized,Serial_Dependence_U,2023.2.3,Win32,59.52380952374765,,,,,,2048.879700000048,225.0,3.0,2048.8797999999524,225.0,,,,2052.856400000096,2053.349599999905,2052.3555,2052.856200000048,2049.8880999999046,2052.3554000000954,2053.349700000048,2053.8534000000955,2053.8534000000955,2081.209099999905,3700.0,2081.209200000048,5.0,2081.218099999905,3.0,16.0,106.0,13.0,1.0,1.4,0.3,Time
,,S30,1,女,20,anonymized,Serial_Dependence_U,2023.2.3,Win32,59.52380952374765,,,,,,2081.2182999999523,314.0,3.0,2081.2185,314.0,,,,2085.2050000000004,2085.702700000048,2084.6932999999526,2085.204900000096,2082.2264000000955,2084.693200000048,2085.702700000048,2086.190599999905,2086.190700000048,2091.060200000048,4017.0,2091.0602999999523,5.0,2091.0674000000954,3.0,17.0,107.0,3.0,1.0,1.4,0.3,Time
,,S30,1,女,20,anonymized,Serial_Dependence_U,2023.2.3,Win32,59.52380952374765,,,,,,2091.067599999905,245.0,3.0,2091.067700000048,245.0,,,,2095.011599999905,2095.503700000048,2094.494700000048,2095.011400000096,2092.0609000000954,2094.494599999905,2095.503700000048,2096.0074000000955,2096.0074000000955,2100.0942999999525,3351.0,2100.0944000000954,5.0,2100.103,3.0,18.0,108.0,8.0,1.0,1.4,0.7,Time
,,S30,1,女,20,anonymized,Serial_Dependence_U,2023.2.3,Win32,59.52380952374765,,,,,,2100.103200000048,137.0,3.0,2100.103200000048,137.0,,,,2104.2952999999525,2104.794200000048,2103.778400000096,2104.295099999905,2101.1112999999523,2103.7782999999527,2104.794200000048,2105.2924000000958,2105.2925,2108.7805000000003,3465.0,2108.780700000048,5.0,2108.790700000048,3.0,19.0,109.0,14.0,1.0,1.6,0.3,Time
,,S30,1,女,20,anonymized,Serial_Dependence_U,2023.2.3,Win32,59.52380952374765,,,,,,2108.7909000000955,202.0,3.0,2108.791099999905,202.0,,,,2112.546400000096,2113.039400000096,2112.029599999905,2112.5462999999527,2109.7954000000955,2112.029599999905,2113.0395000000003,2113.5395000000003,2113.5395000000003,2117.613900000096,3301.0,2117.614,5.0,2117.6222999999527,3.0,20.0,110.0,7.0,1.0,1.2,0.7,Time
,,S30,1,女,20,anonymized,Serial_Dependence_U,2023.2.3,Win32,59.52380952374765,,,,,,2117.6225999999047,233.0,3.0,2117.622700000048,233.0,,,,2121.4142999999526,2121.907200000048,2120.897700000048,2121.414200000048,2118.6299000000954,2120.8975999999047,2121.907200000048,2122.4074000000955,2122.4075000000003,2125.898900000096,3151.0,2125.8990000000003,5.0,2125.909,3.0,21.0,111.0,22.0,1.0,1.2,0.3,Time
,,S30,1,女,20,anonymized,Serial_Dependence_U,2023.2.3,Win32,59.52380952374765,,,,,,2125.9092999999525,198.0,3.0,2125.9094000000955,198.0,,,,2130.098400000096,2130.5910000000003,2129.581200000048,2130.098400000096,2126.914200000048,2129.581099999905,2130.5910000000003,2131.0789000000955,2131.079,2135.399700000048,3751.0,2135.3997999999524,5.0,2135.4100000000003,3.0,22.0,112.0,4.0,1.0,1.6,0.3,Time
,,S30,1,女,20,anonymized,Serial_Dependence_U,2023.2.3,Win32,59.52380952374765,,,,,,2135.4102999999523,89.0,3.0,2135.4102999999523,89.0,,,,2139.000200000048,2139.492099999905,2138.482599999905,2139.0000999999047,2136.416200000048,2138.482400000096,2139.492099999905,2139.992400000096,2139.992400000096,2157.5352999999523,3150.0,2157.5355,5.0,2157.543599999905,3.0,23.0,113.0,11.0,1.0,1.0,0.3,Time
,,S30,1,女,20,anonymized,Serial_Dependence_U,2023.2.3,Win32,59.52380952374765,,,,,,2157.5440000000003,240.0,3.0,2157.544200000048,240.0,,,,2161.102099999905,2161.5950000000003,2160.5852999999524,2161.1020000000003,2158.551700000048,2160.585200000048,2161.5950000000003,2162.095400000096,2162.095400000096,2166.2515000000003,3467.0,2166.251599999905,5.0,2166.257200000048,3.0,24.0,114.0,6.0,1.0,1.0,0.7,Time
,,S30,1,女,20,anonymized,Serial_Dependence_U,2023.2.3,Win32,59.52380952374765,,,,,,2166.2574000000955,223.0,3.0,2166.257599999905,223.0,,,,2169.835200000048,2170.335,2169.320400000096,2169.835200000048,2167.251400000096,2169.320299999953,2170.335,2170.829400000096,2170.8295000000003,2174.671099999905,3434.0,2174.671200000048,5.0,2174.682900000096,3.0,25.0,115.0,1.0,1.0,1.0,0.3,Time
,,S30,1,女,20,anonymized,Serial_Dependence_U,2023.2.3,Win32,59.52380952374765,,,,,,2174.683200000048,172.0,3.0,2174.6832999999524,172.0,,,,2178.4385,2178.930200000048,2177.9215000000004,2178.4382999999525,2175.6870000000004,2177.9212999999527,2178.930200000048,2179.419900000096,2179.42,2189.3067999999525,3451.0,2189.307099999905,5.0,2189.3175,3.0,26.0,116.0,27.0,1.0,1.2,0.7,Time
,,S30,1,女,20,anonymized,Serial_Dependence_U,2023.2.3,Win32,59.52380952374765,,,,,,2189.317700000048,194.0,3.0,2189.3177999999525,194.0,,,,2193.0557999999523,2193.5537999999524,2192.555200000048,2193.0555999999046,2190.323700000048,2192.555099999905,2193.5539000000954,2194.049,2194.0490999999047,2198.556,3733.0,2198.5560999999047,5.0,2198.561700000048,3.0,27.0,117.0,17.0,1.0,1.2,0.7,Time
,,S30,1,女,20,anonymized,Serial_Dependence_U,2023.2.3,Win32,59.52380952374765,,,,,,2198.561900000096,275.0,3.0,2198.5620000000004,275.0,,,,2202.5237999999526,2203.016599999905,2202.007900000096,2202.5237999999526,2199.5732999999523,2202.007700000048,2203.016599999905,2203.5170000000003,2203.5170000000003,2208.123799999953,3982.0,2208.1239000000955,5.0,2208.1324000000955,3.0,28.0,118.0,18.0,1.0,1.4,0.7,Time
,,S30,1,女,20,anonymized,Serial_Dependence_U,2023.2.3,Win32,59.52380952374765,,,,,,2208.132700000048,326.0,3.0,2208.132700000048,326.0,,,,2211.5062999999523,2212.001200000048,2210.9932999999523,2211.506200000048,2209.123799999953,2210.993200000048,2212.001200000048,2212.4894000000954,2212.4895,2217.008700000048,4083.0,2217.0087999999523,5.0,2217.017099999905,3.0,29.0,119.0,20.0,1.0,0.8,0.3,Time
,,S30,1,女,20,anonymized,Serial_Dependence_U,2023.2.3,Win32,59.52380952374765,,,,,,2217.0172999999527,193.0,4.0,2347.311200000048,193.0,s,130.26789999985658,,2351.0592999999526,2351.5512999999523,2350.5425,2351.059200000048,2348.309400000096,2350.5424000000958,2351.5512999999523,2352.0512999999523,2352.051400000096,2356.442,4017.0,2356.442200000048,5.0,2356.450200000048,4.0,0.0,120.0,27.0,1.0,1.2,0.7,Time
,,S30,1,女,20,anonymized,Serial_Dependence_U,2023.2.3,Win32,59.52380952374765,,,,,,2356.450400000096,30.0,4.0,2356.4512999999524,30.0,,,,2360.5932999999523,2361.0859000000955,2360.0924000000955,2360.593200000048,2357.4605,2360.0922999999525,2361.0859000000955,2361.591400000096,2361.5915,2446.0712999999523,3868.0,2446.0714000000958,5.0,2446.0812999999525,4.0,1.0,121.0,19.0,1.0,1.6,0.7,Time
,,S30,1,女,20,anonymized,Serial_Dependence_U,2023.2.3,Win32,59.52380952374765,,,,,,2446.0815,188.0,4.0,2446.081700000048,188.0,,,,2449.437400000096,2449.929700000048,2448.920599999905,2449.4372999999523,2447.0867999999523,2448.9204000000955,2449.929700000048,2450.434700000048,2450.4347999999527,2459.006400000096,3052.0,2459.0065,5.0,2459.0175999999046,4.0,2.0,122.0,25.0,1.0,0.8,0.7,Time
,,S30,1,女,20,anonymized,Serial_Dependence_U,2023.2.3,Win32,59.52380952374765,,,,,,2459.018,52.0,4.0,2459.018,52.0,,,,2462.804700000048,2463.298200000048,2462.2882999999524,2462.804599999905,2460.021400000096,2462.288200000048,2463.298200000048,2463.803200000048,2463.803200000048,2468.756900000096,3501.0,2468.7570999999048,5.0,2468.7680999999047,4.0,3.0,123.0,22.0,1.0,1.2,0.3,Time
,,S30,1,女,20,anonymized,Serial_Dependence_U,2023.2.3,Win32,59.52380952374765,,,,,,2468.7682999999524,7.0,4.0,2468.7684000000954,7.0,,,,2472.156400000096,2472.6495,2471.6400999999046,2472.1562999999524,2469.7725,2471.6397999999526,2472.6495999999047,2473.154700000048,2473.154700000048,2477.874200000048,3583.0,2477.8742999999527,5.0,2477.8849000000955,4.0,4.0,124.0,20.0,1.0,0.8,0.3,Time
,,S30,1,女,20,anonymized,Serial_Dependence_U,2023.2.3,Win32,59.52380952374765,,,,,,2477.885099999905,139.0,4.0,2477.885200000048,139.0,,,,2482.041200000048,2482.5335999999047,2481.5240999999046,2482.041,2478.890200000048,2481.5240000000003,2482.5335999999047,2483.0339000000954,2483.0339000000954,2492.5424000000958,4199.0,2492.5425999999047,5.0,2492.5530000000003,4.0,5.0,125.0,29.0,1.0,1.6,0.7,Time
,,S30,1,女,20,anonymized,Serial_Dependence_U,2023.2.3,Win32,59.52380952374765,,,,,,2492.553200000048,195.0,4.0,2492.553400000096,195.0,,,,2496.3089000000955,2496.8019000000954,2495.791900000096,2496.3087999999525,2493.5597999999527,2495.7917999999527,2496.802,2497.289700000048,2497.289700000048,2501.777700000048,3401.0,2501.7779000000955,5.0,2501.7889000000955,4.0,6.0,126.0,7.0,1.0,1.2,0.7,Time
,,S30,1,女,20,anonymized,Serial_Dependence_U,2023.2.3,Win32,59.52380952374765,,,,,,2501.789200000048,126.0,4.0,2501.7892999999526,126.0,,,,2505.5602999999523,2506.0567999999525,2505.059400000096,2505.5600999999047,2502.7925999999047,2505.059400000096,2506.0567999999525,2506.553200000048,2506.5532999999523,2520.212200000048,4368.0,2520.2122999999524,5.0,2520.221,4.0,7.0,127.0,12.0,1.0,1.2,0.3,Time
,,S30,1,女,20,anonymized,Serial_Dependence_U,2023.2.3,Win32,59.52380952374765,,,,,,2520.221200000048,291.0,4.0,2520.2214000000954,291.0,,,,2524.3965000000003,2524.889200000048,2523.8805,2524.3965000000003,2521.213,2523.8802999999525,2524.8892999999525,2525.389599999905,2525.389599999905,2529.4145000000003,3935.0,2529.414700000048,5.0,2529.424200000048,4.0,8.0,128.0,24.0,1.0,1.6,0.3,Time
,,S30,1,女,20,anonymized,Serial_Dependence_U,2023.2.3,Win32,59.52380952374765,,,,,,2529.4245,269.0,4.0,2529.4245,269.0,,,,2532.980599999905,2533.4735,2532.464,2532.9804000000954,2530.4295,2532.4637999999527,2533.4735999999048,2533.9730999999047,2533.973200000048,2537.7974000000954,3666.0,2537.7975,5.0,2537.807400000096,4.0,9.0,129.0,26.0,1.0,1.0,0.7,Time
,,S30,1,女,20,anonymized,Serial_Dependence_U,2023.2.3,Win32,59.52380952374765,,,,,,2537.807700000048,147.0,4.0,2537.807900000096,147.0,,,,2541.3975,2541.8907999999524,2540.882,2541.397400000096,2538.813700000048,2540.8817999999524,2541.8907999999524,2542.391,2542.391099999905,2554.633200000048,3668.0,2554.633200000048,5.0,2554.639700000048,4.0,10.0,130.0,1.0,1.0,1.0,0.3,Time
,,S30,1,女,20,anonymized,Serial_Dependence_U,2023.2.3,Win32,59.52380952374765,,,,,,2554.6400000000003,232.0,4.0,2554.6400999999046,232.0,,,,2558.233200000048,2558.73,2557.7174000000955,2558.233099999905,2555.632599999905,2557.717200000048,2558.73,2559.2265,2559.2265,2564.734700000048,2750.0,2564.7349000000954,5.0,2564.744700000048,4.0,11.0,131.0,11.0,1.0,1.0,0.3,Time
,,S30,1,女,20,anonymized,Serial_Dependence_U,2023.2.3,Win32,59.52380952374765,,,,,,2564.744900000096,299.0,4.0,2564.7450000000003,299.0,,,,2568.1012999999525,2568.594200000048,2567.584700000048,2568.101200000048,2565.751,2567.5845999999046,2568.594200000048,2569.0825999999047,2569.082700000048,2572.901400000096,3683.0,2572.9015,5.0,2572.909200000048,4.0,12.0,132.0,15.0,1.0,0.8,0.7,Time
,,S30,1,女,20,anonymized,Serial_Dependence_U,2023.2.3,Win32,59.52380952374765,,,,,,2572.9095,126.0,4.0,2572.9095,126.0,,,,2576.901900000096,2577.401099999905,2576.3865,2576.901700000048,2573.9190000000003,2576.386200000048,2577.401099999905,2577.8950999999047,2577.8954000000954,2582.7039000000955,4334.0,2582.704099999905,5.0,2582.713099999905,4.0,13.0,133.0,3.0,1.0,1.4,0.3,Time
,,S30,1,女,20,anonymized,Serial_Dependence_U,2023.2.3,Win32,59.52380952374765,,,,,,2582.713400000096,324.0,4.0,2582.7135000000003,324.0,,,,2586.67,2587.1632999999524,2586.154700000048,2586.669900000096,2583.720200000048,2586.1545,2587.1632999999524,2587.6630999999047,2587.663200000048,2592.3035,4383.0,2592.3035999999047,5.0,2592.3107999999525,4.0,14.0,134.0,8.0,1.0,1.4,0.7,Time
,,S30,1,女,20,anonymized,Serial_Dependence_U,2023.2.3,Win32,59.52380952374765,,,,,,2592.311099999905,295.0,4.0,2592.311200000048,295.0,,,,2595.865099999905,2596.363700000048,2595.3542999999527,2595.865099999905,2593.321200000048,2595.354200000048,2596.363700000048,2596.8640999999047,2596.8640999999047,2601.4714000000954,4117.0,2601.4715,5.0,2601.4795999999046,4.0,15.0,135.0,6.0,1.0,1.0,0.7,Time
,,S30,1,女,20,anonymized,Serial_Dependence_U,2023.2.3,Win32,59.52380952374765,,,,,,2601.4799000000958,151.0,4.0,2601.4799000000958,151.0,,,,2605.021700000048,2605.5150000000003,2604.505900000096,2605.0215000000003,2602.470900000096,2604.505900000096,2605.5150000000003,2606.015400000096,2606.0155,2609.7580000000003,3701.0,2609.758099999905,5.0,2609.7670000000003,4.0,16.0,136.0,16.0,1.0,1.0,0.7,Time
,,S30,1,女,20,anonymized,Serial_Dependence_U,2023.2.3,Win32,59.52380952374765,,,,,,2609.767099999905,179.0,4.0,2609.7672999999527,179.0,,,,2613.923700000048,2614.419400000096,2613.406700000048,2613.9235999999046,2610.771599999905,2613.4065,2614.4195,2614.916700000048,2614.9167999999527,2618.824700000048,3851.0,2618.8247999999526,5.0,2618.8347999999523,4.0,17.0,137.0,9.0,1.0,1.6,0.7,Time
,,S30,1,女,20,anonymized,Serial_Dependence_U,2023.2.3,Win32,59.52380952374765,,,,,,2618.8350999999047,356.0,4.0,2618.835200000048,356.0,,,,2622.7747999999524,2623.267099999905,2622.273099999905,2622.774700000048,2619.840900000096,2622.273099999905,2623.267099999905,2623.755599999905,2623.755599999905,2629.1427999999523,5251.0,2629.142900000096,5.0,2629.1502999999525,4.0,18.0,138.0,28.0,1.0,1.4,0.7,Time
,,S30,1,女,20,anonymized,Serial_Dependence_U,2023.2.3,Win32,59.52380952374765,,,,,,2629.150599999905,171.0,4.0,2629.150700000048,171.0,,,,2633.3252999999527,2633.8195,2632.8244000000955,2633.325099999905,2630.1589000000954,2632.8242999999525,2633.8195999999048,2634.319700000048,2634.3199000000955,2640.17,4805.0,2640.170200000048,5.0,2640.1805,4.0,19.0,139.0,4.0,1.0,1.6,0.3,Time
,,S30,1,女,20,anonymized,Serial_Dependence_U,2023.2.3,Win32,59.52380952374765,,,,,,2640.1807999999523,151.0,4.0,2640.180900000096,151.0,,,,2643.738700000048,2644.2365999999047,2643.2372999999525,2643.738400000096,2641.170700000048,2643.237200000048,2644.2365999999047,2644.7365999999047,2644.7365999999047,2648.887200000048,3430.0,2648.8872999999526,5.0,2648.8927999999523,4.0,20.0,140.0,21.0,1.0,1.0,0.3,Time
,,S30,1,女,20,anonymized,Serial_Dependence_U,2023.2.3,Win32,59.52380952374765,,,,,,2648.893,213.0,4.0,2648.8930999999047,213.0,,,,2652.2405999999046,2652.7375,2651.7222999999526,2652.240400000096,2649.8885999999047,2651.722200000048,2652.737599999905,2653.238099999905,2653.238200000048,2658.705200000048,4136.0,2658.705400000096,5.0,2658.7129000000955,4.0,21.0,141.0,5.0,1.0,0.8,0.7,Time
,,S30,1,女,20,anonymized,Serial_Dependence_U,2023.2.3,Win32,59.52380952374765,,,,,,2658.713200000048,202.0,4.0,2658.7132999999526,202.0,,,,2662.6892999999523,2663.1887999999526,2662.173,2662.689200000048,2659.7055999999047,2662.172700000048,2663.188900000096,2663.6895,2663.6895999999047,2668.324,4290.0,2668.324200000048,5.0,2668.332400000096,4.0,22.0,142.0,23.0,1.0,1.4,0.3,Time
,,S30,1,女,20,anonymized,Serial_Dependence_U,2023.2.3,Win32,59.52380952374765,,,,,,2668.3325999999047,107.0,4.0,2668.332700000048,107.0,,,,2672.308,2672.8067999999525,2671.7915000000003,2672.3077999999523,2669.324099999905,2671.791200000048,2672.8067999999525,2673.3069000000955,2673.3069000000955,2683.8415999999047,3836.0,2683.841700000048,5.0,2683.849,4.0,23.0,143.0,13.0,1.0,1.4,0.3,Time
,,S30,1,女,20,anonymized,Serial_Dependence_U,2023.2.3,Win32,59.52380952374765,,,,,,2683.849299999953,158.0,4.0,2683.849400000096,158.0,,,,2687.227099999905,2687.7252999999523,2686.711099999905,2687.226700000048,2684.842,2686.710700000048,2687.7254000000958,2688.2252999999523,2688.2254000000958,2692.527,3783.0,2692.527200000048,5.0,2692.5370000000003,4.0,24.0,144.0,10.0,1.0,0.8,0.3,Time
,,S30,1,女,20,anonymized,Serial_Dependence_U,2023.2.3,Win32,59.52380952374765,,,,,,2692.5372999999527,121.0,4.0,2692.5372999999527,121.0,,,,2696.7105,2697.209700000048,2696.1940999999047,2696.7104000000954,2693.5267999999523,2696.194,2697.209700000048,2697.709700000048,2697.7097999999523,2701.943900000096,4085.0,2701.9440999999047,5.0,2701.9542999999526,4.0,25.0,145.0,14.0,1.0,1.6,0.3,Time
,,S30,1,女,20,anonymized,Serial_Dependence_U,2023.2.3,Win32,59.52380952374765,,,,,,2701.954599999905,82.0,4.0,2701.954700000048,82.0,,,,2705.3282999999524,2705.827200000048,2704.8125,2705.3280999999047,2702.944,2704.8122999999523,2705.827200000048,2706.327099999905,2706.327200000048,2720.9965,3500.0,2720.996599999905,5.0,2721.006900000096,4.0,26.0,146.0,0.0,1.0,0.8,0.3,Time
,,S30,1,女,20,anonymized,Serial_Dependence_U,2023.2.3,Win32,59.52380952374765,,,,,,2721.0074000000955,340.0,4.0,2721.0074000000955,340.0,,,,2724.947,2725.4462999999523,2724.4302999999527,2724.9469000000954,2721.996,2724.430099999905,2725.4464000000958,2725.9465,2725.9465,2729.8644000000954,3698.0,2729.864599999905,5.0,2729.873700000048,4.0,27.0,147.0,18.0,1.0,1.4,0.7,Time
,,S30,1,女,20,anonymized,Serial_Dependence_U,2023.2.3,Win32,59.52380952374765,,,,,,2729.8739000000955,179.0,4.0,2729.8740000000003,179.0,,,,2733.614200000048,2734.114,2733.097400000096,2733.614200000048,2730.8647999999525,2733.097400000096,2734.114,2734.6142999999524,2734.6142999999524,2740.1492999999523,4550.0,2740.1495999999047,5.0,2740.160400000096,4.0,28.0,148.0,17.0,1.0,1.2,0.7,Time
,,S30,1,女,20,anonymized,Serial_Dependence_U,2023.2.3,Win32,59.52380952374765,,,,,,2740.160700000048,128.0,4.0,2740.1607999999524,128.0,,,,2743.9337999999525,2744.4325999999046,2743.4327999999523,2743.933599999905,2741.1665000000003,2743.432700000048,2744.432700000048,2744.9325999999046,2744.932700000048,2749.9187999999526,4405.0,2749.918900000096,5.0,2749.925900000096,4.0,29.0,149.0,2.0,1.0,1.2,0.3,Time
,,S30,1,女,20,anonymized,Serial_Dependence_U,2023.2.3,Win32,59.52380952374765,,,,,,2749.9260999999046,43.0,5.0,2880.853799999953,43.0,s,130.9087000000477,,2884.400200000048,2884.8987999999526,2883.8837999999523,2884.400099999905,2881.849400000096,2883.8835999999046,2884.8987999999526,2885.3992999999523,2885.399400000096,2889.5835,3614.0,2889.583700000048,5.0,2889.593099999905,5.0,0.0,150.0,26.0,1.0,1.0,0.7,Time
,,S30,1,女,20,anonymized,Serial_Dependence_U,2023.2.3,Win32,59.52380952374765,,,,,,2889.593400000096,56.0,5.0,2889.5940999999048,56.0,,,,2893.7175,2894.217,2893.2162999999523,2893.7174000000955,2890.583200000048,2893.2162999999523,2894.217,2894.7162999999523,2894.716400000096,2899.3340000000003,4079.0,2899.334200000048,5.0,2899.341400000096,5.0,1.0,151.0,9.0,1.0,1.6,0.7,Time
,,S30,1,女,20,anonymized,Serial_Dependence_U,2023.2.3,Win32,59.52380952374765,,,,,,2899.341700000048,41.0,5.0,2899.3417999999524,41.0,,,,2902.9029000000955,2903.4007999999526,2902.4012999999527,2902.902700000048,2900.335200000048,2902.401200000048,2903.4007999999526,2903.9005,2903.9005,2908.1855999999048,3662.0,2908.1859000000954,5.0,2908.1967999999524,5.0,2.0,152.0,1.0,1.0,1.0,0.3,Time
,,S30,1,女,20,anonymized,Serial_Dependence_U,2023.2.3,Win32,59.52380952374765,,,,,,2908.197099999905,101.0,5.0,2908.197200000048,101.0,,,,2911.570700000048,2912.068700000048,2911.069,2911.570599999905,2909.202,2911.068900000096,2912.068700000048,2912.5687999999523,2912.568900000096,2929.5715,3753.0,2929.5715999999047,5.0,2929.5815,5.0,3.0,153.0,10.0,1.0,0.8,0.3,Time
,,S30,1,女,20,anonymized,Serial_Dependence_U,2023.2.3,Win32,59.52380952374765,,,,,,2929.581700000048,59.0,5.0,2929.581900000096,59.0,,,,2933.156400000096,2933.6547999999525,2932.6555000000003,2933.1562999999524,2930.589200000048,2932.655400000096,2933.6547999999525,2934.155,2934.155099999905,2938.273,3768.0,2938.273200000048,5.0,2938.282700000048,5.0,4.0,154.0,21.0,1.0,1.0,0.3,Time
,,S30,1,女,20,anonymized,Serial_Dependence_U,2023.2.3,Win32,59.52380952374765,,,,,,2938.282900000096,21.0,5.0,2938.2830000000004,21.0,,,,2942.4404000000955,2942.9392999999523,2941.9397999999524,2942.4402999999525,2939.2725999999047,2941.9397999999524,2942.939400000096,2943.439700000048,2943.4397999999524,2948.5907999999527,4500.0,2948.5910000000003,5.0,2948.6002999999523,5.0,5.0,155.0,4.0,1.0,1.6,0.3,Time
,,S30,1,女,20,anonymized,Serial_Dependence_U,2023.2.3,Win32,59.52380952374765,,,,,,2948.6005,98.0,5.0,2948.6005999999047,98.0,,,,2952.7412999999524,2953.240700000048,2952.2255999999047,2952.7410999999047,2949.5917999999524,2952.2252999999523,2953.240700000048,2953.7405999999046,2953.7405999999046,2993.429599999905,4564.0,2993.429700000048,5.0,2993.4370000000004,5.0,6.0,156.0,29.0,1.0,1.6,0.7,Time
,,S30,1,女,20,anonymized,Serial_Dependence_U,2023.2.3,Win32,59.52380952374765,,,,,,2993.437200000048,291.0,5.0,2993.4372999999523,291.0,,,,2996.779200000048,2997.2785999999046,2996.262599999905,2996.779200000048,2994.4305,2996.262599999905,2997.2785999999046,2997.779700000048,2997.7797999999525,3002.2967999999523,3697.0,3002.297,5.0,3002.306200000048,5.0,7.0,157.0,5.0,1.0,0.8,0.7,Time
,,S30,1,女,20,anonymized,Serial_Dependence_U,2023.2.3,Win32,59.52380952374765,,,,,,3002.3065,205.0,5.0,3002.306599999905,205.0,,,,3005.6477999999524,3006.1467999999527,3005.1315,3005.647400000096,3003.2967999999523,3005.1312999999523,3006.1467999999527,3006.6467999999527,3006.646900000096,3011.3142999999523,4099.0,3011.3142999999523,5.0,3011.319700000048,5.0,8.0,158.0,25.0,1.0,0.8,0.7,Time
,,S30,1,女,20,anonymized,Serial_Dependence_U,2023.2.3,Win32,59.52380952374765,,,,,,3011.3199000000955,238.0,5.0,3011.32,238.0,,,,3015.301400000096,3015.798200000048,3014.782200000048,3015.3010999999046,3012.315599999905,3014.782099999905,3015.798200000048,3016.298200000048,3016.2982999999526,3019.982599999905,3617.0,3019.9827999999525,5.0,3019.9930999999046,5.0,9.0,159.0,23.0,1.0,1.4,0.3,Time
,,S30,1,女,20,anonymized,Serial_Dependence_U,2023.2.3,Win32,59.52380952374765,,,,,,3019.9935,213.0,5.0,3019.9935999999047,213.0,,,,3023.9667999999524,3024.4655,3023.4505000000004,3023.9665999999047,3020.9820999999047,3023.450400000096,3024.4655,3024.9655,3024.9655,3030.0674000000954,4868.0,3030.067599999905,5.0,3030.0777999999523,5.0,10.0,160.0,13.0,1.0,1.4,0.3,Time
,,S30,1,女,20,anonymized,Serial_Dependence_U,2023.2.3,Win32,59.52380952374765,,,,,,3030.0780999999047,242.0,5.0,3030.0782999999524,242.0,,,,3033.851900000096,3034.3502999999523,3033.335,3033.851599999905,3031.0672999999524,3033.3347999999523,3034.3502999999523,3034.8505,3034.8505,3039.134,3814.0,3039.1340999999047,5.0,3039.1394000000955,5.0,11.0,161.0,22.0,1.0,1.2,0.3,Time
,,S30,1,女,20,anonymized,Serial_Dependence_U,2023.2.3,Win32,59.52380952374765,,,,,,3039.139599999905,126.0,5.0,3039.1397999999526,126.0,,,,3042.9367999999527,3043.434400000096,3042.42,3042.936700000048,3040.152,3042.4197999999524,3043.434400000096,3043.9347999999527,3043.9347999999527,3048.269099999905,3915.0,3048.269099999905,5.0,3048.277,5.0,12.0,162.0,2.0,1.0,1.2,0.3,Time
,,S30,1,女,20,anonymized,Serial_Dependence_U,2023.2.3,Win32,59.52380952374765,,,,,,3048.277200000048,5.0,5.0,3048.2774000000954,5.0,,,,3052.4367999999527,3052.936,3051.9207999999526,3052.436700000048,3049.2860999999048,3051.920599999905,3052.936,3053.4359000000954,3053.436,3058.8700000000003,4902.0,3058.8700000000003,5.0,3058.876900000096,5.0,13.0,163.0,19.0,1.0,1.6,0.7,Time
,,S30,1,女,20,anonymized,Serial_Dependence_U,2023.2.3,Win32,59.52380952374765,,,,,,3058.877200000048,273.0,5.0,3058.8772999999524,273.0,,,,3062.4210000000003,3062.919900000096,3061.9045,3062.420900000096,3059.872400000096,3061.9044000000954,3062.92,3063.420099999905,3063.420099999905,3068.005700000048,4051.0,3068.005700000048,5.0,3068.0127999999527,5.0,14.0,164.0,6.0,1.0,1.0,0.7,Time
,,S30,1,女,20,anonymized,Serial_Dependence_U,2023.2.3,Win32,59.52380952374765,,,,,,3068.012900000096,186.0,5.0,3068.012900000096,186.0,,,,3072.190799999953,3072.688900000096,3071.6732999999526,3072.190599999905,3069.0045,3071.673,3072.6890000000003,3073.188599999905,3073.188599999905,3078.7059000000954,4817.0,3078.706099999905,5.0,3078.7157999999527,5.0,15.0,165.0,14.0,1.0,1.6,0.3,Time
,,S30,1,女,20,anonymized,Serial_Dependence_U,2023.2.3,Win32,59.52380952374765,,,,,,3078.7160999999046,188.0,5.0,3078.7160999999046,188.0,,,,3082.0580999999047,3082.555900000096,3081.540400000096,3082.057900000096,3079.7085,3081.5402999999524,3082.555900000096,3083.055900000096,3083.056,3087.9902999999526,4399.0,3087.990400000096,5.0,3087.997200000048,5.0,16.0,166.0,15.0,1.0,0.8,0.7,Time
,,S30,1,女,20,anonymized,Serial_Dependence_U,2023.2.3,Win32,59.52380952374765,,,,,,3087.9975999999047,351.0,5.0,3087.997700000048,351.0,,,,3092.1575000000003,3092.6569000000954,3091.657200000048,3092.1575000000003,3088.9915,3091.657099999905,3092.6569000000954,3093.157200000048,3093.157299999953,3098.4752999999523,4869.0,3098.4755,5.0,3098.4845999999047,5.0,17.0,167.0,24.0,1.0,1.6,0.3,Time
,,S30,1,女,20,anonymized,Serial_Dependence_U,2023.2.3,Win32,59.52380952374765,,,,,,3098.4847999999524,47.0,5.0,3098.485,47.0,,,,3102.0267999999523,3102.525,3101.51,3102.026700000048,3099.4765,3101.5097999999525,3102.525099999905,3103.025599999905,3103.025599999905,3107.710200000048,3667.0,3107.7102999999524,5.0,3107.720400000096,5.0,18.0,168.0,16.0,1.0,1.0,0.7,Time
,,S30,1,女,20,anonymized,Serial_Dependence_U,2023.2.3,Win32,59.52380952374765,,,,,,3107.720700000048,321.0,5.0,3107.720900000096,321.0,,,,3111.4597999999523,3111.959200000048,3110.943099999905,3111.4597999999523,3108.711099999905,3110.943099999905,3111.959200000048,3112.460200000048,3112.4602999999524,3118.0282999999527,5084.0,3118.0285000000003,5.0,3118.0407999999525,5.0,19.0,169.0,17.0,1.0,1.2,0.7,Time
,,S30,1,女,20,anonymized,Serial_Dependence_U,2023.2.3,Win32,59.52380952374765,,,,,,3118.041,142.0,5.0,3118.041,142.0,,,,3122.0294000000954,3122.527599999905,3121.5285999999046,3122.0292999999524,3119.0620000000004,3121.5285000000003,3122.527599999905,3123.0277999999525,3123.0277999999525,3128.1459000000955,4932.0,3128.146099999905,5.0,3128.157599999905,5.0,20.0,170.0,3.0,1.0,1.4,0.3,Time
,,S30,1,女,20,anonymized,Serial_Dependence_U,2023.2.3,Win32,59.52380952374765,,,,,,3128.157900000096,313.0,5.0,3128.157900000096,313.0,,,,3131.913700000048,3132.411799999953,3131.396,3131.913599999905,3129.1632999999524,3131.3959000000955,3132.411799999953,3132.9122999999527,3132.912400000096,3154.8495000000003,3948.0,3154.8497999999527,5.0,3154.8615,5.0,21.0,171.0,27.0,1.0,1.2,0.7,Time
,,S30,1,女,20,anonymized,Serial_Dependence_U,2023.2.3,Win32,59.52380952374765,,,,,,3154.8617999999524,259.0,5.0,3154.8619000000954,259.0,,,,3158.817200000048,3159.3150999999048,3158.300700000048,3158.8170999999047,3155.865400000096,3158.300599999905,3159.315200000048,3159.8160000000003,3159.816099999905,3165.2835,4468.0,3165.2835999999047,5.0,3165.294200000048,5.0,22.0,172.0,28.0,1.0,1.4,0.7,Time
,,S30,1,女,20,anonymized,Serial_Dependence_U,2023.2.3,Win32,59.52380952374765,,,,,,3165.2945,204.0,5.0,3165.2945999999047,204.0,,,,3169.250599999905,3169.7492999999527,3168.734200000048,3169.2505,3166.3005000000003,3168.7340999999046,3169.7492999999527,3170.25,3170.25,3199.637400000096,4655.0,3199.637400000096,5.0,3199.6475,5.0,23.0,173.0,18.0,1.0,1.4,0.7,Time
,,S30,1,女,20,anonymized,Serial_Dependence_U,2023.2.3,Win32,59.52380952374765,,,,,,3199.647700000048,167.0,5.0,3199.6477999999524,167.0,,,,3203.588099999905,3204.0879000000955,3203.0710000000004,3203.5879000000955,3200.6367999999525,3203.070900000096,3204.0879000000955,3204.5870999999047,3204.587200000048,3213.939700000048,4266.0,3213.939900000096,5.0,3213.9502999999527,5.0,24.0,174.0,8.0,1.0,1.4,0.7,Time
,,S30,1,女,20,anonymized,Serial_Dependence_U,2023.2.3,Win32,59.52380952374765,,,,,,3213.950700000048,114.0,5.0,3213.950700000048,114.0,,,,3217.506900000096,3218.005900000096,3217.0057999999526,3217.506700000048,3214.9405,3217.0057999999526,3218.0060000000003,3218.5057999999526,3218.505900000096,3223.5904000000955,4199.0,3223.5905,5.0,3223.6020000000003,5.0,25.0,175.0,11.0,1.0,1.0,0.3,Time
,,S30,1,女,20,anonymized,Serial_Dependence_U,2023.2.3,Win32,59.52380952374765,,,,,,3223.6022999999523,177.0,5.0,3223.602400000096,177.0,,,,3227.375,3227.873599999905,3226.8575,3227.3747999999523,3224.609700000048,3226.857400000096,3227.873599999905,3228.373599999905,3228.373599999905,3240.0600999999047,4900.0,3240.060400000096,5.0,3240.0712999999523,5.0,26.0,176.0,7.0,1.0,1.2,0.7,Time
,,S30,1,女,20,anonymized,Serial_Dependence_U,2023.2.3,Win32,59.52380952374765,,,,,,3240.071700000048,297.0,5.0,3240.071700000048,297.0,,,,3243.8754000000954,3244.3757999999525,3243.360599999905,3243.8752999999524,3241.0930000000003,3243.3604000000955,3244.3757999999525,3244.8752999999524,3244.8754000000954,3285.864599999905,3681.0,3285.8647999999525,5.0,3285.876099999905,5.0,27.0,177.0,12.0,1.0,1.2,0.3,Time
,,S30,1,女,20,anonymized,Serial_Dependence_U,2023.2.3,Win32,59.52380952374765,,,,,,3285.8762999999526,261.0,5.0,3285.876400000096,261.0,,,,3289.264700000048,3289.7639000000954,3288.748599999905,3289.264599999905,3286.8824000000955,3288.748599999905,3289.764,3290.264099999905,3290.264099999905,3294.9817999999523,4168.0,3294.9820999999047,5.0,3294.9902999999526,5.0,28.0,178.0,0.0,1.0,0.8,0.3,Time
,,S30,1,女,20,anonymized,Serial_Dependence_U,2023.2.3,Win32,59.52380952374765,,,,,,3294.9905999999046,200.0,5.0,3294.9905999999046,200.0,,,,3298.3655999999046,3298.865400000096,3297.851,3298.3655000000003,3295.9835000000003,3297.8507999999524,3298.865400000096,3299.3655000000003,3299.3655000000003,3303.7165,3700.0,3303.716700000048,5.0,3303.726099999905,5.0,29.0,179.0,20.0,1.0,0.8,0.3,Time
,,S30,1,女,20,anonymized,Serial_Dependence_U,2023.2.3,Win32,59.52380952374765,,,,,,3303.7262999999525,42.0,6.0,3370.5,42.0,s,66.74690000009514,,3374.2754000000955,3374.774700000048,3373.7749000000954,3374.2752999999525,3371.509,3373.7747999999524,3374.774700000048,3375.2742999999523,3375.2742999999523,3379.7257999999524,3734.0,3379.726,5.0,3379.7369000000954,6.0,0.0,180.0,2.0,1.0,1.2,0.3,Time
,,S30,1,女,20,anonymized,Serial_Dependence_U,2023.2.3,Win32,59.52380952374765,,,,,,3379.737099999905,233.0,6.0,3379.737900000096,233.0,,,,3383.525900000096,3384.0255,3383.0105000000003,3383.5257999999526,3380.744,3383.010400000096,3384.0255,3384.525700000048,3384.5257999999526,3416.3300999999046,4383.0,3416.3302999999523,5.0,3416.339200000048,6.0,1.0,181.0,22.0,1.0,1.2,0.3,Time
,,S30,1,女,20,anonymized,Serial_Dependence_U,2023.2.3,Win32,59.52380952374765,,,,,,3416.3395999999047,0.0,6.0,3416.3395999999047,0.0,,,,3420.5147999999526,3421.0132999999523,3419.998,3420.514599999905,3417.3297999999527,3419.9977999999523,3421.0134000000958,3421.5130999999046,3421.513200000048,3444.950099999905,4297.0,3444.950200000048,5.0,3444.958700000048,6.0,2.0,182.0,14.0,1.0,1.6,0.3,Time
,,S30,1,女,20,anonymized,Serial_Dependence_U,2023.2.3,Win32,59.52380952374765,,,,,,3444.958900000096,29.0,6.0,3444.9590000000003,29.0,,,,3448.3015999999047,3448.7997999999525,3447.7844000000955,3448.3012999999523,3445.950200000048,3447.784200000048,3448.7997999999525,3449.300099999905,3449.300099999905,3519.2254000000958,3818.0,3519.2254000000958,5.0,3519.2309000000955,6.0,3.0,183.0,5.0,1.0,0.8,0.7,Time
,,S30,1,女,20,anonymized,Serial_Dependence_U,2023.2.3,Win32,59.52380952374765,,,,,,3519.231099999905,26.0,6.0,3519.2312999999526,26.0,,,,3522.827,3523.325400000096,3522.309900000096,3522.8269000000955,3520.2427999999527,3522.309700000048,3523.325400000096,3523.8259000000958,3523.826,3527.0265,3167.0,3527.0265999999046,5.0,3527.0342999999525,6.0,4.0,184.0,1.0,1.0,1.0,0.3,Time
,,S30,1,女,20,anonymized,Serial_Dependence_U,2023.2.3,Win32,59.52380952374765,,,,,,3527.0345,124.0,6.0,3527.034599999905,124.0,,,,3531.1769000000954,3531.6765,3530.660700000048,3531.176700000048,3528.026700000048,3530.6605999999047,3531.6765,3532.1765999999047,3532.1765999999047,3537.5950000000003,4450.0,3537.595200000048,5.0,3537.6065999999046,6.0,5.0,185.0,9.0,1.0,1.6,0.7,Time
,,S30,1,女,20,anonymized,Serial_Dependence_U,2023.2.3,Win32,59.52380952374765,,,,,,3537.6067999999523,145.0,6.0,3537.6067999999523,145.0,,,,3541.5627999999524,3542.061700000048,3541.046200000048,3541.5625999999047,3538.6125,3541.0460000000003,3542.061700000048,3542.561700000048,3542.5617999999527,3570.2987999999523,4332.0,3570.299,5.0,3570.3077999999523,6.0,6.0,186.0,28.0,1.0,1.4,0.7,Time
,,S30,1,女,20,anonymized,Serial_Dependence_U,2023.2.3,Win32,59.52380952374765,,,,,,3570.308,178.0,6.0,3570.3080999999047,178.0,,,,3574.483900000096,3574.982400000096,3573.9665,3574.4837999999527,3571.2992999999524,3573.966400000096,3574.982400000096,3575.4817999999523,3575.4817999999523,3583.4335,4434.0,3583.4337999999525,5.0,3583.443599999905,6.0,7.0,187.0,24.0,1.0,1.6,0.3,Time
,,S30,1,女,20,anonymized,Serial_Dependence_U,2023.2.3,Win32,59.52380952374765,,,,,,3583.443900000096,167.0,6.0,3583.443900000096,167.0,,,,3587.1847999999527,3587.684,3586.668599999905,3587.184700000048,3584.434,3586.6684000000955,3587.684099999905,3588.1845000000003,3588.184700000048,3595.6690999999046,4264.0,3595.6692999999523,5.0,3595.6800000000003,6.0,8.0,188.0,27.0,1.0,1.2,0.7,Time
,,S30,1,女,20,anonymized,Serial_Dependence_U,2023.2.3,Win32,59.52380952374765,,,,,,3595.680099999905,92.0,6.0,3595.680200000048,92.0,,,,3599.052900000096,3599.5515999999047,3598.535900000096,3599.0527999999526,3596.669900000096,3598.5357999999524,3599.551700000048,3600.052099999905,3600.052099999905,3605.387400000096,3871.0,3605.387599999905,5.0,3605.396099999905,6.0,9.0,189.0,0.0,1.0,0.8,0.3,Time
,,S30,1,女,20,anonymized,Serial_Dependence_U,2023.2.3,Win32,59.52380952374765,,,,,,3605.396400000096,174.0,6.0,3605.396400000096,174.0,,,,3609.1372999999526,3609.6360999999047,3608.6215,3609.137,3606.3885999999047,3608.621099999905,3609.636200000048,3610.136200000048,3610.136200000048,3614.837299999952,4066.0,3614.8375,5.0,3614.8495,6.0,10.0,190.0,7.0,1.0,1.2,0.7,Time
,,S30,1,女,20,anonymized,Serial_Dependence_U,2023.2.3,Win32,59.52380952374765,,,,,,3614.8497999999527,77.0,6.0,3614.849900000096,77.0,,,,3618.4052999999526,3618.903799999952,3617.8895,3618.404799999953,3615.855599999905,3617.888900000096,3618.903799999952,3619.403700000048,3619.403900000096,3625.077900000096,3996.0,3625.078,5.0,3625.083900000096,6.0,11.0,191.0,16.0,1.0,1.0,0.7,Time
,,S30,1,女,20,anonymized,Serial_Dependence_U,2023.2.3,Win32,59.52380952374765,,,,,,3625.084099999905,274.0,6.0,3625.084200000048,274.0,,,,3629.048099999905,3629.539,3628.545400000096,3629.047900000096,3626.079900000096,3628.545299999953,3629.539099999905,3630.0395,3630.039599999905,3635.013799999952,4734.0,3635.014,5.0,3635.021900000096,6.0,12.0,192.0,23.0,1.0,1.4,0.3,Time
,,S30,1,女,20,anonymized,Serial_Dependence_U,2023.2.3,Win32,59.52380952374765,,,,,,3635.022,15.0,6.0,3635.0220999999046,15.0,,,,3638.9795999999046,3639.473200000048,3638.463200000048,3638.9795999999046,3636.0290999999047,3638.463099999905,3639.473299999952,3639.961900000096,3639.961900000096,3644.482900000096,4236.0,3644.483200000048,5.0,3644.494099999905,6.0,13.0,193.0,8.0,1.0,1.4,0.7,Time
,,S30,1,女,20,anonymized,Serial_Dependence_U,2023.2.3,Win32,59.52380952374765,,,,,,3644.494299999953,284.0,6.0,3644.4945,284.0,,,,3648.647799999952,3649.145700000048,3648.132299999953,3648.647700000048,3645.4979000000953,3648.132200000048,3649.145700000048,3649.641,3649.641099999905,3653.816099999905,4106.0,3653.816200000048,5.0,3653.826799999953,6.0,14.0,194.0,19.0,1.0,1.6,0.7,Time
,,S30,1,女,20,anonymized,Serial_Dependence_U,2023.2.3,Win32,59.52380952374765,,,,,,3653.827099999905,23.0,6.0,3653.827200000048,23.0,,,,3657.216,3657.709400000096,3656.699599999905,3657.216,3654.831900000096,3656.6995,3657.7095,3658.209400000096,3658.2095,3662.634,3651.0,3662.634299999952,5.0,3662.644,6.0,15.0,195.0,10.0,1.0,0.8,0.3,Time
,,S30,1,女,20,anonymized,Serial_Dependence_U,2023.2.3,Win32,59.52380952374765,,,,,,3662.6442999999526,74.0,6.0,3662.644400000096,74.0,,,,3666.401200000048,3666.8935,3665.8832999999527,3666.400900000096,3663.650400000096,3665.883200000048,3666.8935,3667.3930999999047,3667.393200000048,3671.2500999999047,3667.0,3671.250200000048,5.0,3671.256,6.0,16.0,196.0,17.0,1.0,1.2,0.7,Time
,,S30,1,女,20,anonymized,Serial_Dependence_U,2023.2.3,Win32,59.52380952374765,,,,,,3671.256200000048,349.0,6.0,3671.256299999952,349.0,,,,3675.2495,3675.744299999953,3674.734799999952,3675.249400000096,3672.266099999905,3674.734700000048,3675.744400000096,3676.244200000048,3676.244200000048,3691.1712999999527,4251.0,3691.1715,5.0,3691.181599999905,6.0,17.0,197.0,13.0,1.0,1.4,0.3,Time
,,S30,1,女,20,anonymized,Serial_Dependence_U,2023.2.3,Win32,59.52380952374765,,,,,,3691.181900000096,168.0,6.0,3691.182,168.0,,,,3695.3365999999046,3695.834099999905,3694.820700000048,3695.3365,3692.186900000096,3694.820700000048,3695.834099999905,3696.333,3696.333,3704.306,4817.0,3704.3060999999047,5.0,3704.316,6.0,18.0,198.0,29.0,1.0,1.6,0.7,Time
,,S30,1,女,20,anonymized,Serial_Dependence_U,2023.2.3,Win32,59.52380952374765,,,,,,3704.3162999999527,125.0,6.0,3704.316400000096,125.0,,,,3707.871700000048,3708.368900000096,3707.354799999952,3707.871599999905,3705.321200000048,3707.354700000048,3708.368900000096,3708.8697999999526,3708.8697999999526,3724.407700000048,4268.0,3724.4077999999527,5.0,3724.416099999905,6.0,19.0,199.0,26.0,1.0,1.0,0.7,Time
,,S30,1,女,20,anonymized,Serial_Dependence_U,2023.2.3,Win32,59.52380952374765,,,,,,3724.416299999953,275.0,6.0,3724.416400000096,275.0,,,,3727.758200000048,3728.250299999952,3727.2557999999526,3727.758099999905,3725.424400000096,3727.255700000048,3728.250299999952,3728.750299999952,3728.750400000096,3748.960599999905,3434.0,3748.960799999953,5.0,3748.9715,6.0,20.0,200.0,15.0,1.0,0.8,0.7,Time
,,S30,1,女,20,anonymized,Serial_Dependence_U,2023.2.3,Win32,59.52380952374765,,,,,,3748.971700000048,327.0,6.0,3748.971799999953,327.0,,,,3752.560299999952,3753.0535,3752.0440999999046,3752.5600999999047,3749.977099999905,3752.043900000096,3753.0535999999047,3753.553400000096,3753.553400000096,3768.295700000048,3901.0,3768.295700000048,5.0,3768.304099999905,6.0,21.0,201.0,21.0,1.0,1.0,0.3,Time
,,S30,1,女,20,anonymized,Serial_Dependence_U,2023.2.3,Win32,59.52380952374765,,,,,,3768.304400000096,265.0,6.0,3768.304599999905,265.0,,,,3771.6802999999527,3772.172700000048,3771.1795,3771.680200000048,3769.3117999999527,3771.179299999953,3772.172799999953,3772.660799999952,3772.6610999999048,3789.482400000096,3984.0,3789.4825,5.0,3789.492599999905,6.0,22.0,202.0,20.0,1.0,0.8,0.3,Time
,,S30,1,女,20,anonymized,Serial_Dependence_U,2023.2.3,Win32,59.52380952374765,,,,,,3789.492900000096,138.0,6.0,3789.493,138.0,,,,3793.049700000048,3793.541700000048,3792.531799999953,3793.0495,3790.4995999999046,3792.531700000048,3793.5417999999527,3794.044799999952,3794.044900000096,3806.268200000048,4184.0,3806.268299999952,5.0,3806.274799999952,6.0,23.0,203.0,6.0,1.0,1.0,0.7,Time
,,S30,1,女,20,anonymized,Serial_Dependence_U,2023.2.3,Win32,59.52380952374765,,,,,,3806.274900000096,294.0,6.0,3806.275099999905,294.0,,,,3810.265700000048,3810.760200000048,3809.750200000048,3810.265700000048,3807.283400000096,3809.75,3810.7602999999526,3811.260099999905,3811.260099999905,3816.885,4467.0,3816.885099999905,5.0,3816.894200000048,6.0,24.0,204.0,3.0,1.0,1.4,0.3,Time
,,S30,1,女,20,anonymized,Serial_Dependence_U,2023.2.3,Win32,59.52380952374765,,,,,,3816.8945,39.0,6.0,3816.8945999999046,39.0,,,,3820.2292999999527,3820.728799999953,3819.719,3820.229200000048,3817.884299999952,3819.7189000000953,3820.728900000096,3821.228200000048,3821.228200000048,3908.713400000095,3568.0,3908.7135,5.0,3908.723299999952,6.0,25.0,205.0,25.0,1.0,0.8,0.7,Time
,,S30,1,女,20,anonymized,Serial_Dependence_U,2023.2.3,Win32,59.52380952374765,,,,,,3908.7235,7.0,6.0,3908.723599999904,7.0,,,,3912.679799999952,3913.172799999952,3912.163599999904,3912.679599999904,3909.7295,3912.1635,3913.172799999952,3913.672900000096,3913.672900000096,3920.382200000048,3717.0,3920.382400000096,5.0,3920.392,6.0,26.0,206.0,18.0,1.0,1.4,0.7,Time
,,S30,1,女,20,anonymized,Serial_Dependence_U,2023.2.3,Win32,59.52380952374765,,,,,,3920.392299999952,77.0,6.0,3920.392400000095,77.0,,,,3924.175200000048,3924.674,3923.664299999952,3924.175,3921.397299999952,3923.664200000047,3924.674,3925.174099999904,3925.174200000047,3988.183,4541.0,3988.183099999904,5.0,3988.191599999904,6.0,27.0,207.0,12.0,1.0,1.2,0.3,Time
,,S30,1,女,20,anonymized,Serial_Dependence_U,2023.2.3,Win32,59.52380952374765,,,,,,3988.191900000095,123.0,6.0,3988.192,123.0,,,,3992.3667000000473,3992.865799999952,3991.851,3992.366599999904,3989.183,3991.850799999952,3992.865900000095,3993.365599999904,3993.365599999904,3997.5672000000473,3567.0,3997.567400000095,5.0,3997.578400000096,6.0,28.0,208.0,4.0,1.0,1.6,0.3,Time
,,S30,1,女,20,anonymized,Serial_Dependence_U,2023.2.3,Win32,59.52380952374765,,,,,,3997.578799999952,206.0,6.0,3997.578799999952,206.0,,,,4001.184099999904,4001.683099999904,4000.668799999952,4001.184,3998.601200000048,4000.668599999904,4001.6832000000472,4002.1835,4002.1835,4028.487,3068.0,4028.487299999952,5.0,4028.497200000048,6.0,29.0,209.0,11.0,1.0,1.0,0.3,Time
,,S30,1,女,20,anonymized,Serial_Dependence_U,2023.2.3,Win32,59.52380952374765,,,,,,4028.4974000000952,211.0,7.0,4263.990200000047,211.0,s,235.46550000000025,,4268.183400000095,4268.682599999904,4267.666499999999,4268.183299999952,4264.999400000094,4267.666400000095,4268.682599999904,4269.182499999999,4269.182599999904,4273.783099999904,3878.0,4273.783200000047,5.0,4273.791200000047,7.0,0.0,210.0,14.0,1.0,1.6,0.3,Time
,,S30,1,女,20,anonymized,Serial_Dependence_U,2023.2.3,Win32,59.52380952374765,,,,,,4273.791400000095,97.0,7.0,4273.792,97.0,,,,4277.534299999951,4278.033299999952,4277.018299999952,4277.534200000047,4274.783599999904,4277.018099999904,4278.033400000095,4278.533299999952,4278.533299999952,4293.819299999952,4198.0,4293.8195,5.0,4293.828400000095,7.0,1.0,211.0,17.0,1.0,1.2,0.7,Time
,,S30,1,女,20,anonymized,Serial_Dependence_U,2023.2.3,Win32,59.52380952374765,,,,,,4293.828599999904,233.0,7.0,4293.828700000047,233.0,,,,4297.970400000095,4298.468900000094,4297.453700000047,4297.970299999952,4294.820799999951,4297.4535,4298.468999999999,4298.968900000094,4298.968900000094,4372.220599999904,3469.0,4372.220700000047,5.0,4372.228700000047,7.0,2.0,212.0,19.0,1.0,1.6,0.7,Time
,,S30,1,女,20,anonymized,Serial_Dependence_U,2023.2.3,Win32,59.52380952374765,,,,,,4372.228999999999,228.0,7.0,4372.229099999904,228.0,,,,4376.385700000047,4376.878499999999,4375.869700000047,4376.385599999904,4373.234700000047,4375.869599999904,4376.878599999904,4377.379099999904,4377.379299999951,4392.320400000094,4250.0,4392.320499999999,5.0,4392.328700000047,7.0,3.0,213.0,9.0,1.0,1.6,0.7,Time
,,S30,1,女,20,anonymized,Serial_Dependence_U,2023.2.3,Win32,59.52380952374765,,,,,,4392.328900000095,120.0,7.0,4392.328999999999,120.0,,,,4395.887299999951,4396.380799999952,4395.372299999952,4395.887299999951,4393.335599999904,4395.372200000047,4396.380799999952,4396.880900000095,4396.880999999999,4420.808900000095,3767.0,4420.809099999904,5.0,4420.817499999999,7.0,4.0,214.0,6.0,1.0,1.0,0.7,Time
,,S30,1,女,20,anonymized,Serial_Dependence_U,2023.2.3,Win32,59.52380952374765,,,,,,4420.817700000047,198.0,7.0,4420.818099999904,198.0,,,,4424.391599999904,4424.884200000047,4423.890299999952,4424.391400000095,4421.824400000095,4423.890099999904,4424.884299999952,4425.384400000095,4425.384499999999,4429.375999999999,3850.0,4429.375999999999,5.0,4429.383900000094,7.0,5.0,215.0,11.0,1.0,1.0,0.3,Time
,,S30,1,女,20,anonymized,Serial_Dependence_U,2023.2.3,Win32,59.52380952374765,,,,,,4429.384299999952,271.0,7.0,4429.384599999904,271.0,,,,4432.958900000094,4433.451700000047,4432.457700000047,4432.958799999951,4430.392700000047,4432.457599999904,4433.451799999952,4433.951799999952,4433.951900000095,4456.579400000094,3484.0,4456.579499999999,5.0,4456.589700000047,7.0,6.0,216.0,21.0,1.0,1.0,0.3,Time
,,S30,1,女,20,anonymized,Serial_Dependence_U,2023.2.3,Win32,59.52380952374765,,,,,,4456.589999999999,359.0,7.0,4456.590099999904,359.0,,,,4460.578900000095,4461.077400000095,4460.062200000047,4460.578700000047,4457.594099999904,4460.062099999904,4461.077400000095,4461.572200000047,4461.572299999952,4489.865999999999,3501.0,4489.865999999999,5.0,4489.873700000047,7.0,7.0,217.0,3.0,1.0,1.4,0.3,Time
,,S30,1,女,20,anonymized,Serial_Dependence_U,2023.2.3,Win32,59.52380952374765,,,,,,4489.873999999999,148.0,7.0,4489.873999999999,148.0,,,,4493.233599999904,4493.725700000047,4492.715799999952,4493.233400000095,4490.882299999952,4492.715700000047,4493.725799999952,4494.225799999952,4494.225799999952,4531.604400000095,3717.0,4531.6045,5.0,4531.612900000095,7.0,8.0,218.0,5.0,1.0,0.8,0.7,Time
,,S30,1,女,20,anonymized,Serial_Dependence_U,2023.2.3,Win32,59.52380952374765,,,,,,4531.613099999904,326.0,7.0,4531.613299999952,326.0,,,,4534.969599999904,4535.464799999952,4534.454099999904,4534.969599999904,4532.621299999952,4534.453999999999,4535.464799999952,4535.953,4535.953,4542.007099999904,3518.0,4542.007200000047,5.0,4542.018200000047,7.0,9.0,219.0,25.0,1.0,0.8,0.7,Time
,,S30,1,女,20,anonymized,Serial_Dependence_U,2023.2.3,Win32,59.52380952374765,,,,,,4542.018499999999,57.0,7.0,4542.018599999904,57.0,,,,4546.173299999951,4546.665799999952,4545.655400000094,4546.173200000047,4543.021700000047,4545.655299999951,4546.665799999952,4547.165400000094,4547.165499999999,4578.376400000095,3917.0,4578.376599999904,5.0,4578.384400000095,7.0,10.0,220.0,29.0,1.0,1.6,0.7,Time
,,S30,1,女,20,anonymized,Serial_Dependence_U,2023.2.3,Win32,59.52380952374765,,,,,,4578.384599999904,104.0,7.0,4578.384599999904,104.0,,,,4581.926700000047,4582.424900000095,4581.425599999904,4581.9265,4579.391799999951,4581.425499999999,4582.424999999999,4582.920200000047,4582.920200000047,4593.745799999952,4101.0,4593.745900000095,5.0,4593.755700000047,7.0,11.0,221.0,16.0,1.0,1.0,0.7,Time
,,S30,1,女,20,anonymized,Serial_Dependence_U,2023.2.3,Win32,59.52380952374765,,,,,,4593.755900000095,164.0,7.0,4593.756099999904,164.0,,,,4597.546099999904,4598.038700000047,4597.029599999903,4597.545999999999,4594.760099999904,4597.0295,4598.038700000047,4598.5425,4598.542599999904,4620.082900000095,4718.0,4620.082900000095,5.0,4620.091900000095,7.0,12.0,222.0,12.0,1.0,1.2,0.3,Time
,,S30,1,女,20,anonymized,Serial_Dependence_U,2023.2.3,Win32,59.52380952374765,,,,,,4620.092200000047,88.0,7.0,4620.092299999951,88.0,,,,4623.481400000094,4623.974900000095,4622.965400000095,4623.481400000094,4621.0965,4622.965200000047,4623.974900000095,4624.48,4624.480099999904,4633.485299999951,3885.0,4633.485499999999,5.0,4633.494799999951,7.0,13.0,223.0,20.0,1.0,0.8,0.3,Time
,,S30,1,女,20,anonymized,Serial_Dependence_U,2023.2.3,Win32,59.52380952374765,,,,,,4633.495099999904,211.0,7.0,4633.495200000047,211.0,,,,4637.699900000094,4638.198799999952,4637.183700000047,4637.699799999951,4634.516499999999,4637.183599999904,4638.198799999952,4638.698099999904,4638.698099999904,4647.088099999904,3886.0,4647.088299999951,5.0,4647.096,7.0,14.0,224.0,24.0,1.0,1.6,0.3,Time
,,S30,1,女,20,anonymized,Serial_Dependence_U,2023.2.3,Win32,59.52380952374765,,,,,,4647.096299999952,154.0,7.0,4647.096400000095,154.0,,,,4650.485299999951,4650.978200000047,4649.968499999999,4650.485299999951,4648.100799999952,4649.968400000094,4650.978200000047,4651.483099999904,4651.483099999904,4687.805599999904,3967.0,4687.805700000047,5.0,4687.814700000047,7.0,15.0,225.0,0.0,1.0,0.8,0.3,Time
,,S30,1,女,20,anonymized,Serial_Dependence_U,2023.2.3,Win32,59.52380952374765,,,,,,4687.815,255.0,7.0,4687.815099999904,255.0,,,,4691.756200000047,4692.249700000047,4691.254799999952,4691.756099999904,4688.823099999904,4691.254799999952,4692.249799999951,4692.749799999951,4692.749799999951,4699.491799999952,4185.0,4699.491799999952,5.0,4699.500200000047,7.0,16.0,226.0,18.0,1.0,1.4,0.7,Time
,,S30,1,女,20,anonymized,Serial_Dependence_U,2023.2.3,Win32,59.52380952374765,,,,,,4699.500499999999,113.0,7.0,4699.500700000047,113.0,,,,4703.092499999999,4703.584499999999,4702.574299999952,4703.092400000095,4700.509200000047,4702.574200000047,4703.584499999999,4704.089099999904,4704.089200000047,4707.424099999904,3016.0,4707.424200000047,5.0,4707.432799999951,7.0,17.0,227.0,1.0,1.0,1.0,0.3,Time
,,S30,1,女,20,anonymized,Serial_Dependence_U,2023.2.3,Win32,59.52380952374765,,,,,,4707.432999999999,196.0,7.0,4707.433099999904,196.0,,,,4711.160200000047,4711.651900000094,4710.657400000095,4711.159999999999,4708.425799999952,4710.657400000095,4711.651900000094,4712.141200000047,4712.141200000047,4716.275999999999,3867.0,4716.276200000047,5.0,4716.284999999999,7.0,18.0,228.0,7.0,1.0,1.2,0.7,Time
,,S30,1,女,20,anonymized,Serial_Dependence_U,2023.2.3,Win32,59.52380952374765,,,,,,4716.285299999951,332.0,7.0,4716.285400000094,332.0,,,,4720.270400000095,4720.770200000047,4719.760099999904,4720.270299999952,4717.291499999999,4719.759999999999,4720.770200000047,4721.257900000094,4721.257900000094,4737.697700000047,4103.0,4737.697999999999,5.0,4737.707599999904,7.0,19.0,229.0,13.0,1.0,1.4,0.3,Time
,,S30,1,女,20,anonymized,Serial_Dependence_U,2023.2.3,Win32,59.52380952374765,,,,,,4737.708099999904,237.0,7.0,4737.708200000047,237.0,,,,4741.479299999952,4741.972499999999,4740.977900000094,4741.479200000047,4738.712700000047,4740.977799999952,4741.972499999999,4742.472499999999,4742.472599999904,4755.831299999952,4200.0,4755.831299999952,5.0,4755.840099999904,7.0,20.0,230.0,2.0,1.0,1.2,0.3,Time
,,S30,1,女,20,anonymized,Serial_Dependence_U,2023.2.3,Win32,59.52380952374765,,,,,,4755.840499999999,350.0,7.0,4755.840700000047,350.0,,,,4759.780599999904,4760.274900000095,4759.279599999903,4759.780499999999,4756.847299999951,4759.279599999903,4760.274900000095,4760.763900000095,4760.763999999999,4765.615799999951,4217.0,4765.615799999951,5.0,4765.621200000047,7.0,21.0,231.0,8.0,1.0,1.4,0.7,Time
,,S30,1,女,20,anonymized,Serial_Dependence_U,2023.2.3,Win32,59.52380952374765,,,,,,4765.621400000095,59.0,7.0,4765.621599999904,59.0,,,,4769.015799999952,4769.509200000047,4768.499499999999,4769.015599999904,4766.632999999999,4768.499400000094,4769.509200000047,4770.013799999952,4770.013799999952,4774.935099999904,4400.0,4774.935200000047,5.0,4774.946400000094,7.0,22.0,232.0,10.0,1.0,0.8,0.3,Time
,,S30,1,女,20,anonymized,Serial_Dependence_U,2023.2.3,Win32,59.52380952374765,,,,,,4774.946700000047,46.0,7.0,4774.946900000095,46.0,,,,4778.934099999904,4779.432400000094,4778.418299999951,4778.934099999904,4775.951499999999,4778.417700000047,4779.432400000094,4779.927099999904,4779.927099999904,4785.102099999904,4350.0,4785.102200000047,5.0,4785.110999999999,7.0,23.0,233.0,23.0,1.0,1.4,0.3,Time
,,S30,1,女,20,anonymized,Serial_Dependence_U,2023.2.3,Win32,59.52380952374765,,,,,,4785.111299999951,166.0,7.0,4785.111400000094,166.0,,,,4788.651700000047,4789.148299999952,4788.150700000047,4788.651499999999,4786.118,4788.150700000047,4789.148299999952,4789.644799999952,4789.644900000095,4796.553700000047,3701.0,4796.553799999952,5.0,4796.562799999952,7.0,24.0,234.0,26.0,1.0,1.0,0.7,Time
,,S30,1,女,20,anonymized,Serial_Dependence_U,2023.2.3,Win32,59.52380952374765,,,,,,4796.563099999904,241.0,7.0,4796.563099999904,241.0,,,,4800.318099999904,4800.812599999904,4799.802999999999,4800.318099999904,4797.569400000095,4799.802999999999,4800.812599999904,4801.312799999952,4801.312900000095,4805.421900000095,3701.0,4805.422,5.0,4805.431299999952,7.0,25.0,235.0,27.0,1.0,1.2,0.7,Time
,,S30,1,女,20,anonymized,Serial_Dependence_U,2023.2.3,Win32,59.52380952374765,,,,,,4805.431599999904,111.0,7.0,4805.431700000047,111.0,,,,4809.221799999951,4809.713799999951,4808.704799999951,4809.221799999951,4806.437299999951,4808.704700000047,4809.713799999951,4810.214200000047,4810.214299999951,4814.189299999952,3817.0,4814.1895,5.0,4814.198400000095,7.0,26.0,236.0,22.0,1.0,1.2,0.3,Time
,,S30,1,女,20,anonymized,Serial_Dependence_U,2023.2.3,Win32,59.52380952374765,,,,,,4814.198599999904,329.0,7.0,4814.198700000047,329.0,,,,4818.154799999951,4818.648499999999,4817.638900000095,4818.154700000047,4815.205099999904,4817.638700000047,4818.648599999904,4819.148999999999,4819.148999999999,4825.205700000047,5167.0,4825.205799999952,5.0,4825.214200000047,7.0,27.0,237.0,28.0,1.0,1.4,0.7,Time
,,S30,1,女,20,anonymized,Serial_Dependence_U,2023.2.3,Win32,59.52380952374765,,,,,,4825.214599999904,180.0,7.0,4825.214599999904,180.0,,,,4828.573799999952,4829.066499999999,4828.056400000095,4828.573700000047,4826.223799999952,4828.056299999952,4829.066599999904,4829.566400000094,4829.566499999999,4834.341700000047,3351.0,4834.341799999952,5.0,4834.350400000095,7.0,28.0,238.0,15.0,1.0,0.8,0.7,Time
,,S30,1,女,20,anonymized,Serial_Dependence_U,2023.2.3,Win32,59.52380952374765,,,,,,4834.350700000047,236.0,7.0,4834.350799999952,236.0,,,,4838.541200000047,4839.039900000094,4838.024799999952,4838.540999999999,4835.355900000095,4838.024599999904,4839.039999999999,4839.538700000047,4839.538700000047,4862.811999999999,4700.0,4862.812099999904,5.0,4862.821999999999,7.0,29.0,239.0,4.0,1.0,1.6,0.3,Time
,,S30,1,女,20,anonymized,Serial_Dependence_U,2023.2.3,Win32,59.52380952374765,,,,,,4862.822299999952,106.0,8.0,5010.568299999952,106.0,s,147.71920000004775,,5013.946099999904,5014.439099999904,5013.429499999999,5013.945999999999,5011.562499999999,5013.429400000095,5014.439099999904,5014.939700000047,5014.939799999952,5019.397099999904,3400.0,5019.397200000047,5.0,5019.409200000047,8.0,0.0,240.0,0.0,1.0,0.8,0.3,Time
,,S30,1,女,20,anonymized,Serial_Dependence_U,2023.2.3,Win32,59.52380952374765,,,,,,5019.409599999904,105.0,8.0,5019.410700000047,105.0,,,,5022.781299999951,5023.272799999952,5022.279599999903,5022.781200000047,5020.413400000095,5022.2795,5023.272799999952,5023.773599999904,5023.773599999904,5028.098400000094,3467.0,5028.098499999999,5.0,5028.105700000047,8.0,1.0,241.0,10.0,1.0,0.8,0.3,Time
,,S30,1,女,20,anonymized,Serial_Dependence_U,2023.2.3,Win32,59.52380952374765,,,,,,5028.105900000095,103.0,8.0,5028.105999999999,103.0,,,,5032.245999999999,5032.740900000094,5031.730099999904,5032.245999999999,5029.097099999904,5031.73,5032.740900000094,5033.229400000095,5033.229400000095,5038.081900000095,4134.0,5038.081900000095,5.0,5038.087200000047,8.0,2.0,242.0,9.0,1.0,1.6,0.7,Time
,,S30,1,女,20,anonymized,Serial_Dependence_U,2023.2.3,Win32,59.52380952374765,,,,,,5038.0875,82.0,8.0,5038.087599999903,82.0,,,,5042.065900000094,5042.558999999999,5041.565299999952,5042.065700000047,5039.099299999952,5041.565200000047,5042.559099999904,5043.059499999999,5043.059499999999,5048.083299999951,4234.0,5048.083400000095,5.0,5048.090400000095,8.0,3.0,243.0,13.0,1.0,1.4,0.3,Time
,,S30,1,女,20,anonymized,Serial_Dependence_U,2023.2.3,Win32,59.52380952374765,,,,,,5048.090599999904,244.0,8.0,5048.090700000047,244.0,,,,5051.833499999999,5052.326999999999,5051.315999999999,5051.833400000095,5049.082400000095,5051.315799999951,5052.326999999999,5052.829700000047,5052.829700000047,5057.803900000095,4269.0,5057.803999999999,5.0,5057.812400000094,8.0,4.0,244.0,17.0,1.0,1.2,0.7,Time
,,S30,1,女,20,anonymized,Serial_Dependence_U,2023.2.3,Win32,59.52380952374765,,,,,,5057.812700000047,91.0,8.0,5057.812700000047,91.0,,,,5061.169200000047,5061.661200000047,5060.651299999951,5061.168999999999,5058.819,5060.651200000047,5061.661299999952,5062.149299999952,5062.149400000095,5066.303200000047,3768.0,5066.303299999951,5.0,5066.311900000094,8.0,5.0,245.0,5.0,1.0,0.8,0.7,Time
,,S30,1,女,20,anonymized,Serial_Dependence_U,2023.2.3,Win32,59.52380952374765,,,,,,5066.312299999951,227.0,8.0,5066.312499999999,227.0,,,,5070.469900000095,5070.964999999999,5069.952299999952,5070.469799999952,5067.318700000047,5069.952200000047,5070.964999999999,5071.462599999903,5071.462700000047,5075.819999999999,3933.0,5075.820099999904,5.0,5075.827400000095,8.0,6.0,246.0,29.0,1.0,1.6,0.7,Time
,,S30,1,女,20,anonymized,Serial_Dependence_U,2023.2.3,Win32,59.52380952374765,,,,,,5075.827599999904,10.0,8.0,5075.827700000047,10.0,,,,5079.787099999904,5080.279700000047,5079.269200000047,5079.787099999904,5076.836599999904,5079.269200000047,5080.279700000047,5080.7835,5080.7835,5085.021700000047,3985.0,5085.021900000094,5.0,5085.030799999951,8.0,7.0,247.0,18.0,1.0,1.4,0.7,Time
,,S30,1,女,20,anonymized,Serial_Dependence_U,2023.2.3,Win32,59.52380952374765,,,,,,5085.030999999999,106.0,8.0,5085.031099999904,106.0,,,,5088.955499999999,5089.447700000047,5088.453799999951,5088.955299999951,5086.020700000047,5088.453799999951,5089.447700000047,5089.947900000095,5089.947999999999,5101.573299999952,4200.0,5101.5735,5.0,5101.583599999904,8.0,8.0,248.0,28.0,1.0,1.4,0.7,Time
,,S30,1,女,20,anonymized,Serial_Dependence_U,2023.2.3,Win32,59.52380952374765,,,,,,5101.583900000094,154.0,8.0,5101.583900000094,154.0,,,,5104.956099999904,5105.449499999999,5104.455499999999,5104.955999999999,5102.589799999952,5104.455400000094,5105.449499999999,5105.937299999951,5105.937299999951,5162.4315,3169.0,5162.431700000047,5.0,5162.438599999904,8.0,9.0,249.0,20.0,1.0,0.8,0.3,Time
,,S30,1,女,20,anonymized,Serial_Dependence_U,2023.2.3,Win32,59.52380952374765,,,,,,5162.438900000095,353.0,8.0,5162.438900000095,353.0,,,,5166.197400000095,5166.690700000047,5165.680700000047,5166.197400000095,5163.447499999999,5165.680200000047,5166.690700000047,5167.179499999999,5167.179499999999,5172.831200000047,4918.0,5172.831200000047,5.0,5172.841099999904,8.0,10.0,250.0,27.0,1.0,1.2,0.7,Time
,,S30,1,女,20,anonymized,Serial_Dependence_U,2023.2.3,Win32,59.52380952374765,,,,,,5172.841299999952,44.0,8.0,5172.841400000095,44.0,,,,5176.633200000047,5177.130499999999,5176.115999999999,5176.633099999904,5173.848799999952,5176.115999999999,5177.130499999999,5177.630499999999,5177.630599999904,5186.117900000095,4486.0,5186.118099999904,5.0,5186.125999999999,8.0,11.0,251.0,2.0,1.0,1.2,0.3,Time
,,S30,1,女,20,anonymized,Serial_Dependence_U,2023.2.3,Win32,59.52380952374765,,,,,,5186.126299999952,184.0,8.0,5186.126299999952,184.0,,,,5190.116799999952,5190.609900000095,5189.600099999904,5190.116700000047,5187.133900000094,5189.599900000095,5190.609900000095,5191.11,5191.11,5196.035400000094,4400.0,5196.035499999999,5.0,5196.044299999951,8.0,12.0,252.0,3.0,1.0,1.4,0.3,Time
