Scale_setup.started,Scale_setup.stopped,participant,session,sex,age,date,expName,psychopyVersion,OS,frameRate,Intro.started,Intro.stopped,key_resp_2.keys,key_resp_2.rt,key_resp_2.duration,block.started,direction,Block_id,block.stopped,trial_direction,Block_resp_2.keys,Block_resp_2.rt,Block_resp_2.duration,ITI.started,ITI.stopped,Mask_2.started,Mask_2.stopped,encoding.started,encoding.stopped,Cue.started,Cue.stopped,Response.started,Response.stopped,keyDuration,Feedback_Time.started,FeedbackID_T,Feedback_Time.stopped,trials.thisRepN,trials.thisTrialN,trials.thisN,trials.thisIndex,trials.ran,TimeDur,Coherence1,TrialType
0.0002000000178838,0.0003000000119257,S31,1,女性,25,anonymized,Serial_Dependence_U,2023.2.3,Win32,93.45794392525906,,,,,,,,,,,,,,,,,,,,,,,,,,,,,,,,,,,
,,S31,1,女性,25,anonymized,Serial_Dependence_U,2023.2.3,Win32,93.45794392525906,17.645700000017882,347.7265,space,330.05740000000594,,,,,,,,,,,,,,,,,,,,,,,,,,,,,,,
,,S31,1,女性,25,anonymized,Serial_Dependence_U,2023.2.3,Win32,93.45794392525906,,,,,,347.7318000000119,290.0,0.0,351.9171000000238,290.0,s,4.168999999999983,,355.6895,356.1888000000119,355.18470000001787,355.68940000000595,352.9143000000119,355.1846000000238,356.188900000006,356.6891000000238,356.68940000000595,366.1861000000238,2378.0,366.1863000000119,5.0,367.1785,0.0,0.0,0.0,12.0,1.0,1.2,0.3,Time
,,S31,1,女性,25,anonymized,Serial_Dependence_U,2023.2.3,Win32,93.45794392525906,,,,,,367.1792000000179,245.0,0.0,367.1805,245.0,,,,371.32260000002384,371.82220000001786,370.82020000001785,371.3225,368.1822000000179,370.82010000002384,371.8223000000119,372.32220000001786,372.3224000000059,376.8465,3566.0,376.8465,5.0,377.844400000006,0.0,1.0,1.0,19.0,1.0,1.6,0.7,Time
,,S31,1,女性,25,anonymized,Serial_Dependence_U,2023.2.3,Win32,93.45794392525906,,,,,,377.844900000006,217.0,0.0,377.8451000000238,217.0,,,,382.01170000001787,382.5113000000119,381.5085,382.0115,378.8406000000238,381.5085,382.5113000000119,383.00740000000593,383.00740000000593,385.2851000000238,1956.0,385.2852000000179,4.0,386.28460000002383,0.0,2.0,2.0,4.0,1.0,1.6,0.3,Time
,,S31,1,女性,25,anonymized,Serial_Dependence_U,2023.2.3,Win32,93.45794392525906,,,,,,386.2851000000238,326.0,0.0,386.2852000000179,326.0,,,,389.826,390.3223000000119,389.3186000000238,389.825900000006,387.2856000000238,389.3185,390.3223000000119,390.817,390.8171000000239,410.286,3467.0,410.286,5.0,411.2782000000179,0.0,3.0,3.0,16.0,1.0,1.0,0.7,Time
,,S31,1,女性,25,anonymized,Serial_Dependence_U,2023.2.3,Win32,93.45794392525906,,,,,,411.27870000001786,118.0,0.0,411.279,118.0,,,,415.44490000000593,415.939400000006,414.9423000000119,415.44490000000593,412.2781000000238,414.9423000000119,415.939400000006,416.4333000000119,416.4333000000119,421.0303000000119,4401.0,421.0303000000119,5.0,422.0306000000238,0.0,4.0,4.0,24.0,1.0,1.6,0.3,Time
,,S31,1,女性,25,anonymized,Serial_Dependence_U,2023.2.3,Win32,93.45794392525906,,,,,,422.0311000000239,289.0,0.0,422.03120000001786,289.0,,,,425.378900000006,425.87770000001785,424.8736000000238,425.3788000000119,423.0336000000239,424.8736000000238,425.8778000000119,426.374,426.374,451.76420000001787,1134.0,451.76420000001787,5.0,452.756400000006,0.0,5.0,5.0,5.0,1.0,0.8,0.7,Time
,,S31,1,女性,25,anonymized,Serial_Dependence_U,2023.2.3,Win32,93.45794392525906,,,,,,452.7567000000179,47.0,0.0,452.756800000012,47.0,,,,456.734400000006,457.23360000002384,456.2298000000119,456.7343000000119,453.7566000000238,456.2297000000179,457.23360000002384,457.7338000000119,457.7338000000119,458.68520000001786,277.0,458.6853000000119,1.0,459.678,0.0,6.0,6.0,3.0,1.0,1.4,0.3,Time
,,S31,1,女性,25,anonymized,Serial_Dependence_U,2023.2.3,Win32,93.45794392525906,,,,,,459.6785,172.0,0.0,459.67860000002383,172.0,,,,463.064,463.55860000002383,462.5517000000179,463.063900000006,460.68560000002384,462.551400000006,463.5587000000179,464.0558000000119,464.0559000000059,465.97410000002384,1685.0,465.97410000002384,5.0,466.967,0.0,7.0,7.0,20.0,1.0,0.8,0.3,Time
,,S31,1,女性,25,anonymized,Serial_Dependence_U,2023.2.3,Win32,93.45794392525906,,,,,,466.9672000000179,90.0,0.0,466.9673000000119,90.0,,,,470.7301000000238,471.2295,470.2188000000119,470.73,467.9783000000119,470.2186000000239,471.2295,471.722400000006,471.7225,473.1929000000059,986.0,473.193,2.0,474.1965,0.0,8.0,8.0,7.0,1.0,1.2,0.7,Time
,,S31,1,女性,25,anonymized,Serial_Dependence_U,2023.2.3,Win32,93.45794392525906,,,,,,474.19690000000594,269.0,0.0,474.19690000000594,269.0,,,,477.7783000000119,478.2855,477.2732000000178,477.7783000000119,475.2087000000178,477.2731000000239,478.2855,478.7786000000239,478.7787000000179,479.7857000000178,850.0,479.78580000001193,2.0,480.7781000000239,0.0,9.0,9.0,21.0,1.0,1.0,0.3,Time
,,S31,1,女性,25,anonymized,Serial_Dependence_U,2023.2.3,Win32,93.45794392525906,,,,,,480.7786000000239,198.0,0.0,480.7787000000179,198.0,,,,484.522900000006,485.0227000000178,484.016400000006,484.5228000000119,481.783,484.016300000012,485.0227000000178,485.5299000000059,485.53,487.996800000012,1789.0,487.996800000012,5.0,488.9891000000239,0.0,10.0,10.0,27.0,1.0,1.2,0.7,Time
,,S31,1,女性,25,anonymized,Serial_Dependence_U,2023.2.3,Win32,93.45794392525906,,,,,,488.9895,349.0,0.0,488.9898000000119,349.0,,,,493.1628000000119,493.6555,492.6532000000178,493.1626000000239,489.9895,492.6532000000178,493.6556000000238,494.1621000000239,494.1621000000239,496.108,1232.0,496.1081000000238,2.0,497.1031000000238,0.0,11.0,11.0,14.0,1.0,1.6,0.3,Time
,,S31,1,女性,25,anonymized,Serial_Dependence_U,2023.2.3,Win32,93.45794392525906,,,,,,497.103400000006,317.0,0.0,497.1035,317.0,,,,500.48540000000594,500.9781000000238,499.9835,500.48540000000594,498.119400000006,499.9833000000119,500.97820000001786,501.477800000012,501.477800000012,502.59640000000593,899.0,502.5965,4.0,503.589400000006,0.0,12.0,12.0,0.0,1.0,0.8,0.3,Time
,,S31,1,女性,25,anonymized,Serial_Dependence_U,2023.2.3,Win32,93.45794392525906,,,,,,503.589900000006,103.0,0.0,503.59,103.0,,,,507.1573000000119,507.656,506.6538000000119,507.1571000000238,504.6081000000238,506.6536000000239,507.6561000000238,508.155900000006,508.155900000006,509.7963000000119,1135.0,509.796400000006,4.0,510.789300000012,0.0,13.0,13.0,26.0,1.0,1.0,0.7,Time
,,S31,1,女性,25,anonymized,Serial_Dependence_U,2023.2.3,Win32,93.45794392525906,,,,,,510.7897000000179,140.0,0.0,510.7899000000059,140.0,,,,514.3392000000179,514.8391000000238,513.8305,514.3392000000179,511.7896000000238,513.830400000006,514.8391000000238,515.3415,515.3415,517.2309000000059,1354.0,517.2309000000059,5.0,518.2235,0.0,14.0,14.0,6.0,1.0,1.0,0.7,Time
,,S31,1,女性,25,anonymized,Serial_Dependence_U,2023.2.3,Win32,93.45794392525906,,,,,,518.2239999999999,204.0,0.0,518.2242000000178,204.0,,,,521.9966000000238,522.489,521.4959000000059,521.9966000000238,519.2303000000119,521.4958000000119,522.489,522.9852000000178,522.9853000000119,524.2854000000059,844.0,524.2854000000059,2.0,525.2778000000119,0.0,15.0,15.0,22.0,1.0,1.2,0.3,Time
,,S31,1,女性,25,anonymized,Serial_Dependence_U,2023.2.3,Win32,93.45794392525906,,,,,,525.2781000000239,207.0,0.0,525.2783000000119,207.0,,,,529.0301000000238,529.526400000006,528.5192000000179,529.03,526.2852000000179,528.5191000000239,529.526400000006,530.0227000000178,530.0228000000119,532.3186000000238,1755.0,532.3186000000238,5.0,533.311400000006,0.0,16.0,16.0,17.0,1.0,1.2,0.7,Time
,,S31,1,女性,25,anonymized,Serial_Dependence_U,2023.2.3,Win32,93.45794392525906,,,,,,533.3117000000178,99.0,0.0,533.311900000006,99.0,,,,537.0971000000238,537.5892000000179,536.585900000006,537.0969000000059,534.3177000000179,536.585900000006,537.5893000000119,538.0889999999999,538.0889999999999,539.73,1203.0,539.73,3.0,540.7283000000119,0.0,17.0,17.0,2.0,1.0,1.2,0.3,Time
,,S31,1,女性,25,anonymized,Serial_Dependence_U,2023.2.3,Win32,93.45794392525906,,,,,,540.7286000000238,338.0,0.0,540.7286000000238,338.0,,,,544.3196000000238,544.8131000000238,543.8089000000059,544.319400000006,541.7414000000059,543.8089000000059,544.8132000000179,545.3112000000178,545.3113000000119,546.6124000000059,1002.0,546.6125,3.0,547.6152000000179,0.0,18.0,18.0,1.0,1.0,1.0,0.3,Time
,,S31,1,女性,25,anonymized,Serial_Dependence_U,2023.2.3,Win32,93.45794392525906,,,,,,547.6154000000059,265.0,0.0,547.6155,265.0,,,,551.5624000000059,552.056,551.0528000000119,551.5623000000119,548.6192000000178,551.0527000000179,552.056,552.5558000000119,552.5558000000119,554.5866000000239,1746.0,554.5866000000239,4.0,555.5788000000119,0.0,19.0,19.0,8.0,1.0,1.4,0.7,Time
,,S31,1,女性,25,anonymized,Serial_Dependence_U,2023.2.3,Win32,93.45794392525906,,,,,,555.5792000000179,191.0,0.0,555.579400000006,191.0,,,,559.5785,560.0779000000059,559.0672000000179,559.5784000000059,556.5971000000238,559.0672000000179,560.078,560.578300000012,560.578300000012,562.1336000000239,1300.0,562.1336000000239,2.0,563.1336000000239,0.0,20.0,20.0,23.0,1.0,1.4,0.3,Time
,,S31,1,女性,25,anonymized,Serial_Dependence_U,2023.2.3,Win32,93.45794392525906,,,,,,563.1338000000119,165.0,0.0,563.133900000006,165.0,,,,566.7117000000179,567.2112000000179,566.2007000000178,566.7116000000239,564.134,566.2006000000239,567.2112000000179,567.7114000000059,567.7114000000059,569.9336000000238,1910.0,569.9336000000238,5.0,570.9335,0.0,21.0,21.0,11.0,1.0,1.0,0.3,Time
,,S31,1,女性,25,anonymized,Serial_Dependence_U,2023.2.3,Win32,93.45794392525906,,,,,,570.9337000000179,55.0,0.0,570.9339000000059,55.0,,,,575.0785,575.5781000000238,574.5672000000179,575.0784000000059,571.933800000012,574.5671000000239,575.5781000000238,576.0779000000059,576.0779000000059,577.844900000006,1233.0,577.845,2.0,578.8448000000119,0.0,22.0,22.0,29.0,1.0,1.6,0.7,Time
,,S31,1,女性,25,anonymized,Serial_Dependence_U,2023.2.3,Win32,93.45794392525906,,,,,,578.8451000000239,81.0,0.0,578.8452000000178,81.0,,,,582.8336000000238,583.3336000000238,582.3229000000059,582.8336000000238,579.856,582.3229000000059,583.3336000000238,583.8336000000238,583.8336000000238,585.3447000000178,1289.0,585.3447000000178,2.0,586.3448000000119,0.0,23.0,23.0,13.0,1.0,1.4,0.3,Time
,,S31,1,女性,25,anonymized,Serial_Dependence_U,2023.2.3,Win32,93.45794392525906,,,,,,586.3451000000239,296.0,0.0,586.3452000000178,296.0,,,,590.5006000000238,591.0004000000059,589.9892000000178,590.5005,587.3561000000238,589.9892000000178,591.0004000000059,591.5001000000238,591.5001000000238,593.6114000000059,1811.0,593.6115,4.0,594.6113000000119,0.0,24.0,24.0,9.0,1.0,1.6,0.7,Time
,,S31,1,女性,25,anonymized,Serial_Dependence_U,2023.2.3,Win32,93.45794392525906,,,,,,594.6115,347.0,0.0,594.6117000000179,347.0,,,,597.9671000000238,598.467,597.4562000000178,597.9671000000238,595.6226000000238,597.4561000000239,598.467,598.9671000000238,598.9671000000238,600.8113000000119,1490.0,600.8113000000119,5.0,601.8113000000119,0.0,25.0,25.0,25.0,1.0,0.8,0.7,Time
,,S31,1,女性,25,anonymized,Serial_Dependence_U,2023.2.3,Win32,93.45794392525906,,,,,,601.8116000000239,111.0,0.0,601.8117000000178,111.0,,,,605.1673000000119,605.666900000006,604.656,605.1672000000178,602.8228000000119,604.655900000006,605.667,606.1672000000178,606.1672000000178,607.2006000000239,745.0,607.2007000000178,2.0,608.2007000000178,0.0,26.0,26.0,15.0,1.0,0.8,0.7,Time
,,S31,1,女性,25,anonymized,Serial_Dependence_U,2023.2.3,Win32,93.45794392525906,,,,,,608.2013000000119,335.0,0.0,608.201400000006,335.0,,,,612.1451000000238,612.6449000000059,611.634,612.145,609.2006000000239,611.6338000000119,612.645,613.1448000000119,613.1448000000119,614.8782000000178,1432.0,614.8783000000119,3.0,615.8781000000238,0.0,27.0,27.0,18.0,1.0,1.4,0.7,Time
,,S31,1,女性,25,anonymized,Serial_Dependence_U,2023.2.3,Win32,93.45794392525906,,,,,,615.8783000000119,8.0,0.0,615.878400000006,8.0,,,,619.2672000000179,619.7673000000119,618.7561000000238,619.2672000000179,616.8895,618.756,619.7673000000119,620.2671000000238,620.2671000000238,624.055900000006,1089.0,624.055900000006,5.0,625.0557000000179,0.0,28.0,28.0,10.0,1.0,0.8,0.3,Time
,,S31,1,女性,25,anonymized,Serial_Dependence_U,2023.2.3,Win32,93.45794392525906,,,,,,625.056,39.0,0.0,625.056,39.0,,,,629.0116000000238,629.5117000000179,628.500800000012,629.0116000000238,626.0671000000239,628.5007000000179,629.5117000000179,630.0115,630.0116000000238,657.1447000000179,1022.0,657.1448000000119,2.0,658.1448000000119,0.0,29.0,29.0,28.0,1.0,1.4,0.7,Time
,,S31,1,女性,25,anonymized,Serial_Dependence_U,2023.2.3,Win32,93.45794392525906,,,,,,658.145,164.0,1.0,741.228,164.0,s,83.06569999998817,,744.978400000006,745.4783000000119,744.4674000000059,744.9783000000119,742.234,744.4674000000059,745.4783000000119,745.9783000000119,745.9783000000119,751.7006000000239,2979.0,751.7006000000239,5.0,751.705900000006,1.0,0.0,30.0,7.0,1.0,1.2,0.7,Time
,,S31,1,女性,25,anonymized,Serial_Dependence_U,2023.2.3,Win32,93.45794392525906,,,,,,751.7061000000239,98.0,1.0,751.7069000000059,98.0,,,,755.6896000000238,756.1893000000119,755.1787000000179,755.6896000000238,752.7119000000059,755.1787000000179,756.189400000006,756.6895,756.6895,759.3338000000119,2244.0,759.3338000000119,5.0,759.3395,1.0,1.0,31.0,3.0,1.0,1.4,0.3,Time
,,S31,1,女性,25,anonymized,Serial_Dependence_U,2023.2.3,Win32,93.45794392525906,,,,,,759.3397000000178,162.0,1.0,759.3397000000178,162.0,,,,763.3195,763.8187000000179,762.809,763.3195,760.3421000000238,762.8089000000059,763.8187000000179,764.319400000006,764.319400000006,767.3643000000119,2910.0,767.364400000006,5.0,767.37,1.0,2.0,32.0,13.0,1.0,1.4,0.3,Time
,,S31,1,女性,25,anonymized,Serial_Dependence_U,2023.2.3,Win32,93.45794392525906,,,,,,767.3703000000119,131.0,1.0,767.3703000000119,131.0,,,,771.1521000000238,771.6449000000059,770.6341000000239,771.151900000006,768.3715,770.634,771.6449000000059,772.145300000012,772.1454000000059,780.031,2212.0,780.031,5.0,780.036400000006,1.0,3.0,33.0,22.0,1.0,1.2,0.3,Time
,,S31,1,女性,25,anonymized,Serial_Dependence_U,2023.2.3,Win32,93.45794392525906,,,,,,780.0366000000238,212.0,1.0,780.0367000000178,212.0,,,,783.7786000000239,784.2738000000119,783.2749000000059,783.778400000006,781.0409999999999,783.2749000000059,784.2739000000059,784.7673000000119,784.767400000006,788.7792000000179,3369.0,788.7792000000179,5.0,788.786400000006,1.0,4.0,34.0,17.0,1.0,1.2,0.7,Time
,,S31,1,女性,25,anonymized,Serial_Dependence_U,2023.2.3,Win32,93.45794392525906,,,,,,788.7867000000178,350.0,1.0,788.7868000000119,350.0,,,,792.945400000006,793.444900000006,792.4341000000238,792.945400000006,789.8016000000239,792.4341000000238,793.4449999999999,793.9449999999999,793.9449999999999,799.0672000000179,4055.0,799.0673000000119,5.0,799.0725,1.0,5.0,35.0,9.0,1.0,1.6,0.7,Time
,,S31,1,女性,25,anonymized,Serial_Dependence_U,2023.2.3,Win32,93.45794392525906,,,,,,799.0728000000119,82.0,1.0,799.0728000000119,82.0,,,,802.4046000000238,802.9006000000238,801.901,802.4045,800.0673000000119,801.900900000006,802.9006000000238,803.4005,803.4006000000238,808.2117000000179,3988.0,808.2117000000179,5.0,808.2168000000119,1.0,6.0,36.0,25.0,1.0,0.8,0.7,Time
,,S31,1,女性,25,anonymized,Serial_Dependence_U,2023.2.3,Win32,93.45794392525906,,,,,,808.2171000000238,192.0,1.0,808.2171000000238,192.0,,,,811.5898000000119,812.0895,811.0787000000179,811.5898000000119,809.2137000000179,811.0785,812.0895,812.5895,812.5896000000238,816.645,3332.0,816.6451000000238,5.0,816.6502000000179,1.0,7.0,37.0,20.0,1.0,0.8,0.3,Time
,,S31,1,女性,25,anonymized,Serial_Dependence_U,2023.2.3,Win32,93.45794392525906,,,,,,816.6504000000059,2.0,1.0,816.6505,2.0,,,,820.2343000000119,820.734,819.7231000000238,820.2343000000119,817.6563000000119,819.7231000000238,820.7341000000238,821.233900000006,821.233900000006,824.222800000012,2478.0,824.2229000000059,5.0,824.227900000006,1.0,8.0,38.0,11.0,1.0,1.0,0.3,Time
,,S31,1,女性,25,anonymized,Serial_Dependence_U,2023.2.3,Win32,93.45794392525906,,,,,,824.2282000000179,296.0,1.0,824.2283000000119,296.0,,,,828.3785,828.878400000006,827.8675,828.3785,825.2341000000238,827.867400000006,828.878400000006,829.378400000006,829.378400000006,833.0117000000179,3599.0,833.0118000000119,5.0,833.0173000000119,1.0,9.0,39.0,19.0,1.0,1.6,0.7,Time
,,S31,1,女性,25,anonymized,Serial_Dependence_U,2023.2.3,Win32,93.45794392525906,,,,,,833.0175,223.0,1.0,833.0176000000238,223.0,,,,837.2008000000119,837.7007000000178,836.6897000000179,837.2008000000119,834.023,836.6896000000238,837.7007000000178,838.2008000000119,838.200900000006,843.1007000000179,3233.0,843.1008000000119,5.0,843.1064000000059,1.0,10.0,40.0,4.0,1.0,1.6,0.3,Time
,,S31,1,女性,25,anonymized,Serial_Dependence_U,2023.2.3,Win32,93.45794392525906,,,,,,843.1067000000179,134.0,1.0,843.1067000000179,134.0,,,,846.8899000000059,847.3911000000238,846.3788000000119,846.8899000000059,844.1121000000238,846.3787000000178,847.3912000000179,847.8895,847.8895,851.9229000000059,3244.0,851.923,5.0,851.9285,1.0,11.0,41.0,2.0,1.0,1.2,0.3,Time
,,S31,1,女性,25,anonymized,Serial_Dependence_U,2023.2.3,Win32,93.45794392525906,,,,,,851.928800000012,9.0,1.0,851.928800000012,9.0,,,,855.8676000000238,856.367400000006,855.3565,855.8676000000238,852.9232000000179,855.3563000000119,856.367400000006,856.8673000000119,856.8673000000119,860.611800000012,3633.0,860.611800000012,5.0,860.617400000006,1.0,12.0,42.0,18.0,1.0,1.4,0.7,Time
,,S31,1,女性,25,anonymized,Serial_Dependence_U,2023.2.3,Win32,93.45794392525906,,,,,,860.6177000000179,298.0,1.0,860.6177000000179,298.0,,,,863.989900000006,864.4895,863.4787000000179,863.9898000000119,861.6121000000238,863.4786000000238,864.4895,864.989900000006,864.989900000006,871.0451000000238,2900.0,871.0451000000238,5.0,871.0507000000179,1.0,13.0,43.0,0.0,1.0,0.8,0.3,Time
,,S31,1,女性,25,anonymized,Serial_Dependence_U,2023.2.3,Win32,93.45794392525906,,,,,,871.0509999999999,338.0,1.0,871.0509999999999,338.0,,,,875.0009000000059,875.5068000000119,874.4898000000119,875.000800000012,872.056400000006,874.4897000000178,875.506900000006,876.0007000000179,876.000800000012,880.9564000000059,4101.0,880.9564000000059,5.0,880.9624000000059,1.0,14.0,44.0,28.0,1.0,1.4,0.7,Time
,,S31,1,女性,25,anonymized,Serial_Dependence_U,2023.2.3,Win32,93.45794392525906,,,,,,880.9625,330.0,1.0,880.9627000000179,330.0,,,,884.500800000012,885.0007000000179,883.9898000000119,884.500800000012,881.9566000000239,883.9898000000119,885.0007000000179,885.4948000000119,885.4948000000119,890.5312000000179,2409.0,890.5312000000179,5.0,890.537,1.0,15.0,45.0,26.0,1.0,1.0,0.7,Time
,,S31,1,女性,25,anonymized,Serial_Dependence_U,2023.2.3,Win32,93.45794392525906,,,,,,890.5372000000178,110.0,1.0,890.5373000000119,110.0,,,,894.1121000000238,894.6117000000179,893.6009000000059,894.112,891.5344000000059,893.6008000000119,894.6117000000179,895.111800000012,895.1119000000059,897.8864000000059,2376.0,897.8864000000059,5.0,897.892400000006,1.0,16.0,46.0,21.0,1.0,1.0,0.3,Time
,,S31,1,女性,25,anonymized,Serial_Dependence_U,2023.2.3,Win32,93.45794392525906,,,,,,897.8927000000178,153.0,1.0,897.8927000000178,153.0,,,,901.425400000006,901.918400000006,900.919700000018,901.425300000012,898.8856000000238,900.9196000000238,901.918400000006,902.4117000000178,902.4117000000178,904.975600000024,2103.0,904.975700000018,5.0,904.9811000000238,1.0,17.0,47.0,6.0,1.0,1.0,0.7,Time
,,S31,1,女性,25,anonymized,Serial_Dependence_U,2023.2.3,Win32,93.45794392525906,,,,,,904.981400000006,136.0,1.0,904.981400000006,136.0,,,,909.13,909.622800000012,908.6197000000178,909.129900000006,905.985900000006,908.619600000024,909.622800000012,910.1231000000238,910.1232000000178,913.812,3569.0,913.812,5.0,913.8176000000238,1.0,18.0,48.0,29.0,1.0,1.6,0.7,Time
,,S31,1,女性,25,anonymized,Serial_Dependence_U,2023.2.3,Win32,93.45794392525906,,,,,,913.817800000012,296.0,1.0,913.817900000006,296.0,,,,917.3901000000238,917.8895,916.878800000012,917.39,914.8125,916.8787000000178,917.8895,918.39,918.39,921.034200000018,2431.0,921.034200000018,5.0,921.0395,1.0,19.0,49.0,1.0,1.0,1.0,0.3,Time
,,S31,1,女性,25,anonymized,Serial_Dependence_U,2023.2.3,Win32,93.45794392525906,,,,,,921.039700000018,347.0,1.0,921.039700000018,347.0,,,,925.012200000018,925.511800000012,924.5011000000238,925.0121000000238,922.034200000018,924.5011000000238,925.511900000006,926.011800000012,926.011800000012,928.945300000012,2245.0,928.945300000012,5.0,928.950800000012,1.0,20.0,50.0,23.0,1.0,1.4,0.3,Time
,,S31,1,女性,25,anonymized,Serial_Dependence_U,2023.2.3,Win32,93.45794392525906,,,,,,928.951,333.0,1.0,928.951100000024,333.0,,,,932.501,933.000700000018,931.990300000012,932.500900000006,929.9565,931.990200000018,933.000800000012,933.5006000000238,933.5006000000238,936.212,2211.0,936.212,5.0,936.2176000000238,1.0,21.0,51.0,16.0,1.0,1.0,0.7,Time
,,S31,1,女性,25,anonymized,Serial_Dependence_U,2023.2.3,Win32,93.45794392525906,,,,,,936.217800000012,90.0,1.0,936.217900000006,90.0,,,,940.389900000006,940.889800000012,939.879,940.389800000012,937.212,939.878900000006,940.889800000012,941.389800000012,941.389800000012,944.4455,2632.0,944.4455,5.0,944.451,1.0,22.0,52.0,24.0,1.0,1.6,0.3,Time
,,S31,1,女性,25,anonymized,Serial_Dependence_U,2023.2.3,Win32,93.45794392525906,,,,,,944.451300000012,13.0,1.0,944.451300000012,13.0,,,,947.834400000006,948.334300000012,947.323400000006,947.834300000012,945.456700000018,947.323300000012,948.334300000012,948.834200000018,948.834300000012,952.5232000000178,2989.0,952.5232000000178,5.0,952.529,1.0,23.0,53.0,10.0,1.0,0.8,0.3,Time
,,S31,1,女性,25,anonymized,Serial_Dependence_U,2023.2.3,Win32,93.45794392525906,,,,,,952.529200000018,255.0,1.0,952.529400000006,255.0,,,,955.879,956.378900000006,955.367900000006,955.879,953.5345,955.367900000006,956.379,956.878600000024,956.878600000024,959.767400000006,2411.0,959.7675,5.0,959.772800000012,1.0,24.0,54.0,15.0,1.0,0.8,0.7,Time
,,S31,1,女性,25,anonymized,Serial_Dependence_U,2023.2.3,Win32,93.45794392525906,,,,,,959.773,231.0,1.0,959.773100000024,231.0,,,,963.712400000006,964.212,963.201100000024,963.712400000006,960.768,963.201,964.2121000000238,964.712,964.712,967.089900000006,2233.0,967.089900000006,5.0,967.094900000006,1.0,25.0,55.0,8.0,1.0,1.4,0.7,Time
,,S31,1,女性,25,anonymized,Serial_Dependence_U,2023.2.3,Win32,93.45794392525906,,,,,,967.095100000024,144.0,1.0,967.0952000000178,144.0,,,,970.4346000000238,970.9341000000238,969.923400000006,970.4345,968.090300000012,969.923300000012,970.934200000018,971.434200000018,971.434300000012,973.823200000018,2200.0,973.823200000018,5.0,973.828700000018,1.0,26.0,56.0,5.0,1.0,0.8,0.7,Time
,,S31,1,女性,25,anonymized,Serial_Dependence_U,2023.2.3,Win32,93.45794392525906,,,,,,973.828800000012,84.0,1.0,973.828900000006,84.0,,,,978.0016000000238,978.500900000006,977.501200000018,978.0015,974.8345,977.501200000018,978.500900000006,979.000900000006,979.001,982.445400000006,3200.0,982.4455,5.0,982.451,1.0,27.0,57.0,14.0,1.0,1.6,0.3,Time
,,S31,1,女性,25,anonymized,Serial_Dependence_U,2023.2.3,Win32,93.45794392525906,,,,,,982.451300000012,272.0,1.0,982.451300000012,272.0,,,,986.2012000000178,986.700900000006,985.690300000012,986.201100000024,983.456900000006,985.690300000012,986.700900000006,987.200900000006,987.200900000006,989.612,2256.0,989.612,5.0,989.617,1.0,28.0,58.0,27.0,1.0,1.2,0.7,Time
,,S31,1,女性,25,anonymized,Serial_Dependence_U,2023.2.3,Win32,93.45794392525906,,,,,,989.617200000018,115.0,1.0,989.617300000012,115.0,,,,993.401200000018,993.900900000006,992.8902000000178,993.401200000018,990.623400000006,992.8901000000236,993.900900000006,994.401100000024,994.401100000024,997.3678000000118,2887.0,997.3678000000118,5.0,997.373200000018,1.0,29.0,59.0,12.0,1.0,1.2,0.3,Time
,,S31,1,女性,25,anonymized,Serial_Dependence_U,2023.2.3,Win32,93.45794392525906,,,,,,997.3735,212.0,2.0,1055.762400000006,212.0,s,58.37159999999403,,1059.512400000006,1060.012300000012,1059.0015,1059.512300000012,1056.767800000012,1059.001400000006,1060.012300000012,1060.512200000018,1060.512300000012,1084.534400000006,2700.0,1084.5345,5.0,1084.5398000000118,2.0,0.0,60.0,27.0,1.0,1.2,0.7,Time
,,S31,1,女性,25,anonymized,Serial_Dependence_U,2023.2.3,Win32,93.45794392525906,,,,,,1084.5401000000238,293.0,2.0,1084.540900000006,293.0,,,,1087.9237000000178,1088.4236000000235,1087.4127000000178,1087.9237000000178,1085.5456000000238,1087.4127000000178,1088.4236000000235,1088.923100000024,1088.923100000024,1101.934400000006,1935.0,1101.9345,5.0,1101.940100000024,2.0,1.0,61.0,10.0,1.0,0.8,0.3,Time
,,S31,1,女性,25,anonymized,Serial_Dependence_U,2023.2.3,Win32,93.45794392525906,,,,,,1101.9403000000118,358.0,2.0,1101.9403000000118,358.0,,,,1106.090300000012,1106.5902000000178,1105.579300000012,1106.090300000012,1102.945700000018,1105.579200000018,1106.590300000012,1107.09,1107.09,1110.412300000012,2967.0,1110.4124000000058,5.0,1110.418400000006,2.0,2.0,62.0,19.0,1.0,1.6,0.7,Time
,,S31,1,女性,25,anonymized,Serial_Dependence_U,2023.2.3,Win32,93.45794392525906,,,,,,1110.4185,126.0,2.0,1110.4186000000238,126.0,,,,1114.001400000006,1114.501200000018,1113.4906000000235,1114.001300000012,1111.4235,1113.4905,1114.501200000018,1115.001300000012,1115.001300000012,1117.601,2177.0,1117.601,5.0,1117.606,2.0,3.0,63.0,21.0,1.0,1.0,0.3,Time
,,S31,1,女性,25,anonymized,Serial_Dependence_U,2023.2.3,Win32,93.45794392525906,,,,,,1117.606300000012,336.0,2.0,1117.606300000012,336.0,,,,1121.779300000012,1122.279200000018,1121.2684000000058,1121.779200000018,1118.6016000000238,1121.2684000000058,1122.279200000018,1122.778900000006,1122.778900000006,1127.679,2678.0,1127.679100000024,5.0,1127.684400000006,2.0,4.0,64.0,14.0,1.0,1.6,0.3,Time
,,S31,1,女性,25,anonymized,Serial_Dependence_U,2023.2.3,Win32,93.45794392525906,,,,,,1127.684600000024,150.0,2.0,1127.684600000024,150.0,,,,1131.6235,1132.123200000018,1131.1126000000238,1131.623400000006,1128.679400000006,1131.1125,1132.1233000000118,1132.623400000006,1132.623400000006,1135.712200000018,2501.0,1135.712300000012,5.0,1135.7176000000238,2.0,5.0,65.0,8.0,1.0,1.4,0.7,Time
,,S31,1,女性,25,anonymized,Serial_Dependence_U,2023.2.3,Win32,93.45794392525906,,,,,,1135.717800000012,305.0,2.0,1135.717900000006,305.0,,,,1139.268100000024,1139.768200000018,1138.757200000018,1139.268100000024,1136.723400000006,1138.757100000024,1139.768200000018,1140.268100000024,1140.268100000024,1144.2901000000238,2643.0,1144.2901000000238,5.0,1144.2956000000238,2.0,6.0,66.0,6.0,1.0,1.0,0.7,Time
,,S31,1,女性,25,anonymized,Serial_Dependence_U,2023.2.3,Win32,93.45794392525906,,,,,,1144.295800000012,129.0,2.0,1144.295800000012,129.0,,,,1147.8792000000178,1148.3792000000178,1147.368300000012,1147.8792000000178,1145.3021000000238,1147.368200000018,1148.3792000000178,1148.8789000000058,1148.879,1153.267800000012,1967.0,1153.267800000012,5.0,1153.273400000006,2.0,7.0,67.0,11.0,1.0,1.0,0.3,Time
,,S31,1,女性,25,anonymized,Serial_Dependence_U,2023.2.3,Win32,93.45794392525906,,,,,,1153.273600000024,53.0,2.0,1153.273700000018,53.0,,,,1156.6125,1157.1123000000118,1156.1016000000238,1156.6125,1154.2684000000058,1156.1015,1157.1123000000118,1157.6123000000118,1157.612400000006,1160.001300000012,2101.0,1160.001300000012,5.0,1160.0063000000118,2.0,8.0,68.0,15.0,1.0,0.8,0.7,Time
,,S31,1,女性,25,anonymized,Serial_Dependence_U,2023.2.3,Win32,93.45794392525906,,,,,,1160.0065,261.0,2.0,1160.006700000018,261.0,,,,1163.7461000000235,1164.245700000018,1163.234800000012,1163.746,1161.002,1163.234700000018,1164.245700000018,1164.745900000006,1164.746,1167.668,2766.0,1167.668,5.0,1167.673400000006,2.0,9.0,69.0,17.0,1.0,1.2,0.7,Time
,,S31,1,女性,25,anonymized,Serial_Dependence_U,2023.2.3,Win32,93.45794392525906,,,,,,1167.6737000000178,278.0,2.0,1167.6737000000178,278.0,,,,1171.8132000000178,1172.312400000006,1171.301600000024,1171.8132000000178,1168.668300000012,1171.301600000024,1172.312400000006,1172.812400000006,1172.812400000006,1176.6346000000235,2788.0,1176.6346000000235,5.0,1176.640400000006,2.0,10.0,70.0,9.0,1.0,1.6,0.7,Time
,,S31,1,女性,25,anonymized,Serial_Dependence_U,2023.2.3,Win32,93.45794392525906,,,,,,1176.6406000000238,107.0,2.0,1176.640700000018,107.0,,,,1180.412800000012,1180.912100000024,1179.9016000000238,1180.4127000000178,1177.6358000000118,1179.9016000000238,1180.912100000024,1181.4126000000238,1181.4127000000178,1184.323700000018,2890.0,1184.323700000018,5.0,1184.329,2.0,11.0,71.0,12.0,1.0,1.2,0.3,Time
,,S31,1,女性,25,anonymized,Serial_Dependence_U,2023.2.3,Win32,93.45794392525906,,,,,,1184.329300000012,209.0,2.0,1184.329300000012,209.0,,,,1187.668400000006,1188.1681000000235,1187.1575,1187.668400000006,1185.323800000012,1187.1575,1188.1681000000235,1188.668,1188.668,1190.3235,1300.0,1190.3236000000238,5.0,1190.329300000012,2.0,12.0,72.0,25.0,1.0,0.8,0.7,Time
,,S31,1,女性,25,anonymized,Serial_Dependence_U,2023.2.3,Win32,93.45794392525906,,,,,,1190.329600000024,74.0,2.0,1190.329700000018,74.0,,,,1193.868200000018,1194.3681000000238,1193.357400000006,1193.868200000018,1191.324,1193.357400000006,1194.3681000000238,1194.868200000018,1194.868200000018,1197.157,2200.0,1197.157,5.0,1197.1624000000058,2.0,13.0,73.0,16.0,1.0,1.0,0.7,Time
,,S31,1,女性,25,anonymized,Serial_Dependence_U,2023.2.3,Win32,93.45794392525906,,,,,,1197.1627000000178,180.0,2.0,1197.162800000012,180.0,,,,1200.9351000000238,1201.4347000000178,1200.424,1200.9351000000238,1198.1572000000178,1200.424,1201.4348000000118,1201.934600000024,1201.934600000024,1204.4125,2191.0,1204.4126000000238,5.0,1204.417800000012,2.0,14.0,74.0,22.0,1.0,1.2,0.3,Time
,,S31,1,女性,25,anonymized,Serial_Dependence_U,2023.2.3,Win32,93.45794392525906,,,,,,1204.4181000000235,235.0,2.0,1204.4181000000235,235.0,,,,1208.201900000006,1208.7017000000178,1207.6906000000238,1208.201800000012,1205.423900000006,1207.6906000000238,1208.7017000000178,1209.2015,1209.2015,1211.679100000024,2321.0,1211.679100000024,5.0,1211.6838000000118,2.0,15.0,75.0,2.0,1.0,1.2,0.3,Time
,,S31,1,女性,25,anonymized,Serial_Dependence_U,2023.2.3,Win32,93.45794392525906,,,,,,1211.6841000000238,15.0,2.0,1211.684200000018,15.0,,,,1215.257400000006,1215.757100000024,1214.746400000006,1215.257400000006,1212.679900000006,1214.746400000006,1215.757100000024,1216.256700000018,1216.256800000012,1219.1572000000178,2399.0,1219.1572000000178,5.0,1219.163100000024,2.0,16.0,76.0,1.0,1.0,1.0,0.3,Time
,,S31,1,女性,25,anonymized,Serial_Dependence_U,2023.2.3,Win32,93.45794392525906,,,,,,1219.163300000012,248.0,2.0,1219.163400000006,248.0,,,,1223.134800000012,1223.634800000012,1222.624,1223.134800000012,1220.1575,1222.624,1223.634800000012,1224.134900000006,1224.134900000006,1227.256900000006,2645.0,1227.256900000006,5.0,1227.262800000012,2.0,17.0,77.0,23.0,1.0,1.4,0.3,Time
,,S31,1,女性,25,anonymized,Serial_Dependence_U,2023.2.3,Win32,93.45794392525906,,,,,,1227.263,67.0,2.0,1227.2631000000238,67.0,,,,1230.6016000000238,1231.101300000012,1230.0905,1230.6015,1228.257400000006,1230.090400000006,1231.101300000012,1231.6016000000238,1231.6016000000238,1235.445600000024,3333.0,1235.445700000018,5.0,1235.451100000024,2.0,18.0,78.0,5.0,1.0,0.8,0.7,Time
,,S31,1,女性,25,anonymized,Serial_Dependence_U,2023.2.3,Win32,93.45794392525906,,,,,,1235.451300000012,204.0,2.0,1235.451400000006,204.0,,,,1239.179900000006,1239.6793000000118,1238.6793000000118,1239.179700000018,1236.4462000000178,1238.6793000000118,1239.6793000000118,1240.1793000000118,1240.1793000000118,1242.745700000018,2345.0,1242.745700000018,5.0,1242.751300000012,2.0,19.0,79.0,7.0,1.0,1.2,0.7,Time
,,S31,1,女性,25,anonymized,Serial_Dependence_U,2023.2.3,Win32,93.45794392525906,,,,,,1242.751600000024,88.0,2.0,1242.7517000000178,88.0,,,,1246.923800000012,1247.4235,1246.412900000006,1246.923800000012,1243.7461000000235,1246.412800000012,1247.4235,1247.923400000006,1247.923400000006,1250.990400000006,2833.0,1250.990400000006,5.0,1250.996,2.0,20.0,80.0,24.0,1.0,1.6,0.3,Time
,,S31,1,女性,25,anonymized,Serial_Dependence_U,2023.2.3,Win32,93.45794392525906,,,,,,1250.9963000000118,276.0,2.0,1250.9963000000118,276.0,,,,1254.953600000024,1255.445600000024,1254.4426000000235,1254.9535,1252.0018000000118,1254.4425,1255.445600000024,1255.9459000000058,1255.946,1258.042,1899.0,1258.042,5.0,1258.0475,2.0,21.0,81.0,18.0,1.0,1.4,0.7,Time
,,S31,1,女性,25,anonymized,Serial_Dependence_U,2023.2.3,Win32,93.45794392525906,,,,,,1258.0477000000178,258.0,2.0,1258.047800000012,258.0,,,,1262.229200000018,1262.724600000024,1261.7197000000178,1262.229100000024,1259.0535,1261.7197000000178,1262.724600000024,1263.223900000006,1263.224,1266.2705,2835.0,1266.270600000024,5.0,1266.276200000018,2.0,22.0,82.0,4.0,1.0,1.6,0.3,Time
,,S31,1,女性,25,anonymized,Serial_Dependence_U,2023.2.3,Win32,93.45794392525906,,,,,,1266.2765,193.0,2.0,1266.2765,193.0,,,,1269.6536000000235,1270.148400000006,1269.142800000012,1269.6535,1267.270400000006,1269.1427000000178,1270.148400000006,1270.6415,1270.641800000012,1272.786900000006,1877.0,1272.786900000006,5.0,1272.7932000000178,2.0,23.0,83.0,20.0,1.0,0.8,0.3,Time
,,S31,1,女性,25,anonymized,Serial_Dependence_U,2023.2.3,Win32,93.45794392525906,,,,,,1272.793400000006,12.0,2.0,1272.7935,12.0,,,,1276.775400000006,1277.268200000018,1276.2652000000178,1276.775400000006,1273.797800000012,1276.265,1277.268300000012,1277.768100000024,1277.768300000012,1280.320700000018,2234.0,1280.320700000018,5.0,1280.326400000006,2.0,24.0,84.0,3.0,1.0,1.4,0.3,Time
,,S31,1,女性,25,anonymized,Serial_Dependence_U,2023.2.3,Win32,93.45794392525906,,,,,,1280.3267000000178,261.0,2.0,1280.3267000000178,261.0,,,,1284.273,1284.771400000006,1283.764800000012,1284.2729000000058,1281.3255,1283.764800000012,1284.7715,1285.267800000012,1285.267800000012,1289.798800000012,2479.0,1289.798800000012,5.0,1289.805200000018,2.0,25.0,85.0,28.0,1.0,1.4,0.7,Time
,,S31,1,女性,25,anonymized,Serial_Dependence_U,2023.2.3,Win32,93.45794392525906,,,,,,1289.805400000006,14.0,2.0,1289.8055,14.0,,,,1293.7911000000238,1294.290300000012,1293.2795,1293.791,1290.8098000000118,1293.2795,1294.290300000012,1294.790700000018,1294.7908000000118,1297.8346000000238,2800.0,1297.8347000000178,5.0,1297.8401000000238,2.0,26.0,86.0,13.0,1.0,1.4,0.3,Time
,,S31,1,女性,25,anonymized,Serial_Dependence_U,2023.2.3,Win32,93.45794392525906,,,,,,1297.840300000012,338.0,2.0,1297.840400000006,338.0,,,,1301.3801000000235,1301.8792000000178,1300.868900000006,1301.38,1298.835100000024,1300.868900000006,1301.8792000000178,1302.3792000000178,1302.379300000012,1304.7241000000238,2132.0,1304.7242000000178,5.0,1304.73,2.0,27.0,87.0,26.0,1.0,1.0,0.7,Time
,,S31,1,女性,25,anonymized,Serial_Dependence_U,2023.2.3,Win32,93.45794392525906,,,,,,1304.730300000012,169.0,2.0,1304.730300000012,169.0,,,,1308.102100000024,1308.6016000000238,1307.590800000012,1308.102100000024,1305.724,1307.590800000012,1308.6016000000238,1309.1015,1309.1016000000238,1311.8903000000118,2590.0,1311.8903000000118,5.0,1311.895300000012,2.0,28.0,88.0,0.0,1.0,0.8,0.3,Time
,,S31,1,女性,25,anonymized,Serial_Dependence_U,2023.2.3,Win32,93.45794392525906,,,,,,1311.8955,274.0,2.0,1311.895600000024,274.0,,,,1316.035100000024,1316.534800000012,1315.524,1316.035,1312.891100000024,1315.524,1316.534800000012,1317.034900000006,1317.034900000006,1319.5681000000238,2377.0,1319.5681000000238,5.0,1319.573400000006,2.0,29.0,89.0,29.0,1.0,1.6,0.7,Time
,,S31,1,女性,25,anonymized,Serial_Dependence_U,2023.2.3,Win32,93.45794392525906,,,,,,1319.573700000018,173.0,3.0,1334.3623000000118,173.0,s,14.772500000000036,,1337.946300000012,1338.446,1337.435300000012,1337.9462000000178,1335.368400000006,1337.435200000018,1338.4461000000238,1338.9459000000058,1338.9459000000058,1342.1571000000238,2966.0,1342.1572000000178,5.0,1342.1626000000238,3.0,0.0,90.0,11.0,1.0,1.0,0.3,Time
,,S31,1,女性,25,anonymized,Serial_Dependence_U,2023.2.3,Win32,93.45794392525906,,,,,,1342.162900000006,279.0,3.0,1342.163800000012,279.0,,,,1345.7131000000238,1346.2127000000178,1345.201800000012,1345.713,1343.168300000012,1345.2017000000178,1346.2127000000178,1346.7127000000178,1346.712900000006,1349.790900000006,2545.0,1349.791,5.0,1349.799200000018,3.0,1.0,91.0,26.0,1.0,1.0,0.7,Time
,,S31,1,女性,25,anonymized,Serial_Dependence_U,2023.2.3,Win32,93.45794392525906,,,,,,1349.7995,23.0,3.0,1349.7995,23.0,,,,1353.380300000012,1353.879600000024,1352.869,1353.380300000012,1350.802300000012,1352.869,1353.879700000018,1354.379700000018,1354.379700000018,1358.268200000018,2623.0,1358.268300000012,5.0,1358.273900000006,3.0,2.0,92.0,1.0,1.0,1.0,0.3,Time
,,S31,1,女性,25,anonymized,Serial_Dependence_U,2023.2.3,Win32,93.45794392525906,,,,,,1358.2741000000235,76.0,3.0,1358.2741000000235,76.0,,,,1362.046,1362.545900000006,1361.535400000006,1362.046,1359.2687000000178,1361.535400000006,1362.545900000006,1363.045700000018,1363.045800000012,1367.602,2500.0,1367.602100000024,5.0,1367.6078000000118,3.0,3.0,93.0,2.0,1.0,1.2,0.3,Time
,,S31,1,女性,25,anonymized,Serial_Dependence_U,2023.2.3,Win32,93.45794392525906,,,,,,1367.608,64.0,3.0,1367.6081000000238,64.0,,,,1371.546400000006,1372.0466000000238,1371.035800000012,1371.5463000000118,1368.602400000006,1371.035800000012,1372.0467000000178,1372.5465,1372.5465,1375.3795,2500.0,1375.379600000024,5.0,1375.384900000006,3.0,4.0,94.0,18.0,1.0,1.4,0.7,Time
,,S31,1,女性,25,anonymized,Serial_Dependence_U,2023.2.3,Win32,93.45794392525906,,,,,,1375.385200000018,124.0,3.0,1375.385300000012,124.0,,,,1379.1686000000238,1379.668300000012,1378.6575,1379.1686000000238,1376.3913000000118,1378.657400000006,1379.668300000012,1380.168300000012,1380.168300000012,1382.6125,1689.0,1382.6126000000238,5.0,1382.617900000006,3.0,5.0,95.0,12.0,1.0,1.2,0.3,Time
,,S31,1,女性,25,anonymized,Serial_Dependence_U,2023.2.3,Win32,93.45794392525906,,,,,,1382.6181000000238,277.0,3.0,1382.618200000018,277.0,,,,1386.168400000006,1386.668300000012,1385.6579000000058,1386.168300000012,1383.623900000006,1385.657800000012,1386.668400000006,1387.168400000006,1387.168400000006,1389.9461000000238,2333.0,1389.9461000000238,5.0,1389.951,3.0,6.0,96.0,6.0,1.0,1.0,0.7,Time
,,S31,1,女性,25,anonymized,Serial_Dependence_U,2023.2.3,Win32,93.45794392525906,,,,,,1389.951200000018,301.0,3.0,1389.951300000012,301.0,,,,1393.901800000012,1394.4015,1393.3906000000238,1393.901700000018,1390.957300000012,1393.3906000000238,1394.4015,1394.901700000018,1394.901700000018,1399.146300000012,2466.0,1399.146300000012,5.0,1399.1513000000118,3.0,7.0,97.0,8.0,1.0,1.4,0.7,Time
,,S31,1,女性,25,anonymized,Serial_Dependence_U,2023.2.3,Win32,93.45794392525906,,,,,,1399.1515,6.0,3.0,1399.1516000000238,6.0,,,,1403.124200000018,1403.6237000000178,1402.6133000000118,1403.124200000018,1400.147,1402.613200000018,1403.6237000000178,1404.123800000012,1404.123800000012,1409.557300000012,2078.0,1409.557300000012,5.0,1409.562900000006,3.0,8.0,98.0,3.0,1.0,1.4,0.3,Time
,,S31,1,女性,25,anonymized,Serial_Dependence_U,2023.2.3,Win32,93.45794392525906,,,,,,1409.5631000000235,227.0,3.0,1409.5631000000235,227.0,,,,1413.724700000018,1414.2238000000118,1413.224,1413.724700000018,1410.557900000006,1413.224,1414.223900000006,1414.7242000000178,1414.7242000000178,1432.168400000006,2310.0,1432.168400000006,5.0,1432.1737000000178,3.0,9.0,99.0,4.0,1.0,1.6,0.3,Time
,,S31,1,女性,25,anonymized,Serial_Dependence_U,2023.2.3,Win32,93.45794392525906,,,,,,1432.173900000006,190.0,3.0,1432.174,190.0,,,,1435.924200000018,1436.4241000000238,1435.413200000018,1435.9241000000238,1433.179700000018,1435.413200000018,1436.4241000000238,1436.9241000000238,1436.9241000000238,1442.190900000006,2300.0,1442.191,5.0,1442.196400000006,3.0,10.0,100.0,17.0,1.0,1.2,0.7,Time
,,S31,1,女性,25,anonymized,Serial_Dependence_U,2023.2.3,Win32,93.45794392525906,,,,,,1442.196600000024,85.0,3.0,1442.196700000018,85.0,,,,1446.1692000000178,1446.6685,1445.6581000000238,1446.1692000000178,1443.191200000018,1445.658,1446.6685,1447.168400000006,1447.1685,1450.812800000012,2899.0,1450.812900000006,5.0,1450.818200000018,3.0,11.0,101.0,23.0,1.0,1.4,0.3,Time
,,S31,1,女性,25,anonymized,Serial_Dependence_U,2023.2.3,Win32,93.45794392525906,,,,,,1450.818400000006,349.0,3.0,1450.818600000024,349.0,,,,1454.957800000012,1455.457400000006,1454.455300000012,1454.957700000018,1451.813400000006,1454.4552000000178,1455.457400000006,1455.9572000000178,1455.9572000000178,1459.054100000024,2600.0,1459.0542000000178,5.0,1459.059300000012,3.0,12.0,102.0,9.0,1.0,1.6,0.7,Time
,,S31,1,女性,25,anonymized,Serial_Dependence_U,2023.2.3,Win32,93.45794392525906,,,,,,1459.059600000024,100.0,3.0,1459.059600000024,100.0,,,,1462.8022000000178,1463.301600000024,1462.292300000012,1462.802,1460.057900000006,1462.2922000000178,1463.301600000024,1463.801700000018,1463.801700000018,1467.032,2554.0,1467.032,5.0,1467.037200000018,3.0,13.0,103.0,27.0,1.0,1.2,0.7,Time
,,S31,1,女性,25,anonymized,Serial_Dependence_U,2023.2.3,Win32,93.45794392525906,,,,,,1467.0374000000058,199.0,3.0,1467.0376000000238,199.0,,,,1471.186600000024,1471.6815,1470.676300000012,1471.1865,1468.042800000012,1470.676300000012,1471.6816000000238,1472.174200000018,1472.174200000018,1475.2351000000235,2615.0,1475.2352000000178,5.0,1475.243600000024,3.0,14.0,104.0,29.0,1.0,1.6,0.7,Time
,,S31,1,女性,25,anonymized,Serial_Dependence_U,2023.2.3,Win32,93.45794392525906,,,,,,1475.243900000006,215.0,3.0,1475.243900000006,215.0,,,,1478.621,1479.1192000000178,1478.109400000006,1478.621,1476.248800000012,1478.109400000006,1479.119300000012,1479.6192000000178,1479.6192000000178,1482.176300000012,1578.0,1482.176300000012,5.0,1482.1816000000238,3.0,15.0,105.0,20.0,1.0,0.8,0.3,Time
,,S31,1,女性,25,anonymized,Serial_Dependence_U,2023.2.3,Win32,93.45794392525906,,,,,,1482.181900000006,201.0,3.0,1482.181900000006,201.0,,,,1486.331600000024,1486.8311000000238,1485.8212000000178,1486.331400000006,1483.1803000000118,1485.8212000000178,1486.8312000000178,1487.326100000024,1487.326100000024,1489.986700000018,2289.0,1489.986800000012,5.0,1489.9921000000238,3.0,16.0,106.0,19.0,1.0,1.6,0.7,Time
,,S31,1,女性,25,anonymized,Serial_Dependence_U,2023.2.3,Win32,93.45794392525906,,,,,,1489.992400000006,26.0,3.0,1489.9925,26.0,,,,1493.3357000000178,1493.835300000012,1492.8245,1493.3356000000238,1490.9931000000238,1492.824400000006,1493.835300000012,1494.34,1494.34,1495.912800000012,1259.0,1495.912800000012,5.0,1495.917900000006,3.0,17.0,107.0,15.0,1.0,0.8,0.7,Time
,,S31,1,女性,25,anonymized,Serial_Dependence_U,2023.2.3,Win32,93.45794392525906,,,,,,1495.9181000000235,62.0,3.0,1495.9182000000178,62.0,,,,1499.658400000006,1500.1571000000238,1499.153800000012,1499.658300000012,1496.9165,1499.1537000000178,1500.1571000000238,1500.657400000006,1500.657400000006,1503.601900000006,2489.0,1503.602,5.0,1503.6075,3.0,18.0,108.0,7.0,1.0,1.2,0.7,Time
,,S31,1,女性,25,anonymized,Serial_Dependence_U,2023.2.3,Win32,93.45794392525906,,,,,,1503.6077000000178,30.0,3.0,1503.6078000000118,30.0,,,,1507.3912000000178,1507.890800000012,1506.8847000000178,1507.391100000024,1504.620300000012,1506.8846000000235,1507.890800000012,1508.3906000000238,1508.390700000018,1510.2905,1601.0,1510.290600000024,5.0,1510.296,3.0,19.0,109.0,22.0,1.0,1.2,0.3,Time
,,S31,1,女性,25,anonymized,Serial_Dependence_U,2023.2.3,Win32,93.45794392525906,,,,,,1510.296200000018,23.0,3.0,1510.2963000000118,23.0,,,,1514.476,1514.969100000024,1513.965900000006,1514.475900000006,1511.2974000000058,1513.965800000012,1514.969100000024,1515.475,1515.4751000000238,1518.243200000018,2433.0,1518.243200000018,5.0,1518.248400000006,3.0,20.0,110.0,24.0,1.0,1.6,0.3,Time
,,S31,1,女性,25,anonymized,Serial_Dependence_U,2023.2.3,Win32,93.45794392525906,,,,,,1518.2486000000238,261.0,3.0,1518.2486000000238,261.0,,,,1521.643300000012,1522.1412000000178,1521.131700000018,1521.643200000018,1519.264800000012,1521.1316000000238,1522.1412000000178,1522.6415,1522.6415,1524.599,1653.0,1524.5991000000238,5.0,1524.6045,3.0,21.0,111.0,0.0,1.0,0.8,0.3,Time
,,S31,1,女性,25,anonymized,Serial_Dependence_U,2023.2.3,Win32,93.45794392525906,,,,,,1524.6047000000178,237.0,3.0,1524.604800000012,237.0,,,,1528.768800000012,1529.2684000000058,1528.264800000012,1528.7687000000178,1525.602100000024,1528.264700000018,1529.2684000000058,1529.7646000000238,1529.7646000000238,1532.9538000000118,2633.0,1532.954,5.0,1532.9596000000238,3.0,22.0,112.0,14.0,1.0,1.6,0.3,Time
,,S31,1,女性,25,anonymized,Serial_Dependence_U,2023.2.3,Win32,93.45794392525906,,,,,,1532.959800000012,89.0,3.0,1532.959900000006,89.0,,,,1536.925400000006,1537.429800000012,1536.421100000024,1536.925300000012,1533.976700000018,1536.421,1537.429800000012,1537.924,1537.9241000000238,1541.001900000006,2584.0,1541.002,5.0,1541.0077000000178,3.0,23.0,113.0,28.0,1.0,1.4,0.7,Time
,,S31,1,女性,25,anonymized,Serial_Dependence_U,2023.2.3,Win32,93.45794392525906,,,,,,1541.008,356.0,3.0,1541.008,356.0,,,,1544.3912000000178,1544.896300000012,1543.888700000018,1544.391100000024,1542.019900000006,1543.888600000024,1544.896400000006,1545.398300000012,1545.398300000012,1546.9317000000178,1273.0,1546.931800000012,5.0,1546.9369000000058,3.0,24.0,114.0,10.0,1.0,0.8,0.3,Time
,,S31,1,女性,25,anonymized,Serial_Dependence_U,2023.2.3,Win32,93.45794392525906,,,,,,1546.9371000000235,152.0,3.0,1546.9372000000178,152.0,,,,1550.2866000000238,1550.7796000000235,1549.776800000012,1550.286400000006,1547.942900000006,1549.776700000018,1550.7797000000178,1551.2798000000118,1551.2798000000118,1553.0096000000235,1534.0,1553.0096000000235,5.0,1553.014800000012,3.0,25.0,115.0,5.0,1.0,0.8,0.7,Time
,,S31,1,女性,25,anonymized,Serial_Dependence_U,2023.2.3,Win32,93.45794392525906,,,,,,1553.015,208.0,3.0,1553.0151000000235,208.0,,,,1556.604800000012,1557.1085,1556.0999000000058,1556.6047000000178,1554.030200000018,1556.0999000000058,1557.108600000024,1557.601800000012,1557.601800000012,1559.520400000006,1804.0,1559.5205,5.0,1559.5256000000238,3.0,26.0,116.0,21.0,1.0,1.0,0.3,Time
,,S31,1,女性,25,anonymized,Serial_Dependence_U,2023.2.3,Win32,93.45794392525906,,,,,,1559.525900000006,49.0,3.0,1559.525900000006,49.0,,,,1562.8715,1563.3685,1562.365200000018,1562.871400000006,1560.5297000000178,1562.365200000018,1563.3685,1563.8726000000238,1563.872700000018,1565.965300000012,1889.0,1565.965400000006,5.0,1565.9707000000178,3.0,27.0,117.0,25.0,1.0,0.8,0.7,Time
,,S31,1,女性,25,anonymized,Serial_Dependence_U,2023.2.3,Win32,93.45794392525906,,,,,,1565.971,260.0,3.0,1565.971,260.0,,,,1569.948900000006,1570.4462000000178,1569.4431000000238,1569.948800000012,1566.9725,1569.443,1570.4462000000178,1570.946400000006,1570.946400000006,1574.143900000006,2745.0,1574.144,5.0,1574.1492000000178,3.0,28.0,118.0,13.0,1.0,1.4,0.3,Time
,,S31,1,女性,25,anonymized,Serial_Dependence_U,2023.2.3,Win32,93.45794392525906,,,,,,1574.149400000006,76.0,3.0,1574.1495,76.0,,,,1577.704300000012,1578.197700000018,1577.1983000000118,1577.704200000018,1575.1579000000058,1577.1982000000178,1578.197700000018,1578.690800000012,1578.690900000006,1580.175900000006,1277.0,1580.175900000006,4.0,1580.181,3.0,29.0,119.0,16.0,1.0,1.0,0.7,Time
,,S31,1,女性,25,anonymized,Serial_Dependence_U,2023.2.3,Win32,93.45794392525906,,,,,,1580.181200000018,312.0,4.0,1618.8633000000118,312.0,s,38.66859999999383,,1622.8322000000178,1623.3287000000178,1622.331300000012,1622.8321000000235,1619.865300000012,1622.3312000000178,1623.3288000000118,1623.823900000006,1623.824,1626.854300000012,2879.0,1626.854300000012,5.0,1626.859800000012,4.0,0.0,120.0,23.0,1.0,1.4,0.3,Time
,,S31,1,女性,25,anonymized,Serial_Dependence_U,2023.2.3,Win32,93.45794392525906,,,,,,1626.8601000000235,209.0,4.0,1626.861400000006,209.0,,,,1630.2135,1630.713200000018,1629.709900000006,1630.213300000012,1627.869300000012,1629.709900000006,1630.713200000018,1631.2131000000238,1631.2131000000238,1634.3575,2700.0,1634.3575,5.0,1634.363200000018,4.0,1.0,121.0,5.0,1.0,0.8,0.7,Time
,,S31,1,女性,25,anonymized,Serial_Dependence_U,2023.2.3,Win32,93.45794392525906,,,,,,1634.363400000006,255.0,4.0,1634.363400000006,255.0,,,,1637.913200000018,1638.413,1637.4026000000238,1637.913200000018,1635.368700000018,1637.4025,1638.413100000024,1638.913100000024,1638.913200000018,1640.902200000018,1867.0,1640.902200000018,5.0,1640.907400000006,4.0,2.0,122.0,6.0,1.0,1.0,0.7,Time
,,S31,1,女性,25,anonymized,Serial_Dependence_U,2023.2.3,Win32,93.45794392525906,,,,,,1640.907700000018,191.0,4.0,1640.907700000018,191.0,,,,1644.680100000024,1645.1795,1644.168900000006,1644.68,1641.902300000012,1644.168800000012,1645.1795,1645.680100000024,1645.680200000018,1648.257400000006,2368.0,1648.257400000006,5.0,1648.263,4.0,3.0,123.0,22.0,1.0,1.2,0.3,Time
,,S31,1,女性,25,anonymized,Serial_Dependence_U,2023.2.3,Win32,93.45794392525906,,,,,,1648.2632000000178,253.0,4.0,1648.2632000000178,253.0,,,,1651.8355,1652.3355,1651.3246000000238,1651.8355,1649.258200000018,1651.3245,1652.3355,1652.835300000012,1652.835300000012,1654.824100000024,1833.0,1654.824200000018,5.0,1654.8346000000238,4.0,4.0,124.0,21.0,1.0,1.0,0.3,Time
,,S31,1,女性,25,anonymized,Serial_Dependence_U,2023.2.3,Win32,93.45794392525906,,,,,,1654.835,351.0,4.0,1654.835200000018,351.0,,,,1658.580400000006,1659.08,1658.08,1658.580400000006,1655.8467000000178,1658.079900000006,1659.08,1659.5798000000118,1659.579900000006,1661.4686000000238,1678.0,1661.468700000018,5.0,1661.4761000000235,4.0,5.0,125.0,17.0,1.0,1.2,0.7,Time
,,S31,1,女性,25,anonymized,Serial_Dependence_U,2023.2.3,Win32,93.45794392525906,,,,,,1661.4766000000238,200.0,4.0,1661.476700000018,200.0,,,,1665.258300000012,1665.7576000000238,1664.746800000012,1665.258200000018,1662.480100000024,1664.746800000012,1665.7577000000178,1666.2575,1666.2575,1669.1691000000235,1888.0,1669.1691000000235,5.0,1669.175300000012,4.0,6.0,126.0,2.0,1.0,1.2,0.3,Time
,,S31,1,女性,25,anonymized,Serial_Dependence_U,2023.2.3,Win32,93.45794392525906,,,,,,1669.175900000006,264.0,4.0,1669.1761000000238,264.0,,,,1673.1133000000118,1673.6133000000118,1672.602400000006,1673.1133000000118,1670.169400000006,1672.602400000006,1673.6133000000118,1674.113200000018,1674.113200000018,1676.924300000012,2433.0,1676.924400000006,5.0,1676.933300000012,4.0,7.0,127.0,8.0,1.0,1.4,0.7,Time
,,S31,1,女性,25,anonymized,Serial_Dependence_U,2023.2.3,Win32,93.45794392525906,,,,,,1676.9335,287.0,4.0,1676.9337000000178,287.0,,,,1681.1135,1681.613,1680.602800000012,1681.1135,1677.9362000000178,1680.602800000012,1681.613,1682.1133000000118,1682.1133000000118,1685.28,2757.0,1685.2801000000238,5.0,1685.2855,4.0,8.0,128.0,4.0,1.0,1.6,0.3,Time
,,S31,1,女性,25,anonymized,Serial_Dependence_U,2023.2.3,Win32,93.45794392525906,,,,,,1685.286100000024,109.0,4.0,1685.286100000024,109.0,,,,1688.858200000018,1689.3577000000178,1688.3577000000178,1688.8581000000238,1686.291700000018,1688.3577000000178,1689.3577000000178,1689.8575,1689.8575,1691.869,2000.0,1691.869,5.0,1691.8746000000235,4.0,9.0,129.0,11.0,1.0,1.0,0.3,Time
,,S31,1,女性,25,anonymized,Serial_Dependence_U,2023.2.3,Win32,93.45794392525906,,,,,,1691.874800000012,235.0,4.0,1691.874900000006,235.0,,,,1695.424400000006,1695.924400000006,1694.913400000006,1695.424400000006,1692.879800000012,1694.913300000012,1695.924400000006,1696.424300000012,1696.424300000012,1698.3245,1767.0,1698.3245,5.0,1698.334200000018,4.0,10.0,130.0,26.0,1.0,1.0,0.7,Time
,,S31,1,女性,25,anonymized,Serial_Dependence_U,2023.2.3,Win32,93.45794392525906,,,,,,1698.334400000006,45.0,4.0,1698.3345,45.0,,,,1701.9136000000235,1702.4135,1701.4027000000178,1701.9136000000235,1699.336,1701.4026000000238,1702.4135,1702.913400000006,1702.9135,1704.913100000024,1634.0,1704.913100000024,5.0,1704.9185,4.0,11.0,131.0,1.0,1.0,1.0,0.3,Time
,,S31,1,女性,25,anonymized,Serial_Dependence_U,2023.2.3,Win32,93.45794392525906,,,,,,1704.918700000018,113.0,4.0,1704.918700000018,113.0,,,,1708.691900000006,1709.191200000018,1708.180700000018,1708.691800000012,1705.9136000000235,1708.1806000000238,1709.191200000018,1709.691300000012,1709.691300000012,1711.6472000000178,1934.0,1711.6472000000178,5.0,1711.6535,4.0,12.0,132.0,12.0,1.0,1.2,0.3,Time
,,S31,1,女性,25,anonymized,Serial_Dependence_U,2023.2.3,Win32,93.45794392525906,,,,,,1711.6537000000178,152.0,4.0,1711.653800000012,152.0,,,,1715.003,1715.5021000000238,1714.491600000024,1715.003,1712.6579000000058,1714.491600000024,1715.5021000000238,1716.002200000018,1716.002300000012,1717.702,1444.0,1717.7021000000238,5.0,1717.707,4.0,13.0,133.0,15.0,1.0,0.8,0.7,Time
,,S31,1,女性,25,anonymized,Serial_Dependence_U,2023.2.3,Win32,93.45794392525906,,,,,,1717.7072000000178,252.0,4.0,1717.707300000012,252.0,,,,1721.68,1722.180200000018,1721.1691000000235,1721.68,1718.7025,1721.169,1722.180200000018,1722.679900000006,1722.679900000006,1725.365200000018,2209.0,1725.365200000018,5.0,1725.370700000018,4.0,14.0,134.0,13.0,1.0,1.4,0.3,Time
,,S31,1,女性,25,anonymized,Serial_Dependence_U,2023.2.3,Win32,93.45794392525906,,,,,,1725.371,77.0,4.0,1725.3711000000235,77.0,,,,1729.335800000012,1729.835300000012,1728.8246000000238,1729.3356000000238,1726.387600000024,1728.8245,1729.8354000000058,1730.3354000000058,1730.3355,1732.9102000000178,2312.0,1732.9103000000118,5.0,1732.9151000000238,4.0,15.0,135.0,18.0,1.0,1.4,0.7,Time
,,S31,1,女性,25,anonymized,Serial_Dependence_U,2023.2.3,Win32,93.45794392525906,,,,,,1732.9155,65.0,4.0,1732.9155,65.0,,,,1737.098600000024,1737.598,1736.5885,1737.0985,1733.9215,1736.5885,1737.598,1738.0922000000178,1738.0923000000118,1740.776900000006,2256.0,1740.776900000006,5.0,1740.782600000024,4.0,16.0,136.0,14.0,1.0,1.6,0.3,Time
,,S31,1,女性,25,anonymized,Serial_Dependence_U,2023.2.3,Win32,93.45794392525906,,,,,,1740.7829000000058,93.0,4.0,1740.7829000000058,93.0,,,,1744.527200000018,1745.024300000012,1744.021,1744.527100000024,1741.7829000000058,1744.020900000006,1745.024400000006,1745.5246000000238,1745.5246000000238,1748.677,2616.0,1748.6771000000238,5.0,1748.6831000000238,4.0,17.0,137.0,7.0,1.0,1.2,0.7,Time
,,S31,1,女性,25,anonymized,Serial_Dependence_U,2023.2.3,Win32,93.45794392525906,,,,,,1748.683300000012,83.0,4.0,1748.6835,83.0,,,,1752.030300000012,1752.5315,1751.5162000000178,1752.030200000018,1749.684,1751.5162000000178,1752.531600000024,1753.031900000006,1753.031900000006,1755.0577000000178,1936.0,1755.0577000000178,5.0,1755.062900000006,4.0,18.0,138.0,25.0,1.0,0.8,0.7,Time
,,S31,1,女性,25,anonymized,Serial_Dependence_U,2023.2.3,Win32,93.45794392525906,,,,,,1755.0631000000235,95.0,4.0,1755.0631000000235,95.0,,,,1758.446600000024,1758.946900000006,1757.935900000006,1758.446600000024,1756.069200000018,1757.9358000000118,1758.946900000006,1759.4465,1759.4465,1761.5688000000118,2044.0,1761.5688000000118,5.0,1761.5743000000118,4.0,19.0,139.0,0.0,1.0,0.8,0.3,Time
,,S31,1,女性,25,anonymized,Serial_Dependence_U,2023.2.3,Win32,93.45794392525906,,,,,,1761.5746000000238,136.0,4.0,1761.5746000000238,136.0,,,,1765.713700000018,1766.213400000006,1765.2026000000235,1765.713600000024,1762.569300000012,1765.2025,1766.213400000006,1766.7135,1766.7135,1769.3243000000118,1801.0,1769.324400000006,4.0,1769.3298000000118,4.0,20.0,140.0,19.0,1.0,1.6,0.7,Time
,,S31,1,女性,25,anonymized,Serial_Dependence_U,2023.2.3,Win32,93.45794392525906,,,,,,1769.3301000000238,103.0,4.0,1769.3301000000238,103.0,,,,1772.8806000000238,1773.38,1772.3692000000178,1772.8805,1770.336,1772.3691000000238,1773.38,1773.880300000012,1773.880300000012,1776.5245,2566.0,1776.5245,5.0,1776.529300000012,4.0,21.0,141.0,16.0,1.0,1.0,0.7,Time
,,S31,1,女性,25,anonymized,Serial_Dependence_U,2023.2.3,Win32,93.45794392525906,,,,,,1776.5296000000235,79.0,4.0,1776.5297000000178,79.0,,,,1780.269100000024,1780.769,1779.758200000018,1780.269100000024,1777.5252000000178,1779.758200000018,1780.769100000024,1781.269100000024,1781.269100000024,1783.1245,1412.0,1783.1245,4.0,1783.129700000018,4.0,22.0,142.0,27.0,1.0,1.2,0.7,Time
,,S31,1,女性,25,anonymized,Serial_Dependence_U,2023.2.3,Win32,93.45794392525906,,,,,,1783.13,255.0,4.0,1783.1301000000235,255.0,,,,1786.502600000024,1787.0021000000238,1786.002300000012,1786.502600000024,1784.135600000024,1786.002200000018,1787.0021000000238,1787.5021000000238,1787.5021000000238,1789.591,1910.0,1789.591,5.0,1789.596200000018,4.0,23.0,143.0,10.0,1.0,0.8,0.3,Time
,,S31,1,女性,25,anonymized,Serial_Dependence_U,2023.2.3,Win32,93.45794392525906,,,,,,1789.5965,171.0,4.0,1789.5966000000235,171.0,,,,1793.7473000000118,1794.246700000018,1793.2365,1793.747100000024,1790.6026000000238,1793.236400000006,1794.246700000018,1794.7466000000238,1794.7466000000238,1797.357900000006,2300.0,1797.357900000006,5.0,1797.3637000000178,4.0,24.0,144.0,29.0,1.0,1.6,0.7,Time
,,S31,1,女性,25,anonymized,Serial_Dependence_U,2023.2.3,Win32,93.45794392525906,,,,,,1797.363900000006,147.0,4.0,1797.364,147.0,,,,1801.535800000012,1802.0357000000176,1801.024800000012,1801.5357000000176,1798.3585,1801.024800000012,1802.0357000000176,1802.535800000012,1802.535800000012,1804.780100000024,2011.0,1804.780100000024,4.0,1804.785600000024,4.0,25.0,145.0,24.0,1.0,1.6,0.3,Time
,,S31,1,女性,25,anonymized,Serial_Dependence_U,2023.2.3,Win32,93.45794392525906,,,,,,1804.785800000012,293.0,4.0,1804.785900000006,293.0,,,,1808.1692000000176,1808.669,1807.657800000012,1808.169100000024,1805.791300000012,1807.657800000012,1808.669100000024,1809.1692000000176,1809.1692000000176,1811.191200000018,1567.0,1811.191300000012,5.0,1811.196100000024,4.0,26.0,146.0,20.0,1.0,0.8,0.3,Time
,,S31,1,女性,25,anonymized,Serial_Dependence_U,2023.2.3,Win32,93.45794392525906,,,,,,1811.196400000006,10.0,4.0,1811.1965,10.0,,,,1815.147,1815.646800000012,1814.635800000012,1815.1469000000056,1812.202400000006,1814.635800000012,1815.6469000000056,1816.1469000000056,1816.1469000000056,1818.5912000000176,2166.0,1818.591300000012,5.0,1818.596400000006,4.0,27.0,147.0,28.0,1.0,1.4,0.7,Time
,,S31,1,女性,25,anonymized,Serial_Dependence_U,2023.2.3,Win32,93.45794392525906,,,,,,1818.596600000024,4.0,4.0,1818.5967000000176,4.0,,,,1822.747,1823.2467000000177,1822.235600000024,1822.746900000006,1819.603,1822.235600000024,1823.2467000000177,1823.746600000024,1823.7467000000177,1827.124800000012,2709.0,1827.124900000006,5.0,1827.130100000024,4.0,28.0,148.0,9.0,1.0,1.6,0.7,Time
,,S31,1,女性,25,anonymized,Serial_Dependence_U,2023.2.3,Win32,93.45794392525906,,,,,,1827.130300000012,152.0,4.0,1827.130400000006,152.0,,,,1831.102800000012,1831.6025,1830.591800000012,1831.1027000000176,1828.125,1830.591600000024,1831.6025,1832.102300000012,1832.102400000006,1834.269200000018,1856.0,1834.269300000012,5.0,1834.274400000006,4.0,29.0,149.0,3.0,1.0,1.4,0.3,Time
,,S31,1,女性,25,anonymized,Serial_Dependence_U,2023.2.3,Win32,93.45794392525906,,,,,,1834.274600000024,334.0,5.0,1841.086900000006,334.0,s,6.794299999982286,,1845.2697000000176,1845.768900000006,1844.758,1845.269600000024,1842.0912000000176,1844.757900000006,1845.768900000006,1846.269100000024,1846.269100000024,1849.224600000024,2912.0,1849.224600000024,5.0,1849.230100000024,5.0,0.0,150.0,4.0,1.0,1.6,0.3,Time
,,S31,1,女性,25,anonymized,Serial_Dependence_U,2023.2.3,Win32,93.45794392525906,,,,,,1849.230300000012,143.0,5.0,1849.231200000018,143.0,,,,1852.780400000006,1853.2805,1852.2695,1852.780300000012,1850.235600000024,1852.269400000006,1853.2805,1853.779900000006,1853.779900000006,1856.191300000012,2389.0,1856.191300000012,5.0,1856.196600000024,5.0,1.0,151.0,6.0,1.0,1.0,0.7,Time
,,S31,1,女性,25,anonymized,Serial_Dependence_U,2023.2.3,Win32,93.45794392525906,,,,,,1856.196900000006,353.0,5.0,1856.197,353.0,,,,1859.947300000012,1860.447,1859.436400000006,1859.947300000012,1857.202900000006,1859.436300000012,1860.447,1860.946800000012,1860.946800000012,1863.391300000012,2233.0,1863.391300000012,5.0,1863.396700000018,5.0,2.0,152.0,17.0,1.0,1.2,0.7,Time
,,S31,1,女性,25,anonymized,Serial_Dependence_U,2023.2.3,Win32,93.45794392525906,,,,,,1863.397,114.0,5.0,1863.397100000024,114.0,,,,1867.380600000024,1867.880300000012,1866.869700000018,1867.3805,1864.4024000000056,1866.869600000024,1867.880300000012,1868.380100000024,1868.3802000000176,1871.08,2690.0,1871.080100000024,5.0,1871.085100000024,5.0,3.0,153.0,3.0,1.0,1.4,0.3,Time
,,S31,1,女性,25,anonymized,Serial_Dependence_U,2023.2.3,Win32,93.45794392525906,,,,,,1871.085300000012,115.0,5.0,1871.0854000000056,115.0,,,,1874.825200000018,1875.3245,1874.3247000000176,1874.825200000018,1872.091600000024,1874.324600000024,1875.3245,1875.824300000012,1875.8244000000057,1878.235700000018,2022.0,1878.235800000012,5.0,1878.242,5.0,4.0,154.0,7.0,1.0,1.2,0.7,Time
,,S31,1,女性,25,anonymized,Serial_Dependence_U,2023.2.3,Win32,93.45794392525906,,,,,,1878.242300000012,282.0,5.0,1878.242300000012,282.0,,,,1882.191900000006,1882.691100000024,1881.680600000024,1882.191800000012,1879.2474000000057,1881.680600000024,1882.691100000024,1883.1914000000056,1883.1914000000056,1885.991100000024,2745.0,1885.991100000024,5.0,1885.996800000012,5.0,5.0,155.0,18.0,1.0,1.4,0.7,Time
,,S31,1,女性,25,anonymized,Serial_Dependence_U,2023.2.3,Win32,93.45794392525906,,,,,,1885.997,132.0,5.0,1885.997100000024,132.0,,,,1889.569400000006,1890.069,1889.058200000018,1889.569300000012,1886.992,1889.058200000018,1890.069,1890.568900000006,1890.568900000006,1892.9694000000056,2144.0,1892.9694000000056,5.0,1892.975300000012,5.0,6.0,156.0,21.0,1.0,1.0,0.3,Time
,,S31,1,女性,25,anonymized,Serial_Dependence_U,2023.2.3,Win32,93.45794392525906,,,,,,1892.975600000024,198.0,5.0,1892.975600000024,198.0,,,,1897.124600000024,1897.624800000012,1896.613900000006,1897.1245,1893.980300000012,1896.613800000012,1897.624800000012,1898.124600000024,1898.124600000024,1901.380100000024,2856.0,1901.3802000000176,5.0,1901.3857000000176,5.0,7.0,157.0,29.0,1.0,1.6,0.7,Time
,,S31,1,女性,25,anonymized,Serial_Dependence_U,2023.2.3,Win32,93.45794392525906,,,,,,1901.385900000006,257.0,5.0,1901.386,257.0,,,,1904.924600000024,1905.424900000006,1904.413900000006,1904.924600000024,1902.380700000018,1904.413800000012,1905.424900000006,1905.924900000006,1905.924900000006,1908.0912000000176,2012.0,1908.091300000012,5.0,1908.0967000000176,5.0,8.0,158.0,26.0,1.0,1.0,0.7,Time
,,S31,1,女性,25,anonymized,Serial_Dependence_U,2023.2.3,Win32,93.45794392525906,,,,,,1908.096900000006,249.0,5.0,1908.097,249.0,,,,1912.258900000006,1912.757800000012,1911.758300000012,1912.2587000000176,1909.0915,1911.758300000012,1912.757800000012,1913.257800000012,1913.257800000012,1920.465700000018,2519.0,1920.465700000018,5.0,1920.471300000012,5.0,9.0,159.0,14.0,1.0,1.6,0.3,Time
,,S31,1,女性,25,anonymized,Serial_Dependence_U,2023.2.3,Win32,93.45794392525906,,,,,,1920.4715,33.0,5.0,1920.471600000024,33.0,,,,1923.864100000024,1924.3577000000175,1923.3534000000056,1923.864100000024,1921.484,1923.353300000012,1924.3577000000175,1924.860800000012,1924.860800000012,1927.432300000012,2267.0,1927.432400000006,5.0,1927.437600000024,5.0,10.0,160.0,0.0,1.0,0.8,0.3,Time
,,S31,1,女性,25,anonymized,Serial_Dependence_U,2023.2.3,Win32,93.45794392525906,,,,,,1927.437900000006,323.0,5.0,1927.438,323.0,,,,1931.386700000018,1931.879900000006,1930.8765,1931.386600000024,1928.443400000006,1930.876400000006,1931.88,1932.374,1932.374,1935.119800000012,2700.0,1935.119800000012,5.0,1935.125800000012,5.0,11.0,161.0,8.0,1.0,1.4,0.7,Time
,,S31,1,女性,25,anonymized,Serial_Dependence_U,2023.2.3,Win32,93.45794392525906,,,,,,1935.126100000024,238.0,5.0,1935.126100000024,238.0,,,,1938.465700000018,1938.9617000000176,1937.962,1938.465600000024,1936.130600000024,1937.961900000006,1938.9617000000176,1939.465400000006,1939.4655,1942.424900000006,2556.0,1942.424900000006,5.0,1942.430300000012,5.0,12.0,162.0,25.0,1.0,0.8,0.7,Time
,,S31,1,女性,25,anonymized,Serial_Dependence_U,2023.2.3,Win32,93.45794392525906,,,,,,1942.4305,352.0,5.0,1942.4305,352.0,,,,1946.2139000000057,1946.7139000000057,1945.702800000012,1946.2139000000057,1943.4359000000056,1945.7027000000176,1946.7139000000057,1947.213600000024,1947.213600000024,1949.7025,2365.0,1949.702600000024,5.0,1949.707900000006,5.0,13.0,163.0,2.0,1.0,1.2,0.3,Time
,,S31,1,女性,25,anonymized,Serial_Dependence_U,2023.2.3,Win32,93.45794392525906,,,,,,1949.7082000000175,248.0,5.0,1949.7082000000175,248.0,,,,1953.2809000000057,1953.780100000024,1952.780400000006,1953.280800000012,1950.714,1952.780300000012,1953.780100000024,1954.280400000006,1954.2805,1956.724800000012,1968.0,1956.724800000012,5.0,1956.729900000006,5.0,14.0,164.0,1.0,1.0,1.0,0.3,Time
,,S31,1,女性,25,anonymized,Serial_Dependence_U,2023.2.3,Win32,93.45794392525906,,,,,,1956.730100000024,247.0,5.0,1956.730200000018,247.0,,,,1960.713800000012,1961.2135,1960.203100000024,1960.713700000018,1957.736,1960.203,1961.2135,1961.7135,1961.713600000024,1964.635600000024,2587.0,1964.635600000024,5.0,1964.641100000024,5.0,15.0,165.0,23.0,1.0,1.4,0.3,Time
,,S31,1,女性,25,anonymized,Serial_Dependence_U,2023.2.3,Win32,93.45794392525906,,,,,,1964.641300000012,284.0,5.0,1964.641400000006,284.0,,,,1968.613800000012,1969.113600000024,1968.102800000012,1968.6137000000176,1965.636100000024,1968.102600000024,1969.113600000024,1969.6137000000176,1969.6137000000176,1973.180300000012,3122.0,1973.1804000000056,5.0,1973.185300000012,5.0,16.0,166.0,13.0,1.0,1.4,0.3,Time
,,S31,1,女性,25,anonymized,Serial_Dependence_U,2023.2.3,Win32,93.45794392525906,,,,,,1973.1855,349.0,5.0,1973.185600000024,349.0,,,,1976.9582000000175,1977.458100000024,1976.447300000012,1976.9582000000175,1974.181,1976.447300000012,1977.458100000024,1977.9582000000175,1977.9582000000175,1980.7025,2144.0,1980.7025,5.0,1980.707800000012,5.0,17.0,167.0,22.0,1.0,1.2,0.3,Time
,,S31,1,女性,25,anonymized,Serial_Dependence_U,2023.2.3,Win32,93.45794392525906,,,,,,1980.708,82.0,5.0,1980.708100000024,82.0,,,,1984.091600000024,1984.591800000012,1983.5805,1984.0915,1981.714300000012,1983.580400000006,1984.591800000012,1985.0912000000176,1985.091300000012,1987.6027000000176,2033.0,1987.602800000012,5.0,1987.6075,5.0,18.0,168.0,10.0,1.0,0.8,0.3,Time
,,S31,1,女性,25,anonymized,Serial_Dependence_U,2023.2.3,Win32,93.45794392525906,,,,,,1987.6077000000175,187.0,5.0,1987.607800000012,187.0,,,,1991.558,1992.057900000006,1991.0474000000056,1991.558,1988.614,1991.047300000012,1992.058,1992.558200000018,1992.558200000018,1995.380300000012,2244.0,1995.380400000006,5.0,1995.385800000012,5.0,19.0,169.0,28.0,1.0,1.4,0.7,Time
,,S31,1,女性,25,anonymized,Serial_Dependence_U,2023.2.3,Win32,93.45794392525906,,,,,,1995.386,223.0,5.0,1995.3862000000177,223.0,,,,1999.5252000000175,2000.024700000018,1999.0142000000176,1999.5252000000175,1996.380800000012,1999.0142000000176,2000.024800000012,2000.524600000024,2000.524600000024,2003.5692000000176,2822.0,2003.5692000000176,5.0,2003.574600000024,5.0,20.0,170.0,19.0,1.0,1.6,0.7,Time
,,S31,1,女性,25,anonymized,Serial_Dependence_U,2023.2.3,Win32,93.45794392525906,,,,,,2003.574800000012,12.0,5.0,2003.574900000006,12.0,,,,2007.313800000012,2007.813600000024,2006.802800000012,2007.313600000024,2004.5695,2006.802700000018,2007.813600000024,2008.313700000018,2008.313700000018,2011.036,2388.0,2011.036100000024,5.0,2011.0415,5.0,21.0,171.0,27.0,1.0,1.2,0.7,Time
,,S31,1,女性,25,anonymized,Serial_Dependence_U,2023.2.3,Win32,93.45794392525906,,,,,,2011.041700000018,48.0,5.0,2011.0419000000056,48.0,,,,2014.3809000000056,2014.880400000006,2013.8805,2014.3809000000056,2012.047300000012,2013.880400000006,2014.880400000006,2015.380600000024,2015.380600000024,2017.635900000006,1877.0,2017.636,5.0,2017.641400000006,5.0,22.0,172.0,15.0,1.0,0.8,0.7,Time
,,S31,1,女性,25,anonymized,Serial_Dependence_U,2023.2.3,Win32,93.45794392525906,,,,,,2017.641600000024,321.0,5.0,2017.641700000018,321.0,,,,2020.991800000012,2021.4915,2020.481100000024,2020.991800000012,2018.647100000024,2020.481100000024,2021.491600000024,2021.991600000024,2021.9917000000185,2023.8915,1554.0,2023.891600000024,5.0,2023.8968000000125,5.0,23.0,173.0,5.0,1.0,0.8,0.7,Time
,,S31,1,女性,25,anonymized,Serial_Dependence_U,2023.2.3,Win32,93.45794392525906,,,,,,2023.896900000006,340.0,5.0,2023.897100000024,340.0,,,,2027.669700000018,2028.169200000018,2027.1585,2027.669700000018,2024.891900000006,2027.1584000000064,2028.169200000018,2028.669200000018,2028.669200000018,2031.1025000000004,2154.0,2031.1025000000004,5.0,2031.1074000000065,5.0,24.0,174.0,12.0,1.0,1.2,0.3,Time
,,S31,1,女性,25,anonymized,Serial_Dependence_U,2023.2.3,Win32,93.45794392525906,,,,,,2031.107600000024,80.0,5.0,2031.107600000024,80.0,,,,2034.480800000012,2034.9802000000184,2033.969600000024,2034.480800000012,2032.102800000012,2033.969600000024,2034.9802000000184,2035.480300000012,2035.480300000012,2037.5804000000064,1724.0,2037.5804000000064,5.0,2037.5855,5.0,25.0,175.0,20.0,1.0,0.8,0.3,Time
,,S31,1,女性,25,anonymized,Serial_Dependence_U,2023.2.3,Win32,93.45794392525906,,,,,,2037.5857000000185,96.0,5.0,2037.585800000012,96.0,,,,2041.169800000012,2041.6693000000123,2040.658600000024,2041.169700000018,2038.591600000024,2040.6585,2041.6693000000123,2042.1693000000123,2042.169400000006,2044.9249000000063,2400.0,2044.9249000000063,5.0,2044.930400000006,5.0,26.0,176.0,11.0,1.0,1.0,0.3,Time
,,S31,1,女性,25,anonymized,Serial_Dependence_U,2023.2.3,Win32,93.45794392525906,,,,,,2044.930700000018,97.0,5.0,2044.930800000012,97.0,,,,2049.103100000024,2049.602400000006,2048.602700000018,2049.103100000024,2045.9359000000063,2048.602700000018,2049.602400000006,2050.1025000000004,2050.1025000000004,2052.7470000000003,2255.0,2052.7470000000003,5.0,2052.752600000024,5.0,27.0,177.0,24.0,1.0,1.6,0.3,Time
,,S31,1,女性,25,anonymized,Serial_Dependence_U,2023.2.3,Win32,93.45794392525906,,,,,,2052.7529000000063,40.0,5.0,2052.7529000000063,40.0,,,,2056.2920000000004,2056.791800000012,2055.780900000006,2056.291800000012,2053.747200000018,2055.7808000000123,2056.791800000012,2057.291400000006,2057.291400000006,2059.6138000000124,1888.0,2059.6138000000124,5.0,2059.6192000000183,5.0,28.0,178.0,16.0,1.0,1.0,0.7,Time
,,S31,1,女性,25,anonymized,Serial_Dependence_U,2023.2.3,Win32,93.45794392525906,,,,,,2059.619400000006,75.0,5.0,2059.6195,75.0,,,,2063.7698000000123,2064.269300000012,2063.2585000000004,2063.7698000000123,2060.625300000012,2063.2585000000004,2064.269300000012,2064.769400000006,2064.7695000000003,2067.369400000006,2111.0,2067.369400000006,5.0,2067.3748000000123,5.0,29.0,179.0,9.0,1.0,1.6,0.7,Time
,,S31,1,女性,25,anonymized,Serial_Dependence_U,2023.2.3,Win32,93.45794392525906,,,,,,2067.375,152.0,6.0,2600.608600000024,152.0,s,533.2163000000123,,2604.566400000006,2605.066200000018,2604.055100000024,2604.566300000012,2601.620800000012,2604.055100000024,2605.066200000018,2605.558600000024,2605.558600000024,2608.5665000000004,2568.0,2608.5665000000004,5.0,2608.572,6.0,0.0,180.0,18.0,1.0,1.4,0.7,Time
,,S31,1,女性,25,anonymized,Serial_Dependence_U,2023.2.3,Win32,93.45794392525906,,,,,,2608.5722000000183,170.0,6.0,2608.574,170.0,,,,2611.918900000006,2612.4207000000183,2611.411,2611.918700000018,2609.574200000018,2611.410800000012,2612.420800000012,2612.9215000000004,2612.9215000000004,2615.255700000018,2322.0,2615.255700000018,5.0,2615.261300000012,6.0,1.0,181.0,5.0,1.0,0.8,0.7,Time
,,S31,1,女性,25,anonymized,Serial_Dependence_U,2023.2.3,Win32,93.45794392525906,,,,,,2615.2615,238.0,6.0,2615.261700000018,238.0,,,,2618.603300000012,2619.103,2618.099900000006,2618.603200000018,2616.266600000024,2618.099900000006,2619.103100000024,2619.610100000024,2619.610100000024,2629.132200000018,1800.0,2629.132300000012,5.0,2629.137900000006,6.0,2.0,182.0,15.0,1.0,0.8,0.7,Time
,,S31,1,女性,25,anonymized,Serial_Dependence_U,2023.2.3,Win32,93.45794392525906,,,,,,2629.1383000000124,256.0,6.0,2629.1383000000124,256.0,,,,2633.321400000006,2633.813900000006,2632.810700000018,2633.3213000000123,2630.1448000000123,2632.810600000024,2633.813900000006,2634.314100000024,2634.314100000024,2637.188800000012,2533.0,2637.188800000012,5.0,2637.194600000024,6.0,3.0,183.0,14.0,1.0,1.6,0.3,Time
,,S31,1,女性,25,anonymized,Serial_Dependence_U,2023.2.3,Win32,93.45794392525906,,,,,,2637.1949000000063,287.0,6.0,2637.1949000000063,287.0,,,,2641.1592000000182,2641.658600000024,2640.6558000000123,2641.1592000000182,2638.192100000024,2640.655700000018,2641.658600000024,2642.158700000018,2642.158700000018,2645.687200000018,2487.0,2645.6873000000123,5.0,2645.693,6.0,4.0,184.0,3.0,1.0,1.4,0.3,Time
,,S31,1,女性,25,anonymized,Serial_Dependence_U,2023.2.3,Win32,93.45794392525906,,,,,,2645.693300000012,287.0,6.0,2645.693400000006,287.0,,,,2649.2743000000123,2649.7695000000003,2648.766200000018,2649.2743000000123,2646.696700000018,2648.766,2649.7695000000003,2650.264300000012,2650.2644000000064,2653.5885000000003,2534.0,2653.5885000000003,5.0,2653.5945,6.0,5.0,185.0,1.0,1.0,1.0,0.3,Time
,,S31,1,女性,25,anonymized,Serial_Dependence_U,2023.2.3,Win32,93.45794392525906,,,,,,2653.5947000000183,283.0,6.0,2653.594900000006,283.0,,,,2657.158800000012,2657.6645000000003,2656.652300000012,2657.158700000018,2654.610600000024,2656.652200000018,2657.6645000000003,2658.162200000018,2658.162200000018,2661.1558000000123,2578.0,2661.1558000000123,5.0,2661.161300000012,6.0,6.0,186.0,16.0,1.0,1.0,0.7,Time
,,S31,1,女性,25,anonymized,Serial_Dependence_U,2023.2.3,Win32,93.45794392525906,,,,,,2661.161600000024,50.0,6.0,2661.161600000024,50.0,,,,2664.955200000018,2665.454700000018,2664.445100000024,2664.955200000018,2662.177800000012,2664.445,2665.454700000018,2665.947700000018,2665.947800000012,2669.056,2690.0,2669.056,5.0,2669.061300000012,6.0,7.0,187.0,22.0,1.0,1.2,0.3,Time
,,S31,1,女性,25,anonymized,Serial_Dependence_U,2023.2.3,Win32,93.45794392525906,,,,,,2669.0615000000003,22.0,6.0,2669.061600000024,22.0,,,,2672.814900000006,2673.3140000000003,2672.310100000024,2672.814800000012,2670.070400000006,2672.3100000000004,2673.314100000024,2673.820900000006,2673.820900000006,2676.9669000000063,2701.0,2676.9669000000063,5.0,2676.972600000024,6.0,8.0,188.0,7.0,1.0,1.2,0.7,Time
,,S31,1,女性,25,anonymized,Serial_Dependence_U,2023.2.3,Win32,93.45794392525906,,,,,,2676.9730000000004,274.0,6.0,2676.9731000000243,274.0,,,,2680.7324000000062,2681.230300000012,2680.222200000018,2680.732200000018,2677.987,2680.222100000024,2681.230300000012,2681.725600000024,2681.725600000024,2683.711400000006,1934.0,2683.7115000000003,5.0,2683.7169000000063,6.0,9.0,189.0,27.0,1.0,1.2,0.7,Time
,,S31,1,女性,25,anonymized,Serial_Dependence_U,2023.2.3,Win32,93.45794392525906,,,,,,2683.717100000024,168.0,6.0,2683.7172000000182,168.0,,,,2687.8595,2688.365400000006,2687.352200000018,2687.8593000000124,2684.7208000000123,2687.352200000018,2688.365400000006,2688.8585000000003,2688.858600000024,2692.089300000012,3079.0,2692.089300000012,5.0,2692.0947000000183,6.0,10.0,190.0,9.0,1.0,1.6,0.7,Time
,,S31,1,女性,25,anonymized,Serial_Dependence_U,2023.2.3,Win32,93.45794392525906,,,,,,2692.0950000000003,98.0,6.0,2692.0950000000003,98.0,,,,2696.278,2696.7700000000004,2695.767200000018,2696.277900000006,2693.0992000000183,2695.767200000018,2696.7700000000004,2697.265200000018,2697.265200000018,2700.0595000000003,2759.0,2700.059600000024,5.0,2700.065,6.0,11.0,191.0,4.0,1.0,1.6,0.3,Time
,,S31,1,女性,25,anonymized,Serial_Dependence_U,2023.2.3,Win32,93.45794392525906,,,,,,2700.065200000018,175.0,6.0,2700.065300000012,175.0,,,,2703.6425000000004,2704.1364000000062,2703.1327000000183,2703.642400000006,2701.065900000006,2703.132600000024,2704.1364000000062,2704.636200000018,2704.636300000012,2707.067300000012,1934.0,2707.067300000012,5.0,2707.072600000024,6.0,12.0,192.0,11.0,1.0,1.0,0.3,Time
,,S31,1,女性,25,anonymized,Serial_Dependence_U,2023.2.3,Win32,93.45794392525906,,,,,,2707.072800000012,26.0,6.0,2707.072800000012,26.0,,,,2711.2485,2711.747600000024,2710.744400000006,2711.2485,2708.0764000000063,2710.744400000006,2711.747600000024,2712.247900000006,2712.248,2715.5220000000004,2635.0,2715.5220000000004,5.0,2715.5274000000063,6.0,13.0,193.0,24.0,1.0,1.6,0.3,Time
,,S31,1,女性,25,anonymized,Serial_Dependence_U,2023.2.3,Win32,93.45794392525906,,,,,,2715.527600000024,183.0,6.0,2715.5277000000183,183.0,,,,2719.470300000012,2719.9700000000003,2718.9607000000183,2719.470200000018,2716.525900000006,2718.960600000024,2719.9700000000003,2720.473300000012,2720.473400000006,2723.6215,2669.0,2723.621600000024,5.0,2723.627200000018,6.0,14.0,194.0,8.0,1.0,1.4,0.7,Time
,,S31,1,女性,25,anonymized,Serial_Dependence_U,2023.2.3,Win32,93.45794392525906,,,,,,2723.6275,244.0,6.0,2723.627600000024,244.0,,,,2727.374700000018,2727.869600000024,2726.866700000018,2727.374700000018,2724.632600000024,2726.866700000018,2727.869600000024,2728.369800000012,2728.369900000006,2731.3555,2656.0,2731.355600000024,5.0,2731.360900000006,6.0,15.0,195.0,17.0,1.0,1.2,0.7,Time
,,S31,1,女性,25,anonymized,Serial_Dependence_U,2023.2.3,Win32,93.45794392525906,,,,,,2731.361200000018,267.0,6.0,2731.3613000000123,267.0,,,,2735.305400000006,2735.803100000024,2734.800100000024,2735.305200000018,2732.3660000000004,2734.800100000024,2735.803100000024,2736.303100000024,2736.303100000024,2739.3215,2346.0,2739.3215,5.0,2739.327100000024,6.0,16.0,196.0,28.0,1.0,1.4,0.7,Time
,,S31,1,女性,25,anonymized,Serial_Dependence_U,2023.2.3,Win32,93.45794392525906,,,,,,2739.327400000006,1.0,6.0,2739.327400000006,1.0,,,,2743.4784000000063,2743.9866000000243,2742.966800000012,2743.478300000012,2740.3325000000004,2742.966700000018,2743.9866000000243,2744.481100000024,2744.481200000018,2748.211300000012,2731.0,2748.211300000012,5.0,2748.216800000012,6.0,17.0,197.0,19.0,1.0,1.6,0.7,Time
,,S31,1,女性,25,anonymized,Serial_Dependence_U,2023.2.3,Win32,93.45794392525906,,,,,,2748.217,13.0,6.0,2748.217100000024,13.0,,,,2751.599300000012,2752.0919000000063,2751.089600000024,2751.5992000000183,2749.221800000012,2751.089600000024,2752.0919000000063,2752.5865000000003,2752.5865000000003,2755.191900000006,2191.0,2755.192,5.0,2755.197,6.0,18.0,198.0,10.0,1.0,0.8,0.3,Time
,,S31,1,女性,25,anonymized,Serial_Dependence_U,2023.2.3,Win32,93.45794392525906,,,,,,2755.1972000000183,175.0,6.0,2755.197300000012,175.0,,,,2758.559700000018,2759.051700000018,2758.056100000024,2758.5595000000003,2756.1896000000243,2758.056,2759.051700000018,2759.5440000000003,2759.5440000000003,2763.779,2745.0,2763.779100000024,5.0,2763.7844000000064,6.0,19.0,199.0,0.0,1.0,0.8,0.3,Time
,,S31,1,女性,25,anonymized,Serial_Dependence_U,2023.2.3,Win32,93.45794392525906,,,,,,2763.784700000018,303.0,6.0,2763.784800000012,303.0,,,,2767.570700000018,2768.069800000012,2767.067100000024,2767.570600000024,2764.799700000018,2767.067,2768.069800000012,2768.566300000012,2768.566300000012,2770.889800000012,2013.0,2770.889800000012,5.0,2770.895300000012,6.0,20.0,200.0,2.0,1.0,1.2,0.3,Time
,,S31,1,女性,25,anonymized,Serial_Dependence_U,2023.2.3,Win32,93.45794392525906,,,,,,2770.8955,290.0,6.0,2770.895600000024,290.0,,,,2774.8705,2775.365400000006,2774.3669000000064,2774.870400000006,2771.899600000024,2774.366800000012,2775.3655000000003,2775.858700000018,2775.858700000018,2778.810600000024,2666.0,2778.810600000024,5.0,2778.816200000018,6.0,21.0,201.0,23.0,1.0,1.4,0.3,Time
,,S31,1,女性,25,anonymized,Serial_Dependence_U,2023.2.3,Win32,93.45794392525906,,,,,,2778.8165000000004,129.0,6.0,2778.8165000000004,129.0,,,,2782.177300000012,2782.6699000000062,2781.666900000006,2782.1772000000183,2779.825600000024,2781.666800000012,2782.6699000000062,2783.1696000000243,2783.1696000000243,2785.163200000018,1697.0,2785.163300000012,5.0,2785.170200000018,6.0,22.0,202.0,25.0,1.0,0.8,0.7,Time
,,S31,1,女性,25,anonymized,Serial_Dependence_U,2023.2.3,Win32,93.45794392525906,,,,,,2785.1704000000063,14.0,6.0,2785.170600000024,14.0,,,,2788.5370000000003,2789.036900000006,2788.032900000006,2788.536900000006,2786.172200000018,2788.032800000012,2789.036900000006,2789.5364000000063,2789.5365,2792.400300000012,2477.0,2792.4004000000064,5.0,2792.405600000024,6.0,23.0,203.0,20.0,1.0,0.8,0.3,Time
,,S31,1,女性,25,anonymized,Serial_Dependence_U,2023.2.3,Win32,93.45794392525906,,,,,,2792.405900000006,37.0,6.0,2792.4060000000004,37.0,,,,2796.548100000024,2797.048,2796.0455,2796.548,2793.4038000000123,2796.0454000000063,2797.048,2797.548,2797.548,2800.6558000000123,2789.0,2800.6558000000123,5.0,2800.6615,6.0,24.0,204.0,29.0,1.0,1.6,0.7,Time
,,S31,1,女性,25,anonymized,Serial_Dependence_U,2023.2.3,Win32,93.45794392525906,,,,,,2800.661800000012,250.0,6.0,2800.661800000012,250.0,,,,2804.633400000006,2805.1255,2804.132900000006,2804.633300000012,2801.661,2804.132800000012,2805.1255,2805.6254000000063,2805.6254000000063,2808.101100000024,2224.0,2808.101100000024,5.0,2808.106400000006,6.0,25.0,205.0,13.0,1.0,1.4,0.3,Time
,,S31,1,女性,25,anonymized,Serial_Dependence_U,2023.2.3,Win32,93.45794392525906,,,,,,2808.106700000018,170.0,6.0,2808.1068000000123,170.0,,,,2811.8815000000004,2812.381100000024,2811.378100000024,2811.881400000006,2809.103200000018,2811.378,2812.381100000024,2812.888400000006,2812.888400000006,2815.743400000006,2521.0,2815.743400000006,5.0,2815.749100000024,6.0,26.0,206.0,12.0,1.0,1.2,0.3,Time
,,S31,1,女性,25,anonymized,Serial_Dependence_U,2023.2.3,Win32,93.45794392525906,,,,,,2815.749300000012,336.0,6.0,2815.749300000012,336.0,,,,2819.318700000018,2819.814400000006,2818.810600000024,2819.318600000024,2816.749600000024,2818.8105,2819.8145000000004,2820.3146000000243,2820.3146000000243,2823.072100000024,2333.0,2823.072100000024,5.0,2823.0775000000003,6.0,27.0,207.0,21.0,1.0,1.0,0.3,Time
,,S31,1,女性,25,anonymized,Serial_Dependence_U,2023.2.3,Win32,93.45794392525906,,,,,,2823.0778000000123,205.0,6.0,2823.077900000006,205.0,,,,2826.6175000000003,2827.1105,2826.112200000018,2826.617400000006,2824.077300000012,2826.112200000018,2827.1105,2827.603200000018,2827.603300000012,2829.832600000024,1822.0,2829.832600000024,5.0,2829.838400000006,6.0,28.0,208.0,6.0,1.0,1.0,0.7,Time
,,S31,1,女性,25,anonymized,Serial_Dependence_U,2023.2.3,Win32,93.45794392525906,,,,,,2829.838700000018,190.0,6.0,2829.8388000000123,190.0,,,,2833.3880000000004,2833.882600000024,2832.8785000000003,2833.387900000006,2830.841200000018,2832.878400000006,2833.8827000000183,2834.381200000018,2834.381200000018,2837.1330000000003,2280.0,2837.1330000000003,5.0,2837.138400000006,6.0,29.0,209.0,26.0,1.0,1.0,0.7,Time
,,S31,1,女性,25,anonymized,Serial_Dependence_U,2023.2.3,Win32,93.45794392525906,,,,,,2837.138600000024,258.0,7.0,2858.208700000018,258.0,s,21.054900000006,,2862.3928000000124,2862.8923000000123,2861.8813000000123,2862.392700000018,2859.214600000024,2861.881200000018,2862.8923000000123,2863.392600000024,2863.392600000024,2866.8035000000004,2933.0,2866.8035000000004,5.0,2866.8087000000182,7.0,0.0,210.0,24.0,1.0,1.6,0.3,Time
,,S31,1,女性,25,anonymized,Serial_Dependence_U,2023.2.3,Win32,93.45794392525906,,,,,,2866.809,196.0,7.0,2866.809900000006,196.0,,,,2870.3593000000124,2870.858700000018,2869.847900000006,2870.359200000018,2867.815,2869.8478000000123,2870.8588000000123,2871.359200000018,2871.3593000000124,2874.325900000006,2699.0,2874.325900000006,5.0,2874.331100000024,7.0,1.0,211.0,26.0,1.0,1.0,0.7,Time
,,S31,1,女性,25,anonymized,Serial_Dependence_U,2023.2.3,Win32,93.45794392525906,,,,,,2874.331300000012,31.0,7.0,2874.3314000000064,31.0,,,,2878.0705000000003,2878.5702000000183,2877.559400000006,2878.070400000006,2875.326200000018,2877.559400000006,2878.570300000012,2879.0702000000183,2879.070300000012,2881.6482000000183,2255.0,2881.6482000000183,5.0,2881.652800000012,7.0,2.0,212.0,27.0,1.0,1.2,0.7,Time
,,S31,1,女性,25,anonymized,Serial_Dependence_U,2023.2.3,Win32,93.45794392525906,,,,,,2881.653100000024,33.0,7.0,2881.653200000018,33.0,,,,2885.6372000000183,2886.1369000000063,2885.126200000018,2885.6372000000183,2882.6592000000182,2885.126100000024,2886.137,2886.636800000012,2886.636800000012,2889.281300000012,2179.0,2889.281300000012,5.0,2889.2867000000183,7.0,3.0,213.0,13.0,1.0,1.4,0.3,Time
,,S31,1,女性,25,anonymized,Serial_Dependence_U,2023.2.3,Win32,93.45794392525906,,,,,,2889.286900000006,149.0,7.0,2889.2870000000003,149.0,,,,2893.059600000024,2893.559300000012,2892.548600000024,2893.0595000000003,2890.281700000018,2892.548600000024,2893.559400000006,2894.059300000012,2894.059400000006,2896.6815,2245.0,2896.681600000024,5.0,2896.686700000018,7.0,4.0,214.0,12.0,1.0,1.2,0.3,Time
,,S31,1,女性,25,anonymized,Serial_Dependence_U,2023.2.3,Win32,93.45794392525906,,,,,,2896.6870000000004,28.0,7.0,2896.6870000000004,28.0,,,,2900.637300000012,2901.137300000012,2900.126400000006,2900.637300000012,2897.6927000000182,2900.126400000006,2901.137300000012,2901.637,2901.637,2904.4700000000003,2432.0,2904.470100000024,5.0,2904.475200000018,7.0,5.0,215.0,28.0,1.0,1.4,0.7,Time
,,S31,1,女性,25,anonymized,Serial_Dependence_U,2023.2.3,Win32,93.45794392525906,,,,,,2904.4755,180.0,7.0,2904.475600000024,180.0,,,,2908.059700000018,2908.559200000018,2907.548600000024,2908.059600000024,2905.481600000024,2907.548600000024,2908.559200000018,2909.059300000012,2909.059300000012,2911.481100000024,2079.0,2911.481200000018,5.0,2911.4863000000123,7.0,6.0,216.0,11.0,1.0,1.0,0.3,Time
,,S31,1,女性,25,anonymized,Serial_Dependence_U,2023.2.3,Win32,93.45794392525906,,,,,,2911.489100000024,10.0,7.0,2911.489200000018,10.0,,,,2915.226,2915.7259000000063,2914.715,2915.226,2912.481700000018,2914.7149000000063,2915.7259000000063,2916.2259000000063,2916.2259000000063,2918.6259000000064,2066.0,2918.6259000000064,5.0,2918.631200000018,7.0,7.0,217.0,7.0,1.0,1.2,0.7,Time
,,S31,1,女性,25,anonymized,Serial_Dependence_U,2023.2.3,Win32,93.45794392525906,,,,,,2918.631400000006,78.0,7.0,2918.6315000000004,78.0,,,,2921.9815000000003,2922.481300000012,2921.470700000018,2921.981400000006,2919.6372000000183,2921.4705000000004,2922.481300000012,2922.9815000000003,2922.981600000024,2925.5924000000064,2255.0,2925.5924000000064,5.0,2925.597100000024,7.0,8.0,218.0,15.0,1.0,0.8,0.7,Time
,,S31,1,女性,25,anonymized,Serial_Dependence_U,2023.2.3,Win32,93.45794392525906,,,,,,2925.597400000006,144.0,7.0,2925.5975000000003,144.0,,,,2928.981700000018,2929.4815000000003,2928.472,2928.981600000024,2926.6037000000183,2928.4719000000064,2929.4815000000003,2929.981400000006,2929.9815000000003,2932.414700000018,2133.0,2932.414700000018,5.0,2932.420200000018,7.0,9.0,219.0,0.0,1.0,0.8,0.3,Time
,,S31,1,女性,25,anonymized,Serial_Dependence_U,2023.2.3,Win32,93.45794392525906,,,,,,2932.4204000000063,16.0,7.0,2932.420600000024,16.0,,,,2935.8039000000063,2936.303700000018,2935.293100000024,2935.8039000000063,2933.426100000024,2935.293,2936.303800000012,2936.803400000006,2936.803400000006,2939.559400000006,2233.0,2939.559400000006,5.0,2939.564400000006,7.0,10.0,220.0,20.0,1.0,0.8,0.3,Time
,,S31,1,女性,25,anonymized,Serial_Dependence_U,2023.2.3,Win32,93.45794392525906,,,,,,2939.5646000000243,248.0,7.0,2939.564700000018,248.0,,,,2943.5153000000123,2944.014700000018,2943.004100000024,2943.515200000018,2940.570700000018,2943.0040000000004,2944.014700000018,2944.514800000012,2944.514800000012,2947.092600000024,2144.0,2947.092700000018,5.0,2947.098600000024,7.0,11.0,221.0,8.0,1.0,1.4,0.7,Time
,,S31,1,女性,25,anonymized,Serial_Dependence_U,2023.2.3,Win32,93.45794392525906,,,,,,2947.0989000000063,252.0,7.0,2947.0989000000063,252.0,,,,2951.2374000000063,2951.737,2950.726300000012,2951.237300000012,2948.093200000018,2950.726300000012,2951.737,2952.237100000024,2952.237100000024,2954.892700000018,2313.0,2954.892700000018,5.0,2954.898,7.0,12.0,222.0,29.0,1.0,1.6,0.7,Time
,,S31,1,女性,25,anonymized,Serial_Dependence_U,2023.2.3,Win32,93.45794392525906,,,,,,2954.898300000012,46.0,7.0,2954.898400000006,46.0,,,,2958.470600000024,2958.9705000000004,2957.9595000000004,2958.470600000024,2955.893,2957.959400000006,2958.9705000000004,2959.470400000006,2959.470400000006,2961.7595,1933.0,2961.7595,5.0,2961.7650000000003,7.0,13.0,223.0,21.0,1.0,1.0,0.3,Time
,,S31,1,女性,25,anonymized,Serial_Dependence_U,2023.2.3,Win32,93.45794392525906,,,,,,2961.765200000018,290.0,7.0,2961.765400000006,290.0,,,,2965.548200000018,2966.048400000006,2965.0375000000004,2965.548100000024,2962.7705,2965.0375000000004,2966.048400000006,2966.548,2966.548200000018,2968.936800000012,1879.0,2968.936800000012,5.0,2968.942100000024,7.0,14.0,224.0,22.0,1.0,1.2,0.3,Time
,,S31,1,女性,25,anonymized,Serial_Dependence_U,2023.2.3,Win32,93.45794392525906,,,,,,2968.942300000012,60.0,7.0,2968.9424000000063,60.0,,,,2973.081800000012,2973.581700000018,2972.5710000000004,2973.081700000018,2969.9375,2972.5710000000004,2973.581700000018,2974.0814000000064,2974.0814000000064,2976.959100000024,2511.0,2976.959100000024,5.0,2976.964400000006,7.0,15.0,225.0,9.0,1.0,1.6,0.7,Time
,,S31,1,女性,25,anonymized,Serial_Dependence_U,2023.2.3,Win32,93.45794392525906,,,,,,2976.964700000018,109.0,7.0,2976.964700000018,109.0,,,,2980.314700000018,2980.8145000000004,2979.803700000018,2980.314700000018,2977.971300000012,2979.803700000018,2980.8145000000004,2981.314900000006,2981.315,2983.4815000000003,1422.0,2983.481600000024,5.0,2983.4865000000004,7.0,16.0,226.0,25.0,1.0,0.8,0.7,Time
,,S31,1,女性,25,anonymized,Serial_Dependence_U,2023.2.3,Win32,93.45794392525906,,,,,,2983.486700000018,82.0,7.0,2983.486800000012,82.0,,,,2987.6372000000183,2988.136800000012,2987.126200000018,2987.6372000000183,2984.493300000012,2987.126100000024,2988.136800000012,2988.636800000012,2988.6369000000063,2991.059100000024,2055.0,2991.059200000018,4.0,2991.064800000012,7.0,17.0,227.0,19.0,1.0,1.6,0.7,Time
,,S31,1,女性,25,anonymized,Serial_Dependence_U,2023.2.3,Win32,93.45794392525906,,,,,,2991.065,124.0,7.0,2991.065100000024,124.0,,,,2994.437100000024,2994.937100000024,2993.926100000024,2994.4370000000004,2992.059700000018,2993.9260000000004,2994.937100000024,2995.4370000000004,2995.437100000024,2997.537200000018,1778.0,2997.537300000012,5.0,2997.5423000000123,7.0,18.0,228.0,10.0,1.0,0.8,0.3,Time
,,S31,1,女性,25,anonymized,Serial_Dependence_U,2023.2.3,Win32,93.45794392525906,,,,,,2997.542600000024,32.0,7.0,2997.542600000024,32.0,,,,3001.126400000006,3001.625800000012,3000.615,3001.126300000012,2998.548400000006,3000.615,3001.625800000012,3002.126100000024,3002.126200000018,3004.592600000024,2100.0,3004.592600000024,5.0,3004.597700000018,7.0,19.0,229.0,1.0,1.0,1.0,0.3,Time
,,S31,1,女性,25,anonymized,Serial_Dependence_U,2023.2.3,Win32,93.45794392525906,,,,,,3004.5980000000004,348.0,7.0,3004.5981000000243,348.0,,,,3008.770700000018,3009.270600000024,3008.259800000012,3008.770700000018,3005.5930000000003,3008.2597000000183,3009.270600000024,3009.770600000024,3009.770600000024,3012.159300000012,1990.0,3012.159300000012,4.0,3012.164900000006,7.0,20.0,230.0,4.0,1.0,1.6,0.3,Time
,,S31,1,女性,25,anonymized,Serial_Dependence_U,2023.2.3,Win32,93.45794392525906,,,,,,3012.1651000000243,255.0,7.0,3012.165200000018,255.0,,,,3015.9485000000004,3016.448100000024,3015.4373000000123,3015.9485000000004,3013.170900000006,3015.4373000000123,3016.448100000024,3016.948400000006,3016.948400000006,3019.470200000018,2165.0,3019.470300000012,5.0,3019.475700000018,7.0,21.0,231.0,2.0,1.0,1.2,0.3,Time
,,S31,1,女性,25,anonymized,Serial_Dependence_U,2023.2.3,Win32,93.45794392525906,,,,,,3019.476,209.0,7.0,3019.476100000024,209.0,,,,3023.46,3023.9593000000123,3022.9489000000062,3023.459800000012,3020.4818000000123,3022.948700000018,3023.9593000000123,3024.459400000006,3024.459400000006,3027.259300000012,2400.0,3027.259300000012,5.0,3027.264700000018,7.0,22.0,232.0,3.0,1.0,1.4,0.3,Time
,,S31,1,女性,25,anonymized,Serial_Dependence_U,2023.2.3,Win32,93.45794392525906,,,,,,3027.2650000000003,94.0,7.0,3027.265100000024,94.0,,,,3031.215400000006,3031.714700000018,3030.703800000012,3031.215400000006,3028.2705,3030.703700000018,3031.714700000018,3032.2149000000063,3032.215,3035.059400000006,2356.0,3035.0595000000003,5.0,3035.065200000018,7.0,23.0,233.0,18.0,1.0,1.4,0.7,Time
,,S31,1,女性,25,anonymized,Serial_Dependence_U,2023.2.3,Win32,93.45794392525906,,,,,,3035.0655,310.0,7.0,3035.065600000024,310.0,,,,3038.404,3038.9035000000003,3037.892700000018,3038.404,3036.059700000018,3037.892600000024,3038.9035000000003,3039.4038000000123,3039.4038000000123,3042.471100000024,2547.0,3042.471200000018,5.0,3042.4765,7.0,24.0,234.0,5.0,1.0,0.8,0.7,Time
,,S31,1,女性,25,anonymized,Serial_Dependence_U,2023.2.3,Win32,93.45794392525906,,,,,,3042.476700000018,205.0,7.0,3042.476800000012,205.0,,,,3046.448200000018,3046.947900000006,3045.9375,3046.448100000024,3043.4705000000004,3045.9375,3046.947900000006,3047.447800000012,3047.447800000012,3050.0370000000003,2067.0,3050.037100000024,5.0,3050.042400000006,7.0,25.0,235.0,23.0,1.0,1.4,0.3,Time
,,S31,1,女性,25,anonymized,Serial_Dependence_U,2023.2.3,Win32,93.45794392525906,,,,,,3050.042700000018,11.0,7.0,3050.042700000018,11.0,,,,3053.582600000024,3054.081700000018,3053.071200000018,3053.5825000000004,3051.0378000000123,3053.071100000024,3054.081700000018,3054.581800000012,3054.581900000006,3056.6040000000003,1966.0,3056.6040000000003,5.0,3056.610900000006,7.0,26.0,236.0,6.0,1.0,1.0,0.7,Time
,,S31,1,女性,25,anonymized,Serial_Dependence_U,2023.2.3,Win32,93.45794392525906,,,,,,3056.611100000024,346.0,7.0,3056.611200000018,346.0,,,,3060.782100000024,3061.282100000024,3060.271,3060.782,3057.604900000006,3060.271,3061.282100000024,3061.7822000000183,3061.7822000000183,3065.5040000000004,2899.0,3065.5040000000004,5.0,3065.509200000018,7.0,27.0,237.0,14.0,1.0,1.6,0.3,Time
,,S31,1,女性,25,anonymized,Serial_Dependence_U,2023.2.3,Win32,93.45794392525906,,,,,,3065.5094000000063,282.0,7.0,3065.5095,282.0,,,,3069.260600000024,3069.759600000024,3068.749100000024,3069.260400000006,3066.515400000006,3068.748900000006,3069.759600000024,3070.2594000000063,3070.2594000000063,3072.9375,2235.0,3072.9375,5.0,3072.943,7.0,28.0,238.0,17.0,1.0,1.2,0.7,Time
,,S31,1,女性,25,anonymized,Serial_Dependence_U,2023.2.3,Win32,93.45794392525906,,,,,,3072.943300000012,131.0,7.0,3072.943300000012,131.0,,,,3076.493300000012,3076.9930000000004,3075.9824000000062,3076.493300000012,3073.950600000024,3075.982300000012,3076.993100000024,3077.492700000018,3077.4928000000123,3079.748300000012,1866.0,3079.7484000000063,5.0,3079.753600000024,7.0,29.0,239.0,16.0,1.0,1.0,0.7,Time
,,S31,1,女性,25,anonymized,Serial_Dependence_U,2023.2.3,Win32,93.45794392525906,,,,,,3079.753900000006,215.0,8.0,3087.898600000024,215.0,s,8.127199999988079,,3092.0823000000123,3092.581600000024,3091.5713000000123,3092.0823000000123,3088.9044000000063,3091.571200000018,3092.581600000024,3093.081900000006,3093.081900000006,3095.825900000006,2689.0,3095.825900000006,5.0,3095.8320000000003,8.0,0.0,240.0,14.0,1.0,1.6,0.3,Time
,,S31,1,女性,25,anonymized,Serial_Dependence_U,2023.2.3,Win32,93.45794392525906,,,,,,3095.8323000000123,84.0,8.0,3095.833200000018,84.0,,,,3099.370800000012,3099.871300000012,3098.86,3099.370800000012,3096.8265,3098.8599000000063,3099.871300000012,3100.3705,3100.370600000024,3102.448200000018,2000.0,3102.448200000018,5.0,3102.4535,8.0,1.0,241.0,6.0,1.0,1.0,0.7,Time
,,S31,1,女性,25,anonymized,Serial_Dependence_U,2023.2.3,Win32,93.45794392525906,,,,,,3102.453700000018,200.0,8.0,3102.453800000012,200.0,,,,3105.8377000000182,3106.337300000012,3105.3269000000064,3105.8375,3103.460300000012,3105.3269000000064,3106.337300000012,3106.8377000000182,3106.8377000000182,3108.826200000018,1601.0,3108.826200000018,5.0,3108.8315,8.0,2.0,242.0,20.0,1.0,0.8,0.3,Time
,,S31,1,女性,25,anonymized,Serial_Dependence_U,2023.2.3,Win32,93.45794392525906,,,,,,3108.831700000018,318.0,8.0,3108.831800000012,318.0,,,,3112.604600000024,3113.1045000000004,3112.104100000024,3112.6045000000004,3109.837800000012,3112.1040000000003,3113.1045000000004,3113.604100000024,3113.604100000024,3116.4370000000004,2510.0,3116.4370000000004,5.0,3116.442100000024,8.0,3.0,243.0,2.0,1.0,1.2,0.3,Time
,,S31,1,女性,25,anonymized,Serial_Dependence_U,2023.2.3,Win32,93.45794392525906,,,,,,3116.442300000012,283.0,8.0,3116.4424000000063,283.0,,,,3120.626400000006,3121.126,3120.115700000018,3120.626300000012,3117.449100000024,3120.115600000024,3121.126,3121.6265000000003,3121.626600000024,3124.648300000012,2587.0,3124.648400000006,5.0,3124.6538000000123,8.0,4.0,244.0,4.0,1.0,1.6,0.3,Time
,,S31,1,女性,25,anonymized,Serial_Dependence_U,2023.2.3,Win32,93.45794392525906,,,,,,3124.654100000024,10.0,8.0,3124.654100000024,10.0,,,,3128.7935,3129.292800000012,3128.282800000012,3128.7934000000064,3125.649200000018,3128.282700000018,3129.292800000012,3129.793100000024,3129.7932000000183,3132.303800000012,2178.0,3132.303800000012,5.0,3132.3087000000182,8.0,5.0,245.0,19.0,1.0,1.6,0.7,Time
,,S31,1,女性,25,anonymized,Serial_Dependence_U,2023.2.3,Win32,93.45794392525906,,,,,,3132.309,180.0,8.0,3132.309100000024,180.0,,,,3136.057900000006,3136.556200000018,3135.5460000000003,3136.057700000018,3133.307300000012,3135.5460000000003,3136.556300000012,3137.055600000024,3137.055600000024,3139.469,2066.0,3139.469,5.0,3139.474600000024,8.0,6.0,246.0,7.0,1.0,1.2,0.7,Time
,,S31,1,女性,25,anonymized,Serial_Dependence_U,2023.2.3,Win32,93.45794392525906,,,,,,3139.474800000012,205.0,8.0,3139.474900000006,205.0,,,,3143.2217000000182,3143.7230000000004,3142.712600000024,3143.2217000000182,3140.478600000024,3142.7124000000063,3143.7230000000004,3144.215400000006,3144.2155,3146.2307000000183,1957.0,3146.2307000000183,5.0,3146.235800000012,8.0,7.0,247.0,27.0,1.0,1.2,0.7,Time
,,S31,1,女性,25,anonymized,Serial_Dependence_U,2023.2.3,Win32,93.45794392525906,,,,,,3146.2360000000003,268.0,8.0,3146.2360000000003,268.0,,,,3149.789400000006,3150.287600000024,3149.278900000006,3149.789200000018,3147.2465,3149.278700000018,3150.287600000024,3150.789100000024,3150.789100000024,3153.213100000024,2090.0,3153.213200000018,5.0,3153.219,8.0,8.0,248.0,26.0,1.0,1.0,0.7,Time
,,S31,1,女性,25,anonymized,Serial_Dependence_U,2023.2.3,Win32,93.45794392525906,,,,,,3153.219200000018,67.0,8.0,3153.219200000018,67.0,,,,3156.5668000000123,3157.061400000006,3156.0567000000183,3156.5668000000123,3154.222400000006,3156.0567000000183,3157.0615000000003,3157.5598000000123,3157.559900000006,3160.179300000012,2302.0,3160.1794000000064,5.0,3160.185100000024,8.0,9.0,249.0,15.0,1.0,0.8,0.7,Time
,,S31,1,女性,25,anonymized,Serial_Dependence_U,2023.2.3,Win32,93.45794392525906,,,,,,3160.185300000012,311.0,8.0,3160.185400000006,311.0,,,,3163.7678000000124,3164.2599000000064,3163.257200000018,3163.767700000018,3161.189100000024,3163.257100000024,3164.2599000000064,3164.7595,3164.7595,3166.770700000018,1678.0,3166.770800000012,5.0,3166.776700000018,8.0,10.0,250.0,1.0,1.0,1.0,0.3,Time
,,S31,1,女性,25,anonymized,Serial_Dependence_U,2023.2.3,Win32,93.45794392525906,,,,,,3166.777,163.0,8.0,3166.777,163.0,,,,3170.7152000000183,3171.215,3170.204700000018,3170.7152000000183,3167.7715000000003,3170.204600000024,3171.215,3171.715700000018,3171.715800000012,3174.293,2289.0,3174.293100000024,5.0,3174.298,8.0,11.0,251.0,18.0,1.0,1.4,0.7,Time
,,S31,1,女性,25,anonymized,Serial_Dependence_U,2023.2.3,Win32,93.45794392525906,,,,,,3174.298200000018,355.0,8.0,3174.298300000012,355.0,,,,3178.082200000018,3178.5820000000003,3177.5710000000004,3178.082100000024,3175.304300000012,3177.5710000000004,3178.5820000000003,3179.082600000024,3179.082600000024,3181.6149000000064,2156.0,3181.6149000000064,5.0,3181.6205,8.0,12.0,252.0,22.0,1.0,1.2,0.3,Time
,,S31,1,女性,25,anonymized,Serial_Dependence_U,2023.2.3,Win32,93.45794392525906,,,,,,3181.620700000018,20.0,8.0,3181.620800000012,20.0,,,,3185.004400000006,3185.504200000018,3184.493300000012,3185.0043000000123,3182.6268000000123,3184.493200000018,3185.504200000018,3186.004400000006,3186.0045,3188.637400000006,2256.0,3188.6375000000003,5.0,3188.642400000006,8.0,13.0,253.0,10.0,1.0,0.8,0.3,Time
,,S31,1,女性,25,anonymized,Serial_Dependence_U,2023.2.3,Win32,93.45794392525906,,,,,,3188.642600000024,308.0,8.0,3188.642700000018,308.0,,,,3191.971600000024,3192.471,3191.471,3191.9715,3189.638200000018,3191.4708000000123,3192.471,3192.971200000018,3192.971200000018,3195.648400000006,2089.0,3195.648400000006,5.0,3195.6538000000123,8.0,14.0,254.0,25.0,1.0,0.8,0.7,Time
,,S31,1,女性,25,anonymized,Serial_Dependence_U,2023.2.3,Win32,93.45794392525906,,,,,,3195.654,61.0,8.0,3195.654100000024,61.0,,,,3199.8045,3200.304300000012,3199.293700000018,3199.8045,3196.660200000018,3199.293600000024,3200.304300000012,3200.804200000018,3200.804200000018,3204.070700000018,2746.0,3204.070700000018,5.0,3204.076100000024,8.0,15.0,255.0,9.0,1.0,1.6,0.7,Time
,,S31,1,女性,25,anonymized,Serial_Dependence_U,2023.2.3,Win32,93.45794392525906,,,,,,3204.0764000000063,214.0,8.0,3204.0765,214.0,,,,3208.015800000012,3208.515200000018,3207.515400000006,3208.015800000012,3205.082600000024,3207.515400000006,3208.515200000018,3209.015100000024,3209.015200000018,3211.7374000000063,2291.0,3211.737600000024,5.0,3211.743400000006,8.0,16.0,256.0,8.0,1.0,1.4,0.7,Time
,,S31,1,女性,25,anonymized,Serial_Dependence_U,2023.2.3,Win32,93.45794392525906,,,,,,3211.743700000018,246.0,8.0,3211.743800000012,246.0,,,,3215.715900000006,3216.215400000006,3215.205100000024,3215.715900000006,3212.7383000000123,3215.2050000000004,3216.2155,3216.7152000000183,3216.715400000006,3219.2374000000063,2088.0,3219.2374000000063,5.0,3219.2435,8.0,17.0,257.0,23.0,1.0,1.4,0.3,Time
