Scale_setup.started,Scale_setup.stopped,participant,session,sex,age,date,expName,psychopyVersion,OS,frameRate,Intro.started,Intro.stopped,key_resp_2.keys,key_resp_2.rt,key_resp_2.duration,block.started,direction,Block_id,block.stopped,trial_direction,Block_resp_2.keys,Block_resp_2.rt,Block_resp_2.duration,ITI.started,ITI.stopped,Mask_2.started,Mask_2.stopped,encoding.started,encoding.stopped,Cue.started,Cue.stopped,Response.started,Response.stopped,keyDuration,Feedback_Time.started,FeedbackID_T,Feedback_Time.stopped,trials.thisRepN,trials.thisTrialN,trials.thisN,trials.thisIndex,trials.ran,TimeDur,Coherence1,TrialType
0.0004999999999881,0.0009000000953562,S35,1,女,25,anonymized,Serial_Dependence_U,2023.2.3,Win32,60.24096385550618,,,,,,,,,,,,,,,,,,,,,,,,,,,,,,,,,,,
,,S35,1,女,25,anonymized,Serial_Dependence_U,2023.2.3,Win32,60.24096385550618,615.979,702.4988000001907,space,86.46980000019073,,,,,,,,,,,,,,,,,,,,,,,,,,,,,,,
,,S35,1,女,25,anonymized,Serial_Dependence_U,2023.2.3,Win32,60.24096385550618,,,,,,702.5215,355.0,0.0,739.4011000003815,355.0,s,36.84450000000004,,742.8012000002861,743.3014000000953,742.2851000003815,742.801,740.4183000001907,742.2848000001908,743.3021000003814,743.800700000286,743.801,861.2824000000952,192.0,861.2828000001906,1.0,862.2778000001907,0.0,0.0,0.0,0.0,1.0,0.8,0.3,Time
,,S35,1,女,25,anonymized,Serial_Dependence_U,2023.2.3,Win32,60.24096385550618,,,,,,862.2794000000953,283.0,0.0,862.2827000002859,283.0,,,,866.4284999999999,866.9274999999999,865.9119000000952,866.4283000001907,863.2784999999998,865.9118000001905,866.9278000001906,867.4274000000952,867.4274999999999,870.8109000000953,173.0,870.8111000003813,1.0,871.8103000001905,0.0,1.0,1.0,19.0,1.0,1.6,0.7,Time
,,S35,1,女,25,anonymized,Serial_Dependence_U,2023.2.3,Win32,60.24096385550618,,,,,,871.8111000003813,204.0,0.0,871.8113000001907,204.0,,,,875.561200000286,876.0601000003813,875.045200000286,875.5611000003813,872.812200000286,875.045,876.0601000003813,876.5604000000952,876.5606000003814,881.7281000003815,129.0,881.7282000002859,1.0,882.7266000003814,0.0,2.0,2.0,27.0,1.0,1.2,0.7,Time
,,S35,1,女,25,anonymized,Serial_Dependence_U,2023.2.3,Win32,60.24096385550618,,,,,,882.7271000003813,344.0,0.0,882.7274999999998,344.0,,,,886.6948000001906,887.1939999999998,886.1779999999998,886.6945,883.7447000002859,886.1778000001906,887.1941000003814,887.6931000003814,887.6932000002861,892.4274000000952,183.0,892.4274999999999,1.0,893.4267000002859,0.0,3.0,3.0,28.0,1.0,1.4,0.7,Time
,,S35,1,女,25,anonymized,Serial_Dependence_U,2023.2.3,Win32,60.24096385550618,,,,,,893.4273000001907,90.0,0.0,893.4277000002859,90.0,,,,897.178200000286,897.6761000003813,896.661700000286,897.1781000003813,894.4284999999999,896.6614999999998,897.676200000286,898.1768000001906,898.1769999999998,901.6099999999998,156.0,901.6101000003812,1.0,902.6096000003814,0.0,4.0,4.0,17.0,1.0,1.2,0.7,Time
,,S35,1,女,25,anonymized,Serial_Dependence_U,2023.2.3,Win32,60.24096385550618,,,,,,902.6104000000952,204.0,0.0,902.6106000003814,204.0,,,,906.5609000000952,907.059700000286,906.044200000286,906.5608000001906,903.6111000003812,906.0441000003811,907.059700000286,907.5596000003812,907.5596000003812,909.1769000000952,142.0,909.1769999999998,1.0,910.1766000003814,0.0,5.0,5.0,8.0,1.0,1.4,0.7,Time
,,S35,1,女,25,anonymized,Serial_Dependence_U,2023.2.3,Win32,60.24096385550618,,,,,,910.177200000286,138.0,0.0,910.1778000001906,138.0,,,,913.5434000000952,914.0429000000952,913.0276000003812,913.5433000001908,911.1944000000952,913.0273000001906,914.0431000003812,914.543200000286,914.5434000000952,917.8769999999998,115.0,917.8771000003812,1.0,918.8773000001904,0.0,6.0,6.0,25.0,1.0,0.8,0.7,Time
,,S35,1,女,25,anonymized,Serial_Dependence_U,2023.2.3,Win32,60.24096385550618,,,,,,918.8778000001906,183.0,0.0,918.878200000286,183.0,,,,922.643200000286,923.1426000003812,922.1273000001904,922.643200000286,919.8938000001908,922.1269999999998,923.142700000286,923.642700000286,923.6428000001904,925.0273000001906,94.0,925.0274999999998,1.0,926.0264999999998,0.0,7.0,7.0,7.0,1.0,1.2,0.7,Time
,,S35,1,女,25,anonymized,Serial_Dependence_U,2023.2.3,Win32,60.24096385550618,,,,,,926.027200000286,111.0,0.0,926.0274999999998,111.0,,,,929.3948000001908,929.8929000000952,928.8933000001906,929.3946000003812,927.0274999999998,928.893200000286,929.8929000000952,930.3928000001904,930.3928000001904,932.1264000000951,83.0,932.1265,1.0,933.1271000003812,0.0,8.0,8.0,10.0,1.0,0.8,0.3,Time
,,S35,1,女,25,anonymized,Serial_Dependence_U,2023.2.3,Win32,60.24096385550618,,,,,,933.1278000001906,0.0,0.0,933.1283000001904,0.0,,,,937.1276000003814,937.6261000003814,936.6101000003812,937.1275,934.144200000286,936.6099999999998,937.626200000286,938.126200000286,938.1266000003812,939.7428000001906,159.0,939.7431000003812,1.0,940.7424000000952,0.0,9.0,9.0,23.0,1.0,1.4,0.3,Time
,,S35,1,女,25,anonymized,Serial_Dependence_U,2023.2.3,Win32,60.24096385550618,,,,,,940.7433000001904,314.0,0.0,940.7436000003814,314.0,,,,944.909700000286,945.409200000286,944.394,944.9096000003814,941.76,944.3936000003812,945.409200000286,945.909,945.909,946.9931000003812,107.0,946.993200000286,1.0,947.993200000286,0.0,10.0,10.0,29.0,1.0,1.6,0.7,Time
,,S35,1,女,25,anonymized,Serial_Dependence_U,2023.2.3,Win32,60.24096385550618,,,,,,947.9939000000952,48.0,0.0,947.994200000286,48.0,,,,952.193200000286,952.6921000003814,951.676700000286,952.193,949.0111000003814,951.6764000000952,952.6921000003814,953.1928000001908,953.1928000001908,955.043200000286,130.0,955.0433000001908,1.0,956.0428000001906,0.0,11.0,11.0,4.0,1.0,1.6,0.3,Time
,,S35,1,女,25,anonymized,Serial_Dependence_U,2023.2.3,Win32,60.24096385550618,,,,,,956.0434000000952,101.0,0.0,956.044,101.0,,,,959.610200000286,960.1089000000952,959.0936000003812,959.6099000000952,957.0603000001904,959.0934999999998,960.1089999999998,960.6093000001908,960.6094000000952,963.8593000001908,120.0,963.8593000001908,1.0,964.858700000286,0.0,12.0,12.0,6.0,1.0,1.0,0.7,Time
,,S35,1,女,25,anonymized,Serial_Dependence_U,2023.2.3,Win32,60.24096385550618,,,,,,964.859700000286,174.0,0.0,964.8599999999998,174.0,,,,968.2265,968.7255,967.7098000001904,968.2263000001908,965.876700000286,967.709700000286,968.7255,969.2258000001906,969.2259000000952,973.5925,67.0,973.5926000003814,1.0,974.5915,0.0,13.0,13.0,15.0,1.0,0.8,0.7,Time
,,S35,1,女,25,anonymized,Serial_Dependence_U,2023.2.3,Win32,60.24096385550618,,,,,,974.5918000001906,177.0,0.0,974.592,177.0,,,,978.3933000001906,978.8916000003812,977.876,978.393200000286,975.6101000003812,977.8759000000952,978.8916000003812,979.3923000001906,979.3924000000952,980.6424999999998,37.0,980.6426000003812,1.0,981.6416000003812,0.0,14.0,14.0,22.0,1.0,1.2,0.3,Time
,,S35,1,女,25,anonymized,Serial_Dependence_U,2023.2.3,Win32,60.24096385550618,,,,,,981.6424000000952,105.0,0.0,981.6424999999998,105.0,,,,985.6089000000952,986.1081000003812,985.0926000003814,985.6088000001906,982.6596000003814,985.0925,986.108200000286,986.6088000001906,986.6089999999998,988.5423000001908,128.0,988.5424000000952,1.0,989.542200000286,0.0,15.0,15.0,18.0,1.0,1.4,0.7,Time
,,S35,1,女,25,anonymized,Serial_Dependence_U,2023.2.3,Win32,60.24096385550618,,,,,,989.5429000000952,70.0,0.0,989.5434000000952,70.0,,,,993.726700000286,994.2248000001906,993.2094000000952,993.7266000003814,990.5431000003812,993.2093000001906,994.2249000000952,994.7248000001906,994.7249000000952,995.6085,134.0,995.6086000003814,1.0,996.6081000003812,0.0,16.0,16.0,14.0,1.0,1.6,0.3,Time
,,S35,1,女,25,anonymized,Serial_Dependence_U,2023.2.3,Win32,60.24096385550618,,,,,,996.608700000286,292.0,0.0,996.6089000000952,292.0,,,,1000.775200000286,1001.2748000001906,1000.259200000286,1000.775,997.6259000000952,1000.2591000003814,1001.2749000000952,1001.775,1001.7751000003811,1003.775700000286,117.0,1003.7759000000952,1.0,1004.7744000000952,0.0,17.0,17.0,9.0,1.0,1.6,0.7,Time
,,S35,1,女,25,anonymized,Serial_Dependence_U,2023.2.3,Win32,60.24096385550618,,,,,,1004.7749000000952,306.0,0.0,1004.7751000003811,306.0,,,,1008.1258000001908,1008.6249000000952,1007.609700000286,1008.125700000286,1005.7764000000954,1007.6096000003814,1008.625,1009.1249000000952,1009.1249000000952,1010.6916000003812,107.0,1010.691700000286,1.0,1011.6914000000952,0.0,18.0,18.0,5.0,1.0,0.8,0.7,Time
,,S35,1,女,25,anonymized,Serial_Dependence_U,2023.2.3,Win32,60.24096385550618,,,,,,1011.692200000286,193.0,0.0,1011.692700000286,193.0,,,,1015.243700000286,1015.7409000000952,1014.742200000286,1015.2435,1012.7094999999998,1014.7421000003814,1015.7409000000952,1016.2423000001904,1016.2424000000952,1017.0084999999998,154.0,1017.0086000003812,1.0,1018.0084999999998,0.0,19.0,19.0,16.0,1.0,1.0,0.7,Time
,,S35,1,女,25,anonymized,Serial_Dependence_U,2023.2.3,Win32,60.24096385550618,,,,,,1018.0091000003814,338.0,0.0,1018.0096000003812,338.0,,,,1021.592200000286,1022.0908000001906,1021.075200000286,1021.592,1019.0089000000952,1021.0751000003814,1022.0908000001906,1022.591700000286,1022.591700000286,1023.4919999999998,176.0,1023.4921000003814,1.0,1024.4919000000953,0.0,20.0,20.0,11.0,1.0,1.0,0.3,Time
,,S35,1,女,25,anonymized,Serial_Dependence_U,2023.2.3,Win32,60.24096385550618,,,,,,1024.4925,287.0,0.0,1024.4929000000957,287.0,,,,1028.0754000000954,1028.575700000286,1027.5584000000954,1028.075200000286,1025.492,1027.558300000191,1028.5758000001908,1029.0743000001908,1029.0743000001908,1033.765800000191,208.0,1033.7659000000954,1.0,1034.7648000001907,0.0,21.0,21.0,21.0,1.0,1.0,0.3,Time
,,S35,1,女,25,anonymized,Serial_Dependence_U,2023.2.3,Win32,60.24096385550618,,,,,,1034.765200000286,300.0,0.0,1034.7655,300.0,,,,1038.749,1039.2449000000954,1038.2318000001908,1038.749,1035.764200000286,1038.231700000286,1039.245,1039.745,1039.7451000003814,1041.3346000003814,185.0,1041.334700000286,1.0,1042.3321000003814,0.0,22.0,22.0,13.0,1.0,1.4,0.3,Time
,,S35,1,女,25,anonymized,Serial_Dependence_U,2023.2.3,Win32,60.24096385550618,,,,,,1042.3325,144.0,0.0,1042.3327000002862,144.0,,,,1046.528700000286,1047.028700000286,1046.0174000000954,1046.5285,1043.3496000003815,1046.0173000001907,1047.028700000286,1047.527900000095,1047.528,1048.2833000001908,150.0,1048.2834000000953,1.0,1049.2813000001906,0.0,23.0,23.0,24.0,1.0,1.6,0.3,Time
,,S35,1,女,25,anonymized,Serial_Dependence_U,2023.2.3,Win32,60.24096385550618,,,,,,1049.2819000000954,109.0,0.0,1049.2821000003814,109.0,,,,1052.8296000003816,1053.330700000286,1052.316,1052.8294000000951,1050.2821000003814,1052.315900000095,1053.330700000286,1053.8313000001908,1053.8314000000953,1056.4996000003814,166.0,1056.499700000286,1.0,1057.4951000003814,0.0,24.0,24.0,26.0,1.0,1.0,0.7,Time
,,S35,1,女,25,anonymized,Serial_Dependence_U,2023.2.3,Win32,60.24096385550618,,,,,,1057.4963000001908,189.0,0.0,1057.4967000002862,189.0,,,,1061.283,1061.778200000286,1060.766200000286,1061.282700000286,1058.4991000003815,1060.766,1061.778200000286,1062.2806000003814,1062.280700000286,1064.2124000000954,103.0,1064.2125,1.0,1065.214700000286,0.0,25.0,25.0,12.0,1.0,1.2,0.3,Time
,,S35,1,女,25,anonymized,Serial_Dependence_U,2023.2.3,Win32,60.24096385550618,,,,,,1065.215200000286,159.0,0.0,1065.2159000000954,159.0,,,,1068.5995,1069.097700000286,1068.0823000001908,1068.5993000001906,1066.2149000000954,1068.082200000286,1069.097700000286,1069.595200000286,1069.5953000001907,1071.1336000003814,118.0,1071.1338000001908,1.0,1072.1315,0.0,26.0,26.0,20.0,1.0,0.8,0.3,Time
,,S35,1,女,25,anonymized,Serial_Dependence_U,2023.2.3,Win32,60.24096385550618,,,,,,1072.1325,49.0,0.0,1072.132900000095,49.0,,,,1075.9335,1076.4284000000953,1075.4152000002862,1075.933300000191,1073.1488000001907,1075.4151000003817,1076.4284000000953,1076.9311000003815,1076.931200000286,1079.2159000000954,160.0,1079.2161000003814,1.0,1080.2109000000953,0.0,27.0,27.0,2.0,1.0,1.2,0.3,Time
,,S35,1,女,25,anonymized,Serial_Dependence_U,2023.2.3,Win32,60.24096385550618,,,,,,1080.2118000001908,57.0,0.0,1080.2125,57.0,,,,1084.1985,1084.697200000286,1083.6823000001907,1084.1984000000953,1081.2164000000953,1083.682,1084.697200000286,1085.1976000003815,1085.1977000002862,1087.4481000003814,149.0,1087.4483000001908,1.0,1088.4479000000954,0.0,28.0,28.0,3.0,1.0,1.4,0.3,Time
,,S35,1,女,25,anonymized,Serial_Dependence_U,2023.2.3,Win32,60.24096385550618,,,,,,1088.4483000001908,246.0,0.0,1088.4485,246.0,,,,1092.0315,1092.5301000003817,1091.5151000003814,1092.0313000001906,1089.4489000000954,1091.515,1092.5302000002862,1093.0301000003817,1093.0301000003817,1095.6391000003814,115.0,1095.6391000003814,1.0,1096.6391000003814,0.0,29.0,29.0,1.0,1.0,1.0,0.3,Time
,,S35,1,女,25,anonymized,Serial_Dependence_U,2023.2.3,Win32,60.24096385550618,,,,,,1096.6394000000953,21.0,1.0,1105.468200000286,21.0,s,8.7935999999047,,1109.057,1109.556200000286,1108.540700000286,1109.056700000286,1106.4736000003816,1108.5405,1109.556200000286,1110.0568000001908,1110.057,1111.8579000000957,145.0,1111.8583000001906,1.0,1111.8688000001907,1.0,0.0,30.0,1.0,1.0,1.0,0.3,Time
,,S35,1,女,25,anonymized,Serial_Dependence_U,2023.2.3,Win32,60.24096385550618,,,,,,1111.869200000286,152.0,1.0,1111.8715,152.0,,,,1116.0406000003816,1116.5398000001908,1115.5247000002862,1116.0404000000954,1112.891,1115.5245,1116.5399000000953,1117.0399000000953,1117.0399000000953,1118.757700000286,132.0,1118.758,1.0,1118.7684000000954,1.0,1.0,31.0,9.0,1.0,1.6,0.7,Time
,,S35,1,女,25,anonymized,Serial_Dependence_U,2023.2.3,Win32,60.24096385550618,,,,,,1118.7688000001908,173.0,1.0,1118.769,173.0,,,,1122.9736000003816,1123.4735,1122.458,1122.9736000003816,1119.7913000001906,1122.4573000001908,1123.4735,1123.9745,1123.9745,1125.590200000286,151.0,1125.590400000095,1.0,1125.6005,1.0,2.0,32.0,4.0,1.0,1.6,0.3,Time
,,S35,1,女,25,anonymized,Serial_Dependence_U,2023.2.3,Win32,60.24096385550618,,,,,,1125.6009000000954,1.0,1.0,1125.601,1.0,,,,1129.757200000286,1130.2565,1129.2408000001908,1129.757,1126.607,1129.2406000003814,1130.2566000003817,1130.7557000002862,1130.755800000191,1132.0401000003817,164.0,1132.0403000001909,1.0,1132.0502000002862,1.0,3.0,33.0,19.0,1.0,1.6,0.7,Time
,,S35,1,女,25,anonymized,Serial_Dependence_U,2023.2.3,Win32,60.24096385550618,,,,,,1132.0506000003816,25.0,1.0,1132.050700000286,25.0,,,,1135.4075,1135.9056000003814,1134.8909000000954,1135.4073000001906,1133.0573000001907,1134.8907000002862,1135.905700000286,1136.4061000003817,1136.4062000002862,1137.4735,147.0,1137.4738000001907,1.0,1137.4831000003817,1.0,4.0,34.0,5.0,1.0,0.8,0.7,Time
,,S35,1,女,25,anonymized,Serial_Dependence_U,2023.2.3,Win32,60.24096385550618,,,,,,1137.4835,166.0,1.0,1137.483700000286,166.0,,,,1141.0412000002862,1141.5389000000953,1140.5241000003814,1141.041,1138.490700000286,1140.5239000000954,1141.539,1142.04,1142.04,1144.0564000000954,117.0,1144.0565,1.0,1144.0661000003815,1.0,5.0,35.0,6.0,1.0,1.0,0.7,Time
,,S35,1,女,25,anonymized,Serial_Dependence_U,2023.2.3,Win32,60.24096385550618,,,,,,1144.0665,54.0,1.0,1144.0666000003814,54.0,,,,1148.0244000000953,1148.522700000286,1147.507200000286,1148.0243000001908,1145.0743000001908,1147.5068000001909,1148.5228000001907,1149.0229000000954,1149.023,1150.04,160.0,1150.0403000001909,1.0,1150.051,1.0,6.0,36.0,8.0,1.0,1.4,0.7,Time
,,S35,1,女,25,anonymized,Serial_Dependence_U,2023.2.3,Win32,60.24096385550618,,,,,,1150.051400000095,27.0,1.0,1150.0516000003815,27.0,,,,1153.4405,1153.9391000003814,1152.9253000001906,1153.4405,1151.057200000286,1152.9251000003817,1153.9391000003814,1154.4398000001906,1154.4398000001906,1156.273200000286,163.0,1156.273200000286,1.0,1156.2835,1.0,7.0,37.0,0.0,1.0,0.8,0.3,Time
,,S35,1,女,25,anonymized,Serial_Dependence_U,2023.2.3,Win32,60.24096385550618,,,,,,1156.284,38.0,1.0,1156.2841000003814,38.0,,,,1159.6228000001906,1160.1224000000957,1159.1074000000954,1159.6226000003817,1157.2736000003815,1159.107300000191,1160.1224000000957,1160.6231000003816,1160.623200000286,1162.6731000003815,118.0,1162.6733000001907,1.0,1162.6842000002862,1.0,8.0,38.0,15.0,1.0,0.8,0.7,Time
,,S35,1,女,25,anonymized,Serial_Dependence_U,2023.2.3,Win32,60.24096385550618,,,,,,1162.6845,83.0,1.0,1162.6848000001908,83.0,,,,1166.4733000001906,1166.9724000000954,1165.9574000000953,1166.4731000003817,1163.6901000003816,1165.956700000286,1166.9725,1167.4724000000954,1167.4724000000954,1168.5727000002862,164.0,1168.5729000000954,1.0,1168.5826000003815,1.0,9.0,39.0,22.0,1.0,1.2,0.3,Time
,,S35,1,女,25,anonymized,Serial_Dependence_U,2023.2.3,Win32,60.24096385550618,,,,,,1168.5829000000954,98.0,1.0,1168.583,98.0,,,,1172.523700000286,1173.0221000003814,1172.0064000000953,1172.523200000286,1169.5738000001909,1172.006200000286,1173.0221000003814,1173.521700000286,1173.5218000001908,1174.7064000000953,144.0,1174.7065,1.0,1174.7167000002862,1.0,10.0,40.0,28.0,1.0,1.4,0.7,Time
,,S35,1,女,25,anonymized,Serial_Dependence_U,2023.2.3,Win32,60.24096385550618,,,,,,1174.7171000003814,37.0,1.0,1174.7173000001908,37.0,,,,1178.691200000286,1179.188800000191,1178.1729000000953,1178.6908000001906,1175.707200000286,1178.1728000001908,1179.1889000000954,1179.6886000003817,1179.6887000002862,1180.889,160.0,1180.8891000003814,1.0,1180.8991000003814,1.0,11.0,41.0,23.0,1.0,1.4,0.3,Time
,,S35,1,女,25,anonymized,Serial_Dependence_U,2023.2.3,Win32,60.24096385550618,,,,,,1180.8995,322.0,1.0,1180.8997000002862,322.0,,,,1184.6733000001907,1185.172,1184.1562000002862,1184.6729000000953,1181.8899000000954,1184.1561000003817,1185.1721000003815,1185.6716000003814,1185.671900000095,1187.2222000002862,125.0,1187.2224000000954,1.0,1187.2322000002862,1.0,12.0,42.0,12.0,1.0,1.2,0.3,Time
,,S35,1,女,25,anonymized,Serial_Dependence_U,2023.2.3,Win32,60.24096385550618,,,,,,1187.2326000003814,235.0,1.0,1187.232700000286,235.0,,,,1190.9893000001907,1191.4884000000957,1190.4724000000954,1190.988900000095,1188.238900000095,1190.4722000002862,1191.4884000000957,1191.9888000001906,1191.988900000095,1192.6891000003814,34.0,1192.6893000001908,1.0,1192.7003000001907,1.0,13.0,43.0,17.0,1.0,1.2,0.7,Time
,,S35,1,女,25,anonymized,Serial_Dependence_U,2023.2.3,Win32,60.24096385550618,,,,,,1192.7008000001908,326.0,1.0,1192.700900000095,326.0,,,,1196.2553000001908,1196.755200000286,1195.74,1196.255200000286,1193.706200000286,1195.739700000286,1196.755200000286,1197.254700000286,1197.2549000000954,1200.3057000002862,49.0,1200.305900000095,1.0,1200.317,1.0,14.0,44.0,26.0,1.0,1.0,0.7,Time
,,S35,1,女,25,anonymized,Serial_Dependence_U,2023.2.3,Win32,60.24096385550618,,,,,,1200.3175,49.0,1.0,1200.3178000001908,49.0,,,,1204.0718000001907,1204.5716000003815,1203.556200000286,1204.0718000001907,1201.322200000286,1203.556200000286,1204.5718000001907,1205.072,1205.072200000286,1205.7885,134.0,1205.7886000003814,1.0,1205.7991000003817,1.0,15.0,45.0,7.0,1.0,1.2,0.7,Time
,,S35,1,女,25,anonymized,Serial_Dependence_U,2023.2.3,Win32,60.24096385550618,,,,,,1205.7996000003814,184.0,1.0,1205.7998000001908,184.0,,,,1209.5731000003814,1210.071700000286,1209.0557000002862,1209.5729000000954,1206.7912000002862,1209.0554000000957,1210.071700000286,1210.572,1210.572,1211.9883000001907,164.0,1211.9885,1.0,1211.9981000003816,1.0,16.0,46.0,2.0,1.0,1.2,0.3,Time
,,S35,1,女,25,anonymized,Serial_Dependence_U,2023.2.3,Win32,60.24096385550618,,,,,,1211.9985,105.0,1.0,1211.9986000003814,105.0,,,,1215.5892000002862,1216.087700000286,1215.0724000000953,1215.5888000001908,1213.0061000003814,1215.0723000001908,1216.087700000286,1216.5882000002862,1216.5883000001909,1217.8216000003815,163.0,1217.821700000286,1.0,1217.8315,1.0,17.0,47.0,21.0,1.0,1.0,0.3,Time
,,S35,1,女,25,anonymized,Serial_Dependence_U,2023.2.3,Win32,60.24096385550618,,,,,,1217.832,312.0,1.0,1217.8321000003814,312.0,,,,1221.1724000000954,1221.6709000000951,1220.6549000000953,1221.172200000286,1218.8227000002862,1220.6548000001908,1221.671,1222.1707000002862,1222.1707000002862,1224.2066000003815,128.0,1224.206700000286,1.0,1224.2163000001908,1.0,18.0,48.0,25.0,1.0,0.8,0.7,Time
,,S35,1,女,25,anonymized,Serial_Dependence_U,2023.2.3,Win32,60.24096385550618,,,,,,1224.2167000002862,218.0,1.0,1224.2168000001907,218.0,,,,1228.204700000286,1228.7048000001907,1227.6891000003814,1228.2046000003816,1225.2226000003814,1227.6889000000954,1228.705,1229.204,1229.204,1230.2723000001906,96.0,1230.2723000001906,1.0,1230.2833000001908,1.0,19.0,49.0,3.0,1.0,1.4,0.3,Time
,,S35,1,女,25,anonymized,Serial_Dependence_U,2023.2.3,Win32,60.24096385550618,,,,,,1230.2838000001907,26.0,1.0,1230.2839000000954,26.0,,,,1234.4384000000953,1234.937700000286,1233.923200000286,1234.4381000003814,1231.2891000003815,1233.9229000000953,1234.937700000286,1235.4386000003817,1235.4387000002862,1236.8713000001908,117.0,1236.8714000000953,1.0,1236.8821000003816,1.0,20.0,50.0,29.0,1.0,1.6,0.7,Time
,,S35,1,女,25,anonymized,Serial_Dependence_U,2023.2.3,Win32,60.24096385550618,,,,,,1236.8826000003814,297.0,1.0,1236.882700000286,297.0,,,,1240.4726000003814,1240.9706000003814,1239.9569000000954,1240.4724000000954,1237.8888000001907,1239.9568000001907,1240.9706000003814,1241.471,1241.4711000003815,1244.1221000003814,132.0,1244.1224000000957,1.0,1244.1326000003814,1.0,21.0,51.0,11.0,1.0,1.0,0.3,Time
,,S35,1,女,25,anonymized,Serial_Dependence_U,2023.2.3,Win32,60.24096385550618,,,,,,1244.1331000003815,150.0,1.0,1244.1333000001907,150.0,,,,1247.5214000000954,1248.020300000191,1247.0054000000953,1247.5212000002862,1245.138200000286,1247.005200000286,1248.020300000191,1248.5208000001908,1248.521,1249.1383000001908,133.0,1249.138400000095,1.0,1249.1483000001908,1.0,22.0,52.0,20.0,1.0,0.8,0.3,Time
,,S35,1,女,25,anonymized,Serial_Dependence_U,2023.2.3,Win32,60.24096385550618,,,,,,1249.148700000286,109.0,1.0,1249.1489000000954,109.0,,,,1253.0888000001908,1253.5876000003814,1252.5724000000953,1253.0885,1250.1385,1252.572200000286,1253.5876000003814,1254.0869000000953,1254.0869000000953,1254.8876000003816,133.0,1254.887700000286,1.0,1254.8978000001907,1.0,23.0,53.0,18.0,1.0,1.4,0.7,Time
,,S35,1,女,25,anonymized,Serial_Dependence_U,2023.2.3,Win32,60.24096385550618,,,,,,1254.8983000001908,198.0,1.0,1254.8984000000953,198.0,,,,1258.4396000003817,1258.9375,1257.938,1258.4393000001908,1255.889200000286,1257.9379000000954,1258.9375,1259.4373000001908,1259.4373000001908,1260.4042000002862,175.0,1260.4043000001907,1.0,1260.4148000001908,1.0,24.0,54.0,16.0,1.0,1.0,0.7,Time
,,S35,1,女,25,anonymized,Serial_Dependence_U,2023.2.3,Win32,60.24096385550618,,,,,,1260.4153000001909,73.0,1.0,1260.4154000000954,73.0,,,,1264.4045,1264.9039000000953,1263.8891000003814,1264.4043000001907,1261.421,1263.8889000000954,1264.904,1265.4035,1265.4038000001908,1266.1881000003814,135.0,1266.188200000286,1.0,1266.1979000000954,1.0,25.0,55.0,13.0,1.0,1.4,0.3,Time
,,S35,1,女,25,anonymized,Serial_Dependence_U,2023.2.3,Win32,60.24096385550618,,,,,,1266.1983000001908,48.0,1.0,1266.1984000000953,48.0,,,,1269.5874000000954,1270.0868000001908,1269.0711000003814,1269.587300000191,1267.2044000000951,1269.0709000000954,1270.0868000001908,1270.5874000000954,1270.5875,1271.7538000001907,149.0,1271.7539000000954,1.0,1271.764,1.0,26.0,56.0,10.0,1.0,0.8,0.3,Time
,,S35,1,女,25,anonymized,Serial_Dependence_U,2023.2.3,Win32,60.24096385550618,,,,,,1271.7645,81.0,1.0,1271.7646000003815,81.0,,,,1275.955,1276.4535,1275.4376000003815,1275.954700000286,1272.7704000000954,1275.4374000000953,1276.4535,1276.955200000286,1276.9553000001906,1278.4038000001908,147.0,1278.404,1.0,1278.4133000001907,1.0,27.0,57.0,24.0,1.0,1.6,0.3,Time
,,S35,1,女,25,anonymized,Serial_Dependence_U,2023.2.3,Win32,60.24096385550618,,,,,,1278.4138000001908,100.0,1.0,1278.4139000000953,100.0,,,,1282.6049000000953,1283.1037000002862,1282.0882000002862,1282.6046000003814,1279.4213000001907,1282.0878000001908,1283.1038000001906,1283.6034000000957,1283.6034000000957,1284.637,147.0,1284.6372000002862,1.0,1284.647400000095,1.0,28.0,58.0,14.0,1.0,1.6,0.3,Time
,,S35,1,女,25,anonymized,Serial_Dependence_U,2023.2.3,Win32,60.24096385550618,,,,,,1284.6481000003814,345.0,1.0,1284.648200000286,345.0,,,,1288.405,1288.904,1287.888400000095,1288.404700000286,1285.6551000003817,1287.888200000286,1288.9041000003815,1289.4038000001908,1289.4038000001908,1290.4378000001907,118.0,1290.438,1.0,1290.4477000002862,1.0,29.0,59.0,27.0,1.0,1.2,0.7,Time
,,S35,1,女,25,anonymized,Serial_Dependence_U,2023.2.3,Win32,60.24096385550618,,,,,,1290.4481000003814,59.0,2.0,1315.1154000000954,59.0,s,24.63090000009538,,1319.2712000002862,1319.7701000003815,1318.7545,1319.2711000003817,1316.120800000191,1318.7543000001908,1319.7702000002862,1320.269700000286,1320.269700000286,1321.4038000001908,34.0,1321.4042000002862,1.0,1321.4145,2.0,0.0,60.0,29.0,1.0,1.6,0.7,Time
,,S35,1,女,25,anonymized,Serial_Dependence_U,2023.2.3,Win32,60.24096385550618,,,,,,1321.415,279.0,2.0,1321.4169000000954,279.0,,,,1325.4038000001908,1325.9024000000954,1324.8869000000957,1325.403700000286,1322.421,1324.8868000001908,1325.9025,1326.4028000001908,1326.403,1327.2364000000953,144.0,1327.2365,1.0,1327.246,2.0,1.0,61.0,13.0,1.0,1.4,0.3,Time
,,S35,1,女,25,anonymized,Serial_Dependence_U,2023.2.3,Win32,60.24096385550618,,,,,,1327.2464000000953,30.0,2.0,1327.2466000003817,30.0,,,,1330.6207000002862,1331.1198000001907,1330.104200000286,1330.6207000002862,1328.237200000286,1330.104,1331.1199000000954,1331.6196000003815,1331.6196000003815,1332.8705,151.0,1332.8706000003815,1.0,1332.8804000000953,2.0,2.0,62.0,20.0,1.0,0.8,0.3,Time
,,S35,1,女,25,anonymized,Serial_Dependence_U,2023.2.3,Win32,60.24096385550618,,,,,,1332.8809000000954,43.0,2.0,1332.8811000003814,43.0,,,,1336.237,1336.7364000000953,1335.719900000095,1336.236800000191,1333.887,1335.7198000001906,1336.7365,1337.236,1337.236,1339.652700000286,139.0,1339.652900000095,1.0,1339.6639000000953,2.0,3.0,63.0,5.0,1.0,0.8,0.7,Time
,,S35,1,女,25,anonymized,Serial_Dependence_U,2023.2.3,Win32,60.24096385550618,,,,,,1339.6644000000954,37.0,2.0,1339.6646000003814,37.0,,,,1343.2376000003817,1343.7354000000953,1342.7198000001906,1343.2373000001908,1340.653700000286,1342.7196000003814,1343.7354000000953,1344.2359000000954,1344.2361000003814,1345.7038000001908,184.0,1345.7039000000957,1.0,1345.714,2.0,4.0,64.0,21.0,1.0,1.0,0.3,Time
,,S35,1,女,25,anonymized,Serial_Dependence_U,2023.2.3,Win32,60.24096385550618,,,,,,1345.7145,335.0,2.0,1345.7146000003816,335.0,,,,1349.4531000003817,1349.9521000003815,1348.936400000095,1349.4531000003817,1346.7041000003817,1348.9361000003814,1349.9521000003815,1350.4518000001908,1350.452,1351.8036000003815,183.0,1351.803800000191,1.0,1351.8143000001908,2.0,5.0,65.0,17.0,1.0,1.2,0.7,Time
,,S35,1,女,25,anonymized,Serial_Dependence_U,2023.2.3,Win32,60.24096385550618,,,,,,1351.8148000001906,270.0,2.0,1351.815,270.0,,,,1355.786200000286,1356.2855,1355.2699000000953,1355.7861000003816,1352.8365,1355.2698000001908,1356.2855,1356.785200000286,1356.7853000001908,1357.802700000286,184.0,1357.8029000000954,1.0,1357.8124000000953,2.0,6.0,66.0,18.0,1.0,1.4,0.7,Time
,,S35,1,女,25,anonymized,Serial_Dependence_U,2023.2.3,Win32,60.24096385550618,,,,,,1357.8128000001907,30.0,2.0,1357.8129000000954,30.0,,,,1361.202700000286,1361.7023000001907,1360.6861000003814,1361.2024000000954,1358.8199000000957,1360.686,1361.7024000000954,1362.2025,1362.2028000001908,1363.7032000002862,168.0,1363.7035,1.0,1363.7141000003814,2.0,7.0,67.0,10.0,1.0,0.8,0.3,Time
,,S35,1,女,25,anonymized,Serial_Dependence_U,2023.2.3,Win32,60.24096385550618,,,,,,1363.7145,65.0,2.0,1363.714700000286,65.0,,,,1367.869200000286,1368.369,1367.3535,1367.8691000003814,1364.72,1367.3534000000957,1368.3691000003814,1368.8688000001907,1368.8688000001907,1369.9024000000954,148.0,1369.9028000001908,1.0,1369.9133000001907,2.0,8.0,68.0,19.0,1.0,1.6,0.7,Time
,,S35,1,女,25,anonymized,Serial_Dependence_U,2023.2.3,Win32,60.24096385550618,,,,,,1369.9138000001908,195.0,2.0,1369.914,195.0,,,,1374.0701000003814,1374.5688000001908,1373.5541000003814,1374.0699000000957,1370.9193000001908,1373.554,1374.5688000001908,1375.0689000000953,1375.0689000000953,1376.4859000000954,149.0,1376.4861000003814,1.0,1376.4965,2.0,9.0,69.0,9.0,1.0,1.6,0.7,Time
,,S35,1,女,25,anonymized,Serial_Dependence_U,2023.2.3,Win32,60.24096385550618,,,,,,1376.4969000000954,18.0,2.0,1376.497,18.0,,,,1380.0695,1380.568300000191,1379.5539000000954,1380.0693000001909,1377.4859000000954,1379.5536000003815,1380.568300000191,1381.0684000000954,1381.0688000001908,1382.985700000286,142.0,1382.986,1.0,1382.9961000003814,2.0,10.0,70.0,1.0,1.0,1.0,0.3,Time
,,S35,1,女,25,anonymized,Serial_Dependence_U,2023.2.3,Win32,60.24096385550618,,,,,,1382.9965,124.0,2.0,1382.9966000003817,124.0,,,,1386.7365,1387.2349000000954,1386.2201000003815,1386.7363000001908,1383.9863000001908,1386.219900000095,1387.2349000000954,1387.7348000001907,1387.735,1389.0686000003814,137.0,1389.068700000286,1.0,1389.078700000286,2.0,11.0,71.0,7.0,1.0,1.2,0.7,Time
,,S35,1,女,25,anonymized,Serial_Dependence_U,2023.2.3,Win32,60.24096385550618,,,,,,1389.0792000002862,347.0,2.0,1389.0794000000951,347.0,,,,1393.2694000000954,1393.768,1392.7531000003814,1393.269200000286,1390.0863000001907,1392.7529000000957,1393.768,1394.268,1394.2681000003815,1395.8865,151.0,1395.8865,1.0,1395.897200000286,2.0,12.0,72.0,24.0,1.0,1.6,0.3,Time
,,S35,1,女,25,anonymized,Serial_Dependence_U,2023.2.3,Win32,60.24096385550618,,,,,,1395.8975,189.0,2.0,1395.8978000001907,189.0,,,,1399.4535,1399.9519000000953,1398.9359000000954,1399.4532000002862,1396.9036000003814,1398.9356000003816,1399.9519000000953,1400.451200000286,1400.4515,1402.3866000003816,121.0,1402.387,1.0,1402.3973000001906,2.0,13.0,73.0,6.0,1.0,1.0,0.7,Time
,,S35,1,女,25,anonymized,Serial_Dependence_U,2023.2.3,Win32,60.24096385550618,,,,,,1402.397700000286,169.0,2.0,1402.3978000001907,169.0,,,,1406.202700000286,1406.701200000286,1405.6859000000954,1406.2024000000954,1403.4191000003814,1405.6856000003816,1406.7013000001907,1407.201,1407.2011000003815,1408.919,133.0,1408.9193000001908,1.0,1408.9294000000953,2.0,14.0,74.0,12.0,1.0,1.2,0.3,Time
,,S35,1,女,25,anonymized,Serial_Dependence_U,2023.2.3,Win32,60.24096385550618,,,,,,1408.9298000001909,149.0,2.0,1408.93,149.0,,,,1412.318300000191,1412.817700000286,1411.8024000000953,1412.3181000003815,1409.9353000001906,1411.802200000286,1412.8178000001908,1413.317700000286,1413.317700000286,1413.5854000000954,142.0,1413.5855,1.0,1413.5955,2.0,15.0,75.0,0.0,1.0,0.8,0.3,Time
,,S35,1,女,25,anonymized,Serial_Dependence_U,2023.2.3,Win32,60.24096385550618,,,,,,1413.5959000000953,168.0,2.0,1413.5961000003815,168.0,,,,1417.5525,1418.0509000000957,1417.0361000003816,1417.5524000000953,1414.6027000002862,1417.036,1418.0509000000957,1418.551,1418.551200000286,1419.569,133.0,1419.5692000002862,1.0,1419.5793000001906,2.0,16.0,76.0,28.0,1.0,1.4,0.7,Time
,,S35,1,女,25,anonymized,Serial_Dependence_U,2023.2.3,Win32,60.24096385550618,,,,,,1419.579700000286,117.0,2.0,1419.5798000001907,117.0,,,,1422.935700000286,1423.4346000003814,1422.4189000000954,1422.9355,1420.584900000095,1422.4187000002862,1423.4346000003814,1423.9342000002862,1423.9342000002862,1425.035,132.0,1425.035200000286,1.0,1425.0456000003817,2.0,17.0,77.0,15.0,1.0,0.8,0.7,Time
,,S35,1,女,25,anonymized,Serial_Dependence_U,2023.2.3,Win32,60.24096385550618,,,,,,1425.046,71.0,2.0,1425.0461000003816,71.0,,,,1429.2516000003814,1429.7515,1428.7355,1429.2514000000954,1426.0684000000954,1428.7353000001908,1429.7516000003814,1430.251700000286,1430.2519000000957,1431.6683000001908,149.0,1431.6687000002862,1.0,1431.679,2.0,18.0,78.0,14.0,1.0,1.6,0.3,Time
,,S35,1,女,25,anonymized,Serial_Dependence_U,2023.2.3,Win32,60.24096385550618,,,,,,1431.6795,76.0,2.0,1431.6795,76.0,,,,1435.6194000000953,1436.1171000003817,1435.102200000286,1435.619200000286,1432.6685,1435.1019000000954,1436.1172000002862,1436.617700000286,1436.617700000286,1437.9685,132.0,1437.9687000002862,1.0,1437.9785,2.0,19.0,79.0,8.0,1.0,1.4,0.7,Time
,,S35,1,女,25,anonymized,Serial_Dependence_U,2023.2.3,Win32,60.24096385550618,,,,,,1437.979,40.0,2.0,1437.9791000003815,40.0,,,,1441.9683000001908,1442.4677000002862,1441.4525,1441.9681000003814,1438.9856000003815,1441.4523000001907,1442.467800000191,1442.9684000000957,1442.9684000000957,1443.917700000286,133.0,1443.9178000001907,1.0,1443.9279000000954,2.0,20.0,80.0,3.0,1.0,1.4,0.3,Time
,,S35,1,女,25,anonymized,Serial_Dependence_U,2023.2.3,Win32,60.24096385550618,,,,,,1443.9283000001908,154.0,2.0,1443.9284000000953,154.0,,,,1447.7019000000953,1448.200900000095,1447.1853000001906,1447.7018000001908,1444.918800000191,1447.1851000003817,1448.200900000095,1448.7003000001907,1448.7004000000954,1449.618,129.0,1449.6181000003814,1.0,1449.6285,2.0,21.0,81.0,2.0,1.0,1.2,0.3,Time
,,S35,1,女,25,anonymized,Serial_Dependence_U,2023.2.3,Win32,60.24096385550618,,,,,,1449.6289000000954,218.0,2.0,1449.629,218.0,,,,1453.6023000001908,1454.1001000003814,1453.0851000003815,1453.6021000003814,1450.6195,1453.084900000095,1454.100200000286,1454.6004000000953,1454.6004000000953,1455.4513000001907,165.0,1455.4515,1.0,1455.4618000001908,2.0,22.0,82.0,23.0,1.0,1.4,0.3,Time
,,S35,1,女,25,anonymized,Serial_Dependence_U,2023.2.3,Win32,60.24096385550618,,,,,,1455.462300000191,143.0,2.0,1455.4625,143.0,,,,1459.6346000003814,1460.133700000286,1459.1174000000954,1459.6345,1456.4514000000954,1459.1173000001909,1460.133700000286,1460.6344000000954,1460.6345,1461.917200000286,167.0,1461.9174000000953,1.0,1461.926400000095,2.0,23.0,83.0,4.0,1.0,1.6,0.3,Time
,,S35,1,女,25,anonymized,Serial_Dependence_U,2023.2.3,Win32,60.24096385550618,,,,,,1461.926700000286,169.0,2.0,1461.9268000001907,169.0,,,,1465.267900000095,1465.7671000003816,1464.751700000286,1465.2678000001906,1462.9187000002862,1464.7515,1465.767200000286,1466.2666000003817,1466.2667000002862,1467.5846000003814,178.0,1467.584900000095,1.0,1467.594,2.0,24.0,84.0,25.0,1.0,0.8,0.7,Time
,,S35,1,女,25,anonymized,Serial_Dependence_U,2023.2.3,Win32,60.24096385550618,,,,,,1467.5943000001907,23.0,2.0,1467.5944000000954,23.0,,,,1471.1508000001909,1471.6499000000954,1470.634200000286,1471.1507000002862,1468.6008000001907,1470.6339000000953,1471.6499000000954,1472.1501000003814,1472.1501000003814,1473.5674000000954,169.0,1473.5675,1.0,1473.577200000286,2.0,25.0,85.0,16.0,1.0,1.0,0.7,Time
,,S35,1,女,25,anonymized,Serial_Dependence_U,2023.2.3,Win32,60.24096385550618,,,,,,1473.5776000003814,33.0,2.0,1473.577700000286,33.0,,,,1477.350700000286,1477.849700000286,1476.8348000001906,1477.3506000003815,1474.5678000001908,1476.8346000003814,1477.8498000001907,1478.3503000001908,1478.3504000000953,1479.4003000001908,176.0,1479.4004000000953,1.0,1479.4094000000953,2.0,26.0,86.0,22.0,1.0,1.2,0.3,Time
,,S35,1,女,25,anonymized,Serial_Dependence_U,2023.2.3,Win32,60.24096385550618,,,,,,1479.409800000191,229.0,2.0,1479.4099000000954,229.0,,,,1483.167700000286,1483.666400000095,1482.6513000001908,1483.1674000000953,1480.4175,1482.6511000003816,1483.666400000095,1484.1671000003814,1484.1671000003814,1485.1836000003814,166.0,1485.1838000001908,1.0,1485.192700000286,2.0,27.0,87.0,27.0,1.0,1.2,0.7,Time
,,S35,1,女,25,anonymized,Serial_Dependence_U,2023.2.3,Win32,60.24096385550618,,,,,,1485.1931000003815,209.0,2.0,1485.193300000191,209.0,,,,1488.7506000003814,1489.2496000003814,1488.2336000003816,1488.7504000000954,1486.2005,1488.2335,1489.249700000286,1489.7496000003814,1489.7496000003814,1490.1333000001907,175.0,1490.1333000001907,1.0,1490.1424000000954,2.0,28.0,88.0,26.0,1.0,1.0,0.7,Time
,,S35,1,女,25,anonymized,Serial_Dependence_U,2023.2.3,Win32,60.24096385550618,,,,,,1490.1428000001906,149.0,2.0,1490.1428000001906,149.0,,,,1493.7171000003814,1494.216,1493.201200000286,1493.7169000000954,1491.1341000003815,1493.2011000003815,1494.2161000003814,1494.7164000000953,1494.7165,1495.334,167.0,1495.3341000003816,1.0,1495.343,2.0,29.0,89.0,11.0,1.0,1.0,0.3,Time
,,S35,1,女,25,anonymized,Serial_Dependence_U,2023.2.3,Win32,60.24096385550618,,,,,,1495.3433000001908,114.0,3.0,1497.8413000001908,114.0,s,2.4695999999046307,,1501.7844000000953,1502.283200000286,1501.2671000003816,1501.7841000003814,1498.8341000003816,1501.2669000000951,1502.2833000001908,1502.783200000286,1502.7833000001908,1503.8345,137.0,1503.8346000003814,1.0,1503.8434000000957,3.0,0.0,90.0,18.0,1.0,1.4,0.7,Time
,,S35,1,女,25,anonymized,Serial_Dependence_U,2023.2.3,Win32,60.24096385550618,,,,,,1503.8437000002862,236.0,3.0,1503.8458000001908,236.0,,,,1507.250200000286,1507.7494000000954,1506.7336000003816,1507.25,1504.8666000003814,1506.7336000003816,1507.7495,1508.2495,1508.2496000003814,1508.583200000286,142.0,1508.5833000001908,1.0,1508.5924000000953,3.0,1.0,91.0,20.0,1.0,0.8,0.3,Time
,,S35,1,女,25,anonymized,Serial_Dependence_U,2023.2.3,Win32,60.24096385550618,,,,,,1508.592800000191,155.0,3.0,1508.593,155.0,,,,1512.3336000003817,1512.8329000000954,1511.8169000000953,1512.3334000000953,1509.5835,1511.816700000286,1512.833,1513.3326000003815,1513.3326000003815,1514.683300000191,96.0,1514.6835,1.0,1514.6926000003814,3.0,2.0,92.0,27.0,1.0,1.2,0.7,Time
,,S35,1,女,25,anonymized,Serial_Dependence_U,2023.2.3,Win32,60.24096385550618,,,,,,1514.6929000000953,40.0,3.0,1514.6931000003815,40.0,,,,1518.6341000003815,1519.1324000000957,1518.1185,1518.6339000000953,1515.6839000000953,1518.118400000095,1519.1324000000957,1519.632900000095,1519.633,1520.4498000001906,156.0,1520.449900000095,1.0,1520.4593000001908,3.0,3.0,93.0,8.0,1.0,1.4,0.7,Time
,,S35,1,女,25,anonymized,Serial_Dependence_U,2023.2.3,Win32,60.24096385550618,,,,,,1520.459700000286,202.0,3.0,1520.4598000001906,202.0,,,,1523.8493000001906,1524.348700000286,1523.3333000001908,1523.849200000286,1521.4669000000954,1523.333200000286,1524.348700000286,1524.849,1524.849,1525.8659000000953,164.0,1525.866,1.0,1525.8754000000954,3.0,4.0,94.0,10.0,1.0,0.8,0.3,Time
,,S35,1,女,25,anonymized,Serial_Dependence_U,2023.2.3,Win32,60.24096385550618,,,,,,1525.875700000286,10.0,3.0,1525.8758000001908,10.0,,,,1529.4501000003816,1529.9489000000954,1528.933700000286,1529.45,1526.8659000000953,1528.9335,1529.9489000000954,1530.4488000001909,1530.4488000001909,1531.716,170.0,1531.7161000003814,1.0,1531.7253000001908,3.0,5.0,95.0,11.0,1.0,1.0,0.3,Time
,,S35,1,女,25,anonymized,Serial_Dependence_U,2023.2.3,Win32,60.24096385550618,,,,,,1531.725700000286,25.0,3.0,1531.725700000286,25.0,,,,1535.4666000003815,1535.9655,1534.9659000000954,1535.4665,1532.7331000003817,1534.9658000001907,1535.9655,1536.4655,1536.4656000003815,1538.782700000286,124.0,1538.7828000001907,1.0,1538.7916000003815,3.0,6.0,96.0,7.0,1.0,1.2,0.7,Time
,,S35,1,女,25,anonymized,Serial_Dependence_U,2023.2.3,Win32,60.24096385550618,,,,,,1538.792,249.0,3.0,1538.792,249.0,,,,1542.1333000001907,1542.6323000001908,1541.6171000003817,1542.1331000003815,1539.7829000000954,1541.6169000000953,1542.6324000000957,1543.1323000001908,1543.1324000000957,1543.8491000003814,144.0,1543.8493000001906,1.0,1543.8582000002862,3.0,7.0,97.0,5.0,1.0,0.8,0.7,Time
,,S35,1,女,25,anonymized,Serial_Dependence_U,2023.2.3,Win32,60.24096385550618,,,,,,1543.8586000003816,144.0,3.0,1543.858700000286,144.0,,,,1548.0494000000954,1548.548700000286,1547.5331000003814,1548.049300000191,1544.866300000191,1547.533,1548.5488000001908,1549.0489000000953,1549.0489000000953,1549.566,197.0,1549.566,1.0,1549.5758000001908,3.0,8.0,98.0,14.0,1.0,1.6,0.3,Time
,,S35,1,女,25,anonymized,Serial_Dependence_U,2023.2.3,Win32,60.24096385550618,,,,,,1549.576200000286,140.0,3.0,1549.5764000000954,140.0,,,,1553.1159000000953,1553.6156000003814,1552.5991000003814,1553.115700000286,1550.5673000001907,1552.5989000000957,1553.6156000003814,1554.1154000000954,1554.1154000000954,1555.4994000000954,216.0,1555.4995,1.0,1555.5083000001907,3.0,9.0,99.0,6.0,1.0,1.0,0.7,Time
,,S35,1,女,25,anonymized,Serial_Dependence_U,2023.2.3,Win32,60.24096385550618,,,,,,1555.508700000286,55.0,3.0,1555.5088000001908,55.0,,,,1559.0495,1559.5488000001908,1558.533,1559.0495,1556.4993000001907,1558.5329000000954,1559.5488000001908,1560.0483000001907,1560.0484000000954,1562.0164000000957,62.0,1562.0164000000957,1.0,1562.0258000001909,3.0,10.0,100.0,26.0,1.0,1.0,0.7,Time
,,S35,1,女,25,anonymized,Serial_Dependence_U,2023.2.3,Win32,60.24096385550618,,,,,,1562.0263000001908,104.0,3.0,1562.0264000000957,104.0,,,,1565.583,1566.0816000003815,1565.066200000286,1565.582800000191,1563.0326000003815,1565.066,1566.081700000286,1566.581700000286,1566.5818000001907,1569.6497000002862,168.0,1569.649800000191,1.0,1569.6594000000953,3.0,11.0,101.0,16.0,1.0,1.0,0.7,Time
,,S35,1,女,25,anonymized,Serial_Dependence_U,2023.2.3,Win32,60.24096385550618,,,,,,1569.659800000191,75.0,3.0,1569.6599000000954,75.0,,,,1573.6494000000953,1574.148700000286,1573.1331000003815,1573.649200000286,1570.6661000003814,1573.132900000095,1574.1488000001907,1574.6484000000953,1574.6485,1575.4326000003814,150.0,1575.432700000286,1.0,1575.4416000003814,3.0,12.0,102.0,13.0,1.0,1.4,0.3,Time
,,S35,1,女,25,anonymized,Serial_Dependence_U,2023.2.3,Win32,60.24096385550618,,,,,,1575.4421000003815,224.0,3.0,1575.442200000286,224.0,,,,1578.782200000286,1579.2816000003816,1578.265800000191,1578.782,1576.433300000191,1578.2656000003817,1579.2816000003816,1579.7816000003816,1579.781700000286,1580.2989000000953,114.0,1580.2991000003817,1.0,1580.3079000000953,3.0,13.0,103.0,25.0,1.0,0.8,0.7,Time
,,S35,1,女,25,anonymized,Serial_Dependence_U,2023.2.3,Win32,60.24096385550618,,,,,,1580.308300000191,346.0,3.0,1580.3084000000954,346.0,,,,1584.2994000000954,1584.7979000000953,1583.7825,1584.2992000002862,1581.315700000286,1583.7823000001906,1584.7979000000953,1585.298,1585.2981000003815,1586.5648000001906,192.0,1586.565,1.0,1586.574200000286,3.0,14.0,104.0,3.0,1.0,1.4,0.3,Time
,,S35,1,女,25,anonymized,Serial_Dependence_U,2023.2.3,Win32,60.24096385550618,,,,,,1586.5746000003817,329.0,3.0,1586.5747000002862,329.0,,,,1590.7326000003814,1591.2315,1590.216,1590.7324000000954,1587.581700000286,1590.2158000001907,1591.2316000003814,1591.7311000003815,1591.7312000002862,1592.915700000286,178.0,1592.9159000000957,1.0,1592.9249000000952,3.0,15.0,105.0,19.0,1.0,1.6,0.7,Time
,,S35,1,女,25,anonymized,Serial_Dependence_U,2023.2.3,Win32,60.24096385550618,,,,,,1592.9253000001906,202.0,3.0,1592.9255,202.0,,,,1596.4988000001908,1596.9983000001907,1595.9825,1596.498700000286,1593.9159000000957,1595.9824000000954,1596.9983000001907,1597.4979000000951,1597.498,1601.0483000001907,180.0,1601.0484000000954,1.0,1601.0579000000953,3.0,16.0,106.0,1.0,1.0,1.0,0.3,Time
,,S35,1,女,25,anonymized,Serial_Dependence_U,2023.2.3,Win32,60.24096385550618,,,,,,1601.0584000000954,111.0,3.0,1601.0585,111.0,,,,1604.832200000286,1605.331,1604.3154000000957,1604.8321000003814,1602.0492000002862,1604.3151000003816,1605.331200000286,1605.8309000000954,1605.831,1606.7651000003814,130.0,1606.765200000286,1.0,1606.7741000003814,3.0,17.0,107.0,22.0,1.0,1.2,0.3,Time
,,S35,1,女,25,anonymized,Serial_Dependence_U,2023.2.3,Win32,60.24096385550618,,,,,,1606.7745,145.0,3.0,1606.7747000002862,145.0,,,,1610.548,1611.0478000001908,1610.033200000286,1610.5479000000953,1607.7651000003814,1610.0329000000954,1611.0478000001908,1611.547700000286,1611.5478000001908,1613.1815,169.0,1613.1816000003814,1.0,1613.1904000000957,3.0,18.0,108.0,12.0,1.0,1.2,0.3,Time
,,S35,1,女,25,anonymized,Serial_Dependence_U,2023.2.3,Win32,60.24096385550618,,,,,,1613.1908000001906,184.0,3.0,1613.190900000095,184.0,,,,1617.115700000286,1617.6143000001907,1616.614700000286,1617.1155,1614.182,1616.6146000003814,1617.6144000000954,1618.1141000003815,1618.114200000286,1618.8146000003817,168.0,1618.8148000001906,1.0,1618.8234000000953,3.0,19.0,109.0,28.0,1.0,1.4,0.7,Time
,,S35,1,女,25,anonymized,Serial_Dependence_U,2023.2.3,Win32,60.24096385550618,,,,,,1618.8238000001909,28.0,3.0,1618.8239000000954,28.0,,,,1622.1819000000953,1622.6808000001906,1621.665700000286,1622.1818000001908,1619.8316000003815,1621.6655,1622.6808000001906,1623.1807000002862,1623.1807000002862,1623.7148000001907,119.0,1623.715,1.0,1623.7238000001907,3.0,20.0,110.0,15.0,1.0,0.8,0.7,Time
,,S35,1,女,25,anonymized,Serial_Dependence_U,2023.2.3,Win32,60.24096385550618,,,,,,1623.724200000286,205.0,3.0,1623.724400000095,205.0,,,,1627.865,1628.363900000095,1627.3483000001906,1627.864700000286,1624.715400000095,1627.3481000003817,1628.363900000095,1628.863900000095,1628.863900000095,1629.4643000001906,125.0,1629.4645,1.0,1629.4733000001906,3.0,21.0,111.0,29.0,1.0,1.6,0.7,Time
,,S35,1,女,25,anonymized,Serial_Dependence_U,2023.2.3,Win32,60.24096385550618,,,,,,1629.473700000286,146.0,3.0,1629.4738000001907,146.0,,,,1632.8488000001907,1633.3474000000954,1632.3318000001907,1632.8486000003816,1630.4651000003814,1632.331700000286,1633.3475,1633.8471000003815,1633.8471000003815,1634.4976000003817,174.0,1634.4977000002862,1.0,1634.507,3.0,22.0,112.0,0.0,1.0,0.8,0.3,Time
,,S35,1,女,25,anonymized,Serial_Dependence_U,2023.2.3,Win32,60.24096385550618,,,,,,1634.5073000001908,332.0,3.0,1634.5075,332.0,,,,1638.6979000000954,1639.197,1638.1814000000954,1638.697800000191,1635.5148000001907,1638.1813000001907,1639.1971000003814,1639.6971000003814,1639.697200000286,1641.5816000003815,181.0,1641.5818000001907,1.0,1641.5923000001908,3.0,23.0,113.0,24.0,1.0,1.6,0.3,Time
,,S35,1,女,25,anonymized,Serial_Dependence_U,2023.2.3,Win32,60.24096385550618,,,,,,1641.5927000002862,59.0,3.0,1641.592800000191,59.0,,,,1645.3813000001908,1645.8816000003817,1644.8648000001908,1645.3811000003814,1642.5983000001906,1644.8648000001908,1645.8816000003817,1646.3805,1646.3806000003815,1647.298,166.0,1647.2981000003815,1.0,1647.307200000286,3.0,24.0,114.0,2.0,1.0,1.2,0.3,Time
,,S35,1,女,25,anonymized,Serial_Dependence_U,2023.2.3,Win32,60.24096385550618,,,,,,1647.3076000003814,20.0,3.0,1647.307700000286,20.0,,,,1651.4818000001908,1651.980200000286,1650.9645,1651.4816000003814,1648.2992000002862,1650.9643000001906,1651.9804000000954,1652.480200000286,1652.480200000286,1652.7973000001907,165.0,1652.7973000001907,1.0,1652.8066000003814,3.0,25.0,115.0,4.0,1.0,1.6,0.3,Time
,,S35,1,女,25,anonymized,Serial_Dependence_U,2023.2.3,Win32,60.24096385550618,,,,,,1652.807,181.0,3.0,1652.8071000003815,181.0,,,,1656.548200000286,1657.0468000001908,1656.0311000003817,1656.548,1653.797700000286,1656.031,1657.0468000001908,1657.546900000095,1657.547,1658.2146000003816,145.0,1658.214700000286,1.0,1658.2238000001907,3.0,26.0,116.0,17.0,1.0,1.2,0.7,Time
,,S35,1,女,25,anonymized,Serial_Dependence_U,2023.2.3,Win32,60.24096385550618,,,,,,1658.2241000003814,123.0,3.0,1658.224200000286,123.0,,,,1662.1841000003817,1662.680200000286,1661.681,1662.1839000000953,1659.2146000003816,1661.680900000095,1662.6803000001908,1663.1804000000957,1663.1807000002862,1663.9641000003814,155.0,1663.9642000002862,1.0,1663.9734000000954,3.0,27.0,117.0,23.0,1.0,1.4,0.3,Time
,,S35,1,女,25,anonymized,Serial_Dependence_U,2023.2.3,Win32,60.24096385550618,,,,,,1663.9738000001907,129.0,3.0,1663.9741000003814,129.0,,,,1667.5474000000954,1668.0466000003814,1667.0316000003816,1667.547200000286,1664.9648000001907,1667.0314000000951,1668.046700000286,1668.5466000003814,1668.546700000286,1669.0139000000954,110.0,1669.0139000000954,1.0,1669.0228000001907,3.0,28.0,118.0,21.0,1.0,1.0,0.3,Time
,,S35,1,女,25,anonymized,Serial_Dependence_U,2023.2.3,Win32,60.24096385550618,,,,,,1669.023200000286,59.0,3.0,1669.0234000000953,59.0,,,,1673.1807000002862,1673.6799000000954,1672.6642000002862,1673.1806000003814,1670.0308000001908,1672.664,1673.6799000000954,1674.18,1674.1801000003816,1674.7474000000957,180.0,1674.7475,1.0,1674.756200000286,3.0,29.0,119.0,9.0,1.0,1.6,0.7,Time
,,S35,1,女,25,anonymized,Serial_Dependence_U,2023.2.3,Win32,60.24096385550618,,,,,,1674.7566000003817,182.0,4.0,1676.2638000001907,182.0,s,1.4855999999047071,,1679.814200000286,1680.313200000286,1679.2984000000954,1679.8141000003814,1677.2645,1679.298200000286,1680.3133000001908,1680.8134000000953,1680.8135,1681.3144000000957,84.0,1681.3146000003817,1.0,1681.3236000003817,4.0,0.0,120.0,6.0,1.0,1.0,0.7,Time
,,S35,1,女,25,anonymized,Serial_Dependence_U,2023.2.3,Win32,60.24096385550618,,,,,,1681.324,285.0,4.0,1681.326,285.0,,,,1685.2809000000957,1685.7796000003814,1684.7646000003815,1685.2808000001908,1682.331,1684.7644000000953,1685.7796000003814,1686.279700000286,1686.279700000286,1687.3471000003815,162.0,1687.3472000002862,1.0,1687.3561000003815,4.0,1.0,121.0,8.0,1.0,1.4,0.7,Time
,,S35,1,女,25,anonymized,Serial_Dependence_U,2023.2.3,Win32,60.24096385550618,,,,,,1687.3565,13.0,4.0,1687.3566000003814,13.0,,,,1691.4975,1691.9961000003814,1690.9809000000953,1691.4973000001908,1688.3486000003816,1690.9808000001908,1691.9961000003814,1692.496800000191,1692.4969000000954,1693.2133000001909,178.0,1693.2135,1.0,1693.2231000003817,4.0,2.0,122.0,19.0,1.0,1.6,0.7,Time
,,S35,1,女,25,anonymized,Serial_Dependence_U,2023.2.3,Win32,60.24096385550618,,,,,,1693.2236000003816,228.0,4.0,1693.2236000003816,228.0,,,,1696.5974000000954,1697.096200000286,1696.0806000003815,1696.597300000191,1694.2143000001906,1696.0805,1697.096200000286,1697.5966000003814,1697.5966000003814,1698.2636000003815,160.0,1698.263700000286,1.0,1698.272700000286,4.0,3.0,123.0,10.0,1.0,0.8,0.3,Time
,,S35,1,女,25,anonymized,Serial_Dependence_U,2023.2.3,Win32,60.24096385550618,,,,,,1698.2731000003814,94.0,4.0,1698.273200000286,94.0,,,,1702.2635,1702.7628000001907,1701.7475,1702.263400000095,1699.2805,1701.747200000286,1702.7628000001907,1703.2629000000954,1703.2629000000954,1704.4963000001908,157.0,1704.4965,1.0,1704.5053000001908,4.0,4.0,124.0,13.0,1.0,1.4,0.3,Time
,,S35,1,女,25,anonymized,Serial_Dependence_U,2023.2.3,Win32,60.24096385550618,,,,,,1704.5057000002862,293.0,4.0,1704.505800000191,293.0,,,,1708.296700000286,1708.7959000000951,1707.7801000003817,1708.2965,1705.5133000001908,1707.78,1708.7959000000951,1709.296200000286,1709.296200000286,1710.397,151.0,1710.3971000003814,1.0,1710.4062000002862,4.0,5.0,125.0,22.0,1.0,1.2,0.3,Time
,,S35,1,女,25,anonymized,Serial_Dependence_U,2023.2.3,Win32,60.24096385550618,,,,,,1710.4065,236.0,4.0,1710.4066000003816,236.0,,,,1713.7631000003814,1714.262700000286,1713.2478000001906,1713.7629000000954,1711.4136000003814,1713.2476000003817,1714.2628000001907,1714.762700000286,1714.7628000001907,1715.763,125.0,1715.763200000286,1.0,1715.772,4.0,6.0,126.0,5.0,1.0,0.8,0.7,Time
,,S35,1,女,25,anonymized,Serial_Dependence_U,2023.2.3,Win32,60.24096385550618,,,,,,1715.772400000095,75.0,4.0,1715.7725,75.0,,,,1719.530300000191,1720.029,1719.013700000286,1719.5301000003817,1716.780300000191,1719.0135,1720.0291000003815,1720.529700000286,1720.529700000286,1721.2136000003816,158.0,1721.213700000286,1.0,1721.2234000000954,4.0,7.0,127.0,27.0,1.0,1.2,0.7,Time
,,S35,1,女,25,anonymized,Serial_Dependence_U,2023.2.3,Win32,60.24096385550618,,,,,,1721.2239000000957,148.0,4.0,1721.224,148.0,,,,1725.3973000001906,1725.8955,1724.880200000286,1725.3971000003814,1722.2136000003816,1724.8801000003814,1725.8956000003814,1726.396,1726.3961000003817,1727.1965,144.0,1727.1966000003815,1.0,1727.206,4.0,8.0,128.0,14.0,1.0,1.6,0.3,Time
,,S35,1,女,25,anonymized,Serial_Dependence_U,2023.2.3,Win32,60.24096385550618,,,,,,1727.2065,193.0,4.0,1727.206700000286,193.0,,,,1730.748,1731.2456000003815,1730.2304000000954,1730.7471000003814,1728.1968000001907,1730.230200000286,1731.2457000002862,1731.7463000001908,1731.7464000000953,1733.1633000001907,44.0,1733.1634000000954,1.0,1733.1721000003815,4.0,9.0,129.0,16.0,1.0,1.0,0.7,Time
,,S35,1,女,25,anonymized,Serial_Dependence_U,2023.2.3,Win32,60.24096385550618,,,,,,1733.1725,138.0,4.0,1733.172700000286,138.0,,,,1736.5298000001908,1737.0293000001907,1736.013400000095,1736.529700000286,1734.1799000000954,1736.0133000001908,1737.0293000001907,1737.5288000001908,1737.5289000000953,1738.8636000003814,156.0,1738.863700000286,1.0,1738.8727000002862,4.0,10.0,130.0,25.0,1.0,0.8,0.7,Time
,,S35,1,女,25,anonymized,Serial_Dependence_U,2023.2.3,Win32,60.24096385550618,,,,,,1738.8731000003816,69.0,4.0,1738.873200000286,69.0,,,,1743.0294000000954,1743.5286000003814,1742.5131000003814,1743.0294000000954,1739.879200000286,1742.5129000000954,1743.5286000003814,1744.0286000003814,1744.0286000003814,1744.8466000003814,175.0,1744.8468000001908,1.0,1744.855700000286,4.0,11.0,131.0,29.0,1.0,1.6,0.7,Time
,,S35,1,女,25,anonymized,Serial_Dependence_U,2023.2.3,Win32,60.24096385550618,,,,,,1744.8561000003815,115.0,4.0,1744.8562000002862,115.0,,,,1748.4298000001909,1748.9285,1747.913,1748.4297000002862,1745.846700000286,1747.9128000001908,1748.9286000003815,1749.4295,1749.4296000003817,1750.6641000003815,129.0,1750.6642000002862,1.0,1750.6729000000953,4.0,12.0,132.0,11.0,1.0,1.0,0.3,Time
,,S35,1,女,25,anonymized,Serial_Dependence_U,2023.2.3,Win32,60.24096385550618,,,,,,1750.6733000001907,66.0,4.0,1750.6734000000954,66.0,,,,1754.4294000000953,1754.9284000000953,1753.913700000286,1754.4294000000953,1751.6794000000953,1753.9135,1754.9285,1755.4285,1755.4287000002862,1756.1128000001906,169.0,1756.113,1.0,1756.122,4.0,13.0,133.0,7.0,1.0,1.2,0.7,Time
,,S35,1,女,25,anonymized,Serial_Dependence_U,2023.2.3,Win32,60.24096385550618,,,,,,1756.1224000000957,225.0,4.0,1756.1225,225.0,,,,1759.6628000001908,1760.161700000286,1759.146,1759.6626000003814,1757.1129000000954,1759.1458000001908,1760.161700000286,1760.661700000286,1760.6618000001906,1761.4635,179.0,1761.463700000286,1.0,1761.4726000003814,4.0,14.0,134.0,26.0,1.0,1.0,0.7,Time
,,S35,1,女,25,anonymized,Serial_Dependence_U,2023.2.3,Win32,60.24096385550618,,,,,,1761.4729000000953,205.0,4.0,1761.4731000003817,205.0,,,,1765.662200000286,1766.1616000003814,1765.1462000002862,1765.662,1762.480200000286,1765.146,1766.1616000003814,1766.6616000003814,1766.6616000003814,1767.8951000003815,117.0,1767.8952000002862,1.0,1767.9038000001908,4.0,15.0,135.0,24.0,1.0,1.6,0.3,Time
,,S35,1,女,25,anonymized,Serial_Dependence_U,2023.2.3,Win32,60.24096385550618,,,,,,1767.9043000001907,210.0,4.0,1767.9044000000954,210.0,,,,1772.0788000001908,1772.578700000286,1771.563200000286,1772.078700000286,1768.8961000003817,1771.5629000000954,1772.578700000286,1773.0798000001907,1773.0799000000954,1773.7459000000954,150.0,1773.7461000003814,1.0,1773.755800000191,4.0,16.0,136.0,4.0,1.0,1.6,0.3,Time
,,S35,1,女,25,anonymized,Serial_Dependence_U,2023.2.3,Win32,60.24096385550618,,,,,,1773.756200000286,309.0,4.0,1773.7563000001908,309.0,,,,1777.7132000002862,1778.211700000286,1777.195700000286,1777.713,1774.7622000002862,1777.1956000003815,1778.211700000286,1778.7115,1778.7116000003814,1779.7126000003814,134.0,1779.712700000286,1.0,1779.7215,4.0,17.0,137.0,28.0,1.0,1.4,0.7,Time
,,S35,1,女,25,anonymized,Serial_Dependence_U,2023.2.3,Win32,60.24096385550618,,,,,,1779.7218000001908,151.0,4.0,1779.722,151.0,,,,1783.312700000286,1783.811200000286,1782.7971000003815,1783.3125,1780.729,1782.796900000095,1783.8113000001908,1784.3115,1784.3115,1785.7618000001908,169.0,1785.7619000000957,1.0,1785.7708000001908,4.0,18.0,138.0,1.0,1.0,1.0,0.3,Time
,,S35,1,女,25,anonymized,Serial_Dependence_U,2023.2.3,Win32,60.24096385550618,,,,,,1785.7712000002862,230.0,4.0,1785.7713000001906,230.0,,,,1789.562700000286,1790.0613000001908,1789.0455,1789.5625,1786.7789000000953,1789.0455,1790.0613000001908,1790.5613000001908,1790.5613000001908,1791.2456000003815,76.0,1791.245800000191,1.0,1791.254700000286,4.0,19.0,139.0,12.0,1.0,1.2,0.3,Time
,,S35,1,女,25,anonymized,Serial_Dependence_U,2023.2.3,Win32,60.24096385550618,,,,,,1791.255200000286,199.0,4.0,1791.2553000001908,199.0,,,,1795.1959000000954,1795.6945,1794.678800000191,1795.195700000286,1792.245800000191,1794.6787000002862,1795.6946000003816,1796.194700000286,1796.1949000000957,1797.0948000001906,144.0,1797.094900000095,1.0,1797.1041000003815,4.0,20.0,140.0,18.0,1.0,1.4,0.7,Time
,,S35,1,女,25,anonymized,Serial_Dependence_U,2023.2.3,Win32,60.24096385550618,,,,,,1797.1045,254.0,4.0,1797.1046000003814,254.0,,,,1800.8617000002862,1801.361,1800.3455,1800.8616000003817,1798.112,1800.3453000001907,1801.361,1801.861200000286,1801.8613000001908,1803.5956000003812,184.0,1803.5958000001908,1.0,1803.604700000286,4.0,21.0,141.0,17.0,1.0,1.2,0.7,Time
,,S35,1,女,25,anonymized,Serial_Dependence_U,2023.2.3,Win32,60.24096385550618,,,,,,1803.6051000003813,85.0,4.0,1803.605200000286,85.0,,,,1806.961700000286,1807.461,1806.4455,1806.9616000003812,1804.6121000003811,1806.4453000001904,1807.461,1807.9608000001908,1807.9609000000955,1809.311700000286,148.0,1809.3118000001907,1.0,1809.3204000000956,4.0,22.0,142.0,15.0,1.0,0.8,0.7,Time
,,S35,1,女,25,anonymized,Serial_Dependence_U,2023.2.3,Win32,60.24096385550618,,,,,,1809.3208000001907,223.0,4.0,1809.3209000000957,223.0,,,,1813.095,1813.5953000001907,1812.5785,1813.0948000001904,1810.311700000286,1812.5784000000956,1813.5954000000957,1814.0943000001907,1814.0944000000957,1815.1126000003812,111.0,1815.1128000001904,1.0,1815.1228000001904,4.0,23.0,143.0,2.0,1.0,1.2,0.3,Time
,,S35,1,女,25,anonymized,Serial_Dependence_U,2023.2.3,Win32,60.24096385550618,,,,,,1815.123200000286,333.0,4.0,1815.1233000001907,333.0,,,,1818.5285,1819.0275,1818.012700000286,1818.5284000000956,1816.1455,1818.0126000003816,1819.0275,1819.527200000286,1819.5273000001907,1821.110700000286,149.0,1821.1108000001907,1.0,1821.1188000001907,4.0,24.0,144.0,0.0,1.0,0.8,0.3,Time
,,S35,1,女,25,anonymized,Serial_Dependence_U,2023.2.3,Win32,60.24096385550618,,,,,,1821.1191000003812,267.0,4.0,1821.1191000003812,267.0,,,,1825.2618000001908,1825.760700000286,1824.745,1825.2616000003816,1822.1125,1824.7448000001907,1825.760700000286,1826.2609000000955,1826.2609000000955,1827.2611000003812,150.0,1827.2612000002864,1.0,1827.2701000003813,4.0,25.0,145.0,9.0,1.0,1.6,0.7,Time
,,S35,1,女,25,anonymized,Serial_Dependence_U,2023.2.3,Win32,60.24096385550618,,,,,,1827.2704000000956,295.0,4.0,1827.2705,295.0,,,,1830.662100000381,1831.1608000001904,1830.145300000191,1830.6619000000956,1828.2786000003812,1830.1451000003813,1831.1609000000956,1831.6607000002864,1831.6608000001904,1832.8281000003813,100.0,1832.828300000191,1.0,1832.837,4.0,26.0,146.0,20.0,1.0,0.8,0.3,Time
,,S35,1,女,25,anonymized,Serial_Dependence_U,2023.2.3,Win32,60.24096385550618,,,,,,1832.8374000000956,181.0,4.0,1832.8376000003811,181.0,,,,1836.4285,1836.9271000003812,1835.9114000000957,1836.4284000000955,1833.845200000286,1835.9113000001907,1836.927200000286,1837.427,1837.4271000003812,1838.5111000003812,122.0,1838.5112000002864,1.0,1838.5209000000957,4.0,27.0,147.0,21.0,1.0,1.0,0.3,Time
,,S35,1,女,25,anonymized,Serial_Dependence_U,2023.2.3,Win32,60.24096385550618,,,,,,1838.5212000002864,193.0,4.0,1838.5213000001904,193.0,,,,1842.494200000286,1842.9937000002865,1841.9783000001903,1842.494,1839.511700000286,1841.9781000003816,1842.9937000002865,1843.494,1843.494,1844.061,52.0,1844.0611000003817,1.0,1844.071,4.0,28.0,148.0,3.0,1.0,1.4,0.3,Time
,,S35,1,女,25,anonymized,Serial_Dependence_U,2023.2.3,Win32,60.24096385550618,,,,,,1844.0715,321.0,4.0,1844.0716000003813,321.0,,,,1848.0618000001907,1848.5619000000956,1847.5451000003816,1848.061700000286,1845.0782000002864,1847.5449000000951,1848.562,1849.0602000002864,1849.0603000001909,1849.7446000003813,145.0,1849.7448000001907,1.0,1849.7543000001908,4.0,29.0,149.0,23.0,1.0,1.4,0.3,Time
,,S35,1,女,25,anonymized,Serial_Dependence_U,2023.2.3,Win32,60.24096385550618,,,,,,1849.7547000002864,23.0,5.0,1851.527,23.0,s,1.752099999904658,,1855.6946000003816,1856.1934000000956,1855.177200000286,1855.6945,1852.5447000002864,1855.1771000003816,1856.1935,1856.694,1856.6941000003812,1857.6773000001904,150.0,1857.6774000000955,1.0,1857.6865,5.0,0.0,150.0,19.0,1.0,1.6,0.7,Time
,,S35,1,女,25,anonymized,Serial_Dependence_U,2023.2.3,Win32,60.24096385550618,,,,,,1857.6869000000956,347.0,5.0,1857.6891000003811,347.0,,,,1861.8451000003813,1862.3433000001908,1861.3274000000956,1861.8448000001904,1858.6943000001909,1861.327200000286,1862.3434000000957,1862.8433000001908,1862.8434000000957,1864.295700000286,116.0,1864.296,1.0,1864.3053000001908,5.0,1.0,151.0,29.0,1.0,1.6,0.7,Time
,,S35,1,女,25,anonymized,Serial_Dependence_U,2023.2.3,Win32,60.24096385550618,,,,,,1864.3056000003812,16.0,5.0,1864.3058000001909,16.0,,,,1868.2945,1868.7933000001904,1867.777700000286,1868.2945,1865.3108000001905,1867.7776000003817,1868.7933000001904,1869.2932000002857,1869.2933000001904,1870.6101000003816,154.0,1870.6103000001904,1.0,1870.6191000003816,5.0,2.0,152.0,3.0,1.0,1.4,0.3,Time
,,S35,1,女,25,anonymized,Serial_Dependence_U,2023.2.3,Win32,60.24096385550618,,,,,,1870.6195,301.0,5.0,1870.6195,301.0,,,,1874.394400000096,1874.8932000002865,1873.8772000002864,1874.3942000002864,1871.6117000002864,1873.8770000000004,1874.8933000001912,1875.3932000002865,1875.3933000001912,1876.6769000000957,103.0,1876.6771000003816,1.0,1876.686,5.0,3.0,153.0,2.0,1.0,1.2,0.3,Time
,,S35,1,女,25,anonymized,Serial_Dependence_U,2023.2.3,Win32,60.24096385550618,,,,,,1876.6865000000005,319.0,5.0,1876.6866000003813,319.0,,,,1880.677800000191,1881.1761000003817,1880.161,1880.6776000003813,1877.693800000191,1880.160900000096,1881.1762000002864,1881.6769000000957,1881.6769000000957,1882.9105000000004,85.0,1882.9106000003817,1.0,1882.9205,5.0,4.0,154.0,23.0,1.0,1.4,0.3,Time
,,S35,1,女,25,anonymized,Serial_Dependence_U,2023.2.3,Win32,60.24096385550618,,,,,,1882.920900000096,182.0,5.0,1882.9210000000005,182.0,,,,1887.0607000002865,1887.5595000000003,1886.5445000000004,1887.0605,1883.9105000000004,1886.544300000191,1887.5595000000003,1888.059400000096,1888.0595000000003,1889.0272000002865,103.0,1889.0274000000957,1.0,1889.0365,5.0,5.0,155.0,9.0,1.0,1.6,0.7,Time
,,S35,1,女,25,anonymized,Serial_Dependence_U,2023.2.3,Win32,60.24096385550618,,,,,,1889.0370000000005,185.0,5.0,1889.0370000000005,185.0,,,,1892.977300000191,1893.476200000286,1892.4608000001908,1892.9772000002863,1890.0273000001907,1892.4606000003816,1893.476200000286,1893.9764000000955,1893.9764000000955,1894.5787000002863,141.0,1894.579,1.0,1894.5937000002864,5.0,6.0,156.0,8.0,1.0,1.4,0.7,Time
,,S35,1,女,25,anonymized,Serial_Dependence_U,2023.2.3,Win32,60.24096385550618,,,,,,1894.5943000001907,60.0,5.0,1894.5949000000955,60.0,,,,1898.3939000000955,1898.893700000286,1897.8772000002864,1898.3938000001908,1895.6103000001908,1897.8771000003817,1898.893700000286,1899.3927000002864,1899.3927000002864,1899.809900000096,110.0,1899.8101000003817,1.0,1899.8191000003817,5.0,7.0,157.0,12.0,1.0,1.2,0.3,Time
,,S35,1,女,25,anonymized,Serial_Dependence_U,2023.2.3,Win32,60.24096385550618,,,,,,1899.8195,8.0,5.0,1899.8196000003816,8.0,,,,1903.3936000003816,1903.8927000002864,1902.8770000000004,1903.3935,1900.8102000002864,1902.876900000096,1903.8927000002864,1904.3926000003817,1904.3926000003817,1905.7937000002864,143.0,1905.793800000191,1.0,1905.8038000001911,5.0,8.0,158.0,11.0,1.0,1.0,0.3,Time
,,S35,1,女,25,anonymized,Serial_Dependence_U,2023.2.3,Win32,60.24096385550618,,,,,,1905.8042000002863,352.0,5.0,1905.8044000000957,352.0,,,,1909.1774000000955,1909.6757000002865,1908.6605000000004,1909.1773000001908,1906.7936000003813,1908.660300000191,1909.675800000191,1910.175900000096,1910.175900000096,1911.3601000003816,123.0,1911.3603000001908,1.0,1911.369200000286,5.0,9.0,159.0,20.0,1.0,0.8,0.3,Time
,,S35,1,女,25,anonymized,Serial_Dependence_U,2023.2.3,Win32,60.24096385550618,,,,,,1911.3696000003813,326.0,5.0,1911.3697000002865,326.0,,,,1914.7437000002865,1915.2426000003816,1914.2265,1914.7435,1912.36,1914.2264000000955,1915.2426000003816,1915.7423000001909,1915.742400000096,1916.892800000191,167.0,1916.892900000096,1.0,1916.901800000191,5.0,10.0,160.0,10.0,1.0,0.8,0.3,Time
,,S35,1,女,25,anonymized,Serial_Dependence_U,2023.2.3,Win32,60.24096385550618,,,,,,1916.9023000001907,86.0,5.0,1916.9023000001907,86.0,,,,1920.4931000003817,1920.992400000096,1919.9764000000955,1920.492900000096,1917.9101000003816,1919.9763000001908,1920.992400000096,1921.4923000001909,1921.492400000096,1922.209900000096,170.0,1922.21,1.0,1922.2192000002865,5.0,11.0,161.0,1.0,1.0,1.0,0.3,Time
,,S35,1,女,25,anonymized,Serial_Dependence_U,2023.2.3,Win32,60.24096385550618,,,,,,1922.219700000286,97.0,5.0,1922.2198000001908,97.0,,,,1926.1602000002863,1926.6587000002864,1925.6441000003813,1926.1600000000003,1923.21,1925.6438000001908,1926.6588000001911,1927.159,1927.159,1927.7934000000955,85.0,1927.7934000000955,1.0,1927.802200000286,5.0,12.0,162.0,18.0,1.0,1.4,0.7,Time
,,S35,1,女,25,anonymized,Serial_Dependence_U,2023.2.3,Win32,60.24096385550618,,,,,,1927.8027000002864,356.0,5.0,1927.802900000096,356.0,,,,1931.1597000002864,1931.6588000001911,1930.642800000191,1931.1596000003813,1928.8097000002865,1930.6426000003817,1931.6589000000956,1932.1586000003815,1932.1587000002864,1932.7104000000957,45.0,1932.710700000286,1.0,1932.7198000001908,5.0,13.0,163.0,15.0,1.0,0.8,0.7,Time
,,S35,1,女,25,anonymized,Serial_Dependence_U,2023.2.3,Win32,60.24096385550618,,,,,,1932.7202000002865,168.0,5.0,1932.720300000191,168.0,,,,1936.46,1936.9588000001909,1935.9435000000003,1936.459900000096,1933.709800000191,1935.943300000191,1936.958900000096,1937.4590000000003,1937.4590000000003,1940.359400000096,139.0,1940.3595,1.0,1940.3694000000955,5.0,14.0,164.0,7.0,1.0,1.2,0.7,Time
,,S35,1,女,25,anonymized,Serial_Dependence_U,2023.2.3,Win32,60.24096385550618,,,,,,1940.369800000191,6.0,5.0,1940.369900000096,6.0,,,,1943.7601000003813,1944.2586000003816,1943.242800000191,1943.7599000000955,1941.3762000002864,1943.2425000000003,1944.2586000003816,1944.7585000000004,1944.7586000003816,1945.392400000096,90.0,1945.3926000003817,1.0,1945.4015000000004,5.0,15.0,165.0,0.0,1.0,0.8,0.3,Time
,,S35,1,女,25,anonymized,Serial_Dependence_U,2023.2.3,Win32,60.24096385550618,,,,,,1945.402,6.0,5.0,1945.4021000003816,6.0,,,,1949.1760000000004,1949.6752000002864,1948.659,1949.175900000096,1946.3926000003817,1948.659,1949.6752000002864,1950.175100000382,1950.175100000382,1952.4094000000955,169.0,1952.4095,1.0,1952.418900000096,5.0,16.0,166.0,22.0,1.0,1.2,0.3,Time
,,S35,1,女,25,anonymized,Serial_Dependence_U,2023.2.3,Win32,60.24096385550618,,,,,,1952.419400000096,229.0,5.0,1952.4195000000004,229.0,,,,1955.9595000000004,1956.4584000000957,1955.4428000001908,1955.959400000096,1953.4095,1955.4426000003816,1956.4585,1956.9583000001908,1956.9584000000957,1957.676300000191,114.0,1957.676400000096,1.0,1957.6855,5.0,17.0,167.0,16.0,1.0,1.0,0.7,Time
,,S35,1,女,25,anonymized,Serial_Dependence_U,2023.2.3,Win32,60.24096385550618,,,,,,1957.6859000000957,350.0,5.0,1957.686,350.0,,,,1961.859300000191,1962.3583000001909,1961.3426000003813,1961.8592000002864,1958.6762000002864,1961.3424000000955,1962.3583000001909,1962.858800000191,1962.858900000096,1963.5427000002865,180.0,1963.5429000000956,1.0,1963.5515,5.0,18.0,168.0,4.0,1.0,1.6,0.3,Time
,,S35,1,女,25,anonymized,Serial_Dependence_U,2023.2.3,Win32,60.24096385550618,,,,,,1963.5519000000957,178.0,5.0,1963.5521000003816,178.0,,,,1967.5427000002865,1968.041600000381,1967.0258000001909,1967.5425,1964.5592000002864,1967.0257000002864,1968.041800000191,1968.541400000096,1968.541400000096,1970.575300000191,134.0,1970.575400000096,1.0,1970.585,5.0,19.0,169.0,13.0,1.0,1.4,0.3,Time
,,S35,1,女,25,anonymized,Serial_Dependence_U,2023.2.3,Win32,60.24096385550618,,,,,,1970.5853000001912,261.0,5.0,1970.5854000000957,261.0,,,,1974.175900000096,1974.6747000002863,1973.6595,1974.1757000002865,1971.5918000001911,1973.6593000001908,1974.6748000001908,1975.1745,1975.1746000003816,1975.975400000096,137.0,1975.9755,1.0,1975.9846000003815,5.0,20.0,170.0,21.0,1.0,1.0,0.3,Time
,,S35,1,女,25,anonymized,Serial_Dependence_U,2023.2.3,Win32,60.24096385550618,,,,,,1975.985,179.0,5.0,1975.985200000286,179.0,,,,1979.943,1980.4415000000004,1979.4260000000004,1979.9427000002863,1976.9922000002864,1979.425800000191,1980.4416000003816,1980.9422000002864,1980.9423000001912,1981.4425,117.0,1981.4427000002863,1.0,1981.4521000003813,5.0,21.0,171.0,28.0,1.0,1.4,0.7,Time
,,S35,1,女,25,anonymized,Serial_Dependence_U,2023.2.3,Win32,60.24096385550618,,,,,,1981.452400000096,143.0,5.0,1981.4526000003816,143.0,,,,1984.9922000002864,1985.4915,1984.4758000001912,1984.992,1982.4425,1984.4757000002865,1985.4916000003816,1985.9916000003816,1985.9916000003816,1987.6927000002863,117.0,1987.6928000001908,1.0,1987.7025000000003,5.0,22.0,172.0,26.0,1.0,1.0,0.7,Time
,,S35,1,女,25,anonymized,Serial_Dependence_U,2023.2.3,Win32,60.24096385550618,,,,,,1987.702900000096,71.0,5.0,1987.7030000000004,71.0,,,,1991.8921000003816,1992.391,1991.3755,1991.8920000000005,1988.708900000096,1991.3753000001911,1992.391,1992.8914000000957,1992.8914000000957,1993.8922000002865,112.0,1993.892300000191,1.0,1993.9011000003816,5.0,23.0,173.0,24.0,1.0,1.6,0.3,Time
,,S35,1,女,25,anonymized,Serial_Dependence_U,2023.2.3,Win32,60.24096385550618,,,,,,1993.9015000000004,217.0,5.0,1993.9017000002864,217.0,,,,1997.4260000000004,1997.9246000003816,1996.925100000382,1997.425900000096,1994.8920000000005,1996.925,1997.9248000001908,1998.4243000001911,1998.4244000000956,1999.4425,143.0,1999.4428000001908,1.0,1999.4522000002864,5.0,24.0,174.0,6.0,1.0,1.0,0.7,Time
,,S35,1,女,25,anonymized,Serial_Dependence_U,2023.2.3,Win32,60.24096385550618,,,,,,1999.4526000003816,125.0,5.0,1999.4527000002863,125.0,,,,2002.7917000002865,2003.2913000001909,2002.2757000002864,2002.7915000000005,2000.4421000003815,2002.2755,2003.291400000096,2003.7909000000957,2003.791,2004.7752000002863,47.0,2004.7753000001908,1.0,2004.7841000003816,5.0,25.0,175.0,25.0,1.0,0.8,0.7,Time
,,S35,1,女,25,anonymized,Serial_Dependence_U,2023.2.3,Win32,60.24096385550618,,,,,,2004.7845,337.0,5.0,2004.7847000002864,337.0,,,,2008.1254000000956,2008.624300000191,2007.6087000002865,2008.1252000002864,2005.7755,2007.6085000000005,2008.624300000191,2009.1253000001911,2009.1254000000956,2010.791900000096,132.0,2010.7920000000004,1.0,2010.8011000003817,5.0,26.0,176.0,5.0,1.0,0.8,0.7,Time
,,S35,1,女,25,anonymized,Serial_Dependence_U,2023.2.3,Win32,60.24096385550618,,,,,,2010.8015,4.0,5.0,2010.8016000003815,4.0,,,,2014.992400000096,2015.4907000002863,2014.4751000003816,2014.9923000001909,2011.8085,2014.4750000000004,2015.4907000002863,2015.9906000003816,2015.9907000002863,2016.691300000191,112.0,2016.6915000000004,1.0,2016.702,5.0,27.0,177.0,14.0,1.0,1.6,0.3,Time
,,S35,1,女,25,anonymized,Serial_Dependence_U,2023.2.3,Win32,60.24096385550618,,,,,,2016.702300000191,258.0,5.0,2016.7025000000003,258.0,,,,2020.441800000191,2020.940600000382,2019.925100000382,2020.4417000002863,2017.6917000002863,2019.9249000000957,2020.940600000382,2021.440700000286,2021.4408000001908,2022.5582000002864,135.0,2022.5583000001911,1.0,2022.5671000003815,5.0,28.0,178.0,27.0,1.0,1.2,0.7,Time
,,S35,1,女,25,anonymized,Serial_Dependence_U,2023.2.3,Win32,60.24096385550618,,,,,,2022.5675,96.0,5.0,2022.5677000002863,96.0,,,,2026.3084000000956,2026.807400000096,2025.7922000002864,2026.3083000001911,2023.5591000003812,2025.7920000000004,2026.807400000096,2027.3076000003816,2027.3077000002863,2028.5744000000957,84.0,2028.5745,1.0,2028.5834000000957,5.0,29.0,179.0,17.0,1.0,1.2,0.7,Time
,,S35,1,女,25,anonymized,Serial_Dependence_U,2023.2.3,Win32,60.24096385550618,,,,,,2028.583900000096,329.0,6.0,2030.3236000003817,329.0,s,1.7274000000952583,,2034.108400000096,2034.6072000002864,2033.5912000002863,2034.1082000002864,2031.3244000000957,2033.5911000003816,2034.6073000001911,2035.1072000002864,2035.1073000001911,2038.1412000002863,161.0,2038.1413000001908,1.0,2038.1510000000003,6.0,0.0,180.0,12.0,1.0,1.2,0.3,Time
,,S35,1,女,25,anonymized,Serial_Dependence_U,2023.2.3,Win32,60.24096385550618,,,,,,2038.151300000191,355.0,6.0,2038.1531000003813,355.0,,,,2042.124800000191,2042.623700000286,2041.608,2042.1246000003816,2039.141900000096,2041.6078000001908,2042.6238000001908,2043.1238000001908,2043.1239000000955,2045.2574000000957,165.0,2045.2575,1.0,2045.2667000002864,6.0,1.0,181.0,13.0,1.0,1.4,0.3,Time
,,S35,1,女,25,anonymized,Serial_Dependence_U,2023.2.3,Win32,60.24096385550618,,,,,,2045.2671000003816,292.0,6.0,2045.267300000191,292.0,,,,2049.4577000002864,2049.956900000096,2048.941400000096,2049.4575000000004,2046.2742000002863,2048.9412000002862,2049.956900000096,2050.4571000003816,2050.4571000003816,2051.7574000000955,242.0,2051.7575,1.0,2051.766900000096,6.0,2.0,182.0,24.0,1.0,1.6,0.3,Time
,,S35,1,女,25,anonymized,Serial_Dependence_U,2023.2.3,Win32,60.24096385550618,,,,,,2051.767300000191,163.0,6.0,2051.767400000096,163.0,,,,2055.108,2055.6065000000003,2054.5907000002862,2055.1078000001908,2052.757600000382,2054.590600000381,2055.6066000003816,2056.107400000096,2056.107400000096,2057.0240000000003,164.0,2057.0241000003816,1.0,2057.0327000002862,6.0,3.0,183.0,15.0,1.0,0.8,0.7,Time
,,S35,1,女,25,anonymized,Serial_Dependence_U,2023.2.3,Win32,60.24096385550618,,,,,,2057.0332000002863,261.0,6.0,2057.033300000191,261.0,,,,2061.224300000191,2061.723600000382,2060.7085,2061.224200000286,2058.0407000002865,2060.7082000002865,2061.7237000002865,2062.2239000000955,2062.2239000000955,2063.724600000381,130.0,2063.724800000191,1.0,2063.733900000096,6.0,4.0,184.0,14.0,1.0,1.6,0.3,Time
,,S35,1,女,25,anonymized,Serial_Dependence_U,2023.2.3,Win32,60.24096385550618,,,,,,2063.734300000191,35.0,6.0,2063.734400000096,35.0,,,,2067.6745,2068.1735000000003,2067.1580000000004,2067.674300000191,2064.724900000096,2067.157800000191,2068.1736000003816,2068.673,2068.673100000381,2069.2909000000955,160.0,2069.291,1.0,2069.2999000000955,6.0,5.0,185.0,28.0,1.0,1.4,0.7,Time
,,S35,1,女,25,anonymized,Serial_Dependence_U,2023.2.3,Win32,60.24096385550618,,,,,,2069.300300000191,319.0,6.0,2069.3006000003816,319.0,,,,2073.0735000000004,2073.5731000003816,2072.5580000000004,2073.073400000096,2070.2907000002865,2072.5577000002863,2073.5732000002863,2074.0732000002863,2074.073300000191,2074.7567000002864,134.0,2074.756900000096,1.0,2074.765800000191,6.0,6.0,186.0,2.0,1.0,1.2,0.3,Time
,,S35,1,女,25,anonymized,Serial_Dependence_U,2023.2.3,Win32,60.24096385550618,,,,,,2074.7663000001908,271.0,6.0,2074.7664000000955,271.0,,,,2078.524400000096,2079.023,2078.0073000001908,2078.524300000191,2075.7740000000003,2078.0072000002865,2079.023100000382,2079.523600000381,2079.523700000286,2083.156600000382,130.0,2083.1567000002865,1.0,2083.166400000096,6.0,7.0,187.0,17.0,1.0,1.2,0.7,Time
,,S35,1,女,25,anonymized,Serial_Dependence_U,2023.2.3,Win32,60.24096385550618,,,,,,2083.1667000002863,258.0,6.0,2083.166900000096,258.0,,,,2087.1071000003817,2087.606,2086.5904000000955,2087.1070000000004,2084.157300000191,2086.590200000286,2087.606,2088.106200000286,2088.106200000286,2088.7070000000003,116.0,2088.7072000002863,1.0,2088.716400000096,6.0,8.0,188.0,18.0,1.0,1.4,0.7,Time
,,S35,1,女,25,anonymized,Serial_Dependence_U,2023.2.3,Win32,60.24096385550618,,,,,,2088.716800000191,96.0,6.0,2088.7169000000954,96.0,,,,2092.257700000286,2092.7561000003816,2091.740800000191,2092.2575,2089.7075000000004,2091.7406000003816,2092.7561000003816,2093.256300000191,2093.256400000096,2093.7896000003816,132.0,2093.7897000002863,1.0,2093.7986000003816,6.0,9.0,189.0,16.0,1.0,1.0,0.7,Time
,,S35,1,女,25,anonymized,Serial_Dependence_U,2023.2.3,Win32,60.24096385550618,,,,,,2093.798900000096,102.0,6.0,2093.7990000000004,102.0,,,,2097.3735,2097.8727000002864,2096.8570000000004,2097.3734000000954,2094.7907000002865,2096.856800000191,2097.8727000002864,2098.372800000191,2098.372900000096,2099.307900000096,148.0,2099.3081000003817,1.0,2099.3171000003817,6.0,10.0,190.0,1.0,1.0,1.0,0.3,Time
,,S35,1,女,25,anonymized,Serial_Dependence_U,2023.2.3,Win32,60.24096385550618,,,,,,2099.3175,41.0,6.0,2099.3177000002865,41.0,,,,2102.890400000096,2103.389200000286,2102.3740000000003,2102.8902000002863,2100.307100000381,2102.3739000000955,2103.389300000191,2103.889300000191,2103.889300000191,2106.757,150.0,2106.7573000001908,1.0,2106.7672000002863,6.0,11.0,191.0,11.0,1.0,1.0,0.3,Time
,,S35,1,女,25,anonymized,Serial_Dependence_U,2023.2.3,Win32,60.24096385550618,,,,,,2106.7676000003817,277.0,6.0,2106.767800000191,277.0,,,,2110.506900000096,2111.005700000286,2109.989600000382,2110.5067000002864,2107.7566000003817,2109.989600000382,2111.005700000286,2111.505700000286,2111.505800000191,2111.690100000382,148.0,2111.6903000001907,1.0,2111.6994000000955,6.0,12.0,192.0,7.0,1.0,1.2,0.7,Time
,,S35,1,女,25,anonymized,Serial_Dependence_U,2023.2.3,Win32,60.24096385550618,,,,,,2111.699700000286,310.0,6.0,2111.699800000191,310.0,,,,2115.0735000000004,2115.5724000000955,2114.5572000002862,2115.073300000191,2112.689900000096,2114.557100000381,2115.5724000000955,2116.072200000286,2116.072300000191,2117.689400000096,173.0,2117.6895000000004,1.0,2117.6986000003817,6.0,13.0,193.0,20.0,1.0,0.8,0.3,Time
,,S35,1,女,25,anonymized,Serial_Dependence_U,2023.2.3,Win32,60.24096385550618,,,,,,2117.698900000096,143.0,6.0,2117.699,143.0,,,,2121.689800000191,2122.188900000096,2121.1737000002863,2121.6897000002864,2118.7065,2121.1736000003816,2122.188900000096,2122.688900000096,2122.6890000000003,2124.840800000191,645.0,2124.840900000096,1.0,2124.8501000003816,6.0,14.0,194.0,3.0,1.0,1.4,0.3,Time
,,S35,1,女,25,anonymized,Serial_Dependence_U,2023.2.3,Win32,60.24096385550618,,,,,,2124.8505,83.0,6.0,2124.8507000002865,83.0,,,,2128.989600000382,2129.488900000096,2128.4739000000955,2128.9895,2125.8404000000955,2128.473600000382,2129.488900000096,2129.988800000191,2129.988900000096,2130.956800000191,184.0,2130.9570000000003,1.0,2130.968800000191,6.0,15.0,195.0,29.0,1.0,1.6,0.7,Time
,,S35,1,女,25,anonymized,Serial_Dependence_U,2023.2.3,Win32,60.24096385550618,,,,,,2130.9693000001907,349.0,6.0,2130.9694000000954,349.0,,,,2134.773200000286,2135.2720000000004,2134.257100000382,2134.773,2131.9895,2134.256900000096,2135.2720000000004,2135.771900000096,2135.771900000096,2136.3231000003816,183.0,2136.3232000002863,1.0,2136.3321000003816,6.0,16.0,196.0,22.0,1.0,1.2,0.3,Time
,,S35,1,女,25,anonymized,Serial_Dependence_U,2023.2.3,Win32,60.24096385550618,,,,,,2136.3326000003817,170.0,6.0,2136.3326000003817,170.0,,,,2139.8900000000003,2140.3889000000954,2139.372900000096,2139.889900000096,2137.34,2139.3727000002864,2140.389,2140.891,2140.891100000382,2142.4062000002864,182.0,2142.406400000096,1.0,2142.4152000002864,6.0,17.0,197.0,26.0,1.0,1.0,0.7,Time
,,S35,1,女,25,anonymized,Serial_Dependence_U,2023.2.3,Win32,60.24096385550618,,,,,,2142.4157000002865,137.0,6.0,2142.4158000001908,137.0,,,,2145.9732000002864,2146.471800000191,2145.456300000191,2145.9730000000004,2143.423100000381,2145.456200000286,2146.471800000191,2146.9719000000955,2146.972,2148.2555,171.0,2148.255700000286,1.0,2148.264600000381,6.0,18.0,198.0,6.0,1.0,1.0,0.7,Time
,,S35,1,女,25,anonymized,Serial_Dependence_U,2023.2.3,Win32,60.24096385550618,,,,,,2148.2650000000003,62.0,6.0,2148.2652000002863,62.0,,,,2151.8566000003816,2152.3552000002865,2151.3398000001907,2151.856400000096,2149.272800000191,2151.339600000382,2152.3552000002865,2152.8552000002865,2152.8552000002865,2153.505900000096,152.0,2153.5060000000003,1.0,2153.5151000003816,6.0,19.0,199.0,21.0,1.0,1.0,0.3,Time
,,S35,1,女,25,anonymized,Serial_Dependence_U,2023.2.3,Win32,60.24096385550618,,,,,,2153.5155000000004,298.0,6.0,2153.5155000000004,298.0,,,,2157.706300000191,2158.204800000191,2157.1897000002864,2157.706200000286,2154.523,2157.1895000000004,2158.204900000096,2158.7057000002865,2158.7059000000954,2160.222300000191,96.0,2160.2225000000003,1.0,2160.2316000003816,6.0,20.0,200.0,4.0,1.0,1.6,0.3,Time
,,S35,1,女,25,anonymized,Serial_Dependence_U,2023.2.3,Win32,60.24096385550618,,,,,,2160.2320000000004,158.0,6.0,2160.2321000003817,158.0,,,,2164.3725000000004,2164.871900000096,2163.856200000286,2164.372400000096,2161.222900000096,2163.856,2164.871900000096,2165.371700000286,2165.371800000191,2166.5887000002863,159.0,2166.588900000096,1.0,2166.597900000096,6.0,21.0,201.0,9.0,1.0,1.6,0.7,Time
,,S35,1,女,25,anonymized,Serial_Dependence_U,2023.2.3,Win32,60.24096385550618,,,,,,2166.598400000096,242.0,6.0,2166.5985,242.0,,,,2169.9725000000003,2170.4714000000954,2169.4564000000955,2169.972400000096,2167.5897000002865,2169.456100000382,2170.4715,2170.9717000002865,2170.9719000000955,2172.1222000002863,117.0,2172.122400000096,1.0,2172.131800000191,6.0,22.0,202.0,0.0,1.0,0.8,0.3,Time
,,S35,1,女,25,anonymized,Serial_Dependence_U,2023.2.3,Win32,60.24096385550618,,,,,,2172.1322000002865,80.0,6.0,2172.1324000000955,80.0,,,,2176.1059000000955,2176.604800000191,2175.5890000000004,2176.105800000191,2173.1222000002863,2175.588900000096,2176.604900000096,2177.105,2177.105,2177.2052000002864,73.0,2177.205400000096,1.0,2177.214600000382,6.0,23.0,203.0,23.0,1.0,1.4,0.3,Time
,,S35,1,女,25,anonymized,Serial_Dependence_U,2023.2.3,Win32,60.24096385550618,,,,,,2177.215,154.0,6.0,2177.215100000382,154.0,,,,2180.972300000191,2181.4715,2180.4555,2180.972200000286,2178.222300000191,2180.455300000191,2181.471600000382,2181.9712000002864,2181.9712000002864,2182.3057000002864,134.0,2182.305800000191,1.0,2182.314800000191,6.0,24.0,204.0,27.0,1.0,1.2,0.7,Time
,,S35,1,女,25,anonymized,Serial_Dependence_U,2023.2.3,Win32,60.24096385550618,,,,,,2182.3152000002865,224.0,6.0,2182.3153000001907,224.0,,,,2185.672,2186.1715000000004,2185.1549000000955,2185.671800000191,2183.3225,2185.154800000191,2186.1716000003817,2186.671300000191,2186.671400000096,2187.288700000286,174.0,2187.288800000191,1.0,2187.297600000382,6.0,25.0,205.0,5.0,1.0,0.8,0.7,Time
,,S35,1,女,25,anonymized,Serial_Dependence_U,2023.2.3,Win32,60.24096385550618,,,,,,2187.298,265.0,6.0,2187.298100000381,265.0,,,,2190.6716000003817,2191.1712000002863,2190.155400000096,2190.6715000000004,2188.289100000381,2190.155300000191,2191.1712000002863,2191.6710000000003,2191.6711000003816,2192.038700000286,153.0,2192.038800000191,1.0,2192.0479000000955,6.0,26.0,206.0,10.0,1.0,0.8,0.3,Time
,,S35,1,女,25,anonymized,Serial_Dependence_U,2023.2.3,Win32,60.24096385550618,,,,,,2192.0486000003816,50.0,6.0,2192.048800000191,50.0,,,,2195.388300000191,2195.8894000000955,2194.8725000000004,2195.3881000003817,2193.0389000000955,2194.872300000191,2195.8895,2196.3880000000004,2196.3882000002864,2196.871700000286,185.0,2196.871700000286,1.0,2196.880800000191,6.0,27.0,207.0,25.0,1.0,0.8,0.7,Time
,,S35,1,女,25,anonymized,Serial_Dependence_U,2023.2.3,Win32,60.24096385550618,,,,,,2196.8812000002863,114.0,6.0,2196.881300000191,114.0,,,,2200.8386000003816,2201.3379000000955,2200.322200000286,2200.838400000096,2197.8887000002865,2200.322,2201.3379000000955,2201.8377000002865,2201.8377000002865,2202.338100000381,126.0,2202.338300000191,1.0,2202.347300000191,6.0,28.0,208.0,8.0,1.0,1.4,0.7,Time
,,S35,1,女,25,anonymized,Serial_Dependence_U,2023.2.3,Win32,60.24096385550618,,,,,,2202.3477000002863,202.0,6.0,2202.347800000191,202.0,,,,2206.505100000382,2207.0042000002863,2205.9887000002864,2206.505,2203.355600000382,2205.9885000000004,2207.004300000191,2207.5045,2207.5046000003817,2207.9717000002865,150.0,2207.9719000000955,1.0,2207.981200000286,6.0,29.0,209.0,19.0,1.0,1.6,0.7,Time
,,S35,1,女,25,anonymized,Serial_Dependence_U,2023.2.3,Win32,60.24096385550618,,,,,,2207.9816000003816,80.0,7.0,2209.8210000000004,80.0,s,1.8173999996183736,,2213.388400000096,2213.887300000191,2212.871900000096,2213.3882000002864,2210.838300000191,2212.871700000286,2213.887400000096,2214.387400000096,2214.387400000096,2215.970900000096,168.0,2215.971,1.0,2215.979800000191,7.0,0.0,210.0,26.0,1.0,1.0,0.7,Time
,,S35,1,女,25,anonymized,Serial_Dependence_U,2023.2.3,Win32,60.24096385550618,,,,,,2215.9802000002865,214.0,7.0,2215.981900000096,214.0,,,,2219.3554000000954,2219.8540000000003,2218.8387000002863,2219.3552000002865,2216.9719000000955,2218.8385000000003,2219.8542000002863,2220.3540000000003,2220.3540000000003,2220.938,208.0,2220.9382000002865,1.0,2220.947300000191,7.0,1.0,211.0,20.0,1.0,0.8,0.3,Time
,,S35,1,女,25,anonymized,Serial_Dependence_U,2023.2.3,Win32,60.24096385550618,,,,,,2220.947700000286,38.0,7.0,2220.947800000191,38.0,,,,2224.3215,2224.8212000002864,2223.804300000191,2224.321400000096,2221.9379000000954,2223.8042000002865,2224.821300000191,2225.3205000000003,2225.320600000381,2225.538300000191,196.0,2225.538300000191,1.0,2225.5472000002865,7.0,2.0,212.0,0.0,1.0,0.8,0.3,Time
,,S35,1,女,25,anonymized,Serial_Dependence_U,2023.2.3,Win32,60.24096385550618,,,,,,2225.547700000286,303.0,7.0,2225.547800000191,303.0,,,,2228.9044000000954,2229.4036000003816,2228.3882000002864,2228.904300000191,2226.5550000000003,2228.3880000000004,2229.4036000003816,2229.9041000003817,2229.9042000002864,2230.2046000003816,247.0,2230.204800000191,1.0,2230.2142000002864,7.0,3.0,213.0,25.0,1.0,0.8,0.7,Time
,,S35,1,女,25,anonymized,Serial_Dependence_U,2023.2.3,Win32,60.24096385550618,,,,,,2230.214600000382,342.0,7.0,2230.2147000002865,342.0,,,,2233.5545,2234.0537000002864,2233.038700000286,2233.5545,2231.2050000000004,2233.0384000000954,2234.0537000002864,2234.554100000382,2234.554100000382,2235.0047000002864,200.0,2235.004800000191,1.0,2235.0137000002865,7.0,4.0,214.0,15.0,1.0,0.8,0.7,Time
,,S35,1,女,25,anonymized,Serial_Dependence_U,2023.2.3,Win32,60.24096385550618,,,,,,2235.014100000382,84.0,7.0,2235.014200000286,84.0,,,,2238.971,2239.470100000381,2238.454300000191,2238.970900000096,2236.0215000000003,2238.454200000286,2239.4702000002862,2239.970400000096,2239.9706000003816,2240.1376000003816,150.0,2240.137800000191,1.0,2240.1465000000003,7.0,5.0,215.0,8.0,1.0,1.4,0.7,Time
,,S35,1,女,25,anonymized,Serial_Dependence_U,2023.2.3,Win32,60.24096385550618,,,,,,2240.146900000096,275.0,7.0,2240.1471000003817,275.0,,,,2243.7206000003816,2244.2212000002864,2243.204200000286,2243.7205000000004,2241.138300000191,2243.204,2244.2214000000954,2244.7205000000004,2244.7207000002863,2245.3212000002864,175.0,2245.321300000191,1.0,2245.3301000003817,7.0,6.0,216.0,21.0,1.0,1.0,0.3,Time
,,S35,1,女,25,anonymized,Serial_Dependence_U,2023.2.3,Win32,60.24096385550618,,,,,,2245.3305,231.0,7.0,2245.3306000003818,231.0,,,,2248.8714000000955,2249.3705000000004,2248.3545000000004,2248.871300000191,2246.3219000000954,2248.354400000096,2249.3705000000004,2249.870400000096,2249.8705000000004,2251.088100000381,181.0,2251.088300000191,1.0,2251.097200000286,7.0,7.0,217.0,16.0,1.0,1.0,0.7,Time
,,S35,1,女,25,anonymized,Serial_Dependence_U,2023.2.3,Win32,60.24096385550618,,,,,,2251.0976000003816,295.0,7.0,2251.0977000002863,295.0,,,,2255.2716000003816,2255.770300000191,2254.7549000000954,2255.271400000096,2252.088,2254.7546000003817,2255.770300000191,2256.2704000000954,2256.2704000000954,2256.8212000002864,168.0,2256.821300000191,1.0,2256.830300000191,7.0,8.0,218.0,24.0,1.0,1.6,0.3,Time
,,S35,1,女,25,anonymized,Serial_Dependence_U,2023.2.3,Win32,60.24096385550618,,,,,,2256.8307000002865,136.0,7.0,2256.8307000002865,136.0,,,,2260.5879000000955,2261.0865000000003,2260.070900000096,2260.5879000000955,2257.8371000003817,2260.070800000191,2261.0865000000003,2261.586800000191,2261.586800000191,2262.054300000191,151.0,2262.0545,1.0,2262.0632000002865,7.0,9.0,219.0,7.0,1.0,1.2,0.7,Time
,,S35,1,女,25,anonymized,Serial_Dependence_U,2023.2.3,Win32,60.24096385550618,,,,,,2262.063600000381,147.0,7.0,2262.063800000191,147.0,,,,2265.820600000381,2266.3197000002865,2265.304800000191,2265.8205000000003,2263.0707000002863,2265.304700000286,2266.3198000001908,2266.82,2266.82,2267.521300000191,154.0,2267.521400000096,1.0,2267.530300000191,7.0,10.0,220.0,17.0,1.0,1.2,0.7,Time
,,S35,1,女,25,anonymized,Serial_Dependence_U,2023.2.3,Win32,60.24096385550618,,,,,,2267.530800000191,142.0,7.0,2267.530900000096,142.0,,,,2271.5205,2272.0197000002863,2271.004300000191,2271.5204000000954,2268.5375000000004,2271.0042000002863,2272.019800000191,2272.5196000003816,2272.5196000003816,2273.103800000191,156.0,2273.103900000096,1.0,2273.1130000000003,7.0,11.0,221.0,13.0,1.0,1.4,0.3,Time
,,S35,1,女,25,anonymized,Serial_Dependence_U,2023.2.3,Win32,60.24096385550618,,,,,,2273.113400000096,98.0,7.0,2273.1135000000004,98.0,,,,2277.270600000382,2277.769800000191,2276.753800000191,2277.2705,2274.1206000003817,2276.7537000002862,2277.769900000096,2278.2696000003816,2278.2696000003816,2278.487700000286,151.0,2278.487800000191,1.0,2278.496900000096,7.0,12.0,222.0,19.0,1.0,1.6,0.7,Time
,,S35,1,女,25,anonymized,Serial_Dependence_U,2023.2.3,Win32,60.24096385550618,,,,,,2278.497300000191,69.0,7.0,2278.497400000096,69.0,,,,2281.870400000096,2282.3695,2281.3547000002864,2281.8702000002863,2279.4875,2281.354300000191,2282.369600000381,2282.8695,2282.869600000381,2283.404600000382,149.0,2283.404800000191,1.0,2283.414400000096,7.0,13.0,223.0,10.0,1.0,0.8,0.3,Time
,,S35,1,女,25,anonymized,Serial_Dependence_U,2023.2.3,Win32,60.24096385550618,,,,,,2283.414800000191,267.0,7.0,2283.414900000096,267.0,,,,2287.587600000382,2288.086,2287.070100000382,2287.5874000000954,2284.403800000191,2287.07,2288.086100000381,2288.5870000000004,2288.5871000003817,2289.220300000191,174.0,2289.2205000000004,1.0,2289.2292000002863,7.0,14.0,224.0,4.0,1.0,1.6,0.3,Time
,,S35,1,女,25,anonymized,Serial_Dependence_U,2023.2.3,Win32,60.24096385550618,,,,,,2289.2296000003817,155.0,7.0,2289.229800000191,155.0,,,,2293.1870000000004,2293.686200000286,2292.6703000001908,2293.186800000191,2290.2369000000954,2292.6702000002865,2293.686200000286,2294.186800000191,2294.186800000191,2294.7696000003816,123.0,2294.7697000002863,1.0,2294.778400000096,7.0,15.0,225.0,28.0,1.0,1.4,0.7,Time
,,S35,1,女,25,anonymized,Serial_Dependence_U,2023.2.3,Win32,60.24096385550618,,,,,,2294.778800000191,240.0,7.0,2294.779,240.0,,,,2298.320800000191,2298.819400000096,2297.803800000191,2298.3205000000003,2295.770300000191,2297.8037000002864,2298.8195,2299.319300000191,2299.319300000191,2299.954300000191,159.0,2299.954400000096,1.0,2299.9635000000003,7.0,16.0,226.0,6.0,1.0,1.0,0.7,Time
,,S35,1,女,25,anonymized,Serial_Dependence_U,2023.2.3,Win32,60.24096385550618,,,,,,2299.9640000000004,82.0,7.0,2299.9642000002864,82.0,,,,2303.320300000191,2303.8192000002864,2302.803400000096,2303.320100000382,2300.970300000191,2302.8032000002863,2303.819300000191,2304.319300000191,2304.319400000096,2304.6864000000955,159.0,2304.6865000000003,1.0,2304.695600000381,7.0,17.0,227.0,5.0,1.0,0.8,0.7,Time
,,S35,1,女,25,anonymized,Serial_Dependence_U,2023.2.3,Win32,60.24096385550618,,,,,,2304.6960000000004,245.0,7.0,2304.6962000002864,245.0,,,,2308.670100000382,2309.1696000003817,2308.153400000096,2308.669900000096,2305.686900000096,2308.1532000002862,2309.1696000003817,2309.669400000096,2309.669400000096,2309.971,144.0,2309.9712000002864,1.0,2309.9802000002865,7.0,18.0,228.0,23.0,1.0,1.4,0.3,Time
,,S35,1,女,25,anonymized,Serial_Dependence_U,2023.2.3,Win32,60.24096385550618,,,,,,2309.980600000382,169.0,7.0,2309.980700000286,169.0,,,,2313.7704000000954,2314.269300000191,2313.253800000191,2313.770300000191,2310.9866000003817,2313.253600000381,2314.269300000191,2314.769,2314.769100000381,2315.519300000191,126.0,2315.519400000096,1.0,2315.528800000191,7.0,19.0,229.0,2.0,1.0,1.2,0.3,Time
,,S35,1,女,25,anonymized,Serial_Dependence_U,2023.2.3,Win32,60.24096385550618,,,,,,2315.5291000003817,137.0,7.0,2315.5292000002864,137.0,,,,2319.669800000191,2320.168900000096,2319.153900000096,2319.6697000002864,2316.5202000002864,2319.1537000002863,2320.168900000096,2320.6696000003817,2320.669800000191,2321.470400000096,171.0,2321.4706000003816,1.0,2321.4797000002864,7.0,20.0,230.0,9.0,1.0,1.6,0.7,Time
,,S35,1,女,25,anonymized,Serial_Dependence_U,2023.2.3,Win32,60.24096385550618,,,,,,2321.4801000003818,7.0,7.0,2321.4802000002865,7.0,,,,2325.253400000096,2325.752400000096,2324.7366000003817,2325.253300000191,2322.470300000191,2324.7365000000004,2325.752400000096,2326.2521000003817,2326.2521000003817,2326.8702000002863,196.0,2326.870300000191,1.0,2326.8795,7.0,21.0,231.0,12.0,1.0,1.2,0.3,Time
,,S35,1,女,25,anonymized,Serial_Dependence_U,2023.2.3,Win32,60.24096385550618,,,,,,2326.88,245.0,7.0,2326.880100000382,245.0,,,,2330.853100000382,2331.352400000096,2330.336400000096,2330.853,2327.870300000191,2330.336200000286,2331.352400000096,2331.8534000000955,2331.853600000382,2332.7026000003816,173.0,2332.7027000002863,1.0,2332.7117000002863,7.0,22.0,232.0,3.0,1.0,1.4,0.3,Time
,,S35,1,女,25,anonymized,Serial_Dependence_U,2023.2.3,Win32,60.24096385550618,,,,,,2332.7121000003817,332.0,7.0,2332.7122000002864,332.0,,,,2336.4538000001908,2336.952400000096,2335.9367000002862,2336.453600000382,2333.702900000096,2335.9365000000003,2336.952400000096,2337.4519000000955,2337.452,2337.9023000001907,140.0,2337.9024000000954,1.0,2337.9112000002865,7.0,23.0,233.0,27.0,1.0,1.2,0.7,Time
,,S35,1,女,25,anonymized,Serial_Dependence_U,2023.2.3,Win32,60.24096385550618,,,,,,2337.911700000286,326.0,7.0,2337.911800000191,326.0,,,,2341.5022000002864,2342.001800000191,2340.987,2341.5022000002864,2338.919300000191,2340.9867000002864,2342.001900000096,2342.501900000096,2342.501900000096,2343.436600000381,163.0,2343.4367000002862,1.0,2343.445900000096,7.0,24.0,234.0,11.0,1.0,1.0,0.3,Time
,,S35,1,女,25,anonymized,Serial_Dependence_U,2023.2.3,Win32,60.24096385550618,,,,,,2343.446400000096,97.0,7.0,2343.446400000096,97.0,,,,2347.6356000003816,2348.135100000381,2347.1194000000955,2347.6355000000003,2344.4530000000004,2347.119300000191,2348.135100000381,2348.635100000381,2348.635200000286,2348.936300000191,98.0,2348.9365000000003,1.0,2348.9457000002863,7.0,25.0,235.0,14.0,1.0,1.6,0.3,Time
,,S35,1,女,25,anonymized,Serial_Dependence_U,2023.2.3,Win32,60.24096385550618,,,,,,2348.9461000003816,280.0,7.0,2348.9462000002864,280.0,,,,2352.5356000003817,2353.035300000191,2352.019100000381,2352.5355000000004,2349.952900000096,2352.019,2353.0355000000004,2353.5352000002863,2353.5352000002863,2354.385800000191,67.0,2354.3860000000004,1.0,2354.3946000003816,7.0,26.0,236.0,1.0,1.0,1.0,0.3,Time
,,S35,1,女,25,anonymized,Serial_Dependence_U,2023.2.3,Win32,60.24096385550618,,,,,,2354.3950000000004,57.0,7.0,2354.3951000003817,57.0,,,,2358.3532000002865,2358.8533000001908,2357.836100000381,2358.353,2355.4029000000955,2357.836,2358.8535,2359.3515,2359.351600000381,2361.002400000096,69.0,2361.0025,1.0,2361.0126000003816,7.0,27.0,237.0,18.0,1.0,1.4,0.7,Time
,,S35,1,女,25,anonymized,Serial_Dependence_U,2023.2.3,Win32,60.24096385550618,,,,,,2361.012900000096,253.0,7.0,2361.0131000003817,253.0,,,,2364.7856000003817,2365.284800000191,2364.269300000191,2364.7856000003817,2362.002400000096,2364.269100000381,2365.284800000191,2365.784700000286,2365.784700000286,2366.135400000096,135.0,2366.1355000000003,1.0,2366.1446000003816,7.0,28.0,238.0,22.0,1.0,1.2,0.3,Time
,,S35,1,女,25,anonymized,Serial_Dependence_U,2023.2.3,Win32,60.24096385550618,,,,,,2366.1450000000004,192.0,7.0,2366.1450000000004,192.0,,,,2370.2857000002864,2370.7850000000003,2369.768800000191,2370.2856000003817,2367.1356000003816,2369.768700000286,2370.7850000000003,2371.284800000191,2371.284800000191,2371.535900000096,133.0,2371.536,1.0,2371.545100000382,7.0,29.0,239.0,29.0,1.0,1.6,0.7,Time
,,S35,1,女,25,anonymized,Serial_Dependence_U,2023.2.3,Win32,60.24096385550618,,,,,,2371.5455,168.0,8.0,2381.8610000000003,168.0,s,10.283699999809414,,2385.2185000000004,2385.7180000000003,2384.701700000286,2385.218400000096,2382.8688000001907,2384.7015,2385.7181000003816,2386.217800000191,2386.217900000096,2386.534800000191,143.0,2386.534800000191,1.0,2386.543700000286,8.0,0.0,240.0,5.0,1.0,0.8,0.7,Time
,,S35,1,女,25,anonymized,Serial_Dependence_U,2023.2.3,Win32,60.24096385550618,,,,,,2386.5442000002863,18.0,8.0,2386.545900000096,18.0,,,,2389.918600000381,2390.4176000003818,2389.402800000191,2389.9185,2387.535800000191,2389.402600000382,2390.4177000002865,2390.917800000191,2390.9179000000954,2391.1517000002864,128.0,2391.151900000096,1.0,2391.161,8.0,1.0,241.0,0.0,1.0,0.8,0.3,Time
,,S35,1,女,25,anonymized,Serial_Dependence_U,2023.2.3,Win32,60.24096385550618,,,,,,2391.1614000000955,37.0,8.0,2391.1615,37.0,,,,2395.1349000000955,2395.6345,2394.6189000000954,2395.134700000286,2392.151900000096,2394.6188000001907,2395.6345,2396.1344000000954,2396.1345,2396.351300000191,107.0,2396.351300000191,1.0,2396.362,8.0,2.0,242.0,13.0,1.0,1.4,0.3,Time
,,S35,1,女,25,anonymized,Serial_Dependence_U,2023.2.3,Win32,60.24096385550618,,,,,,2396.3624000000955,168.0,8.0,2396.3625,168.0,,,,2400.3019000000954,2400.801400000096,2399.7856000003817,2400.3017000002865,2397.3520000000003,2399.785300000191,2400.801400000096,2401.3011000003817,2401.3012000002864,2401.5852000002865,117.0,2401.585300000191,1.0,2401.593900000096,8.0,3.0,243.0,28.0,1.0,1.4,0.7,Time
,,S35,1,女,25,anonymized,Serial_Dependence_U,2023.2.3,Win32,60.24096385550618,,,,,,2401.5944000000954,106.0,8.0,2401.594600000382,106.0,,,,2405.768700000286,2406.2675000000004,2405.2520000000004,2405.7685,2402.5855,2405.251800000191,2406.2676000003817,2406.767800000191,2406.767900000096,2407.101600000381,162.0,2407.101800000191,1.0,2407.1110000000003,8.0,4.0,244.0,4.0,1.0,1.6,0.3,Time
,,S35,1,女,25,anonymized,Serial_Dependence_U,2023.2.3,Win32,60.24096385550618,,,,,,2407.1115000000004,243.0,8.0,2407.1116000003817,243.0,,,,2411.3016000003818,2411.8007000002863,2410.7852000002863,2411.301400000096,2408.1185,2410.7850000000003,2411.800800000191,2412.3006000003816,2412.300800000191,2413.7182000002863,1381.0,2413.718300000191,2.0,2413.727900000096,8.0,5.0,245.0,24.0,1.0,1.6,0.3,Time
,,S35,1,女,25,anonymized,Serial_Dependence_U,2023.2.3,Win32,60.24096385550618,,,,,,2413.7283000001908,80.0,8.0,2413.7285,80.0,,,,2417.668200000286,2418.167300000191,2417.1517000002864,2417.668,2414.718300000191,2417.1517000002864,2418.167400000096,2418.6677000002865,2418.667800000191,2419.4846000003818,118.0,2419.4847000002865,1.0,2419.4945,8.0,6.0,246.0,8.0,1.0,1.4,0.7,Time
,,S35,1,女,25,anonymized,Serial_Dependence_U,2023.2.3,Win32,60.24096385550618,,,,,,2419.494900000096,10.0,8.0,2419.4951000003816,10.0,,,,2423.651300000191,2424.150600000381,2423.1349000000955,2423.6512000002863,2420.501400000096,2423.134700000286,2424.150600000381,2424.6504000000955,2424.6505,2424.9016000003817,142.0,2424.9017000002864,1.0,2424.9105000000004,8.0,7.0,247.0,29.0,1.0,1.6,0.7,Time
,,S35,1,女,25,anonymized,Serial_Dependence_U,2023.2.3,Win32,60.24096385550618,,,,,,2424.911,39.0,8.0,2424.911100000382,39.0,,,,2428.6847000002863,2429.183800000191,2428.168900000096,2428.6846000003816,2425.901400000096,2428.168600000381,2429.183800000191,2429.683600000382,2429.6837000002865,2430.1176000003816,113.0,2430.117900000096,1.0,2430.126900000096,8.0,8.0,248.0,2.0,1.0,1.2,0.3,Time
,,S35,1,女,25,anonymized,Serial_Dependence_U,2023.2.3,Win32,60.24096385550618,,,,,,2430.127300000191,94.0,8.0,2430.1275,94.0,,,,2433.901300000191,2434.4004000000955,2433.384800000191,2433.9011000003816,2431.118300000191,2433.384600000382,2434.4004000000955,2434.900300000191,2434.9004000000955,2435.217800000191,150.0,2435.217900000096,1.0,2435.2270000000003,8.0,9.0,249.0,22.0,1.0,1.2,0.3,Time
,,S35,1,女,25,anonymized,Serial_Dependence_U,2023.2.3,Win32,60.24096385550618,,,,,,2435.2275000000004,304.0,8.0,2435.2276000003817,304.0,,,,2438.9685000000004,2439.4674000000955,2438.4512000002865,2438.968400000096,2436.2180000000003,2438.4511000003818,2439.4675,2439.967300000191,2439.967300000191,2440.285800000191,117.0,2440.285900000096,1.0,2440.294900000096,8.0,10.0,250.0,27.0,1.0,1.2,0.7,Time
,,S35,1,女,25,anonymized,Serial_Dependence_U,2023.2.3,Win32,60.24096385550618,,,,,,2440.2953000001908,281.0,8.0,2440.2954000000955,281.0,,,,2443.885,2444.3836000003816,2443.367800000191,2443.884800000191,2441.3011000003817,2443.3676000003816,2444.3837000002864,2444.883400000096,2444.883400000096,2445.2672000002863,149.0,2445.267300000191,1.0,2445.276300000191,8.0,11.0,251.0,1.0,1.0,1.0,0.3,Time
,,S35,1,女,25,anonymized,Serial_Dependence_U,2023.2.3,Win32,60.24096385550618,,,,,,2445.276800000191,321.0,8.0,2445.276800000191,321.0,,,,2448.651300000191,2449.15,2448.1345,2448.6511000003816,2446.268700000286,2448.134300000191,2449.15,2449.65,2449.650100000382,2450.0175000000004,122.0,2450.0176000003817,1.0,2450.0265000000004,8.0,12.0,252.0,20.0,1.0,0.8,0.3,Time
,,S35,1,女,25,anonymized,Serial_Dependence_U,2023.2.3,Win32,60.24096385550618,,,,,,2450.026900000096,336.0,8.0,2450.027,336.0,,,,2454.1676000003818,2454.6667000002863,2453.650700000286,2454.167400000096,2451.018300000191,2453.6505,2454.6667000002863,2455.166600000381,2455.1667000002863,2455.3172000002864,115.0,2455.3174000000954,1.0,2455.327300000191,8.0,13.0,253.0,19.0,1.0,1.6,0.7,Time
,,S35,1,女,25,anonymized,Serial_Dependence_U,2023.2.3,Win32,60.24096385550618,,,,,,2455.3276000003816,82.0,8.0,2455.327800000191,82.0,,,,2459.0847000002864,2459.583100000382,2458.5672000002864,2459.084400000096,2456.334300000191,2458.567,2459.583100000382,2460.083,2460.083100000382,2460.518600000382,145.0,2460.518800000191,1.0,2460.5273000001907,8.0,14.0,254.0,17.0,1.0,1.2,0.7,Time
