Scale_setup.started,Scale_setup.stopped,participant,session,sex,age,date,expName,psychopyVersion,OS,frameRate,Intro.started,Intro.stopped,key_resp_2.keys,key_resp_2.rt,key_resp_2.duration,block.started,direction,Block_id,block.stopped,trial_direction,Block_resp_2.keys,Block_resp_2.rt,Block_resp_2.duration,ITI.started,ITI.stopped,Mask_2.started,Mask_2.stopped,encoding.started,encoding.stopped,Cue.started,Cue.stopped,Response.started,Response.stopped,keyDuration,Feedback_Time.started,FeedbackID_T,Feedback_Time.stopped,trials.thisRepN,trials.thisTrialN,trials.thisN,trials.thisIndex,trials.ran,TimeDur,Coherence1,TrialType
0.0003999999761674,0.0008999999761698,S36,1,女,20,anonymized,Serial_Dependence_U,2023.2.3,Win32,59.88023952096852,,,,,,,,,,,,,,,,,,,,,,,,,,,,,,,,,,,
,,S36,1,女,20,anonymized,Serial_Dependence_U,2023.2.3,Win32,59.88023952096852,11.764899999976166,29.628500000000003,space,17.839899999976154,,,,,,,,,,,,,,,,,,,,,,,,,,,,,,,
,,S36,1,女,20,anonymized,Serial_Dependence_U,2023.2.3,Win32,59.88023952096852,,,,,,29.633299999952328,311.0,0.0,33.47729999995232,311.0,s,3.82370000004768,,37.044200000047695,37.54079999995233,36.543299999952325,37.044100000023846,34.48139999997616,36.54310000002384,37.54100000000001,38.04079999995233,38.041100000023846,38.324700000047685,90.0,38.325,1.0,39.32389999997616,0.0,0.0,0.0,11.0,1.0,1.0,0.3,Time
,,S36,1,女,20,anonymized,Serial_Dependence_U,2023.2.3,Win32,59.88023952096852,,,,,,39.3245,110.0,0.0,39.326600000023845,110.0,,,,43.10570000004769,43.60589999997616,42.58929999995232,43.10570000004769,40.324700000047685,42.58910000002385,43.60600000000001,44.105500000000006,44.10560000002384,44.55510000002384,152.0,44.55520000004769,1.0,45.55510000002384,0.0,1.0,1.0,12.0,1.0,1.2,0.3,Time
,,S36,1,女,20,anonymized,Serial_Dependence_U,2023.2.3,Win32,59.88023952096852,,,,,,45.55570000004769,329.0,0.0,45.55589999997616,329.0,,,,48.95439999997616,49.45370000004769,48.43829999995232,48.95439999997616,46.57239999997617,48.43810000002385,49.45379999995232,49.956,49.95610000002385,50.87029999995232,168.0,50.87050000000001,1.0,51.86979999995232,0.0,2.0,2.0,0.0,1.0,0.8,0.3,Time
,,S36,1,女,20,anonymized,Serial_Dependence_U,2023.2.3,Win32,59.88023952096852,,,,,,51.87039999997616,321.0,0.0,51.87050000000001,321.0,,,,55.66900000000001,56.16960000002385,55.15239999997617,55.66889999997616,52.88629999995233,55.15239999997617,56.16970000004768,56.66850000000001,56.66850000000001,56.93570000004769,185.0,56.93589999997616,1.0,57.93479999995232,0.0,3.0,3.0,22.0,1.0,1.2,0.3,Time
,,S36,1,女,20,anonymized,Serial_Dependence_U,2023.2.3,Win32,59.88023952096852,,,,,,57.93539999997617,143.0,0.0,57.935600000023854,143.0,,,,61.91799999999999,62.41660000002385,61.40139999997616,61.91779999995232,58.9357000000477,61.401200000047695,62.41660000002385,62.91710000002384,62.91710000002384,63.65010000002384,189.0,63.65020000004769,1.0,64.64989999997617,0.0,4.0,4.0,3.0,1.0,1.4,0.3,Time
,,S36,1,女,20,anonymized,Serial_Dependence_U,2023.2.3,Win32,59.88023952096852,,,,,,64.65050000000001,151.0,0.0,64.65070000004768,151.0,,,,68.04879999995232,68.54820000004769,67.53260000002386,68.0487000000477,65.6667000000477,67.53239999997616,68.54829999995233,69.04820000004769,69.04829999995233,70.39810000002386,172.0,70.39810000002386,1.0,71.39760000002384,0.0,5.0,5.0,10.0,1.0,0.8,0.3,Time
,,S36,1,女,20,anonymized,Serial_Dependence_U,2023.2.3,Win32,59.88023952096852,,,,,,71.39789999997616,67.0,0.0,71.39810000002386,67.0,,,,75.34760000002386,75.84720000004769,74.84689999997617,75.34750000000001,72.41470000004769,74.84679999995232,75.84729999995231,76.34610000002384,76.34620000004769,76.97989999997615,162.0,76.98,1.0,77.97939999997617,0.0,6.0,6.0,8.0,1.0,1.4,0.7,Time
,,S36,1,女,20,anonymized,Serial_Dependence_U,2023.2.3,Win32,59.88023952096852,,,,,,77.97989999997615,295.0,0.0,77.9802000000477,295.0,,,,81.36210000002386,81.86129999995232,80.84560000002385,81.36200000000001,78.97989999997615,80.84539999997615,81.86129999995232,82.36189999997616,82.36200000000001,83.711,197.0,83.7112000000477,1.0,84.71029999995231,0.0,7.0,7.0,20.0,1.0,0.8,0.3,Time
,,S36,1,女,20,anonymized,Serial_Dependence_U,2023.2.3,Win32,59.88023952096852,,,,,,84.71089999997618,158.0,0.0,84.7112000000477,158.0,,,,88.47629999995233,88.9757000000477,87.96039999997616,88.47620000004768,85.72729999995234,87.96020000004769,88.97579999995232,89.4757000000477,89.47579999995232,89.9757000000477,178.0,89.97589999997616,1.0,90.97589999997616,0.0,8.0,8.0,27.0,1.0,1.2,0.7,Time
,,S36,1,女,20,anonymized,Serial_Dependence_U,2023.2.3,Win32,59.88023952096852,,,,,,90.97639999997617,272.0,0.0,90.9765,272.0,,,,95.159,95.65729999995231,94.65789999997617,95.15879999995234,91.99260000002384,94.65789999997617,95.65739999997616,96.15810000002384,96.15829999995232,96.77400000000002,147.0,96.77410000002384,1.0,97.77379999995232,0.0,9.0,9.0,4.0,1.0,1.6,0.3,Time
,,S36,1,女,20,anonymized,Serial_Dependence_U,2023.2.3,Win32,59.88023952096852,,,,,,97.77439999997615,208.0,0.0,97.77460000002384,208.0,,,,101.32260000002384,101.82210000002384,100.8065,101.3225,98.77360000002383,100.80639999997616,101.82210000002384,102.32210000002384,102.32220000004769,102.95529999995232,326.0,102.95539999997617,1.0,103.955,0.0,10.0,10.0,16.0,1.0,1.0,0.7,Time
,,S36,1,女,20,anonymized,Serial_Dependence_U,2023.2.3,Win32,59.88023952096852,,,,,,103.95529999995232,242.0,0.0,103.9555,242.0,,,,107.70760000002385,108.20379999995232,107.20670000004768,107.7075,104.972,107.20660000002384,108.20389999997616,108.70629999995232,108.70629999995232,109.68670000004768,195.0,109.68670000004768,1.0,110.68620000004768,0.0,11.0,11.0,7.0,1.0,1.2,0.7,Time
,,S36,1,女,20,anonymized,Serial_Dependence_U,2023.2.3,Win32,59.88023952096852,,,,,,110.68670000004768,202.0,0.0,110.68679999995231,202.0,,,,114.23610000002384,114.73720000004768,113.72160000002386,114.236,111.68860000002384,113.72160000002386,114.73720000004768,115.236,115.2362000000477,115.76839999997615,127.0,115.7685,1.0,116.76810000002384,0.0,12.0,12.0,6.0,1.0,1.0,0.7,Time
,,S36,1,女,20,anonymized,Serial_Dependence_U,2023.2.3,Win32,59.88023952096852,,,,,,116.76839999997615,70.0,0.0,116.76860000002384,70.0,,,,120.93779999995232,121.43329999995233,120.43589999997616,120.93770000004768,117.77039999997616,120.43589999997616,121.43339999997616,121.93310000002386,121.93310000002386,122.8697000000477,234.0,122.86979999995232,1.0,123.87039999997616,0.0,13.0,13.0,24.0,1.0,1.6,0.3,Time
,,S36,1,女,20,anonymized,Serial_Dependence_U,2023.2.3,Win32,59.88023952096852,,,,,,123.87079999995233,110.0,0.0,123.87089999997616,110.0,,,,127.46529999995234,127.96789999997615,126.95110000002386,127.46529999995234,124.883,126.95110000002386,127.96789999997615,128.46679999995234,128.46679999995234,129.11579999995234,185.0,129.11579999995234,1.0,130.11660000002382,0.0,14.0,14.0,1.0,1.0,1.0,0.3,Time
,,S36,1,女,20,anonymized,Serial_Dependence_U,2023.2.3,Win32,59.88023952096852,,,,,,130.11700000000002,121.0,0.0,130.11700000000002,121.0,,,,133.48170000004768,133.98399999999998,132.96750000000003,133.4813999999762,131.13120000004767,132.96750000000003,133.98410000002383,134.47979999995232,134.47989999997617,135.01660000002386,73.0,135.0167000000477,1.0,136.01360000002387,0.0,15.0,15.0,25.0,1.0,0.8,0.7,Time
,,S36,1,女,20,anonymized,Serial_Dependence_U,2023.2.3,Win32,59.88023952096852,,,,,,136.0147000000477,85.0,0.0,136.01479999995234,85.0,,,,140.14829999995231,140.64560000002388,139.64789999997618,140.14829999995231,137.01589999997617,139.64779999995233,140.64560000002388,141.14479999995234,141.14499999999998,143.57839999997617,172.0,143.57850000000002,1.0,144.5772000000477,0.0,16.0,16.0,19.0,1.0,1.6,0.7,Time
,,S36,1,女,20,anonymized,Serial_Dependence_U,2023.2.3,Win32,59.88023952096852,,,,,,144.57779999995233,281.0,0.0,144.57789999997618,281.0,,,,148.56029999995235,149.05910000002388,148.04489999997617,148.5602000000477,145.59589999997615,148.04479999995232,149.05910000002388,149.55929999995232,149.55939999997616,152.15810000002386,128.0,152.1582000000477,1.0,153.16260000002387,0.0,17.0,17.0,28.0,1.0,1.4,0.7,Time
,,S36,1,女,20,anonymized,Serial_Dependence_U,2023.2.3,Win32,59.88023952096852,,,,,,153.16310000002386,230.0,0.0,153.1632000000477,230.0,,,,156.91129999995235,157.4082000000477,156.39550000000003,156.91129999995235,154.16260000002387,156.39539999997618,157.40839999997615,157.91139999997614,157.91139999997614,159.34210000002383,129.0,159.34210000002383,1.0,160.34000000000003,0.0,18.0,18.0,17.0,1.0,1.2,0.7,Time
,,S36,1,女,20,anonymized,Serial_Dependence_U,2023.2.3,Win32,59.88023952096852,,,,,,160.34060000002387,188.0,0.0,160.3407999999523,188.0,,,,164.48929999995232,164.98789999997615,163.974,164.48929999995232,161.3418999999762,163.974,164.98810000002385,165.48839999997614,165.4887999999523,166.9882000000477,120.0,166.98839999997614,1.0,167.98710000002387,0.0,19.0,19.0,29.0,1.0,1.6,0.7,Time
,,S36,1,女,20,anonymized,Serial_Dependence_U,2023.2.3,Win32,59.88023952096852,,,,,,167.988,307.0,0.0,167.9882000000477,307.0,,,,171.33779999995232,171.83560000002387,170.825,171.33770000004768,168.98950000000002,170.82479999995235,171.83570000004767,172.33660000002385,172.33679999995235,173.80689999997617,202.0,173.80700000000002,1.0,174.80220000004766,0.0,20.0,20.0,5.0,1.0,0.8,0.7,Time
,,S36,1,女,20,anonymized,Serial_Dependence_U,2023.2.3,Win32,59.88023952096852,,,,,,174.80339999997614,104.0,0.0,174.8035,104.0,,,,178.38889999997616,178.88389999997617,177.88460000002385,178.3887999999523,175.8203999999762,177.8845,178.884,179.38439999997615,179.38439999997615,179.85310000002386,99.0,179.8532000000477,1.0,180.8507000000477,0.0,21.0,21.0,21.0,1.0,1.0,0.3,Time
,,S36,1,女,20,anonymized,Serial_Dependence_U,2023.2.3,Win32,59.88023952096852,,,,,,180.85170000004769,50.0,0.0,180.85179999995236,50.0,,,,184.84939999997616,185.34929999995236,184.33529999995235,184.84929999995236,181.87170000004767,184.33529999995235,185.34950000000003,185.85129999995235,185.85129999995235,187.64820000004767,115.0,187.64829999995231,1.0,188.65260000002388,0.0,22.0,22.0,23.0,1.0,1.4,0.3,Time
,,S36,1,女,20,anonymized,Serial_Dependence_U,2023.2.3,Win32,59.88023952096852,,,,,,188.65310000002387,234.0,0.0,188.65339999997616,234.0,,,,192.01389999997616,192.5135,191.4997999999524,192.01389999997616,189.65270000004773,191.4997999999524,192.51360000002387,193.01360000002387,193.0137000000477,193.84650000000005,107.0,193.84650000000005,1.0,194.846,0.0,23.0,23.0,15.0,1.0,0.8,0.7,Time
,,S36,1,女,20,anonymized,Serial_Dependence_U,2023.2.3,Win32,59.88023952096852,,,,,,194.84650000000005,175.0,0.0,194.8467000000477,175.0,,,,198.63079999995236,199.12870000004773,198.11689999997617,198.63070000004768,195.84929999995236,198.11689999997617,199.12870000004773,199.63089999997615,199.63089999997615,203.3295,1133.0,203.32960000002385,2.0,204.3265,0.0,24.0,24.0,2.0,1.0,1.2,0.3,Time
,,S36,1,女,20,anonymized,Serial_Dependence_U,2023.2.3,Win32,59.88023952096852,,,,,,204.32710000002385,146.0,0.0,204.3272000000477,146.0,,,,208.4947999999524,208.9922000000477,207.981,208.4947000000477,205.34410000002384,207.9808999999762,208.9922999999523,209.49210000002387,209.4922999999523,210.81370000004773,719.0,210.81379999995232,1.0,211.80960000002383,0.0,25.0,25.0,9.0,1.0,1.6,0.7,Time
,,S36,1,女,20,anonymized,Serial_Dependence_U,2023.2.3,Win32,59.88023952096852,,,,,,211.81,265.0,0.0,211.8102000000477,265.0,,,,215.3585,215.85689999997615,214.8437000000477,215.3583999999762,212.8097999999524,214.84360000002383,215.85689999997615,216.3608999999762,216.3608999999762,217.07550000000003,197.0,217.07550000000003,1.0,218.0762000000477,0.0,26.0,26.0,26.0,1.0,1.0,0.7,Time
,,S36,1,女,20,anonymized,Serial_Dependence_U,2023.2.3,Win32,59.88023952096852,,,,,,218.07660000002383,289.0,0.0,218.07660000002383,289.0,,,,222.24370000004768,222.73829999995235,221.74110000002383,222.2436000000239,219.0768999999762,221.74100000000004,222.73850000000004,223.23960000002387,223.23960000002387,224.63960000002385,1014.0,224.6397000000477,1.0,225.64020000004768,0.0,27.0,27.0,14.0,1.0,1.6,0.3,Time
,,S36,1,女,20,anonymized,Serial_Dependence_U,2023.2.3,Win32,59.88023952096852,,,,,,225.64070000004773,62.0,0.0,225.64089999997617,62.0,,,,229.64000000000004,230.1365,229.12210000002383,229.6398999999762,226.6567000000477,229.12210000002383,230.13660000002383,230.6372000000477,230.63729999995235,231.33679999995235,211.0,231.33700000000005,1.0,232.33529999995235,0.0,28.0,28.0,13.0,1.0,1.4,0.3,Time
,,S36,1,女,20,anonymized,Serial_Dependence_U,2023.2.3,Win32,59.88023952096852,,,,,,232.336,240.0,0.0,232.33610000002383,240.0,,,,236.27070000004773,236.76829999995232,235.7685,236.27070000004773,233.33770000004773,235.76839999997617,236.76839999997617,237.26779999995236,237.26789999997615,238.40239999997615,313.0,238.40239999997615,1.0,239.40029999995232,0.0,29.0,29.0,18.0,1.0,1.4,0.7,Time
,,S36,1,女,20,anonymized,Serial_Dependence_U,2023.2.3,Win32,59.88023952096852,,,,,,239.4007999999523,220.0,1.0,283.15560000002387,220.0,s,43.73200000000003,,287.33750000000003,287.8388999999762,286.8227000000477,287.33750000000003,284.15660000002384,286.82260000002384,287.8388999999762,288.3368999999762,288.33710000002384,290.5575,1783.0,290.55760000002385,4.0,290.5578999999762,1.0,0.0,30.0,4.0,1.0,1.6,0.3,Time
,,S36,1,女,20,anonymized,Serial_Dependence_U,2023.2.3,Win32,59.88023952096852,,,,,,290.5582000000477,293.0,1.0,290.5592000000477,293.0,,,,294.1367999999524,294.6357000000477,293.6222000000477,294.1365,291.5533999999762,293.62210000002386,294.636,295.1357000000477,295.1357999999523,295.88710000002385,250.0,295.8872000000477,1.0,295.88729999995235,1.0,1.0,31.0,11.0,1.0,1.0,0.3,Time
,,S36,1,女,20,anonymized,Serial_Dependence_U,2023.2.3,Win32,59.88023952096852,,,,,,295.88760000002384,184.0,1.0,295.88760000002384,184.0,,,,299.23600000000005,299.73379999995234,298.719,299.2358999999762,296.8862999999523,298.7188999999762,299.73400000000004,300.2338999999762,300.2341000000239,302.53539999997616,932.0,302.5355,4.0,302.5357000000477,1.0,2.0,32.0,5.0,1.0,0.8,0.7,Time
,,S36,1,女,20,anonymized,Serial_Dependence_U,2023.2.3,Win32,59.88023952096852,,,,,,302.53629999995235,260.0,1.0,302.5363999999762,260.0,,,,306.28310000002386,306.7812000000477,305.76889999997616,306.28289999997617,303.5347999999523,305.7687999999524,306.78129999995235,307.281,307.281,308.836,850.0,308.83610000002386,2.0,308.8363999999761,1.0,3.0,33.0,7.0,1.0,1.2,0.7,Time
,,S36,1,女,20,anonymized,Serial_Dependence_U,2023.2.3,Win32,59.88023952096852,,,,,,308.8367000000477,333.0,1.0,308.83679999995235,333.0,,,,312.79850000000005,313.29610000002384,312.28310000002386,312.7983999999762,309.8482999999524,312.28310000002386,313.2962000000477,313.7958999999762,313.796,315.8507000000477,1319.0,315.8507000000477,2.0,315.85110000002385,1.0,4.0,34.0,28.0,1.0,1.4,0.7,Time
,,S36,1,女,20,anonymized,Serial_Dependence_U,2023.2.3,Win32,59.88023952096852,,,,,,315.85150000000004,150.0,1.0,315.8517000000477,150.0,,,,319.82960000002385,320.32929999995235,319.31439999997616,319.8293999999762,316.848,319.31439999997616,320.32929999995235,320.8281000000239,320.82839999997617,322.0272000000477,540.0,322.02729999995233,1.0,322.02750000000003,1.0,5.0,35.0,23.0,1.0,1.4,0.3,Time
,,S36,1,女,20,anonymized,Serial_Dependence_U,2023.2.3,Win32,59.88023952096852,,,,,,322.0277999999523,113.0,1.0,322.0277999999523,113.0,,,,325.62600000000003,326.1261000000239,325.1147000000477,325.62579999995233,323.0441000000239,325.1145,326.1262999999523,326.6261000000239,326.6262999999523,328.5093999999761,370.0,328.5095,1.0,328.50960000002385,1.0,6.0,36.0,21.0,1.0,1.0,0.3,Time
,,S36,1,女,20,anonymized,Serial_Dependence_U,2023.2.3,Win32,59.88023952096852,,,,,,328.5098999999762,193.0,1.0,328.5098999999762,193.0,,,,331.90900000000005,332.4072000000477,331.3962000000477,331.90900000000005,329.5252999999523,331.396,332.4073999999762,332.90789999997617,332.90810000002386,334.0267000000477,705.0,334.0267000000477,2.0,334.02700000000004,1.0,7.0,37.0,0.0,1.0,0.8,0.3,Time
,,S36,1,女,20,anonymized,Serial_Dependence_U,2023.2.3,Win32,59.88023952096852,,,,,,334.0272000000477,137.0,1.0,334.0272000000477,137.0,,,,337.81010000002385,338.3055,337.28950000000003,337.81,335.0257000000477,337.28950000000003,338.3055,338.79329999995235,338.7933999999762,340.09160000002385,795.0,340.09160000002385,1.0,340.09179999995234,1.0,8.0,38.0,12.0,1.0,1.2,0.3,Time
,,S36,1,女,20,anonymized,Serial_Dependence_U,2023.2.3,Win32,59.88023952096852,,,,,,340.09200000000004,140.0,1.0,340.0921000000239,140.0,,,,343.4757999999524,343.9708999999761,342.95960000002384,343.4757000000477,341.09339999997616,342.95950000000005,343.97110000002385,344.47150000000005,344.4717000000477,345.35429999995233,470.0,345.3546000000239,1.0,345.3552999999524,1.0,9.0,39.0,10.0,1.0,0.8,0.3,Time
,,S36,1,女,20,anonymized,Serial_Dependence_U,2023.2.3,Win32,59.88023952096852,,,,,,345.3557000000477,61.0,1.0,345.3558999999762,61.0,,,,349.34200000000004,349.83610000002386,348.8248999999762,349.3418999999762,346.35579999995235,348.82479999995235,349.83610000002386,350.3355,350.3356000000239,351.75410000002387,633.0,351.7542000000477,1.0,351.7542000000477,1.0,10.0,40.0,3.0,1.0,1.4,0.3,Time
,,S36,1,女,20,anonymized,Serial_Dependence_U,2023.2.3,Win32,59.88023952096852,,,,,,351.7545,170.0,1.0,351.7545,170.0,,,,355.1225,355.6177000000477,354.60310000002386,355.1223999999761,352.7707999999523,354.60310000002386,355.6177000000477,356.11739999997616,356.1175,357.7168999999762,469.0,357.71700000000004,1.0,357.7173999999762,1.0,11.0,41.0,25.0,1.0,0.8,0.7,Time
,,S36,1,女,20,anonymized,Serial_Dependence_U,2023.2.3,Win32,59.88023952096852,,,,,,357.7176000000239,214.0,1.0,357.7177000000477,214.0,,,,361.0845000000001,361.58229999995234,360.5712000000477,361.0843999999762,358.7335,360.5711000000239,361.5823999999762,362.084,362.084,363.06560000002384,351.0,363.06579999995233,1.0,363.066,1.0,12.0,42.0,15.0,1.0,0.8,0.7,Time
,,S36,1,女,20,anonymized,Serial_Dependence_U,2023.2.3,Win32,59.88023952096852,,,,,,363.0662999999523,31.0,1.0,363.06639999997617,31.0,,,,367.2151000000239,367.7142000000477,366.7032999999523,367.2151000000239,364.0672000000477,366.7032000000477,367.7143999999762,368.2141000000239,368.2141000000239,370.6492000000477,1378.0,370.6492999999524,2.0,370.6493999999762,1.0,13.0,43.0,19.0,1.0,1.6,0.7,Time
,,S36,1,女,20,anonymized,Serial_Dependence_U,2023.2.3,Win32,59.88023952096852,,,,,,370.64960000002384,42.0,1.0,370.6497000000477,42.0,,,,374.2136000000239,374.7127000000477,373.7008999999762,374.2132999999523,371.6652999999523,373.7007999999523,374.7127000000477,375.2127999999523,375.2128999999762,377.5302999999523,1410.0,377.5302999999523,5.0,377.5305,1.0,14.0,44.0,16.0,1.0,1.0,0.7,Time
,,S36,1,女,20,anonymized,Serial_Dependence_U,2023.2.3,Win32,59.88023952096852,,,,,,377.5307999999524,316.0,1.0,377.53089999997616,316.0,,,,381.09839999997615,381.5945,380.58089999997617,381.09839999997615,378.5443999999762,380.5807999999523,381.5945,382.0937999999524,382.0938999999762,384.63,1817.0,384.63,5.0,384.63029999995234,1.0,15.0,45.0,26.0,1.0,1.0,0.7,Time
,,S36,1,女,20,anonymized,Serial_Dependence_U,2023.2.3,Win32,59.88023952096852,,,,,,384.6306000000239,142.0,1.0,384.6306000000239,142.0,,,,388.7958999999762,389.2912000000477,388.2775,388.7958999999762,385.6428999999762,388.2775,389.2912000000477,389.7911000000239,389.7912000000477,392.61,2364.0,392.6101000000239,5.0,392.6102999999524,1.0,16.0,46.0,29.0,1.0,1.6,0.7,Time
,,S36,1,女,20,anonymized,Serial_Dependence_U,2023.2.3,Win32,59.88023952096852,,,,,,392.61039999997615,239.0,1.0,392.6105,239.0,,,,396.1916000000239,396.6887999999523,395.6772999999523,396.1915,393.6082999999524,395.6772000000477,396.6888999999762,397.1891000000239,397.1892999999523,398.5081000000239,788.0,398.5081000000239,2.0,398.5082000000477,1.0,17.0,47.0,1.0,1.0,1.0,0.3,Time
,,S36,1,女,20,anonymized,Serial_Dependence_U,2023.2.3,Win32,59.88023952096852,,,,,,398.5085,268.0,1.0,398.5086000000239,268.0,,,,402.6717000000477,403.1706000000239,402.15660000002384,402.6713999999762,399.5218999999762,402.1565,403.1707999999524,403.6732999999524,403.6732999999524,407.1082000000477,2802.0,407.1082000000477,5.0,407.1083999999762,1.0,18.0,48.0,9.0,1.0,1.6,0.7,Time
,,S36,1,女,20,anonymized,Serial_Dependence_U,2023.2.3,Win32,59.88023952096852,,,,,,407.10860000002384,62.0,1.0,407.1087000000477,62.0,,,,411.3038999999762,411.8028999999762,410.7907999999524,411.30379999995233,408.12,410.7907999999524,411.803,412.30239999997616,412.30239999997616,413.9712999999524,1163.0,413.9712999999524,2.0,413.9715000000001,1.0,19.0,49.0,24.0,1.0,1.6,0.3,Time
,,S36,1,女,20,anonymized,Serial_Dependence_U,2023.2.3,Win32,59.88023952096852,,,,,,413.9717000000477,193.0,1.0,413.9717000000477,193.0,,,,418.1682999999524,418.6667000000477,417.6522000000477,418.1682999999524,414.9841000000239,417.65210000002384,418.667,419.1661000000239,419.1662000000477,421.6347999999524,1848.0,421.6347999999524,4.0,421.6348999999762,1.0,20.0,50.0,14.0,1.0,1.6,0.3,Time
,,S36,1,女,20,anonymized,Serial_Dependence_U,2023.2.3,Win32,59.88023952096852,,,,,,421.6352000000477,359.0,1.0,421.63529999995234,359.0,,,,425.4321000000239,425.9308999999762,424.919,425.4321000000239,422.6501000000239,424.9188999999762,425.9308999999762,426.4305,426.43060000002384,429.519,2313.0,429.5191000000239,5.0,429.5193999999762,1.0,21.0,51.0,22.0,1.0,1.2,0.3,Time
,,S36,1,女,20,anonymized,Serial_Dependence_U,2023.2.3,Win32,59.88023952096852,,,,,,429.51979999995234,275.0,1.0,429.5198999999762,275.0,,,,433.2792000000477,433.77929999995234,432.76729999995234,433.279,430.5173999999762,432.7672000000477,433.77929999995234,434.279,434.2792000000477,435.66429999995233,813.0,435.66429999995233,1.0,435.6643999999762,1.0,22.0,52.0,27.0,1.0,1.2,0.7,Time
,,S36,1,女,20,anonymized,Serial_Dependence_U,2023.2.3,Win32,59.88023952096852,,,,,,435.6647000000477,26.0,1.0,435.6647999999523,26.0,,,,439.4606000000239,439.9601000000239,438.9466000000239,439.4606000000239,436.6782000000477,438.9465,439.9601000000239,440.4598999999762,440.46,442.429,1614.0,442.4291000000239,5.0,442.4292999999523,1.0,23.0,53.0,2.0,1.0,1.2,0.3,Time
,,S36,1,女,20,anonymized,Serial_Dependence_U,2023.2.3,Win32,59.88023952096852,,,,,,442.4295,237.0,1.0,442.4295,237.0,,,,446.39479999995234,446.8915,445.8777000000477,446.39479999995234,443.44670000004766,445.8776000000239,446.8915,447.3912999999523,447.39139999997616,450.1267999999523,2264.0,450.1267999999523,5.0,450.127,1.0,24.0,54.0,18.0,1.0,1.4,0.7,Time
,,S36,1,女,20,anonymized,Serial_Dependence_U,2023.2.3,Win32,59.88023952096852,,,,,,450.1272000000477,170.0,1.0,450.1272999999523,170.0,,,,453.8735,454.3733999999761,453.3613999999762,453.8733999999761,451.1287000000477,453.36129999995234,454.3733999999761,454.8736000000238,454.8737000000477,457.145,1531.0,457.1451000000239,4.0,457.14529999995233,1.0,25.0,55.0,17.0,1.0,1.2,0.7,Time
,,S36,1,女,20,anonymized,Serial_Dependence_U,2023.2.3,Win32,59.88023952096852,,,,,,457.1455,252.0,1.0,457.1456000000239,252.0,,,,461.10789999997615,461.6046000000238,460.5927999999523,461.10789999997615,458.1597000000477,460.5927000000477,461.60470000004767,462.10389999997614,462.10410000002383,464.8086000000239,2344.0,464.8086000000239,5.0,464.8088999999762,1.0,26.0,56.0,8.0,1.0,1.4,0.7,Time
,,S36,1,女,20,anonymized,Serial_Dependence_U,2023.2.3,Win32,59.88023952096852,,,,,,464.8092000000477,108.0,1.0,464.80939999997616,108.0,,,,468.3737999999524,468.869,467.8717000000477,468.3737999999524,465.8246000000239,467.8716000000239,468.86920000004767,469.3687000000477,469.3688999999761,471.7203999999762,1627.0,471.7205000000001,5.0,471.7206000000238,1.0,27.0,57.0,6.0,1.0,1.0,0.7,Time
,,S36,1,女,20,anonymized,Serial_Dependence_U,2023.2.3,Win32,59.88023952096852,,,,,,471.7207999999524,171.0,1.0,471.7208999999762,171.0,,,,475.7211000000239,476.2171000000239,475.2035,475.7211000000239,472.73550000000006,475.2035,476.21729999995233,476.7168999999762,476.7171000000239,478.055,536.0,478.0551000000239,1.0,478.05539999997615,1.0,28.0,58.0,13.0,1.0,1.4,0.3,Time
,,S36,1,女,20,anonymized,Serial_Dependence_U,2023.2.3,Win32,59.88023952096852,,,,,,478.0557000000477,265.0,1.0,478.0557999999523,265.0,,,,481.43270000004776,481.93170000004767,480.9177999999524,481.43250000000006,479.0536000000239,480.91770000004766,481.9317999999524,482.4316000000238,482.43170000004767,484.017,1224.0,484.017,5.0,484.0171000000239,1.0,29.0,59.0,20.0,1.0,0.8,0.3,Time
,,S36,1,女,20,anonymized,Serial_Dependence_U,2023.2.3,Win32,59.88023952096852,,,,,,484.0173999999761,264.0,2.0,557.2937999999524,264.0,s,73.25760000002384,,561.2476000000238,561.7425000000001,560.7447999999524,561.2475,558.3118999999763,560.7447999999524,561.7425000000001,562.2423999999762,562.2423999999762,564.5635,1568.0,564.5635,4.0,564.5637000000477,2.0,0.0,60.0,18.0,1.0,1.4,0.7,Time
,,S36,1,女,20,anonymized,Serial_Dependence_U,2023.2.3,Win32,59.88023952096852,,,,,,564.5641000000239,40.0,2.0,564.5653999999761,40.0,,,,568.6931000000238,569.1922000000477,568.1913999999763,568.6931000000238,565.5602000000476,568.1912999999524,569.1922000000477,569.6908999999762,569.6911000000239,572.6118999999762,2119.0,572.6118999999762,5.0,572.6122000000478,2.0,1.0,61.0,9.0,1.0,1.6,0.7,Time
,,S36,1,女,20,anonymized,Serial_Dependence_U,2023.2.3,Win32,59.88023952096852,,,,,,572.6125,197.0,2.0,572.6127000000477,197.0,,,,576.5557999999523,577.0551000000239,576.0428999999763,576.5557000000476,573.6089999999999,576.0428999999763,577.0551000000239,577.5552000000478,577.5553999999761,580.2232999999524,2283.0,580.2232999999524,5.0,580.2235000000001,2.0,2.0,62.0,8.0,1.0,1.4,0.7,Time
,,S36,1,女,20,anonymized,Serial_Dependence_U,2023.2.3,Win32,59.88023952096852,,,,,,580.2237000000478,357.0,2.0,580.2237999999522,357.0,,,,584.0208999999761,584.5198999999761,583.5081000000239,584.0207000000478,581.2392999999524,583.508,584.5201000000238,585.0197000000478,585.0198999999761,587.8237999999524,2381.0,587.8238999999762,5.0,587.8242000000478,2.0,3.0,63.0,2.0,1.0,1.2,0.3,Time
,,S36,1,女,20,anonymized,Serial_Dependence_U,2023.2.3,Win32,59.88023952096852,,,,,,587.8245,233.0,2.0,587.8246000000238,233.0,,,,592.0017000000478,592.5007000000478,591.4865,592.0017000000478,588.819,591.4865,592.5007999999523,593.002,593.0021000000238,594.9058999999761,701.0,594.906,1.0,594.9061000000238,2.0,4.0,64.0,14.0,1.0,1.6,0.3,Time
,,S36,1,女,20,anonymized,Serial_Dependence_U,2023.2.3,Win32,59.88023952096852,,,,,,594.9062999999524,104.0,2.0,594.9063999999762,104.0,,,,598.6512999999522,599.1497000000477,598.1371000000238,598.6512999999522,595.9042000000477,598.1371000000238,599.1498999999762,599.6486000000239,599.6487000000477,601.5022000000477,1048.0,601.5022999999524,2.0,601.5025,2.0,5.0,65.0,7.0,1.0,1.2,0.7,Time
,,S36,1,女,20,anonymized,Serial_Dependence_U,2023.2.3,Win32,59.88023952096852,,,,,,601.5028999999761,81.0,2.0,601.5029999999999,81.0,,,,605.2813999999762,605.7803999999762,604.7668999999762,605.2812999999524,602.5026000000239,604.7668999999762,605.7803999999762,606.2812000000476,606.2813999999762,608.4347000000478,1331.0,608.4347000000478,4.0,608.435,2.0,6.0,66.0,22.0,1.0,1.2,0.3,Time
,,S36,1,女,20,anonymized,Serial_Dependence_U,2023.2.3,Win32,59.88023952096852,,,,,,608.4353999999762,189.0,2.0,608.4362000000476,189.0,,,,612.0307999999523,612.528,611.5153999999761,612.0307999999523,609.4487000000477,611.5152999999523,612.5281000000239,613.0291000000238,613.0292999999524,614.7333999999762,875.0,614.7333999999762,2.0,614.7337999999522,2.0,7.0,67.0,1.0,1.0,1.0,0.3,Time
,,S36,1,女,20,anonymized,Serial_Dependence_U,2023.2.3,Win32,59.88023952096852,,,,,,614.7339999999999,171.0,2.0,614.7342000000476,171.0,,,,618.0935,618.5932000000478,617.5826000000238,618.0933999999761,615.7486000000238,617.5825,618.5932999999523,619.0930000000001,619.0931000000239,620.6456000000239,1032.0,620.6457000000478,4.0,620.6457999999523,2.0,8.0,68.0,25.0,1.0,0.8,0.7,Time
,,S36,1,女,20,anonymized,Serial_Dependence_U,2023.2.3,Win32,59.88023952096852,,,,,,620.646,218.0,2.0,620.6461000000238,218.0,,,,624.2092000000478,624.7082999999523,623.6975,624.2088999999762,621.6593999999761,623.6975,624.7083999999761,625.2077000000477,625.2077000000477,627.5436000000238,1647.0,627.5437000000477,5.0,627.5437999999524,2.0,9.0,69.0,6.0,1.0,1.0,0.7,Time
,,S36,1,女,20,anonymized,Serial_Dependence_U,2023.2.3,Win32,59.88023952096852,,,,,,627.544100000024,352.0,2.0,627.544100000024,352.0,,,,631.7237999999522,632.2223999999762,631.2111000000239,631.7235000000001,628.5419999999999,631.2111000000239,632.2225000000001,632.7238999999761,632.7241000000238,634.5577999999523,1246.0,634.5578999999761,2.0,634.558,2.0,10.0,70.0,4.0,1.0,1.6,0.3,Time
,,S36,1,女,20,anonymized,Serial_Dependence_U,2023.2.3,Win32,59.88023952096852,,,,,,634.5582999999524,30.0,2.0,634.5583999999762,30.0,,,,638.5235,639.0205000000001,638.0216000000239,638.5233999999762,635.5568999999762,638.0215000000001,639.0206000000239,639.5208999999761,639.5211000000238,641.2227000000478,1290.0,641.2227999999523,2.0,641.223,2.0,11.0,71.0,23.0,1.0,1.4,0.3,Time
,,S36,1,女,20,anonymized,Serial_Dependence_U,2023.2.3,Win32,59.88023952096852,,,,,,641.2232999999524,232.0,2.0,641.2232999999524,232.0,,,,644.5898999999761,645.0865000000001,644.0742999999522,644.5898999999761,642.2377000000477,644.0742000000478,645.0865000000001,645.5868999999761,645.5871000000238,647.0711000000238,1094.0,647.0712000000476,5.0,647.0712999999523,2.0,12.0,72.0,5.0,1.0,0.8,0.7,Time
,,S36,1,女,20,anonymized,Serial_Dependence_U,2023.2.3,Win32,59.88023952096852,,,,,,647.0716000000239,271.0,2.0,647.0716000000239,271.0,,,,650.4214999999999,650.9176000000239,649.9203999999761,650.4214999999999,648.086,649.9203999999761,650.9177000000477,651.4177999999524,651.4180000000001,652.7367000000477,897.0,652.7367999999524,4.0,652.7370000000001,2.0,13.0,73.0,15.0,1.0,0.8,0.7,Time
,,S36,1,女,20,anonymized,Serial_Dependence_U,2023.2.3,Win32,59.88023952096852,,,,,,652.7372000000478,98.0,2.0,652.7372000000478,98.0,,,,656.2877999999523,656.784100000024,655.7705000000001,656.2877000000476,653.7350000000001,655.7703999999762,656.7842000000478,657.2832000000476,657.2833999999762,658.4157999999522,544.0,658.4158999999761,1.0,658.4162000000476,2.0,14.0,74.0,16.0,1.0,1.0,0.7,Time
,,S36,1,女,20,anonymized,Serial_Dependence_U,2023.2.3,Win32,59.88023952096852,,,,,,658.4165,253.0,2.0,658.4166000000239,253.0,,,,662.2163999999761,662.7142999999523,661.7032000000477,662.2163999999761,659.4333999999762,661.7032000000477,662.7142999999523,663.2141000000238,663.2142000000476,664.5332999999523,644.0,664.5333999999762,1.0,664.5335,2.0,15.0,75.0,12.0,1.0,1.2,0.3,Time
,,S36,1,女,20,anonymized,Serial_Dependence_U,2023.2.3,Win32,59.88023952096852,,,,,,664.5337999999524,27.0,2.0,664.5337999999524,27.0,,,,668.4972000000478,668.9987000000476,667.9805000000001,668.4968999999762,665.547,667.9803999999763,668.9987999999523,669.4955,669.4957999999524,670.6477999999524,811.0,670.6477999999524,1.0,670.6479999999999,2.0,16.0,76.0,28.0,1.0,1.4,0.7,Time
,,S36,1,女,20,anonymized,Serial_Dependence_U,2023.2.3,Win32,59.88023952096852,,,,,,670.6482000000476,96.0,2.0,670.6482000000476,96.0,,,,674.8331000000239,675.3275000000001,674.3297999999522,674.8330000000001,671.6621000000239,674.3297999999522,675.327600000024,675.827,675.827,677.9817999999523,1785.0,677.9818999999761,4.0,677.982,2.0,17.0,77.0,24.0,1.0,1.6,0.3,Time
,,S36,1,女,20,anonymized,Serial_Dependence_U,2023.2.3,Win32,59.88023952096852,,,,,,677.9822999999524,281.0,2.0,677.9823999999762,281.0,,,,682.1292000000476,682.6257999999523,681.6137999999523,682.1291000000238,678.9798999999762,681.6137000000476,682.6262000000477,683.1251000000238,683.1252999999524,685.6107999999524,2114.0,685.6107999999524,5.0,685.6110000000001,2.0,18.0,78.0,29.0,1.0,1.6,0.7,Time
,,S36,1,女,20,anonymized,Serial_Dependence_U,2023.2.3,Win32,59.88023952096852,,,,,,685.6112000000478,122.0,2.0,685.6112999999523,122.0,,,,689.3612999999523,689.8568999999761,688.8592000000476,689.3612000000478,686.6118999999762,688.8591000000238,689.857,690.3565000000001,690.3567000000478,691.7113999999763,933.0,691.7115000000001,2.0,691.7117000000478,2.0,19.0,79.0,17.0,1.0,1.2,0.7,Time
,,S36,1,女,20,anonymized,Serial_Dependence_U,2023.2.3,Win32,59.88023952096852,,,,,,691.712,196.0,2.0,691.7122000000477,196.0,,,,695.0933999999761,695.5886000000239,694.577,695.0932999999523,692.7076000000238,694.577,695.5887000000478,696.0887000000478,696.0888999999761,697.0243999999761,557.0,697.0243999999761,1.0,697.0247000000477,2.0,20.0,80.0,20.0,1.0,0.8,0.3,Time
,,S36,1,女,20,anonymized,Serial_Dependence_U,2023.2.3,Win32,59.88023952096852,,,,,,697.0250000000001,66.0,2.0,697.0251000000239,66.0,,,,700.5873999999762,701.087,700.0742000000478,700.5872999999524,698.0376000000238,700.0742000000478,701.0872000000477,701.5861000000239,701.5862000000477,703.4222000000477,1467.0,703.4223999999763,5.0,703.4225000000001,2.0,21.0,81.0,26.0,1.0,1.0,0.7,Time
,,S36,1,女,20,anonymized,Serial_Dependence_U,2023.2.3,Win32,59.88023952096852,,,,,,703.4227999999523,243.0,2.0,703.4228999999762,243.0,,,,707.5686000000239,708.0683999999762,707.0540000000001,707.5685000000001,704.4205,707.0538999999762,708.0686000000239,708.5692999999524,708.5695000000001,710.9202999999522,1931.0,710.9202999999522,4.0,710.9205,2.0,22.0,82.0,19.0,1.0,1.6,0.7,Time
,,S36,1,女,20,anonymized,Serial_Dependence_U,2023.2.3,Win32,59.88023952096852,,,,,,710.9207000000476,28.0,2.0,710.9207999999524,28.0,,,,714.5168999999762,715.0177999999523,714.0021000000238,714.5168999999762,711.9337999999523,714.002,715.0177999999523,715.5197000000478,715.5197999999523,716.816,906.0,716.816,2.0,716.8162000000477,2.0,23.0,83.0,21.0,1.0,1.0,0.3,Time
,,S36,1,女,20,anonymized,Serial_Dependence_U,2023.2.3,Win32,59.88023952096852,,,,,,716.8165000000001,47.0,2.0,716.8166000000238,47.0,,,,720.5862999999524,721.0818999999763,720.0813999999762,720.5861000000239,717.8346000000238,720.0813999999762,721.0820000000001,721.5808999999763,721.5811000000238,723.9803999999763,2007.0,723.9805000000001,5.0,723.9808999999761,2.0,24.0,84.0,27.0,1.0,1.2,0.7,Time
,,S36,1,女,20,anonymized,Serial_Dependence_U,2023.2.3,Win32,59.88023952096852,,,,,,723.9812999999524,6.0,2.0,723.9813999999762,6.0,,,,727.9658999999763,728.4627000000478,727.4470000000001,727.9657999999524,724.9842999999523,727.4467000000477,728.4628999999761,728.9635000000001,728.9636000000239,730.3638999999762,1025.0,730.3638999999762,2.0,730.3641000000239,2.0,25.0,85.0,3.0,1.0,1.4,0.3,Time
,,S36,1,女,20,anonymized,Serial_Dependence_U,2023.2.3,Win32,59.88023952096852,,,,,,730.3643999999763,242.0,2.0,730.3644999999999,242.0,,,,734.3462999999524,734.8442999999522,733.8306000000239,734.3462000000477,731.3633999999761,733.8306000000239,734.8443999999761,735.3444999999999,735.3447000000476,736.4628999999761,781.0,736.463,1.0,736.4631000000238,2.0,26.0,86.0,13.0,1.0,1.4,0.3,Time
,,S36,1,女,20,anonymized,Serial_Dependence_U,2023.2.3,Win32,59.88023952096852,,,,,,736.4633999999762,181.0,2.0,736.4635000000001,181.0,,,,739.846600000024,740.3425,739.3457000000476,739.8465000000001,737.4763999999761,739.3457000000476,740.3425,740.8420000000001,740.842100000024,741.9082000000476,737.0,741.9082999999523,2.0,741.9086000000239,2.0,27.0,87.0,10.0,1.0,0.8,0.3,Time
,,S36,1,女,20,anonymized,Serial_Dependence_U,2023.2.3,Win32,59.88023952096852,,,,,,741.9087999999524,218.0,2.0,741.9088999999763,218.0,,,,745.5095000000001,746.0076000000238,744.9932999999523,745.5093999999763,742.9267000000477,744.9932999999523,746.0077000000476,746.5112000000477,746.5112999999524,747.6465000000001,801.0,747.6466000000239,2.0,747.6467999999522,2.0,28.0,88.0,11.0,1.0,1.0,0.3,Time
,,S36,1,女,20,anonymized,Serial_Dependence_U,2023.2.3,Win32,59.88023952096852,,,,,,747.6472000000476,254.0,2.0,747.6472999999523,254.0,,,,751.0236000000239,751.5242000000478,750.5117999999522,751.0233999999762,748.6447999999523,750.5117999999522,751.5243999999761,752.0228999999763,752.0228999999763,753.1058999999761,727.0,753.1061000000238,2.0,753.1067999999523,2.0,29.0,89.0,0.0,1.0,0.8,0.3,Time
,,S36,1,女,20,anonymized,Serial_Dependence_U,2023.2.3,Win32,59.88023952096852,,,,,,753.1072000000477,350.0,3.0,846.4292000000478,350.0,s,93.29579999995237,,850.3971000000238,850.8941000000239,849.8803999999761,850.3969999999999,847.4456000000239,849.8803999999761,850.8941000000239,851.394600000024,851.3947999999523,853.5832999999523,1023.0,853.5832999999523,2.0,853.5835,3.0,0.0,90.0,8.0,1.0,1.4,0.7,Time
,,S36,1,女,20,anonymized,Serial_Dependence_U,2023.2.3,Win32,59.88023952096852,,,,,,853.5837000000477,189.0,3.0,853.5843999999761,189.0,,,,856.9477999999524,857.4436000000239,856.431,856.9477000000477,854.5947000000476,856.431,857.4436000000239,857.942600000024,857.9427000000478,858.8610000000001,499.0,858.8610000000001,1.0,858.8612000000478,3.0,1.0,91.0,25.0,1.0,0.8,0.7,Time
,,S36,1,女,20,anonymized,Serial_Dependence_U,2023.2.3,Win32,59.88023952096852,,,,,,858.8613999999761,32.0,3.0,858.8615,32.0,,,,862.4627999999523,862.9587000000477,861.9458999999763,862.4627000000478,859.8792999999523,861.9457000000477,862.9587999999524,863.4573999999761,863.4575,864.7076000000238,759.0,864.7076000000238,2.0,864.7080000000001,3.0,2.0,92.0,21.0,1.0,1.0,0.3,Time
,,S36,1,女,20,anonymized,Serial_Dependence_U,2023.2.3,Win32,59.88023952096852,,,,,,864.7082999999523,201.0,3.0,864.7082999999523,201.0,,,,868.894,869.3897000000477,868.3777999999522,868.894,865.71,868.3777000000478,869.3897000000477,869.8896000000238,869.8896000000238,871.058,614.0,871.058,1.0,871.0582000000477,3.0,3.0,93.0,24.0,1.0,1.6,0.3,Time
,,S36,1,女,20,anonymized,Serial_Dependence_U,2023.2.3,Win32,59.88023952096852,,,,,,871.0585000000001,140.0,3.0,871.058600000024,140.0,,,,874.8392000000476,875.3377000000478,874.3230000000001,874.8391000000238,872.0571000000239,874.3227999999524,875.3377999999523,875.8372999999524,875.8375000000001,877.856,1130.0,877.856,2.0,877.8562000000477,3.0,4.0,94.0,12.0,1.0,1.2,0.3,Time
,,S36,1,女,20,anonymized,Serial_Dependence_U,2023.2.3,Win32,59.88023952096852,,,,,,877.8562999999524,83.0,3.0,877.8563999999762,83.0,,,,881.2242999999523,881.7187999999524,880.7217999999523,881.2242999999523,878.8562999999524,880.7217000000478,881.7188999999762,882.2187000000476,882.2187999999524,883.6408999999762,1033.0,883.6408999999762,4.0,883.6412000000478,3.0,5.0,95.0,20.0,1.0,0.8,0.3,Time
,,S36,1,女,20,anonymized,Serial_Dependence_U,2023.2.3,Win32,59.88023952096852,,,,,,883.6415,289.0,3.0,883.6416000000238,289.0,,,,887.7842999999523,888.2836000000239,887.2727000000477,887.7842000000478,884.6400000000001,887.2726000000239,888.2837999999524,888.7855,888.7855,890.6831000000238,1576.0,890.6831000000238,3.0,890.6833999999762,3.0,6.0,96.0,19.0,1.0,1.6,0.7,Time
,,S36,1,女,20,anonymized,Serial_Dependence_U,2023.2.3,Win32,59.88023952096852,,,,,,890.683600000024,52.0,3.0,890.6837000000478,52.0,,,,894.2827999999524,894.7815,893.7682000000477,894.2827999999524,891.7027000000478,893.7681000000239,894.7815,895.2818999999761,895.2821000000238,896.8373999999762,986.0,896.8375000000001,3.0,896.8377000000478,3.0,7.0,97.0,1.0,1.0,1.0,0.3,Time
,,S36,1,女,20,anonymized,Serial_Dependence_U,2023.2.3,Win32,59.88023952096852,,,,,,896.838,71.0,3.0,896.8382000000477,71.0,,,,900.6165000000001,901.1136000000238,900.1012999999523,900.6165000000001,897.8347000000476,900.101100000024,901.1136000000238,901.6132000000478,901.613399999976,903.6352000000476,1682.0,903.6352999999524,5.0,903.6355,3.0,8.0,98.0,22.0,1.0,1.2,0.3,Time
,,S36,1,女,20,anonymized,Serial_Dependence_U,2023.2.3,Win32,59.88023952096852,,,,,,903.6357000000478,334.0,3.0,903.6357999999524,334.0,,,,907.0125,907.511899999976,906.4998999999762,907.0123999999762,904.634100000024,906.4998999999762,907.511899999976,908.011600000024,908.0117999999522,909.2665,900.0,909.2672999999522,4.0,909.2675,3.0,9.0,99.0,0.0,1.0,0.8,0.3,Time
,,S36,1,女,20,anonymized,Serial_Dependence_U,2023.2.3,Win32,59.88023952096852,,,,,,909.2677999999524,317.0,3.0,909.268,317.0,,,,913.2442000000476,913.7432999999525,912.733,913.2441000000238,910.263,912.733,913.7433999999762,914.2431000000238,914.2432000000476,916.6622999999524,2060.0,916.6622999999524,5.0,916.6625,3.0,10.0,100.0,23.0,1.0,1.4,0.3,Time
,,S36,1,女,20,anonymized,Serial_Dependence_U,2023.2.3,Win32,59.88023952096852,,,,,,916.6627999999524,309.0,3.0,916.6627999999524,309.0,,,,920.4265,920.9251000000238,919.9127000000476,920.4265,917.6757000000478,919.9126000000238,920.9252999999524,921.425600000024,921.425899999976,922.8787999999524,1132.0,922.8788999999764,2.0,922.879,3.0,11.0,101.0,7.0,1.0,1.2,0.7,Time
,,S36,1,女,20,anonymized,Serial_Dependence_U,2023.2.3,Win32,59.88023952096852,,,,,,922.8792999999524,152.0,3.0,922.8793999999762,152.0,,,,926.8107000000476,927.306100000024,926.309,926.8105,923.8761000000238,926.309,927.306100000024,927.8066000000238,927.8066000000238,929.094,915.0,929.094100000024,1.0,929.0942999999522,3.0,12.0,102.0,28.0,1.0,1.4,0.7,Time
,,S36,1,女,20,anonymized,Serial_Dependence_U,2023.2.3,Win32,59.88023952096852,,,,,,929.0945,44.0,3.0,929.0946000000238,44.0,,,,933.276399999976,933.7715,932.7572999999522,933.2762000000478,930.0893999999762,932.7572000000478,933.771600000024,934.2717000000478,934.271899999976,935.3762999999524,720.0,935.3763999999762,1.0,935.376600000024,3.0,13.0,103.0,14.0,1.0,1.6,0.3,Time
,,S36,1,女,20,anonymized,Serial_Dependence_U,2023.2.3,Win32,59.88023952096852,,,,,,935.377,14.0,3.0,935.3772000000477,14.0,,,,938.924600000024,939.4207000000476,938.4218999999762,938.9243999999762,936.3882999999524,938.4218999999762,939.4208999999762,939.9192999999524,939.919399999976,942.4742000000476,2252.0,942.4742000000476,5.0,942.4743999999762,3.0,14.0,104.0,16.0,1.0,1.0,0.7,Time
,,S36,1,女,20,anonymized,Serial_Dependence_U,2023.2.3,Win32,59.88023952096852,,,,,,942.4747999999524,296.0,3.0,942.4748999999764,296.0,,,,946.4678999999762,946.9672999999524,945.9532000000476,946.4677999999524,943.4862999999524,945.953,946.9672999999524,947.4677000000476,947.4678999999762,949.1888999999762,1418.0,949.189100000024,3.0,949.189399999976,3.0,15.0,105.0,13.0,1.0,1.4,0.3,Time
,,S36,1,女,20,anonymized,Serial_Dependence_U,2023.2.3,Win32,59.88023952096852,,,,,,949.1898999999762,50.0,3.0,949.19,50.0,,,,953.1492000000478,953.6492000000478,952.6347000000478,953.149100000024,950.201,952.6347000000478,953.6492999999524,954.1492000000478,954.1492000000478,956.2507000000476,1749.0,956.2507999999524,4.0,956.250899999976,3.0,16.0,106.0,18.0,1.0,1.4,0.7,Time
,,S36,1,女,20,anonymized,Serial_Dependence_U,2023.2.3,Win32,59.88023952096852,,,,,,956.2511000000238,284.0,3.0,956.2511000000238,284.0,,,,959.7855,960.2801000000238,959.283,959.785399999976,957.2488999999762,959.282899999976,960.2801000000238,960.78,960.78,961.899899999976,1092.0,961.9,4.0,961.9001000000236,3.0,17.0,107.0,6.0,1.0,1.0,0.7,Time
,,S36,1,女,20,anonymized,Serial_Dependence_U,2023.2.3,Win32,59.88023952096852,,,,,,961.9002000000476,218.0,3.0,961.9002999999524,218.0,,,,966.0468999999762,966.5468999999762,965.5458999999762,966.0467999999524,962.8992000000476,965.5457999999524,966.547,967.0452999999522,967.0452999999522,969.3331000000236,1966.0,969.3331000000236,4.0,969.333399999976,3.0,18.0,108.0,29.0,1.0,1.6,0.7,Time
,,S36,1,女,20,anonymized,Serial_Dependence_U,2023.2.3,Win32,59.88023952096852,,,,,,969.3337000000477,12.0,3.0,969.3338999999762,12.0,,,,972.6771000000238,973.1763999999762,972.1632000000476,972.6771000000238,970.329899999976,972.1632000000476,973.1765,973.676600000024,973.6767000000476,975.2787000000476,1216.0,975.2787999999524,5.0,975.278899999976,3.0,19.0,109.0,15.0,1.0,0.8,0.7,Time
,,S36,1,女,20,anonymized,Serial_Dependence_U,2023.2.3,Win32,59.88023952096852,,,,,,975.2791000000238,206.0,3.0,975.2792000000476,206.0,,,,978.859,979.3618999999762,978.3473999999762,978.859,976.2801000000238,978.3472999999524,979.3618999999762,979.8582999999524,979.858600000024,981.3793999999762,1049.0,981.3795,3.0,981.3797000000476,3.0,20.0,110.0,11.0,1.0,1.0,0.3,Time
,,S36,1,女,20,anonymized,Serial_Dependence_U,2023.2.3,Win32,59.88023952096852,,,,,,981.3801000000236,291.0,3.0,981.3802000000476,291.0,,,,985.1617000000476,985.6582000000476,984.6435,985.1615,982.3762000000476,984.643399999976,985.6582000000476,986.1571000000238,986.1572999999524,986.9922999999524,531.0,986.9923999999762,1.0,986.9925,3.0,21.0,111.0,2.0,1.0,1.2,0.3,Time
,,S36,1,女,20,anonymized,Serial_Dependence_U,2023.2.3,Win32,59.88023952096852,,,,,,986.9927000000476,21.0,3.0,986.9927999999522,21.0,,,,990.9592999999522,991.4545,990.4555,990.9592000000478,987.993899999976,990.4553999999762,991.4545,991.9547999999522,991.9547999999522,993.6597000000476,1224.0,993.6597999999524,2.0,993.6602000000476,3.0,22.0,112.0,3.0,1.0,1.4,0.3,Time
,,S36,1,女,20,anonymized,Serial_Dependence_U,2023.2.3,Win32,59.88023952096852,,,,,,993.6605,90.0,3.0,993.6607000000477,90.0,,,,997.4091000000236,997.903100000024,996.9063999999762,997.408899999976,994.6715,996.9062999999524,997.9032000000476,998.4027000000476,998.4027999999524,1000.0037999999522,1208.0,1000.0041000000238,3.0,1000.0047999999522,3.0,23.0,113.0,27.0,1.0,1.2,0.7,Time
,,S36,1,女,20,anonymized,Serial_Dependence_U,2023.2.3,Win32,59.88023952096852,,,,,,1000.0051000000236,105.0,3.0,1000.0052999999524,105.0,,,,1003.754,1004.2507999999524,1003.2537000000476,1003.754,1001.0197000000476,1003.2537000000476,1004.2507999999524,1004.7516000000236,1004.7517999999524,1006.320899999976,1248.0,1006.320899999976,3.0,1006.3211000000238,3.0,24.0,114.0,17.0,1.0,1.2,0.7,Time
,,S36,1,女,20,anonymized,Serial_Dependence_U,2023.2.3,Win32,59.88023952096852,,,,,,1006.3213999999762,235.0,3.0,1006.3215,235.0,,,,1009.7042999999524,1010.1997999999523,1009.188,1009.7042999999524,1007.3215,1009.188,1010.1998999999762,1010.699,1010.699100000024,1012.1182999999525,1050.0,1012.1182999999525,5.0,1012.118600000024,3.0,25.0,115.0,10.0,1.0,0.8,0.3,Time
,,S36,1,女,20,anonymized,Serial_Dependence_U,2023.2.3,Win32,59.88023952096852,,,,,,1012.1187000000476,255.0,3.0,1012.118899999976,255.0,,,,1016.2701000000238,1016.7647999999522,1015.7501000000238,1016.269899999976,1013.1173999999762,1015.7501000000238,1016.7647999999522,1017.2637999999522,1017.263899999976,1019.4855,1852.0,1019.485600000024,4.0,1019.4857999999522,3.0,26.0,116.0,9.0,1.0,1.6,0.7,Time
,,S36,1,女,20,anonymized,Serial_Dependence_U,2023.2.3,Win32,59.88023952096852,,,,,,1019.4861000000236,303.0,3.0,1019.4862999999524,303.0,,,,1023.6797999999524,1024.1791000000237,1023.1647000000476,1023.6797000000475,1020.497,1023.1646000000236,1024.1792000000476,1024.6822000000475,1024.6822999999522,1026.348600000024,1249.0,1026.348600000024,2.0,1026.3487999999522,3.0,27.0,117.0,4.0,1.0,1.6,0.3,Time
,,S36,1,女,20,anonymized,Serial_Dependence_U,2023.2.3,Win32,59.88023952096852,,,,,,1026.349,168.0,3.0,1026.349,168.0,,,,1029.913100000024,1030.4116000000238,1029.399899999976,1029.913,1027.361399999976,1029.3997999999524,1030.4117000000476,1030.9112000000478,1030.9112000000478,1032.4641000000238,951.0,1032.4641000000238,3.0,1032.4642999999523,3.0,28.0,118.0,26.0,1.0,1.0,0.7,Time
,,S36,1,女,20,anonymized,Serial_Dependence_U,2023.2.3,Win32,59.88023952096852,,,,,,1032.464600000024,330.0,3.0,1032.464600000024,330.0,,,,1035.826399999976,1036.3255,1035.3112000000476,1035.826399999976,1033.4772000000476,1035.3111000000238,1036.3256000000238,1036.8258999999762,1036.8258999999762,1039.0627999999522,1517.0,1039.062899999976,5.0,1039.0632000000476,3.0,29.0,119.0,5.0,1.0,0.8,0.7,Time
,,S36,1,女,20,anonymized,Serial_Dependence_U,2023.2.3,Win32,59.88023952096852,,,,,,1039.0635,287.0,4.0,1090.578,287.0,s,51.49119999992854,,1094.378,1094.8766000000237,1093.861399999976,1094.378,1091.5937999999524,1093.8612999999525,1094.8767000000475,1095.3763999999762,1095.3765,1097.244,1387.0,1097.2441000000238,4.0,1097.2442000000476,4.0,0.0,120.0,22.0,1.0,1.2,0.3,Time
,,S36,1,女,20,anonymized,Serial_Dependence_U,2023.2.3,Win32,59.88023952096852,,,,,,1097.2445,300.0,4.0,1097.2452000000476,300.0,,,,1100.6267999999525,1101.124100000024,1100.1097999999522,1100.6267999999525,1098.2421000000238,1100.1097999999522,1101.1242000000475,1101.6257000000476,1101.625899999976,1103.342399999976,880.0,1103.3425,4.0,1103.3426000000238,4.0,1.0,121.0,0.0,1.0,0.8,0.3,Time
,,S36,1,女,20,anonymized,Serial_Dependence_U,2023.2.3,Win32,59.88023952096852,,,,,,1103.3427999999524,197.0,4.0,1103.3428999999762,197.0,,,,1107.5235,1108.0222000000476,1107.0078999999762,1107.5233999999762,1104.3615,1107.0077999999523,1108.0222999999523,1108.5217000000478,1108.5217000000478,1110.757,1833.0,1110.757,4.0,1110.7572999999522,4.0,2.0,122.0,9.0,1.0,1.6,0.7,Time
,,S36,1,女,20,anonymized,Serial_Dependence_U,2023.2.3,Win32,59.88023952096852,,,,,,1110.757399999976,201.0,4.0,1110.7575,201.0,,,,1114.7037999999525,1115.202899999976,1114.1906000000238,1114.7037999999525,1111.7557999999524,1114.1906000000238,1115.202899999976,1115.7042000000476,1115.7043999999762,1117.9897000000476,1465.0,1117.9897000000476,3.0,1117.9897999999523,4.0,3.0,123.0,18.0,1.0,1.4,0.7,Time
,,S36,1,女,20,anonymized,Serial_Dependence_U,2023.2.3,Win32,59.88023952096852,,,,,,1117.99,278.0,4.0,1117.990100000024,278.0,,,,1122.1522999999522,1122.6507000000477,1121.64,1122.1522000000475,1119.0023999999762,1121.64,1122.6507000000477,1123.151100000024,1123.1512000000475,1125.5692999999524,2068.0,1125.5692999999524,4.0,1125.5695,4.0,4.0,124.0,19.0,1.0,1.6,0.7,Time
,,S36,1,女,20,anonymized,Serial_Dependence_U,2023.2.3,Win32,59.88023952096852,,,,,,1125.5697000000478,166.0,4.0,1125.5697999999522,166.0,,,,1129.5188999999762,1130.016,1129.0185,1129.5187999999523,1126.5712999999523,1129.0185,1130.0161000000237,1130.5152000000476,1130.5152000000476,1132.3845,1367.0,1132.3847000000476,3.0,1132.384899999976,4.0,5.0,125.0,28.0,1.0,1.4,0.7,Time
,,S36,1,女,20,anonymized,Serial_Dependence_U,2023.2.3,Win32,59.88023952096852,,,,,,1132.3851000000238,64.0,4.0,1132.3852000000477,64.0,,,,1136.3847999999523,1136.8802999999525,1135.865899999976,1136.3847999999523,1133.3992000000476,1135.8657999999523,1136.880399999976,1137.3805,1137.3805,1139.985,2295.0,1139.985,5.0,1139.9852999999523,4.0,6.0,126.0,23.0,1.0,1.4,0.3,Time
,,S36,1,女,20,anonymized,Serial_Dependence_U,2023.2.3,Win32,59.88023952096852,,,,,,1139.985600000024,266.0,4.0,1139.9857000000477,266.0,,,,1143.962,1144.4615,1143.450100000024,1143.962,1140.9817000000476,1143.450100000024,1144.4616000000235,1144.9617999999523,1144.961899999976,1146.7661000000237,1423.0,1146.7661000000237,3.0,1146.7662000000475,4.0,7.0,127.0,13.0,1.0,1.4,0.3,Time
,,S36,1,女,20,anonymized,Serial_Dependence_U,2023.2.3,Win32,59.88023952096852,,,,,,1146.766399999976,175.0,4.0,1146.7666000000238,175.0,,,,1150.327399999976,1150.8266000000235,1149.8122000000476,1150.3271000000238,1147.7777999999523,1149.8122000000476,1150.8267000000476,1151.3265,1151.3267000000476,1153.4951000000235,1775.0,1153.4951000000235,5.0,1153.4952999999523,4.0,8.0,128.0,6.0,1.0,1.0,0.7,Time
,,S36,1,女,20,anonymized,Serial_Dependence_U,2023.2.3,Win32,59.88023952096852,,,,,,1153.4955,129.0,4.0,1153.4957000000477,129.0,,,,1157.242,1157.7412000000477,1156.728399999976,1157.241899999976,1154.497,1156.7282999999522,1157.7412999999524,1158.2412000000477,1158.2412999999524,1160.26,1496.0,1160.26,4.0,1160.2602000000477,4.0,9.0,129.0,27.0,1.0,1.2,0.7,Time
,,S36,1,女,20,anonymized,Serial_Dependence_U,2023.2.3,Win32,59.88023952096852,,,,,,1160.260399999976,290.0,4.0,1160.260399999976,290.0,,,,1163.825399999976,1164.3226000000238,1163.3111000000238,1163.8252999999522,1161.2752000000476,1163.311,1164.3226000000238,1164.8227000000477,1164.8227000000477,1166.4105,1296.0,1166.4106000000238,4.0,1166.4115,4.0,10.0,130.0,26.0,1.0,1.0,0.7,Time
,,S36,1,女,20,anonymized,Serial_Dependence_U,2023.2.3,Win32,59.88023952096852,,,,,,1166.4118999999762,220.0,4.0,1166.4118999999762,220.0,,,,1170.159,1170.654399999976,1169.64,1170.158899999976,1167.406899999976,1169.639899999976,1170.6545,1171.1582000000476,1171.1582000000476,1172.8572999999524,1332.0,1172.8573999999762,4.0,1172.8576000000237,4.0,11.0,131.0,17.0,1.0,1.2,0.7,Time
,,S36,1,女,20,anonymized,Serial_Dependence_U,2023.2.3,Win32,59.88023952096852,,,,,,1172.8577999999522,345.0,4.0,1172.8577999999522,345.0,,,,1176.2196000000238,1176.7188999999762,1175.7082000000476,1176.2195,1173.8701000000235,1175.7081000000237,1176.7188999999762,1177.219,1177.2192000000475,1179.1852000000476,1495.0,1179.1852999999523,5.0,1179.1855,4.0,12.0,132.0,5.0,1.0,0.8,0.7,Time
,,S36,1,女,20,anonymized,Serial_Dependence_U,2023.2.3,Win32,59.88023952096852,,,,,,1179.1857999999522,189.0,4.0,1179.185899999976,189.0,,,,1182.7695,1183.267,1182.268399999976,1182.7695,1180.2022000000477,1182.2682999999522,1183.267100000024,1183.7672000000478,1183.767399999976,1184.953,725.0,1184.953,2.0,1184.9531000000238,4.0,13.0,133.0,1.0,1.0,1.0,0.3,Time
,,S36,1,女,20,anonymized,Serial_Dependence_U,2023.2.3,Win32,59.88023952096852,,,,,,1184.9532999999524,43.0,4.0,1184.9532999999524,43.0,,,,1188.7542000000476,1189.2487999999523,1188.2357000000477,1188.754,1185.9682000000475,1188.2357000000477,1189.2487999999523,1189.7487000000476,1189.7487000000476,1191.365100000024,1495.0,1191.3652000000477,4.0,1191.365399999976,4.0,14.0,134.0,2.0,1.0,1.2,0.3,Time
,,S36,1,女,20,anonymized,Serial_Dependence_U,2023.2.3,Win32,59.88023952096852,,,,,,1191.3656000000235,197.0,4.0,1191.3657000000476,197.0,,,,1194.947399999976,1195.447,1194.4336000000235,1194.9472000000476,1192.368899999976,1194.4335,1195.4471000000235,1195.946899999976,1195.946899999976,1197.4162000000476,1084.0,1197.4162999999523,4.0,1197.4163999999762,4.0,15.0,135.0,11.0,1.0,1.0,0.3,Time
,,S36,1,女,20,anonymized,Serial_Dependence_U,2023.2.3,Win32,59.88023952096852,,,,,,1197.4167000000475,51.0,4.0,1197.4167000000475,51.0,,,,1201.6142000000475,1202.1118999999762,1201.1003999999762,1201.6142000000475,1198.4298999999762,1201.1002999999523,1202.1118999999762,1202.6122000000476,1202.6125,1204.416,1485.0,1204.4161000000238,2.0,1204.4161000000238,4.0,16.0,136.0,24.0,1.0,1.6,0.3,Time
,,S36,1,女,20,anonymized,Serial_Dependence_U,2023.2.3,Win32,59.88023952096852,,,,,,1204.4162999999523,167.0,4.0,1204.4163999999762,167.0,,,,1207.7992999999524,1208.2947000000477,1207.298100000024,1207.7992999999524,1205.4286000000238,1207.298100000024,1208.2947999999524,1208.7932000000476,1208.7932999999523,1210.748399999976,1583.0,1210.748399999976,5.0,1210.7487000000476,4.0,17.0,137.0,10.0,1.0,0.8,0.3,Time
,,S36,1,女,20,anonymized,Serial_Dependence_U,2023.2.3,Win32,59.88023952096852,,,,,,1210.749100000024,309.0,4.0,1210.7492000000475,309.0,,,,1214.3283999999762,1214.8252999999522,1213.8131000000235,1214.3283999999762,1211.7472000000475,1213.813,1214.825399999976,1215.3257000000476,1215.3257999999523,1216.5776000000235,915.0,1216.5776000000235,2.0,1216.5777000000476,4.0,18.0,138.0,21.0,1.0,1.0,0.3,Time
,,S36,1,女,20,anonymized,Serial_Dependence_U,2023.2.3,Win32,59.88023952096852,,,,,,1216.578,196.0,4.0,1216.578,196.0,,,,1220.774,1221.2731000000238,1220.259,1220.7737000000477,1217.5942999999522,1220.259,1221.2732000000476,1221.7737000000477,1221.773899999976,1223.7087999999524,1530.0,1223.7088999999762,3.0,1223.709100000024,4.0,19.0,139.0,4.0,1.0,1.6,0.3,Time
,,S36,1,女,20,anonymized,Serial_Dependence_U,2023.2.3,Win32,59.88023952096852,,,,,,1223.7092000000478,94.0,4.0,1223.709399999976,94.0,,,,1227.0931000000237,1227.5892000000476,1226.590600000024,1227.0928999999762,1224.7223999999762,1226.5905,1227.5892999999523,1228.0882999999524,1228.0885,1229.7733999999762,1349.0,1229.7735,5.0,1229.7737000000477,4.0,20.0,140.0,20.0,1.0,0.8,0.3,Time
,,S36,1,女,20,anonymized,Serial_Dependence_U,2023.2.3,Win32,59.88023952096852,,,,,,1229.7737999999522,100.0,4.0,1229.773899999976,100.0,,,,1233.7702000000477,1234.2711000000238,1233.2568999999762,1233.7701000000238,1230.7892000000477,1233.2568999999762,1234.2712999999524,1234.7696000000235,1234.7697000000476,1237.068899999976,1967.0,1237.069,5.0,1237.0692000000477,4.0,21.0,141.0,3.0,1.0,1.4,0.3,Time
,,S36,1,女,20,anonymized,Serial_Dependence_U,2023.2.3,Win32,59.88023952096852,,,,,,1237.069600000024,345.0,4.0,1237.0697999999522,345.0,,,,1240.836399999976,1241.3345,1240.3205,1240.8362999999522,1238.0735,1240.3205,1241.3346000000238,1241.834100000024,1241.8342000000478,1243.7362000000476,1632.0,1243.7362000000476,5.0,1243.7362999999525,4.0,22.0,142.0,7.0,1.0,1.2,0.7,Time
,,S36,1,女,20,anonymized,Serial_Dependence_U,2023.2.3,Win32,59.88023952096852,,,,,,1243.7365,48.0,4.0,1243.7366000000238,48.0,,,,1247.701,1248.1992999999522,1247.1851000000238,1247.7008999999762,1244.7505,1247.1851000000238,1248.199399999976,1248.7021000000238,1248.7021000000238,1251.2867999999523,2233.0,1251.2867999999523,5.0,1251.287100000024,4.0,23.0,143.0,8.0,1.0,1.4,0.7,Time
,,S36,1,女,20,anonymized,Serial_Dependence_U,2023.2.3,Win32,59.88023952096852,,,,,,1251.287399999976,267.0,4.0,1251.2875,267.0,,,,1254.6528999999762,1255.1482000000476,1254.1332999999522,1254.6528999999762,1252.2862999999522,1254.1332000000475,1255.1482999999523,1255.6467000000478,1255.6467999999522,1257.582399999976,1550.0,1257.582399999976,5.0,1257.5826000000238,4.0,24.0,144.0,15.0,1.0,0.8,0.7,Time
,,S36,1,女,20,anonymized,Serial_Dependence_U,2023.2.3,Win32,59.88023952096852,,,,,,1257.5827999999524,251.0,4.0,1257.5827999999524,251.0,,,,1260.9291000000237,1261.4291000000237,1260.4145,1260.928899999976,1258.5827999999524,1260.4145,1261.4292999999525,1261.9282000000476,1261.9282000000476,1264.180399999976,1896.0,1264.1805,5.0,1264.1807000000476,4.0,25.0,145.0,25.0,1.0,0.8,0.7,Time
,,S36,1,女,20,anonymized,Serial_Dependence_U,2023.2.3,Win32,59.88023952096852,,,,,,1264.1808999999762,244.0,4.0,1264.181,244.0,,,,1268.3611000000235,1268.8601000000235,1267.845399999976,1268.361,1265.1822999999522,1267.8452999999522,1268.8601000000235,1269.3612999999525,1269.361399999976,1272.209100000024,2530.0,1272.2092000000478,5.0,1272.2095,4.0,26.0,146.0,14.0,1.0,1.6,0.3,Time
,,S36,1,女,20,anonymized,Serial_Dependence_U,2023.2.3,Win32,59.88023952096852,,,,,,1272.2097000000476,172.0,4.0,1272.2098999999762,172.0,,,,1276.011,1276.507399999976,1275.4942000000476,1276.011,1273.2278999999762,1275.4942000000476,1276.5075,1277.007399999976,1277.0075,1279.076399999976,1559.0,1279.076399999976,4.0,1279.0767000000476,4.0,27.0,147.0,12.0,1.0,1.2,0.3,Time
,,S36,1,女,20,anonymized,Serial_Dependence_U,2023.2.3,Win32,59.88023952096852,,,,,,1279.077,7.0,4.0,1279.077,7.0,,,,1282.6397000000477,1283.1397000000477,1282.1252000000477,1282.6396000000238,1280.09,1282.1251000000238,1283.1397000000477,1283.638600000024,1283.6387000000475,1285.2935,1332.0,1285.2936000000238,5.0,1285.2937999999522,4.0,28.0,148.0,16.0,1.0,1.0,0.7,Time
,,S36,1,女,20,anonymized,Serial_Dependence_U,2023.2.3,Win32,59.88023952096852,,,,,,1285.294,26.0,4.0,1285.2941000000235,26.0,,,,1289.4376000000238,1289.9373999999762,1288.9261000000238,1289.4376000000238,1286.2927999999522,1288.926,1289.9376000000238,1290.4372999999523,1290.4375,1293.2415,2373.0,1293.2416000000237,5.0,1293.2417999999525,4.0,29.0,149.0,29.0,1.0,1.6,0.7,Time
,,S36,1,女,20,anonymized,Serial_Dependence_U,2023.2.3,Win32,59.88023952096852,,,,,,1293.2421000000238,72.0,5.0,1347.4712000000477,72.0,s,54.212400000095386,,1351.0247000000477,1351.5202000000477,1350.5067999999524,1351.0247000000477,1348.4717999999525,1350.5067000000477,1351.5203999999762,1352.0202000000477,1352.0206000000237,1353.7565,1282.0,1353.7565,4.0,1353.7566000000238,5.0,0.0,150.0,6.0,1.0,1.0,0.7,Time
,,S36,1,女,20,anonymized,Serial_Dependence_U,2023.2.3,Win32,59.88023952096852,,,,,,1353.7568999999762,128.0,5.0,1353.7576000000238,128.0,,,,1357.7347000000475,1358.2345,1357.2232000000477,1357.734600000024,1354.7572999999522,1357.2231000000238,1358.234600000024,1358.7342999999523,1358.7343999999762,1360.5188999999762,1117.0,1360.5188999999762,2.0,1360.5192000000477,5.0,1.0,151.0,23.0,1.0,1.4,0.3,Time
,,S36,1,女,20,anonymized,Serial_Dependence_U,2023.2.3,Win32,59.88023952096852,,,,,,1360.519399999976,242.0,5.0,1360.5195,242.0,,,,1363.885899999976,1364.383100000024,1363.3682999999523,1363.8857999999525,1361.5217999999522,1363.3682999999523,1364.3832000000475,1364.8837999999523,1364.8838999999762,1366.5536000000238,1218.0,1366.5536000000238,5.0,1366.5537999999524,5.0,2.0,152.0,25.0,1.0,0.8,0.7,Time
,,S36,1,女,20,anonymized,Serial_Dependence_U,2023.2.3,Win32,59.88023952096852,,,,,,1366.554,41.0,5.0,1366.5541000000237,41.0,,,,1370.1312999999525,1370.630899999976,1369.6182999999523,1370.1312999999525,1367.5525,1369.6182999999523,1370.631,1371.131399999976,1371.1316000000238,1372.9001000000237,1233.0,1372.9001000000237,4.0,1372.9002999999525,5.0,3.0,153.0,1.0,1.0,1.0,0.3,Time
,,S36,1,女,20,anonymized,Serial_Dependence_U,2023.2.3,Win32,59.88023952096852,,,,,,1372.9005,315.0,5.0,1372.9006000000238,315.0,,,,1377.0976000000237,1377.596,1376.582,1377.0976000000237,1373.914399999976,1376.581899999976,1377.596,1378.1005,1378.1005,1380.2782999999522,1827.0,1380.2782999999522,4.0,1380.2786000000235,5.0,4.0,154.0,14.0,1.0,1.6,0.3,Time
,,S36,1,女,20,anonymized,Serial_Dependence_U,2023.2.3,Win32,59.88023952096852,,,,,,1380.2787999999523,120.0,5.0,1380.278899999976,120.0,,,,1384.4776000000238,1384.9771000000237,1383.965899999976,1384.4776000000238,1381.296100000024,1383.9657999999522,1384.9772000000476,1385.476899999976,1385.4771000000237,1387.9826000000237,2132.0,1387.9826000000237,5.0,1387.982899999976,5.0,5.0,155.0,24.0,1.0,1.6,0.3,Time
,,S36,1,女,20,anonymized,Serial_Dependence_U,2023.2.3,Win32,59.88023952096852,,,,,,1387.9832000000476,130.0,5.0,1387.9832999999524,130.0,,,,1391.7762999999522,1392.2747999999524,1391.264399999976,1391.7762000000475,1388.998,1391.2642999999523,1392.2747999999524,1392.7757000000477,1392.7757000000477,1394.4772000000476,1167.0,1394.4772999999525,3.0,1394.477399999976,5.0,6.0,156.0,12.0,1.0,1.2,0.3,Time
,,S36,1,女,20,anonymized,Serial_Dependence_U,2023.2.3,Win32,59.88023952096852,,,,,,1394.4777000000477,52.0,5.0,1394.4778999999762,52.0,,,,1398.442100000024,1398.9407000000476,1397.9282000000476,1398.4418999999762,1395.4792000000475,1397.9281000000235,1398.9407999999523,1399.441,1399.4412000000475,1401.5917999999522,1748.0,1401.591899999976,4.0,1401.5922000000476,5.0,7.0,157.0,8.0,1.0,1.4,0.7,Time
,,S36,1,女,20,anonymized,Serial_Dependence_U,2023.2.3,Win32,59.88023952096852,,,,,,1401.592399999976,138.0,5.0,1401.5925,138.0,,,,1405.539899999976,1406.0382000000477,1405.038100000024,1405.5397000000476,1402.6057000000476,1405.038100000024,1406.0382999999522,1406.538899999976,1406.538899999976,1409.0075,2149.0,1409.0075,5.0,1409.0077000000476,5.0,8.0,158.0,18.0,1.0,1.4,0.7,Time
,,S36,1,女,20,anonymized,Serial_Dependence_U,2023.2.3,Win32,59.88023952096852,,,,,,1409.0077999999523,239.0,5.0,1409.0078999999762,239.0,,,,1412.8068999999762,1413.303399999976,1412.2915,1412.8067999999523,1410.0201000000238,1412.2913999999762,1413.3036000000238,1413.8027999999522,1413.802899999976,1415.6886000000238,1540.0,1415.6887000000477,4.0,1415.6888999999762,5.0,9.0,159.0,2.0,1.0,1.2,0.3,Time
,,S36,1,女,20,anonymized,Serial_Dependence_U,2023.2.3,Win32,59.88023952096852,,,,,,1415.6891000000237,346.0,5.0,1415.6892000000475,346.0,,,,1419.0355,1419.5367000000476,1418.5225,1419.035399999976,1416.6877000000477,1418.5223999999762,1419.5367000000476,1420.0342999999525,1420.0346000000238,1421.338600000024,1275.0,1421.338600000024,5.0,1421.338899999976,5.0,10.0,160.0,5.0,1.0,0.8,0.7,Time
,,S36,1,女,20,anonymized,Serial_Dependence_U,2023.2.3,Win32,59.88023952096852,,,,,,1421.3392000000476,237.0,5.0,1421.3392999999523,237.0,,,,1424.9327000000476,1425.4331000000238,1424.420399999976,1424.9326000000235,1422.353100000024,1424.420399999976,1425.4332999999522,1425.9318999999762,1425.932,1427.987,1268.0,1427.9871000000237,4.0,1427.987399999976,5.0,11.0,161.0,21.0,1.0,1.0,0.3,Time
,,S36,1,女,20,anonymized,Serial_Dependence_U,2023.2.3,Win32,59.88023952096852,,,,,,1427.9877000000477,52.0,5.0,1427.9877999999524,52.0,,,,1431.7477000000476,1432.2475,1431.2362999999525,1431.7476000000238,1428.9987999999523,1431.2362000000476,1432.2476000000238,1432.7465,1432.7466000000238,1435.1322000000478,2014.0,1435.1322000000478,5.0,1435.132399999976,5.0,12.0,162.0,27.0,1.0,1.2,0.7,Time
,,S36,1,女,20,anonymized,Serial_Dependence_U,2023.2.3,Win32,59.88023952096852,,,,,,1435.1326000000238,252.0,5.0,1435.1326000000238,252.0,,,,1439.2977999999523,1439.796,1438.7837000000477,1439.2977000000476,1436.146899999976,1438.7837000000477,1439.796,1440.2952000000475,1440.2952999999522,1442.6636000000235,1946.0,1442.6637000000476,4.0,1442.6637999999523,5.0,13.0,163.0,19.0,1.0,1.6,0.7,Time
,,S36,1,女,20,anonymized,Serial_Dependence_U,2023.2.3,Win32,59.88023952096852,,,,,,1442.664,36.0,5.0,1442.664,36.0,,,,1446.4106000000238,1446.909399999976,1445.896899999976,1446.4105,1443.6647999999525,1445.8967999999522,1446.909399999976,1447.410399999976,1447.4106000000238,1449.4645,1733.0,1449.464600000024,5.0,1449.464899999976,5.0,14.0,164.0,17.0,1.0,1.2,0.7,Time
,,S36,1,女,20,anonymized,Serial_Dependence_U,2023.2.3,Win32,59.88023952096852,,,,,,1449.4652000000476,255.0,5.0,1449.4653999999762,255.0,,,,1453.2442000000476,1453.7412000000477,1452.725,1453.2441000000238,1450.4602000000475,1452.725,1453.7412999999524,1454.2435,1454.243600000024,1455.977,1432.0,1455.977,4.0,1455.9772000000476,5.0,15.0,165.0,22.0,1.0,1.2,0.3,Time
,,S36,1,女,20,anonymized,Serial_Dependence_U,2023.2.3,Win32,59.88023952096852,,,,,,1455.977399999976,212.0,5.0,1455.9775,212.0,,,,1460.1248999999762,1460.6222999999522,1459.610899999976,1460.1247999999523,1456.9755,1459.6107999999522,1460.6222999999522,1461.122,1461.122,1463.3048999999762,1779.0,1463.305,4.0,1463.3052999999522,5.0,16.0,166.0,29.0,1.0,1.6,0.7,Time
,,S36,1,女,20,anonymized,Serial_Dependence_U,2023.2.3,Win32,59.88023952096852,,,,,,1463.3055,17.0,5.0,1463.3056000000238,17.0,,,,1466.6577999999522,1467.154399999976,1466.156600000024,1466.6577999999522,1464.3215,1466.1565,1467.1546000000235,1467.6537000000476,1467.6537000000476,1469.1542999999522,1140.0,1469.154399999976,5.0,1469.1546000000235,5.0,17.0,167.0,15.0,1.0,0.8,0.7,Time
,,S36,1,女,20,anonymized,Serial_Dependence_U,2023.2.3,Win32,59.88023952096852,,,,,,1469.154899999976,354.0,5.0,1469.155,354.0,,,,1473.338600000024,1473.839,1472.8237999999524,1473.338600000024,1470.1583999999762,1472.8237999999524,1473.839,1474.3357999999523,1474.336,1475.9867999999524,1099.0,1475.9868999999762,1.0,1475.9872999999525,5.0,18.0,168.0,4.0,1.0,1.6,0.3,Time
,,S36,1,女,20,anonymized,Serial_Dependence_U,2023.2.3,Win32,59.88023952096852,,,,,,1475.9877000000477,340.0,5.0,1475.9878999999762,340.0,,,,1479.985899999976,1480.484600000024,1479.4722000000477,1479.9857999999522,1477.000899999976,1479.4721000000238,1480.4847000000475,1480.9843999999762,1480.984600000024,1482.801,1382.0,1482.801,3.0,1482.8012000000476,5.0,19.0,169.0,3.0,1.0,1.4,0.3,Time
,,S36,1,女,20,anonymized,Serial_Dependence_U,2023.2.3,Win32,59.88023952096852,,,,,,1482.8013999999762,351.0,5.0,1482.801600000024,351.0,,,,1486.784,1487.282899999976,1486.2697000000476,1486.783899999976,1483.8042000000476,1486.2696000000235,1487.283,1487.781600000024,1487.7817999999522,1489.8697999999522,1284.0,1489.8697999999522,2.0,1489.8701000000235,5.0,20.0,170.0,13.0,1.0,1.4,0.3,Time
,,S36,1,女,20,anonymized,Serial_Dependence_U,2023.2.3,Win32,59.88023952096852,,,,,,1489.870399999976,137.0,5.0,1489.8705,137.0,,,,1493.2337999999522,1493.7297000000476,1492.7323999999762,1493.2337000000475,1490.8655,1492.7323999999762,1493.7297999999523,1494.2296000000238,1494.2297000000476,1495.5166000000238,818.0,1495.5167000000476,3.0,1495.5168999999762,5.0,21.0,171.0,0.0,1.0,0.8,0.3,Time
,,S36,1,女,20,anonymized,Serial_Dependence_U,2023.2.3,Win32,59.88023952096852,,,,,,1495.517,18.0,5.0,1495.517100000024,18.0,,,,1499.0802999999523,1499.5782000000477,1498.5637999999524,1499.0802000000476,1496.5292000000477,1498.5637000000477,1499.5783999999762,1500.078,1500.0782000000477,1501.9136000000235,1447.0,1501.9137000000476,5.0,1501.9137999999523,5.0,22.0,172.0,26.0,1.0,1.0,0.7,Time
,,S36,1,女,20,anonymized,Serial_Dependence_U,2023.2.3,Win32,59.88023952096852,,,,,,1501.914,135.0,5.0,1501.9141000000238,135.0,,,,1506.0767000000476,1506.5762999999522,1505.562,1506.0767000000476,1502.9152000000477,1505.561899999976,1506.5765,1507.0762000000475,1507.0762999999522,1509.327899999976,1930.0,1509.327899999976,4.0,1509.3282000000477,5.0,23.0,173.0,9.0,1.0,1.6,0.7,Time
,,S36,1,女,20,anonymized,Serial_Dependence_U,2023.2.3,Win32,59.88023952096852,,,,,,1509.3285,255.0,5.0,1509.3286000000237,255.0,,,,1512.8956000000237,1513.3916000000238,1512.3938999999762,1512.8955,1510.3265,1512.3938999999762,1513.3917000000476,1513.8911000000237,1513.8912000000475,1515.344,1099.0,1515.344,4.0,1515.3442000000475,5.0,24.0,174.0,11.0,1.0,1.0,0.3,Time
,,S36,1,女,20,anonymized,Serial_Dependence_U,2023.2.3,Win32,59.88023952096852,,,,,,1515.344399999976,78.0,5.0,1515.344399999976,78.0,,,,1519.2942000000476,1519.788899999976,1518.7922999999523,1519.2941000000235,1516.3571000000238,1518.7922000000476,1519.789,1520.290600000024,1520.290600000024,1522.5082999999522,1833.0,1522.508399999976,5.0,1522.5086000000238,5.0,25.0,175.0,28.0,1.0,1.4,0.7,Time
,,S36,1,女,20,anonymized,Serial_Dependence_U,2023.2.3,Win32,59.88023952096852,,,,,,1522.5087999999523,1.0,5.0,1522.5087999999523,1.0,,,,1525.906600000024,1526.404399999976,1525.3882999999523,1525.906600000024,1523.5213999999762,1525.3881000000238,1526.404399999976,1526.9046000000235,1526.9047999999525,1528.192,1032.0,1528.192100000024,4.0,1528.1922999999522,5.0,26.0,176.0,10.0,1.0,0.8,0.3,Time
,,S36,1,女,20,anonymized,Serial_Dependence_U,2023.2.3,Win32,59.88023952096852,,,,,,1528.192899999976,186.0,5.0,1528.193,186.0,,,,1531.740399999976,1532.2355,1531.2237000000478,1531.7402999999522,1529.1896000000238,1531.2237000000478,1532.235600000024,1532.7357999999522,1532.735899999976,1534.3017999999522,1239.0,1534.301899999976,4.0,1534.3021000000238,5.0,27.0,177.0,16.0,1.0,1.0,0.7,Time
,,S36,1,女,20,anonymized,Serial_Dependence_U,2023.2.3,Win32,59.88023952096852,,,,,,1534.3022999999523,217.0,5.0,1534.3023999999762,217.0,,,,1538.067399999976,1538.567,1537.5555,1538.0672999999522,1535.3203999999762,1537.5555,1538.567,1539.0672999999522,1539.0675,1540.3695,934.0,1540.3695,2.0,1540.3697999999522,5.0,28.0,178.0,7.0,1.0,1.2,0.7,Time
,,S36,1,女,20,anonymized,Serial_Dependence_U,2023.2.3,Win32,59.88023952096852,,,,,,1540.3701000000235,303.0,5.0,1540.3702000000476,303.0,,,,1543.7492000000475,1544.2507000000476,1543.2371000000237,1543.7492000000475,1541.3685,1543.237,1544.2507000000476,1544.7482999999522,1544.748399999976,1546.7541000000238,1650.0,1546.7542000000476,5.0,1546.7543999999762,5.0,29.0,179.0,20.0,1.0,0.8,0.3,Time
,,S36,1,女,20,anonymized,Serial_Dependence_U,2023.2.3,Win32,59.88023952096852,,,,,,1546.7547999999522,228.0,6.0,1568.7582000000475,228.0,s,21.987199999928407,,1572.1418999999762,1572.641399999976,1571.63,1572.1418999999762,1569.763600000024,1571.629899999976,1572.6416000000238,1573.1415,1573.1417000000476,1575.2298999999762,1651.0,1575.230100000024,5.0,1575.2302000000475,6.0,0.0,180.0,0.0,1.0,0.8,0.3,Time
,,S36,1,女,20,anonymized,Serial_Dependence_U,2023.2.3,Win32,59.88023952096852,,,,,,1575.2305,50.0,6.0,1575.2312999999522,50.0,,,,1578.807,1579.3055,1578.2942999999525,1578.8067999999523,1576.2267000000477,1578.2942000000476,1579.3056000000238,1579.8062999999522,1579.806399999976,1582.1772000000476,2005.0,1582.1772000000476,5.0,1582.1775,6.0,1.0,181.0,21.0,1.0,1.0,0.3,Time
,,S36,1,女,20,anonymized,Serial_Dependence_U,2023.2.3,Win32,59.88023952096852,,,,,,1582.1777999999522,10.0,6.0,1582.178,10.0,,,,1585.9542000000476,1586.4542999999524,1585.4427000000476,1585.9541000000238,1583.1732000000477,1585.4425,1586.4543999999762,1586.9557000000475,1586.9557000000475,1589.4912000000477,2149.0,1589.4912000000477,5.0,1589.4915,6.0,2.0,182.0,12.0,1.0,1.2,0.3,Time
,,S36,1,女,20,anonymized,Serial_Dependence_U,2023.2.3,Win32,59.88023952096852,,,,,,1589.4917000000476,85.0,6.0,1589.4917000000476,85.0,,,,1592.8717999999524,1593.3687000000475,1592.3567999999525,1592.8717999999524,1590.4906000000235,1592.3567000000476,1593.3687999999522,1593.868,1593.868,1595.2343999999762,1000.0,1595.2343999999762,4.0,1595.2347999999522,6.0,3.0,183.0,20.0,1.0,0.8,0.3,Time
,,S36,1,女,20,anonymized,Serial_Dependence_U,2023.2.3,Win32,59.88023952096852,,,,,,1595.235,309.0,6.0,1595.2351000000235,309.0,,,,1598.6007000000477,1599.1001000000238,1598.085,1598.6007000000477,1596.2511000000238,1598.0847000000476,1599.1001000000238,1599.5997000000475,1599.5997000000475,1601.8022000000476,1815.0,1601.8022000000476,5.0,1601.8022999999523,6.0,4.0,184.0,5.0,1.0,0.8,0.7,Time
,,S36,1,女,20,anonymized,Serial_Dependence_U,2023.2.3,Win32,59.88023952096852,,,,,,1601.8025,28.0,6.0,1601.802600000024,28.0,,,,1605.7488999999762,1606.2487999999523,1605.2365,1605.7487999999523,1602.8012000000476,1605.236399999976,1606.249,1606.7487999999523,1606.7488999999762,1609.3167000000476,2249.0,1609.3167000000476,5.0,1609.317,6.0,5.0,185.0,8.0,1.0,1.4,0.7,Time
,,S36,1,女,20,anonymized,Serial_Dependence_U,2023.2.3,Win32,59.88023952096852,,,,,,1609.317100000024,257.0,6.0,1609.3172000000477,257.0,,,,1613.498,1613.9972000000475,1612.981899999976,1613.4978999999762,1610.3152999999522,1612.9817000000476,1613.9972000000475,1614.4952999999523,1614.4952999999523,1615.8283999999762,978.0,1615.8285,1.0,1615.828899999976,6.0,6.0,186.0,4.0,1.0,1.6,0.3,Time
,,S36,1,女,20,anonymized,Serial_Dependence_U,2023.2.3,Win32,59.88023952096852,,,,,,1615.8292000000476,9.0,6.0,1615.8293999999762,9.0,,,,1619.8111000000238,1620.3112000000476,1619.2946000000238,1619.8111000000238,1616.829899999976,1619.2945,1620.3112999999523,1620.8102999999523,1620.8102999999523,1622.8481000000238,1685.0,1622.8481000000238,4.0,1622.8482999999524,6.0,7.0,187.0,23.0,1.0,1.4,0.3,Time
,,S36,1,女,20,anonymized,Serial_Dependence_U,2023.2.3,Win32,59.88023952096852,,,,,,1622.848600000024,300.0,6.0,1622.8487000000478,300.0,,,,1626.1961000000238,1626.6947999999522,1625.6951000000238,1626.1961000000238,1623.8601000000235,1625.6951000000238,1626.6947999999522,1627.1922000000477,1627.1922999999522,1629.747,2069.0,1629.7471000000237,5.0,1629.7472999999522,6.0,8.0,188.0,15.0,1.0,0.8,0.7,Time
,,S36,1,女,20,anonymized,Serial_Dependence_U,2023.2.3,Win32,59.88023952096852,,,,,,1629.7476000000238,270.0,6.0,1629.7477000000476,270.0,,,,1633.2941000000235,1633.7901000000238,1632.7795,1633.2941000000235,1630.7467000000477,1632.7792999999522,1633.7901000000238,1634.2897999999525,1634.29,1636.3105,1750.0,1636.3105,5.0,1636.3107000000475,6.0,9.0,189.0,6.0,1.0,1.0,0.7,Time
,,S36,1,女,20,anonymized,Serial_Dependence_U,2023.2.3,Win32,59.88023952096852,,,,,,1636.310899999976,199.0,6.0,1636.311,199.0,,,,1640.507100000024,1641.004899999976,1639.9941000000238,1640.507100000024,1637.3258999999762,1639.994,1641.004899999976,1641.5045,1641.504600000024,1644.341399999976,2532.0,1644.341399999976,5.0,1644.3415,6.0,10.0,190.0,14.0,1.0,1.6,0.3,Time
,,S36,1,女,20,anonymized,Serial_Dependence_U,2023.2.3,Win32,59.88023952096852,,,,,,1644.3417000000477,29.0,6.0,1644.3417999999522,29.0,,,,1648.5027999999522,1649.0023999999762,1647.9885,1648.5027000000478,1645.3416000000238,1647.988399999976,1649.002600000024,1649.5022000000477,1649.5022999999524,1652.039,2213.0,1652.039,5.0,1652.0392000000477,6.0,11.0,191.0,19.0,1.0,1.6,0.7,Time
,,S36,1,女,20,anonymized,Serial_Dependence_U,2023.2.3,Win32,59.88023952096852,,,,,,1652.039399999976,20.0,6.0,1652.039399999976,20.0,,,,1656.2182000000475,1656.7167000000477,1655.7053999999762,1656.2182000000475,1653.0362999999522,1655.7052999999523,1656.7167000000477,1657.2166000000238,1657.2167000000477,1660.3661000000238,2784.0,1660.3661000000238,5.0,1660.3662999999524,6.0,12.0,192.0,24.0,1.0,1.6,0.3,Time
,,S36,1,女,20,anonymized,Serial_Dependence_U,2023.2.3,Win32,59.88023952096852,,,,,,1660.3666000000237,172.0,6.0,1660.3666000000237,172.0,,,,1664.1335,1664.631399999976,1663.6187000000475,1664.1332000000475,1661.3872999999523,1663.618600000024,1664.6315,1665.1317000000477,1665.1317000000477,1667.1837000000476,1716.0,1667.1837999999525,5.0,1667.183899999976,6.0,13.0,193.0,7.0,1.0,1.2,0.7,Time
,,S36,1,女,20,anonymized,Serial_Dependence_U,2023.2.3,Win32,59.88023952096852,,,,,,1667.1841000000238,153.0,6.0,1667.1841000000238,153.0,,,,1670.5467000000476,1671.046,1670.0327999999522,1670.5467000000476,1668.2002999999522,1670.032600000024,1671.046100000024,1671.5468999999762,1671.5472000000475,1672.919,1042.0,1672.919,5.0,1672.9192999999525,6.0,14.0,194.0,25.0,1.0,0.8,0.7,Time
,,S36,1,女,20,anonymized,Serial_Dependence_U,2023.2.3,Win32,59.88023952096852,,,,,,1672.9197000000477,78.0,6.0,1672.9198999999762,78.0,,,,1676.8622000000476,1677.3615,1676.3477000000476,1676.8621000000237,1673.9152999999524,1676.3477000000476,1677.3615,1677.8615,1677.8615,1680.33,2114.0,1680.33,5.0,1680.3302000000476,6.0,15.0,195.0,28.0,1.0,1.4,0.7,Time
,,S36,1,女,20,anonymized,Serial_Dependence_U,2023.2.3,Win32,59.88023952096852,,,,,,1680.3303999999762,159.0,6.0,1680.3305,159.0,,,,1684.076,1684.5757000000476,1683.5632000000476,1684.076,1681.3293999999762,1683.5631000000235,1684.5757999999523,1685.0757999999523,1685.0758999999762,1687.5946000000238,2161.0,1687.5947000000476,5.0,1687.5947999999523,6.0,16.0,196.0,27.0,1.0,1.2,0.7,Time
,,S36,1,女,20,anonymized,Serial_Dependence_U,2023.2.3,Win32,59.88023952096852,,,,,,1687.595,10.0,6.0,1687.5952000000475,10.0,,,,1691.594,1692.0905,1691.0776000000235,1691.5938999999762,1688.613,1691.0775,1692.090600000024,1692.5901000000238,1692.5902000000476,1694.526,1572.0,1694.526100000024,4.0,1694.5262999999522,6.0,17.0,197.0,13.0,1.0,1.4,0.3,Time
,,S36,1,女,20,anonymized,Serial_Dependence_U,2023.2.3,Win32,59.88023952096852,,,,,,1694.5265,244.0,6.0,1694.5267000000476,244.0,,,,1698.294,1698.7901000000238,1697.7772000000475,1698.293899999976,1695.5441000000235,1697.777100000024,1698.7901000000238,1699.2885,1699.2886000000235,1701.171399999976,1669.0,1701.171399999976,5.0,1701.1717000000476,6.0,18.0,198.0,17.0,1.0,1.2,0.7,Time
,,S36,1,女,20,anonymized,Serial_Dependence_U,2023.2.3,Win32,59.88023952096852,,,,,,1701.172,58.0,6.0,1701.172100000024,58.0,,,,1705.355,1705.8538999999762,1704.8392000000476,1705.3547999999523,1702.1912000000475,1704.8391000000238,1705.854100000024,1706.3542000000475,1706.3542999999522,1708.6717999999523,2015.0,1708.6717999999523,4.0,1708.6718999999762,6.0,19.0,199.0,29.0,1.0,1.6,0.7,Time
,,S36,1,女,20,anonymized,Serial_Dependence_U,2023.2.3,Win32,59.88023952096852,,,,,,1708.6722000000475,80.0,6.0,1708.6722000000475,80.0,,,,1712.6182999999523,1713.1177999999522,1712.1067999999525,1712.6182000000476,1709.6732000000477,1712.1067000000476,1713.1177999999522,1713.6175,1713.617600000024,1715.6367999999522,1683.0,1715.6367999999522,4.0,1715.637,6.0,20.0,200.0,18.0,1.0,1.4,0.7,Time
,,S36,1,女,20,anonymized,Serial_Dependence_U,2023.2.3,Win32,59.88023952096852,,,,,,1715.6372000000476,199.0,6.0,1715.6373999999762,199.0,,,,1719.235600000024,1719.7322999999524,1718.7187000000476,1719.2355,1716.6506000000238,1718.7186000000238,1719.7325,1720.2327000000475,1720.2327999999522,1721.8662999999524,1243.0,1721.866399999976,4.0,1721.8665,6.0,21.0,201.0,1.0,1.0,1.0,0.3,Time
,,S36,1,女,20,anonymized,Serial_Dependence_U,2023.2.3,Win32,59.88023952096852,,,,,,1721.8667999999525,79.0,6.0,1721.867,79.0,,,,1725.2647000000477,1725.7641000000235,1724.7506000000235,1725.2646000000238,1722.8851000000238,1724.7505,1725.7642000000476,1726.2641000000235,1726.2642999999523,1727.4976000000238,866.0,1727.4976000000238,4.0,1727.4978999999762,6.0,22.0,202.0,10.0,1.0,0.8,0.3,Time
,,S36,1,女,20,anonymized,Serial_Dependence_U,2023.2.3,Win32,59.88023952096852,,,,,,1727.498,41.0,6.0,1727.4982999999522,41.0,,,,1731.0842000000478,1731.5802999999523,1730.566399999976,1731.0842000000478,1728.4975,1730.566399999976,1731.5803999999762,1732.080600000024,1732.0807999999522,1733.3482000000477,867.0,1733.3482000000477,2.0,1733.3483999999762,6.0,23.0,203.0,11.0,1.0,1.0,0.3,Time
,,S36,1,女,20,anonymized,Serial_Dependence_U,2023.2.3,Win32,59.88023952096852,,,,,,1733.3485,102.0,6.0,1733.3487000000478,102.0,,,,1737.1148999999762,1737.6117000000477,1736.6138999999762,1737.1148999999762,1734.346399999976,1736.6137999999523,1737.6117999999524,1738.1112000000476,1738.111399999976,1740.21,1691.0,1740.210100000024,5.0,1740.210399999976,6.0,24.0,204.0,2.0,1.0,1.2,0.3,Time
,,S36,1,女,20,anonymized,Serial_Dependence_U,2023.2.3,Win32,59.88023952096852,,,,,,1740.2106000000238,345.0,6.0,1740.2107999999523,345.0,,,,1743.7607000000476,1744.2592000000477,1743.245399999976,1743.7606000000235,1741.2117999999523,1743.245399999976,1744.2592999999522,1744.7615,1744.761600000024,1747.2471000000237,2109.0,1747.2472000000475,5.0,1747.247399999976,6.0,25.0,205.0,16.0,1.0,1.0,0.7,Time
,,S36,1,女,20,anonymized,Serial_Dependence_U,2023.2.3,Win32,59.88023952096852,,,,,,1747.2477000000476,337.0,6.0,1747.2478999999762,337.0,,,,1751.026100000024,1751.5246000000238,1750.513,1751.026100000024,1748.242,1750.512899999976,1751.5247999999524,1752.0275,1752.0275,1753.0607000000475,685.0,1753.0607000000475,1.0,1753.060899999976,6.0,26.0,206.0,22.0,1.0,1.2,0.3,Time
,,S36,1,女,20,anonymized,Serial_Dependence_U,2023.2.3,Win32,59.88023952096852,,,,,,1753.0611000000238,239.0,6.0,1753.0612000000476,239.0,,,,1756.6077999999522,1757.1061000000238,1756.0942000000475,1756.6077000000475,1754.0567999999523,1756.094100000024,1757.1062000000477,1757.605,1757.605100000024,1759.0605,1136.0,1759.060600000024,4.0,1759.0607000000475,6.0,27.0,207.0,26.0,1.0,1.0,0.7,Time
,,S36,1,女,20,anonymized,Serial_Dependence_U,2023.2.3,Win32,59.88023952096852,,,,,,1759.060899999976,224.0,6.0,1759.0611000000238,224.0,,,,1763.0542000000476,1763.5532999999523,1762.5397000000476,1763.054,1760.0717000000477,1762.5396000000237,1763.553399999976,1764.053399999976,1764.053399999976,1765.908600000024,1565.0,1765.908600000024,4.0,1765.908899999976,6.0,28.0,208.0,3.0,1.0,1.4,0.3,Time
,,S36,1,女,20,anonymized,Serial_Dependence_U,2023.2.3,Win32,59.88023952096852,,,,,,1765.909399999976,322.0,6.0,1765.9097000000477,322.0,,,,1770.0392000000477,1770.5347999999524,1769.5376000000238,1770.0392000000477,1766.9056000000237,1769.5375,1770.5347999999524,1771.0356000000238,1771.0356000000238,1772.574100000024,1170.0,1772.5742000000475,2.0,1772.574399999976,6.0,29.0,209.0,9.0,1.0,1.6,0.7,Time
,,S36,1,女,20,anonymized,Serial_Dependence_U,2023.2.3,Win32,59.88023952096852,,,,,,1772.5745,33.0,7.0,1824.0367999999523,33.0,s,51.44239999997603,,1828.2365,1828.735799999952,1827.723399999976,1828.2365,1825.0532999999523,1827.7232999999524,1828.736,1829.234799999952,1829.234799999952,1830.54,866.0,1830.540100000024,1.0,1830.5402999999524,7.0,0.0,210.0,14.0,1.0,1.6,0.3,Time
,,S36,1,女,20,anonymized,Serial_Dependence_U,2023.2.3,Win32,59.88023952096852,,,,,,1830.5407000000475,0.0,7.0,1830.542100000024,0.0,,,,1833.9017999999523,1834.401100000024,1833.386600000024,1833.9015,1831.5535,1833.3865,1834.4012000000475,1834.8997999999524,1834.899899999976,1836.3692999999523,1138.0,1836.3692999999523,5.0,1836.3695,7.0,1.0,211.0,25.0,1.0,0.8,0.7,Time
,,S36,1,女,20,anonymized,Serial_Dependence_U,2023.2.3,Win32,59.88023952096852,,,,,,1836.369700000048,180.0,7.0,1836.369700000048,180.0,,,,1840.148899999976,1840.648600000024,1839.637100000024,1840.148899999976,1837.368100000024,1839.637,1840.648799999952,1841.148100000024,1841.148200000048,1842.3672999999524,1014.0,1842.3672999999524,2.0,1842.367399999976,7.0,2.0,212.0,2.0,1.0,1.2,0.3,Time
,,S36,1,女,20,anonymized,Serial_Dependence_U,2023.2.3,Win32,59.88023952096852,,,,,,1842.367600000024,29.0,7.0,1842.3677000000475,29.0,,,,1845.948,1846.447,1845.436200000048,1845.947899999976,1843.368600000024,1845.436100000024,1846.447,1846.9507999999523,1846.950899999976,1848.301,965.0,1848.301100000024,3.0,1848.301200000048,7.0,3.0,213.0,1.0,1.0,1.0,0.3,Time
,,S36,1,女,20,anonymized,Serial_Dependence_U,2023.2.3,Win32,59.88023952096852,,,,,,1848.3015,210.0,7.0,1848.301600000024,210.0,,,,1852.063100000024,1852.561799999952,1851.55,1852.062799999952,1849.313,1851.549899999976,1852.561899999976,1853.061899999976,1853.061899999976,1855.4835,1729.0,1855.4835,5.0,1855.483899999976,7.0,4.0,214.0,17.0,1.0,1.2,0.7,Time
,,S36,1,女,20,anonymized,Serial_Dependence_U,2023.2.3,Win32,59.88023952096852,,,,,,1855.484100000024,187.0,7.0,1855.484200000048,187.0,,,,1859.026899999976,1859.526399999976,1858.5125,1859.0267999999523,1856.481399999976,1858.512399999976,1859.526399999976,1860.0262000000475,1860.0262000000475,1862.1455,1781.0,1862.1455,5.0,1862.145600000024,7.0,5.0,215.0,26.0,1.0,1.0,0.7,Time
,,S36,1,女,20,anonymized,Serial_Dependence_U,2023.2.3,Win32,59.88023952096852,,,,,,1862.1457999999525,264.0,7.0,1862.146,264.0,,,,1865.708200000048,1866.207899999976,1865.197100000024,1865.708200000048,1863.161200000048,1865.197,1866.207899999976,1866.707399999976,1866.7075,1868.612700000048,1585.0,1868.612700000048,5.0,1868.613,7.0,6.0,216.0,16.0,1.0,1.0,0.7,Time
,,S36,1,女,20,anonymized,Serial_Dependence_U,2023.2.3,Win32,59.88023952096852,,,,,,1868.613299999952,130.0,7.0,1868.6135,130.0,,,,1872.2075,1872.706100000024,1871.6952999999523,1872.207399999976,1869.628799999952,1871.695200000048,1872.706100000024,1873.207,1873.207100000024,1874.358399999976,833.0,1874.358399999976,2.0,1874.3585,7.0,7.0,217.0,11.0,1.0,1.0,0.3,Time
,,S36,1,女,20,anonymized,Serial_Dependence_U,2023.2.3,Win32,59.88023952096852,,,,,,1874.358799999952,118.0,7.0,1874.358899999976,118.0,,,,1878.543,1879.038200000048,1878.0257999999524,1878.542799999952,1875.357399999976,1878.025700000048,1879.038200000048,1879.5375,1879.5375,1880.959600000024,1095.0,1880.959700000048,1.0,1880.96,7.0,8.0,218.0,4.0,1.0,1.6,0.3,Time
,,S36,1,女,20,anonymized,Serial_Dependence_U,2023.2.3,Win32,59.88023952096852,,,,,,1880.960299999952,341.0,7.0,1880.9605,341.0,,,,1884.340100000024,1884.835700000048,1883.8387000000475,1884.340100000024,1881.973600000024,1883.8387000000475,1884.835700000048,1885.335600000024,1885.335600000024,1887.1717999999523,1577.0,1887.171899999976,5.0,1887.172,7.0,9.0,219.0,20.0,1.0,0.8,0.3,Time
,,S36,1,女,20,anonymized,Serial_Dependence_U,2023.2.3,Win32,59.88023952096852,,,,,,1887.172299999952,59.0,7.0,1887.172399999976,59.0,,,,1891.136600000024,1891.634200000048,1890.622600000024,1891.136600000024,1888.1897999999524,1890.622600000024,1891.634299999952,1892.134100000024,1892.134100000024,1893.939399999976,1440.0,1893.9395,3.0,1893.9397999999524,7.0,10.0,220.0,28.0,1.0,1.4,0.7,Time
,,S36,1,女,20,anonymized,Serial_Dependence_U,2023.2.3,Win32,59.88023952096852,,,,,,1893.94,35.0,7.0,1893.940299999952,35.0,,,,1897.6842999999524,1898.1825,1897.1682999999523,1897.6842999999524,1894.937700000048,1897.1682999999523,1898.182700000048,1898.6865,1898.686600000024,1900.885600000024,1680.0,1900.885600000024,5.0,1900.885700000048,7.0,11.0,221.0,7.0,1.0,1.2,0.7,Time
,,S36,1,女,20,anonymized,Serial_Dependence_U,2023.2.3,Win32,59.88023952096852,,,,,,1900.885899999976,300.0,7.0,1900.886100000024,300.0,,,,1904.682899999976,1905.180399999976,1904.165,1904.682899999976,1901.898899999976,1904.165,1905.180600000024,1905.679700000048,1905.6797999999524,1907.363600000024,1358.0,1907.3637999999523,4.0,1907.364,7.0,12.0,222.0,22.0,1.0,1.2,0.3,Time
,,S36,1,女,20,anonymized,Serial_Dependence_U,2023.2.3,Win32,59.88023952096852,,,,,,1907.364299999952,301.0,7.0,1907.3645,301.0,,,,1910.913200000048,1911.411600000024,1910.4002999999525,1910.913,1908.3647999999523,1910.400200000048,1911.411700000048,1911.911600000024,1911.911600000024,1913.449299999952,1058.0,1913.449299999952,4.0,1913.4495,7.0,13.0,223.0,6.0,1.0,1.0,0.7,Time
,,S36,1,女,20,anonymized,Serial_Dependence_U,2023.2.3,Win32,59.88023952096852,,,,,,1913.449700000048,355.0,7.0,1913.449899999976,355.0,,,,1916.827299999952,1917.327100000024,1916.3125,1916.827299999952,1914.449100000024,1916.312399999976,1917.327100000024,1917.8277999999525,1917.828,1919.547700000048,1395.0,1919.547700000048,5.0,1919.547899999976,7.0,14.0,224.0,10.0,1.0,0.8,0.3,Time
,,S36,1,女,20,anonymized,Serial_Dependence_U,2023.2.3,Win32,59.88023952096852,,,,,,1919.548,240.0,7.0,1919.548200000048,240.0,,,,1923.729899999976,1924.224799999952,1923.209100000024,1923.729899999976,1920.547700000048,1923.209100000024,1924.224799999952,1924.725100000024,1924.7252999999523,1927.1437999999523,2013.0,1927.143899999976,4.0,1927.144,7.0,15.0,225.0,24.0,1.0,1.6,0.3,Time
,,S36,1,女,20,anonymized,Serial_Dependence_U,2023.2.3,Win32,59.88023952096852,,,,,,1927.144200000048,338.0,7.0,1927.144200000048,338.0,,,,1931.275600000024,1931.773,1930.774100000024,1931.2755,1928.1415,1930.774,1931.773100000024,1932.272700000048,1932.272700000048,1933.792,1283.0,1933.792100000024,2.0,1933.7922999999523,7.0,16.0,226.0,19.0,1.0,1.6,0.7,Time
,,S36,1,女,20,anonymized,Serial_Dependence_U,2023.2.3,Win32,59.88023952096852,,,,,,1933.792600000024,310.0,7.0,1933.792700000048,310.0,,,,1937.788700000048,1938.287600000024,1937.273399999976,1937.788600000024,1934.806600000024,1937.2732999999523,1938.287700000048,1938.7915,1938.791600000024,1939.776899999976,630.0,1939.776899999976,1.0,1939.777299999952,7.0,17.0,227.0,13.0,1.0,1.4,0.3,Time
,,S36,1,女,20,anonymized,Serial_Dependence_U,2023.2.3,Win32,59.88023952096852,,,,,,1939.777700000048,79.0,7.0,1939.7777999999523,79.0,,,,1943.737700000048,1944.237,1943.225700000048,1943.737600000024,1940.787100000024,1943.225700000048,1944.237100000024,1944.736,1944.736200000048,1946.888,1853.0,1946.888,5.0,1946.888100000024,7.0,18.0,228.0,8.0,1.0,1.4,0.7,Time
,,S36,1,女,20,anonymized,Serial_Dependence_U,2023.2.3,Win32,59.88023952096852,,,,,,1946.8882999999523,212.0,7.0,1946.8885,212.0,,,,1950.634200000048,1951.138100000024,1950.1227999999523,1950.634200000048,1947.885899999976,1950.1227999999523,1951.138200000048,1951.634200000048,1951.6345,1953.469600000024,1506.0,1953.469700000048,4.0,1953.469700000048,7.0,19.0,229.0,27.0,1.0,1.2,0.7,Time
,,S36,1,女,20,anonymized,Serial_Dependence_U,2023.2.3,Win32,59.88023952096852,,,,,,1953.47,164.0,7.0,1953.470100000024,164.0,,,,1957.465899999976,1957.965799999952,1956.9517999999523,1957.465799999952,1954.483700000048,1956.951700000048,1957.966,1958.465,1958.465100000024,1960.118899999976,1165.0,1960.118899999976,2.0,1960.119100000024,7.0,20.0,230.0,3.0,1.0,1.4,0.3,Time
,,S36,1,女,20,anonymized,Serial_Dependence_U,2023.2.3,Win32,59.88023952096852,,,,,,1960.1192999999523,298.0,7.0,1960.1195,298.0,,,,1964.052399999976,1964.5467999999523,1963.549700000048,1964.0522999999523,1961.116899999976,1963.549600000024,1964.546899999976,1965.046700000048,1965.046899999976,1967.3957999999525,1971.0,1967.395899999976,5.0,1967.396200000048,7.0,21.0,231.0,18.0,1.0,1.4,0.7,Time
,,S36,1,女,20,anonymized,Serial_Dependence_U,2023.2.3,Win32,59.88023952096852,,,,,,1967.396600000024,92.0,7.0,1967.397,92.0,,,,1971.1662999999523,1971.665799999952,1970.662100000024,1971.166200000048,1968.4012000000475,1970.662100000024,1971.665799999952,1972.161399999976,1972.161600000024,1974.147200000048,1650.0,1974.147200000048,5.0,1974.147399999976,7.0,22.0,232.0,12.0,1.0,1.2,0.3,Time
,,S36,1,女,20,anonymized,Serial_Dependence_U,2023.2.3,Win32,59.88023952096852,,,,,,1974.1475,21.0,7.0,1974.147600000024,21.0,,,,1977.513399999976,1978.0105,1976.995799999952,1977.513399999976,1975.161100000024,1976.995700000048,1978.010600000024,1978.5092999999524,1978.5093999999765,1981.1257999999525,2143.0,1981.125899999976,5.0,1981.126100000024,7.0,23.0,233.0,5.0,1.0,0.8,0.7,Time
,,S36,1,女,20,anonymized,Serial_Dependence_U,2023.2.3,Win32,59.88023952096852,,,,,,1981.126399999976,175.0,7.0,1981.1265,175.0,,,,1984.528600000024,1985.024200000048,1984.0105,1984.5285,1982.1427999999523,1984.0105,1985.024200000048,1985.523899999976,1985.524,1987.044,1186.0,1987.044,5.0,1987.0442999999525,7.0,24.0,234.0,0.0,1.0,0.8,0.3,Time
,,S36,1,女,20,anonymized,Serial_Dependence_U,2023.2.3,Win32,59.88023952096852,,,,,,1987.0445,65.0,7.0,1987.0445,65.0,,,,1990.391200000048,1990.889200000048,1989.8753999999765,1990.391,1988.041600000024,1989.8752999999524,1990.889200000048,1991.389100000024,1991.389100000024,1992.058700000048,182.0,1992.058700000048,1.0,1992.059,7.0,25.0,235.0,15.0,1.0,0.8,0.7,Time
,,S36,1,女,20,anonymized,Serial_Dependence_U,2023.2.3,Win32,59.88023952096852,,,,,,1992.0592000000477,14.0,7.0,1992.059299999952,14.0,,,,1996.223600000024,1996.721,1995.707200000048,1996.2235,1993.0745,1995.707200000048,1996.721,1997.2207999999523,1997.220899999976,1999.106600000024,1583.0,1999.106600000024,3.0,1999.106700000048,7.0,26.0,236.0,9.0,1.0,1.6,0.7,Time
,,S36,1,女,20,anonymized,Serial_Dependence_U,2023.2.3,Win32,59.88023952096852,,,,,,1999.107,6.0,7.0,1999.107100000024,6.0,,,,2003.102700000048,2003.602399999976,2002.5892999999523,2003.102700000048,2000.120899999976,2002.5892999999523,2003.602399999976,2004.102700000048,2004.102899999976,2006.004700000048,1548.0,2006.0047999999524,4.0,2006.005,7.0,27.0,237.0,23.0,1.0,1.4,0.3,Time
,,S36,1,女,20,anonymized,Serial_Dependence_U,2023.2.3,Win32,59.88023952096852,,,,,,2006.005200000048,335.0,7.0,2006.005299999952,335.0,,,,2010.170600000024,2010.667399999976,2009.670200000048,2010.1705,2007.022700000048,2009.670100000024,2010.6675,2011.166899999976,2011.167,2012.836299999952,1367.0,2012.836299999952,2.0,2012.836399999976,7.0,28.0,238.0,29.0,1.0,1.6,0.7,Time
,,S36,1,女,20,anonymized,Serial_Dependence_U,2023.2.3,Win32,59.88023952096852,,,,,,2012.836700000048,61.0,7.0,2012.836700000048,61.0,,,,2016.417399999976,2016.916299999952,2015.903899999976,2016.417399999976,2013.8353999999763,2015.903700000048,2016.916399999976,2017.4165,2017.4167000000475,2018.601299999952,848.0,2018.601299999952,2.0,2018.6015,7.0,29.0,239.0,21.0,1.0,1.0,0.3,Time
,,S36,1,女,20,anonymized,Serial_Dependence_U,2023.2.3,Win32,59.88023952096852,,,,,,2018.6017000000477,3.0,8.0,2020.631700000048,3.0,s,2.0026999999281543,,2024.000200000048,2024.4963999999763,2023.4835,2024.000100000024,2021.6355,2023.483399999976,2024.4965,2024.997399999976,2024.997399999976,2026.832,1236.0,2026.832,5.0,2026.832200000048,8.0,0.0,240.0,15.0,1.0,0.8,0.7,Time
,,S36,1,女,20,anonymized,Serial_Dependence_U,2023.2.3,Win32,59.88023952096852,,,,,,2026.832399999976,87.0,8.0,2026.833200000048,87.0,,,,2030.7987999999525,2031.2947999999524,2030.280600000024,2030.798700000048,2027.832,2030.2805,2031.295,2031.794399999976,2031.7945,2033.333100000024,1225.0,2033.333100000024,2.0,2033.3333999999763,8.0,1.0,241.0,28.0,1.0,1.4,0.7,Time
,,S36,1,女,20,anonymized,Serial_Dependence_U,2023.2.3,Win32,59.88023952096852,,,,,,2033.3337000000477,215.0,8.0,2033.333899999976,215.0,,,,2036.697799999952,2037.192799999952,2036.1957000000475,2036.697799999952,2034.331100000024,2036.1955,2037.192899999976,2037.697299999952,2037.697299999952,2038.812100000024,810.0,2038.812100000024,3.0,2038.8122999999523,8.0,2.0,242.0,20.0,1.0,0.8,0.3,Time
,,S36,1,女,20,anonymized,Serial_Dependence_U,2023.2.3,Win32,59.88023952096852,,,,,,2038.8125,327.0,8.0,2038.812600000024,327.0,,,,2042.8137000000477,2043.309600000024,2042.2935,2042.813600000024,2039.8265,2042.293399999976,2043.3097000000475,2043.809100000024,2043.809299999952,2044.896299999952,766.0,2044.896299999952,1.0,2044.8965,8.0,3.0,243.0,3.0,1.0,1.4,0.3,Time
,,S36,1,女,20,anonymized,Serial_Dependence_U,2023.2.3,Win32,59.88023952096852,,,,,,2044.896600000024,238.0,8.0,2044.896799999952,238.0,,,,2048.84,2049.340299999952,2048.328700000048,2048.84,2045.895399999976,2048.328700000048,2049.340399999976,2049.839200000048,2049.8392999999523,2051.7602000000475,1584.0,2051.7602000000475,4.0,2051.7605,8.0,4.0,244.0,18.0,1.0,1.4,0.7,Time
,,S36,1,女,20,anonymized,Serial_Dependence_U,2023.2.3,Win32,59.88023952096852,,,,,,2051.760700000048,28.0,8.0,2051.7607999999523,28.0,,,,2055.3227000000475,2055.8212999999523,2054.807100000024,2055.3225,2052.773399999976,2054.807,2055.821399999976,2056.3215,2056.321700000048,2057.841600000024,1251.0,2057.841600000024,4.0,2057.8417999999524,8.0,5.0,245.0,6.0,1.0,1.0,0.7,Time
,,S36,1,女,20,anonymized,Serial_Dependence_U,2023.2.3,Win32,59.88023952096852,,,,,,2057.842100000024,300.0,8.0,2057.842100000024,300.0,,,,2061.620200000048,2062.119600000024,2061.1052999999524,2061.620200000048,2058.838799999952,2061.1052999999524,2062.1197000000475,2062.623700000048,2062.623700000048,2064.724600000024,1803.0,2064.7247000000475,5.0,2064.724899999976,8.0,6.0,246.0,22.0,1.0,1.2,0.3,Time
,,S36,1,女,20,anonymized,Serial_Dependence_U,2023.2.3,Win32,59.88023952096852,,,,,,2064.7252999999523,336.0,8.0,2064.725399999976,336.0,,,,2068.284600000024,2068.785100000024,2067.7725,2068.2845,2065.737600000024,2067.7725,2068.785200000048,2069.2847000000475,2069.2847000000475,2070.422600000024,1117.0,2070.422600000024,4.0,2070.422799999952,8.0,7.0,247.0,26.0,1.0,1.0,0.7,Time
,,S36,1,女,20,anonymized,Serial_Dependence_U,2023.2.3,Win32,59.88023952096852,,,,,,2070.423,210.0,8.0,2070.423100000024,210.0,,,,2073.9662999999523,2074.4682000000475,2073.455100000024,2073.9662999999523,2071.419899999976,2073.455,2074.4682999999523,2074.9695,2074.9695,2076.334700000048,1038.0,2076.334700000048,3.0,2076.334899999976,8.0,8.0,248.0,16.0,1.0,1.0,0.7,Time
,,S36,1,女,20,anonymized,Serial_Dependence_U,2023.2.3,Win32,59.88023952096852,,,,,,2076.335,147.0,8.0,2076.335200000048,147.0,,,,2080.315,2080.813799999952,2079.7995,2080.314899999976,2077.335700000048,2079.7995,2080.813899999976,2081.314399999976,2081.314600000024,2082.7832999999523,1163.0,2082.783399999976,2.0,2082.783399999976,8.0,9.0,249.0,23.0,1.0,1.4,0.3,Time
,,S36,1,女,20,anonymized,Serial_Dependence_U,2023.2.3,Win32,59.88023952096852,,,,,,2082.783600000024,349.0,8.0,2082.7837999999524,349.0,,,,2086.9297000000474,2087.428700000048,2086.413700000048,2086.929600000024,2083.782100000024,2086.4135,2087.429,2087.929,2087.929,2089.914299999952,1681.0,2089.914299999952,4.0,2089.9145,8.0,10.0,250.0,29.0,1.0,1.6,0.7,Time
,,S36,1,女,20,anonymized,Serial_Dependence_U,2023.2.3,Win32,59.88023952096852,,,,,,2089.914700000048,85.0,8.0,2089.914899999976,85.0,,,,2094.0945,2094.593399999976,2093.5772000000475,2094.0945,2090.9152999999524,2093.577100000024,2094.593399999976,2095.0932999999523,2095.0932999999523,2096.027,502.0,2096.027100000024,1.0,2096.0273999999763,8.0,11.0,251.0,24.0,1.0,1.6,0.3,Time
,,S36,1,女,20,anonymized,Serial_Dependence_U,2023.2.3,Win32,59.88023952096852,,,,,,2096.027700000048,153.0,8.0,2096.027899999976,153.0,,,,2099.8302999999523,2100.3252000000475,2099.311299999952,2099.830200000048,2097.0427999999524,2099.311200000048,2100.325399999976,2100.825,2100.825100000024,2103.479899999976,2210.0,2103.48,5.0,2103.480200000048,8.0,12.0,252.0,12.0,1.0,1.2,0.3,Time
,,S36,1,女,20,anonymized,Serial_Dependence_U,2023.2.3,Win32,59.88023952096852,,,,,,2103.4805,25.0,8.0,2103.480600000024,25.0,,,,2107.674600000024,2108.173,2107.159299999952,2107.674600000024,2104.4922000000474,2107.159299999952,2108.173,2108.673299999952,2108.673399999976,2110.577700000048,1414.0,2110.5777999999523,2.0,2110.578,8.0,13.0,253.0,4.0,1.0,1.6,0.3,Time
,,S36,1,女,20,anonymized,Serial_Dependence_U,2023.2.3,Win32,59.88023952096852,,,,,,2110.5782999999524,182.0,8.0,2110.578399999976,182.0,,,,2114.141799999952,2114.6387999999524,2113.6412999999525,2114.141799999952,2111.574,2113.641200000048,2114.6388999999763,2115.137600000024,2115.1377000000475,2116.458,1000.0,2116.458,3.0,2116.458200000048,8.0,14.0,254.0,1.0,1.0,1.0,0.3,Time
,,S36,1,女,20,anonymized,Serial_Dependence_U,2023.2.3,Win32,59.88023952096852,,,,,,2116.4583999999763,222.0,8.0,2116.4585,222.0,,,,2119.805700000048,2120.302600000024,2119.289,2119.805700000048,2117.4547000000475,2119.289,2120.302600000024,2120.803200000048,2120.803399999976,2121.488700000048,569.0,2121.4887999999523,2.0,2121.489,8.0,15.0,255.0,25.0,1.0,0.8,0.7,Time
,,S36,1,女,20,anonymized,Serial_Dependence_U,2023.2.3,Win32,59.88023952096852,,,,,,2121.489200000048,99.0,8.0,2121.4895,99.0,,,,2125.0707000000475,2125.5685,2124.5572000000475,2125.070600000024,2122.4873999999763,2124.5572000000475,2125.568600000024,2126.068,2126.068100000024,2128.053600000024,1381.0,2128.053600000024,5.0,2128.053899999976,8.0,16.0,256.0,11.0,1.0,1.0,0.3,Time
,,S36,1,女,20,anonymized,Serial_Dependence_U,2023.2.3,Win32,59.88023952096852,,,,,,2128.054100000024,319.0,8.0,2128.054200000048,319.0,,,,2131.452100000024,2131.9492999999525,2130.935700000048,2131.451899999976,2129.070600000024,2130.935700000048,2131.9493999999763,2132.449799999952,2132.45,2133.985600000024,1149.0,2133.985600000024,5.0,2133.985799999952,8.0,17.0,257.0,10.0,1.0,0.8,0.3,Time
