Scale_setup.started,Scale_setup.stopped,participant,session,sex,age,date,expName,psychopyVersion,OS,frameRate,Intro.started,Intro.stopped,key_resp_2.keys,key_resp_2.rt,key_resp_2.duration,block.started,direction,Block_id,block.stopped,trial_direction,Block_resp_2.keys,Block_resp_2.rt,Block_resp_2.duration,ITI.started,ITI.stopped,Mask_2.started,Mask_2.stopped,encoding.started,encoding.stopped,Cue.started,Cue.stopped,Response.started,Response.stopped,keyDuration,Feedback_Time.started,FeedbackID_T,Feedback_Time.stopped,trials.thisRepN,trials.thisTrialN,trials.thisN,trials.thisIndex,trials.ran,TimeDur,Coherence1,TrialType
0.0002999999523183,0.0003999998569526,S37,1,,,anonymized,Serial_Dependence_U,2023.2.3,Win32,60.240963855400565,,,,,,,,,,,,,,,,,,,,,,,,,,,,,,,,,,,
,,S37,1,,,anonymized,Serial_Dependence_U,2023.2.3,Win32,60.240963855400565,53.6035,62.73229999995229,space,9.109099999904656,,,,,,,,,,,,,,,,,,,,,,,,,,,,,,,
,,S37,1,,,anonymized,Serial_Dependence_U,2023.2.3,Win32,60.240963855400565,,,,,,62.74059999990462,34.0,0.0,64.63199999999998,34.0,s,1.8647000000476908,,68.81949999999998,69.31509999990462,68.303,68.81939999985693,65.63509999990461,68.303,69.31520000004767,69.81859999990462,69.81859999990462,70.38629999995231,118.0,70.38639999985693,1.0,71.38189999985693,0.0,0.0,0.0,14.0,1.0,1.6,0.3,Time
,,S37,1,,,anonymized,Serial_Dependence_U,2023.2.3,Win32,60.240963855400565,,,,,,71.38220000004767,355.0,0.0,71.38289999985693,355.0,,,,74.74870000004768,75.24839999985693,74.23609999990461,74.74859999990463,72.40139999985692,74.23609999990461,75.24839999985693,75.74829999995231,75.74839999985693,77.43609999990463,1062.0,77.43609999990463,5.0,78.43179999995229,0.0,1.0,1.0,15.0,1.0,0.8,0.7,Time
,,S37,1,,,anonymized,Serial_Dependence_U,2023.2.3,Win32,60.240963855400565,,,,,,78.43199999999999,54.0,0.0,78.43199999999999,54.0,,,,82.61520000004768,83.11479999995231,82.1022999999523,82.61509999990463,79.43579999995231,82.1022999999523,83.11479999995231,83.61489999985693,83.61489999985693,84.23589999985694,201.0,84.23599999999999,1.0,85.23139999985693,0.0,2.0,2.0,24.0,1.0,1.6,0.3,Time
,,S37,1,,,anonymized,Serial_Dependence_U,2023.2.3,Win32,60.240963855400565,,,,,,85.23170000004768,122.0,0.0,85.2317999999523,122.0,,,,89.00220000004768,89.49809999990461,88.48579999995229,89.00220000004768,86.25220000004768,88.48579999995229,89.49809999990461,89.99820000004766,89.99820000004766,91.5355999999046,1018.0,91.5355999999046,2.0,92.535,0.0,3.0,3.0,17.0,1.0,1.2,0.7,Time
,,S37,1,,,anonymized,Serial_Dependence_U,2023.2.3,Win32,60.240963855400565,,,,,,92.53520000004768,291.0,0.0,92.53520000004768,291.0,,,,96.08149999999998,96.58120000004766,95.56759999990462,96.08149999999998,93.53420000004766,95.5675,96.58120000004766,97.08129999995232,97.08129999995232,98.8687999999523,1333.0,98.8687999999523,5.0,99.8645,0.0,4.0,4.0,6.0,1.0,1.0,0.7,Time
,,S37,1,,,anonymized,Serial_Dependence_U,2023.2.3,Win32,60.240963855400565,,,,,,99.8645999999046,256.0,0.0,99.86470000004766,256.0,,,,103.8017999999523,104.2975999999046,103.30059999990462,103.8017999999523,100.86729999995232,103.30049999999996,104.2975999999046,104.801,104.801,107.452,1317.0,107.452,2.0,108.4475999999046,0.0,5.0,5.0,28.0,1.0,1.4,0.7,Time
,,S37,1,,,anonymized,Serial_Dependence_U,2023.2.3,Win32,60.240963855400565,,,,,,108.44770000004766,79.0,0.0,108.44789999985692,79.0,,,,112.201,112.69739999985694,111.69779999995232,112.201,109.4670999999046,111.69770000004766,112.6975,113.1975,113.1975,115.2685999999046,1500.0,115.26870000004766,4.0,116.26399999999998,0.0,6.0,6.0,7.0,1.0,1.2,0.7,Time
,,S37,1,,,anonymized,Serial_Dependence_U,2023.2.3,Win32,60.240963855400565,,,,,,116.26420000004768,197.0,0.0,116.26420000004768,197.0,,,,120.24999999999996,120.74720000004766,119.73489999985694,120.24999999999996,117.26829999995228,119.73470000004768,120.74739999985692,121.2505999999046,121.2505999999046,122.43489999985692,117.0,122.43499999999996,1.0,123.43059999990462,0.0,7.0,7.0,13.0,1.0,1.4,0.3,Time
,,S37,1,,,anonymized,Serial_Dependence_U,2023.2.3,Win32,60.240963855400565,,,,,,123.43070000004766,126.0,0.0,123.43079999995231,126.0,,,,127.60139999985694,128.09709999990463,127.09739999985696,127.60139999985694,124.43470000004766,127.09739999985696,128.09709999990463,128.59709999990463,128.59709999990463,129.6347999999523,735.0,129.6347999999523,1.0,130.63039999985693,0.0,8.0,8.0,4.0,1.0,1.6,0.3,Time
,,S37,1,,,anonymized,Serial_Dependence_U,2023.2.3,Win32,60.240963855400565,,,,,,130.6305999999046,195.0,0.0,130.63070000004768,195.0,,,,134.61389999985693,135.1135,134.1015,134.6137999999523,131.63339999985692,134.1015,135.1135,135.6135999999046,135.61370000004766,137.26809999990462,1392.0,137.26820000004767,3.0,138.26339999985694,0.0,9.0,9.0,23.0,1.0,1.4,0.3,Time
,,S37,1,,,anonymized,Serial_Dependence_U,2023.2.3,Win32,60.240963855400565,,,,,,138.26370000004766,120.0,0.0,138.2637999999523,120.0,,,,142.21759999990462,142.7168999998569,141.701,142.21749999999997,139.2637999999523,141.70089999985694,142.7168999998569,143.21339999985693,143.21349999999998,145.36770000004768,1733.0,145.36770000004768,4.0,146.3632999999523,0.0,10.0,10.0,18.0,1.0,1.4,0.7,Time
,,S37,1,,,anonymized,Serial_Dependence_U,2023.2.3,Win32,60.240963855400565,,,,,,146.3635,245.0,0.0,146.3635999999046,245.0,,,,150.31349999999998,150.81320000004766,149.80089999985694,150.31339999985693,147.36759999990463,149.8007999999523,150.8132999999523,151.31320000004766,151.31320000004766,153.93420000004767,2033.0,153.9342999999523,5.0,154.9332999999523,0.0,11.0,11.0,8.0,1.0,1.4,0.7,Time
,,S37,1,,,anonymized,Serial_Dependence_U,2023.2.3,Win32,60.240963855400565,,,,,,154.93349999999998,221.0,0.0,154.93359999990463,221.0,,,,158.284,158.7795999999046,157.7673999998569,158.28389999985694,155.93389999985692,157.7673999998569,158.77970000004763,159.27970000004763,159.27970000004763,161.01729999995231,1433.0,161.0173999998569,5.0,162.01649999999998,0.0,12.0,12.0,5.0,1.0,0.8,0.7,Time
,,S37,1,,,anonymized,Serial_Dependence_U,2023.2.3,Win32,60.240963855400565,,,,,,162.0167999999523,224.0,0.0,162.01689999985695,224.0,,,,165.60039999985693,166.09620000004767,165.07979999995231,165.60039999985693,163.01709999990462,165.07979999995231,166.09620000004767,166.59620000004767,166.59620000004767,167.68389999985692,684.0,167.68389999985692,1.0,168.6795,0.0,13.0,13.0,1.0,1.0,1.0,0.3,Time
,,S37,1,,,anonymized,Serial_Dependence_U,2023.2.3,Win32,60.240963855400565,,,,,,168.6795999999046,350.0,0.0,168.67970000004766,350.0,,,,172.0797000000477,172.5792999999523,171.56699999999998,172.07959999990462,169.7002999999523,171.56699999999998,172.5792999999523,173.08259999990463,173.08270000004768,174.517,1161.0,174.517,5.0,175.51620000004766,0.0,14.0,14.0,10.0,1.0,0.8,0.3,Time
,,S37,1,,,anonymized,Serial_Dependence_U,2023.2.3,Win32,60.240963855400565,,,,,,175.51639999985693,79.0,0.0,175.51649999999998,79.0,,,,179.06679999995228,179.56249999999997,178.55020000004768,179.06679999995228,176.51289999985693,178.55009999990463,179.56249999999997,180.06589999985698,180.06589999985698,181.76689999985692,1383.0,181.76689999985692,5.0,182.7625,0.0,15.0,15.0,26.0,1.0,1.0,0.7,Time
,,S37,1,,,anonymized,Serial_Dependence_U,2023.2.3,Win32,60.240963855400565,,,,,,182.76259999990464,209.0,0.0,182.76259999990464,209.0,,,,186.1322000000477,186.629,185.62939999985696,186.13209999990465,183.76259999990464,185.6292000000477,186.629,187.129,187.129,188.9497000000477,1483.0,188.9498999998569,5.0,189.94559999990463,0.0,16.0,16.0,0.0,1.0,0.8,0.3,Time
,,S37,1,,,anonymized,Serial_Dependence_U,2023.2.3,Win32,60.240963855400565,,,,,,189.94570000004768,270.0,0.0,189.94579999995236,270.0,,,,193.72909999990463,194.2288999998569,193.21639999985692,193.72909999990463,190.9497000000477,193.21639999985692,194.2288999998569,194.7288999998569,194.7288999998569,196.1663999998569,1168.0,196.1665,3.0,197.16209999990463,0.0,17.0,17.0,22.0,1.0,1.2,0.3,Time
,,S37,1,,,anonymized,Serial_Dependence_U,2023.2.3,Win32,60.240963855400565,,,,,,197.16229999995232,225.0,0.0,197.16239999985697,225.0,,,,200.73309999990465,201.22859999990465,200.23239999985697,200.733,198.1663999998569,200.23239999985697,201.22859999990465,201.7287000000477,201.7287000000477,203.2995,1301.0,203.2995,5.0,204.2952999999523,0.0,18.0,18.0,21.0,1.0,1.0,0.3,Time
,,S37,1,,,anonymized,Serial_Dependence_U,2023.2.3,Win32,60.240963855400565,,,,,,204.2955,20.0,0.0,204.2955,20.0,,,,207.87889999985697,208.37850000000003,207.3622000000477,207.87879999995232,205.2955,207.36209999990467,208.37850000000003,208.87839999985695,208.87850000000003,210.36629999995236,1133.0,210.36629999995236,4.0,211.3655,0.0,19.0,19.0,11.0,1.0,1.0,0.3,Time
,,S37,1,,,anonymized,Serial_Dependence_U,2023.2.3,Win32,60.240963855400565,,,,,,211.3657000000477,351.0,0.0,211.36579999995237,351.0,,,,215.34789999985696,215.84489999985695,214.83259999990463,215.34770000004767,212.362,214.83250000000004,215.84489999985695,216.34500000000003,216.34500000000003,217.7492999999523,1133.0,217.7492999999523,2.0,218.74489999985693,0.0,20.0,20.0,3.0,1.0,1.4,0.3,Time
,,S37,1,,,anonymized,Serial_Dependence_U,2023.2.3,Win32,60.240963855400565,,,,,,218.745,317.0,0.0,218.74509999990465,317.0,,,,222.13239999985691,222.62809999990463,221.61179999995232,222.13229999995235,219.74509999990465,221.61170000004768,222.62809999990463,223.12820000004768,223.12820000004768,224.6325,1168.0,224.6325,5.0,225.628,0.0,21.0,21.0,20.0,1.0,0.8,0.3,Time
,,S37,1,,,anonymized,Serial_Dependence_U,2023.2.3,Win32,60.240963855400565,,,,,,225.62829999995236,151.0,0.0,225.62829999995236,151.0,,,,229.78229999995236,230.27789999985697,229.26570000004767,229.78220000004768,226.63229999995235,229.26559999990465,230.278,230.77789999985697,230.77789999985697,234.38229999995235,1691.0,234.38239999985691,4.0,235.37779999995237,0.0,22.0,22.0,29.0,1.0,1.6,0.7,Time
,,S37,1,,,anonymized,Serial_Dependence_U,2023.2.3,Win32,60.240963855400565,,,,,,235.378,121.0,0.0,235.378,121.0,,,,239.53200000000004,240.02779999995232,239.01550000000003,239.53200000000004,236.37809999990463,239.01529999995236,240.02779999995232,240.52770000004767,240.52770000004767,243.64839999985696,1951.0,243.6485,4.0,244.64779999995235,0.0,23.0,23.0,9.0,1.0,1.6,0.7,Time
,,S37,1,,,anonymized,Serial_Dependence_U,2023.2.3,Win32,60.240963855400565,,,,,,244.64809999990467,47.0,0.0,244.64809999990467,47.0,,,,248.42789999985692,248.93089999985693,247.91450000000003,248.4277999999524,245.6445,247.91450000000003,248.93089999985693,249.42759999990463,249.42759999990463,251.43189999985697,1509.0,251.43189999985697,4.0,252.4275,0.0,24.0,24.0,2.0,1.0,1.2,0.3,Time
,,S37,1,,,anonymized,Serial_Dependence_U,2023.2.3,Win32,60.240963855400565,,,,,,252.42759999990463,256.0,0.0,252.4277000000477,256.0,,,,256.18100000000004,256.67739999985696,255.665,256.18089999985693,253.42759999990463,255.66489999985697,256.67739999985696,257.1772999999523,257.1772999999523,260.1152000000477,2312.0,260.1152999999524,5.0,261.11059999990465,0.0,25.0,25.0,27.0,1.0,1.2,0.7,Time
,,S37,1,,,anonymized,Serial_Dependence_U,2023.2.3,Win32,60.240963855400565,,,,,,261.1107000000477,205.0,0.0,261.11079999995235,205.0,,,,264.4647000000477,264.9605,263.9475,264.4647000000477,262.1147999999523,263.94739999985694,264.9605,265.460399999857,265.460399999857,267.4145999999046,1650.0,267.4147000000477,5.0,268.41389999985694,0.0,26.0,26.0,25.0,1.0,0.8,0.7,Time
,,S37,1,,,anonymized,Serial_Dependence_U,2023.2.3,Win32,60.240963855400565,,,,,,268.41409999990464,252.0,0.0,268.4142000000477,252.0,,,,271.9605999999047,272.4637000000477,271.44979999995235,271.9605,269.4107000000477,271.4497000000477,272.4637000000477,272.9602999999523,272.960399999857,274.5478999998569,950.0,274.5478999998569,2.0,275.5435,0.0,27.0,27.0,16.0,1.0,1.0,0.7,Time
,,S37,1,,,anonymized,Serial_Dependence_U,2023.2.3,Win32,60.240963855400565,,,,,,275.5437000000477,78.0,0.0,275.543899999857,78.0,,,,279.69639999985696,280.193399999857,279.18100000000004,279.6962999999523,276.5477999999523,279.18100000000004,280.19350000000003,280.693399999857,280.693399999857,282.2812000000477,1233.0,282.2812000000477,2.0,283.2767000000477,0.0,28.0,28.0,19.0,1.0,1.6,0.7,Time
,,S37,1,,,anonymized,Serial_Dependence_U,2023.2.3,Win32,60.240963855400565,,,,,,283.27689999985694,303.0,0.0,283.27689999985694,303.0,,,,287.06029999995235,287.5598999998569,286.5475,287.0602000000477,284.27689999985694,286.5475,287.5598999998569,288.0598999998569,288.0598999998569,289.481,1100.0,289.481,2.0,290.4765,0.0,29.0,29.0,12.0,1.0,1.2,0.3,Time
,,S37,1,,,anonymized,Serial_Dependence_U,2023.2.3,Win32,60.240963855400565,,,,,,290.4767000000477,138.0,1.0,482.5932000000476,138.0,s,192.0814000000953,,486.3419999999999,486.8383999998569,485.8255,486.3418999998569,483.5927999999523,485.8255,486.8383999998569,487.3418999998569,487.3418999998569,488.9592000000476,1200.0,488.9592000000476,3.0,488.9637999999523,1.0,0.0,30.0,17.0,1.0,1.2,0.7,Time
,,S37,1,,,anonymized,Serial_Dependence_U,2023.2.3,Win32,60.240963855400565,,,,,,488.9637999999523,352.0,1.0,488.9642999999523,352.0,,,,492.3052999999523,492.80859999990463,491.79259999990455,492.3052000000476,489.9592000000476,491.7925,492.80859999990463,493.3048999998569,493.305,494.9092000000476,1167.0,494.9092000000476,5.0,494.91399999999993,1.0,1.0,31.0,15.0,1.0,0.8,0.7,Time
,,S37,1,,,anonymized,Serial_Dependence_U,2023.2.3,Win32,60.240963855400565,,,,,,494.91409999990464,334.0,1.0,494.9142000000476,334.0,,,,498.6552000000476,499.1547999999522,498.1423999998569,498.6549999999999,495.9052000000476,498.1423999998569,499.1547999999522,499.65829999995225,499.65829999995225,501.2423999998569,1250.0,501.2425,3.0,501.2469999999999,1.0,2.0,32.0,7.0,1.0,1.2,0.7,Time
,,S37,1,,,anonymized,Serial_Dependence_U,2023.2.3,Win32,60.240963855400565,,,,,,501.2470999999046,209.0,1.0,501.2470999999046,209.0,,,,505.2088999998569,505.7045999999046,504.6925,505.2088999998569,502.2575999999046,504.6925,505.7045999999046,506.2045999999046,506.2045999999046,508.3757000000476,1833.0,508.3757000000476,5.0,508.3802999999522,1.0,3.0,33.0,28.0,1.0,1.4,0.7,Time
,,S37,1,,,anonymized,Serial_Dependence_U,2023.2.3,Win32,60.240963855400565,,,,,,508.3804999999999,199.0,1.0,508.3804999999999,199.0,,,,511.9087999999522,512.4044999999999,511.4047999999522,511.9087000000477,509.3714999999999,511.4047000000476,512.4044999999999,512.9077999999522,512.9078999998569,515.492,2285.0,515.4920999999047,5.0,515.4968999998569,1.0,4.0,34.0,16.0,1.0,1.0,0.7,Time
,,S37,1,,,anonymized,Serial_Dependence_U,2023.2.3,Win32,60.240963855400565,,,,,,515.4969999999998,224.0,1.0,515.4970999999045,224.0,,,,519.2918999998569,519.7875999999046,518.7713999998568,519.2918999998569,516.5072999999522,518.7712999999524,519.7875999999046,520.2875999999046,520.2875999999046,522.1085999999045,1467.0,522.1087000000477,4.0,522.1132000000475,1.0,5.0,35.0,22.0,1.0,1.2,0.3,Time
,,S37,1,,,anonymized,Serial_Dependence_U,2023.2.3,Win32,60.240963855400565,,,,,,522.1132999999522,117.0,1.0,522.1133999998569,117.0,,,,525.4543999998568,525.9542000000476,524.941899999857,525.4543999998568,523.1044999999999,524.9417999999523,525.9542000000476,526.4540999999047,526.4540999999047,528.0417999999522,1151.0,528.0418999998569,5.0,528.0463999998569,1.0,6.0,36.0,5.0,1.0,0.8,0.7,Time
,,S37,1,,,anonymized,Serial_Dependence_U,2023.2.3,Win32,60.240963855400565,,,,,,528.0465999999046,277.0,1.0,528.0465999999046,277.0,,,,531.6235999999046,532.1207000000477,531.1082999999524,531.6234999999999,529.0375999999046,531.1082000000476,532.1207000000477,532.6205999999047,532.6205999999047,533.7917000000477,868.0,533.7917000000477,2.0,533.7962000000477,1.0,7.0,37.0,11.0,1.0,1.0,0.3,Time
,,S37,1,,,anonymized,Serial_Dependence_U,2023.2.3,Win32,60.240963855400565,,,,,,533.7963999998569,138.0,1.0,533.7963999998569,138.0,,,,537.7375,538.2404999999999,537.220899999857,537.737399999857,534.7900999999047,537.220899999857,538.2404999999999,538.7372000000476,538.7372999999523,541.4582000000476,2450.0,541.4582000000476,5.0,541.463,1.0,8.0,38.0,8.0,1.0,1.4,0.7,Time
,,S37,1,,,anonymized,Serial_Dependence_U,2023.2.3,Win32,60.240963855400565,,,,,,541.4632000000477,344.0,1.0,541.4632000000477,344.0,,,,544.8373999998569,545.337,544.3247999999523,544.8372999999522,542.4540999999047,544.3247000000476,545.337,545.837,545.837,547.5915,1484.0,547.5915,5.0,547.596,1.0,9.0,39.0,0.0,1.0,0.8,0.3,Time
,,S37,1,,,anonymized,Serial_Dependence_U,2023.2.3,Win32,60.240963855400565,,,,,,547.5960999999045,247.0,1.0,547.5962000000477,247.0,,,,551.7872000000477,552.2902000000477,551.2745,551.7870999999045,548.6038999998568,551.274399999857,552.2902000000477,552.7867999999523,552.7867999999523,554.2577999999523,1234.0,554.2577999999523,2.0,554.2622999999523,1.0,10.0,40.0,24.0,1.0,1.6,0.3,Time
,,S37,1,,,anonymized,Serial_Dependence_U,2023.2.3,Win32,60.240963855400565,,,,,,554.2625,15.0,1.0,554.2625999999045,15.0,,,,557.6410999999046,558.1367000000475,557.1244999999999,557.6409999999998,555.2537999999522,557.1244999999999,558.1367000000475,558.6400999999046,558.6400999999046,560.3910999999046,835.0,560.3910999999046,3.0,560.3955999999046,1.0,11.0,41.0,20.0,1.0,0.8,0.3,Time
,,S37,1,,,anonymized,Serial_Dependence_U,2023.2.3,Win32,60.240963855400565,,,,,,560.3957000000476,195.0,1.0,560.3957999999523,195.0,,,,564.1575,564.6532000000477,563.6408999998569,564.1575,561.4035999999046,563.6407999999524,564.6532000000477,565.1532000000477,565.1532000000477,567.7077999999524,2267.0,567.7077999999524,5.0,567.7125999999046,1.0,12.0,42.0,27.0,1.0,1.2,0.7,Time
,,S37,1,,,anonymized,Serial_Dependence_U,2023.2.3,Win32,60.240963855400565,,,,,,567.7127000000476,170.0,1.0,567.7127999999523,170.0,,,,571.3035,571.8030999999046,570.7907000000475,571.3032999999523,568.7200999999045,570.7905999999045,571.8030999999046,572.3064999999999,572.3064999999999,574.207399999857,1148.0,574.207399999857,4.0,574.212,1.0,13.0,43.0,21.0,1.0,1.0,0.3,Time
,,S37,1,,,anonymized,Serial_Dependence_U,2023.2.3,Win32,60.240963855400565,,,,,,574.2120999999047,193.0,1.0,574.2122000000477,193.0,,,,577.9865,578.4862000000476,577.4737999999522,577.9865,575.2032999999524,577.4737000000475,578.4862000000476,578.9894999999999,578.9894999999999,581.0239999999999,1750.0,581.0239999999999,5.0,581.0284999999999,1.0,14.0,44.0,12.0,1.0,1.2,0.3,Time
,,S37,1,,,anonymized,Serial_Dependence_U,2023.2.3,Win32,60.240963855400565,,,,,,581.0287000000476,47.0,1.0,581.0287000000476,47.0,,,,584.5725,585.0693999998568,584.0570999999045,584.5722999999523,582.0232000000476,584.057,585.0693999998568,585.5693999998568,585.5693999998568,587.5238999998569,1567.0,587.5238999998569,5.0,587.5287000000476,1.0,15.0,45.0,6.0,1.0,1.0,0.7,Time
,,S37,1,,,anonymized,Serial_Dependence_U,2023.2.3,Win32,60.240963855400565,,,,,,587.528899999857,56.0,1.0,587.529,56.0,,,,591.5068999998568,592.0025999999045,590.9900999999045,591.5067999999524,588.5227999999522,590.99,592.0025999999045,592.5025999999045,592.5025999999045,593.3738999998568,550.0,593.3738999998568,1.0,593.3785,1.0,16.0,46.0,3.0,1.0,1.4,0.3,Time
,,S37,1,,,anonymized,Serial_Dependence_U,2023.2.3,Win32,60.240963855400565,,,,,,593.3785,137.0,1.0,593.3785999999045,137.0,,,,597.5195999999046,598.019,597.0068999998568,597.5195999999046,594.3695,597.0067999999524,598.019,598.5190999999045,598.5190999999045,600.323399999857,1384.0,600.323399999857,2.0,600.3282999999524,1.0,17.0,47.0,29.0,1.0,1.6,0.7,Time
,,S37,1,,,anonymized,Serial_Dependence_U,2023.2.3,Win32,60.240963855400565,,,,,,600.3283999998569,38.0,1.0,600.3284999999998,38.0,,,,603.688399999857,604.1855999999045,603.1732999999522,603.688399999857,601.336,603.1732000000477,604.1855999999045,604.6857000000477,604.6857000000477,607.3067000000476,1801.0,607.3067000000476,5.0,607.3115,1.0,18.0,48.0,25.0,1.0,0.8,0.7,Time
,,S37,1,,,anonymized,Serial_Dependence_U,2023.2.3,Win32,60.240963855400565,,,,,,607.3117000000477,121.0,1.0,607.3117000000477,121.0,,,,611.302399999857,611.8019999999999,610.7897999999523,611.302399999857,608.3190999999047,610.7897000000476,611.8020999999046,612.3020999999046,612.3020999999046,614.3897999999522,948.0,614.3898999998569,1.0,614.3947000000476,1.0,19.0,49.0,13.0,1.0,1.4,0.3,Time
,,S37,1,,,anonymized,Serial_Dependence_U,2023.2.3,Win32,60.240963855400565,,,,,,614.3947999999523,153.0,1.0,614.394899999857,153.0,,,,618.5355999999047,619.0380999999045,618.0227999999522,618.5355999999047,615.3895999999045,618.0227999999522,619.0380999999045,619.5352000000476,619.5352000000476,622.6062000000477,1347.0,622.6062999999522,2.0,622.6109999999999,1.0,20.0,50.0,19.0,1.0,1.6,0.7,Time
,,S37,1,,,anonymized,Serial_Dependence_U,2023.2.3,Win32,60.240963855400565,,,,,,622.6112999999523,337.0,1.0,622.6112999999523,337.0,,,,626.7547000000477,627.2517000000475,626.2393999998569,626.7547000000477,623.6047000000476,626.2392999999522,627.2517000000475,627.7517000000475,627.7517000000475,630.2394999999999,2001.0,630.2394999999999,4.0,630.2442999999523,1.0,21.0,51.0,9.0,1.0,1.6,0.7,Time
,,S37,1,,,anonymized,Serial_Dependence_U,2023.2.3,Win32,60.240963855400565,,,,,,630.2445,9.0,1.0,630.2445,9.0,,,,633.8219999999999,634.3182999999522,633.3057000000476,633.8219999999999,631.2352999999523,633.3057000000476,634.3182999999522,634.8182999999522,634.8182999999522,636.5727000000477,1285.0,636.5727000000477,4.0,636.5772999999522,1.0,22.0,52.0,1.0,1.0,1.0,0.3,Time
,,S37,1,,,anonymized,Serial_Dependence_U,2023.2.3,Win32,60.240963855400565,,,,,,636.5773999998569,132.0,1.0,636.5774999999999,132.0,,,,640.5542000000476,641.0547999999524,640.038899999857,640.5542000000476,637.5683999998569,640.038899999857,641.0547999999524,641.5513999998568,641.5515,643.5058999998569,1650.0,643.5058999998569,4.0,643.5103999998569,1.0,23.0,53.0,23.0,1.0,1.4,0.3,Time
,,S37,1,,,anonymized,Serial_Dependence_U,2023.2.3,Win32,60.240963855400565,,,,,,643.5105999999046,85.0,1.0,643.5105999999046,85.0,,,,647.6722000000477,648.1678999998569,647.1682999999523,647.6720999999045,644.5055999999047,647.1682000000476,648.1678999998569,648.6678999998569,648.6678999998569,649.8542999999522,915.0,649.8542999999522,1.0,649.8589999999999,1.0,24.0,54.0,14.0,1.0,1.6,0.3,Time
,,S37,1,,,anonymized,Serial_Dependence_U,2023.2.3,Win32,60.240963855400565,,,,,,649.8592000000476,265.0,1.0,649.8592000000476,265.0,,,,653.651399999857,654.1510999999045,653.1387999999522,653.6512000000475,650.8680999999046,653.1387000000477,654.1510999999045,654.6510000000001,654.6510000000001,656.1054999999999,1117.0,656.1054999999999,2.0,656.1100999999046,1.0,25.0,55.0,2.0,1.0,1.2,0.3,Time
,,S37,1,,,anonymized,Serial_Dependence_U,2023.2.3,Win32,60.240963855400565,,,,,,656.1102000000476,291.0,1.0,656.1102999999523,291.0,,,,660.2718999998569,660.7675999999046,659.768,660.2717999999522,657.1012999999523,659.7677999999523,660.7675999999046,661.2675999999046,661.2675999999046,662.1885999999047,633.0,662.1885999999047,1.0,662.1930999999047,1.0,26.0,56.0,4.0,1.0,1.6,0.3,Time
,,S37,1,,,anonymized,Serial_Dependence_U,2023.2.3,Win32,60.240963855400565,,,,,,662.1932999999522,287.0,1.0,662.1932999999522,287.0,,,,665.5870999999047,666.0875999999046,665.0677999999523,665.587,663.2012000000477,665.0677999999523,666.0875999999046,666.5840999999045,666.5840999999045,668.2217999999523,1350.0,668.221899999857,5.0,668.226399999857,1.0,27.0,57.0,10.0,1.0,0.8,0.3,Time
,,S37,1,,,anonymized,Serial_Dependence_U,2023.2.3,Win32,60.240963855400565,,,,,,668.2265999999047,63.0,1.0,668.2265999999047,63.0,,,,672.1715999999046,672.6672999999523,671.654899999857,672.1715999999046,669.2177000000477,671.654899999857,672.6672999999523,673.1672999999523,673.1673999998568,675.6383999998568,2188.0,675.6383999998568,5.0,675.643,1.0,28.0,58.0,18.0,1.0,1.4,0.7,Time
,,S37,1,,,anonymized,Serial_Dependence_U,2023.2.3,Win32,60.240963855400565,,,,,,675.6432000000477,220.0,1.0,675.6432000000477,220.0,,,,679.2034999999998,679.7003999998569,678.6878999998569,679.2034999999998,676.6380999999046,678.6878999998569,679.7003999998569,680.2004999999999,680.2004999999999,682.5382999999522,2100.0,682.5382999999522,5.0,682.5429999999999,1.0,29.0,59.0,26.0,1.0,1.0,0.7,Time
,,S37,1,,,anonymized,Serial_Dependence_U,2023.2.3,Win32,60.240963855400565,,,,,,682.5432000000476,321.0,2.0,917.7525,321.0,s,235.19339999985695,,921.5320999999046,922.0278999998568,921.0155999999048,921.532,918.7487999999524,921.0155999999048,922.028,922.528,922.528,924.548899999857,1767.0,924.549,5.0,924.5535,2.0,0.0,60.0,12.0,1.0,1.2,0.3,Time
,,S37,1,,,anonymized,Serial_Dependence_U,2023.2.3,Win32,60.240963855400565,,,,,,924.5537000000476,46.0,2.0,924.5540999999046,46.0,,,,928.713899999857,929.2110999999044,928.2113999998568,928.7137999999522,925.5447999999524,928.2113999998568,929.2110999999044,929.7145,929.7145,930.7322000000476,733.0,930.7322000000476,1.0,930.7367000000476,2.0,1.0,61.0,4.0,1.0,1.6,0.3,Time
,,S37,1,,,anonymized,Serial_Dependence_U,2023.2.3,Win32,60.240963855400565,,,,,,930.7368999998567,105.0,2.0,930.7368999998567,105.0,,,,934.528,935.0277000000476,934.0152000000476,934.5278999998568,931.7447000000476,934.0150999999046,935.0277000000476,935.5277000000476,935.5277000000476,936.8820999999044,1117.0,936.8820999999044,2.0,936.8865999999044,2.0,2.0,62.0,2.0,1.0,1.2,0.3,Time
,,S37,1,,,anonymized,Serial_Dependence_U,2023.2.3,Win32,60.240963855400565,,,,,,936.8867999999522,117.0,2.0,936.886899999857,117.0,,,,941.0652000000478,941.5607999999522,940.5445,941.0650999999044,937.8778999998568,940.544399999857,941.5607999999522,942.0607999999522,942.0607999999522,943.4318999998568,1000.0,943.4318999998568,1.0,943.4363999998568,2.0,3.0,63.0,14.0,1.0,1.6,0.3,Time
,,S37,1,,,anonymized,Serial_Dependence_U,2023.2.3,Win32,60.240963855400565,,,,,,943.4365,319.0,2.0,943.4365999999044,319.0,,,,947.398399999857,947.894,946.8942999999524,947.3982999999524,944.4277000000476,946.8942999999524,947.894,948.397399999857,948.397399999857,951.3483999998572,2333.0,951.3483999998572,5.0,951.3532000000478,2.0,4.0,64.0,13.0,1.0,1.4,0.3,Time
,,S37,1,,,anonymized,Serial_Dependence_U,2023.2.3,Win32,60.240963855400565,,,,,,951.3532999999522,277.0,2.0,951.353399999857,277.0,,,,955.4940999999046,955.9937000000476,954.9813999998568,955.494,952.3442000000476,954.9813999998568,955.9937000000476,956.4937999999522,956.4937999999522,958.2982999999524,1424.0,958.2983999998568,2.0,958.3030999999046,2.0,5.0,65.0,29.0,1.0,1.6,0.7,Time
,,S37,1,,,anonymized,Serial_Dependence_U,2023.2.3,Win32,60.240963855400565,,,,,,958.3032999999524,72.0,2.0,958.3032999999524,72.0,,,,961.6772999999524,962.1802999999522,961.1633999998568,961.6772999999524,959.294,961.1632999999524,962.1802999999522,962.677,962.677,963.948,883.0,963.948,4.0,963.9525999999046,2.0,6.0,66.0,20.0,1.0,0.8,0.3,Time
,,S37,1,,,anonymized,Serial_Dependence_U,2023.2.3,Win32,60.240963855400565,,,,,,963.9527000000478,318.0,2.0,963.9527999999524,318.0,,,,967.8937999999524,968.3968999998568,967.3812000000478,967.8937999999524,964.9477000000476,967.3812000000478,968.3968999998568,968.8935,968.8935,970.8643999998568,1601.0,970.8643999998568,4.0,970.8692000000476,2.0,7.0,67.0,8.0,1.0,1.4,0.7,Time
,,S37,1,,,anonymized,Serial_Dependence_U,2023.2.3,Win32,60.240963855400565,,,,,,970.869399999857,63.0,2.0,970.8695,63.0,,,,974.9977000000476,975.493399999857,974.4937000000476,974.9975999999048,971.8602999999524,974.4935999999047,975.493399999857,975.993399999857,975.993399999857,979.1477000000476,1667.0,979.1477999999524,3.0,979.1527000000476,2.0,8.0,68.0,19.0,1.0,1.6,0.7,Time
,,S37,1,,,anonymized,Serial_Dependence_U,2023.2.3,Win32,60.240963855400565,,,,,,979.152899999857,279.0,2.0,979.152899999857,279.0,,,,983.093399999857,983.5932000000478,982.5807000000476,983.093399999857,980.147399999857,982.5805999999048,983.5932000000478,984.0932000000478,984.0932000000478,986.083,1552.0,986.083,4.0,986.0877000000478,2.0,9.0,69.0,18.0,1.0,1.4,0.7,Time
,,S37,1,,,anonymized,Serial_Dependence_U,2023.2.3,Win32,60.240963855400565,,,,,,986.0877999999524,103.0,2.0,986.087899999857,103.0,,,,989.4460999999046,989.943,988.9432999999524,989.4458999998568,987.0767000000476,988.9432000000476,989.943,990.442899999857,990.442899999857,992.0475,1350.0,992.0475999999046,5.0,992.0522000000476,2.0,10.0,70.0,0.0,1.0,0.8,0.3,Time
,,S37,1,,,anonymized,Serial_Dependence_U,2023.2.3,Win32,60.240963855400565,,,,,,992.0522999999524,313.0,2.0,992.052399999857,313.0,,,,995.5930999999046,996.0928999998569,995.080399999857,995.5930999999046,993.0430999999046,995.080399999857,996.0928999998569,996.5927999999524,996.5927999999524,998.963899999857,2017.0,998.963899999857,5.0,998.9685999999048,2.0,11.0,71.0,6.0,1.0,1.0,0.7,Time
,,S37,1,,,anonymized,Serial_Dependence_U,2023.2.3,Win32,60.240963855400565,,,,,,998.9687999999524,96.0,2.0,998.9687999999524,96.0,,,,1002.3122999999524,1002.8092999999524,1001.7970999999048,1002.3122000000476,999.9597000000476,1001.797,1002.8092999999524,1003.3092999999524,1003.3092999999524,1005.3305,917.0,1005.3305,4.0,1005.335,2.0,12.0,72.0,15.0,1.0,0.8,0.7,Time
,,S37,1,,,anonymized,Serial_Dependence_U,2023.2.3,Win32,60.240963855400565,,,,,,1005.3350999999049,71.0,2.0,1005.3352000000476,71.0,,,,1009.0762000000476,1009.5757999999524,1008.563399999857,1009.0760999999048,1006.3262000000476,1008.5632999999524,1009.5757999999524,1010.075899999857,1010.075899999857,1011.4802000000476,1133.0,1011.4802999999524,2.0,1011.4847000000476,2.0,13.0,73.0,17.0,1.0,1.2,0.7,Time
,,S37,1,,,anonymized,Serial_Dependence_U,2023.2.3,Win32,60.240963855400565,,,,,,1011.4848999998568,136.0,2.0,1011.4848999998568,136.0,,,,1015.2617999999522,1015.759,1014.747399999857,1015.2617000000478,1012.4760999999046,1014.7472999999522,1015.759,1016.259,1016.259,1029.0115999999043,1162.0,1029.0115999999043,3.0,1029.016399999857,2.0,14.0,74.0,22.0,1.0,1.2,0.3,Time
,,S37,1,,,anonymized,Serial_Dependence_U,2023.2.3,Win32,60.240963855400565,,,,,,1029.0165,357.0,2.0,1029.0165999999049,357.0,,,,1032.5447999999524,1033.041899999857,1032.0422999999523,1032.5447000000477,1030.009,1032.0422000000476,1033.041899999857,1033.541899999857,1033.542,1035.3462999999524,1534.0,1035.3462999999524,5.0,1035.3507999999524,2.0,15.0,75.0,26.0,1.0,1.0,0.7,Time
,,S37,1,,,anonymized,Serial_Dependence_U,2023.2.3,Win32,60.240963855400565,,,,,,1035.350899999857,137.0,2.0,1035.351,137.0,,,,1039.325399999857,1039.8250999999048,1038.8127999999524,1039.325399999857,1036.3445999999046,1038.8127000000477,1039.8250999999048,1040.3250999999048,1040.3250999999048,1041.196,633.0,1041.196,1.0,1041.2005,2.0,16.0,76.0,3.0,1.0,1.4,0.3,Time
,,S37,1,,,anonymized,Serial_Dependence_U,2023.2.3,Win32,60.240963855400565,,,,,,1041.2005999999046,308.0,2.0,1041.2005999999046,308.0,,,,1044.545899999857,1045.0417000000475,1044.042,1044.5457999999524,1042.2087000000477,1044.041899999857,1045.0417000000475,1045.5417000000475,1045.5417000000475,1047.679599999905,1717.0,1047.679599999905,5.0,1047.684099999905,2.0,17.0,77.0,25.0,1.0,0.8,0.7,Time
,,S37,1,,,anonymized,Serial_Dependence_U,2023.2.3,Win32,60.240963855400565,,,,,,1047.6842000000477,263.0,2.0,1047.6842999999524,263.0,,,,1051.2777000000476,1051.7782000000475,1050.7625,1051.2775999999046,1048.691899999857,1050.762399999857,1051.7782000000475,1052.2748999998569,1052.2748999998569,1054.3125,1239.0,1054.3125,4.0,1054.3172999999524,2.0,18.0,78.0,21.0,1.0,1.0,0.3,Time
,,S37,1,,,anonymized,Serial_Dependence_U,2023.2.3,Win32,60.240963855400565,,,,,,1054.317399999857,41.0,2.0,1054.3175,41.0,,,,1057.879,1058.3747000000476,1057.3622000000478,1057.879,1055.3275,1057.3622000000478,1058.3747000000476,1058.8747000000476,1058.8747000000476,1060.8287999999525,1433.0,1060.8287999999525,5.0,1060.8332999999525,2.0,19.0,79.0,16.0,1.0,1.0,0.7,Time
,,S37,1,,,anonymized,Serial_Dependence_U,2023.2.3,Win32,60.240963855400565,,,,,,1060.8335,122.0,2.0,1060.8335,122.0,,,,1064.5747999999523,1065.0745,1064.0625999999047,1064.5747999999523,1061.8247999999523,1064.0625,1065.0745999999046,1065.5745,1065.5745,1067.0457000000476,1317.0,1067.0457000000476,4.0,1067.0502999999524,2.0,20.0,80.0,27.0,1.0,1.2,0.7,Time
,,S37,1,,,anonymized,Serial_Dependence_U,2023.2.3,Win32,60.240963855400565,,,,,,1067.050399999857,72.0,2.0,1067.0505,72.0,,,,1070.6270999999049,1071.1277999999522,1070.1120999999046,1070.6270999999049,1068.041399999857,1070.1120999999046,1071.1277999999522,1071.6275,1071.6275999999043,1072.6955,784.0,1072.6955,2.0,1072.7,2.0,21.0,81.0,1.0,1.0,1.0,0.3,Time
,,S37,1,,,anonymized,Serial_Dependence_U,2023.2.3,Win32,60.240963855400565,,,,,,1072.7002000000475,331.0,2.0,1072.7002000000475,331.0,,,,1076.0785999999046,1076.5772000000477,1075.561899999857,1076.0785999999046,1073.6912000000475,1075.561899999857,1076.5772000000477,1077.0742000000478,1077.0742000000478,1077.9955999999047,634.0,1077.9955999999047,2.0,1078.0000999999047,2.0,22.0,82.0,10.0,1.0,0.8,0.3,Time
,,S37,1,,,anonymized,Serial_Dependence_U,2023.2.3,Win32,60.240963855400565,,,,,,1078.0002999999524,217.0,2.0,1078.0003999998569,217.0,,,,1082.141,1082.6407000000477,1081.6282999999523,1082.141,1078.9952000000476,1081.6282999999523,1082.6407999999524,1083.1407999999524,1083.1407999999524,1086.1285,2667.0,1086.1285,5.0,1086.1332999999524,2.0,23.0,83.0,9.0,1.0,1.6,0.7,Time
,,S37,1,,,anonymized,Serial_Dependence_U,2023.2.3,Win32,60.240963855400565,,,,,,1086.1335,21.0,2.0,1086.1335,21.0,,,,1089.4742999999523,1089.973899999857,1088.9617999999523,1089.4742000000476,1087.1242999999524,1088.9617000000476,1089.974,1090.473899999857,1090.473899999857,1092.157399999857,1336.0,1092.157399999857,5.0,1092.162,2.0,24.0,84.0,5.0,1.0,0.8,0.7,Time
,,S37,1,,,anonymized,Serial_Dependence_U,2023.2.3,Win32,60.240963855400565,,,,,,1092.162,141.0,2.0,1092.1620999999047,141.0,,,,1096.1112000000478,1096.607,1095.594899999857,1096.1112000000478,1093.1575,1095.5947000000476,1096.607099999905,1097.107099999905,1097.107099999905,1100.111599999905,2567.0,1100.111599999905,5.0,1100.1163999998569,2.0,25.0,85.0,28.0,1.0,1.4,0.7,Time
,,S37,1,,,anonymized,Serial_Dependence_U,2023.2.3,Win32,60.240963855400565,,,,,,1100.1165,182.0,2.0,1100.1165999999046,182.0,,,,1104.2905999999043,1104.7902000000477,1103.776399999857,1104.2905999999043,1101.111,1103.776399999857,1104.7902000000477,1105.2902000000477,1105.2902000000477,1107.6112999999525,1800.0,1107.6112999999525,4.0,1107.616,2.0,26.0,86.0,24.0,1.0,1.6,0.3,Time
,,S37,1,,,anonymized,Serial_Dependence_U,2023.2.3,Win32,60.240963855400565,,,,,,1107.6162000000477,58.0,2.0,1107.6162000000477,58.0,,,,1111.190399999857,1111.69,1110.6737999999525,1111.1902999999522,1108.6072000000477,1110.6737000000478,1111.69,1112.1900999999043,1112.1900999999043,1113.9610999999047,1433.0,1113.9610999999047,5.0,1113.9655999999047,2.0,27.0,87.0,11.0,1.0,1.0,0.3,Time
,,S37,1,,,anonymized,Serial_Dependence_U,2023.2.3,Win32,60.240963855400565,,,,,,1113.9657999999524,356.0,2.0,1113.9657999999524,356.0,,,,1117.706899999857,1118.2065,1117.1942999999524,1117.7067999999524,1114.957,1117.1942000000477,1118.2065,1118.7100999999047,1118.7100999999047,1121.2277000000477,2001.0,1121.2277000000477,5.0,1121.2323999998569,2.0,28.0,88.0,7.0,1.0,1.2,0.7,Time
,,S37,1,,,anonymized,Serial_Dependence_U,2023.2.3,Win32,60.240963855400565,,,,,,1121.2325999999046,348.0,2.0,1121.2325999999046,348.0,,,,1125.2067000000477,1125.7097999999523,1124.693899999857,1125.2067000000477,1122.227399999857,1124.693899999857,1125.7097999999523,1126.206399999857,1126.206399999857,1127.627,1105.0,1127.627,2.0,1127.631399999857,2.0,29.0,89.0,23.0,1.0,1.4,0.3,Time
,,S37,1,,,anonymized,Serial_Dependence_U,2023.2.3,Win32,60.240963855400565,,,,,,1127.631599999905,106.0,3.0,1312.8065,106.0,s,185.15010000014308,,1317.005399999857,1317.5017000000478,1316.4892999999524,1317.0052999999525,1313.8187999999525,1316.4892999999524,1317.5017000000478,1318.0017000000478,1318.0017000000478,1319.4060999999049,1117.0,1319.4062000000476,1.0,1319.4107000000477,3.0,0.0,90.0,4.0,1.0,1.6,0.3,Time
,,S37,1,,,anonymized,Serial_Dependence_U,2023.2.3,Win32,60.240963855400565,,,,,,1319.410899999857,199.0,3.0,1319.411399999857,199.0,,,,1322.9723999998569,1323.4682999999525,1322.455899999857,1322.9723999998569,1320.406,1322.4557000000475,1323.4682999999525,1323.9682999999525,1323.9682999999525,1327.2897000000478,2535.0,1327.2897000000478,5.0,1327.2942999999525,3.0,1.0,91.0,26.0,1.0,1.0,0.7,Time
,,S37,1,,,anonymized,Serial_Dependence_U,2023.2.3,Win32,60.240963855400565,,,,,,1327.2945,0.0,3.0,1327.294599999905,0.0,,,,1330.635,1331.1380999999046,1330.1185999999047,1330.635,1328.2852000000478,1330.118399999857,1331.1380999999046,1331.6347000000476,1331.6347999999523,1333.839399999857,1917.0,1333.8395,5.0,1333.843899999857,3.0,2.0,92.0,25.0,1.0,0.8,0.7,Time
,,S37,1,,,anonymized,Serial_Dependence_U,2023.2.3,Win32,60.240963855400565,,,,,,1333.8440999999048,57.0,3.0,1333.8440999999048,57.0,,,,1337.435,1337.9380999999046,1336.9182000000476,1337.434899999857,1334.8555,1336.9180999999046,1337.9380999999046,1338.438,1338.438,1339.4557999999524,694.0,1339.455899999857,1.0,1339.460399999857,3.0,3.0,93.0,11.0,1.0,1.0,0.3,Time
,,S37,1,,,anonymized,Serial_Dependence_U,2023.2.3,Win32,60.240963855400565,,,,,,1339.4605999999046,223.0,3.0,1339.4605999999046,223.0,,,,1343.0013999998569,1343.5012000000477,1342.4887999999523,1343.0013999998569,1340.4542000000476,1342.4887000000476,1343.5012000000477,1344.001099999905,1344.001099999905,1345.889,1634.0,1345.889,5.0,1345.8935,3.0,4.0,94.0,6.0,1.0,1.0,0.7,Time
,,S37,1,,,anonymized,Serial_Dependence_U,2023.2.3,Win32,60.240963855400565,,,,,,1345.8937000000476,150.0,3.0,1345.8937000000476,150.0,,,,1349.268,1349.7675999999046,1348.7552999999525,1349.267899999857,1346.8845999999046,1348.7552000000478,1349.7675999999046,1350.271,1350.271,1362.488,1050.0,1362.488,5.0,1362.4925999999043,3.0,5.0,95.0,20.0,1.0,0.8,0.3,Time
,,S37,1,,,anonymized,Serial_Dependence_U,2023.2.3,Win32,60.240963855400565,,,,,,1362.4927999999522,165.0,3.0,1362.4927999999522,165.0,,,,1366.6382000000476,1367.133899999857,1366.121399999857,1366.6380999999046,1363.4842999999523,1366.1212999999525,1367.133899999857,1367.633899999857,1367.633899999857,1370.1882999999525,1826.0,1370.1882999999525,4.0,1370.193,3.0,6.0,96.0,29.0,1.0,1.6,0.7,Time
,,S37,1,,,anonymized,Serial_Dependence_U,2023.2.3,Win32,60.240963855400565,,,,,,1370.1932000000477,43.0,3.0,1370.1932000000477,43.0,,,,1373.537899999857,1374.0337000000477,1373.021399999857,1373.5377999999523,1371.1842000000477,1373.021399999857,1374.0337000000477,1374.5337999999524,1374.5337999999524,1377.0385999999046,1850.0,1377.0387000000476,5.0,1377.0432000000476,3.0,7.0,97.0,5.0,1.0,0.8,0.7,Time
,,S37,1,,,anonymized,Serial_Dependence_U,2023.2.3,Win32,60.240963855400565,,,,,,1377.0432999999523,245.0,3.0,1377.043399999857,245.0,,,,1380.8172000000477,1381.316899999857,1380.3047999999524,1380.8172000000477,1378.034,1380.3047000000477,1381.316899999857,1381.816899999857,1381.816899999857,1383.9877999999524,1859.0,1383.9877999999524,5.0,1383.9925999999043,3.0,8.0,98.0,22.0,1.0,1.2,0.3,Time
,,S37,1,,,anonymized,Serial_Dependence_U,2023.2.3,Win32,60.240963855400565,,,,,,1383.9927999999522,7.0,3.0,1383.9927999999522,7.0,,,,1387.7337000000475,1388.233399999857,1387.2210999999047,1387.7335999999048,1384.9877000000477,1387.2210999999047,1388.233399999857,1388.733399999857,1388.733399999857,1390.738,1801.0,1390.7380999999043,5.0,1390.7425,3.0,9.0,99.0,17.0,1.0,1.2,0.7,Time
,,S37,1,,,anonymized,Serial_Dependence_U,2023.2.3,Win32,60.240963855400565,,,,,,1390.7427000000478,108.0,3.0,1390.7427000000478,108.0,,,,1394.9040999999047,1395.3997999999524,1394.3875,1394.9040999999047,1391.7502999999524,1394.3875,1395.3997999999524,1395.8998999998569,1395.8998999998569,1398.4877999999524,2434.0,1398.4877999999524,5.0,1398.4925999999043,3.0,10.0,100.0,9.0,1.0,1.6,0.7,Time
,,S37,1,,,anonymized,Serial_Dependence_U,2023.2.3,Win32,60.240963855400565,,,,,,1398.4927000000478,186.0,3.0,1398.4927000000478,186.0,,,,1402.6667000000475,1403.1662999999523,1402.154,1402.6667000000475,1399.483399999857,1402.153899999857,1403.1662999999523,1403.6662999999523,1403.6662999999523,1405.637399999857,1718.0,1405.637399999857,4.0,1405.641899999857,3.0,11.0,101.0,14.0,1.0,1.6,0.3,Time
,,S37,1,,,anonymized,Serial_Dependence_U,2023.2.3,Win32,60.240963855400565,,,,,,1405.6420999999048,269.0,3.0,1405.6422000000478,269.0,,,,1409.6330999999047,1410.132899999857,1409.1205999999047,1409.633,1406.6498999998569,1409.1205999999047,1410.132899999857,1410.632899999857,1410.632899999857,1412.403899999857,1517.0,1412.404,4.0,1412.4087999999524,3.0,12.0,102.0,3.0,1.0,1.4,0.3,Time
,,S37,1,,,anonymized,Serial_Dependence_U,2023.2.3,Win32,60.240963855400565,,,,,,1412.409,245.0,3.0,1412.409,245.0,,,,1416.370399999857,1416.8660999999047,1415.8532000000478,1416.370399999857,1413.4037000000476,1415.8530999999043,1416.8660999999047,1417.369399999857,1417.369399999857,1456.2695999999046,933.0,1456.2695999999046,1.0,1456.274399999857,3.0,13.0,103.0,28.0,1.0,1.4,0.7,Time
,,S37,1,,,anonymized,Serial_Dependence_U,2023.2.3,Win32,60.240963855400565,,,,,,1456.2745,63.0,3.0,1456.2745999999047,63.0,,,,1460.0525999999047,1460.5517000000475,1459.535899999857,1460.0525,1457.2692999999524,1459.5357999999524,1460.5517000000475,1461.0482999999524,1461.0482999999524,1462.852899999857,1100.0,1462.852899999857,2.0,1462.8575,3.0,14.0,104.0,2.0,1.0,1.2,0.3,Time
,,S37,1,,,anonymized,Serial_Dependence_U,2023.2.3,Win32,60.240963855400565,,,,,,1462.8577000000478,138.0,3.0,1462.8577000000478,138.0,,,,1467.0522000000476,1467.5482000000477,1466.5357000000477,1467.0522000000476,1463.8652000000477,1466.5357000000477,1467.5482000000477,1468.0480999999047,1468.0480999999047,1469.4360999999046,867.0,1469.4360999999046,1.0,1469.4407000000476,3.0,15.0,105.0,24.0,1.0,1.6,0.3,Time
,,S37,1,,,anonymized,Serial_Dependence_U,2023.2.3,Win32,60.240963855400565,,,,,,1469.440899999857,70.0,3.0,1469.440899999857,70.0,,,,1473.2175,1473.7180999999046,1472.7023999998569,1473.2175,1470.4317000000476,1472.7022999999524,1473.7182000000478,1474.2145999999047,1474.2145999999047,1475.3690999999046,912.0,1475.3692000000476,2.0,1475.3735999999046,3.0,16.0,106.0,12.0,1.0,1.2,0.3,Time
,,S37,1,,,anonymized,Serial_Dependence_U,2023.2.3,Win32,60.240963855400565,,,,,,1475.3737999999523,98.0,3.0,1475.373899999857,98.0,,,,1478.9482999999525,1479.4477999999524,1478.4355999999048,1478.9482999999525,1476.3677000000478,1478.4355,1479.4478999998569,1479.9478999998569,1479.9478999998569,1483.069,1283.0,1483.069,4.0,1483.0737000000477,3.0,17.0,107.0,1.0,1.0,1.0,0.3,Time
,,S37,1,,,anonymized,Serial_Dependence_U,2023.2.3,Win32,60.240963855400565,,,,,,1483.0737999999524,90.0,3.0,1483.0738999998568,90.0,,,,1486.8147000000477,1487.3142999999525,1486.3007000000478,1486.8145,1484.0645999999049,1486.3007000000478,1487.3142999999525,1487.8142999999525,1487.8142999999525,1490.1522000000475,2101.0,1490.1522000000475,5.0,1490.156899999857,3.0,18.0,108.0,7.0,1.0,1.2,0.7,Time
,,S37,1,,,anonymized,Serial_Dependence_U,2023.2.3,Win32,60.240963855400565,,,,,,1490.1570999999046,282.0,3.0,1490.1570999999046,282.0,,,,1494.150399999857,1494.6475,1493.6312000000478,1494.1502999999525,1491.1645,1493.6312000000478,1494.6475,1495.1507999999524,1495.1507999999524,1497.8853999998569,1228.0,1497.8853999998569,2.0,1497.8900999999046,3.0,19.0,109.0,23.0,1.0,1.4,0.3,Time
,,S37,1,,,anonymized,Serial_Dependence_U,2023.2.3,Win32,60.240963855400565,,,,,,1497.8902999999525,66.0,3.0,1497.8902999999525,66.0,,,,1501.230899999857,1501.7305999999046,1500.7168999998569,1501.230899999857,1498.881,1500.7167999999524,1501.7305999999046,1502.2307000000476,1502.2307000000476,1504.0852000000475,1348.0,1504.0852000000475,5.0,1504.0897000000475,3.0,20.0,110.0,15.0,1.0,0.8,0.7,Time
,,S37,1,,,anonymized,Serial_Dependence_U,2023.2.3,Win32,60.240963855400565,,,,,,1504.089899999857,43.0,3.0,1504.089899999857,43.0,,,,1508.0640999999046,1508.5637999999524,1507.5515999999047,1508.0640999999046,1505.0807999999524,1507.5515999999047,1508.5637999999524,1509.0637999999524,1509.0637999999524,1510.9523999998569,1617.0,1510.9523999998569,4.0,1510.957,3.0,21.0,111.0,13.0,1.0,1.4,0.3,Time
,,S37,1,,,anonymized,Serial_Dependence_U,2023.2.3,Win32,60.240963855400565,,,,,,1510.9570999999046,252.0,3.0,1510.9572000000478,252.0,,,,1514.7010999999047,1515.197,1514.1847000000478,1514.701,1511.9512999999524,1514.1845999999043,1515.197,1515.697,1515.6970999999046,1517.7182000000478,1717.0,1517.7182000000478,5.0,1517.7227000000478,3.0,22.0,112.0,27.0,1.0,1.2,0.7,Time
,,S37,1,,,anonymized,Serial_Dependence_U,2023.2.3,Win32,60.240963855400565,,,,,,1517.7227999999525,53.0,3.0,1517.722899999857,53.0,,,,1521.663899999857,1522.1662999999523,1521.1512000000478,1521.6637999999523,1518.7137999999522,1521.1512000000478,1522.1662999999523,1522.6635,1522.6635,1524.401399999857,1417.0,1524.4015,3.0,1524.406399999857,3.0,23.0,113.0,8.0,1.0,1.4,0.7,Time
,,S37,1,,,anonymized,Serial_Dependence_U,2023.2.3,Win32,60.240963855400565,,,,,,1524.4065,37.0,3.0,1524.4065999999048,37.0,,,,1528.550899999857,1529.0467000000476,1528.0342000000478,1528.5507999999522,1525.397,1528.0342000000478,1529.0467000000476,1529.550099999905,1529.550099999905,1531.584399999857,1750.0,1531.584399999857,4.0,1531.589,3.0,24.0,114.0,19.0,1.0,1.6,0.7,Time
,,S37,1,,,anonymized,Serial_Dependence_U,2023.2.3,Win32,60.240963855400565,,,,,,1531.5890999999046,232.0,3.0,1531.5892000000476,232.0,,,,1535.163399999857,1535.6632000000477,1534.646899999857,1535.163399999857,1532.5802999999523,1534.6467999999522,1535.6632000000477,1536.1665999999047,1536.1665999999047,1537.650899999857,1200.0,1537.650899999857,4.0,1537.6553999998569,3.0,25.0,115.0,21.0,1.0,1.0,0.3,Time
,,S37,1,,,anonymized,Serial_Dependence_U,2023.2.3,Win32,60.240963855400565,,,,,,1537.6555999999046,306.0,3.0,1537.6555999999046,306.0,,,,1541.034,1541.5297000000478,1540.5172999999522,1541.034,1538.6507000000477,1540.5172999999522,1541.5297000000478,1542.0295999999046,1542.0297000000478,1543.8175999999046,1500.0,1543.8175999999046,5.0,1543.8220999999046,3.0,26.0,116.0,0.0,1.0,0.8,0.3,Time
,,S37,1,,,anonymized,Serial_Dependence_U,2023.2.3,Win32,60.240963855400565,,,,,,1543.8222999999523,174.0,3.0,1543.8222999999523,174.0,,,,1547.2172000000478,1547.7162000000476,1546.7005,1547.2170999999046,1544.829899999857,1546.700399999857,1547.7162000000476,1548.2162000000476,1548.2162000000476,1549.8675,1383.0,1549.8675999999043,5.0,1549.8720999999043,3.0,27.0,117.0,10.0,1.0,0.8,0.3,Time
,,S37,1,,,anonymized,Serial_Dependence_U,2023.2.3,Win32,60.240963855400565,,,,,,1549.8722000000478,139.0,3.0,1549.8722000000478,139.0,,,,1553.813,1554.3127999999524,1553.2997999999525,1553.813,1550.8630999999043,1553.2997000000478,1554.3127999999524,1554.8127000000477,1554.8127999999524,1556.933899999857,1917.0,1556.934,5.0,1556.9387999999524,3.0,28.0,118.0,18.0,1.0,1.4,0.7,Time
,,S37,1,,,anonymized,Serial_Dependence_U,2023.2.3,Win32,60.240963855400565,,,,,,1556.9388999998569,128.0,3.0,1556.9388999998569,128.0,,,,1560.4795,1560.9792999999522,1559.9667999999524,1560.4795,1557.9335,1559.9667999999524,1560.9792999999522,1561.4825999999046,1561.4825999999046,1564.583899999857,2726.0,1564.583899999857,5.0,1564.5885999999043,3.0,29.0,119.0,16.0,1.0,1.0,0.7,Time
,,S37,1,,,anonymized,Serial_Dependence_U,2023.2.3,Win32,60.240963855400565,,,,,,1564.5887000000478,330.0,4.0,1577.0335,330.0,s,12.426299999952334,,1580.9997999999523,1581.495399999857,1580.482899999857,1580.9995999999046,1578.0497000000478,1580.4827999999522,1581.495399999857,1581.9987999999523,1581.998899999857,1584.5497000000478,2283.0,1584.5497000000478,5.0,1584.5542000000478,4.0,0.0,120.0,28.0,1.0,1.4,0.7,Time
,,S37,1,,,anonymized,Serial_Dependence_U,2023.2.3,Win32,60.240963855400565,,,,,,1584.554399999857,272.0,4.0,1584.554899999857,272.0,,,,1587.9315999999046,1588.4285,1587.4122999999524,1587.9315,1585.5497000000478,1587.4122000000475,1588.4285,1588.9285999999047,1588.9285999999047,1589.5620999999046,281.0,1589.5622000000476,1.0,1589.5667000000476,4.0,1.0,121.0,10.0,1.0,0.8,0.3,Time
,,S37,1,,,anonymized,Serial_Dependence_U,2023.2.3,Win32,60.240963855400565,,,,,,1589.5667999999523,49.0,4.0,1589.566899999857,49.0,,,,1593.545399999857,1594.0450999999046,1593.0325999999047,1593.545399999857,1590.5622000000476,1593.0325,1594.0450999999046,1594.5483999998569,1594.5483999998569,1596.5828999998569,1717.0,1596.583,4.0,1596.5875,4.0,2.0,122.0,23.0,1.0,1.4,0.3,Time
,,S37,1,,,anonymized,Serial_Dependence_U,2023.2.3,Win32,60.240963855400565,,,,,,1596.5877000000478,342.0,4.0,1596.5877000000478,342.0,,,,1600.5158999998569,1601.0115999999043,1600.012,1600.5158999998569,1597.5785999999046,1600.011899999857,1601.0115999999043,1601.5115999999043,1601.5115999999043,1603.016,1350.0,1603.016,3.0,1603.0205,4.0,3.0,123.0,8.0,1.0,1.4,0.7,Time
,,S37,1,,,anonymized,Serial_Dependence_U,2023.2.3,Win32,60.240963855400565,,,,,,1603.0207000000478,75.0,4.0,1603.0207999999525,75.0,,,,1607.1952000000476,1607.6947000000478,1606.682399999857,1607.1950999999046,1604.011899999857,1606.6822999999524,1607.6947000000478,1608.1947999999522,1608.1947999999522,1609.7992000000477,1333.0,1609.7992000000477,2.0,1609.804,4.0,4.0,124.0,24.0,1.0,1.6,0.3,Time
,,S37,1,,,anonymized,Serial_Dependence_U,2023.2.3,Win32,60.240963855400565,,,,,,1609.8042000000478,70.0,4.0,1609.8042000000478,70.0,,,,1613.945,1614.4445999999043,1613.4322999999524,1613.944899999857,1610.799099999905,1613.4322999999524,1614.4445999999043,1614.9445999999043,1614.9445999999043,1617.3825999999046,2205.0,1617.3825999999046,5.0,1617.3872999999523,4.0,5.0,125.0,9.0,1.0,1.6,0.7,Time
,,S37,1,,,anonymized,Serial_Dependence_U,2023.2.3,Win32,60.240963855400565,,,,,,1617.3875,266.0,4.0,1617.3875,266.0,,,,1621.5282999999524,1622.0277999999523,1621.0152999999525,1621.5280999999047,1618.382,1621.0152999999525,1622.0277999999523,1622.5277000000476,1622.5277000000476,1624.2655,1617.0,1624.2655,3.0,1624.2700999999047,4.0,6.0,126.0,29.0,1.0,1.6,0.7,Time
,,S37,1,,,anonymized,Serial_Dependence_U,2023.2.3,Win32,60.240963855400565,,,,,,1624.2702000000477,309.0,4.0,1624.2702999999524,309.0,,,,1628.2277999999524,1628.727599999905,1627.7152999999523,1628.2277999999524,1625.277899999857,1627.7152000000476,1628.727599999905,1629.227599999905,1629.227599999905,1630.7820999999046,1250.0,1630.7820999999046,2.0,1630.7865999999046,4.0,7.0,127.0,18.0,1.0,1.4,0.7,Time
,,S37,1,,,anonymized,Serial_Dependence_U,2023.2.3,Win32,60.240963855400565,,,,,,1630.7867000000476,136.0,4.0,1630.7867999999523,136.0,,,,1634.5485,1635.0440999999046,1634.0317000000475,1634.5485,1631.797,1634.0317000000475,1635.0440999999046,1635.5440999999046,1635.5440999999046,1637.0652999999522,1300.0,1637.065399999857,4.0,1637.0697999999522,4.0,8.0,128.0,27.0,1.0,1.2,0.7,Time
,,S37,1,,,anonymized,Serial_Dependence_U,2023.2.3,Win32,60.240963855400565,,,,,,1637.069899999857,170.0,4.0,1637.069899999857,170.0,,,,1640.611,1641.114,1640.0982999999524,1640.611,1638.061,1640.0982000000477,1641.114,1641.6105999999047,1641.6105999999047,1642.865,1083.0,1642.8650999999047,4.0,1642.8695999999047,4.0,9.0,129.0,26.0,1.0,1.0,0.7,Time
,,S37,1,,,anonymized,Serial_Dependence_U,2023.2.3,Win32,60.240963855400565,,,,,,1642.8697999999524,93.0,4.0,1642.8697999999524,93.0,,,,1646.2107999999523,1646.7105,1645.6982999999525,1646.2107000000476,1643.8632999999522,1645.6982000000478,1646.7105,1647.2105,1647.2105,1649.2815999999048,1867.0,1649.2815999999048,5.0,1649.2862000000478,4.0,10.0,130.0,25.0,1.0,0.8,0.7,Time
,,S37,1,,,anonymized,Serial_Dependence_U,2023.2.3,Win32,60.240963855400565,,,,,,1649.2862999999522,183.0,4.0,1649.286399999857,183.0,,,,1653.079899999857,1653.577,1652.5605999999048,1653.0797999999522,1650.294,1652.5605,1653.577,1654.077,1654.077,1657.331399999857,3090.0,1657.331399999857,5.0,1657.3362000000477,4.0,11.0,131.0,12.0,1.0,1.2,0.3,Time
,,S37,1,,,anonymized,Serial_Dependence_U,2023.2.3,Win32,60.240963855400565,,,,,,1657.3362999999524,320.0,4.0,1657.3362999999524,320.0,,,,1660.7297000000476,1661.2267999999524,1660.2145999999047,1660.7297000000476,1658.3477000000478,1660.2145,1661.2267999999524,1661.7267999999524,1661.7267999999524,1663.5647000000477,1600.0,1663.5647999999524,5.0,1663.5692000000477,4.0,12.0,132.0,20.0,1.0,0.8,0.3,Time
,,S37,1,,,anonymized,Serial_Dependence_U,2023.2.3,Win32,60.240963855400565,,,,,,1663.569399999857,220.0,4.0,1663.5695,220.0,,,,1666.9142000000477,1667.4105,1666.396099999905,1666.9142000000477,1664.5628999998569,1666.396099999905,1667.4105,1667.91,1667.91,1669.7145999999047,1441.0,1669.7145999999047,5.0,1669.7192000000475,4.0,13.0,133.0,5.0,1.0,0.8,0.7,Time
,,S37,1,,,anonymized,Serial_Dependence_U,2023.2.3,Win32,60.240963855400565,,,,,,1669.719399999857,176.0,4.0,1669.7195,176.0,,,,1673.0807000000475,1673.5765999999046,1672.5642000000478,1673.0807000000475,1670.7268999998569,1672.5640999999046,1673.5765999999046,1674.0765,1674.0765,1675.7310999999047,1300.0,1675.7310999999047,5.0,1675.7355999999047,4.0,14.0,134.0,15.0,1.0,0.8,0.7,Time
,,S37,1,,,anonymized,Serial_Dependence_U,2023.2.3,Win32,60.240963855400565,,,,,,1675.7357000000477,83.0,4.0,1675.7357999999524,83.0,,,,1679.4767000000477,1679.9762999999523,1678.963899999857,1679.4765999999047,1676.7267999999524,1678.963899999857,1679.9762999999523,1680.4762999999523,1680.4762999999523,1683.5307999999525,1600.0,1683.530899999857,5.0,1683.535399999857,4.0,15.0,135.0,7.0,1.0,1.2,0.7,Time
,,S37,1,,,anonymized,Serial_Dependence_U,2023.2.3,Win32,60.240963855400565,,,,,,1683.5355,276.0,4.0,1683.535599999905,276.0,,,,1687.1290999999046,1687.626099999905,1686.6137000000476,1687.129,1684.5432000000476,1686.6137000000476,1687.626099999905,1688.1262000000477,1688.1262000000477,1689.8307000000475,1550.0,1689.8307000000475,5.0,1689.8355,4.0,16.0,136.0,1.0,1.0,1.0,0.3,Time
,,S37,1,,,anonymized,Serial_Dependence_U,2023.2.3,Win32,60.240963855400565,,,,,,1689.8355999999046,13.0,4.0,1689.8355999999046,13.0,,,,1693.4122000000475,1693.9127999999523,1692.8972000000476,1693.4120999999047,1690.8262999999524,1692.8970999999046,1693.9127999999523,1694.409399999857,1694.409399999857,1695.8457999999523,1165.0,1695.8457999999523,4.0,1695.8502000000476,4.0,17.0,137.0,11.0,1.0,1.0,0.3,Time
,,S37,1,,,anonymized,Serial_Dependence_U,2023.2.3,Win32,60.240963855400565,,,,,,1695.850399999857,156.0,4.0,1695.8505,156.0,,,,1700.0292999999524,1700.525899999857,1699.5137000000475,1700.0292999999524,1696.8462000000477,1699.5135999999047,1700.525899999857,1701.025899999857,1701.026,1722.6965,1317.0,1722.6965,2.0,1722.7012999999524,4.0,18.0,138.0,4.0,1.0,1.6,0.3,Time
,,S37,1,,,anonymized,Serial_Dependence_U,2023.2.3,Win32,60.240963855400565,,,,,,1722.7015,240.0,4.0,1722.7015,240.0,,,,1726.0755,1726.5785999999046,1725.5615,1726.0755,1723.6960999999046,1725.5615,1726.5785999999046,1727.0752000000475,1727.0752000000475,1731.1462000000477,1117.0,1731.1462000000477,5.0,1731.150899999857,4.0,19.0,139.0,0.0,1.0,0.8,0.3,Time
,,S37,1,,,anonymized,Serial_Dependence_U,2023.2.3,Win32,60.240963855400565,,,,,,1731.1510999999043,167.0,4.0,1731.1512000000478,167.0,,,,1735.3292999999524,1735.825,1734.825399999857,1735.3292999999524,1732.1587000000477,1734.8252999999522,1735.825,1736.325,1736.325,1748.7792000000477,1098.0,1748.7792999999524,1.0,1748.7838999998569,4.0,20.0,140.0,14.0,1.0,1.6,0.3,Time
,,S37,1,,,anonymized,Serial_Dependence_U,2023.2.3,Win32,60.240963855400565,,,,,,1748.7840999999046,56.0,4.0,1748.7842000000478,56.0,,,,1752.9287999999524,1753.4245999999046,1752.4122000000475,1752.9287000000477,1749.7748999998569,1752.4122000000475,1753.4245999999046,1753.9245999999046,1753.9245999999046,1756.2458999998569,2084.0,1756.246,5.0,1756.2505999999046,4.0,21.0,141.0,19.0,1.0,1.6,0.7,Time
,,S37,1,,,anonymized,Serial_Dependence_U,2023.2.3,Win32,60.240963855400565,,,,,,1756.2507000000478,130.0,4.0,1756.2507999999525,130.0,,,,1759.841399999857,1760.3445,1759.3287000000478,1759.8412999999523,1757.2615,1759.3287000000478,1760.3445,1760.8410999999046,1760.8410999999046,1766.5287999999523,2000.0,1766.5287999999523,5.0,1766.5335,4.0,22.0,142.0,21.0,1.0,1.0,0.3,Time
,,S37,1,,,anonymized,Serial_Dependence_U,2023.2.3,Win32,60.240963855400565,,,,,,1766.5337000000477,311.0,4.0,1766.5337999999524,311.0,,,,1770.1102999999523,1770.6075,1769.5952000000475,1770.1102000000476,1767.544399999857,1769.5950999999047,1770.6075,1771.1107000000477,1771.1107999999524,1772.9287000000477,1517.0,1772.9287999999524,5.0,1772.9332999999524,4.0,23.0,143.0,16.0,1.0,1.0,0.7,Time
,,S37,1,,,anonymized,Serial_Dependence_U,2023.2.3,Win32,60.240963855400565,,,,,,1772.9333999998569,90.0,4.0,1772.9335,90.0,,,,1776.691,1777.194,1776.178399999857,1776.691,1773.9282000000478,1776.1782999999523,1777.194099999905,1777.6907000000476,1777.6907000000476,1779.2285,1283.0,1779.2285,4.0,1779.233,4.0,24.0,144.0,17.0,1.0,1.2,0.7,Time
,,S37,1,,,anonymized,Serial_Dependence_U,2023.2.3,Win32,60.240963855400565,,,,,,1779.2332000000476,280.0,4.0,1779.2332000000476,280.0,,,,1783.2102000000475,1783.7072000000478,1782.7075,1783.2100999999047,1780.240899999857,1782.7075,1783.7072000000478,1784.2070999999046,1784.2072000000478,1786.1450999999047,1650.0,1786.1452000000477,4.0,1786.1498999998569,4.0,25.0,145.0,3.0,1.0,1.4,0.3,Time
,,S37,1,,,anonymized,Serial_Dependence_U,2023.2.3,Win32,60.240963855400565,,,,,,1786.15,332.0,4.0,1786.1500999999046,332.0,,,,1789.924099999905,1790.4235999999046,1789.4115,1789.924,1787.1407000000477,1789.4115,1790.4237000000478,1790.9237999999525,1790.9237999999525,1792.6447999999525,1433.0,1792.6447999999525,4.0,1792.6492999999523,4.0,26.0,146.0,2.0,1.0,1.2,0.3,Time
,,S37,1,,,anonymized,Serial_Dependence_U,2023.2.3,Win32,60.240963855400565,,,,,,1792.6495,336.0,4.0,1792.6495,336.0,,,,1796.4270999999046,1796.9235,1795.9112999999522,1796.4270999999046,1793.6405,1795.9112999999522,1796.9235,1797.4235,1797.4235,1799.311399999857,1367.0,1799.311399999857,4.0,1799.315899999857,4.0,27.0,147.0,22.0,1.0,1.2,0.3,Time
,,S37,1,,,anonymized,Serial_Dependence_U,2023.2.3,Win32,60.240963855400565,,,,,,1799.3160999999047,335.0,4.0,1799.3162000000475,335.0,,,,1802.8775999999043,1803.373299999952,1802.3608999998569,1802.8775,1800.3110999999046,1802.3607999999524,1803.373299999952,1803.873399999857,1803.873399999857,1806.827700000048,1233.0,1806.827700000048,4.0,1806.8325999999047,4.0,28.0,148.0,6.0,1.0,1.0,0.7,Time
,,S37,1,,,anonymized,Serial_Dependence_U,2023.2.3,Win32,60.240963855400565,,,,,,1806.832700000048,192.0,4.0,1806.832700000048,192.0,,,,1810.794200000048,1811.289899999857,1810.292700000048,1810.7940999999048,1807.8235,1810.292700000048,1811.289899999857,1811.7897999999525,1811.7897999999525,1813.344399999857,1435.0,1813.344399999857,3.0,1813.348899999857,4.0,29.0,149.0,13.0,1.0,1.4,0.3,Time
,,S37,1,,,anonymized,Serial_Dependence_U,2023.2.3,Win32,60.240963855400565,,,,,,1813.3490999999049,138.0,5.0,1815.839899999857,138.0,s,2.472500000000082,,1819.623299999952,1820.123,1819.1105999999047,1819.623299999952,1816.844,1819.1105999999047,1820.123,1820.622899999857,1820.623,1821.9775,1201.0,1821.9775,3.0,1821.982,5.0,0.0,150.0,12.0,1.0,1.2,0.3,Time
,,S37,1,,,anonymized,Serial_Dependence_U,2023.2.3,Win32,60.240963855400565,,,,,,1821.982099999905,206.0,5.0,1821.983,206.0,,,,1826.1397999999524,1826.639399999857,1825.6255999999048,1826.1397999999524,1822.989899999857,1825.6255,1826.6395,1827.1395,1827.1395,1829.3775,667.0,1829.3775,1.0,1829.382200000048,5.0,1.0,151.0,19.0,1.0,1.6,0.7,Time
,,S37,1,,,anonymized,Serial_Dependence_U,2023.2.3,Win32,60.240963855400565,,,,,,1829.382299999952,254.0,5.0,1829.382399999857,254.0,,,,1833.159599999905,1833.655899999857,1832.643700000048,1833.159599999905,1830.3757999999525,1832.643700000048,1833.656,1834.155899999857,1834.155899999857,1837.4437999999525,217.0,1837.4437999999525,1.0,1837.448700000048,5.0,2.0,152.0,2.0,1.0,1.2,0.3,Time
,,S37,1,,,anonymized,Serial_Dependence_U,2023.2.3,Win32,60.240963855400565,,,,,,1837.4487999999524,331.0,5.0,1837.4488999998568,331.0,,,,1840.9895,1841.4890999999047,1840.477,1840.989399999857,1838.4395,1840.4768999998569,1841.4890999999047,1841.9890999999047,1841.9890999999047,1844.7435999999047,1301.0,1844.7435999999047,5.0,1844.748399999857,5.0,3.0,153.0,6.0,1.0,1.0,0.7,Time
,,S37,1,,,anonymized,Serial_Dependence_U,2023.2.3,Win32,60.240963855400565,,,,,,1844.7485,18.0,5.0,1844.7485999999049,18.0,,,,1848.325700000048,1848.822200000048,1847.81,1848.325700000048,1845.742,1847.809899999857,1848.822200000048,1849.322200000048,1849.3222999999523,1849.605899999857,151.0,1849.606,1.0,1849.6105,5.0,4.0,154.0,21.0,1.0,1.0,0.3,Time
,,S37,1,,,anonymized,Serial_Dependence_U,2023.2.3,Win32,60.240963855400565,,,,,,1849.6105999999047,222.0,5.0,1849.610700000048,222.0,,,,1853.359700000048,1853.8555,1852.843200000048,1853.3595999999047,1850.6097999999524,1852.8430999999048,1853.8555,1854.355399999857,1854.3555,1856.6602999999525,2034.0,1856.6602999999525,5.0,1856.665,5.0,5.0,155.0,7.0,1.0,1.2,0.7,Time
,,S37,1,,,anonymized,Serial_Dependence_U,2023.2.3,Win32,60.240963855400565,,,,,,1856.665099999905,67.0,5.0,1856.665200000048,67.0,,,,1860.392299999952,1860.888700000048,1859.889,1860.392299999952,1857.658200000048,1859.8887999999524,1860.888700000048,1861.3885999999047,1861.3885999999047,1863.21,1617.0,1863.21,5.0,1863.214399999857,5.0,6.0,156.0,27.0,1.0,1.2,0.7,Time
,,S37,1,,,anonymized,Serial_Dependence_U,2023.2.3,Win32,60.240963855400565,,,,,,1863.2145,191.0,5.0,1863.2145999999047,191.0,,,,1866.7555,1867.255200000048,1866.242799999952,1866.755399999857,1864.2095,1866.242799999952,1867.255200000048,1867.7585999999048,1867.7585999999048,1869.8762999999524,1933.0,1869.8762999999524,5.0,1869.8808999998569,5.0,7.0,157.0,26.0,1.0,1.0,0.7,Time
,,S37,1,,,anonymized,Serial_Dependence_U,2023.2.3,Win32,60.240963855400565,,,,,,1869.881,296.0,5.0,1869.8810999999048,296.0,,,,1873.2585999999048,1873.758399999857,1872.7425999999043,1873.2585,1870.875899999857,1872.7425,1873.758399999857,1874.254899999857,1874.2550999999048,1882.409399999857,1097.0,1882.409399999857,5.0,1882.4140999999047,5.0,8.0,158.0,0.0,1.0,0.8,0.3,Time
,,S37,1,,,anonymized,Serial_Dependence_U,2023.2.3,Win32,60.240963855400565,,,,,,1882.4142999999524,150.0,5.0,1882.4142999999524,150.0,,,,1886.555,1887.054700000048,1886.0422999999523,1886.554899999857,1883.4090999999048,1886.0422999999523,1887.054700000048,1887.5580999999047,1887.5580999999047,1889.625899999857,1733.0,1889.625899999857,4.0,1889.630700000048,5.0,9.0,159.0,29.0,1.0,1.6,0.7,Time
,,S37,1,,,anonymized,Serial_Dependence_U,2023.2.3,Win32,60.240963855400565,,,,,,1889.6307999999524,221.0,5.0,1889.6307999999524,221.0,,,,1893.174200000048,1893.6710999999048,1892.6587999999524,1893.174099999905,1890.6255,1892.6585999999047,1893.671200000048,1894.171200000048,1894.171200000048,1898.675700000048,1552.0,1898.675700000048,5.0,1898.6805,5.0,10.0,160.0,16.0,1.0,1.0,0.7,Time
,,S37,1,,,anonymized,Serial_Dependence_U,2023.2.3,Win32,60.240963855400565,,,,,,1898.6805999999049,347.0,5.0,1898.680700000048,347.0,,,,1902.6212999999525,1903.1208999998569,1902.108799999952,1902.6212999999525,1899.675200000048,1902.108700000048,1903.1208999998569,1903.624399999857,1903.624399999857,1911.3750999999047,2062.0,1911.3750999999047,5.0,1911.38,5.0,11.0,161.0,18.0,1.0,1.4,0.7,Time
,,S37,1,,,anonymized,Serial_Dependence_U,2023.2.3,Win32,60.240963855400565,,,,,,1911.3800999999048,204.0,5.0,1911.3800999999048,204.0,,,,1914.724399999857,1915.220700000048,1914.2042999999524,1914.7242999999523,1912.3710999999048,1914.2042999999524,1915.220700000048,1915.720700000048,1915.720700000048,1918.4750999999048,274.0,1918.4750999999048,1.0,1918.4795999999048,5.0,12.0,162.0,15.0,1.0,0.8,0.7,Time
,,S37,1,,,anonymized,Serial_Dependence_U,2023.2.3,Win32,60.240963855400565,,,,,,1918.479700000048,342.0,5.0,1918.479700000048,342.0,,,,1922.6540999999047,1923.1537999999523,1922.1410999999048,1922.6540999999047,1919.4735,1922.141,1923.1537999999523,1923.6565999999048,1923.656700000048,1928.8415999999047,568.0,1928.8415999999047,1.0,1928.846200000048,5.0,13.0,163.0,14.0,1.0,1.6,0.3,Time
,,S37,1,,,anonymized,Serial_Dependence_U,2023.2.3,Win32,60.240963855400565,,,,,,1928.8463999998569,338.0,5.0,1928.8465,338.0,,,,1932.2065999999047,1932.7035999999048,1931.691200000048,1932.2065999999047,1929.8565999999048,1931.691200000048,1932.7035999999048,1933.2035999999048,1933.2035999999048,1946.6035,1744.0,1946.6035,5.0,1946.608200000048,5.0,14.0,164.0,25.0,1.0,0.8,0.7,Time
,,S37,1,,,anonymized,Serial_Dependence_U,2023.2.3,Win32,60.240963855400565,,,,,,1946.608399999857,177.0,5.0,1946.608399999857,177.0,,,,1950.5867999999523,1951.0865,1950.0740999999043,1950.5867999999523,1947.6075,1950.0740999999043,1951.0865,1951.589799999952,1951.589799999952,1979.6235999999049,1233.0,1979.6235999999049,2.0,1979.6282999999523,5.0,15.0,165.0,23.0,1.0,1.4,0.3,Time
,,S37,1,,,anonymized,Serial_Dependence_U,2023.2.3,Win32,60.240963855400565,,,,,,1979.6285,318.0,5.0,1979.6285,318.0,,,,1983.623299999952,1984.1223999998567,1983.105899999857,1983.6232000000475,1980.64,1983.105899999857,1984.1223999998567,1984.619,1984.619,1998.1065,1897.0,1998.1065,5.0,1998.1112999999525,5.0,16.0,166.0,13.0,1.0,1.4,0.3,Time
,,S37,1,,,anonymized,Serial_Dependence_U,2023.2.3,Win32,60.240963855400565,,,,,,1998.1115,124.0,5.0,1998.1115,124.0,,,,2001.4895999999048,2001.9852999999523,2000.9688999998568,2001.4895,1999.1062999999524,2000.9688999998568,2001.9852999999523,2002.485200000048,2002.4852999999523,2005.0732999999525,1160.0,2005.0732999999525,5.0,2005.078,5.0,17.0,167.0,10.0,1.0,0.8,0.3,Time
,,S37,1,,,anonymized,Serial_Dependence_U,2023.2.3,Win32,60.240963855400565,,,,,,2005.078200000048,302.0,5.0,2005.078200000048,302.0,,,,2008.455899999857,2008.9517999999523,2007.9393999998567,2008.455899999857,2006.0710999999048,2007.9393999998567,2008.9517999999523,2009.451700000048,2009.451700000048,2011.323,950.0,2011.323,4.0,2011.3275999999048,5.0,18.0,168.0,20.0,1.0,0.8,0.3,Time
,,S37,1,,,anonymized,Serial_Dependence_U,2023.2.3,Win32,60.240963855400565,,,,,,2011.3275999999048,122.0,5.0,2011.327700000048,122.0,,,,2014.901799999952,2015.4015999999044,2014.3892999999523,2014.901799999952,2012.318700000048,2014.389200000048,2015.401700000048,2015.9015999999044,2015.9015999999044,2018.6727999999523,785.0,2018.6727999999523,2.0,2018.6775,5.0,19.0,169.0,1.0,1.0,1.0,0.3,Time
,,S37,1,,,anonymized,Serial_Dependence_U,2023.2.3,Win32,60.240963855400565,,,,,,2018.677700000048,298.0,5.0,2018.6777999999524,298.0,,,,2022.035,2022.534700000048,2021.5225,2022.035,2019.685,2021.5225,2022.5347999999524,2023.034700000048,2023.0347999999524,2025.5392999999524,1530.0,2025.539399999857,5.0,2025.543899999857,5.0,20.0,170.0,5.0,1.0,0.8,0.7,Time
,,S37,1,,,anonymized,Serial_Dependence_U,2023.2.3,Win32,60.240963855400565,,,,,,2025.544,185.0,5.0,2025.5440999999048,185.0,,,,2029.484899999857,2029.9845999999045,2028.972399999857,2029.484799999952,2026.538899999857,2028.972399999857,2029.9845999999045,2030.4845999999045,2030.4845999999045,2033.889,1917.0,2033.889,5.0,2033.893700000048,5.0,21.0,171.0,8.0,1.0,1.4,0.7,Time
,,S37,1,,,anonymized,Serial_Dependence_U,2023.2.3,Win32,60.240963855400565,,,,,,2033.893899999857,119.0,5.0,2033.894,119.0,,,,2037.6205,2038.1210999999048,2037.118,2037.6203999998568,2034.884700000048,2037.118,2038.1210999999048,2038.6177999999525,2038.6177999999525,2041.238799999952,1583.0,2041.238799999952,5.0,2041.2437000000475,5.0,22.0,172.0,17.0,1.0,1.2,0.7,Time
,,S37,1,,,anonymized,Serial_Dependence_U,2023.2.3,Win32,60.240963855400565,,,,,,2041.243799999952,85.0,5.0,2041.243799999952,85.0,,,,2044.8177999999525,2045.3175,2044.3052999999525,2044.817700000048,2042.237,2044.305200000048,2045.3175,2045.8208999998567,2045.821,2047.8055999999049,1150.0,2047.8055999999049,4.0,2047.81,5.0,23.0,173.0,11.0,1.0,1.0,0.3,Time
,,S37,1,,,anonymized,Serial_Dependence_U,2023.2.3,Win32,60.240963855400565,,,,,,2047.810200000048,282.0,5.0,2047.810299999952,282.0,,,,2051.7700999999047,2052.2673999998574,2051.2677999999523,2051.7700000000004,2048.805099999905,2051.267599999905,2052.2673999998574,2052.770700000048,2052.7707999999525,2055.738700000048,2098.0,2055.738700000048,5.0,2055.743399999857,5.0,24.0,174.0,3.0,1.0,1.4,0.3,Time
,,S37,1,,,anonymized,Serial_Dependence_U,2023.2.3,Win32,60.240963855400565,,,,,,2055.7435999999047,77.0,5.0,2055.7435999999047,77.0,,,,2059.884200000048,2060.3837999999528,2059.371599999905,2059.8840999999047,2056.7380000000003,2059.371599999905,2060.3837999999528,2060.887200000048,2060.887200000048,2062.9385,1217.0,2062.938599999905,2.0,2062.943200000048,5.0,25.0,175.0,9.0,1.0,1.6,0.7,Time
,,S37,1,,,anonymized,Serial_Dependence_U,2023.2.3,Win32,60.240963855400565,,,,,,2062.9432999999526,46.0,5.0,2062.9433999998573,46.0,,,,2067.1172999999526,2067.617099999905,2066.604700000048,2067.1172999999526,2063.938099999905,2066.604599999905,2067.617099999905,2068.117,2068.117099999905,2096.587399999857,1167.0,2096.587399999857,2.0,2096.592200000048,5.0,26.0,176.0,4.0,1.0,1.6,0.3,Time
,,S37,1,,,anonymized,Serial_Dependence_U,2023.2.3,Win32,60.240963855400565,,,,,,2096.592399999857,30.0,5.0,2096.592399999857,30.0,,,,2100.533099999905,2101.0327999999527,2100.0205,2100.533099999905,2097.5872999999524,2100.020399999857,2101.0327999999527,2101.5328999998574,2101.5328999998574,2103.704,1417.0,2103.704,3.0,2103.708700000048,5.0,27.0,177.0,28.0,1.0,1.4,0.7,Time
,,S37,1,,,anonymized,Serial_Dependence_U,2023.2.3,Win32,60.240963855400565,,,,,,2103.7087999999526,14.0,5.0,2103.7088999998573,14.0,,,,2107.8830000000003,2108.386200000048,2107.370399999857,2107.8828999998573,2104.699599999905,2107.3702999999527,2108.386200000048,2108.882599999905,2108.882599999905,2110.537099999905,1384.0,2110.537099999905,2.0,2110.541700000048,5.0,28.0,178.0,24.0,1.0,1.6,0.3,Time
,,S37,1,,,anonymized,Serial_Dependence_U,2023.2.3,Win32,60.240963855400565,,,,,,2110.5417999999527,305.0,5.0,2110.5418999998574,305.0,,,,2114.316200000048,2114.815799999953,2113.8035999999047,2114.316099999905,2111.535700000048,2113.8035999999047,2114.815799999953,2115.3158999998573,2115.3158999998573,2117.137099999905,1467.0,2117.137099999905,4.0,2117.1415,5.0,29.0,179.0,22.0,1.0,1.2,0.3,Time
,,S37,1,,,anonymized,Serial_Dependence_U,2023.2.3,Win32,60.240963855400565,,,,,,2117.141700000048,320.0,6.0,2121.3035000000004,320.0,s,4.134999999999764,,2124.882599999905,2125.3822999999525,2124.3698999998574,2124.8825,2122.3017999999524,2124.3698999998574,2125.3822999999525,2125.8822999999525,2125.8822999999525,2127.370399999857,1084.0,2127.370399999857,4.0,2127.3747999999528,6.0,0.0,180.0,21.0,1.0,1.0,0.3,Time
,,S37,1,,,anonymized,Serial_Dependence_U,2023.2.3,Win32,60.240963855400565,,,,,,2127.3750000000005,26.0,6.0,2127.3755,26.0,,,,2130.749099999905,2131.248799999953,2130.236399999857,2130.7490000000003,2128.3697999999526,2130.236399999857,2131.248799999953,2131.751700000048,2131.751700000048,2132.8035000000004,800.0,2132.8035000000004,3.0,2132.807899999857,6.0,1.0,181.0,20.0,1.0,0.8,0.3,Time
,,S37,1,,,anonymized,Serial_Dependence_U,2023.2.3,Win32,60.240963855400565,,,,,,2132.8080999999047,12.0,6.0,2132.8080999999047,12.0,,,,2136.782299999953,2137.282,2136.269599999905,2136.782299999953,2133.8028999998573,2136.2695000000003,2137.282,2137.781899999857,2137.781899999857,2139.503299999953,1284.0,2139.503299999953,2.0,2139.5078999998573,6.0,2.0,182.0,23.0,1.0,1.4,0.3,Time
,,S37,1,,,anonymized,Serial_Dependence_U,2023.2.3,Win32,60.240963855400565,,,,,,2139.5080000000003,88.0,6.0,2139.5080000000003,88.0,,,,2143.285399999857,2143.7817999999525,2142.769599999905,2143.285399999857,2140.502899999857,2142.769599999905,2143.7817999999525,2144.2817999999525,2144.281899999857,2146.503200000048,1634.0,2146.503200000048,5.0,2146.5080000000003,6.0,3.0,183.0,12.0,1.0,1.2,0.3,Time
,,S37,1,,,anonymized,Serial_Dependence_U,2023.2.3,Win32,60.240963855400565,,,,,,2146.508099999905,283.0,6.0,2146.508099999905,283.0,,,,2150.248700000048,2150.7482999999525,2149.7358999998573,2150.248599999905,2147.5013999998573,2149.7358999998573,2150.7482999999525,2151.2517999999527,2151.2517999999527,2153.5360999999048,1567.0,2153.5360999999048,5.0,2153.5405999999048,6.0,4.0,184.0,7.0,1.0,1.2,0.7,Time
,,S37,1,,,anonymized,Serial_Dependence_U,2023.2.3,Win32,60.240963855400565,,,,,,2153.5407999999525,100.0,6.0,2153.5407999999525,100.0,,,,2157.685700000048,2158.181399999857,2157.169099999905,2157.685700000048,2154.5357999999524,2157.169099999905,2158.181399999857,2158.6815,2158.6815,2160.768700000048,1616.0,2160.768700000048,3.0,2160.7735,6.0,5.0,185.0,29.0,1.0,1.6,0.7,Time
,,S37,1,,,anonymized,Serial_Dependence_U,2023.2.3,Win32,60.240963855400565,,,,,,2160.773599999905,100.0,6.0,2160.773599999905,100.0,,,,2164.1522999999524,2164.648,2163.635700000048,2164.1522999999524,2161.769099999905,2163.635700000048,2164.648,2165.148,2165.148,2166.835899999857,1067.0,2166.835899999857,5.0,2166.8405,6.0,6.0,186.0,10.0,1.0,0.8,0.3,Time
,,S37,1,,,anonymized,Serial_Dependence_U,2023.2.3,Win32,60.240963855400565,,,,,,2166.840599999905,185.0,6.0,2166.840599999905,185.0,,,,2171.0027999999525,2171.497700000048,2170.502399999857,2171.0027999999525,2167.8315,2170.502399999857,2171.4977999999523,2171.9977999999523,2171.9977999999523,2174.202700000048,1567.0,2174.202700000048,3.0,2174.2072999999527,6.0,7.0,187.0,4.0,1.0,1.6,0.3,Time
,,S37,1,,,anonymized,Serial_Dependence_U,2023.2.3,Win32,60.240963855400565,,,,,,2174.2075000000004,256.0,6.0,2174.2075000000004,256.0,,,,2178.181200000048,2178.681,2177.668700000048,2178.181200000048,2175.198099999905,2177.668599999905,2178.681,2179.1837999999525,2179.1837999999525,2181.2522999999524,1517.0,2181.252399999857,4.0,2181.2567999999524,6.0,8.0,188.0,3.0,1.0,1.4,0.3,Time
,,S37,1,,,anonymized,Serial_Dependence_U,2023.2.3,Win32,60.240963855400565,,,,,,2181.256899999857,76.0,6.0,2181.256899999857,76.0,,,,2184.8350999999047,2185.330899999857,2184.3185000000003,2184.8350999999047,2182.247899999857,2184.3183999998573,2185.330899999857,2185.830700000048,2185.8307999999524,2187.802,1217.0,2187.802099999905,4.0,2187.806599999905,6.0,9.0,189.0,11.0,1.0,1.0,0.3,Time
,,S37,1,,,anonymized,Serial_Dependence_U,2023.2.3,Win32,60.240963855400565,,,,,,2187.806700000048,67.0,6.0,2187.806700000048,67.0,,,,2191.784200000048,2192.280700000048,2191.2682999999524,2191.784200000048,2188.797700000048,2191.2680999999047,2192.280700000048,2192.780700000048,2192.780700000048,2194.2682999999524,1260.0,2194.268399999857,2.0,2194.273200000048,6.0,10.0,190.0,13.0,1.0,1.4,0.3,Time
,,S37,1,,,anonymized,Serial_Dependence_U,2023.2.3,Win32,60.240963855400565,,,,,,2194.273200000048,203.0,6.0,2194.273399999857,203.0,,,,2198.418200000048,2198.9137999999525,2197.9013999998574,2198.418099999905,2195.264200000048,2197.9013999998574,2198.9137999999525,2199.417299999953,2199.417299999953,2201.851700000048,1700.0,2201.851700000048,4.0,2201.856200000048,6.0,11.0,191.0,19.0,1.0,1.6,0.7,Time
,,S37,1,,,anonymized,Serial_Dependence_U,2023.2.3,Win32,60.240963855400565,,,,,,2201.8563999998573,49.0,6.0,2201.8563999998573,49.0,,,,2205.614,2206.113700000048,2205.0998999998574,2205.614,2202.864,2205.0998999998574,2206.113700000048,2206.613700000048,2206.613700000048,2208.235,1418.0,2208.235,4.0,2208.239599999905,6.0,12.0,192.0,27.0,1.0,1.2,0.7,Time
,,S37,1,,,anonymized,Serial_Dependence_U,2023.2.3,Win32,60.240963855400565,,,,,,2208.2397999999525,344.0,6.0,2208.239899999857,344.0,,,,2212.401099999905,2212.8967999999527,2211.8837999999528,2212.4010000000003,2209.247200000048,2211.8837999999528,2212.8967999999527,2213.400200000048,2213.400200000048,2215.9678999998573,1951.0,2215.9680000000003,4.0,2215.9723999998573,6.0,13.0,193.0,9.0,1.0,1.6,0.7,Time
,,S37,1,,,anonymized,Serial_Dependence_U,2023.2.3,Win32,60.240963855400565,,,,,,2215.972700000048,5.0,6.0,2215.972700000048,5.0,,,,2220.167700000048,2220.6632999999524,2219.6495000000004,2220.1675999999047,2216.984099999905,2219.6495000000004,2220.6632999999524,2221.1632999999524,2221.1632999999524,2223.267700000048,1683.0,2223.2677999999523,4.0,2223.2725,6.0,14.0,194.0,14.0,1.0,1.6,0.3,Time
,,S37,1,,,anonymized,Serial_Dependence_U,2023.2.3,Win32,60.240963855400565,,,,,,2223.2725999999047,200.0,6.0,2223.272700000048,200.0,,,,2227.050700000048,2227.5465000000004,2226.534099999905,2227.050599999905,2224.2635,2226.534099999905,2227.5465000000004,2228.0463999998574,2228.0465000000004,2229.317700000048,1150.0,2229.317700000048,3.0,2229.322099999905,6.0,15.0,195.0,22.0,1.0,1.2,0.3,Time
,,S37,1,,,anonymized,Serial_Dependence_U,2023.2.3,Win32,60.240963855400565,,,,,,2229.3222999999525,134.0,6.0,2229.322399999857,134.0,,,,2232.896599999905,2233.399700000048,2232.3840999999047,2232.896599999905,2230.3158999998573,2232.384,2233.399700000048,2233.8962999999526,2233.8963999998573,2235.434099999905,1322.0,2235.434200000048,5.0,2235.438700000048,6.0,16.0,196.0,1.0,1.0,1.0,0.3,Time
,,S37,1,,,anonymized,Serial_Dependence_U,2023.2.3,Win32,60.240963855400565,,,,,,2235.4388999998573,279.0,6.0,2235.4388999998573,279.0,,,,2239.200200000048,2239.696200000048,2238.684099999905,2239.200200000048,2236.4497999999526,2238.684,2239.696200000048,2240.196099999905,2240.196099999905,2241.734099999905,1000.0,2241.734099999905,2.0,2241.738700000048,6.0,17.0,197.0,17.0,1.0,1.2,0.7,Time
,,S37,1,,,anonymized,Serial_Dependence_U,2023.2.3,Win32,60.240963855400565,,,,,,2241.7387999999523,133.0,6.0,2241.738899999857,133.0,,,,2245.6830999999047,2246.1827999999527,2245.1668999998574,2245.6830999999047,2242.729799999953,2245.1668999998574,2246.1827999999527,2246.6792999999525,2246.679399999857,2248.883899999857,1417.0,2248.883899999857,3.0,2248.8885999999047,6.0,18.0,198.0,18.0,1.0,1.4,0.7,Time
,,S37,1,,,anonymized,Serial_Dependence_U,2023.2.3,Win32,60.240963855400565,,,,,,2248.888700000048,111.0,6.0,2248.8887999999524,111.0,,,,2252.8295000000003,2253.329200000048,2252.3127999999524,2252.8295000000003,2249.8795000000005,2252.3127999999524,2253.329200000048,2253.829200000048,2253.829200000048,2256.000700000048,1668.0,2256.0007999999525,4.0,2256.005200000048,6.0,19.0,199.0,8.0,1.0,1.4,0.7,Time
,,S37,1,,,anonymized,Serial_Dependence_U,2023.2.3,Win32,60.240963855400565,,,,,,2256.0052999999525,125.0,6.0,2256.005399999857,125.0,,,,2259.779399999857,2260.2825000000003,2259.266599999905,2259.779399999857,2257.0000000000005,2259.266599999905,2260.2825000000003,2260.7790000000005,2260.7790000000005,2262.2668999998573,1317.0,2262.2670000000003,4.0,2262.2715000000003,6.0,20.0,200.0,2.0,1.0,1.2,0.3,Time
,,S37,1,,,anonymized,Serial_Dependence_U,2023.2.3,Win32,60.240963855400565,,,,,,2262.2715000000003,332.0,6.0,2262.271700000048,332.0,,,,2265.8125000000005,2266.3155,2265.2997999999525,2265.812399999857,2263.2665,2265.2997999999525,2266.3155,2266.812200000048,2266.812200000048,2268.967200000048,1250.0,2268.967200000048,4.0,2268.972,6.0,21.0,201.0,16.0,1.0,1.0,0.7,Time
,,S37,1,,,anonymized,Serial_Dependence_U,2023.2.3,Win32,60.240963855400565,,,,,,2268.972,112.0,6.0,2268.972099999905,112.0,,,,2272.312399999857,2272.8120000000004,2271.7983999998573,2272.312399999857,2269.9662999999528,2271.7982999999526,2272.8120000000004,2273.3120000000004,2273.3120000000004,2274.8163999998574,1235.0,2274.8163999998574,5.0,2274.8210000000004,6.0,22.0,202.0,15.0,1.0,0.8,0.7,Time
,,S37,1,,,anonymized,Serial_Dependence_U,2023.2.3,Win32,60.240963855400565,,,,,,2274.821200000048,45.0,6.0,2274.8212999999528,45.0,,,,2278.1995,2278.6985999999047,2277.682899999857,2278.199399999857,2275.816099999905,2277.682899999857,2278.6985999999047,2279.195200000048,2279.195299999953,2280.8665,1083.0,2280.8665,5.0,2280.871,6.0,23.0,203.0,0.0,1.0,0.8,0.3,Time
,,S37,1,,,anonymized,Serial_Dependence_U,2023.2.3,Win32,60.240963855400565,,,,,,2280.871099999905,102.0,6.0,2280.871099999905,102.0,,,,2284.4147999999527,2284.911799999953,2283.8992999999527,2284.414700000048,2281.8660999999047,2283.8992999999527,2284.911799999953,2285.411799999953,2285.411799999953,2288.0665000000004,1418.0,2288.0665000000004,5.0,2288.0710000000004,6.0,24.0,204.0,6.0,1.0,1.0,0.7,Time
,,S37,1,,,anonymized,Serial_Dependence_U,2023.2.3,Win32,60.240963855400565,,,,,,2288.071099999905,39.0,6.0,2288.071099999905,39.0,,,,2291.4118999998573,2291.9115,2290.899200000048,2291.411799999953,2289.0652999999525,2290.899099999905,2291.9115,2292.411599999905,2292.411599999905,2294.3327999999524,1134.0,2294.332899999857,5.0,2294.3372999999524,6.0,25.0,205.0,25.0,1.0,0.8,0.7,Time
,,S37,1,,,anonymized,Serial_Dependence_U,2023.2.3,Win32,60.240963855400565,,,,,,2294.3375,42.0,6.0,2294.3375,42.0,,,,2297.8950999999047,2298.394700000048,2297.3820999999048,2297.8950999999047,2295.3450000000003,2297.3820999999048,2298.394700000048,2298.894700000048,2298.894700000048,2300.665899999857,1200.0,2300.665899999857,4.0,2300.670700000048,6.0,26.0,206.0,26.0,1.0,1.0,0.7,Time
,,S37,1,,,anonymized,Serial_Dependence_U,2023.2.3,Win32,60.240963855400565,,,,,,2300.6707999999526,323.0,6.0,2300.6707999999526,323.0,,,,2304.6320999999048,2305.1283999998573,2304.1145,2304.6320999999048,2301.678200000048,2304.114399999857,2305.1283999998573,2305.6315000000004,2305.6315000000004,2307.717,1501.0,2307.717,4.0,2307.721399999857,6.0,27.0,207.0,28.0,1.0,1.4,0.7,Time
,,S37,1,,,anonymized,Serial_Dependence_U,2023.2.3,Win32,60.240963855400565,,,,,,2307.721599999905,248.0,6.0,2307.721700000048,248.0,,,,2311.081399999857,2311.5777999999527,2310.5655,2311.081399999857,2308.7335000000003,2310.5655,2311.5777999999527,2312.081099999905,2312.081099999905,2314.298899999857,1616.0,2314.298899999857,5.0,2314.303399999857,6.0,28.0,208.0,5.0,1.0,0.8,0.7,Time
,,S37,1,,,anonymized,Serial_Dependence_U,2023.2.3,Win32,60.240963855400565,,,,,,2314.3035000000004,29.0,6.0,2314.3035999999047,29.0,,,,2318.497099999905,2318.994200000048,2317.9820000000004,2318.4970000000003,2315.3137999999526,2317.981899999857,2318.994200000048,2319.4942999999525,2319.4942999999525,2321.282099999905,1268.0,2321.282099999905,2.0,2321.2870000000003,6.0,29.0,209.0,24.0,1.0,1.6,0.3,Time
,,S37,1,,,anonymized,Serial_Dependence_U,2023.2.3,Win32,60.240963855400565,,,,,,2321.287099999905,303.0,7.0,2323.144200000048,303.0,s,1.8456000001428947,,2326.731599999905,2327.227399999857,2326.215,2326.731599999905,2324.1443999998573,2326.215,2327.227399999857,2327.727399999857,2327.727399999857,2329.6322999999525,1408.0,2329.6322999999525,5.0,2329.6367999999525,7.0,0.0,210.0,1.0,1.0,1.0,0.3,Time
,,S37,1,,,anonymized,Serial_Dependence_U,2023.2.3,Win32,60.240963855400565,,,,,,2329.636899999857,292.0,7.0,2329.6373999998573,292.0,,,,2333.614,2334.110599999905,2333.096899999857,2333.614,2330.6275999999048,2333.0967999999525,2334.110599999905,2334.6105,2334.6105,2336.0155999999047,1384.0,2336.0155999999047,3.0,2336.0202999999524,7.0,1.0,211.0,13.0,1.0,1.4,0.3,Time
,,S37,1,,,anonymized,Serial_Dependence_U,2023.2.3,Win32,60.240963855400565,,,,,,2336.0205,170.0,7.0,2336.0205,170.0,,,,2339.394099999905,2339.8937999999525,2338.881399999857,2339.394,2337.010700000048,2338.8812999999527,2339.8937999999525,2340.3937999999525,2340.3937999999525,2341.4485000000004,950.0,2341.4485000000004,4.0,2341.452899999857,7.0,2.0,212.0,0.0,1.0,0.8,0.3,Time
,,S37,1,,,anonymized,Serial_Dependence_U,2023.2.3,Win32,60.240963855400565,,,,,,2341.4530999999047,80.0,7.0,2341.453200000048,80.0,,,,2345.0438999998573,2345.543599999905,2344.5312999999524,2345.0438999998573,2342.460599999905,2344.5312999999524,2345.543599999905,2346.043599999905,2346.043599999905,2347.048599999905,984.0,2347.048599999905,3.0,2347.0530000000003,7.0,3.0,213.0,11.0,1.0,1.0,0.3,Time
,,S37,1,,,anonymized,Serial_Dependence_U,2023.2.3,Win32,60.240963855400565,,,,,,2347.053200000048,144.0,7.0,2347.053200000048,144.0,,,,2350.7938999998573,2351.2935,2350.281200000048,2350.793700000048,2348.0462999999527,2350.2810000000004,2351.2935,2351.7935,2351.7935,2353.3147999999524,1450.0,2353.3147999999524,4.0,2353.3192999999524,7.0,4.0,214.0,7.0,1.0,1.2,0.7,Time
,,S37,1,,,anonymized,Serial_Dependence_U,2023.2.3,Win32,60.240963855400565,,,,,,2353.319399999857,319.0,7.0,2353.319399999857,319.0,,,,2356.696099999905,2357.1933999998573,2356.180899999857,2356.696099999905,2354.3142999999527,2356.180899999857,2357.1933999998573,2357.6932999999526,2357.6932999999526,2358.8812999999527,961.0,2358.8812999999527,4.0,2358.8857999999527,7.0,5.0,215.0,20.0,1.0,0.8,0.3,Time
,,S37,1,,,anonymized,Serial_Dependence_U,2023.2.3,Win32,60.240963855400565,,,,,,2358.885899999857,244.0,7.0,2358.8860000000004,244.0,,,,2363.0460000000003,2363.5465000000004,2362.530700000048,2363.0458999998573,2359.880599999905,2362.530700000048,2363.5465000000004,2364.043200000048,2364.043200000048,2365.981200000048,1384.0,2365.9812999999526,2.0,2365.986099999905,7.0,6.0,216.0,19.0,1.0,1.6,0.7,Time
,,S37,1,,,anonymized,Serial_Dependence_U,2023.2.3,Win32,60.240963855400565,,,,,,2365.986200000048,60.0,7.0,2365.986200000048,60.0,,,,2369.759899999857,2370.263099999905,2369.2473999998574,2369.759899999857,2366.980599999905,2369.2472999999527,2370.263099999905,2370.759599999905,2370.759700000048,2376.7307999999525,1498.0,2376.7307999999525,4.0,2376.7355,7.0,7.0,217.0,22.0,1.0,1.2,0.3,Time
,,S37,1,,,anonymized,Serial_Dependence_U,2023.2.3,Win32,60.240963855400565,,,,,,2376.735700000048,192.0,7.0,2376.735700000048,192.0,,,,2380.3135,2380.8093999998573,2379.793099999905,2380.3135,2377.729799999953,2379.793,2380.8093999998573,2381.3093999998573,2381.3093999998573,2382.880599999905,1384.0,2382.880700000048,5.0,2382.885200000048,7.0,8.0,218.0,21.0,1.0,1.0,0.3,Time
,,S37,1,,,anonymized,Serial_Dependence_U,2023.2.3,Win32,60.240963855400565,,,,,,2382.8853999998573,70.0,7.0,2382.8853999998573,70.0,,,,2387.046099999905,2387.5425999999047,2386.542899999857,2387.0460000000003,2383.8762999999526,2386.542899999857,2387.5425999999047,2388.0425999999047,2388.0425999999047,2389.6470000000004,1447.0,2389.647099999905,2.0,2389.6517999999523,7.0,9.0,219.0,24.0,1.0,1.6,0.3,Time
,,S37,1,,,anonymized,Serial_Dependence_U,2023.2.3,Win32,60.240963855400565,,,,,,2389.652,303.0,7.0,2389.6520999999047,303.0,,,,2393.012,2393.509200000048,2392.496599999905,2393.012,2390.6595,2392.496599999905,2393.509200000048,2394.0090999999047,2394.0090999999047,2395.347099999905,1300.0,2395.347099999905,5.0,2395.351700000048,7.0,10.0,220.0,15.0,1.0,0.8,0.7,Time
,,S37,1,,,anonymized,Serial_Dependence_U,2023.2.3,Win32,60.240963855400565,,,,,,2395.3517999999526,230.0,7.0,2395.3518999998573,230.0,,,,2399.2927999999524,2399.792399999857,2398.780200000048,2399.292700000048,2396.346599999905,2398.780099999905,2399.792399999857,2400.292299999953,2400.292299999953,2479.6615,1222.0,2479.6615,2.0,2479.666200000048,7.0,11.0,221.0,8.0,1.0,1.4,0.7,Time
,,S37,1,,,anonymized,Serial_Dependence_U,2023.2.3,Win32,60.240963855400565,,,,,,2479.6663999998573,245.0,7.0,2479.6665000000003,245.0,,,,2483.407200000048,2483.9098999998573,2482.894700000048,2483.407200000048,2480.657299999953,2482.894599999905,2483.9098999998573,2484.406899999857,2484.406899999857,2486.194899999857,1167.0,2486.194899999857,3.0,2486.199399999857,7.0,12.0,222.0,27.0,1.0,1.2,0.7,Time
,,S37,1,,,anonymized,Serial_Dependence_U,2023.2.3,Win32,60.240963855400565,,,,,,2486.1995,136.0,7.0,2486.199599999905,136.0,,,,2490.140399999857,2490.640099999905,2489.626200000048,2490.140399999857,2487.193099999905,2489.626200000048,2490.640099999905,2491.140099999905,2491.140099999905,2504.711099999905,1407.0,2504.711099999905,3.0,2504.7158999998574,7.0,13.0,223.0,28.0,1.0,1.4,0.7,Time
,,S37,1,,,anonymized,Serial_Dependence_U,2023.2.3,Win32,60.240963855400565,,,,,,2504.7160000000003,127.0,7.0,2504.716099999905,127.0,,,,2508.4937999999524,2508.989700000048,2507.9772999999527,2508.4937999999524,2505.710700000048,2507.9772999999527,2508.989700000048,2509.489700000048,2509.489700000048,2511.3608999998573,1217.0,2511.3608999998573,3.0,2511.3653999998573,7.0,14.0,224.0,2.0,1.0,1.2,0.3,Time
,,S37,1,,,anonymized,Serial_Dependence_U,2023.2.3,Win32,60.240963855400565,,,,,,2511.365599999905,168.0,7.0,2511.365599999905,168.0,,,,2514.725700000048,2515.222899999857,2514.2105,2514.725700000048,2512.3770000000004,2514.2105,2515.222899999857,2515.722899999857,2515.722899999857,2517.8273999998573,1483.0,2517.8273999998573,5.0,2517.832099999905,7.0,15.0,225.0,5.0,1.0,0.8,0.7,Time
,,S37,1,,,anonymized,Serial_Dependence_U,2023.2.3,Win32,60.240963855400565,,,,,,2517.8322999999527,253.0,7.0,2517.832399999857,253.0,,,,2521.3768999998574,2521.872700000048,2520.860200000048,2521.3768999998574,2518.8230000000003,2520.860200000048,2521.872700000048,2522.3725999999047,2522.3725999999047,2524.293700000048,1400.0,2524.2937999999526,5.0,2524.2982999999526,7.0,16.0,226.0,6.0,1.0,1.0,0.7,Time
,,S37,1,,,anonymized,Serial_Dependence_U,2023.2.3,Win32,60.240963855400565,,,,,,2524.2985000000003,81.0,7.0,2524.298599999905,81.0,,,,2528.4600999999047,2528.9557999999524,2527.9435000000003,2528.46,2525.2927999999524,2527.9433999998573,2528.9557999999524,2529.455899999857,2529.455899999857,2531.593899999857,1600.0,2531.593899999857,3.0,2531.5985999999048,7.0,17.0,227.0,9.0,1.0,1.6,0.7,Time
,,S37,1,,,anonymized,Serial_Dependence_U,2023.2.3,Win32,60.240963855400565,,,,,,2531.598700000048,104.0,7.0,2531.5987999999525,104.0,,,,2535.572700000048,2536.0722999999525,2535.0592999999526,2535.572700000048,2532.589399999857,2535.0592999999526,2536.0722999999525,2536.575700000048,2536.575700000048,2538.527399999857,1317.0,2538.5275,2.0,2538.5317999999525,7.0,18.0,228.0,23.0,1.0,1.4,0.3,Time
,,S37,1,,,anonymized,Serial_Dependence_U,2023.2.3,Win32,60.240963855400565,,,,,,2538.532,259.0,7.0,2538.532,259.0,,,,2542.708399999857,2543.2055,2542.189200000048,2542.7082999999525,2539.5225999999047,2542.189099999905,2543.2055,2543.7055,2543.7055,2546.076899999857,1667.0,2546.076899999857,3.0,2546.081700000048,7.0,19.0,229.0,4.0,1.0,1.6,0.3,Time
,,S37,1,,,anonymized,Serial_Dependence_U,2023.2.3,Win32,60.240963855400565,,,,,,2546.0817999999526,42.0,7.0,2546.0817999999526,42.0,,,,2549.8588999998574,2550.355399999857,2549.3428999998573,2549.8588999998574,2547.0725,2549.3428999998573,2550.355399999857,2550.8552999999524,2550.855399999857,2552.8098999998574,1101.0,2552.8098999998574,2.0,2552.8143999998574,7.0,20.0,230.0,12.0,1.0,1.2,0.3,Time
,,S37,1,,,anonymized,Serial_Dependence_U,2023.2.3,Win32,60.240963855400565,,,,,,2552.8145000000004,54.0,7.0,2552.8145999999047,54.0,,,,2556.172200000048,2556.671899999857,2555.659399999857,2556.172200000048,2553.822399999857,2555.659399999857,2556.671899999857,2557.171799999953,2557.171799999953,2558.9265,1047.0,2558.9265,5.0,2558.930899999857,7.0,21.0,231.0,25.0,1.0,0.8,0.7,Time
,,S37,1,,,anonymized,Serial_Dependence_U,2023.2.3,Win32,60.240963855400565,,,,,,2558.9310999999047,138.0,7.0,2558.9310999999047,138.0,,,,2562.9092999999525,2563.405,2562.3925000000004,2562.909200000048,2559.922,2562.3925000000004,2563.405,2563.905,2563.905099999905,2565.5262999999527,1079.0,2565.5262999999527,2.0,2565.530700000048,7.0,22.0,232.0,3.0,1.0,1.4,0.3,Time
,,S37,1,,,anonymized,Serial_Dependence_U,2023.2.3,Win32,60.240963855400565,,,,,,2565.5308999998574,93.0,7.0,2565.5310000000004,93.0,,,,2569.074599999905,2569.5715,2568.559200000048,2569.0745,2566.5260000000003,2568.559200000048,2569.5715,2570.0715,2570.0715,2571.776099999905,1183.0,2571.776200000048,4.0,2571.7807999999527,7.0,23.0,233.0,16.0,1.0,1.0,0.7,Time
,,S37,1,,,anonymized,Serial_Dependence_U,2023.2.3,Win32,60.240963855400565,,,,,,2571.7807999999527,300.0,7.0,2571.7808999998574,300.0,,,,2575.3407999999527,2575.8415000000005,2574.825700000048,2575.3407999999527,2572.788399999857,2574.825599999905,2575.8415000000005,2576.338,2576.338,2578.209599999905,1234.0,2578.209599999905,4.0,2578.2142999999523,7.0,24.0,234.0,26.0,1.0,1.0,0.7,Time
,,S37,1,,,anonymized,Serial_Dependence_U,2023.2.3,Win32,60.240963855400565,,,,,,2578.2145,38.0,7.0,2578.2145,38.0,,,,2581.588200000048,2582.0877999999525,2581.0755000000004,2581.588099999905,2579.2088999998573,2581.0755000000004,2582.0877999999525,2582.587899999857,2582.588,2584.4923999998573,1167.0,2584.4923999998573,5.0,2584.4968999998573,7.0,25.0,235.0,10.0,1.0,0.8,0.3,Time
,,S37,1,,,anonymized,Serial_Dependence_U,2023.2.3,Win32,60.240963855400565,,,,,,2584.497099999905,254.0,7.0,2584.497099999905,254.0,,,,2588.441899999857,2588.937700000048,2587.9253999998573,2588.441899999857,2585.492,2587.9252999999526,2588.937700000048,2589.437700000048,2589.437700000048,2591.1422999999527,1133.0,2591.1423999998574,2.0,2591.1467999999527,7.0,26.0,236.0,18.0,1.0,1.4,0.7,Time
,,S37,1,,,anonymized,Serial_Dependence_U,2023.2.3,Win32,60.240963855400565,,,,,,2591.1468999998574,336.0,7.0,2591.1470000000004,336.0,,,,2595.321200000048,2595.8208999998574,2594.808399999857,2595.321099999905,2592.1378999998574,2594.8082999999524,2595.8208999998574,2596.3242999999525,2596.3242999999525,2598.3255000000004,1417.0,2598.325599999905,2.0,2598.330200000048,7.0,27.0,237.0,14.0,1.0,1.6,0.3,Time
,,S37,1,,,anonymized,Serial_Dependence_U,2023.2.3,Win32,60.240963855400565,,,,,,2598.3302999999523,117.0,7.0,2598.3305,117.0,,,,2602.1043999998574,2602.607399999857,2601.591700000048,2602.1042999999527,2599.3417999999524,2601.5915000000005,2602.6075,2603.1040000000003,2603.104099999905,2605.1585000000005,1450.0,2605.1585000000005,4.0,2605.1630000000005,7.0,28.0,238.0,17.0,1.0,1.2,0.7,Time
,,S37,1,,,anonymized,Serial_Dependence_U,2023.2.3,Win32,60.240963855400565,,,,,,2605.1630999999047,304.0,7.0,2605.163200000048,304.0,,,,2609.304099999905,2609.803899999857,2608.7915000000003,2609.304099999905,2606.1542999999524,2608.7913999998573,2609.803899999857,2610.307200000048,2610.3072999999526,2612.091700000048,1267.0,2612.0917999999524,2.0,2612.0962999999524,7.0,29.0,239.0,29.0,1.0,1.6,0.7,Time
,,S37,1,,,anonymized,Serial_Dependence_U,2023.2.3,Win32,60.240963855400565,,,,,,2612.096399999857,14.0,8.0,2613.903899999857,14.0,s,1.7872999999522108,,2617.8873999998573,2618.387,2617.374700000048,2617.8872999999526,2614.908099999905,2617.374700000048,2618.387,2618.887,2618.887,2626.108,1033.0,2626.108099999905,2.0,2626.1128999998573,8.0,0.0,240.0,3.0,1.0,1.4,0.3,Time
,,S37,1,,,anonymized,Serial_Dependence_U,2023.2.3,Win32,60.240963855400565,,,,,,2626.1130000000003,102.0,8.0,2626.113599999905,102.0,,,,2629.489599999905,2629.986700000048,2628.974599999905,2629.489599999905,2627.1075,2628.974599999905,2629.986700000048,2630.486700000048,2630.4867999999524,2632.3412999999528,1217.0,2632.341399999857,5.0,2632.3460999999047,8.0,1.0,241.0,10.0,1.0,0.8,0.3,Time
,,S37,1,,,anonymized,Serial_Dependence_U,2023.2.3,Win32,60.240963855400565,,,,,,2632.3462999999524,323.0,8.0,2632.3462999999524,323.0,,,,2635.6868999998574,2636.186599999905,2635.1702999999525,2635.6868999998574,2633.3395,2635.170200000048,2636.186599999905,2636.686599999905,2636.686599999905,2699.623200000048,1255.0,2699.6232999999525,5.0,2699.627899999857,8.0,2.0,242.0,15.0,1.0,0.8,0.7,Time
,,S37,1,,,anonymized,Serial_Dependence_U,2023.2.3,Win32,60.240963855400565,,,,,,2699.628,108.0,8.0,2699.628200000048,108.0,,,,2702.9890999999047,2703.484899999857,2702.472700000048,2702.989,2700.6225999999047,2702.472599999905,2703.484899999857,2703.984899999857,2703.984899999857,2805.3037999999524,888.0,2805.3037999999524,4.0,2805.308700000048,8.0,3.0,243.0,5.0,1.0,0.8,0.7,Time
,,S37,1,,,anonymized,Serial_Dependence_U,2023.2.3,Win32,60.240963855400565,,,,,,2805.3087999999525,344.0,8.0,2805.3087999999525,344.0,,,,2808.8493999998573,2809.349099999905,2808.336599999905,2808.849299999953,2806.299399999857,2808.336599999905,2809.349099999905,2809.849,2809.849,2812.4542999999526,1215.0,2812.4542999999526,4.0,2812.458700000048,8.0,4.0,244.0,26.0,1.0,1.0,0.7,Time
,,S37,1,,,anonymized,Serial_Dependence_U,2023.2.3,Win32,60.240963855400565,,,,,,2812.4587999999526,350.0,8.0,2812.4588999998573,350.0,,,,2816.4325000000003,2816.932099999905,2815.919899999857,2816.4325000000003,2813.451899999857,2815.9197999999524,2816.932099999905,2817.435700000048,2817.435700000048,2820.887,1067.0,2820.887,2.0,2820.8917999999526,8.0,5.0,245.0,23.0,1.0,1.4,0.3,Time
,,S37,1,,,anonymized,Serial_Dependence_U,2023.2.3,Win32,60.240963855400565,,,,,,2820.8918999998573,39.0,8.0,2820.8920000000003,39.0,,,,2824.265700000048,2824.7652999999527,2823.753099999905,2824.2655999999047,2821.886399999857,2823.753,2824.7652999999527,2825.2652999999527,2825.265399999857,2826.9370000000004,1100.0,2826.9370000000004,5.0,2826.941599999905,8.0,6.0,246.0,20.0,1.0,0.8,0.3,Time
,,S37,1,,,anonymized,Serial_Dependence_U,2023.2.3,Win32,60.240963855400565,,,,,,2826.941700000048,107.0,8.0,2826.941700000048,107.0,,,,2831.082099999905,2831.5818999998573,2830.5695999999048,2831.082099999905,2827.936200000048,2830.5695,2831.5818999998573,2832.0818999998573,2832.0818999998573,2845.202700000048,1185.0,2845.2027999999527,2.0,2845.2075000000004,8.0,7.0,247.0,9.0,1.0,1.6,0.7,Time
,,S37,1,,,anonymized,Serial_Dependence_U,2023.2.3,Win32,60.240963855400565,,,,,,2845.2075999999047,180.0,8.0,2845.207700000048,180.0,,,,2848.781700000048,2849.281399999857,2848.269099999905,2848.7815999999048,2846.2025000000003,2848.268899999857,2849.281399999857,2849.7812999999524,2849.7812999999524,2851.969399999857,1068.0,2851.969399999857,4.0,2851.974,8.0,8.0,248.0,1.0,1.0,1.0,0.3,Time
,,S37,1,,,anonymized,Serial_Dependence_U,2023.2.3,Win32,60.240963855400565,,,,,,2851.974099999905,257.0,8.0,2851.974099999905,257.0,,,,2856.1315999999047,2856.631200000048,2855.619,2856.1315999999047,2852.981700000048,2855.618899999857,2856.6312999999527,2857.1312999999527,2857.1312999999527,2859.085700000048,1350.0,2859.0857999999525,2.0,2859.0903999998573,8.0,9.0,249.0,29.0,1.0,1.6,0.7,Time
,,S37,1,,,anonymized,Serial_Dependence_U,2023.2.3,Win32,60.240963855400565,,,,,,2859.0905,221.0,8.0,2859.0905,221.0,,,,2862.431399999857,2862.9310999999047,2861.918599999905,2862.431399999857,2860.0852999999524,2861.918599999905,2862.9310999999047,2863.431,2863.431,2865.669099999905,1341.0,2865.669099999905,5.0,2865.6735000000003,8.0,10.0,250.0,25.0,1.0,0.8,0.7,Time
,,S37,1,,,anonymized,Serial_Dependence_U,2023.2.3,Win32,60.240963855400565,,,,,,2865.673599999905,143.0,8.0,2865.673700000048,143.0,,,,2869.2172999999525,2869.7142999999523,2868.698099999905,2869.217200000048,2866.664599999905,2868.6980000000003,2869.7142999999523,2870.217700000048,2870.217700000048,2875.602200000048,1675.0,2875.602200000048,5.0,2875.6067999999527,8.0,11.0,251.0,6.0,1.0,1.0,0.7,Time
,,S37,1,,,anonymized,Serial_Dependence_U,2023.2.3,Win32,60.240963855400565,,,,,,2875.6070000000004,188.0,8.0,2875.6070000000004,188.0,,,,2879.547599999905,2880.0472999999524,2879.035099999905,2879.547599999905,2876.601700000048,2879.0350000000003,2880.0472999999524,2880.5472999999524,2880.5472999999524,2882.985099999905,1333.0,2882.985200000048,3.0,2882.99,8.0,12.0,252.0,18.0,1.0,1.4,0.7,Time
,,S37,1,,,anonymized,Serial_Dependence_U,2023.2.3,Win32,60.240963855400565,,,,,,2882.990099999905,63.0,8.0,2882.990200000048,63.0,,,,2886.968099999905,2887.4637999999527,2886.4515,2886.9680000000003,2883.9833999998573,2886.451399999857,2887.4637999999527,2887.9637999999527,2887.9637999999527,2890.0640000000003,1111.0,2890.0640000000003,2.0,2890.0685000000003,8.0,13.0,253.0,13.0,1.0,1.4,0.3,Time
,,S37,1,,,anonymized,Serial_Dependence_U,2023.2.3,Win32,60.240963855400565,,,,,,2890.0687999999527,143.0,8.0,2890.0687999999527,143.0,,,,2893.8140000000003,2894.313599999905,2893.301200000048,2893.8140000000003,2891.0640000000003,2893.301200000048,2894.313599999905,2894.813700000048,2894.813700000048,2930.700799999953,1034.0,2930.700799999953,2.0,2930.705399999857,8.0,14.0,254.0,27.0,1.0,1.2,0.7,Time
,,S37,1,,,anonymized,Serial_Dependence_U,2023.2.3,Win32,60.240963855400565,,,,,,2930.7055999999047,233.0,8.0,2930.705700000048,233.0,,,,2934.4653999998573,2934.962700000048,2933.950899999857,2934.4653999998573,2931.7132999999526,2933.950799999953,2934.962700000048,2935.462700000048,2935.462700000048,2970.3832999999527,1096.0,2970.3833999998574,2.0,2970.3880000000004,8.0,15.0,255.0,17.0,1.0,1.2,0.7,Time
,,S37,1,,,anonymized,Serial_Dependence_U,2023.2.3,Win32,60.240963855400565,,,,,,2970.388200000048,201.0,8.0,2970.388200000048,201.0,,,,2974.166,2974.661700000048,2973.645399999857,2974.165899999857,2971.382,2973.645399999857,2974.661799999953,2975.161700000048,2975.161700000048,2977.049899999857,1195.0,2977.049899999857,3.0,2977.0542999999525,8.0,16.0,256.0,12.0,1.0,1.2,0.3,Time
