Scale_setup.started,Scale_setup.stopped,participant,session,sex,age,date,expName,psychopyVersion,OS,frameRate,Intro.started,Intro.stopped,key_resp_2.keys,key_resp_2.rt,key_resp_2.duration,block.started,direction,Block_id,block.stopped,trial_direction,Block_resp_2.keys,Block_resp_2.rt,Block_resp_2.duration,ITI.started,ITI.stopped,Mask_2.started,Mask_2.stopped,encoding.started,encoding.stopped,Cue.started,Cue.stopped,Response.started,Response.stopped,keyDuration,Feedback_Time.started,FeedbackID_T,Feedback_Time.stopped,trials.thisRepN,trials.thisTrialN,trials.thisN,trials.thisIndex,trials.ran,TimeDur,Coherence1,TrialType
0.0001999999992676,0.0004000000003827,S39,1,男,20,anonymized,Serial_Dependence_U,2023.2.3,Win32,60.240963855400565,,,,,,,,,,,,,,,,,,,,,,,,,,,,,,,,,,,
,,S39,1,男,20,anonymized,Serial_Dependence_U,2023.2.3,Win32,60.240963855400565,150.73680000000073,205.4923000000008,space,54.71579999999887,,,,,,,,,,,,,,,,,,,,,,,,,,,,,,,
,,S39,1,男,20,anonymized,Serial_Dependence_U,2023.2.3,Win32,60.240963855400565,,,,,,205.50119999999927,303.0,0.0,217.3116999999993,303.0,s,11.793999999999984,,221.30830000000077,221.80719999999928,220.7924000000004,221.3079000000004,218.32530000000077,220.79209999999964,221.80769999999924,222.31109999999964,222.31130000000076,229.1289000000004,2708.0,229.1290999999996,5.0,230.1239000000004,0.0,0.0,0.0,23.0,1.0,1.4,0.3,Time
,,S39,1,男,20,anonymized,Serial_Dependence_U,2023.2.3,Win32,60.240963855400565,,,,,,230.1248000000008,265.0,0.0,230.126,265.0,,,,233.8625,234.3565,233.36050000000003,233.8625,231.1290999999996,233.3604000000004,234.35669999999928,234.85859999999963,234.85859999999963,237.0949000000004,1878.0,237.0949000000004,5.0,238.09469999999928,0.0,1.0,1.0,27.0,1.0,1.2,0.7,Time
,,S39,1,男,20,anonymized,Serial_Dependence_U,2023.2.3,Win32,60.240963855400565,,,,,,238.095,43.0,0.0,238.09509999999963,43.0,,,,241.65969999999928,242.1601999999993,241.14459999999968,241.65959999999964,239.095,241.1445,242.1601999999993,242.6619000000004,242.6619000000004,246.00619999999927,2938.0,246.00640000000035,5.0,247.006,0.0,2.0,2.0,26.0,1.0,1.0,0.7,Time
,,S39,1,男,20,anonymized,Serial_Dependence_U,2023.2.3,Win32,60.240963855400565,,,,,,247.0069000000004,44.0,0.0,247.00719999999924,44.0,,,,250.9565999999996,251.45569999999927,250.4443000000008,250.9563000000008,248.0111999999993,250.44419999999928,251.4558000000008,251.95959999999965,251.9596999999993,252.49369999999928,99.0,252.49369999999928,1.0,253.489,0.0,3.0,3.0,8.0,1.0,1.4,0.7,Time
,,S39,1,男,20,anonymized,Serial_Dependence_U,2023.2.3,Win32,60.240963855400565,,,,,,253.49000000000004,14.0,0.0,253.4904000000004,14.0,,,,257.6940999999996,258.1885999999996,257.17759999999964,257.694,254.51059999999964,257.17759999999964,258.1888000000008,258.6885,258.68869999999924,260.12750000000005,1017.0,260.12750000000005,1.0,261.1229000000003,0.0,4.0,4.0,4.0,1.0,1.6,0.3,Time
,,S39,1,男,20,anonymized,Serial_Dependence_U,2023.2.3,Win32,60.240963855400565,,,,,,261.12409999999966,109.0,0.0,261.1245,109.0,,,,265.0894000000004,265.58849999999995,264.57740000000035,265.0890999999996,262.1393000000008,264.5773000000007,265.5885999999996,266.0930999999996,266.0930999999996,267.9586999999992,1382.0,267.9588000000007,3.0,268.95949999999993,0.0,5.0,5.0,18.0,1.0,1.4,0.7,Time
,,S39,1,男,20,anonymized,Serial_Dependence_U,2023.2.3,Win32,60.240963855400565,,,,,,268.9598000000008,185.0,0.0,268.9599000000004,185.0,,,,272.7434000000004,273.23799999999994,272.2225999999996,272.7434000000004,269.9595999999996,272.2223000000007,273.2380999999996,273.7375999999996,273.7378000000007,274.94340000000034,861.0,274.9435,2.0,275.93790000000035,0.0,6.0,6.0,22.0,1.0,1.2,0.3,Time
,,S39,1,男,20,anonymized,Serial_Dependence_U,2023.2.3,Win32,60.240963855400565,,,,,,275.93869999999924,232.0,0.0,275.9390999999996,232.0,,,,279.74280000000067,280.2375999999996,279.2225,279.74280000000067,276.9594000000003,279.2220999999996,280.2378000000007,280.7403000000008,280.7404000000004,282.3098000000008,1242.0,282.3099000000004,3.0,283.3091999999993,0.0,7.0,7.0,2.0,1.0,1.2,0.3,Time
,,S39,1,男,20,anonymized,Serial_Dependence_U,2023.2.3,Win32,60.240963855400565,,,,,,283.3095999999997,255.0,0.0,283.30969999999934,255.0,,,,286.6713000000009,287.1708000000009,286.1598000000008,286.6710999999997,284.30940000000044,286.15969999999936,287.1708000000009,287.6755999999997,287.6755999999997,289.0090000000001,1013.0,289.0090000000001,4.0,290.0039000000005,0.0,8.0,8.0,25.0,1.0,0.8,0.7,Time
,,S39,1,男,20,anonymized,Serial_Dependence_U,2023.2.3,Win32,60.240963855400565,,,,,,290.0050000000001,285.0,0.0,290.0051999999994,285.0,,,,293.55859999999973,294.05369999999937,293.0424000000005,293.5585000000001,291.00930000000085,293.04230000000086,294.0538000000008,294.55340000000047,294.55369999999937,296.1424000000005,1234.0,296.14250000000004,4.0,297.1419000000004,0.0,9.0,9.0,6.0,1.0,1.0,0.7,Time
,,S39,1,男,20,anonymized,Serial_Dependence_U,2023.2.3,Win32,60.240963855400565,,,,,,297.1421999999993,275.0,0.0,297.1424000000005,275.0,,,,300.5253000000008,301.0240999999997,300.0045999999997,300.52519999999936,298.14009999999973,300.00430000000085,301.0240999999997,301.5236999999994,301.5236999999994,302.70840000000044,811.0,302.7085000000001,3.0,303.7083000000008,0.0,10.0,10.0,20.0,1.0,0.8,0.3,Time
,,S39,1,男,20,anonymized,Serial_Dependence_U,2023.2.3,Win32,60.240963855400565,,,,,,303.70869999999934,318.0,0.0,303.7089000000004,318.0,,,,307.47350000000006,307.9695999999997,306.9583000000008,307.4734000000004,304.7090999999997,306.9581999999993,307.9696999999993,308.4694000000005,308.4695999999997,310.0920000000001,1256.0,310.0920000000001,3.0,311.0915000000001,0.0,11.0,11.0,17.0,1.0,1.2,0.7,Time
,,S39,1,男,20,anonymized,Serial_Dependence_U,2023.2.3,Win32,60.240963855400565,,,,,,311.09180000000083,264.0,0.0,311.0920000000001,264.0,,,,315.2581999999993,315.75219999999933,314.7420000000001,315.2581999999993,312.09240000000045,314.7418000000008,315.7524000000004,316.2530999999997,316.2531999999993,318.1745000000001,1585.0,318.1745999999997,3.0,319.16909999999973,0.0,12.0,12.0,29.0,1.0,1.6,0.7,Time
,,S39,1,男,20,anonymized,Serial_Dependence_U,2023.2.3,Win32,60.240963855400565,,,,,,319.16990000000044,167.0,0.0,319.1703000000008,167.0,,,,322.5531999999994,323.05280000000084,322.0415999999997,322.5530000000001,320.17440000000045,322.04150000000004,323.0529000000005,323.5524000000005,323.5525000000001,325.02440000000047,1117.0,325.02440000000047,5.0,326.0186999999994,0.0,13.0,13.0,0.0,1.0,0.8,0.3,Time
,,S39,1,男,20,anonymized,Serial_Dependence_U,2023.2.3,Win32,60.240963855400565,,,,,,326.0198000000008,125.0,0.0,326.02009999999973,125.0,,,,330.0250000000001,330.5189000000005,329.50300000000004,330.02490000000046,327.03909999999973,329.5028000000009,330.5189000000005,331.0184000000005,331.01859999999976,332.4084000000005,1049.0,332.4085000000001,2.0,333.4016999999993,0.0,14.0,14.0,13.0,1.0,1.4,0.3,Time
,,S39,1,男,20,anonymized,Serial_Dependence_U,2023.2.3,Win32,60.240963855400565,,,,,,333.40300000000013,121.0,0.0,333.4031999999994,121.0,,,,336.9564000000005,337.45240000000047,336.45269999999937,336.9564000000005,334.4193000000008,336.45240000000047,337.4525000000001,337.9514000000005,337.95159999999976,339.54050000000007,1250.0,339.54050000000007,4.0,340.53919999999937,0.0,15.0,15.0,16.0,1.0,1.0,0.7,Time
,,S39,1,男,20,anonymized,Serial_Dependence_U,2023.2.3,Win32,60.240963855400565,,,,,,340.53969999999936,281.0,0.0,340.53990000000044,281.0,,,,344.54019999999934,345.03859999999975,344.0240000000001,344.5400999999997,341.5561999999993,344.02380000000085,345.0386999999994,345.5341999999994,345.53440000000046,346.96790000000044,1117.0,346.9680000000001,2.0,347.97240000000045,0.0,16.0,16.0,3.0,1.0,1.4,0.3,Time
,,S39,1,男,20,anonymized,Serial_Dependence_U,2023.2.3,Win32,60.240963855400565,,,,,,347.9725999999997,260.0,0.0,347.9728000000008,260.0,,,,351.5564000000005,352.0508000000009,351.03490000000045,351.5564000000005,348.97290000000044,351.03469999999936,352.05100000000004,352.55100000000004,352.5510999999997,354.06780000000083,1187.0,354.06780000000083,4.0,355.06759999999974,0.0,17.0,17.0,21.0,1.0,1.0,0.3,Time
,,S39,1,男,20,anonymized,Serial_Dependence_U,2023.2.3,Win32,60.240963855400565,,,,,,355.06840000000045,242.0,0.0,355.0685999999997,242.0,,,,358.47240000000045,358.9675000000001,357.9515000000001,358.47240000000045,356.0894000000005,357.95109999999977,358.9675999999997,359.46790000000044,359.4680000000001,360.3726999999993,533.0,360.3726999999993,1.0,361.3673000000008,0.0,18.0,18.0,10.0,1.0,0.8,0.3,Time
,,S39,1,男,20,anonymized,Serial_Dependence_U,2023.2.3,Win32,60.240963855400565,,,,,,361.3680999999997,14.0,0.0,361.3683000000009,14.0,,,,365.5390999999997,366.03750000000014,365.0350000000001,365.5390000000001,362.3703000000008,365.03469999999936,366.03750000000014,366.5379000000005,366.5379000000005,368.25619999999935,1417.0,368.2563000000008,2.0,369.2499000000005,0.0,19.0,19.0,24.0,1.0,1.6,0.3,Time
,,S39,1,男,20,anonymized,Serial_Dependence_U,2023.2.3,Win32,60.240963855400565,,,,,,369.2510000000001,60.0,0.0,369.25119999999936,60.0,,,,373.2006999999993,373.7039000000004,372.6888000000008,373.2004000000005,370.2551999999994,372.68869999999936,373.7039000000004,374.2000999999997,374.2000999999997,375.5166999999993,1003.0,375.5169000000004,2.0,376.5046999999994,0.0,20.0,20.0,28.0,1.0,1.4,0.7,Time
,,S39,1,男,20,anonymized,Serial_Dependence_U,2023.2.3,Win32,60.240963855400565,,,,,,376.5050000000001,111.0,0.0,376.5051999999994,111.0,,,,380.0835999999997,380.58719999999937,379.5714000000005,380.0834000000005,377.5034000000005,379.57130000000086,380.58719999999937,381.0834000000005,381.0835999999997,382.4220999999998,951.0,382.4221999999994,3.0,383.4161999999993,0.0,21.0,21.0,1.0,1.0,1.0,0.3,Time
,,S39,1,男,20,anonymized,Serial_Dependence_U,2023.2.3,Win32,60.240963855400565,,,,,,383.4170999999998,104.0,0.0,383.41730000000086,104.0,,,,386.7673000000009,387.26650000000006,386.2545000000001,386.76700000000005,384.4213000000009,386.2545000000001,387.2665999999997,387.76990000000046,387.76990000000046,389.24959999999976,1123.0,389.2498000000009,5.0,390.25380000000087,0.0,22.0,22.0,15.0,1.0,0.8,0.7,Time
,,S39,1,男,20,anonymized,Serial_Dependence_U,2023.2.3,Win32,60.240963855400565,,,,,,390.25409999999977,247.0,0.0,390.2541999999994,247.0,,,,393.8378000000008,394.33240000000046,393.33369999999934,393.83769999999936,391.26700000000005,393.3334000000005,394.3325999999997,394.8321999999994,394.83240000000046,396.3360000000001,1194.0,396.3360000000001,4.0,397.3325000000001,0.0,23.0,23.0,11.0,1.0,1.0,0.3,Time
,,S39,1,男,20,anonymized,Serial_Dependence_U,2023.2.3,Win32,60.240963855400565,,,,,,397.3335999999997,243.0,0.0,397.3338000000008,243.0,,,,401.53750000000014,402.0320999999997,401.0160000000001,401.5374000000005,398.3538000000009,401.0158000000008,402.0321999999993,402.53569999999934,402.53569999999934,404.104,1229.0,404.104,2.0,405.1031999999993,0.0,24.0,24.0,14.0,1.0,1.6,0.3,Time
,,S39,1,男,20,anonymized,Serial_Dependence_U,2023.2.3,Win32,60.240963855400565,,,,,,405.1034000000004,173.0,0.0,405.10350000000005,173.0,,,,408.8825000000001,409.3815000000001,408.3706999999994,408.8821999999993,406.1036999999993,408.3705999999997,409.38169999999934,409.8815999999997,409.8818000000008,411.53709999999967,1333.0,411.53709999999967,4.0,412.5315999999997,0.0,25.0,25.0,12.0,1.0,1.2,0.3,Time
,,S39,1,男,20,anonymized,Serial_Dependence_U,2023.2.3,Win32,60.240963855400565,,,,,,412.5326999999993,173.0,0.0,412.5331999999994,173.0,,,,416.3030999999997,416.7979000000005,415.7863000000009,416.3030999999997,413.55340000000047,415.7863000000009,416.79809999999975,417.29809999999975,417.2981999999994,418.9035000000001,1300.0,418.9035000000001,4.0,419.8980999999998,0.0,26.0,26.0,7.0,1.0,1.2,0.7,Time
,,S39,1,男,20,anonymized,Serial_Dependence_U,2023.2.3,Win32,60.240963855400565,,,,,,419.8990000000001,132.0,0.0,419.8993000000008,132.0,,,,424.0694000000004,424.56869999999935,423.5526999999994,424.0693000000008,420.9029000000005,423.55259999999976,424.56869999999935,425.0638000000008,425.0640000000001,427.0530000000001,1676.0,427.0530999999997,3.0,428.04759999999976,0.0,27.0,27.0,19.0,1.0,1.6,0.7,Time
,,S39,1,男,20,anonymized,Serial_Dependence_U,2023.2.3,Win32,60.240963855400565,,,,,,428.0488000000008,38.0,0.0,428.0490999999997,38.0,,,,431.4355999999997,431.93050000000005,430.9195000000001,431.4355000000001,429.0675999999997,430.9194000000005,431.9305999999997,432.4306999999993,432.4309000000005,434.03569999999934,1300.0,434.0358000000008,5.0,435.03069999999934,0.0,28.0,28.0,5.0,1.0,0.8,0.7,Time
,,S39,1,男,20,anonymized,Serial_Dependence_U,2023.2.3,Win32,60.240963855400565,,,,,,435.0315999999997,113.0,0.0,435.0319000000005,113.0,,,,439.2148000000009,439.71350000000007,438.7023000000008,439.2145,436.0524000000005,438.7021999999994,439.71350000000007,440.2133000000008,440.21350000000007,442.3855999999997,1850.0,442.3855999999997,4.0,443.3800000000001,0.0,29.0,29.0,9.0,1.0,1.6,0.7,Time
,,S39,1,男,20,anonymized,Serial_Dependence_U,2023.2.3,Win32,60.240963855400565,,,,,,443.38090000000045,235.0,1.0,448.78469999999936,235.0,s,5.371700000001169,,452.1305999999997,452.6341999999994,451.6185,452.1303000000008,449.7850999999997,451.6184000000005,452.6341999999994,453.13409999999976,453.13409999999976,454.2015000000001,811.0,454.2015000000001,3.0,454.2065000000001,1.0,0.0,30.0,15.0,1.0,0.8,0.7,Time
,,S39,1,男,20,anonymized,Serial_Dependence_U,2023.2.3,Win32,60.240963855400565,,,,,,454.2066999999994,42.0,1.0,454.2075999999997,42.0,,,,458.1803000000008,458.6793000000008,457.6690000000001,458.18000000000006,455.1996999999993,457.6690000000001,458.6794000000005,459.1795000000001,459.1795999999997,460.5514000000005,1184.0,460.55150000000015,2.0,460.5563000000009,1.0,1.0,31.0,23.0,1.0,1.4,0.3,Time
,,S39,1,男,20,anonymized,Serial_Dependence_U,2023.2.3,Win32,60.240963855400565,,,,,,460.5565999999998,38.0,1.0,460.5565999999998,38.0,,,,464.1345000000001,464.6290000000001,463.6178000000008,464.1344000000005,461.5513000000009,463.6178000000008,464.6291999999994,465.12930000000085,465.1294000000005,466.2015000000001,878.0,466.2015000000001,2.0,466.2068000000008,1.0,2.0,32.0,1.0,1.0,1.0,0.3,Time
,,S39,1,男,20,anonymized,Serial_Dependence_U,2023.2.3,Win32,60.240963855400565,,,,,,466.2069000000005,78.0,1.0,466.2069000000005,78.0,,,,470.3844000000005,470.8829000000005,469.8674000000004,470.3843000000009,467.2009000000005,469.8673000000008,470.8829000000005,471.3826999999993,471.3826999999993,472.0625000000001,205.0,472.0626999999994,1.0,472.0685000000001,1.0,3.0,33.0,4.0,1.0,1.6,0.3,Time
,,S39,1,男,20,anonymized,Serial_Dependence_U,2023.2.3,Win32,60.240963855400565,,,,,,472.06869999999935,30.0,1.0,472.06869999999935,30.0,,,,476.2339000000005,476.7325000000001,475.7168000000008,476.2338000000009,473.0656999999993,475.7168000000008,476.7325000000001,477.2286999999993,477.2286999999993,479.20059999999967,1600.0,479.2006999999993,3.0,479.20609999999976,1.0,4.0,34.0,19.0,1.0,1.6,0.7,Time
,,S39,1,男,20,anonymized,Serial_Dependence_U,2023.2.3,Win32,60.240963855400565,,,,,,479.2061999999994,210.0,1.0,479.2064000000005,210.0,,,,482.6004000000005,483.0994000000005,482.0840999999997,482.6001999999994,480.2170000000001,482.08400000000006,483.0994000000005,483.5945,483.5946999999993,485.36140000000046,1473.0,485.3615999999997,5.0,485.36669999999935,1.0,5.0,35.0,0.0,1.0,0.8,0.3,Time
,,S39,1,男,20,anonymized,Serial_Dependence_U,2023.2.3,Win32,60.240963855400565,,,,,,485.3670000000001,207.0,1.0,485.3670000000001,207.0,,,,489.3665999999997,489.86509999999976,488.84530000000086,489.3665999999997,486.3818000000008,488.8450999999998,489.86509999999976,490.36119999999937,490.36140000000046,492.35030000000086,1618.0,492.35030000000086,4.0,492.35530000000085,1.0,6.0,36.0,3.0,1.0,1.4,0.3,Time
,,S39,1,男,20,anonymized,Serial_Dependence_U,2023.2.3,Win32,60.240963855400565,,,,,,492.3555000000001,204.0,1.0,492.35559999999975,204.0,,,,496.54550000000006,497.04840000000047,496.03280000000086,496.54519999999934,493.3624000000004,496.0326999999993,497.04840000000047,497.5444000000005,497.5445000000001,499.4498000000009,1600.0,499.4499000000004,3.0,499.4550999999997,1.0,7.0,37.0,24.0,1.0,1.6,0.3,Time
,,S39,1,男,20,anonymized,Serial_Dependence_U,2023.2.3,Win32,60.240963855400565,,,,,,499.4553000000009,202.0,1.0,499.4553000000009,202.0,,,,503.00009999999975,503.4938000000009,502.48269999999934,502.9999000000005,500.4475999999997,502.4825999999997,503.4939000000005,503.9979000000004,503.9980000000001,505.6829000000005,1350.0,505.6829000000005,5.0,505.6883000000008,1.0,8.0,38.0,6.0,1.0,1.0,0.7,Time
,,S39,1,男,20,anonymized,Serial_Dependence_U,2023.2.3,Win32,60.240963855400565,,,,,,505.6885000000001,57.0,1.0,505.6885000000001,57.0,,,,509.46050000000014,509.9604000000005,508.94919999999934,509.46030000000087,506.6826999999994,508.94919999999934,509.96050000000014,510.4640999999997,510.4641999999993,511.5994000000005,859.0,511.59950000000015,2.0,511.60450000000014,1.0,9.0,39.0,2.0,1.0,1.2,0.3,Time
,,S39,1,男,20,anonymized,Serial_Dependence_U,2023.2.3,Win32,60.240963855400565,,,,,,511.6045999999998,299.0,1.0,511.60480000000086,299.0,,,,514.9783000000008,515.4765999999997,514.4654000000005,514.9779000000004,512.6156999999994,514.4654000000005,515.4768000000008,515.9764000000005,515.9765000000001,517.3661999999994,1100.0,517.3661999999994,5.0,517.3715000000001,1.0,10.0,40.0,5.0,1.0,0.8,0.7,Time
,,S39,1,男,20,anonymized,Serial_Dependence_U,2023.2.3,Win32,60.240963855400565,,,,,,517.3716999999994,255.0,1.0,517.3718000000008,255.0,,,,521.3106999999993,521.8095000000001,520.7983000000008,521.3105,518.3651999999994,520.7981999999994,521.8095999999997,522.3139000000004,522.3139000000004,524.0150000000001,1381.0,524.0150000000001,3.0,524.0200000000001,1.0,11.0,41.0,28.0,1.0,1.4,0.7,Time
,,S39,1,男,20,anonymized,Serial_Dependence_U,2023.2.3,Win32,60.240963855400565,,,,,,524.0200999999997,161.0,1.0,524.0201999999994,161.0,,,,527.3773000000008,527.8806999999994,526.8646999999994,527.3770000000001,525.0150000000001,526.8646999999994,527.8806999999994,528.3801999999994,528.3801999999994,529.4480999999997,785.0,529.4480999999997,3.0,529.4530999999997,1.0,12.0,42.0,25.0,1.0,0.8,0.7,Time
,,S39,1,男,20,anonymized,Serial_Dependence_U,2023.2.3,Win32,60.240963855400565,,,,,,529.4533000000008,123.0,1.0,529.4533000000008,123.0,,,,533.2143000000009,533.7093000000009,532.6979000000005,533.2141999999993,530.4644000000005,532.6978000000008,533.7094000000004,534.2090000000001,534.2091999999993,535.6478000000009,1207.0,535.6479000000005,3.0,535.6526999999993,1.0,13.0,43.0,17.0,1.0,1.2,0.7,Time
,,S39,1,男,20,anonymized,Serial_Dependence_U,2023.2.3,Win32,60.240963855400565,,,,,,535.6529000000005,27.0,1.0,535.6529000000005,27.0,,,,539.4093000000008,539.9085999999998,538.8975999999997,539.4091999999994,536.6600000000001,538.8975999999997,539.9086999999994,540.4088000000008,540.4090999999997,542.1806999999993,1452.0,542.1806999999993,4.0,542.1856999999993,1.0,14.0,44.0,7.0,1.0,1.2,0.7,Time
,,S39,1,男,20,anonymized,Serial_Dependence_U,2023.2.3,Win32,60.240963855400565,,,,,,542.1858000000009,209.0,1.0,542.1859000000005,209.0,,,,546.1428000000009,546.6416999999993,545.6310000000001,546.1425999999997,543.1974000000005,545.6309000000005,546.6418000000008,547.1420999999997,547.1421999999993,548.6418000000008,1168.0,548.642,2.0,548.6474000000005,1.0,15.0,45.0,18.0,1.0,1.4,0.7,Time
,,S39,1,男,20,anonymized,Serial_Dependence_U,2023.2.3,Win32,60.240963855400565,,,,,,548.6475000000002,39.0,1.0,548.6475999999997,39.0,,,,552.0430000000001,552.5415,551.5305000000001,552.0426999999994,549.6640000000001,551.5304000000004,552.5416999999993,553.0411999999993,553.0414000000005,554.3584000000004,967.0,554.3586999999993,4.0,554.3643000000009,1.0,16.0,46.0,20.0,1.0,0.8,0.3,Time
,,S39,1,男,20,anonymized,Serial_Dependence_U,2023.2.3,Win32,60.240963855400565,,,,,,554.3644000000005,328.0,1.0,554.3645000000001,328.0,,,,558.5294000000005,559.0248000000008,558.0135999999998,558.5293000000008,555.3619000000004,558.0135000000001,559.0249000000005,559.5248000000008,559.5249000000005,561.3083000000008,1460.0,561.3085000000001,2.0,561.3139000000004,1.0,17.0,47.0,9.0,1.0,1.6,0.7,Time
,,S39,1,男,20,anonymized,Serial_Dependence_U,2023.2.3,Win32,60.240963855400565,,,,,,561.3140000000001,196.0,1.0,561.3141999999993,196.0,,,,565.4924000000004,565.9913000000008,564.9796999999993,565.4921999999993,562.3140000000001,564.9795999999998,565.9913000000008,566.4950999999998,566.4950999999998,567.9634000000004,1250.0,567.9635000000001,2.0,567.9693000000009,1.0,18.0,48.0,14.0,1.0,1.6,0.3,Time
,,S39,1,男,20,anonymized,Serial_Dependence_U,2023.2.3,Win32,60.240963855400565,,,,,,567.9694000000005,94.0,1.0,567.9695,94.0,,,,571.5251999999994,572.0241999999994,571.0126999999993,571.5249000000005,568.9750000000001,571.0125999999997,572.0241999999994,572.5239000000005,572.5241999999994,574.0463000000009,1233.0,574.0463000000009,4.0,574.0519000000005,1.0,19.0,49.0,26.0,1.0,1.0,0.7,Time
,,S39,1,男,20,anonymized,Serial_Dependence_U,2023.2.3,Win32,60.240963855400565,,,,,,574.0520999999998,45.0,1.0,574.0520999999998,45.0,,,,578.0453000000008,578.5404000000004,577.5245000000001,578.0451999999993,575.0623000000008,577.5243000000008,578.5405000000001,579.0405000000001,579.0405999999997,580.5289000000005,1183.0,580.5290000000001,2.0,580.5339000000005,1.0,20.0,50.0,13.0,1.0,1.4,0.3,Time
,,S39,1,男,20,anonymized,Serial_Dependence_U,2023.2.3,Win32,60.240963855400565,,,,,,580.5340999999997,36.0,1.0,580.5340999999997,36.0,,,,584.4739000000004,584.9736999999993,583.9624000000005,584.4735999999997,581.5285000000001,583.9623000000008,584.9738000000009,585.4734000000004,585.4735999999997,586.9955000000001,1244.0,586.9955000000001,2.0,587.0005000000001,1.0,21.0,51.0,8.0,1.0,1.4,0.7,Time
,,S39,1,男,20,anonymized,Serial_Dependence_U,2023.2.3,Win32,60.240963855400565,,,,,,587.0006999999994,94.0,1.0,587.0006999999994,94.0,,,,590.7740999999997,591.2731999999994,590.2620000000001,590.7738000000008,587.9955000000001,590.2619000000004,591.2733000000009,591.7731999999994,591.7733000000009,593.2951999999993,1200.0,593.2951999999993,3.0,593.3009000000005,1.0,22.0,52.0,22.0,1.0,1.2,0.3,Time
,,S39,1,男,20,anonymized,Serial_Dependence_U,2023.2.3,Win32,60.240963855400565,,,,,,593.301,329.0,1.0,593.3010999999997,329.0,,,,596.8738000000009,597.3728000000009,596.3571999999994,596.8735999999997,594.2954000000004,596.3570000000001,597.3729000000004,597.873,597.8731999999993,599.5794000000004,1317.0,599.5795,5.0,599.5845999999997,1.0,23.0,53.0,21.0,1.0,1.0,0.3,Time
,,S39,1,男,20,anonymized,Serial_Dependence_U,2023.2.3,Win32,60.240963855400565,,,,,,599.5846999999993,256.0,1.0,599.5846999999993,256.0,,,,603.1235000000001,603.6228000000009,602.6113000000008,603.1231999999993,600.5761999999994,602.6113000000008,603.6229000000004,604.1228000000009,604.123,606.3445999999997,1883.0,606.3445999999997,5.0,606.3501999999994,1.0,24.0,54.0,16.0,1.0,1.0,0.7,Time
,,S39,1,男,20,anonymized,Serial_Dependence_U,2023.2.3,Win32,60.240963855400565,,,,,,606.3505000000001,331.0,1.0,606.3505000000001,331.0,,,,609.7279000000004,610.2224000000004,609.2234000000004,609.7279000000004,607.3610000000001,609.2230999999997,610.2225999999997,610.7221999999994,610.7223000000008,612.7765999999997,1732.0,612.7765999999997,5.0,612.7818000000009,1.0,25.0,55.0,10.0,1.0,0.8,0.3,Time
,,S39,1,男,20,anonymized,Serial_Dependence_U,2023.2.3,Win32,60.240963855400565,,,,,,612.782,25.0,1.0,612.7821999999993,25.0,,,,616.9440000000001,617.4430999999997,616.4275000000001,616.9440000000001,613.7894000000005,616.4274000000005,617.4430999999997,617.9386999999994,617.9388000000008,620.4606999999994,2200.0,620.4606999999994,5.0,620.4661999999994,1.0,26.0,56.0,29.0,1.0,1.6,0.7,Time
,,S39,1,男,20,anonymized,Serial_Dependence_U,2023.2.3,Win32,60.240963855400565,,,,,,620.4664000000005,163.0,1.0,620.4664000000005,163.0,,,,624.0556999999993,624.5579000000005,623.5439000000005,624.0554000000004,621.4750000000001,623.5438000000008,624.5579000000005,625.0551999999993,625.0551999999993,627.8606999999994,2467.0,627.8606999999994,5.0,627.8655999999997,1.0,27.0,57.0,11.0,1.0,1.0,0.3,Time
,,S39,1,男,20,anonymized,Serial_Dependence_U,2023.2.3,Win32,60.240963855400565,,,,,,627.8658000000008,12.0,1.0,627.8659000000005,12.0,,,,631.6265000000001,632.1260000000001,631.1100000000001,631.6264000000004,628.8604000000005,631.1100000000001,632.1260000000001,632.6211999999994,632.6214000000004,634.7769000000005,1800.0,634.7769000000005,5.0,634.7825999999998,1.0,28.0,58.0,27.0,1.0,1.2,0.7,Time
,,S39,1,男,20,anonymized,Serial_Dependence_U,2023.2.3,Win32,60.240963855400565,,,,,,634.7826999999993,197.0,1.0,634.7828000000009,197.0,,,,638.5766999999994,639.0709000000005,638.0555,638.5765999999998,635.7929000000005,638.0551999999993,639.0710000000001,639.5751999999993,639.5751999999993,641.5765999999998,1650.0,641.5765999999998,5.0,641.5815000000001,1.0,29.0,59.0,12.0,1.0,1.2,0.3,Time
,,S39,1,男,20,anonymized,Serial_Dependence_U,2023.2.3,Win32,60.240963855400565,,,,,,641.5816999999994,356.0,2.0,644.9759000000005,356.0,s,3.376699999999232,,648.9430000000001,649.4368000000009,648.4244000000004,648.9430000000001,645.9908000000008,648.4244000000004,649.4369000000005,649.9415000000001,649.9415999999998,651.7095999999997,1550.0,651.7095999999997,4.0,651.7145,2.0,0.0,60.0,18.0,1.0,1.4,0.7,Time
,,S39,1,男,20,anonymized,Serial_Dependence_U,2023.2.3,Win32,60.240963855400565,,,,,,651.7145999999997,71.0,2.0,651.7151999999993,71.0,,,,655.8754000000005,656.3699000000005,655.3589000000005,655.8754000000005,652.7255999999998,655.3589000000005,656.3701999999994,656.8701999999994,656.8703000000008,658.7703000000008,1769.0,658.7703000000008,4.0,658.7761999999993,2.0,1.0,61.0,9.0,1.0,1.6,0.7,Time
,,S39,1,男,20,anonymized,Serial_Dependence_U,2023.2.3,Win32,60.240963855400565,,,,,,658.7765,330.0,2.0,658.7765,330.0,,,,662.9375000000001,663.4368000000009,662.4254000000004,662.9373000000008,659.7759000000004,662.4253000000008,663.4368000000009,663.9364000000005,663.9366999999994,666.4928000000008,2267.0,666.4928000000008,5.0,666.4984000000005,2.0,2.0,62.0,19.0,1.0,1.6,0.7,Time
,,S39,1,男,20,anonymized,Serial_Dependence_U,2023.2.3,Win32,60.240963855400565,,,,,,666.4985000000001,14.0,2.0,666.4986999999993,14.0,,,,669.9083000000008,670.4025999999998,669.3913000000008,669.9081999999994,667.5250999999997,669.3911999999993,670.4026999999993,670.9030999999998,670.9033000000009,672.9083000000008,1678.0,672.9083000000008,5.0,672.9131999999994,2.0,3.0,63.0,20.0,1.0,0.8,0.3,Time
,,S39,1,男,20,anonymized,Serial_Dependence_U,2023.2.3,Win32,60.240963855400565,,,,,,672.9134000000005,56.0,2.0,672.9135000000001,56.0,,,,676.4700999999998,676.9735000000001,675.9585000000001,676.4698000000009,673.9076999999993,675.9585000000001,676.9735999999997,677.4690999999997,677.4693000000009,680.5418000000009,2789.0,680.5418000000009,5.0,680.5470999999998,2.0,4.0,64.0,16.0,1.0,1.0,0.7,Time
,,S39,1,男,20,anonymized,Serial_Dependence_U,2023.2.3,Win32,60.240963855400565,,,,,,680.5473000000009,220.0,2.0,680.5474000000005,220.0,,,,684.0868000000008,684.5851999999993,683.5741999999993,684.0865000000001,681.5404000000004,683.5741999999993,684.5854000000005,685.0894000000005,685.0894000000005,688.0243000000008,2683.0,688.0243000000008,5.0,688.0295999999997,2.0,5.0,65.0,26.0,1.0,1.0,0.7,Time
,,S39,1,男,20,anonymized,Serial_Dependence_U,2023.2.3,Win32,60.240963855400565,,,,,,688.0295999999997,192.0,2.0,688.0298000000008,192.0,,,,692.2239000000004,692.724,691.7073000000008,692.2238000000009,689.0400000000001,691.7070999999997,692.724,693.2225999999997,693.2226999999993,695.9075000000001,2485.0,695.9075999999998,5.0,695.9131999999994,2.0,6.0,66.0,24.0,1.0,1.6,0.3,Time
,,S39,1,男,20,anonymized,Serial_Dependence_U,2023.2.3,Win32,60.240963855400565,,,,,,695.9134000000005,340.0,2.0,695.9135000000001,340.0,,,,699.4529000000005,699.9515999999998,698.9404000000005,699.4526999999994,696.9075999999998,698.9403000000009,699.9519000000005,700.4515000000001,700.4515999999998,703.1904000000005,2500.0,703.1904000000005,5.0,703.1960999999998,2.0,7.0,67.0,6.0,1.0,1.0,0.7,Time
,,S39,1,男,20,anonymized,Serial_Dependence_U,2023.2.3,Win32,60.240963855400565,,,,,,703.1961999999993,351.0,2.0,703.1963000000009,351.0,,,,706.9718000000008,707.4680000000001,706.4561999999994,706.9716999999994,704.1904000000005,706.4560999999998,707.4680999999997,707.9678000000008,707.9680000000001,710.4908000000008,2252.0,710.4908000000008,5.0,710.4963000000008,2.0,8.0,68.0,12.0,1.0,1.2,0.3,Time
,,S39,1,男,20,anonymized,Serial_Dependence_U,2023.2.3,Win32,60.240963855400565,,,,,,710.4964000000004,67.0,2.0,710.4965000000001,67.0,,,,713.8735000000001,714.3675999999997,713.3545000000001,713.8735000000001,711.4900999999998,713.3545000000001,714.3676999999993,714.8714000000004,714.8715999999997,717.0231999999994,1852.0,717.0233000000009,5.0,717.0280000000001,2.0,9.0,69.0,0.0,1.0,0.8,0.3,Time
,,S39,1,男,20,anonymized,Serial_Dependence_U,2023.2.3,Win32,60.240963855400565,,,,,,717.0281999999994,126.0,2.0,717.0281999999994,126.0,,,,721.1894000000004,721.6840000000001,720.6845999999997,721.1891999999993,718.0226999999993,720.6845000000001,721.6840999999997,722.1840999999997,722.1841999999994,724.4894000000005,1950.0,724.4895000000001,4.0,724.4946999999994,2.0,10.0,70.0,4.0,1.0,1.6,0.3,Time
,,S39,1,男,20,anonymized,Serial_Dependence_U,2023.2.3,Win32,60.240963855400565,,,,,,724.4948000000009,286.0,2.0,724.4949000000005,286.0,,,,728.0721999999994,728.5666999999994,727.5675999999997,728.0720999999998,725.5054000000005,727.5675000000001,728.5669000000005,729.0671999999994,729.0675000000001,731.6893000000008,2367.0,731.6893000000008,5.0,731.6945999999997,2.0,11.0,71.0,1.0,1.0,1.0,0.3,Time
,,S39,1,男,20,anonymized,Serial_Dependence_U,2023.2.3,Win32,60.240963855400565,,,,,,731.6948000000009,229.0,2.0,731.6949000000004,229.0,,,,735.6883000000008,736.1834000000005,735.1720000000001,735.6880999999997,732.7055000000001,735.1720000000001,736.1835000000001,736.6833000000008,736.6833000000008,739.0720999999998,2211.0,739.0720999999998,5.0,739.0780999999997,2.0,12.0,72.0,3.0,1.0,1.4,0.3,Time
,,S39,1,男,20,anonymized,Serial_Dependence_U,2023.2.3,Win32,60.240963855400565,,,,,,739.0783000000008,357.0,2.0,739.0784000000004,357.0,,,,742.8338000000008,743.3329000000004,742.3213000000009,742.8336999999993,740.0840000000001,742.3211999999993,743.3330000000001,743.8351999999993,743.8353000000009,746.1883000000008,2117.0,746.1884000000005,5.0,746.1934000000005,2.0,13.0,73.0,7.0,1.0,1.2,0.7,Time
,,S39,1,男,20,anonymized,Serial_Dependence_U,2023.2.3,Win32,60.240963855400565,,,,,,746.1935000000001,27.0,2.0,746.1935999999997,27.0,,,,749.5501999999993,750.0490000000001,749.0374000000005,749.5500999999997,747.2045,749.0373000000009,750.0490999999997,750.5493000000008,750.5495000000001,752.3159000000005,1601.0,752.3160999999998,5.0,752.3216999999994,2.0,14.0,74.0,25.0,1.0,0.8,0.7,Time
,,S39,1,男,20,anonymized,Serial_Dependence_U,2023.2.3,Win32,60.240963855400565,,,,,,752.3218000000008,75.0,2.0,752.3219000000005,75.0,,,,755.6661999999993,756.1538000000008,755.1540000000001,755.666,753.3213000000009,755.1539000000005,756.1538000000008,756.6490999999997,756.6493000000008,758.9383000000008,1826.0,758.9383000000008,5.0,758.9436999999994,2.0,15.0,75.0,5.0,1.0,0.8,0.7,Time
,,S39,1,男,20,anonymized,Serial_Dependence_U,2023.2.3,Win32,60.240963855400565,,,,,,758.9439000000004,215.0,2.0,758.9440000000001,215.0,,,,762.5375000000001,763.0318000000009,762.0211999999993,762.5374000000005,759.9540999999997,762.0210999999997,763.0319000000005,763.5321999999993,763.5321999999993,765.4985000000001,1800.0,765.4985000000001,5.0,765.5039000000005,2.0,16.0,76.0,11.0,1.0,1.0,0.3,Time
,,S39,1,男,20,anonymized,Serial_Dependence_U,2023.2.3,Win32,60.240963855400565,,,,,,765.5040999999998,315.0,2.0,765.5040999999998,315.0,,,,769.6870000000001,770.1816999999993,769.1825999999998,769.6870000000001,766.5205000000001,769.1823000000009,770.1818000000009,770.6855,770.6855,772.7871999999994,2017.0,772.7871999999994,4.0,772.7920999999998,2.0,17.0,77.0,14.0,1.0,1.6,0.3,Time
,,S39,1,男,20,anonymized,Serial_Dependence_U,2023.2.3,Win32,60.240963855400565,,,,,,772.7923000000009,99.0,2.0,772.7924000000004,99.0,,,,776.7701999999994,777.2646999999994,776.2535999999997,776.7700999999996,773.7850999999997,776.2535000000001,777.264800000001,777.7685,777.7685,780.2870999999997,2350.0,780.2871999999994,5.0,780.2925000000001,2.0,18.0,78.0,13.0,1.0,1.4,0.3,Time
,,S39,1,男,20,anonymized,Serial_Dependence_U,2023.2.3,Win32,60.240963855400565,,,,,,780.2926999999994,172.0,2.0,780.2926999999994,172.0,,,,783.6651999999993,784.1643000000009,783.1530000000001,783.6649000000006,781.303,783.1530000000001,784.1645000000002,784.6644000000005,784.6645000000002,786.6034000000005,1750.0,786.6034000000005,5.0,786.6084000000004,2.0,19.0,79.0,15.0,1.0,0.8,0.7,Time
,,S39,1,男,20,anonymized,Serial_Dependence_U,2023.2.3,Win32,60.240963855400565,,,,,,786.6085999999997,249.0,2.0,786.6085999999997,249.0,,,,790.2011999999994,790.6970999999998,789.6814000000005,790.2010999999997,787.6195000000001,789.6813000000008,790.6973000000008,791.1968000000007,791.1969000000005,793.4359000000005,1913.0,793.436,5.0,793.4415999999998,2.0,20.0,80.0,21.0,1.0,1.0,0.3,Time
,,S39,1,男,20,anonymized,Serial_Dependence_U,2023.2.3,Win32,60.240963855400565,,,,,,793.4416999999993,104.0,2.0,793.4418000000009,104.0,,,,797.2028000000008,797.6968000000007,796.6859000000005,797.2025999999997,794.4535000000002,796.6858000000008,797.697,798.1969000000005,798.1970999999998,800.3636999999993,1755.0,800.3638000000009,5.0,800.3690999999998,2.0,21.0,81.0,17.0,1.0,1.2,0.7,Time
,,S39,1,男,20,anonymized,Serial_Dependence_U,2023.2.3,Win32,60.240963855400565,,,,,,800.3693000000009,199.0,2.0,800.3694000000004,199.0,,,,804.1645000000002,804.6630999999996,803.6520999999997,804.1641999999994,801.3856999999992,803.6520000000002,804.6631999999994,805.1635,805.1635999999997,807.6520000000002,2150.0,807.6520999999997,5.0,807.6574000000004,2.0,22.0,82.0,22.0,1.0,1.2,0.3,Time
,,S39,1,男,20,anonymized,Serial_Dependence_U,2023.2.3,Win32,60.240963855400565,,,,,,807.6575000000001,145.0,2.0,807.6575000000001,145.0,,,,811.8308000000007,812.3298000000008,811.3181999999994,811.8304000000004,808.6665999999997,811.3181999999994,812.33,812.8299000000005,812.8300999999998,815.0354000000005,2117.0,815.0355000000001,5.0,815.0404000000004,2.0,23.0,83.0,29.0,1.0,1.6,0.7,Time
,,S39,1,男,20,anonymized,Serial_Dependence_U,2023.2.3,Win32,60.240963855400565,,,,,,815.0405999999997,98.0,2.0,815.0406999999994,98.0,,,,818.9969000000004,819.4964000000006,818.4849000000005,818.9966999999994,816.0519000000005,818.4849000000005,819.4965000000001,819.9959000000005,819.9960999999997,822.1184000000004,1972.0,822.1185000000002,5.0,822.1238000000009,2.0,24.0,84.0,8.0,1.0,1.4,0.7,Time
,,S39,1,男,20,anonymized,Serial_Dependence_U,2023.2.3,Win32,60.240963855400565,,,,,,822.1240000000001,15.0,2.0,822.1240999999997,15.0,,,,825.8841999999994,826.3790999999998,825.3631999999994,825.8840999999996,823.1298000000007,825.3630000000002,826.3791999999993,826.8788000000008,826.8789000000005,828.784,1751.0,828.784,5.0,828.7893000000009,2.0,25.0,85.0,27.0,1.0,1.2,0.7,Time
,,S39,1,男,20,anonymized,Serial_Dependence_U,2023.2.3,Win32,60.240963855400565,,,,,,828.7895000000002,50.0,2.0,828.7895999999997,50.0,,,,832.7465000000001,833.2450999999998,832.234,832.7461999999992,829.784,832.2339000000005,833.2451999999993,833.7480999999997,833.7481999999994,835.6008000000007,1685.0,835.6008000000007,4.0,835.6060999999996,2.0,26.0,86.0,28.0,1.0,1.4,0.7,Time
,,S39,1,男,20,anonymized,Serial_Dependence_U,2023.2.3,Win32,60.240963855400565,,,,,,835.6061999999994,253.0,2.0,835.6063000000009,253.0,,,,839.6004000000004,840.0949000000004,839.0838000000009,839.6003000000009,836.6133000000008,839.0838000000009,840.0950000000001,840.5950999999997,840.5953000000007,842.3340000000002,1434.0,842.3340000000002,3.0,842.3388000000008,2.0,27.0,87.0,23.0,1.0,1.4,0.3,Time
,,S39,1,男,20,anonymized,Serial_Dependence_U,2023.2.3,Win32,60.240963855400565,,,,,,842.3389000000005,32.0,2.0,842.3390999999998,32.0,,,,846.1166999999992,846.6115999999996,845.6124000000005,846.1166999999992,843.3500999999998,845.6121999999995,846.6115999999996,847.1111999999993,847.1113000000008,849.0116999999995,1533.0,849.0118000000008,4.0,849.0171999999994,2.0,28.0,88.0,2.0,1.0,1.2,0.3,Time
,,S39,1,男,20,anonymized,Serial_Dependence_U,2023.2.3,Win32,60.240963855400565,,,,,,849.0173000000008,130.0,2.0,849.0174000000005,130.0,,,,852.3950999999996,852.8968000000008,851.8831999999994,852.3949000000006,850.0165999999998,851.8830999999997,852.8968000000008,853.3941999999994,853.3944000000005,855.6336999999993,1928.0,855.6336999999993,5.0,855.6391999999993,2.0,29.0,89.0,10.0,1.0,0.8,0.3,Time
,,S39,1,男,20,anonymized,Serial_Dependence_U,2023.2.3,Win32,60.240963855400565,,,,,,855.6394000000004,16.0,3.0,1042.5248000000008,16.0,s,186.86589999999865,,1045.92,1046.4188000000008,1045.4076999999993,1045.9196999999992,1043.5360999999996,1045.4076999999993,1046.4189000000003,1046.9188000000008,1046.919,1048.7743000000007,1394.0,1048.7743000000007,5.0,1048.7793000000008,3.0,0.0,90.0,0.0,1.0,0.8,0.3,Time
,,S39,1,男,20,anonymized,Serial_Dependence_U,2023.2.3,Win32,60.240963855400565,,,,,,1048.7795,328.0,3.0,1048.7800999999995,328.0,,,,1052.3693000000007,1052.8684000000003,1051.857,1052.369,1049.7860999999996,1051.857,1052.8685999999996,1053.3729000000003,1053.3729000000003,1054.8911999999991,1300.0,1054.8911999999991,5.0,1054.896,3.0,1.0,91.0,21.0,1.0,1.0,0.3,Time
,,S39,1,男,20,anonymized,Serial_Dependence_U,2023.2.3,Win32,60.240963855400565,,,,,,1054.8961999999992,83.0,3.0,1054.8961999999992,83.0,,,,1058.2900999999997,1058.7848000000008,1057.7738000000006,1058.29,1055.9070999999997,1057.7736999999993,1058.7849000000003,1059.285,1059.2851999999991,1060.502,890.0,1060.5021999999992,4.0,1060.5075,3.0,2.0,92.0,20.0,1.0,0.8,0.3,Time
,,S39,1,男,20,anonymized,Serial_Dependence_U,2023.2.3,Win32,60.240963855400565,,,,,,1060.5075999999997,295.0,3.0,1060.5076999999992,295.0,,,,1064.2569000000003,1064.7511999999992,1063.7565,1064.2568000000008,1061.5065999999997,1063.7564000000004,1064.7513000000008,1065.2510999999995,1065.2513000000008,1066.8236999999992,1260.0,1066.8236999999992,4.0,1066.829,3.0,3.0,93.0,17.0,1.0,1.2,0.7,Time
,,S39,1,男,20,anonymized,Serial_Dependence_U,2023.2.3,Win32,60.240963855400565,,,,,,1066.8291999999992,308.0,3.0,1066.8291999999992,308.0,,,,1070.4231999999993,1070.9219000000005,1069.9021999999993,1070.4230999999995,1067.84,1069.9019000000003,1070.9219000000005,1071.4176999999993,1071.4179000000004,1072.9069000000004,1184.0,1072.9069000000004,4.0,1072.912,3.0,4.0,94.0,1.0,1.0,1.0,0.3,Time
,,S39,1,男,20,anonymized,Serial_Dependence_U,2023.2.3,Win32,60.240963855400565,,,,,,1072.9121999999993,166.0,3.0,1072.9123000000006,166.0,,,,1077.0878000000007,1077.5840999999996,1076.5734000000004,1077.0876999999991,1073.9064000000003,1076.5731999999991,1077.584199999999,1078.088699999999,1078.088800000001,1079.9406999999992,1668.0,1079.9406999999992,3.0,1079.9456999999993,3.0,5.0,95.0,14.0,1.0,1.6,0.3,Time
,,S39,1,男,20,anonymized,Serial_Dependence_U,2023.2.3,Win32,60.240963855400565,,,,,,1079.9458000000006,333.0,3.0,1079.9458000000006,333.0,,,,1083.9349000000004,1084.4361999999992,1083.4231999999993,1083.934699999999,1080.9560999999997,1083.4231999999993,1084.4361999999992,1084.9338000000007,1084.9339000000004,1086.4055999999996,1033.0,1086.4056999999991,2.0,1086.4105999999997,3.0,6.0,96.0,13.0,1.0,1.4,0.3,Time
,,S39,1,男,20,anonymized,Serial_Dependence_U,2023.2.3,Win32,60.240963855400565,,,,,,1086.4106999999992,51.0,3.0,1086.4108000000008,51.0,,,,1090.3841999999993,1090.8875,1089.8714000000004,1090.384,1087.4056999999991,1089.8713000000007,1090.8875,1091.3833000000006,1091.3835,1093.1393000000007,1484.0,1093.1393000000007,4.0,1093.1448000000007,3.0,7.0,97.0,23.0,1.0,1.4,0.3,Time
,,S39,1,男,20,anonymized,Serial_Dependence_U,2023.2.3,Win32,60.240963855400565,,,,,,1093.145,221.0,3.0,1093.1450999999995,221.0,,,,1097.105,1097.6040999999996,1096.5885,1097.1049000000005,1094.1551999999992,1096.5884000000003,1097.6040999999996,1098.0996999999993,1098.0998000000006,1100.4724000000003,2077.0,1100.4724000000003,5.0,1100.4773000000007,3.0,8.0,98.0,28.0,1.0,1.4,0.7,Time
,,S39,1,男,20,anonymized,Serial_Dependence_U,2023.2.3,Win32,60.240963855400565,,,,,,1100.4774000000004,257.0,3.0,1100.4774000000004,257.0,,,,1104.267,1104.7659000000003,1103.7508000000007,1104.2666999999992,1101.4866999999992,1103.7504000000004,1104.7660999999996,1105.266,1105.2661999999991,1107.072,1484.0,1107.0720999999996,4.0,1107.0774000000004,3.0,9.0,99.0,2.0,1.0,1.2,0.3,Time
,,S39,1,男,20,anonymized,Serial_Dependence_U,2023.2.3,Win32,60.240963855400565,,,,,,1107.0775,246.0,3.0,1107.0775999999996,246.0,,,,1110.4376999999993,1110.9366999999993,1109.9216999999992,1110.4375999999995,1108.0835999999997,1109.9216999999992,1110.9366999999993,1111.432,1111.4321999999993,1112.8380999999997,1167.0,1112.8381999999992,5.0,1112.8435,3.0,10.0,100.0,15.0,1.0,0.8,0.7,Time
,,S39,1,男,20,anonymized,Serial_Dependence_U,2023.2.3,Win32,60.240963855400565,,,,,,1112.8436999999992,236.0,3.0,1112.8436999999992,236.0,,,,1116.7874000000004,1117.2821999999992,1116.271,1116.7871999999993,1113.8384000000003,1116.2709000000004,1117.2823000000008,1117.7821999999992,1117.7825,1119.4213000000009,1362.0,1119.4214000000004,3.0,1119.4268000000006,3.0,11.0,101.0,18.0,1.0,1.4,0.7,Time
,,S39,1,男,20,anonymized,Serial_Dependence_U,2023.2.3,Win32,60.240963855400565,,,,,,1119.427,355.0,3.0,1119.427,355.0,,,,1122.7829000000004,1123.281699999999,1122.2705999999996,1122.7826999999993,1120.437,1122.2705999999996,1123.2819000000004,1123.7824000000005,1123.7824000000005,1125.4545999999996,1335.0,1125.4545999999996,5.0,1125.4595,3.0,12.0,102.0,5.0,1.0,0.8,0.7,Time
,,S39,1,男,20,anonymized,Serial_Dependence_U,2023.2.3,Win32,60.240963855400565,,,,,,1125.4596999999992,255.0,3.0,1125.4598000000008,255.0,,,,1129.4535999999996,1129.9480999999996,1128.9328000000007,1129.4535,1126.4704000000004,1128.9325999999996,1129.9481999999991,1130.4484000000004,1130.4485,1131.8039000000003,1316.0,1131.8039000000003,2.0,1131.809,3.0,13.0,103.0,3.0,1.0,1.4,0.3,Time
,,S39,1,男,20,anonymized,Serial_Dependence_U,2023.2.3,Win32,60.240963855400565,,,,,,1131.8090999999995,104.0,3.0,1131.8090999999995,104.0,,,,1135.165699999999,1135.6688000000008,1134.6534000000004,1135.1654000000003,1132.8201999999992,1134.6534000000004,1135.6688000000008,1136.1646999999991,1136.1649000000004,1137.7703000000008,1317.0,1137.7704000000003,5.0,1137.7750999999996,3.0,14.0,104.0,25.0,1.0,0.8,0.7,Time
,,S39,1,男,20,anonymized,Serial_Dependence_U,2023.2.3,Win32,60.240963855400565,,,,,,1137.7753000000007,48.0,3.0,1137.7753000000007,48.0,,,,1141.9484000000004,1142.4515999999996,1141.437,1141.9481999999991,1138.7845,1141.4369000000004,1142.4515999999996,1142.9479000000003,1142.948,1144.6864000000005,1473.0,1144.6864000000005,2.0,1144.6916999999992,3.0,15.0,105.0,9.0,1.0,1.6,0.7,Time
,,S39,1,男,20,anonymized,Serial_Dependence_U,2023.2.3,Win32,60.240963855400565,,,,,,1144.6919000000005,217.0,3.0,1144.6919000000005,217.0,,,,1148.6483000000007,1149.1476999999993,1148.136,1148.648,1145.684699999999,1148.1359000000004,1149.1478000000006,1149.6518000000008,1149.6519000000003,1151.37,1436.0,1151.3700999999996,3.0,1151.3755999999996,3.0,16.0,106.0,8.0,1.0,1.4,0.7,Time
,,S39,1,男,20,anonymized,Serial_Dependence_U,2023.2.3,Win32,60.240963855400565,,,,,,1151.3758000000007,85.0,3.0,1151.3758000000007,85.0,,,,1154.9364000000005,1155.4304000000004,1154.4145999999996,1154.9363000000008,1152.3814000000004,1154.4143000000008,1155.4305,1155.9305,1155.9306999999992,1157.852,1633.0,1157.852,5.0,1157.8570999999995,3.0,17.0,107.0,6.0,1.0,1.0,0.7,Time
,,S39,1,男,20,anonymized,Serial_Dependence_U,2023.2.3,Win32,60.240963855400565,,,,,,1157.8574000000003,189.0,3.0,1157.8575999999996,189.0,,,,1161.4353000000008,1161.9350999999997,1160.9140999999995,1161.4353000000008,1158.8523000000007,1160.9139000000005,1161.9350999999997,1162.4343000000008,1162.4343000000008,1164.1525999999997,1400.0,1164.1526999999992,5.0,1164.1575999999995,3.0,18.0,108.0,11.0,1.0,1.0,0.3,Time
,,S39,1,男,20,anonymized,Serial_Dependence_U,2023.2.3,Win32,60.240963855400565,,,,,,1164.1578000000006,185.0,3.0,1164.1578000000006,185.0,,,,1168.3478000000007,1168.8463000000008,1167.8311999999992,1168.3475,1165.1681999999992,1167.8309000000004,1168.8463000000008,1169.3466999999991,1169.3468000000007,1171.6188000000006,1933.0,1171.6189000000004,4.0,1171.6244000000004,3.0,19.0,109.0,24.0,1.0,1.6,0.3,Time
,,S39,1,男,20,anonymized,Serial_Dependence_U,2023.2.3,Win32,60.240963855400565,,,,,,1171.6245999999996,93.0,3.0,1171.6246999999992,93.0,,,,1175.7803000000008,1176.2836999999993,1175.2680999999995,1175.78,1172.6349000000002,1175.268,1176.2836999999993,1176.7798000000007,1176.7799000000005,1179.2185999999997,2117.0,1179.2185999999997,5.0,1179.2235,3.0,20.0,110.0,19.0,1.0,1.6,0.7,Time
,,S39,1,男,20,anonymized,Serial_Dependence_U,2023.2.3,Win32,60.240963855400565,,,,,,1179.223800000001,102.0,3.0,1179.223800000001,102.0,,,,1183.3805,1183.879,1182.868,1183.3801999999991,1180.2300999999995,1182.8679000000004,1183.8790999999997,1184.3835,1184.3835999999997,1186.7519000000004,2050.0,1186.752,4.0,1186.757199999999,3.0,21.0,111.0,29.0,1.0,1.6,0.7,Time
,,S39,1,男,20,anonymized,Serial_Dependence_U,2023.2.3,Win32,60.240963855400565,,,,,,1186.7575,158.0,3.0,1186.7575,158.0,,,,1190.5130999999997,1191.0125,1190.0005999999996,1190.513,1187.751,1190.0005999999996,1191.0125999999996,1191.5123000000008,1191.5124000000003,1193.334300000001,1483.0,1193.334300000001,4.0,1193.3396999999993,3.0,22.0,112.0,7.0,1.0,1.2,0.7,Time
,,S39,1,男,20,anonymized,Serial_Dependence_U,2023.2.3,Win32,60.240963855400565,,,,,,1193.3398000000009,149.0,3.0,1193.34,149.0,,,,1197.5343000000007,1198.0283000000006,1197.0126999999993,1197.5340999999996,1194.3459000000005,1197.0125,1198.0285,1198.5328000000006,1198.5328000000006,1200.834199999999,2000.0,1200.834300000001,4.0,1200.8394000000003,3.0,23.0,113.0,4.0,1.0,1.6,0.3,Time
,,S39,1,男,20,anonymized,Serial_Dependence_U,2023.2.3,Win32,60.240963855400565,,,,,,1200.8396999999993,168.0,3.0,1200.8396999999993,168.0,,,,1204.6123000000007,1205.1114000000005,1204.1006999999993,1204.612,1201.8325999999995,1204.1005999999995,1205.1114000000005,1205.6111999999991,1205.6113000000007,1215.5835999999997,1517.0,1215.5835999999997,4.0,1215.5889000000004,3.0,24.0,114.0,12.0,1.0,1.2,0.3,Time
,,S39,1,男,20,anonymized,Serial_Dependence_U,2023.2.3,Win32,60.240963855400565,,,,,,1215.5890999999997,319.0,3.0,1215.5890999999997,319.0,,,,1219.3495999999996,1219.8439000000003,1218.8334000000004,1219.3495999999996,1216.5985,1218.8334000000004,1219.8440999999996,1220.3316999999993,1220.3316999999993,1222.133,1400.0,1222.1330999999996,4.0,1222.1384000000005,3.0,25.0,115.0,27.0,1.0,1.2,0.7,Time
,,S39,1,男,20,anonymized,Serial_Dependence_U,2023.2.3,Win32,60.240963855400565,,,,,,1222.1385,328.0,3.0,1222.1386999999993,328.0,,,,1225.694800000001,1226.1935999999996,1225.1828000000007,1225.6945,1223.1329000000003,1225.1826999999992,1226.1936999999991,1226.6816999999992,1226.6816999999992,1228.2996999999991,1261.0,1228.2996999999991,4.0,1228.3045999999997,3.0,26.0,116.0,26.0,1.0,1.0,0.7,Time
,,S39,1,男,20,anonymized,Serial_Dependence_U,2023.2.3,Win32,60.240963855400565,,,,,,1228.3048000000008,353.0,3.0,1228.3048000000008,353.0,,,,1231.8615,1232.3600999999996,1231.3490999999997,1231.8613000000007,1229.3155999999997,1231.349,1232.3601999999992,1232.8643000000006,1232.8643000000006,1234.4656999999993,1333.0,1234.4656999999993,5.0,1234.4704000000004,3.0,27.0,117.0,16.0,1.0,1.0,0.7,Time
,,S39,1,男,20,anonymized,Serial_Dependence_U,2023.2.3,Win32,60.240963855400565,,,,,,1234.4705999999996,199.0,3.0,1234.4705999999996,199.0,,,,1238.2619000000004,1238.7596999999992,1237.7444000000005,1238.2615999999996,1235.4821999999992,1237.7441999999992,1238.7598000000007,1239.2598000000007,1239.26,1240.8990999999996,1350.0,1240.8990999999996,4.0,1240.904,3.0,28.0,118.0,22.0,1.0,1.2,0.3,Time
,,S39,1,男,20,anonymized,Serial_Dependence_U,2023.2.3,Win32,60.240963855400565,,,,,,1240.9040999999995,132.0,3.0,1240.9041999999993,132.0,,,,1244.2820999999997,1244.776300000001,1243.7653000000007,1244.282,1241.8985,1243.7653000000007,1244.7764000000004,1245.2805,1245.2805999999996,1247.2468000000008,1610.0,1247.247,5.0,1247.2514000000003,3.0,29.0,119.0,10.0,1.0,0.8,0.3,Time
,,S39,1,男,20,anonymized,Serial_Dependence_U,2023.2.3,Win32,60.240963855400565,,,,,,1247.2515999999996,139.0,4.0,1276.2331999999992,139.0,s,28.963999999999945,,1280.0133000000008,1280.5080999999996,1279.5090999999995,1280.0131999999992,1277.2468000000008,1279.5088000000007,1280.5083000000006,1281.0075999999997,1281.0076999999992,1282.5305999999996,1183.0,1282.5306999999991,3.0,1282.5356999999992,4.0,0.0,120.0,2.0,1.0,1.2,0.3,Time
,,S39,1,男,20,anonymized,Serial_Dependence_U,2023.2.3,Win32,60.240963855400565,,,,,,1282.5359000000003,116.0,4.0,1282.5365,116.0,,,,1286.1255,1286.6285999999996,1285.608699999999,1286.1253000000008,1283.5469000000005,1285.6085,1286.6285999999996,1287.1243000000006,1287.1245,1288.5245,1243.0,1288.5245,4.0,1288.5299000000005,4.0,1.0,121.0,1.0,1.0,1.0,0.3,Time
,,S39,1,男,20,anonymized,Serial_Dependence_U,2023.2.3,Win32,60.240963855400565,,,,,,1288.53,312.0,4.0,1288.5300999999995,312.0,,,,1291.8918000000008,1292.3944000000004,1291.3795,1291.8916999999992,1289.5294000000004,1291.3794000000005,1292.3944000000004,1292.8908000000008,1292.8908000000008,1294.3306999999993,1134.0,1294.3308000000006,5.0,1294.3356999999992,4.0,2.0,122.0,15.0,1.0,0.8,0.7,Time
,,S39,1,男,20,anonymized,Serial_Dependence_U,2023.2.3,Win32,60.240963855400565,,,,,,1294.3359000000005,234.0,4.0,1294.3359000000005,234.0,,,,1298.3250999999996,1298.8238000000008,1297.8085,1298.3246999999992,1295.3455999999996,1297.8081999999993,1298.8239000000003,1299.3115999999995,1299.3115999999995,1302.1959000000004,2576.0,1302.196,5.0,1302.2014000000004,4.0,3.0,123.0,23.0,1.0,1.4,0.3,Time
,,S39,1,男,20,anonymized,Serial_Dependence_U,2023.2.3,Win32,60.240963855400565,,,,,,1302.2015999999996,1.0,4.0,1302.2016999999992,1.0,,,,1305.9286999999993,1306.4235,1305.4271999999992,1305.9286999999993,1303.196,1305.4270999999997,1306.4235999999996,1306.9236999999991,1306.9239000000005,1308.6288000000006,1283.0,1308.6288000000006,4.0,1308.6343000000006,4.0,4.0,124.0,27.0,1.0,1.2,0.7,Time
,,S39,1,男,20,anonymized,Serial_Dependence_U,2023.2.3,Win32,60.240963855400565,,,,,,1308.6344000000004,218.0,4.0,1308.6345,218.0,,,,1312.0119000000004,1312.5066999999992,1311.4934000000003,1312.0119000000004,1309.6283000000008,1311.4934000000003,1312.5068000000008,1313.0068000000008,1313.0069000000003,1314.7620999999997,1283.0,1314.7620999999997,5.0,1314.767300000001,4.0,5.0,125.0,20.0,1.0,0.8,0.3,Time
,,S39,1,男,20,anonymized,Serial_Dependence_U,2023.2.3,Win32,60.240963855400565,,,,,,1314.7674000000004,233.0,4.0,1314.7674000000004,233.0,,,,1318.723800000001,1319.2225999999996,1318.2119000000002,1318.7235999999996,1315.762,1318.2118000000007,1319.2228000000007,1319.7275,1319.7275999999997,1319.8299000000004,67.0,1319.83,1.0,1319.8348000000008,4.0,6.0,126.0,8.0,1.0,1.4,0.7,Time
,,S39,1,男,20,anonymized,Serial_Dependence_U,2023.2.3,Win32,60.240963855400565,,,,,,1319.835,318.0,4.0,1319.8353000000006,318.0,,,,1324.0409000000004,1324.5391999999993,1323.5279000000005,1324.040699999999,1320.8614000000005,1323.5279000000005,1324.5394000000003,1325.0393000000008,1325.0394000000003,1327.7225,2257.0,1327.7225999999996,5.0,1327.7286999999992,4.0,7.0,127.0,4.0,1.0,1.6,0.3,Time
,,S39,1,男,20,anonymized,Serial_Dependence_U,2023.2.3,Win32,60.240963855400565,,,,,,1327.7289000000003,168.0,4.0,1327.729,168.0,,,,1331.0735,1331.5725999999995,1330.561,1331.0731999999991,1328.7278000000008,1330.5609000000004,1331.5726999999993,1332.0723000000007,1332.0723000000007,1333.7778000000008,1083.0,1333.7778000000008,5.0,1333.7831999999992,4.0,8.0,128.0,25.0,1.0,0.8,0.7,Time
,,S39,1,男,20,anonymized,Serial_Dependence_U,2023.2.3,Win32,60.240963855400565,,,,,,1333.7834000000005,133.0,4.0,1333.7835,133.0,,,,1337.5728000000008,1338.072,1337.061,1337.5726999999993,1334.794,1337.0609000000004,1338.0721999999992,1338.5745999999997,1338.5745999999997,1340.5115,1590.0,1340.5115,5.0,1340.5165,4.0,9.0,129.0,22.0,1.0,1.2,0.3,Time
,,S39,1,男,20,anonymized,Serial_Dependence_U,2023.2.3,Win32,60.240963855400565,,,,,,1340.5165999999997,132.0,4.0,1340.5166999999992,132.0,,,,1344.7106999999992,1345.2050999999997,1344.1890999999996,1344.7105999999997,1341.5273000000009,1344.1888000000008,1345.2051999999992,1345.704699999999,1345.7049000000004,1348.011,1967.0,1348.0110999999995,4.0,1348.0165,4.0,10.0,130.0,14.0,1.0,1.6,0.3,Time
,,S39,1,男,20,anonymized,Serial_Dependence_U,2023.2.3,Win32,60.240963855400565,,,,,,1348.0166999999992,26.0,4.0,1348.0168000000008,26.0,,,,1351.5556999999992,1352.0548000000008,1351.0439000000003,1351.5554000000004,1349.0103000000008,1351.0438000000008,1352.0549000000003,1352.5588000000007,1352.5588000000007,1354.5101999999993,1574.0,1354.5101999999993,5.0,1354.5151999999991,4.0,11.0,131.0,6.0,1.0,1.0,0.7,Time
,,S39,1,男,20,anonymized,Serial_Dependence_U,2023.2.3,Win32,60.240963855400565,,,,,,1354.5153000000007,358.0,4.0,1354.5154000000005,358.0,,,,1357.9095999999995,1358.4043000000008,1357.3930999999995,1357.9095999999995,1355.526300000001,1357.3930999999995,1358.4044000000004,1358.9043000000008,1358.9045,1360.4376999999993,1226.0,1360.4378000000008,5.0,1360.4430999999995,4.0,12.0,132.0,0.0,1.0,0.8,0.3,Time
,,S39,1,男,20,anonymized,Serial_Dependence_U,2023.2.3,Win32,60.240963855400565,,,,,,1360.4433000000008,265.0,4.0,1360.4433000000008,265.0,,,,1364.4098000000008,1364.9036999999992,1363.9049000000005,1364.4096999999992,1361.4429000000005,1363.9046999999991,1364.9039000000002,1365.404,1365.4044000000004,1367.5928000000008,1833.0,1367.5929000000003,5.0,1367.5983000000008,4.0,13.0,133.0,13.0,1.0,1.4,0.3,Time
,,S39,1,男,20,anonymized,Serial_Dependence_U,2023.2.3,Win32,60.240963855400565,,,,,,1367.5985,338.0,4.0,1367.5985,338.0,,,,1370.9879000000003,1371.4874000000004,1370.4759000000004,1370.9876999999992,1368.6094000000005,1370.4756999999993,1371.4874000000004,1371.987,1371.9870999999996,1374.093,1701.0,1374.093,5.0,1374.0979000000004,4.0,14.0,134.0,10.0,1.0,0.8,0.3,Time
,,S39,1,男,20,anonymized,Serial_Dependence_U,2023.2.3,Win32,60.240963855400565,,,,,,1374.098,137.0,4.0,1374.0981999999992,137.0,,,,1378.2375999999997,1378.7368000000008,1377.7255999999995,1378.2374000000004,1375.0924000000005,1377.7255,1378.7369000000003,1379.2369000000003,1379.237,1381.5865999999996,1822.0,1381.5868000000007,4.0,1381.5926999999992,4.0,15.0,135.0,9.0,1.0,1.6,0.7,Time
,,S39,1,男,20,anonymized,Serial_Dependence_U,2023.2.3,Win32,60.240963855400565,,,,,,1381.5929000000003,222.0,4.0,1381.593,222.0,,,,1385.3753000000008,1385.8699000000004,1384.8585,1385.3751999999993,1382.6085,1384.8584000000003,1385.8699000000004,1386.37,1386.3701999999992,1388.0753000000009,1550.0,1388.0753000000009,4.0,1388.0801999999992,4.0,16.0,136.0,17.0,1.0,1.2,0.7,Time
,,S39,1,男,20,anonymized,Serial_Dependence_U,2023.2.3,Win32,60.240963855400565,,,,,,1388.0804000000005,219.0,4.0,1388.0804000000005,219.0,,,,1391.658,1392.1528000000008,1391.1540999999995,1391.658,1389.0916999999993,1391.1538000000007,1392.153,1392.6530999999995,1392.6531999999993,1394.3085999999996,1284.0,1394.3086999999991,4.0,1394.314300000001,4.0,17.0,137.0,11.0,1.0,1.0,0.3,Time
,,S39,1,男,20,anonymized,Serial_Dependence_U,2023.2.3,Win32,60.240963855400565,,,,,,1394.3145999999997,235.0,4.0,1394.3146999999992,235.0,,,,1398.4695,1398.9693000000009,1397.9581999999991,1398.4694000000004,1395.324,1397.9580999999996,1398.9694000000004,1399.4693000000009,1399.4695,1401.2916999999993,1519.0,1401.2919000000004,2.0,1401.2973000000006,4.0,18.0,138.0,19.0,1.0,1.6,0.7,Time
,,S39,1,男,20,anonymized,Serial_Dependence_U,2023.2.3,Win32,60.240963855400565,,,,,,1401.2974000000004,136.0,4.0,1401.2975,136.0,,,,1405.0413000000008,1405.5354000000004,1404.5396999999991,1405.0411999999992,1402.3034000000005,1404.5395,1405.5355999999997,1406.0234000000005,1406.0235,1407.5354000000004,1200.0,1407.5355,3.0,1407.5409000000004,4.0,19.0,139.0,7.0,1.0,1.2,0.7,Time
,,S39,1,男,20,anonymized,Serial_Dependence_U,2023.2.3,Win32,60.240963855400565,,,,,,1407.5410999999997,155.0,4.0,1407.5410999999997,155.0,,,,1410.9031999999993,1411.402,1410.3908000000008,1410.903,1408.5529000000004,1410.3908000000008,1411.402,1411.9018000000008,1411.902,1413.4415,1217.0,1413.4416999999992,5.0,1413.4464000000005,4.0,20.0,140.0,5.0,1.0,0.8,0.7,Time
,,S39,1,男,20,anonymized,Serial_Dependence_U,2023.2.3,Win32,60.240963855400565,,,,,,1413.4465999999995,91.0,4.0,1413.4465999999995,91.0,,,,1417.223699999999,1417.7225999999996,1416.7195,1417.2235999999996,1414.4570999999996,1416.719199999999,1417.7225999999996,1418.218300000001,1418.2185,1420.1405,1516.0,1420.1405999999995,4.0,1420.1455,4.0,21.0,141.0,12.0,1.0,1.2,0.3,Time
,,S39,1,男,20,anonymized,Serial_Dependence_U,2023.2.3,Win32,60.240963855400565,,,,,,1420.1456999999991,44.0,4.0,1420.1456999999991,44.0,,,,1424.1234000000004,1424.6181999999992,1423.6025,1424.1233000000009,1421.14,1423.6021999999991,1424.6183000000008,1425.1203000000007,1425.1203000000007,1427.1401999999991,1691.0,1427.1403000000007,4.0,1427.1454000000003,4.0,22.0,142.0,3.0,1.0,1.4,0.3,Time
,,S39,1,男,20,anonymized,Serial_Dependence_U,2023.2.3,Win32,60.240963855400565,,,,,,1427.1455999999996,134.0,4.0,1427.1456999999991,134.0,,,,1431.0854000000004,1431.584,1430.5731999999991,1431.0850999999996,1428.1395,1430.5731999999991,1431.584199999999,1432.0884000000003,1432.0884000000003,1434.0569000000005,1667.0,1434.0569000000005,4.0,1434.0623000000007,4.0,23.0,143.0,28.0,1.0,1.4,0.7,Time
,,S39,1,男,20,anonymized,Serial_Dependence_U,2023.2.3,Win32,60.240963855400565,,,,,,1434.0625,193.0,4.0,1434.0625999999995,193.0,,,,1437.6225,1438.1213000000007,1437.1066999999991,1437.6224000000004,1435.0554000000004,1437.1065999999996,1438.1214000000004,1438.622,1438.6220999999996,1441.9565,1450.0,1441.9565999999995,5.0,1441.9624000000003,4.0,24.0,144.0,26.0,1.0,1.0,0.7,Time
,,S39,1,男,20,anonymized,Serial_Dependence_U,2023.2.3,Win32,60.240963855400565,,,,,,1441.9625999999996,114.0,4.0,1441.9626999999991,114.0,,,,1445.5725,1446.0668000000007,1445.0519000000004,1445.5724000000002,1442.9899000000005,1445.0514000000005,1446.067,1446.5666999999992,1446.5669000000005,1448.2061999999992,1200.0,1448.2063000000007,4.0,1448.211,4.0,25.0,145.0,21.0,1.0,1.0,0.3,Time
,,S39,1,男,20,anonymized,Serial_Dependence_U,2023.2.3,Win32,60.240963855400565,,,,,,1448.2111999999993,28.0,4.0,1448.2113000000006,28.0,,,,1452.3674000000003,1452.8665,1451.8555,1452.3671999999992,1449.2039000000004,1451.8554000000004,1452.8665999999996,1453.3706999999993,1453.3706999999993,1455.6399000000004,1328.0,1455.64,2.0,1455.645,4.0,26.0,146.0,29.0,1.0,1.6,0.7,Time
,,S39,1,男,20,anonymized,Serial_Dependence_U,2023.2.3,Win32,60.240963855400565,,,,,,1455.6451999999992,100.0,4.0,1455.6451999999992,100.0,,,,1459.2170999999996,1459.7161999999992,1458.7049000000004,1459.2168000000008,1456.6550999999995,1458.7049000000004,1459.7164000000002,1460.2189000000003,1460.2189000000003,1461.7334000000003,1185.0,1461.7335,4.0,1461.7389000000005,4.0,27.0,147.0,16.0,1.0,1.0,0.7,Time
,,S39,1,男,20,anonymized,Serial_Dependence_U,2023.2.3,Win32,60.240963855400565,,,,,,1461.739,95.0,4.0,1461.7390999999996,95.0,,,,1465.6835999999996,1466.183,1465.1715,1465.6833000000008,1462.736,1465.1714000000004,1466.1830999999995,1466.6869000000004,1466.6869000000004,1468.2550999999996,1117.0,1468.2551999999991,2.0,1468.261,4.0,28.0,148.0,18.0,1.0,1.4,0.7,Time
,,S39,1,男,20,anonymized,Serial_Dependence_U,2023.2.3,Win32,60.240963855400565,,,,,,1468.2611999999992,7.0,4.0,1468.2611999999992,7.0,,,,1472.4375999999995,1472.933,1471.921199999999,1472.4375,1469.2548000000006,1471.9210999999996,1472.9330999999995,1473.4326999999992,1473.4329000000002,1491.9150999999997,1370.0,1491.9153000000008,2.0,1491.9210999999996,4.0,29.0,149.0,24.0,1.0,1.6,0.3,Time
,,S39,1,男,20,anonymized,Serial_Dependence_U,2023.2.3,Win32,60.240963855400565,,,,,,1491.9213000000009,87.0,5.0,1494.7868000000008,87.0,s,2.835200000001123,,1498.3534000000004,1498.8478000000007,1497.832,1498.3534000000004,1495.7988000000007,1497.8315999999995,1498.848,1499.352,1499.352,1501.4515999999996,1765.0,1501.4515999999996,5.0,1501.4561999999992,5.0,0.0,150.0,26.0,1.0,1.0,0.7,Time
,,S39,1,男,20,anonymized,Serial_Dependence_U,2023.2.3,Win32,60.240963855400565,,,,,,1501.4564000000005,348.0,5.0,1501.457,348.0,,,,1505.0365999999997,1505.5305999999996,1504.532,1505.0365,1502.4678000000008,1504.531699999999,1505.530800000001,1506.031,1506.0310999999997,1514.6863000000008,1150.0,1514.6864000000005,4.0,1514.6915999999997,5.0,1.0,151.0,1.0,1.0,1.0,0.3,Time
,,S39,1,男,20,anonymized,Serial_Dependence_U,2023.2.3,Win32,60.240963855400565,,,,,,1514.6918000000007,39.0,5.0,1514.6918000000007,39.0,,,,1518.0356999999992,1518.5305999999996,1517.5190999999995,1518.0356999999992,1515.6839000000004,1517.5190999999995,1518.5305999999996,1519.0304000000003,1519.0305,1520.4863000000007,1160.0,1520.4863000000007,5.0,1520.4914000000003,5.0,2.0,152.0,25.0,1.0,0.8,0.7,Time
,,S39,1,男,20,anonymized,Serial_Dependence_U,2023.2.3,Win32,60.240963855400565,,,,,,1520.4915999999996,286.0,5.0,1520.4916999999991,286.0,,,,1524.2810999999997,1524.7801999999992,1523.7691999999993,1524.280800000001,1521.5025999999996,1523.7690999999995,1524.7803000000008,1525.2798000000007,1525.28,1527.1525999999997,1557.0,1527.1526999999992,4.0,1527.1580999999996,5.0,3.0,153.0,2.0,1.0,1.2,0.3,Time
,,S39,1,男,20,anonymized,Serial_Dependence_U,2023.2.3,Win32,60.240963855400565,,,,,,1527.1583000000007,340.0,5.0,1527.1584000000005,340.0,,,,1531.3306999999993,1531.829800000001,1530.8183000000008,1531.3305,1528.1505999999997,1530.8181999999993,1531.8299000000004,1532.332,1532.332,1533.9018000000008,1216.0,1533.902,2.0,1533.9070999999997,5.0,4.0,154.0,24.0,1.0,1.6,0.3,Time
,,S39,1,男,20,anonymized,Serial_Dependence_U,2023.2.3,Win32,60.240963855400565,,,,,,1533.9073000000008,182.0,5.0,1533.9074000000005,182.0,,,,1537.497,1538.0000999999995,1536.9849000000004,1537.4968000000008,1534.9134000000004,1536.9849000000004,1538.0000999999995,1538.4986999999992,1538.4986999999992,1540.085,1278.0,1540.085,4.0,1540.09,5.0,5.0,155.0,21.0,1.0,1.0,0.3,Time
,,S39,1,男,20,anonymized,Serial_Dependence_U,2023.2.3,Win32,60.240963855400565,,,,,,1540.0900999999997,265.0,5.0,1540.0901999999992,265.0,,,,1543.6678000000006,1544.1625,1543.1465999999996,1543.6675999999995,1541.0848000000008,1543.1464000000003,1544.1626999999992,1544.6669000000004,1544.6669000000004,1546.5354000000004,1534.0,1546.5355999999997,5.0,1546.5405,5.0,6.0,156.0,11.0,1.0,1.0,0.3,Time
,,S39,1,男,20,anonymized,Serial_Dependence_U,2023.2.3,Win32,60.240963855400565,,,,,,1546.5405999999996,241.0,5.0,1546.540699999999,241.0,,,,1550.6671999999992,1551.1661999999992,1550.1661999999992,1550.6670999999997,1547.5341999999991,1550.1661999999992,1551.1663000000008,1551.6619000000003,1551.6620999999996,1553.7676999999992,1892.0,1553.7676999999992,4.0,1553.7731999999992,5.0,7.0,157.0,19.0,1.0,1.6,0.7,Time
,,S39,1,男,20,anonymized,Serial_Dependence_U,2023.2.3,Win32,60.240963855400565,,,,,,1553.7734000000005,47.0,5.0,1553.7734000000005,47.0,,,,1557.5176999999992,1558.016,1557.0175,1557.5175999999997,1554.7825,1557.0174000000004,1558.016,1558.5159000000003,1558.516,1561.1840999999995,1768.0,1561.1840999999995,5.0,1561.1896999999992,5.0,8.0,158.0,17.0,1.0,1.2,0.7,Time
,,S39,1,男,20,anonymized,Serial_Dependence_U,2023.2.3,Win32,60.240963855400565,,,,,,1561.1899000000003,220.0,5.0,1561.19,220.0,,,,1565.383,1565.8779000000004,1564.8671999999992,1565.383,1562.2000999999996,1564.8670999999997,1565.878,1566.382300000001,1566.382300000001,1569.568,2233.0,1569.5681999999993,5.0,1569.5733000000007,5.0,9.0,159.0,4.0,1.0,1.6,0.3,Time
,,S39,1,男,20,anonymized,Serial_Dependence_U,2023.2.3,Win32,60.240963855400565,,,,,,1569.5735,281.0,5.0,1569.5735,281.0,,,,1573.345,1573.844199999999,1572.8335,1573.3446999999992,1570.5814000000005,1572.8334000000004,1573.8443000000009,1574.3446999999992,1574.3448000000008,1576.267,1568.0,1576.267,5.0,1576.272,5.0,10.0,160.0,27.0,1.0,1.2,0.7,Time
,,S39,1,男,20,anonymized,Serial_Dependence_U,2023.2.3,Win32,60.240963855400565,,,,,,1576.2720999999997,73.0,5.0,1576.2720999999997,73.0,,,,1579.8159000000005,1580.310699999999,1579.2998000000007,1579.8158000000008,1577.2641999999992,1579.2996999999991,1580.3109000000004,1580.811,1580.8110999999997,1582.1778000000006,1001.0,1582.1779000000004,3.0,1582.1835999999996,5.0,11.0,161.0,6.0,1.0,1.0,0.7,Time
,,S39,1,男,20,anonymized,Serial_Dependence_U,2023.2.3,Win32,60.240963855400565,,,,,,1582.1839000000004,153.0,5.0,1582.184,153.0,,,,1586.3664000000003,1586.8603000000007,1585.8655999999996,1586.3663000000008,1583.1975,1585.8654000000004,1586.8603000000007,1587.3603000000007,1587.3605,1589.0660999999996,1416.0,1589.0661999999993,2.0,1589.0711999999992,5.0,12.0,162.0,14.0,1.0,1.6,0.3,Time
,,S39,1,男,20,anonymized,Serial_Dependence_U,2023.2.3,Win32,60.240963855400565,,,,,,1589.0714000000005,32.0,5.0,1589.0715,32.0,,,,1592.4274000000005,1592.927,1591.917,1592.4273000000007,1590.0824000000005,1591.9169000000004,1592.9270999999997,1593.4268000000006,1593.427,1594.9806999999992,1149.0,1594.9806999999992,5.0,1594.9854000000005,5.0,13.0,163.0,15.0,1.0,0.8,0.7,Time
,,S39,1,男,20,anonymized,Serial_Dependence_U,2023.2.3,Win32,60.240963855400565,,,,,,1594.9855,304.0,5.0,1594.9856999999993,304.0,,,,1598.3445,1598.8476999999991,1597.8325,1598.344199999999,1595.9986999999992,1597.8325,1598.8476999999991,1599.3430999999996,1599.343300000001,1601.0669000000005,1444.0,1601.067,5.0,1601.0719000000004,5.0,14.0,164.0,5.0,1.0,0.8,0.7,Time
,,S39,1,男,20,anonymized,Serial_Dependence_U,2023.2.3,Win32,60.240963855400565,,,,,,1601.0720999999996,305.0,5.0,1601.0721999999992,305.0,,,,1605.0439000000003,1605.5468000000008,1604.5318000000009,1605.0435999999995,1602.08,1604.5315999999996,1605.5468000000008,1606.043,1606.0430999999996,1607.932,1500.0,1607.9320999999995,4.0,1607.9376999999993,5.0,15.0,165.0,8.0,1.0,1.4,0.7,Time
,,S39,1,男,20,anonymized,Serial_Dependence_U,2023.2.3,Win32,60.240963855400565,,,,,,1607.938,7.0,5.0,1607.938,7.0,,,,1612.098,1612.5953000000006,1611.5819000000004,1612.098,1608.9313000000006,1611.5819000000004,1612.5953000000006,1613.0921999999991,1613.0924000000005,1615.2821999999992,1962.0,1615.2824000000005,4.0,1615.2870999999996,5.0,16.0,166.0,9.0,1.0,1.6,0.7,Time
,,S39,1,男,20,anonymized,Serial_Dependence_U,2023.2.3,Win32,60.240963855400565,,,,,,1615.2871999999993,138.0,5.0,1615.2873000000006,138.0,,,,1619.2596999999992,1619.7589000000005,1618.7475,1619.2594000000004,1616.2978000000007,1618.7474000000004,1619.759,1620.2634000000005,1620.2634000000005,1622.1145999999997,1574.0,1622.1145999999997,4.0,1622.1200999999996,5.0,17.0,167.0,18.0,1.0,1.4,0.7,Time
,,S39,1,男,20,anonymized,Serial_Dependence_U,2023.2.3,Win32,60.240963855400565,,,,,,1622.1204000000002,14.0,5.0,1622.1204000000002,14.0,,,,1625.4805999999996,1625.9755,1624.9765,1625.4805999999996,1623.1140999999996,1624.9763000000007,1625.9755,1626.4779000000003,1626.4779000000003,1628.4315,1642.0,1628.4315999999997,5.0,1628.4365,5.0,18.0,168.0,0.0,1.0,0.8,0.3,Time
,,S39,1,男,20,anonymized,Serial_Dependence_U,2023.2.3,Win32,60.240963855400565,,,,,,1628.4366999999993,272.0,5.0,1628.4366999999993,272.0,,,,1631.8138000000008,1632.3085999999996,1631.3095999999996,1631.8136999999992,1629.4474000000002,1631.3095,1632.3086999999991,1632.8085,1632.8085999999996,1634.7478000000008,1750.0,1634.7479000000003,5.0,1634.752699999999,5.0,19.0,169.0,20.0,1.0,0.8,0.3,Time
,,S39,1,男,20,anonymized,Serial_Dependence_U,2023.2.3,Win32,60.240963855400565,,,,,,1634.7529000000004,227.0,5.0,1634.753,227.0,,,,1638.729,1639.2245,1638.209300000001,1638.729,1635.7469000000003,1638.2090999999996,1639.2245999999996,1639.7245,1639.7245999999996,1641.6634000000004,1649.0,1641.6634000000004,4.0,1641.6688000000008,5.0,20.0,170.0,23.0,1.0,1.4,0.3,Time
,,S39,1,男,20,anonymized,Serial_Dependence_U,2023.2.3,Win32,60.240963855400565,,,,,,1641.669,255.0,5.0,1641.6690999999996,255.0,,,,1645.0629000000004,1645.5578000000007,1644.5459000000003,1645.0629000000004,1642.6785999999995,1644.5458000000008,1645.5579000000002,1646.0575,1646.0576999999992,1647.9635,1617.0,1647.9635,5.0,1647.9686999999992,5.0,21.0,171.0,10.0,1.0,0.8,0.3,Time
,,S39,1,男,20,anonymized,Serial_Dependence_U,2023.2.3,Win32,60.240963855400565,,,,,,1647.9689000000003,84.0,5.0,1647.969,84.0,,,,1651.7625999999996,1652.2575,1651.2465,1651.7625,1648.9800999999995,1651.2464000000004,1652.2576999999992,1652.7451999999992,1652.7453000000007,1654.6628000000007,1594.0,1654.6628000000007,5.0,1654.6676999999993,5.0,22.0,172.0,22.0,1.0,1.2,0.3,Time
,,S39,1,男,20,anonymized,Serial_Dependence_U,2023.2.3,Win32,60.240963855400565,,,,,,1654.6678000000006,249.0,5.0,1654.6679000000004,249.0,,,,1658.6453000000008,1659.1406999999992,1658.1248000000007,1658.6451999999992,1655.6625,1658.1245,1659.1409000000003,1659.64,1659.6401999999991,1661.5736999999992,1593.0,1661.5739000000003,4.0,1661.5791999999992,5.0,23.0,173.0,3.0,1.0,1.4,0.3,Time
,,S39,1,男,20,anonymized,Serial_Dependence_U,2023.2.3,Win32,60.240963855400565,,,,,,1661.5794000000003,199.0,5.0,1661.5794000000003,199.0,,,,1665.5746999999992,1666.0735,1665.0629000000004,1665.5744000000004,1662.596,1665.0628000000008,1666.0735999999995,1666.5760999999995,1666.5760999999995,1668.9124000000004,2000.0,1668.9125,5.0,1668.9178000000006,5.0,24.0,174.0,13.0,1.0,1.4,0.3,Time
,,S39,1,男,20,anonymized,Serial_Dependence_U,2023.2.3,Win32,60.240963855400565,,,,,,1668.9179000000004,218.0,5.0,1668.9180999999996,218.0,,,,1672.462,1672.9563000000007,1671.9460999999997,1672.4619000000002,1669.9124000000004,1671.946,1672.9564000000005,1673.4605999999997,1673.4606999999992,1675.4628000000007,1725.0,1675.4628000000007,5.0,1675.4676999999992,5.0,25.0,175.0,16.0,1.0,1.0,0.7,Time
,,S39,1,男,20,anonymized,Serial_Dependence_U,2023.2.3,Win32,60.240963855400565,,,,,,1675.4678000000008,18.0,5.0,1675.4679000000003,18.0,,,,1679.6283000000008,1680.1226999999992,1679.1115,1679.6283000000008,1676.4786999999992,1679.1114000000005,1680.1228000000008,1680.6230999999996,1680.6233000000009,1683.3954000000003,2450.0,1683.3954000000003,5.0,1683.4009000000003,5.0,26.0,176.0,29.0,1.0,1.6,0.7,Time
,,S39,1,男,20,anonymized,Serial_Dependence_U,2023.2.3,Win32,60.240963855400565,,,,,,1683.4010999999996,119.0,5.0,1683.4010999999996,119.0,,,,1687.3734000000004,1687.8724000000004,1686.8615,1687.373199999999,1684.411,1686.8614000000005,1687.8725999999997,1688.3725999999997,1688.3728000000008,1690.4785,1883.0,1690.4785999999997,5.0,1690.4840999999997,5.0,27.0,177.0,28.0,1.0,1.4,0.7,Time
,,S39,1,男,20,anonymized,Serial_Dependence_U,2023.2.3,Win32,60.240963855400565,,,,,,1690.4843000000008,99.0,5.0,1690.4844000000005,99.0,,,,1694.2393000000006,1694.7389000000005,1693.7279000000003,1694.2390999999996,1691.4779000000003,1693.7276999999992,1694.7390999999996,1695.2386999999992,1695.2389000000005,1697.7276999999992,2161.0,1697.7276999999992,5.0,1697.732699999999,5.0,28.0,178.0,7.0,1.0,1.2,0.7,Time
,,S39,1,男,20,anonymized,Serial_Dependence_U,2023.2.3,Win32,60.240963855400565,,,,,,1697.7329000000004,219.0,5.0,1697.7329000000004,219.0,,,,1701.4936999999993,1701.9886999999992,1700.9895999999997,1701.4935999999996,1698.7275,1700.9894000000004,1701.9888000000008,1702.4886999999992,1702.4888000000008,1704.3775999999996,1517.0,1704.377699999999,4.0,1704.3830999999996,5.0,29.0,179.0,12.0,1.0,1.2,0.3,Time
,,S39,1,男,20,anonymized,Serial_Dependence_U,2023.2.3,Win32,60.240963855400565,,,,,,1704.3831999999993,123.0,6.0,1707.1253000000008,123.0,s,2.731599999999617,,1710.8934000000004,1711.3875999999996,1710.3773000000008,1710.8934000000004,1708.127800000001,1710.3771999999992,1711.3876999999993,1711.8935999999997,1711.8936999999992,1713.8384000000003,1568.0,1713.8385999999996,5.0,1713.8436999999992,6.0,0.0,180.0,7.0,1.0,1.2,0.7,Time
,,S39,1,男,20,anonymized,Serial_Dependence_U,2023.2.3,Win32,60.240963855400565,,,,,,1713.8439000000003,244.0,6.0,1713.8445999999997,244.0,,,,1717.2430999999997,1717.7375,1716.7268000000008,1717.2430999999997,1714.855,1716.7266999999993,1717.7375999999997,1718.238,1718.2380999999996,1720.6876999999993,2070.0,1720.6878000000008,5.0,1720.6935999999996,6.0,1.0,181.0,0.0,1.0,0.8,0.3,Time
,,S39,1,男,20,anonymized,Serial_Dependence_U,2023.2.3,Win32,60.240963855400565,,,,,,1720.6938000000007,283.0,6.0,1720.6939000000004,283.0,,,,1724.6764000000005,1725.1709000000003,1724.158,1724.6764000000005,1721.6928000000007,1724.158,1725.171,1725.6709000000003,1725.671,1727.6541999999993,1672.0,1727.6543000000008,4.0,1727.66,6.0,2.0,182.0,23.0,1.0,1.4,0.3,Time
,,S39,1,男,20,anonymized,Serial_Dependence_U,2023.2.3,Win32,60.240963855400565,,,,,,1727.6603000000007,45.0,6.0,1727.6604000000004,45.0,,,,1731.2594000000004,1731.754,1730.7424000000003,1731.2593000000006,1728.6755999999996,1730.7424000000003,1731.7540999999997,1732.254,1732.2541999999992,1773.6186999999993,1754.0,1773.6188000000006,5.0,1773.6248000000007,6.0,3.0,183.0,11.0,1.0,1.0,0.3,Time
,,S39,1,男,20,anonymized,Serial_Dependence_U,2023.2.3,Win32,60.240963855400565,,,,,,1773.6249000000005,217.0,6.0,1773.625,217.0,,,,1777.4064000000003,1777.902,1776.8859000000004,1777.4063000000008,1774.6238000000008,1776.8856999999991,1777.902,1778.4018000000008,1778.4019000000003,1780.3740999999995,1684.0,1780.3740999999995,5.0,1780.3799000000004,6.0,4.0,184.0,12.0,1.0,1.2,0.3,Time
,,S39,1,男,20,anonymized,Serial_Dependence_U,2023.2.3,Win32,60.240963855400565,,,,,,1780.3800999999996,67.0,6.0,1780.3800999999996,67.0,,,,1783.7523000000008,1784.2510999999995,1783.2410999999995,1783.7521999999992,1781.3904000000005,1783.2410999999995,1784.2511999999992,1784.7391999999993,1784.7391999999993,1786.7239000000004,1700.0,1786.7239000000004,5.0,1786.7289000000003,6.0,5.0,185.0,25.0,1.0,0.8,0.7,Time
,,S39,1,男,20,anonymized,Serial_Dependence_U,2023.2.3,Win32,60.240963855400565,,,,,,1786.729,358.0,6.0,1786.7290999999996,358.0,,,,1790.9065,1791.401300000001,1790.3904000000005,1790.9065,1787.7404000000004,1790.3903000000007,1791.4014000000004,1791.901300000001,1791.9014000000004,1794.2176999999992,1957.0,1794.2178000000008,4.0,1794.223800000001,6.0,6.0,186.0,9.0,1.0,1.6,0.7,Time
,,S39,1,男,20,anonymized,Serial_Dependence_U,2023.2.3,Win32,60.240963855400565,,,,,,1794.224,168.0,6.0,1794.2240999999997,168.0,,,,1798.187699999999,1798.6838000000007,1797.685,1798.187699999999,1795.2229000000004,1797.684699999999,1798.6840000000002,1799.1844999999998,1799.184699999999,1801.2399000000005,1800.0,1801.2399999999998,4.0,1801.245,6.0,7.0,187.0,13.0,1.0,1.4,0.3,Time
,,S39,1,男,20,anonymized,Serial_Dependence_U,2023.2.3,Win32,60.240963855400565,,,,,,1801.2451999999994,345.0,6.0,1801.245300000001,345.0,,,,1805.2011,1805.7003000000009,1804.689300000001,1805.2009000000005,1802.2561,1804.6891999999996,1805.7005,1806.2003000000009,1806.2005,1811.9561999999992,1750.0,1811.9561999999992,4.0,1811.9614,6.0,8.0,188.0,18.0,1.0,1.4,0.7,Time
,,S39,1,男,20,anonymized,Serial_Dependence_U,2023.2.3,Win32,60.240963855400565,,,,,,1811.9616,333.0,6.0,1811.9616,333.0,,,,1816.117800000001,1816.6165,1815.6059000000005,1816.1175,1812.9726999999996,1815.6058000000007,1816.6166999999991,1817.1166999999991,1817.1168000000007,1819.2555999999995,1566.0,1819.2556999999997,3.0,1819.2616,6.0,9.0,189.0,19.0,1.0,1.6,0.7,Time
,,S39,1,男,20,anonymized,Serial_Dependence_U,2023.2.3,Win32,60.240963855400565,,,,,,1819.2619000000004,337.0,6.0,1819.262,337.0,,,,1822.817199999999,1823.3191,1822.305,1822.817,1820.2715,1822.305,1823.3191,1823.8158000000008,1823.8161,1826.1053000000009,1967.0,1826.1053000000009,5.0,1826.1103000000007,6.0,10.0,190.0,16.0,1.0,1.0,0.7,Time
,,S39,1,男,20,anonymized,Serial_Dependence_U,2023.2.3,Win32,60.240963855400565,,,,,,1826.1105,285.0,6.0,1826.1105,285.0,,,,1829.4545,1829.9491,1828.9505,1829.4544000000003,1827.1168000000007,1828.9501999999995,1829.949199999999,1830.449300000001,1830.4495,1832.6388000000009,1851.0,1832.6389000000004,5.0,1832.6440999999995,6.0,11.0,191.0,5.0,1.0,0.8,0.7,Time
,,S39,1,男,20,anonymized,Serial_Dependence_U,2023.2.3,Win32,60.240963855400565,,,,,,1832.6443000000008,332.0,6.0,1832.6443000000008,332.0,,,,1836.2216999999991,1836.7150999999997,1835.7046999999995,1836.2216999999991,1833.6543000000008,1835.7046,1836.7153000000008,1837.2191,1837.2191,1839.3545,1850.0,1839.3546,5.0,1839.3593000000003,6.0,12.0,192.0,26.0,1.0,1.0,0.7,Time
,,S39,1,男,20,anonymized,Serial_Dependence_U,2023.2.3,Win32,60.240963855400565,,,,,,1839.3595,32.0,6.0,1839.3595,32.0,,,,1843.3191,1843.815199999999,1842.8044000000004,1843.3191,1840.3709000000003,1842.8043000000007,1843.815300000001,1844.3154000000004,1844.3155999999997,1846.5878000000007,1933.0,1846.5879000000004,5.0,1846.5931,6.0,13.0,193.0,28.0,1.0,1.4,0.7,Time
,,S39,1,男,20,anonymized,Serial_Dependence_U,2023.2.3,Win32,60.240963855400565,,,,,,1846.593300000001,207.0,6.0,1846.5934,207.0,,,,1850.7658000000008,1851.2646999999995,1850.2536999999995,1850.7655,1847.5871,1850.2536,1851.2649000000008,1851.7651999999996,1851.765300000001,1854.1379,2051.0,1854.138,4.0,1854.1429000000005,6.0,14.0,194.0,4.0,1.0,1.6,0.3,Time
,,S39,1,男,20,anonymized,Serial_Dependence_U,2023.2.3,Win32,60.240963855400565,,,,,,1854.1431,313.0,6.0,1854.143199999999,313.0,,,,1858.2823000000008,1858.7813000000008,1857.7696999999996,1858.2820999999997,1855.1361999999997,1857.7696999999996,1858.7814000000003,1859.2814000000003,1859.2818000000009,1861.6706999999992,2109.0,1861.6706999999992,5.0,1861.676,6.0,15.0,195.0,29.0,1.0,1.6,0.7,Time
,,S39,1,男,20,anonymized,Serial_Dependence_U,2023.2.3,Win32,60.240963855400565,,,,,,1861.6761999999997,76.0,6.0,1861.6761999999997,76.0,,,,1865.2530999999997,1865.752,1864.7323000000008,1865.253,1862.669699999999,1864.7321,1865.752,1866.2476999999997,1866.2479000000003,1868.6876,2051.0,1868.6876,5.0,1868.693,6.0,16.0,196.0,21.0,1.0,1.0,0.3,Time
,,S39,1,男,20,anonymized,Serial_Dependence_U,2023.2.3,Win32,60.240963855400565,,,,,,1868.6931999999997,102.0,6.0,1868.6933000000008,102.0,,,,1872.9024000000004,1873.3973000000003,1872.3814,1872.9024000000004,1869.715,1872.3811999999996,1873.3974000000003,1873.901,1873.901,1876.6205,2184.0,1876.6206,5.0,1876.6256999999991,6.0,17.0,197.0,14.0,1.0,1.6,0.3,Time
,,S39,1,男,20,anonymized,Serial_Dependence_U,2023.2.3,Win32,60.240963855400565,,,,,,1876.6259000000005,110.0,6.0,1876.626,110.0,,,,1880.5860999999995,1881.0803000000003,1880.0694000000003,1880.5859000000005,1877.6364000000003,1880.0691999999997,1881.0804000000005,1881.5804000000005,1881.5805,1883.752800000001,1800.0,1883.752800000001,4.0,1883.7575999999997,6.0,18.0,198.0,8.0,1.0,1.4,0.7,Time
,,S39,1,男,20,anonymized,Serial_Dependence_U,2023.2.3,Win32,60.240963855400565,,,,,,1883.7578000000008,273.0,6.0,1883.7578000000008,273.0,,,,1887.0976999999996,1887.5969000000005,1886.5853000000009,1887.0975,1884.750199999999,1886.5851,1887.5969000000005,1888.1004000000005,1888.1004000000005,1890.3020999999997,1749.0,1890.3020999999997,5.0,1890.3070999999995,6.0,19.0,199.0,15.0,1.0,0.8,0.7,Time
,,S39,1,男,20,anonymized,Serial_Dependence_U,2023.2.3,Win32,60.240963855400565,,,,,,1890.3071999999995,340.0,6.0,1890.3073000000009,340.0,,,,1893.7003000000009,1894.1961,1893.1805,1893.7001999999995,1891.3184000000008,1893.1801999999996,1894.1963000000003,1894.6961999999996,1894.6964000000005,1896.1679000000004,1261.0,1896.1679000000004,5.0,1896.1730999999995,6.0,20.0,200.0,20.0,1.0,0.8,0.3,Time
,,S39,1,男,20,anonymized,Serial_Dependence_U,2023.2.3,Win32,60.240963855400565,,,,,,1896.1733000000008,83.0,6.0,1896.1734,83.0,,,,1899.9681,1900.466699999999,1899.4465,1899.968,1897.184800000001,1899.4463000000003,1900.466699999999,1900.9628000000007,1900.9628000000007,1902.4515,1018.0,1902.4515999999996,2.0,1902.4565999999995,6.0,21.0,201.0,22.0,1.0,1.2,0.3,Time
,,S39,1,男,20,anonymized,Serial_Dependence_U,2023.2.3,Win32,60.240963855400565,,,,,,1902.4566999999995,186.0,6.0,1902.4568000000008,186.0,,,,1906.0179000000005,1906.5121999999992,1905.5133000000003,1906.0178000000003,1903.4515,1905.5131,1906.5123000000008,1907.0165,1907.0165,1909.0023000000008,1734.0,1909.0024000000003,5.0,1909.0075999999997,6.0,22.0,202.0,1.0,1.0,1.0,0.3,Time
,,S39,1,男,20,anonymized,Serial_Dependence_U,2023.2.3,Win32,60.240963855400565,,,,,,1909.0078000000008,117.0,6.0,1909.0079000000003,117.0,,,,1912.7631,1913.2628000000009,1912.2506999999991,1912.7628000000009,1910.0169000000003,1912.2506999999991,1913.2631,1913.7669000000003,1913.7669000000003,1915.7851999999996,1815.0,1915.785300000001,5.0,1915.79,6.0,23.0,203.0,27.0,1.0,1.2,0.7,Time
,,S39,1,男,20,anonymized,Serial_Dependence_U,2023.2.3,Win32,60.240963855400565,,,,,,1915.7901,289.0,6.0,1915.7901999999997,289.0,,,,1919.3631,1919.8621,1918.851,1919.3628000000008,1916.800800000001,1918.8509000000004,1919.8621999999991,1920.362,1920.3621999999991,1922.3285,1662.0,1922.3286,5.0,1922.3338000000008,6.0,24.0,204.0,6.0,1.0,1.0,0.7,Time
,,S39,1,男,20,anonymized,Serial_Dependence_U,2023.2.3,Win32,60.240963855400565,,,,,,1922.334,102.0,6.0,1922.3341,102.0,,,,1926.315300000001,1926.8114000000005,1925.7986999999996,1926.315199999999,1923.3333000000007,1925.7985,1926.8115999999995,1927.3114000000005,1927.3115999999995,1929.4836,1916.0,1929.4836999999995,5.0,1929.489,6.0,25.0,205.0,3.0,1.0,1.4,0.3,Time
,,S39,1,男,20,anonymized,Serial_Dependence_U,2023.2.3,Win32,60.240963855400565,,,,,,1929.4891,144.0,6.0,1929.489199999999,144.0,,,,1932.8498000000009,1933.3444000000004,1932.3455,1932.8498000000009,1930.4829000000004,1932.3453000000009,1933.3445999999997,1933.8446999999992,1933.8448000000008,1935.4506999999996,1333.0,1935.4508000000003,5.0,1935.4555,6.0,26.0,206.0,10.0,1.0,0.8,0.3,Time
,,S39,1,男,20,anonymized,Serial_Dependence_U,2023.2.3,Win32,60.240963855400565,,,,,,1935.4556,195.0,6.0,1935.455699999999,195.0,,,,1939.2498000000005,1939.744,1938.7285999999997,1939.2496999999996,1936.4615,1938.7284000000004,1939.7441999999992,1940.2445,1940.2445999999995,1942.8496,2316.0,1942.8496999999995,5.0,1942.855,6.0,27.0,207.0,2.0,1.0,1.2,0.3,Time
,,S39,1,男,20,anonymized,Serial_Dependence_U,2023.2.3,Win32,60.240963855400565,,,,,,1942.855199999999,4.0,6.0,1942.8553000000009,4.0,,,,1947.0325,1947.5274000000004,1946.5281999999995,1947.0325,1943.8614,1946.528,1947.5274000000004,1948.0311999999997,1948.0311999999997,1951.5100999999995,3172.0,1951.5103000000008,5.0,1951.5166999999992,6.0,28.0,208.0,24.0,1.0,1.6,0.3,Time
,,S39,1,男,20,anonymized,Serial_Dependence_U,2023.2.3,Win32,60.240963855400565,,,,,,1951.5169000000003,170.0,6.0,1951.5169000000003,170.0,,,,1955.2941999999996,1955.7935,1954.7825,1955.294,1952.5320999999997,1954.7824000000005,1955.7936999999995,1956.2979000000005,1956.2979000000005,1958.127,1689.0,1958.1271,5.0,1958.1325,6.0,29.0,209.0,17.0,1.0,1.2,0.7,Time
,,S39,1,男,20,anonymized,Serial_Dependence_U,2023.2.3,Win32,60.240963855400565,,,,,,1958.1325999999997,178.0,7.0,1960.1931999999997,178.0,s,2.0385999999998603,,1963.7981999999995,1964.2971,1963.2818000000009,1963.7980999999995,1961.2151999999992,1963.2818000000009,1964.2971,1964.7933000000007,1964.7934000000005,1966.7321,1744.0,1966.7321,5.0,1966.737,7.0,0.0,210.0,11.0,1.0,1.0,0.3,Time
,,S39,1,男,20,anonymized,Serial_Dependence_U,2023.2.3,Win32,60.240963855400565,,,,,,1966.7371999999991,100.0,7.0,1966.7376999999992,100.0,,,,1970.3314000000005,1970.8261,1969.810699999999,1970.3313000000007,1967.748199999999,1969.8105,1970.826199999999,1971.326199999999,1971.3263000000009,1973.3426999999992,1750.0,1973.3429000000008,5.0,1973.348699999999,7.0,1.0,211.0,1.0,1.0,1.0,0.3,Time
,,S39,1,男,20,anonymized,Serial_Dependence_U,2023.2.3,Win32,60.240963855400565,,,,,,1973.3489000000004,159.0,7.0,1973.349,159.0,,,,1977.5436999999995,1978.0468000000003,1977.0313000000008,1977.5435,1974.3644000000004,1977.0311,1978.0468000000003,1978.5426,1978.5428000000009,1980.8980999999997,2211.0,1980.8981999999992,5.0,1980.9038000000005,7.0,2.0,212.0,14.0,1.0,1.6,0.3,Time
,,S39,1,男,20,anonymized,Serial_Dependence_U,2023.2.3,Win32,60.240963855400565,,,,,,1980.904,358.0,7.0,1980.9041,358.0,,,,1984.2481,1984.7421999999992,1983.7471999999996,1984.248,1981.914,1983.7471,1984.7423000000008,1985.2420999999997,1985.2423000000008,1986.8315,1300.0,1986.8315,5.0,1986.8364,7.0,3.0,213.0,25.0,1.0,0.8,0.7,Time
,,S39,1,男,20,anonymized,Serial_Dependence_U,2023.2.3,Win32,60.240963855400565,,,,,,1986.8366,269.0,7.0,1986.8366999999996,269.0,,,,1990.3971,1990.8914000000004,1989.8805999999995,1990.3971,1987.8474000000008,1989.8805999999995,1990.8915,1991.396,1991.396,1993.1488000000008,1468.0,1993.1488000000008,5.0,1993.154,7.0,4.0,214.0,6.0,1.0,1.0,0.7,Time
,,S39,1,男,20,anonymized,Serial_Dependence_U,2023.2.3,Win32,60.240963855400565,,,,,,1993.1541,4.0,7.0,1993.154199999999,4.0,,,,1997.1256999999991,1997.6248000000005,1996.613300000001,1997.1255,1994.1796999999992,1996.6131999999996,1997.625,1998.1249000000005,1998.125199999999,2000.6456,2284.0,2000.6456999999991,5.0,2000.6505,7.0,5.0,215.0,18.0,1.0,1.4,0.7,Time
,,S39,1,男,20,anonymized,Serial_Dependence_U,2023.2.3,Win32,60.240963855400565,,,,,,2000.6506999999992,160.0,7.0,2000.6506999999992,160.0,,,,2004.6256999999991,2005.1246,2004.1134,2004.6254000000004,2001.6635,2004.113300000001,2005.1246999999996,2005.6280999999997,2005.6280999999997,2007.9469000000004,2200.0,2007.9469000000004,5.0,2007.9524000000008,7.0,6.0,216.0,28.0,1.0,1.4,0.7,Time
,,S39,1,男,20,anonymized,Serial_Dependence_U,2023.2.3,Win32,60.240963855400565,,,,,,2007.9525,346.0,7.0,2007.9525,346.0,,,,2012.1294000000005,2012.6281999999992,2011.6129000000003,2012.1293000000005,2008.9464000000005,2011.6129000000003,2012.6281999999992,2013.1285,2013.1286,2016.8303000000003,3334.0,2016.8305,5.0,2016.8358000000007,7.0,7.0,217.0,4.0,1.0,1.6,0.3,Time
,,S39,1,男,20,anonymized,Serial_Dependence_U,2023.2.3,Win32,60.240963855400565,,,,,,2016.8359000000005,232.0,7.0,2016.836,232.0,,,,2020.5914,2021.0904000000005,2020.078199999999,2020.5911999999996,2017.8449000000005,2020.078199999999,2021.0905,2021.5905,2021.5905999999995,2024.0641999999996,2135.0,2024.064300000001,5.0,2024.069800000001,7.0,8.0,218.0,17.0,1.0,1.2,0.7,Time
,,S39,1,男,20,anonymized,Serial_Dependence_U,2023.2.3,Win32,60.240963855400565,,,,,,2024.0700999999997,43.0,7.0,2024.0700999999997,43.0,,,,2027.6625,2028.1569000000004,2027.1458000000007,2027.6624,2025.0945,2027.1456999999991,2028.1569000000004,2028.6569000000004,2028.657,2030.7291,1900.0,2030.7291999999995,5.0,2030.734,7.0,9.0,219.0,16.0,1.0,1.0,0.7,Time
,,S39,1,男,20,anonymized,Serial_Dependence_U,2023.2.3,Win32,60.240963855400565,,,,,,2030.7343000000003,282.0,7.0,2030.7343000000003,282.0,,,,2034.290800000001,2034.7895,2033.7793000000008,2034.2905,2031.7456,2033.779199999999,2034.7896999999996,2035.2774000000004,2035.2774000000004,2037.3733000000009,1800.0,2037.3735,5.0,2037.3786999999995,7.0,10.0,220.0,26.0,1.0,1.0,0.7,Time
,,S39,1,男,20,anonymized,Serial_Dependence_U,2023.2.3,Win32,60.240963855400565,,,,,,2037.3789,195.0,7.0,2037.3789,195.0,,,,2041.3618000000008,2041.8605,2040.8406999999995,2041.361699999999,2038.377800000001,2040.8405,2041.8605,2042.356,2042.3561999999995,2044.4630999999997,1851.0,2044.4631999999992,5.0,2044.468300000001,7.0,11.0,221.0,23.0,1.0,1.4,0.3,Time
,,S39,1,男,20,anonymized,Serial_Dependence_U,2023.2.3,Win32,60.240963855400565,,,,,,2044.4686,160.0,7.0,2044.4686999999997,160.0,,,,2048.0568000000007,2048.5558000000005,2047.5403000000008,2048.0565,2045.478,2047.5401,2048.556,2049.0556999999994,2049.0558000000005,2051.0784000000003,1844.0,2051.0784000000003,5.0,2051.0834000000004,7.0,12.0,222.0,21.0,1.0,1.0,0.3,Time
,,S39,1,男,20,anonymized,Serial_Dependence_U,2023.2.3,Win32,60.240963855400565,,,,,,2051.0835,183.0,7.0,2051.0835999999995,183.0,,,,2054.827300000001,2055.3249000000005,2054.311,2054.8271999999997,2052.078,2054.3109000000004,2055.3249000000005,2055.822,2055.822199999999,2058.0891,1983.0,2058.0891999999994,5.0,2058.095,7.0,13.0,223.0,27.0,1.0,1.2,0.7,Time
,,S39,1,男,20,anonymized,Serial_Dependence_U,2023.2.3,Win32,60.240963855400565,,,,,,2058.0950999999995,63.0,7.0,2058.0950999999995,63.0,,,,2061.494,2061.992800000001,2060.9726,2061.494,2059.1105,2060.972400000001,2061.992800000001,2062.4889000000003,2062.4889000000003,2064.994800000001,2217.0,2064.994800000001,5.0,2064.9995,7.0,14.0,224.0,0.0,1.0,0.8,0.3,Time
,,S39,1,男,20,anonymized,Serial_Dependence_U,2023.2.3,Win32,60.240963855400565,,,,,,2064.9996999999994,12.0,7.0,2064.9996999999994,12.0,,,,2068.3436999999994,2068.8381999999992,2067.8268000000007,2068.3436,2065.9938000000006,2067.826699999999,2068.838300000001,2069.3384000000005,2069.3386,2071.6439000000005,2061.0,2071.644,5.0,2071.6486999999997,7.0,15.0,225.0,5.0,1.0,0.8,0.7,Time
,,S39,1,男,20,anonymized,Serial_Dependence_U,2023.2.3,Win32,60.240963855400565,,,,,,2071.6489,102.0,7.0,2071.649,102.0,,,,2075.407800000001,2075.904699999999,2074.889199999999,2075.4076999999997,2072.6556,2074.889,2075.9048000000007,2076.4045999999994,2076.4048000000007,2078.4445,1851.0,2078.444699999999,5.0,2078.4495999999995,7.0,16.0,226.0,7.0,1.0,1.2,0.7,Time
,,S39,1,男,20,anonymized,Serial_Dependence_U,2023.2.3,Win32,60.240963855400565,,,,,,2078.449699999999,97.0,7.0,2078.449800000001,97.0,,,,2081.8593000000005,2082.354300000001,2081.342900000001,2081.8593000000005,2079.4765,2081.342900000001,2082.3544,2082.8544,2082.8546,2084.793800000001,1778.0,2084.7939000000006,5.0,2084.799,7.0,17.0,227.0,20.0,1.0,0.8,0.3,Time
,,S39,1,男,20,anonymized,Serial_Dependence_U,2023.2.3,Win32,60.240963855400565,,,,,,2084.7991,248.0,7.0,2084.799199999999,248.0,,,,2088.5714000000003,2089.0704000000005,2088.059400000001,2088.5711999999994,2085.7926,2088.059300000001,2089.0705,2089.558,2089.5581,2091.654,2006.0,2091.654,5.0,2091.6595999999995,7.0,18.0,228.0,2.0,1.0,1.2,0.3,Time
,,S39,1,男,20,anonymized,Serial_Dependence_U,2023.2.3,Win32,60.240963855400565,,,,,,2091.659800000001,231.0,7.0,2091.659900000001,231.0,,,,2095.6425,2096.141199999999,2095.1259000000005,2095.6425,2092.6596999999992,2095.1258000000007,2096.141199999999,2096.6394000000005,2096.6394000000005,2098.576699999999,1793.0,2098.5769000000005,4.0,2098.5819,7.0,19.0,229.0,3.0,1.0,1.4,0.3,Time
,,S39,1,男,20,anonymized,Serial_Dependence_U,2023.2.3,Win32,60.240963855400565,,,,,,2098.582,292.0,7.0,2098.582,292.0,,,,2102.7206,2103.2199000000005,2102.2089000000005,2102.7204,2099.5739000000003,2102.208800000001,2103.2200999999995,2103.719699999999,2103.72,2106.103800000001,2294.0,2106.1039000000005,5.0,2106.1091,7.0,20.0,230.0,29.0,1.0,1.6,0.7,Time
,,S39,1,男,20,anonymized,Serial_Dependence_U,2023.2.3,Win32,60.240963855400565,,,,,,2106.1091999999994,285.0,7.0,2106.1093000000005,285.0,,,,2110.091699999999,2110.5903000000008,2109.575,2110.0916,2107.1246999999994,2109.575,2110.5903000000008,2111.086,2111.0860999999995,2113.492,2190.0,2113.492,5.0,2113.4974,7.0,21.0,231.0,8.0,1.0,1.4,0.7,Time
,,S39,1,男,20,anonymized,Serial_Dependence_U,2023.2.3,Win32,60.240963855400565,,,,,,2113.4976,351.0,7.0,2113.4976999999994,351.0,,,,2116.8704,2117.369199999999,2116.3579000000004,2116.8701,2114.5085,2116.3579000000004,2117.369199999999,2117.873699999999,2117.8738000000008,2119.84,1722.0,2119.8400999999994,5.0,2119.8445999999994,7.0,22.0,232.0,15.0,1.0,0.8,0.7,Time
,,S39,1,男,20,anonymized,Serial_Dependence_U,2023.2.3,Win32,60.240963855400565,,,,,,2119.844699999999,350.0,7.0,2119.8448000000008,350.0,,,,2123.236300000001,2123.736,2122.719699999999,2123.2361,2120.857699999999,2122.7195,2123.736,2124.2359,2124.236,2126.125,1583.0,2126.1251,5.0,2126.130199999999,7.0,23.0,233.0,10.0,1.0,0.8,0.3,Time
,,S39,1,男,20,anonymized,Serial_Dependence_U,2023.2.3,Win32,60.240963855400565,,,,,,2126.1303000000007,198.0,7.0,2126.1304000000005,198.0,,,,2129.9225999999994,2130.419,2129.4074000000005,2129.9225,2127.140699999999,2129.4073000000008,2130.4192,2130.9186999999997,2130.9189000000006,2133.041800000001,1634.0,2133.042,5.0,2133.0473000000006,7.0,24.0,234.0,12.0,1.0,1.2,0.3,Time
,,S39,1,男,20,anonymized,Serial_Dependence_U,2023.2.3,Win32,60.240963855400565,,,,,,2133.0475999999994,261.0,7.0,2133.0475999999994,261.0,,,,2137.202800000001,2137.704300000001,2136.688199999999,2137.2027,2134.055300000001,2136.6880999999994,2137.704300000001,2138.2059000000004,2138.2059000000004,2140.5246,2185.0,2140.524699999999,5.0,2140.529699999999,7.0,25.0,235.0,19.0,1.0,1.6,0.7,Time
,,S39,1,男,20,anonymized,Serial_Dependence_U,2023.2.3,Win32,60.240963855400565,,,,,,2140.5298000000007,71.0,7.0,2140.5298000000007,71.0,,,,2144.323300000001,2144.822199999999,2143.8023000000007,2144.323300000001,2141.5355,2143.8020999999994,2144.822199999999,2145.322,2145.322,2147.257199999999,1823.0,2147.257199999999,5.0,2147.262,7.0,26.0,236.0,22.0,1.0,1.2,0.3,Time
,,S39,1,男,20,anonymized,Serial_Dependence_U,2023.2.3,Win32,60.240963855400565,,,,,,2147.2620999999995,131.0,7.0,2147.262300000001,131.0,,,,2151.4189000000006,2151.922,2150.9018000000005,2151.4185,2148.2684000000004,2150.9016,2151.922,2152.4204000000004,2152.4204000000004,2154.5401999999995,2050.0,2154.540300000001,4.0,2154.5453000000007,7.0,27.0,237.0,9.0,1.0,1.6,0.7,Time
,,S39,1,男,20,anonymized,Serial_Dependence_U,2023.2.3,Win32,60.240963855400565,,,,,,2154.5455,5.0,7.0,2154.5455,5.0,,,,2158.5401,2159.034,2158.0178000000005,2158.54,2155.556199999999,2158.0176,2159.034199999999,2159.5339000000004,2159.5340999999994,2161.4565999999995,1695.0,2161.4565999999995,4.0,2161.4621,7.0,28.0,238.0,13.0,1.0,1.4,0.3,Time
,,S39,1,男,20,anonymized,Serial_Dependence_U,2023.2.3,Win32,60.240963855400565,,,,,,2161.462199999999,280.0,7.0,2161.4623000000006,280.0,,,,2165.6390999999994,2166.1335,2165.122300000001,2165.639,2162.4556,2165.122300000001,2166.1336,2166.6364000000003,2166.6364000000003,2169.3735,2583.0,2169.373699999999,5.0,2169.378800000001,7.0,29.0,239.0,24.0,1.0,1.6,0.3,Time
,,S39,1,男,20,anonymized,Serial_Dependence_U,2023.2.3,Win32,60.240963855400565,,,,,,2169.379,82.0,8.0,2172.050199999999,82.0,s,2.650699999999233,,2175.6174000000005,2176.1205,2175.105199999999,2175.6170999999995,2173.0675999999994,2175.1051,2176.1206,2176.6161,2176.6163000000006,2178.2055,1435.0,2178.2055,5.0,2178.2103000000006,8.0,0.0,240.0,26.0,1.0,1.0,0.7,Time
,,S39,1,男,20,anonymized,Serial_Dependence_U,2023.2.3,Win32,60.240963855400565,,,,,,2178.2105,348.0,8.0,2178.2110999999995,348.0,,,,2182.155,2182.6499000000003,2181.6505999999995,2182.1549000000005,2179.2175999999995,2181.6504000000004,2182.6499000000003,2183.1538000000005,2183.1538000000005,2185.439300000001,2167.0,2185.4394,5.0,2185.444300000001,8.0,1.0,241.0,8.0,1.0,1.4,0.7,Time
,,S39,1,男,20,anonymized,Serial_Dependence_U,2023.2.3,Win32,60.240963855400565,,,,,,2185.4445,1.0,8.0,2185.4446,1.0,,,,2189.433699999999,2189.9329,2188.9216,2189.4335,2186.4547,2188.9216,2189.933,2190.4326999999994,2190.4329,2192.8051,2183.0,2192.8052,5.0,2192.8101,8.0,2.0,242.0,3.0,1.0,1.4,0.3,Time
,,S39,1,男,20,anonymized,Serial_Dependence_U,2023.2.3,Win32,60.240963855400565,,,,,,2192.8101999999994,129.0,8.0,2192.810300000001,129.0,,,,2196.954199999999,2197.4491,2196.437699999999,2196.9540999999995,2193.8045999999995,2196.437699999999,2197.4493000000007,2197.9489000000003,2197.9491,2200.3214000000003,1967.0,2200.3215,4.0,2200.327,8.0,3.0,243.0,9.0,1.0,1.6,0.7,Time
,,S39,1,男,20,anonymized,Serial_Dependence_U,2023.2.3,Win32,60.240963855400565,,,,,,2200.3271999999997,244.0,8.0,2200.3271999999997,244.0,,,,2204.2994000000003,2204.798800000001,2203.7871999999998,2204.299199999999,2201.3206,2203.7871,2204.798800000001,2205.298300000001,2205.2985,2207.3039000000003,1767.0,2207.3041,4.0,2207.309400000001,8.0,4.0,244.0,23.0,1.0,1.4,0.3,Time
,,S39,1,男,20,anonymized,Serial_Dependence_U,2023.2.3,Win32,60.240963855400565,,,,,,2207.3095,249.0,8.0,2207.3096,249.0,,,,2210.6854000000003,2211.185699999999,2210.1705,2210.6854000000003,2208.303699999999,2210.1705,2211.1858000000007,2211.681699999999,2211.6818000000007,2214.0545,2083.0,2214.0546999999992,5.0,2214.059400000001,8.0,5.0,245.0,10.0,1.0,0.8,0.3,Time
,,S39,1,男,20,anonymized,Serial_Dependence_U,2023.2.3,Win32,60.240963855400565,,,,,,2214.0596,257.0,8.0,2214.0597,257.0,,,,2217.6201,2218.1189000000004,2217.1034000000004,2217.62,2215.0536,2217.103199999999,2218.119,2218.6148000000007,2218.6148000000007,2220.504,1733.0,2220.5041,5.0,2220.509,8.0,6.0,246.0,6.0,1.0,1.0,0.7,Time
,,S39,1,男,20,anonymized,Serial_Dependence_U,2023.2.3,Win32,60.240963855400565,,,,,,2220.509199999999,310.0,8.0,2220.5093000000006,310.0,,,,2224.4695999999994,2224.9641,2223.9527,2224.4695999999994,2221.5033000000008,2223.9527,2224.9641999999994,2225.4643000000005,2225.4645,2228.021199999999,2141.0,2228.021300000001,5.0,2228.0266,8.0,7.0,247.0,18.0,1.0,1.4,0.7,Time
,,S39,1,男,20,anonymized,Serial_Dependence_U,2023.2.3,Win32,60.240963855400565,,,,,,2228.0269000000003,70.0,8.0,2228.0269000000003,70.0,,,,2231.4358000000007,2231.9308000000005,2230.9195,2231.435699999999,2229.0525999999995,2230.9195,2231.9308000000005,2232.4349,2232.4349,2233.9363000000008,1290.0,2233.9363000000008,5.0,2233.9416999999994,8.0,8.0,248.0,20.0,1.0,0.8,0.3,Time
,,S39,1,男,20,anonymized,Serial_Dependence_U,2023.2.3,Win32,60.240963855400565,,,,,,2233.9419000000003,38.0,8.0,2233.9419000000003,38.0,,,,2237.7348000000006,2238.2349000000004,2237.214699999999,2237.7348000000006,2234.9525,2237.2144000000003,2238.2349000000004,2238.7345,2238.7345,2241.1033000000007,2300.0,2241.1033000000007,5.0,2241.108199999999,8.0,9.0,249.0,22.0,1.0,1.2,0.3,Time
,,S39,1,男,20,anonymized,Serial_Dependence_U,2023.2.3,Win32,60.240963855400565,,,,,,2241.108300000001,190.0,8.0,2241.1084000000005,190.0,,,,2245.0646,2245.5635,2244.552199999999,2245.0642,2242.1021,2244.5520999999994,2245.5635999999995,2246.0634000000005,2246.0635999999995,2248.386699999999,2218.0,2248.3869000000004,5.0,2248.392300000001,8.0,10.0,250.0,28.0,1.0,1.4,0.7,Time
,,S39,1,男,20,anonymized,Serial_Dependence_U,2023.2.3,Win32,60.240963855400565,,,,,,2248.3924,95.0,8.0,2248.3926,95.0,,,,2252.5808000000006,2253.079800000001,2252.0685,2252.5805,2249.4019000000003,2252.068400000001,2253.0799,2253.5796,2253.579800000001,2255.602300000001,1845.0,2255.6024,4.0,2255.6078000000007,8.0,11.0,251.0,24.0,1.0,1.6,0.3,Time
,,S39,1,男,20,anonymized,Serial_Dependence_U,2023.2.3,Win32,60.240963855400565,,,,,,2255.608,129.0,8.0,2255.608,129.0,,,,2258.9515999999994,2259.446,2258.447,2258.9515,2256.6136,2258.446699999999,2259.4461,2259.945800000001,2259.946,2262.2200999999995,1751.0,2262.2201999999997,5.0,2262.224800000001,8.0,12.0,252.0,5.0,1.0,0.8,0.7,Time
,,S39,1,男,20,anonymized,Serial_Dependence_U,2023.2.3,Win32,60.240963855400565,,,,,,2262.225,338.0,8.0,2262.225,338.0,,,,2266.213300000001,2266.7124000000003,2265.701699999999,2266.2130999999995,2263.234699999999,2265.701699999999,2266.7125,2267.2124000000003,2267.2125999999994,2269.8013000000005,2266.0,2269.8013000000005,5.0,2269.806699999999,8.0,13.0,253.0,13.0,1.0,1.4,0.3,Time
,,S39,1,男,20,anonymized,Serial_Dependence_U,2023.2.3,Win32,60.240963855400565,,,,,,2269.8068000000007,256.0,8.0,2269.8069000000005,256.0,,,,2273.1679000000004,2273.662,2272.6631,2273.1678000000006,2270.8009,2272.6626999999994,2273.6621999999998,2274.1618000000008,2274.1621,2276.351,1850.0,2276.3510999999994,5.0,2276.356300000001,8.0,14.0,254.0,0.0,1.0,0.8,0.3,Time
,,S39,1,男,20,anonymized,Serial_Dependence_U,2023.2.3,Win32,60.240963855400565,,,,,,2276.3565,174.0,8.0,2276.3566,174.0,,,,2279.7348000000006,2280.2285999999995,2279.2175999999995,2279.7348000000006,2277.3674000000005,2279.2175999999995,2280.228699999999,2280.7285999999995,2280.728699999999,2283.3011,2162.0,2283.3011,5.0,2283.306,8.0,15.0,255.0,15.0,1.0,0.8,0.7,Time
,,S39,1,男,20,anonymized,Serial_Dependence_U,2023.2.3,Win32,60.240963855400565,,,,,,2283.3061,329.0,8.0,2283.306199999999,329.0,,,,2286.8835,2287.3825,2286.3793000000005,2286.8834,2284.315,2286.3791,2287.3825,2287.8823000000007,2287.8823000000007,2289.918,1751.0,2289.918199999999,5.0,2289.924,8.0,16.0,256.0,1.0,1.0,1.0,0.3,Time
