Scale_setup.started,Scale_setup.stopped,participant,session,sex,age,date,expName,psychopyVersion,OS,frameRate,Intro.started,Intro.stopped,key_resp_2.keys,key_resp_2.rt,key_resp_2.duration,block.started,direction,Block_id,block.stopped,trial_direction,Block_resp_2.keys,Block_resp_2.rt,Block_resp_2.duration,ITI.started,ITI.stopped,Mask_2.started,Mask_2.stopped,encoding.started,encoding.stopped,Cue.started,Cue.stopped,Response.started,Response.stopped,keyDuration,Feedback_Time.started,FeedbackID_T,Feedback_Time.stopped,trials.thisRepN,trials.thisTrialN,trials.thisN,trials.thisIndex,trials.ran,TimeDur,Coherence1,TrialType
0.000200000047684,0.0005000000000023,S41,1,,,anonymized,Serial_Dependence_U,2023.2.3,Win32,144.9275362320063,,,,,,,,,,,,,,,,,,,,,,,,,,,,,,,,,,,
,,S41,1,,,anonymized,Serial_Dependence_U,2023.2.3,Win32,144.9275362320063,110.5392000000477,168.43360000014303,space,57.871500000000026,,,,,,,,,,,,,,,,,,,,,,,,,,,,,,,
,,S41,1,,,anonymized,Serial_Dependence_U,2023.2.3,Win32,144.9275362320063,,,,,,168.4375,202.0,0.0,188.893,202.0,s,20.44749999999999,,193.03630000019075,193.5364000000953,192.5308000001907,193.0362000000477,189.89570000004767,192.5307000000477,193.53660000014304,194.03730000019075,194.0375,196.97290000009536,2900.0,196.973,5.0,197.9719000000954,0.0,0.0,0.0,29.0,1.0,1.6,0.7,Time
,,S41,1,,,anonymized,Serial_Dependence_U,2023.2.3,Win32,144.9275362320063,,,,,,197.97230000019076,146.0,0.0,197.97320000004763,146.0,,,,201.71230000019077,202.21240000009536,201.20640000009536,201.71210000014304,198.97310000014303,201.2063000001907,202.21240000009536,202.713,202.713,207.21780000019072,2219.0,207.21780000019072,5.0,208.21880000019075,0.0,1.0,1.0,27.0,1.0,1.2,0.7,Time
,,S41,1,,,anonymized,Serial_Dependence_U,2023.2.3,Win32,144.9275362320063,,,,,,208.2192000000477,16.0,0.0,208.21930000019077,16.0,,,,211.99530000019075,212.49410000014305,211.48830000019075,211.9952000000477,209.22020000004767,211.4882000000477,212.49410000014305,212.9947000000477,212.9948000001907,216.75780000019077,3286.0,216.7579000000954,5.0,217.75660000014307,0.0,2.0,2.0,12.0,1.0,1.2,0.3,Time
,,S41,1,,,anonymized,Serial_Dependence_U,2023.2.3,Win32,144.9275362320063,,,,,,217.757,283.0,0.0,217.75710000014303,283.0,,,,221.52490000009536,222.02510000014303,221.019,221.5247000000477,218.758,221.019,222.02520000004768,222.5257000000477,222.5258000001907,226.3723000001907,3335.0,226.37240000009533,5.0,227.37110000014303,0.0,3.0,3.0,22.0,1.0,1.2,0.3,Time
,,S41,1,,,anonymized,Serial_Dependence_U,2023.2.3,Win32,144.9275362320063,,,,,,227.37140000009535,184.0,0.0,227.3715,184.0,,,,230.715,231.2155,230.20940000009531,230.715,228.3725,230.20930000019075,231.2155,231.71590000009536,231.716,235.23580000019075,3510.0,235.23580000019075,5.0,236.23470000004767,0.0,4.0,4.0,25.0,1.0,0.8,0.7,Time
,,S41,1,,,anonymized,Serial_Dependence_U,2023.2.3,Win32,144.9275362320063,,,,,,236.235,157.0,0.0,236.23510000014304,157.0,,,,240.406,240.9062000000477,239.90030000019075,240.40590000009536,237.2359000000953,239.90020000004768,240.9062000000477,241.40680000019077,241.40680000019077,245.9395,4415.0,245.9395,5.0,246.9404000000953,0.0,5.0,5.0,14.0,1.0,1.6,0.3,Time
,,S41,1,,,anonymized,Serial_Dependence_U,2023.2.3,Win32,144.9275362320063,,,,,,246.94070000004768,229.0,0.0,246.94080000019076,229.0,,,,250.2845,250.78480000019076,249.77890000009532,250.2844000000954,247.9418000001907,249.7788000001908,250.78480000019076,251.28530000019072,251.28540000009536,254.22610000014305,2618.0,254.2262000000477,5.0,255.22710000014305,0.0,6.0,6.0,5.0,1.0,0.8,0.7,Time
,,S41,1,,,anonymized,Serial_Dependence_U,2023.2.3,Win32,144.9275362320063,,,,,,255.22740000009537,135.0,0.0,255.22760000014307,135.0,,,,258.599,259.09910000014304,258.09310000014307,258.599,256.2282000000477,258.093,259.0992000000477,259.5997000000477,259.5998000001907,263.7292000000477,3597.0,263.72930000019073,5.0,264.73010000014307,0.0,7.0,7.0,10.0,1.0,0.8,0.3,Time
,,S41,1,,,anonymized,Serial_Dependence_U,2023.2.3,Win32,144.9275362320063,,,,,,264.73040000009536,344.0,0.0,264.7305,344.0,,,,268.305,268.804,267.7979000000953,268.305,265.7335,267.7978000001907,268.804,269.30440000009537,269.30440000009537,272.9543000001908,3214.0,272.9543000001908,5.0,273.9552000000477,0.0,8.0,8.0,11.0,1.0,1.0,0.3,Time
,,S41,1,,,anonymized,Serial_Dependence_U,2023.2.3,Win32,144.9275362320063,,,,,,273.955600000143,213.0,0.0,273.955600000143,213.0,,,,277.52190000009534,278.022,277.02120000004766,277.52180000019075,274.95660000014306,277.02110000014306,278.022,278.52260000014303,278.52260000014303,281.61630000019073,2629.0,281.61630000019073,5.0,282.61720000004766,0.0,9.0,9.0,1.0,1.0,1.0,0.3,Time
,,S41,1,,,anonymized,Serial_Dependence_U,2023.2.3,Win32,144.9275362320063,,,,,,282.6175,317.0,0.0,282.61760000014306,317.0,,,,286.156,286.6562000000477,285.6495,286.15590000009536,283.6184000000954,285.64940000009534,286.65630000019075,287.15680000019074,287.15680000019074,290.87110000014303,3415.0,290.87110000014303,5.0,291.87,0.0,10.0,10.0,26.0,1.0,1.0,0.7,Time
,,S41,1,,,anonymized,Serial_Dependence_U,2023.2.3,Win32,144.9275362320063,,,,,,291.87030000019075,245.0,0.0,291.87030000019075,245.0,,,,295.83980000019073,296.3402000000477,295.3339000000953,295.83980000019073,292.8713000001908,295.3339000000953,296.3402000000477,296.84060000014307,296.84060000014307,300.2762000000477,3225.0,300.2762000000477,5.0,301.2758000001907,0.0,11.0,11.0,13.0,1.0,1.4,0.3,Time
,,S41,1,,,anonymized,Serial_Dependence_U,2023.2.3,Win32,144.9275362320063,,,,,,301.2762000000477,47.0,0.0,301.2764000000953,47.0,,,,304.6477000000477,305.1479000000954,304.14210000014305,304.64760000014303,302.27710000014304,304.142,305.148,305.64860000014306,305.64860000014306,309.3553000001907,3277.0,309.35540000009536,5.0,310.355,0.0,12.0,12.0,20.0,1.0,0.8,0.3,Time
,,S41,1,,,anonymized,Serial_Dependence_U,2023.2.3,Win32,144.9275362320063,,,,,,310.35520000004766,245.0,0.0,310.3553000001907,245.0,,,,314.32480000019075,314.82490000009534,313.81910000014307,314.3247000000477,311.35630000019074,313.81910000014307,314.825,315.325600000143,315.325600000143,320.3797000000477,4788.0,320.3798000001908,5.0,321.38060000014303,0.0,13.0,13.0,23.0,1.0,1.4,0.3,Time
,,S41,1,,,anonymized,Serial_Dependence_U,2023.2.3,Win32,144.9275362320063,,,,,,321.38080000019073,239.0,0.0,321.381,239.0,,,,325.52410000014305,326.0245,325.0175,325.52410000014305,322.3818000001907,325.0174000000954,326.0245,326.5249000000954,326.525,332.0518000001907,5123.0,332.0519000000954,5.0,333.0527000000477,0.0,14.0,14.0,9.0,1.0,1.6,0.7,Time
,,S41,1,,,anonymized,Serial_Dependence_U,2023.2.3,Win32,144.9275362320063,,,,,,333.0529000000953,122.0,0.0,333.053,122.0,,,,337.0224000000954,337.5227000000477,336.5163000001907,337.02230000019074,334.0539000000954,336.51620000004766,337.5227000000477,338.02320000004767,338.02320000004767,344.54610000014304,6075.0,344.54610000014304,5.0,345.54510000014307,0.0,15.0,15.0,3.0,1.0,1.4,0.3,Time
,,S41,1,,,anonymized,Serial_Dependence_U,2023.2.3,Win32,144.9275362320063,,,,,,345.54540000009536,96.0,0.0,345.54540000009536,96.0,,,,349.71640000009535,350.2167000000477,349.21070000004767,349.7163000001908,346.5464000000954,349.2106000001431,350.2167000000477,350.71710000014303,350.7172000000477,354.5215,3433.0,354.5215,5.0,355.52090000009537,0.0,16.0,16.0,24.0,1.0,1.6,0.3,Time
,,S41,1,,,anonymized,Serial_Dependence_U,2023.2.3,Win32,144.9275362320063,,,,,,355.52120000004766,181.0,0.0,355.5213000001907,181.0,,,,359.4629000000954,359.9631000001431,358.95730000019074,359.4628000001907,356.52230000019074,358.9572000000477,359.9631000001431,360.4637000000477,360.4638000001908,364.26140000009536,3403.0,364.26140000009536,5.0,365.2605,0.0,17.0,17.0,8.0,1.0,1.4,0.7,Time
,,S41,1,,,anonymized,Serial_Dependence_U,2023.2.3,Win32,144.9275362320063,,,,,,365.2607000000477,36.0,0.0,365.2609000000954,36.0,,,,368.994,369.494,368.4932000000477,368.9939000000954,366.2618000001907,368.49310000014304,369.494100000143,369.99470000004766,369.9948000001907,375.8763000001907,5708.0,375.8764000000954,5.0,376.8768000001907,0.0,18.0,18.0,7.0,1.0,1.2,0.7,Time
,,S41,1,,,anonymized,Serial_Dependence_U,2023.2.3,Win32,144.9275362320063,,,,,,376.8771000001431,153.0,0.0,376.8772000000477,153.0,,,,380.2489000000954,380.7491000001431,379.743,380.2488000001907,377.8782000000477,379.74290000009535,380.7491000001431,381.2496000001431,381.2496000001431,385.838,3770.0,385.838,5.0,386.83890000009535,0.0,19.0,19.0,0.0,1.0,0.8,0.3,Time
,,S41,1,,,anonymized,Serial_Dependence_U,2023.2.3,Win32,144.9275362320063,,,,,,386.8393000001908,336.0,0.0,386.83940000009534,336.0,,,,390.60720000004767,391.1073000001907,390.10140000009534,390.607100000143,387.8403000001907,390.10140000009534,391.1073000001907,391.6078000001907,391.60790000009536,395.4384000000953,3546.0,395.4384000000953,5.0,396.4393000001907,0.0,20.0,20.0,2.0,1.0,1.2,0.3,Time
,,S41,1,,,anonymized,Serial_Dependence_U,2023.2.3,Win32,144.9275362320063,,,,,,396.4397000000477,269.0,0.0,396.4398000001907,269.0,,,,399.978,400.4784000000954,399.4724000000953,399.9779000000954,397.4408000001907,399.4724000000953,400.4784000000954,400.9788000001907,400.9789000000954,405.3517000000476,3860.0,405.35180000019074,5.0,406.3527000000477,0.0,21.0,21.0,6.0,1.0,1.0,0.7,Time
,,S41,1,,,anonymized,Serial_Dependence_U,2023.2.3,Win32,144.9275362320063,,,,,,406.353,5.0,0.0,406.3532000000477,5.0,,,,409.9262000000477,410.4265,409.4204000000954,409.9261000001431,407.3539000000954,409.4203000001907,410.4265,410.9271000001431,410.9271000001431,414.766100000143,3384.0,414.766100000143,5.0,415.7655,0.0,22.0,22.0,21.0,1.0,1.0,0.3,Time
,,S41,1,,,anonymized,Serial_Dependence_U,2023.2.3,Win32,144.9275362320063,,,,,,415.7658000001907,133.0,0.0,415.7659000000953,133.0,,,,419.499,419.99920000004767,418.9983000001907,419.4989000000954,416.7667000000477,418.9982000000477,419.99920000004767,420.4996000001431,420.4996000001431,424.3441000001431,3830.0,424.3443000001907,5.0,425.3451000001431,0.0,23.0,23.0,17.0,1.0,1.2,0.7,Time
,,S41,1,,,anonymized,Serial_Dependence_U,2023.2.3,Win32,144.9275362320063,,,,,,425.34540000009537,139.0,0.0,425.3455,139.0,,,,428.6909000000954,429.1894000000954,428.18360000014303,428.6908000001907,426.34640000009534,428.18360000014303,429.1894000000954,429.6899000000954,429.6899000000954,436.1086000001431,3406.0,436.1086000001431,5.0,437.107600000143,0.0,24.0,24.0,15.0,1.0,0.8,0.7,Time
,,S41,1,,,anonymized,Serial_Dependence_U,2023.2.3,Win32,144.9275362320063,,,,,,437.1079000000954,214.0,0.0,437.108,214.0,,,,441.2788000001908,441.7792000000477,440.7728000001908,441.2788000001908,438.1088000001907,440.7727000000477,441.7792000000477,442.2797000000476,442.2797000000476,446.5709000000954,4051.0,446.571,5.0,447.5701000001431,0.0,25.0,25.0,4.0,1.0,1.6,0.3,Time
,,S41,1,,,anonymized,Serial_Dependence_U,2023.2.3,Win32,144.9275362320063,,,,,,447.5703000001907,60.0,0.0,447.5704000000954,60.0,,,,451.71340000009536,452.2138000001906,451.2073000001907,451.71340000009536,448.5715,451.2073000001907,452.2138000001906,452.71460000014304,452.71460000014304,457.402600000143,4171.0,457.402600000143,5.0,458.401,0.0,26.0,26.0,19.0,1.0,1.6,0.7,Time
,,S41,1,,,anonymized,Serial_Dependence_U,2023.2.3,Win32,144.9275362320063,,,,,,458.4013000001906,249.0,0.0,458.40140000009535,249.0,,,,461.9397000000477,462.4401000001431,461.4345,461.9397000000477,459.4023000001906,461.43430000019066,462.4401000001431,462.94060000014304,462.94060000014304,467.1487000000476,3536.0,467.1487000000476,5.0,468.1474000000953,0.0,27.0,27.0,16.0,1.0,1.0,0.7,Time
,,S41,1,,,anonymized,Serial_Dependence_U,2023.2.3,Win32,144.9275362320063,,,,,,468.14760000014303,281.0,0.0,468.1477000000476,281.0,,,,472.08940000009534,472.58960000014304,471.583,472.08940000009534,469.1488000001907,471.583,472.58960000014304,473.0902000000476,473.0902000000476,477.86810000014304,3927.0,477.86810000014304,5.0,478.86710000014295,0.0,28.0,28.0,28.0,1.0,1.4,0.7,Time
,,S41,1,,,anonymized,Serial_Dependence_U,2023.2.3,Win32,144.9275362320063,,,,,,478.8675,1.0,0.0,478.8677000000477,1.0,,,,482.809,483.30930000019066,482.3033000001907,482.809,479.8683000001906,482.3033000001907,483.30930000019066,483.81,483.81,488.8499999999999,4548.0,488.850100000143,5.0,489.851100000143,0.0,29.0,29.0,18.0,1.0,1.4,0.7,Time
,,S41,1,,,anonymized,Serial_Dependence_U,2023.2.3,Win32,144.9275362320063,,,,,,489.8514000000953,157.0,1.0,526.932100000143,157.0,s,37.07160000014301,,530.9017000000476,531.4019000000953,530.3959000000953,530.9016000001429,527.9334000000953,530.3958000001907,531.4019999999999,531.902600000143,531.9027000000476,536.479100000143,4243.0,536.479100000143,5.0,536.4794000000953,1.0,0.0,30.0,3.0,1.0,1.4,0.3,Time
,,S41,1,,,anonymized,Serial_Dependence_U,2023.2.3,Win32,144.9275362320063,,,,,,536.4797000000476,313.0,1.0,536.4804000000953,313.0,,,,540.6412000000477,541.1415,540.1407000000477,540.6412000000477,537.4782000000477,540.140600000143,541.1415,541.642100000143,541.6422000000476,546.7587000000476,4700.0,546.7588000001907,5.0,546.7589999999999,1.0,1.0,31.0,24.0,1.0,1.6,0.3,Time
,,S41,1,,,anonymized,Serial_Dependence_U,2023.2.3,Win32,144.9275362320063,,,,,,546.7594000000953,249.0,1.0,546.7594000000953,249.0,,,,550.9229999999999,551.4234000000953,550.4224000000953,550.9229000000953,547.7599000000953,550.4224000000953,551.4234000000953,551.9239000000953,551.9239000000953,556.270100000143,3771.0,556.270100000143,5.0,556.2702000000477,1.0,2.0,32.0,14.0,1.0,1.6,0.3,Time
,,S41,1,,,anonymized,Serial_Dependence_U,2023.2.3,Win32,144.9275362320063,,,,,,556.2703000001907,32.0,1.0,556.2704000000953,32.0,,,,560.2107000000476,560.7109999999999,559.7049999999999,560.210600000143,557.27,559.7049000000953,560.7109999999999,561.2114000000953,561.2114999999999,564.889100000143,3033.0,564.889100000143,5.0,564.8894000000953,1.0,3.0,33.0,8.0,1.0,1.4,0.7,Time
,,S41,1,,,anonymized,Serial_Dependence_U,2023.2.3,Win32,144.9275362320063,,,,,,564.889600000143,339.0,1.0,564.8897000000476,339.0,,,,568.4625,568.9628000001907,567.9568000001907,568.4625,565.8902000000476,567.9568000001907,568.9628000001907,569.4633000001907,569.4633000001907,574.045,4204.0,574.045,5.0,574.0452000000477,1.0,4.0,34.0,1.0,1.0,1.0,0.3,Time
,,S41,1,,,anonymized,Serial_Dependence_U,2023.2.3,Win32,144.9275362320063,,,,,,574.0454000000954,216.0,1.0,574.0455,216.0,,,,577.8127000000476,578.313,577.3069000000953,577.812600000143,575.0458000001906,577.3069000000953,578.313100000143,578.8135,578.8135,582.7969000000953,3385.0,582.7969999999999,5.0,582.7972000000476,1.0,5.0,35.0,12.0,1.0,1.2,0.3,Time
,,S41,1,,,anonymized,Serial_Dependence_U,2023.2.3,Win32,144.9275362320063,,,,,,582.7974000000953,51.0,1.0,582.7974000000953,51.0,,,,586.7668000001906,587.2668000001906,586.2605,586.766600000143,583.798100000143,586.2604000000953,587.2669000000953,587.767600000143,587.767600000143,591.9754999999999,3645.0,591.975600000143,5.0,591.9757000000476,1.0,6.0,36.0,13.0,1.0,1.4,0.3,Time
,,S41,1,,,anonymized,Serial_Dependence_U,2023.2.3,Win32,144.9275362320063,,,,,,591.9759000000953,126.0,1.0,591.9759999999999,126.0,,,,595.3173000001907,595.8177000000476,594.8114000000953,595.3173000001907,592.974600000143,594.8114000000953,595.8177000000476,596.318100000143,596.318100000143,599.683,2913.0,599.683100000143,5.0,599.6834000000953,1.0,7.0,37.0,5.0,1.0,0.8,0.7,Time
,,S41,1,,,anonymized,Serial_Dependence_U,2023.2.3,Win32,144.9275362320063,,,,,,599.683600000143,195.0,1.0,599.683600000143,195.0,,,,603.8212000000476,604.3196000001429,603.3189000000953,603.821100000143,600.684100000143,603.3188000001907,604.3196000001429,604.8203000001906,604.8203000001906,608.2477000000476,2950.0,608.2478000001906,5.0,608.2479999999999,1.0,8.0,38.0,29.0,1.0,1.6,0.7,Time
,,S41,1,,,anonymized,Serial_Dependence_U,2023.2.3,Win32,144.9275362320063,,,,,,608.2482000000476,133.0,1.0,608.2482000000476,133.0,,,,612.391,612.8912000000477,611.8855,612.391,609.2488000001907,611.8854000000953,612.8912000000477,613.3918000001906,613.3918000001906,617.8294000000953,3682.0,617.8294000000953,5.0,617.829600000143,1.0,9.0,39.0,9.0,1.0,1.6,0.7,Time
,,S41,1,,,anonymized,Serial_Dependence_U,2023.2.3,Win32,144.9275362320063,,,,,,617.8298000001906,263.0,1.0,617.8299000000953,263.0,,,,621.5952000000476,622.095600000143,621.0898000001906,621.595100000143,618.8284000000953,621.0897000000476,622.095600000143,622.596100000143,622.596100000143,627.5875,4498.0,627.5875,5.0,627.5877000000477,1.0,10.0,40.0,22.0,1.0,1.2,0.3,Time
,,S41,1,,,anonymized,Serial_Dependence_U,2023.2.3,Win32,144.9275362320063,,,,,,627.588,223.0,1.0,627.588,223.0,,,,631.3279000000953,631.8282000000477,630.8219999999999,631.3278000001907,628.5888000001906,630.8219999999999,631.8282000000477,632.328600000143,632.328600000143,635.6187000000476,2746.0,635.6188000001907,5.0,635.6189000000953,1.0,11.0,41.0,27.0,1.0,1.2,0.7,Time
,,S41,1,,,anonymized,Serial_Dependence_U,2023.2.3,Win32,144.9275362320063,,,,,,635.6192000000476,309.0,1.0,635.6193000001907,309.0,,,,639.1555,639.6558000001907,638.65,639.1555,636.618100000143,638.6499000000953,639.6558000001907,640.1564000000953,640.1564000000953,644.4457000000476,3923.0,644.4458000001907,5.0,644.4459999999999,1.0,12.0,42.0,26.0,1.0,1.0,0.7,Time
,,S41,1,,,anonymized,Serial_Dependence_U,2023.2.3,Win32,144.9275362320063,,,,,,644.4462000000476,89.0,1.0,644.4462000000476,89.0,,,,647.8175,648.3179000000953,647.3101000001429,647.8175,645.4469999999999,647.31,648.3179000000953,648.8183000001907,648.8183000001907,654.2478000001906,4684.0,654.2478000001906,5.0,654.2479999999999,1.0,13.0,43.0,20.0,1.0,0.8,0.3,Time
,,S41,1,,,anonymized,Serial_Dependence_U,2023.2.3,Win32,144.9275362320063,,,,,,654.2482000000476,175.0,1.0,654.2482000000476,175.0,,,,658.189600000143,658.6899000000953,657.6837000000477,658.1895,655.2489999999999,657.683600000143,658.6899000000953,659.1904999999999,659.1904999999999,662.8264000000953,3143.0,662.8264000000953,5.0,662.8267000000476,1.0,14.0,44.0,28.0,1.0,1.4,0.7,Time
,,S41,1,,,anonymized,Serial_Dependence_U,2023.2.3,Win32,144.9275362320063,,,,,,662.8269000000953,327.0,1.0,662.8269000000953,327.0,,,,666.796100000143,667.2964000000953,666.29,666.7959999999999,663.827600000143,666.29,667.2964000000953,667.7969000000953,667.7969000000953,672.5672000000476,4316.0,672.5672000000476,5.0,672.5674000000953,1.0,15.0,45.0,23.0,1.0,1.4,0.3,Time
,,S41,1,,,anonymized,Serial_Dependence_U,2023.2.3,Win32,144.9275362320063,,,,,,672.567600000143,99.0,1.0,672.5677000000476,99.0,,,,675.9099000000953,676.410100000143,675.4037000000476,675.9098000001907,673.5669999999999,675.403600000143,676.410100000143,676.910600000143,676.910600000143,680.7898000001907,3427.0,680.7898000001907,5.0,680.790100000143,1.0,16.0,46.0,15.0,1.0,0.8,0.7,Time
,,S41,1,,,anonymized,Serial_Dependence_U,2023.2.3,Win32,144.9275362320063,,,,,,680.7903000001907,43.0,1.0,680.7903000001907,43.0,,,,684.961100000143,685.4613000001907,684.4553000001906,684.961100000143,681.7909999999999,684.4553000001906,685.4613000001907,685.962,685.962,690.6614000000953,4009.0,690.6614000000953,5.0,690.661600000143,1.0,17.0,47.0,4.0,1.0,1.6,0.3,Time
,,S41,1,,,anonymized,Serial_Dependence_U,2023.2.3,Win32,144.9275362320063,,,,,,690.6618000001906,206.0,1.0,690.6619000000953,206.0,,,,694.207,694.7074000000953,693.701600000143,694.2069000000953,691.6627000000476,693.7014999999999,694.7074000000953,695.2078000001907,695.2079000000953,698.0304000000953,2217.0,698.0305,5.0,698.0307000000477,1.0,18.0,48.0,6.0,1.0,1.0,0.7,Time
,,S41,1,,,anonymized,Serial_Dependence_U,2023.2.3,Win32,144.9275362320063,,,,,,698.0309000000954,127.0,1.0,698.031,127.0,,,,701.6037000000476,702.104100000143,701.0982000000477,701.603600000143,699.0319999999999,701.0982000000477,702.104100000143,702.604600000143,702.604600000143,707.158100000143,4365.0,707.158100000143,5.0,707.1583000001907,1.0,19.0,49.0,21.0,1.0,1.0,0.3,Time
,,S41,1,,,anonymized,Serial_Dependence_U,2023.2.3,Win32,144.9275362320063,,,,,,707.1584999999999,214.0,1.0,707.158600000143,214.0,,,,710.9332000000476,711.4333000001907,710.4274000000953,710.933,708.1594000000953,710.4274000000953,711.4334000000953,711.934,711.934100000143,716.5778000001907,4073.0,716.5778000001907,5.0,716.578,1.0,20.0,50.0,2.0,1.0,1.2,0.3,Time
,,S41,1,,,anonymized,Serial_Dependence_U,2023.2.3,Win32,144.9275362320063,,,,,,716.5782000000477,148.0,1.0,716.5783000001907,148.0,,,,720.123600000143,720.6237000000476,719.6176000001429,720.1234999999999,717.579100000143,719.6175,720.6237000000476,721.1244000000953,721.1244999999999,726.2567000000477,4700.0,726.2568000001907,5.0,726.2569000000954,1.0,21.0,51.0,16.0,1.0,1.0,0.7,Time
,,S41,1,,,anonymized,Serial_Dependence_U,2023.2.3,Win32,144.9275362320063,,,,,,726.2572000000476,269.0,1.0,726.2572000000476,269.0,,,,729.6267000000477,730.1269000000954,729.121100000143,729.6265,727.2559000000953,729.121100000143,730.1269000000954,730.6274000000953,730.6274000000953,734.0775,2888.0,734.0775,5.0,734.0777000000476,1.0,22.0,52.0,10.0,1.0,0.8,0.3,Time
,,S41,1,,,anonymized,Serial_Dependence_U,2023.2.3,Win32,144.9275362320063,,,,,,734.0779000000953,29.0,1.0,734.0779000000953,29.0,,,,738.212,738.7124000000953,737.7114999999999,738.2119000000953,735.0768000001907,737.7114000000953,738.7124000000953,739.2129000000953,739.213,743.7178000001907,3679.0,743.7179000000953,5.0,743.718100000143,1.0,23.0,53.0,19.0,1.0,1.6,0.7,Time
,,S41,1,,,anonymized,Serial_Dependence_U,2023.2.3,Win32,144.9275362320063,,,,,,743.7184000000954,49.0,1.0,743.7184000000954,49.0,,,,747.291100000143,747.7914000000953,746.7855,747.2909999999999,744.7189000000953,746.7855,747.7914000000953,748.2919000000953,748.2919000000953,751.9299000000954,3077.0,751.9299000000954,5.0,751.93,1.0,24.0,54.0,11.0,1.0,1.0,0.3,Time
,,S41,1,,,anonymized,Serial_Dependence_U,2023.2.3,Win32,144.9275362320063,,,,,,751.9303000001906,148.0,1.0,751.9303000001906,148.0,,,,755.8629000000954,756.3629999999999,755.3622000000477,755.8628000001906,752.929100000143,755.362100000143,756.3629999999999,756.863600000143,756.863600000143,762.1144000000953,4663.0,762.1144000000953,5.0,762.114600000143,1.0,25.0,55.0,18.0,1.0,1.4,0.7,Time
,,S41,1,,,anonymized,Serial_Dependence_U,2023.2.3,Win32,144.9275362320063,,,,,,762.1148000001907,182.0,1.0,762.1149000000953,182.0,,,,765.8544999999999,766.3528000001907,765.353600000143,765.8544000000953,763.1204000000953,765.3534999999999,766.3529000000954,766.8533000001906,766.8534000000953,771.3234000000953,3570.0,771.3234000000953,5.0,771.323600000143,1.0,26.0,56.0,7.0,1.0,1.2,0.7,Time
,,S41,1,,,anonymized,Serial_Dependence_U,2023.2.3,Win32,144.9275362320063,,,,,,771.3238000001907,311.0,1.0,771.3239000000954,311.0,,,,774.6962000000476,775.1954000000953,774.1898000001906,774.6962000000476,772.3246000001429,774.1897000000477,775.1954999999999,775.6959999999999,775.696100000143,781.7254000000953,5398.0,781.7254000000953,5.0,781.7254999999999,1.0,27.0,57.0,0.0,1.0,0.8,0.3,Time
,,S41,1,,,anonymized,Serial_Dependence_U,2023.2.3,Win32,144.9275362320063,,,,,,781.7257000000476,345.0,1.0,781.7258000001907,345.0,,,,785.0673000001907,785.5675,784.5618000001907,785.0673000001907,782.7244999999999,784.5617000000476,785.5675,786.0682000000476,786.0682000000476,790.4987000000476,3892.0,790.4987000000476,5.0,790.4989000000953,1.0,28.0,58.0,25.0,1.0,0.8,0.7,Time
,,S41,1,,,anonymized,Serial_Dependence_U,2023.2.3,Win32,144.9275362320063,,,,,,790.499100000143,231.0,1.0,790.499100000143,231.0,,,,794.2368000001907,794.737100000143,793.7313000001907,794.2367000000477,791.4977000000476,793.7313000001907,794.737100000143,795.2377000000477,795.2377000000477,799.627100000143,3688.0,799.6272000000477,5.0,799.6272000000477,1.0,29.0,59.0,17.0,1.0,1.2,0.7,Time
,,S41,1,,,anonymized,Serial_Dependence_U,2023.2.3,Win32,144.9275362320063,,,,,,799.6274999999999,19.0,2.0,835.6695,19.0,s,36.03609999990465,,839.4378000001907,839.9379000000953,838.9318000001907,839.4378000001907,836.6707000000476,838.9317000000476,839.9379000000953,840.438600000143,840.4387000000477,844.8738000001907,3865.0,844.8739000000953,5.0,844.8739999999999,2.0,0.0,60.0,2.0,1.0,1.2,0.3,Time
,,S41,1,,,anonymized,Serial_Dependence_U,2023.2.3,Win32,144.9275362320063,,,,,,844.8743000001907,287.0,2.0,844.8749999999999,287.0,,,,848.4124000000953,848.912600000143,847.9068000001906,848.4123000001907,845.8752000000476,847.9067000000476,848.912600000143,849.413100000143,849.4132000000476,853.9753000001907,3885.0,853.9753000001907,5.0,853.9754000000953,2.0,1.0,61.0,6.0,1.0,1.0,0.7,Time
,,S41,1,,,anonymized,Serial_Dependence_U,2023.2.3,Win32,144.9275362320063,,,,,,853.975600000143,205.0,2.0,853.9757000000476,205.0,,,,857.317600000143,857.8179000000953,856.8118000001907,857.3175,854.9748000001907,856.8118000001907,857.8179000000953,858.318600000143,858.318600000143,861.7062000000476,2707.0,861.7062000000476,5.0,861.7063000001907,2.0,2.0,62.0,15.0,1.0,0.8,0.7,Time
,,S41,1,,,anonymized,Serial_Dependence_U,2023.2.3,Win32,144.9275362320063,,,,,,861.7064999999999,105.0,2.0,861.706600000143,105.0,,,,865.675100000143,866.174,865.1679999999999,865.6749000000954,862.7052000000476,865.1679999999999,866.174,866.6745,866.6745,871.2352000000476,4194.0,871.2352000000476,5.0,871.2354000000953,2.0,3.0,63.0,3.0,1.0,1.4,0.3,Time
,,S41,1,,,anonymized,Serial_Dependence_U,2023.2.3,Win32,144.9275362320063,,,,,,871.235600000143,96.0,2.0,871.235600000143,96.0,,,,874.5733000001907,875.0725,874.071600000143,874.5732000000477,872.2363000001907,874.0714999999999,875.0725,875.573,875.573100000143,879.3779000000953,2864.0,879.3779000000953,5.0,879.3779999999999,2.0,4.0,64.0,25.0,1.0,0.8,0.7,Time
,,S41,1,,,anonymized,Serial_Dependence_U,2023.2.3,Win32,144.9275362320063,,,,,,879.3782000000476,32.0,2.0,879.3783000001906,32.0,,,,883.1437000000476,883.6439999999999,882.6383000001907,883.143600000143,880.3769000000954,882.6382000000476,883.6439999999999,884.1444000000953,884.1444000000953,888.5519999999999,3392.0,888.5519999999999,5.0,888.5522000000476,2.0,5.0,65.0,22.0,1.0,1.2,0.3,Time
,,S41,1,,,anonymized,Serial_Dependence_U,2023.2.3,Win32,144.9275362320063,,,,,,888.5524999999999,171.0,2.0,888.5524999999999,171.0,,,,892.0907000000476,892.5909000000953,891.5849000000953,892.0907000000476,889.553100000143,891.5848000001906,892.5909000000953,893.0915,893.091600000143,896.9382000000476,3056.0,896.9382000000476,5.0,896.9383000001907,2.0,6.0,66.0,16.0,1.0,1.0,0.7,Time
,,S41,1,,,anonymized,Serial_Dependence_U,2023.2.3,Win32,144.9275362320063,,,,,,896.9385,223.0,2.0,896.9387000000477,223.0,,,,900.8777000000476,901.378,900.3723000001906,900.8777000000476,897.937100000143,900.3722000000477,901.378,901.8785,901.878600000143,907.1782000000476,4684.0,907.1782000000476,5.0,907.1784000000952,2.0,7.0,67.0,28.0,1.0,1.4,0.7,Time
,,S41,1,,,anonymized,Serial_Dependence_U,2023.2.3,Win32,144.9275362320063,,,,,,907.178600000143,212.0,2.0,907.1787000000476,212.0,,,,911.1178000001908,911.6181000001428,910.6122000000476,911.1178000001908,908.1772000000476,910.6121000001432,911.6181000001428,912.118600000143,912.118600000143,916.5283000001908,3793.0,916.5283000001908,5.0,916.5285,2.0,8.0,68.0,18.0,1.0,1.4,0.7,Time
,,S41,1,,,anonymized,Serial_Dependence_U,2023.2.3,Win32,144.9275362320063,,,,,,916.5287000000476,76.0,2.0,916.5287000000476,76.0,,,,920.669600000143,921.1699000000954,920.1639000000952,920.6695,917.5273000001908,920.1639000000952,921.1699000000954,921.6704000000952,921.6705,926.7614000000954,4470.0,926.7614000000954,5.0,926.7614999999998,2.0,9.0,69.0,9.0,1.0,1.6,0.7,Time
,,S41,1,,,anonymized,Serial_Dependence_U,2023.2.3,Win32,144.9275362320063,,,,,,926.7616000001432,128.0,2.0,926.7618000001908,128.0,,,,930.332600000143,930.8329000000954,929.8272000000476,930.3325,927.7603000001908,929.827100000143,930.8329000000954,931.3334000000953,931.3334000000953,936.3042000000476,4039.0,936.3042000000476,5.0,936.3045,2.0,10.0,70.0,11.0,1.0,1.0,0.3,Time
,,S41,1,,,anonymized,Serial_Dependence_U,2023.2.3,Win32,144.9275362320063,,,,,,936.304600000143,290.0,2.0,936.3048000001908,290.0,,,,940.4754000000952,940.9755,939.9698000001906,940.4752000000476,937.3053000001908,939.9698000001906,940.975600000143,941.4761000001428,941.4761000001428,946.9335,4354.0,946.9336000001432,5.0,946.9338000001908,2.0,11.0,71.0,14.0,1.0,1.6,0.3,Time
,,S41,1,,,anonymized,Serial_Dependence_U,2023.2.3,Win32,144.9275362320063,,,,,,946.934,334.0,2.0,946.934100000143,334.0,,,,950.6737000000476,951.1739000000952,950.168,950.6736000001432,947.9347000000477,950.1679000000954,951.1739000000952,951.6744000000954,951.6745,956.5147000000476,4348.0,956.5147000000476,5.0,956.5149000000954,2.0,12.0,72.0,27.0,1.0,1.2,0.7,Time
,,S41,1,,,anonymized,Serial_Dependence_U,2023.2.3,Win32,144.9275362320063,,,,,,956.515,232.0,2.0,956.5151000001432,232.0,,,,960.6844000000954,961.1844999999998,960.178600000143,960.6842000000476,957.5145,960.178600000143,961.1844999999998,961.6851000001428,961.6851000001428,966.3449000000954,3907.0,966.3449000000954,5.0,966.345,2.0,13.0,73.0,4.0,1.0,1.6,0.3,Time
,,S41,1,,,anonymized,Serial_Dependence_U,2023.2.3,Win32,144.9275362320063,,,,,,966.3452000000478,151.0,2.0,966.3453000001908,151.0,,,,970.5142000000476,971.0145,970.0083000001908,970.5142000000476,967.3442000000476,970.0083000001908,971.0145,971.515,971.515,977.0648000001908,4863.0,977.0648000001908,5.0,977.0649000000956,2.0,14.0,74.0,24.0,1.0,1.6,0.3,Time
,,S41,1,,,anonymized,Serial_Dependence_U,2023.2.3,Win32,144.9275362320063,,,,,,977.065,218.0,2.0,977.0651000001432,218.0,,,,981.1992000000477,981.6994000000954,980.6986000001432,981.1991000001432,978.0638000001908,980.6985,981.6994000000954,982.2000000000002,982.2000000000002,988.1368000001908,5328.0,988.1369000000954,5.0,988.137,2.0,15.0,75.0,19.0,1.0,1.6,0.7,Time
,,S41,1,,,anonymized,Serial_Dependence_U,2023.2.3,Win32,144.9275362320063,,,,,,988.1372000000478,271.0,2.0,988.1373000001907,271.0,,,,992.2733000001908,992.7737000000478,991.7728000001908,992.2732000000476,989.138,991.7727000000478,992.7737000000478,993.2742000000476,993.2742000000476,998.0154000000954,4024.0,998.0155,5.0,998.0156000001432,2.0,16.0,76.0,29.0,1.0,1.6,0.7,Time
,,S41,1,,,anonymized,Serial_Dependence_U,2023.2.3,Win32,144.9275362320063,,,,,,998.0158000001908,299.0,2.0,998.016,299.0,,,,1001.3873000001907,1001.8876000001432,1000.8815,1001.3872000000478,999.0165,1000.8815,1001.8876000001432,1002.388,1002.388,1006.031,2917.0,1006.031100000143,5.0,1006.0313000001908,2.0,17.0,77.0,0.0,1.0,0.8,0.3,Time
,,S41,1,,,anonymized,Serial_Dependence_U,2023.2.3,Win32,144.9275362320063,,,,,,1006.0315000000002,266.0,2.0,1006.0315000000002,266.0,,,,1009.9659000000956,1010.4659000000956,1009.4654000000954,1009.9658000001908,1007.032100000143,1009.4653000001908,1010.466,1010.9665,1010.9666000001432,1016.0993000001909,4393.0,1016.0993000001909,5.0,1016.0995,2.0,18.0,78.0,8.0,1.0,1.4,0.7,Time
,,S41,1,,,anonymized,Serial_Dependence_U,2023.2.3,Win32,144.9275362320063,,,,,,1016.0996000001433,353.0,2.0,1016.0997000000478,353.0,,,,1019.6358000001908,1020.136,1019.1302000000476,1019.6357000000476,1017.0983000001908,1019.1301000001432,1020.136,1020.6364000000956,1020.6365,1025.106600000143,3817.0,1025.106600000143,5.0,1025.106800000191,2.0,19.0,79.0,26.0,1.0,1.0,0.7,Time
,,S41,1,,,anonymized,Serial_Dependence_U,2023.2.3,Win32,144.9275362320063,,,,,,1025.1070000000002,284.0,2.0,1025.1071000001432,284.0,,,,1028.8469000000955,1029.347200000048,1028.3413000001908,1028.8468000001908,1026.1079000000957,1028.3412000000478,1029.347200000048,1029.847800000191,1029.847800000191,1034.6747000000478,4181.0,1034.674800000191,5.0,1034.6749000000957,2.0,20.0,80.0,17.0,1.0,1.2,0.7,Time
,,S41,1,,,anonymized,Serial_Dependence_U,2023.2.3,Win32,144.9275362320063,,,,,,1034.6751000001432,204.0,2.0,1034.6751000001432,204.0,,,,1038.6419000000956,1039.142300000191,1038.1363000001909,1038.6418000001909,1035.6734000000956,1038.136200000048,1039.142300000191,1039.6428000001908,1039.6428000001908,1044.9354000000956,4559.0,1044.9354000000956,5.0,1044.9355000000005,2.0,21.0,81.0,13.0,1.0,1.4,0.3,Time
,,S41,1,,,anonymized,Serial_Dependence_U,2023.2.3,Win32,144.9275362320063,,,,,,1044.9357000000475,318.0,2.0,1044.935800000191,318.0,,,,1048.9049000000955,1049.4031000001432,1048.397200000048,1048.9049000000955,1045.9345,1048.397200000048,1049.403200000048,1049.9036000001431,1049.9036000001431,1054.244,3671.0,1054.244,5.0,1054.2441000001431,2.0,22.0,82.0,23.0,1.0,1.4,0.3,Time
,,S41,1,,,anonymized,Serial_Dependence_U,2023.2.3,Win32,144.9275362320063,,,,,,1054.2442000000478,5.0,2.0,1054.2443000001908,5.0,,,,1057.6135000000002,1058.1138000001908,1057.1080000000002,1057.6134000000957,1055.2429000000957,1057.1079000000957,1058.1138000001908,1058.614300000191,1058.614300000191,1063.4391000001433,3845.0,1063.4391000001433,5.0,1063.439300000191,2.0,23.0,83.0,20.0,1.0,0.8,0.3,Time
,,S41,1,,,anonymized,Serial_Dependence_U,2023.2.3,Win32,144.9275362320063,,,,,,1063.4396000001432,68.0,2.0,1063.439700000048,68.0,,,,1066.803800000191,1067.3041000001433,1066.3033000001908,1066.803800000191,1064.4402000000478,1066.3033000001908,1067.3041000001433,1067.8046000001432,1067.804700000048,1072.8935,4640.0,1072.8935,5.0,1072.8936000001431,2.0,24.0,84.0,10.0,1.0,0.8,0.3,Time
,,S41,1,,,anonymized,Serial_Dependence_U,2023.2.3,Win32,144.9275362320063,,,,,,1072.8938000001908,340.0,2.0,1072.8939000000955,340.0,,,,1076.4669000000956,1076.967100000143,1075.9606000001431,1076.466700000048,1073.8947000000478,1075.9606000001431,1076.967100000143,1077.4676000001432,1077.467700000048,1081.8475,3746.0,1081.8475,5.0,1081.8476000001433,2.0,25.0,85.0,1.0,1.0,1.0,0.3,Time
,,S41,1,,,anonymized,Serial_Dependence_U,2023.2.3,Win32,144.9275362320063,,,,,,1081.8479000000957,307.0,2.0,1081.8479000000957,307.0,,,,1085.4227000000478,1085.9210000000005,1084.9153000001909,1085.4226000001431,1082.8487000000478,1084.915200000048,1085.9210000000005,1086.4218000001908,1086.4218000001908,1090.314700000048,2707.0,1090.3149000000956,5.0,1090.315,2.0,26.0,86.0,21.0,1.0,1.0,0.3,Time
,,S41,1,,,anonymized,Serial_Dependence_U,2023.2.3,Win32,144.9275362320063,,,,,,1090.3152000000478,253.0,2.0,1090.315300000191,253.0,,,,1093.658700000048,1094.1593000001908,1093.153200000048,1093.658700000048,1091.3177000000478,1093.153200000048,1094.1593000001908,1094.6596000001432,1094.6596000001432,1097.843700000048,2505.0,1097.843700000048,5.0,1097.8438000001909,2.0,27.0,87.0,5.0,1.0,0.8,0.7,Time
,,S41,1,,,anonymized,Serial_Dependence_U,2023.2.3,Win32,144.9275362320063,,,,,,1097.8441000001433,200.0,2.0,1097.8441000001433,200.0,,,,1101.583700000048,1102.0841000001433,1101.0784000000956,1101.5836000001432,1098.8449000000955,1101.078300000191,1102.0841000001433,1102.5845000000002,1102.5846000001432,1106.6885000000002,3495.0,1106.6885000000002,5.0,1106.6886000001432,2.0,28.0,88.0,7.0,1.0,1.2,0.7,Time
,,S41,1,,,anonymized,Serial_Dependence_U,2023.2.3,Win32,144.9275362320063,,,,,,1106.688700000048,228.0,2.0,1106.6889000000956,228.0,,,,1110.4543000001909,1110.9546000001433,1109.9481000001433,1110.4543000001909,1107.6875000000002,1109.9481000001433,1110.9546000001433,1111.4550000000002,1111.4551000001431,1116.6694000000955,4231.0,1116.6694000000955,5.0,1116.669700000048,2.0,29.0,89.0,12.0,1.0,1.2,0.3,Time
,,S41,1,,,anonymized,Serial_Dependence_U,2023.2.3,Win32,144.9275362320063,,,,,,1116.67,242.0,3.0,1447.1765000000005,242.0,s,330.4985999999046,,1450.9159000000957,1451.414800000191,1450.409100000143,1450.9159000000957,1448.1773000001908,1450.409,1451.414800000191,1451.9154000000956,1451.9155,1456.1718000001908,3843.0,1456.1720000000005,5.0,1456.1721000001432,3.0,0.0,90.0,17.0,1.0,1.2,0.7,Time
,,S41,1,,,anonymized,Serial_Dependence_U,2023.2.3,Win32,144.9275362320063,,,,,,1456.172300000191,193.0,3.0,1456.1735,193.0,,,,1460.111800000191,1460.6121000001433,1459.6060000000002,1460.111700000048,1457.1712000000475,1459.6060000000002,1460.6121000001433,1461.1126000001432,1461.1126000001432,1465.242200000048,3497.0,1465.2423000001909,5.0,1465.2424000000956,3.0,1.0,91.0,18.0,1.0,1.4,0.7,Time
,,S41,1,,,anonymized,Serial_Dependence_U,2023.2.3,Win32,144.9275362320063,,,,,,1465.2426000001433,171.0,3.0,1465.2426000001433,171.0,,,,1468.579200000048,1469.0795000000005,1468.0787000000478,1468.5791000001432,1466.2435000000005,1468.0786000001433,1469.0795000000005,1469.5800000000002,1469.5800000000002,1474.7801000001432,4213.0,1474.7801000001432,5.0,1474.780200000048,3.0,2.0,92.0,15.0,1.0,0.8,0.7,Time
,,S41,1,,,anonymized,Serial_Dependence_U,2023.2.3,Win32,144.9275362320063,,,,,,1474.7805,8.0,3.0,1474.7805,8.0,,,,1478.7498000001908,1479.2500000000002,1478.2434000000956,1478.7497000000478,1475.781200000048,1478.2433000001909,1479.2500000000002,1479.7505,1479.7505,1484.331700000048,3657.0,1484.331800000191,5.0,1484.332,3.0,3.0,93.0,3.0,1.0,1.4,0.3,Time
,,S41,1,,,anonymized,Serial_Dependence_U,2023.2.3,Win32,144.9275362320063,,,,,,1484.3322000000478,134.0,3.0,1484.3322000000478,134.0,,,,1488.4752000000478,1488.9755000000002,1487.970200000048,1488.4751000001431,1485.333,1487.9701000001432,1488.9755000000002,1489.476100000143,1489.476100000143,1495.415200000048,4752.0,1495.415200000048,5.0,1495.4153000001909,3.0,4.0,94.0,19.0,1.0,1.6,0.7,Time
,,S41,1,,,anonymized,Serial_Dependence_U,2023.2.3,Win32,144.9275362320063,,,,,,1495.4155,43.0,3.0,1495.4156000001433,43.0,,,,1499.382700000048,1499.8830000000005,1498.8764000000956,1499.382700000048,1496.414300000191,1498.876300000191,1499.8831000001433,1500.3834000000954,1500.3835,1505.870800000191,4620.0,1505.870800000191,5.0,1505.871,3.0,5.0,95.0,23.0,1.0,1.4,0.3,Time
,,S41,1,,,anonymized,Serial_Dependence_U,2023.2.3,Win32,144.9275362320063,,,,,,1505.8712000000478,251.0,3.0,1505.8712000000478,251.0,,,,1510.039800000191,1510.5401000001432,1509.534,1510.0397000000478,1506.869700000048,1509.534,1510.5401000001432,1511.040800000191,1511.040800000191,1517.471200000048,5379.0,1517.471200000048,5.0,1517.4714000000956,3.0,6.0,96.0,4.0,1.0,1.6,0.3,Time
,,S41,1,,,anonymized,Serial_Dependence_U,2023.2.3,Win32,144.9275362320063,,,,,,1517.471600000143,299.0,3.0,1517.471600000143,299.0,,,,1521.211300000191,1521.7124000000956,1520.705800000191,1521.211200000048,1518.4724000000956,1520.705700000048,1521.7124000000956,1522.212300000191,1522.212300000191,1526.8840000000002,4178.0,1526.8840000000002,5.0,1526.884200000048,3.0,7.0,97.0,27.0,1.0,1.2,0.7,Time
,,S41,1,,,anonymized,Serial_Dependence_U,2023.2.3,Win32,144.9275362320063,,,,,,1526.884300000191,17.0,3.0,1526.8844000000956,17.0,,,,1530.255700000048,1530.756,1529.750200000048,1530.2556000001432,1527.8851000001432,1529.750200000048,1530.756,1531.2566000001432,1531.2566000001432,1537.1884000000955,5455.0,1537.1885000000002,5.0,1537.1886000001432,3.0,8.0,98.0,20.0,1.0,0.8,0.3,Time
,,S41,1,,,anonymized,Serial_Dependence_U,2023.2.3,Win32,144.9275362320063,,,,,,1537.188800000191,99.0,3.0,1537.1889000000956,99.0,,,,1540.7253000001908,1541.2254000000955,1540.2194000000954,1540.7252000000478,1538.187800000191,1540.219300000191,1541.2254000000955,1541.726,1541.726100000143,1548.2143000001909,5122.0,1548.2143000001909,5.0,1548.2145000000005,3.0,9.0,99.0,26.0,1.0,1.0,0.7,Time
,,S41,1,,,anonymized,Serial_Dependence_U,2023.2.3,Win32,144.9275362320063,,,,,,1548.2147000000475,353.0,3.0,1548.214800000191,353.0,,,,1551.980200000048,1552.480300000191,1551.4744000000956,1551.980200000048,1549.213200000048,1551.474200000048,1552.4804000000956,1552.9809000000955,1552.9810000000002,1558.5099000000955,4960.0,1558.5099000000955,5.0,1558.5101000001432,3.0,10.0,100.0,12.0,1.0,1.2,0.3,Time
,,S41,1,,,anonymized,Serial_Dependence_U,2023.2.3,Win32,144.9275362320063,,,,,,1558.510200000048,134.0,3.0,1558.510200000048,134.0,,,,1562.4427000000478,1562.9429000000955,1561.9421000001432,1562.442600000143,1559.5090000000002,1561.9420000000002,1562.9429000000955,1563.4435,1563.4435,1568.6311000001433,4529.0,1568.6311000001433,5.0,1568.631300000191,3.0,11.0,101.0,8.0,1.0,1.4,0.7,Time
,,S41,1,,,anonymized,Serial_Dependence_U,2023.2.3,Win32,144.9275362320063,,,,,,1568.6314000000957,43.0,3.0,1568.6315000000002,43.0,,,,1571.9666000001432,1572.467,1571.4661000001431,1571.9666000001432,1569.630800000191,1571.466,1572.467,1572.9674000000955,1572.9674000000955,1578.086300000191,4655.0,1578.0864000000956,5.0,1578.0865,3.0,12.0,102.0,5.0,1.0,0.8,0.7,Time
,,S41,1,,,anonymized,Serial_Dependence_U,2023.2.3,Win32,144.9275362320063,,,,,,1578.086600000143,336.0,3.0,1578.0867000000478,336.0,,,,1581.8245000000002,1582.3246000001432,1581.3181000001432,1581.8244000000957,1579.0854000000954,1581.3180000000002,1582.3246000001432,1582.8251000001433,1582.8251000001433,1588.215,5015.0,1588.2151000001431,5.0,1588.2152000000478,3.0,13.0,103.0,7.0,1.0,1.2,0.7,Time
,,S41,1,,,anonymized,Serial_Dependence_U,2023.2.3,Win32,144.9275362320063,,,,,,1588.2153000001908,64.0,3.0,1588.2154000000955,64.0,,,,1591.5568000001908,1592.0571000001432,1591.0513000001908,1591.5567000000478,1589.2141000001432,1591.0513000001908,1592.057200000048,1592.5577000000478,1592.5577000000478,1598.295700000048,5246.0,1598.295700000048,5.0,1598.2959000000956,3.0,14.0,104.0,25.0,1.0,0.8,0.7,Time
,,S41,1,,,anonymized,Serial_Dependence_U,2023.2.3,Win32,144.9275362320063,,,,,,1598.2961000001433,308.0,3.0,1598.2961000001433,308.0,,,,1602.464200000048,1602.9645000000005,1601.9569000000956,1602.4641000001432,1599.294100000143,1601.956800000191,1602.9645000000005,1603.4651000001431,1603.4652000000478,1608.1392000000478,4094.0,1608.1392000000478,5.0,1608.1393000001908,3.0,15.0,105.0,24.0,1.0,1.6,0.3,Time
,,S41,1,,,anonymized,Serial_Dependence_U,2023.2.3,Win32,144.9275362320063,,,,,,1608.1395000000002,11.0,3.0,1608.1396000001432,11.0,,,,1612.078800000191,1612.5790000000002,1611.5729000000956,1612.0786000001433,1609.138,1611.572800000191,1612.5790000000002,1613.0795000000005,1613.0796000001433,1617.9821000001432,4288.0,1617.9821000001432,5.0,1617.982300000191,3.0,16.0,106.0,28.0,1.0,1.4,0.7,Time
,,S41,1,,,anonymized,Serial_Dependence_U,2023.2.3,Win32,144.9275362320063,,,,,,1617.9825,31.0,3.0,1617.9825,31.0,,,,1621.5541000001433,1622.0542000000478,1621.0484000000956,1621.554,1618.981800000191,1621.0484000000956,1622.054300000191,1622.5548000001909,1622.5549000000956,1628.9456000001433,5645.0,1628.945700000048,5.0,1628.945800000191,3.0,17.0,107.0,11.0,1.0,1.0,0.3,Time
,,S41,1,,,anonymized,Serial_Dependence_U,2023.2.3,Win32,144.9275362320063,,,,,,1628.946,249.0,3.0,1628.946,249.0,,,,1633.1149000000955,1633.615200000048,1632.6089000000954,1633.1148000001908,1629.9450000000002,1632.608800000191,1633.615200000048,1634.1157000000478,1634.1157000000478,1641.452300000191,6399.0,1641.452300000191,5.0,1641.4525,3.0,18.0,108.0,14.0,1.0,1.6,0.3,Time
,,S41,1,,,anonymized,Serial_Dependence_U,2023.2.3,Win32,144.9275362320063,,,,,,1641.4527000000478,302.0,3.0,1641.4528000001908,302.0,,,,1644.8235000000002,1645.322100000143,1644.3159000000956,1644.8234000000955,1642.451200000048,1644.3159000000956,1645.322100000143,1645.8225000000002,1645.8225000000002,1650.077200000048,3322.0,1650.077200000048,5.0,1650.0775,3.0,19.0,109.0,0.0,1.0,0.8,0.3,Time
,,S41,1,,,anonymized,Serial_Dependence_U,2023.2.3,Win32,144.9275362320063,,,,,,1650.0777000000478,348.0,3.0,1650.0778000001908,348.0,,,,1653.845300000191,1654.3455,1653.3396000001433,1653.845200000048,1651.0784000000956,1653.3395000000005,1654.3455,1654.8460000000002,1654.8460000000002,1659.5261000001433,4057.0,1659.5262000000478,5.0,1659.526300000191,3.0,20.0,110.0,22.0,1.0,1.2,0.3,Time
,,S41,1,,,anonymized,Serial_Dependence_U,2023.2.3,Win32,144.9275362320063,,,,,,1659.5265000000002,339.0,3.0,1659.5266000001432,339.0,,,,1663.668100000143,1664.1683000001908,1663.162300000191,1663.668,1660.5259000000956,1663.162300000191,1664.1684000000955,1664.669,1664.669,1669.6556000001433,4529.0,1669.6556000001433,5.0,1669.655800000191,3.0,21.0,111.0,9.0,1.0,1.6,0.7,Time
,,S41,1,,,anonymized,Serial_Dependence_U,2023.2.3,Win32,144.9275362320063,,,,,,1669.6560000000002,181.0,3.0,1669.6561000001432,181.0,,,,1673.192300000191,1673.692300000191,1672.6866000001432,1673.192200000048,1670.6547000000478,1672.6866000001432,1673.692300000191,1674.1929000000955,1674.1929000000955,1678.725700000048,3881.0,1678.725800000191,5.0,1678.7259000000956,3.0,22.0,112.0,6.0,1.0,1.0,0.7,Time
,,S41,1,,,anonymized,Serial_Dependence_U,2023.2.3,Win32,144.9275362320063,,,,,,1678.726100000143,330.0,3.0,1678.7262000000478,330.0,,,,1682.8691000001431,1683.3694000000955,1682.3634000000957,1682.8689000000954,1679.726800000191,1682.363300000191,1683.3694000000955,1683.869800000191,1683.8699000000956,1689.1557000000478,4601.0,1689.1557000000478,5.0,1689.155800000191,3.0,23.0,113.0,29.0,1.0,1.6,0.7,Time
,,S41,1,,,anonymized,Serial_Dependence_U,2023.2.3,Win32,144.9275362320063,,,,,,1689.1561000001432,336.0,3.0,1689.1561000001432,336.0,,,,1693.1160000000002,1693.616300000191,1692.6155,1693.1159000000955,1690.1548000001908,1692.6154000000956,1693.616300000191,1694.116800000191,1694.116800000191,1701.1522000000475,6645.0,1701.1522000000475,5.0,1701.1524000000954,3.0,24.0,114.0,13.0,1.0,1.4,0.3,Time
,,S41,1,,,anonymized,Serial_Dependence_U,2023.2.3,Win32,144.9275362320063,,,,,,1701.1526000001431,357.0,3.0,1701.1527000000478,357.0,,,,1704.524,1705.0243000001908,1704.0184000000954,1704.5239000000956,1702.155300000191,1704.0184000000954,1705.0243000001908,1705.524700000048,1705.524700000048,1711.137200000048,4431.0,1711.1373000001909,5.0,1711.1374000000956,3.0,25.0,115.0,10.0,1.0,0.8,0.3,Time
,,S41,1,,,anonymized,Serial_Dependence_U,2023.2.3,Win32,144.9275362320063,,,,,,1711.1375000000005,190.0,3.0,1711.1376000001433,190.0,,,,1714.708300000191,1715.2086000001432,1714.2029000000955,1714.708300000191,1712.1363000001909,1714.2028000001908,1715.208700000048,1715.7091000001433,1715.7092000000478,1721.076200000048,4539.0,1721.0764000000956,5.0,1721.0766000001431,3.0,26.0,116.0,1.0,1.0,1.0,0.3,Time
,,S41,1,,,anonymized,Serial_Dependence_U,2023.2.3,Win32,144.9275362320063,,,,,,1721.0768000001908,134.0,3.0,1721.0768000001908,134.0,,,,1724.851100000143,1725.3514000000955,1724.3457000000478,1724.851,1722.077600000143,1724.3456000001431,1725.3514000000955,1725.851800000191,1725.8519000000956,1730.5745000000002,4122.0,1730.5745000000002,5.0,1730.574700000048,3.0,27.0,117.0,2.0,1.0,1.2,0.3,Time
,,S41,1,,,anonymized,Serial_Dependence_U,2023.2.3,Win32,144.9275362320063,,,,,,1730.5750000000005,348.0,3.0,1730.5751000001433,348.0,,,,1734.1109000000956,1734.6112000000478,1733.6055,1734.1109000000956,1731.5736000001432,1733.6054000000956,1734.6112000000478,1735.1119000000956,1735.1119000000956,1740.054700000048,4463.0,1740.054700000048,5.0,1740.0549000000956,3.0,28.0,118.0,16.0,1.0,1.0,0.7,Time
,,S41,1,,,anonymized,Serial_Dependence_U,2023.2.3,Win32,144.9275362320063,,,,,,1740.0551000001433,53.0,3.0,1740.0552000000478,53.0,,,,1743.621,1744.1214000000955,1743.1206000001432,1743.621,1741.0558000001909,1743.1204000000955,1744.1214000000955,1744.6219000000956,1744.6219000000956,1748.426200000048,3326.0,1748.4263000001908,5.0,1748.4264000000956,3.0,29.0,119.0,21.0,1.0,1.0,0.3,Time
,,S41,1,,,anonymized,Serial_Dependence_U,2023.2.3,Win32,144.9275362320063,,,,,,1748.4266000001433,256.0,4.0,1914.024,256.0,s,165.5872999999524,,1917.792,1918.292200000048,1917.286300000191,1917.7919000000957,1915.025300000191,1917.286300000191,1918.292200000048,1918.792800000191,1918.792900000096,1923.3185,3786.0,1923.318700000048,5.0,1923.318800000191,4.0,0.0,120.0,22.0,1.0,1.2,0.3,Time
,,S41,1,,,anonymized,Serial_Dependence_U,2023.2.3,Win32,144.9275362320063,,,,,,1923.319,173.0,4.0,1923.320200000048,173.0,,,,1926.6625,1927.1628000001908,1926.156800000191,1926.6624000000957,1924.319800000191,1926.156800000191,1927.1628000001908,1927.663300000191,1927.663300000191,1931.612200000048,3525.0,1931.612200000048,5.0,1931.6124000000957,4.0,1.0,121.0,5.0,1.0,0.8,0.7,Time
,,S41,1,,,anonymized,Serial_Dependence_U,2023.2.3,Win32,144.9275362320063,,,,,,1931.6126000001432,245.0,4.0,1931.6128000001909,245.0,,,,1935.380200000048,1935.8804000000955,1934.8745000000004,1935.380100000143,1932.613200000048,1934.8745000000004,1935.8804000000955,1936.380900000096,1936.3810000000003,1941.407200000048,4512.0,1941.407200000048,5.0,1941.4074000000955,4.0,2.0,122.0,2.0,1.0,1.2,0.3,Time
,,S41,1,,,anonymized,Serial_Dependence_U,2023.2.3,Win32,144.9275362320063,,,,,,1941.4075000000005,137.0,4.0,1941.4076000001432,137.0,,,,1945.1475,1945.647600000143,1944.6418000001909,1945.1474000000956,1942.408300000191,1944.641700000048,1945.647700000048,1946.148200000048,1946.1483000001908,1951.723700000048,4187.0,1951.7238000001907,5.0,1951.7239000000957,4.0,3.0,123.0,7.0,1.0,1.2,0.7,Time
,,S41,1,,,anonymized,Serial_Dependence_U,2023.2.3,Win32,144.9275362320063,,,,,,1951.7241000001432,125.0,4.0,1951.724200000048,125.0,,,,1955.658600000143,1956.1588000001907,1955.1580000000004,1955.6585,1952.724800000191,1955.1580000000004,1956.1588000001907,1956.6593000001908,1956.6593000001908,1962.7933000001908,5071.0,1962.7933000001908,5.0,1962.7935,4.0,4.0,124.0,8.0,1.0,1.4,0.7,Time
,,S41,1,,,anonymized,Serial_Dependence_U,2023.2.3,Win32,144.9275362320063,,,,,,1962.793700000048,96.0,4.0,1962.793800000191,96.0,,,,1966.162900000096,1966.663,1965.6571000001431,1966.162800000191,1963.7921000001436,1965.6571000001431,1966.663,1967.1635,1967.163600000143,1974.011200000048,5158.0,1974.0114000000956,5.0,1974.0115,4.0,5.0,125.0,20.0,1.0,0.8,0.3,Time
,,S41,1,,,anonymized,Serial_Dependence_U,2023.2.3,Win32,144.9275362320063,,,,,,1974.011700000048,102.0,4.0,1974.0118000001908,102.0,,,,1977.5498000001908,1978.0501000001432,1977.044200000048,1977.549700000048,1975.012400000096,1977.044200000048,1978.0501000001432,1978.550700000048,1978.550700000048,1982.728900000096,3625.0,1982.728900000096,5.0,1982.7290000000005,4.0,6.0,126.0,16.0,1.0,1.0,0.7,Time
,,S41,1,,,anonymized,Serial_Dependence_U,2023.2.3,Win32,144.9275362320063,,,,,,1982.729300000191,40.0,4.0,1982.729400000096,40.0,,,,1986.3037000000477,1986.802600000143,1985.796700000048,1986.3036000001432,1983.73,1985.796700000048,1986.802600000143,1987.303100000143,1987.303100000143,1991.399200000048,3717.0,1991.3993000001908,5.0,1991.3994000000955,4.0,7.0,127.0,1.0,1.0,1.0,0.3,Time
,,S41,1,,,anonymized,Serial_Dependence_U,2023.2.3,Win32,144.9275362320063,,,,,,1991.3995,70.0,4.0,1991.3996000001432,70.0,,,,1995.172600000143,1995.673100000143,1994.6669000000957,1995.172600000143,1992.3989000000956,1994.6668000001907,1995.673100000143,1996.1735,1996.1735,2000.4838000001907,3973.0,2000.4839000000957,5.0,2000.484,4.0,8.0,128.0,12.0,1.0,1.2,0.3,Time
,,S41,1,,,anonymized,Serial_Dependence_U,2023.2.3,Win32,144.9275362320063,,,,,,2000.484200000048,167.0,4.0,2000.484400000095,167.0,,,,2003.8555,2004.3558000001904,2003.3499000000957,2003.8555,2001.4848000001905,2003.3499000000957,2004.3558000001904,2004.8564000000956,2004.8565,2009.182,3972.0,2009.182100000143,5.0,2009.1823000001907,4.0,9.0,129.0,0.0,1.0,0.8,0.3,Time
,,S41,1,,,anonymized,Serial_Dependence_U,2023.2.3,Win32,144.9275362320063,,,,,,2009.1824000000956,153.0,4.0,2009.1825,153.0,,,,2013.1433000001905,2013.6435,2012.642900000095,2013.1432000000475,2010.181700000048,2012.6427000000476,2013.643600000143,2014.144,2014.144,2019.6291000001431,4576.0,2019.629200000048,5.0,2019.6293000001908,4.0,10.0,130.0,23.0,1.0,1.4,0.3,Time
,,S41,1,,,anonymized,Serial_Dependence_U,2023.2.3,Win32,144.9275362320063,,,,,,2019.6295,335.0,4.0,2019.6295,335.0,,,,2023.5709000000957,2024.071200000048,2023.065,2023.5708000001907,2020.6304000000955,2023.065,2024.071200000048,2024.5717000000477,2024.5717000000477,2029.1693000001908,4306.0,2029.1694000000955,5.0,2029.1695,4.0,11.0,131.0,18.0,1.0,1.4,0.7,Time
,,S41,1,,,anonymized,Serial_Dependence_U,2023.2.3,Win32,144.9275362320063,,,,,,2029.1697000000477,222.0,4.0,2029.1697000000477,222.0,,,,2032.7335,2033.233700000048,2032.2329000000952,2032.7333000001904,2030.1681000001429,2032.2328000001903,2033.233700000048,2033.734200000048,2033.7343000001908,2038.693600000143,4660.0,2038.693700000048,5.0,2038.693700000048,4.0,12.0,132.0,11.0,1.0,1.0,0.3,Time
,,S41,1,,,anonymized,Serial_Dependence_U,2023.2.3,Win32,144.9275362320063,,,,,,2038.694,202.0,4.0,2038.6941000001432,202.0,,,,2042.2661000001428,2042.764700000048,2041.7586000001431,2042.2661000001428,2039.6922000000477,2041.7586000001431,2042.764700000048,2043.265200000048,2043.265200000048,2049.8293000001904,5851.0,2049.8293000001904,5.0,2049.8295,4.0,13.0,133.0,21.0,1.0,1.0,0.3,Time
,,S41,1,,,anonymized,Serial_Dependence_U,2023.2.3,Win32,144.9275362320063,,,,,,2049.829600000143,115.0,4.0,2049.8297000000475,115.0,,,,2053.999,2054.499400000095,2053.493400000095,2053.998900000095,2050.829,2053.49330000019,2054.4995,2054.9998000001906,2054.9998000001906,2060.9947000000475,5628.0,2060.9947000000475,5.0,2060.9948000001905,4.0,14.0,134.0,4.0,1.0,1.6,0.3,Time
,,S41,1,,,anonymized,Serial_Dependence_U,2023.2.3,Win32,144.9275362320063,,,,,,2060.994900000095,89.0,4.0,2060.995,89.0,,,,2065.1638000001903,2065.6656000001426,2064.657900000095,2065.1636000001427,2061.9935,2064.657900000095,2065.6657000000478,2066.1645,2066.1645,2071.3993000001906,4868.0,2071.3994000000957,5.0,2071.3994999999995,4.0,15.0,135.0,14.0,1.0,1.6,0.3,Time
,,S41,1,,,anonymized,Serial_Dependence_U,2023.2.3,Win32,144.9275362320063,,,,,,2071.3997000000472,55.0,4.0,2071.39980000019,55.0,,,,2075.535900000095,2076.0361000001426,2075.0353000001905,2075.535700000047,2072.4006000001427,2075.035200000048,2076.0361000001426,2076.5365,2076.5366000001427,2082.302,5647.0,2082.302,5.0,2082.3022000000474,4.0,16.0,136.0,19.0,1.0,1.6,0.7,Time
,,S41,1,,,anonymized,Serial_Dependence_U,2023.2.3,Win32,144.9275362320063,,,,,,2082.302400000095,67.0,4.0,2082.3025,67.0,,,,2086.269400000095,2086.769700000048,2085.763100000143,2086.2692000000475,2083.300900000095,2085.763,2086.769700000048,2087.270200000047,2087.2703000001907,2092.687900000095,5012.0,2092.687900000095,5.0,2092.688,4.0,17.0,137.0,13.0,1.0,1.4,0.3,Time
,,S41,1,,,anonymized,Serial_Dependence_U,2023.2.3,Win32,144.9275362320063,,,,,,2092.688100000142,31.0,4.0,2092.688200000048,31.0,,,,2096.8293000001904,2097.329600000143,2096.3234999999995,2096.8292000000474,2093.687,2096.3234999999995,2097.329600000143,2097.83,2097.83,2103.4425,5281.0,2103.4425,5.0,2103.442600000142,4.0,18.0,138.0,29.0,1.0,1.6,0.7,Time
,,S41,1,,,anonymized,Serial_Dependence_U,2023.2.3,Win32,144.9275362320063,,,,,,2103.4428000001903,304.0,4.0,2103.4428000001903,304.0,,,,2106.9788000001904,2107.4792000000475,2106.47330000019,2106.9788000001904,2104.4415,2106.47330000019,2107.4792000000475,2107.979700000048,2107.9798000001906,2113.0568000001904,4665.0,2113.0568000001904,5.0,2113.057,4.0,19.0,139.0,6.0,1.0,1.0,0.7,Time
,,S41,1,,,anonymized,Serial_Dependence_U,2023.2.3,Win32,144.9275362320063,,,,,,2113.0572000000475,247.0,4.0,2113.0572000000475,247.0,,,,2116.7948000001907,2117.2951000001426,2116.289400000095,2116.794700000047,2114.05580000019,2116.289400000095,2117.2951000001426,2117.7957000000474,2117.7958000001904,2122.822,4222.0,2122.822,5.0,2122.822200000048,4.0,20.0,140.0,17.0,1.0,1.2,0.7,Time
,,S41,1,,,anonymized,Serial_Dependence_U,2023.2.3,Win32,144.9275362320063,,,,,,2122.8225,162.0,4.0,2122.8226000001428,162.0,,,,2126.562100000143,2127.0624000000957,2126.0566000001427,2126.562100000143,2123.823100000143,2126.0566000001427,2127.0624999999995,2127.563,2127.563,2132.6748000001903,4573.0,2132.6748000001903,5.0,2132.675,4.0,21.0,141.0,27.0,1.0,1.2,0.7,Time
,,S41,1,,,anonymized,Serial_Dependence_U,2023.2.3,Win32,144.9275362320063,,,,,,2132.6752000000474,158.0,4.0,2132.6753000001904,158.0,,,,2136.6423000001905,2137.142600000143,2136.1368000001903,2136.6422000000475,2133.6739000000957,2136.1368000001903,2137.142600000143,2137.6432000000477,2137.6432000000477,2143.2673000001905,5116.0,2143.2673000001905,5.0,2143.2675,4.0,22.0,142.0,3.0,1.0,1.4,0.3,Time
,,S41,1,,,anonymized,Serial_Dependence_U,2023.2.3,Win32,144.9275362320063,,,,,,2143.267700000047,117.0,4.0,2143.267900000095,117.0,,,,2146.639,2147.1393000001904,2146.133400000095,2146.638900000095,2144.2685,2146.1333000001905,2147.1393000001904,2147.639900000095,2147.639900000095,2152.723900000095,4390.0,2152.724,5.0,2152.7241000001427,4.0,23.0,143.0,10.0,1.0,0.8,0.3,Time
,,S41,1,,,anonymized,Serial_Dependence_U,2023.2.3,Win32,144.9275362320063,,,,,,2152.7242000000474,53.0,4.0,2152.7243000001904,53.0,,,,2156.892900000095,2157.3932000000477,2156.3875,2156.892900000095,2153.7228000001905,2156.3875,2157.3932000000477,2157.8938000001904,2157.8938000001904,2164.9362000000474,6427.0,2164.9362000000474,5.0,2164.936400000095,4.0,24.0,144.0,24.0,1.0,1.6,0.3,Time
,,S41,1,,,anonymized,Serial_Dependence_U,2023.2.3,Win32,144.9275362320063,,,,,,2164.9367000000475,111.0,4.0,2164.9367000000475,111.0,,,,2168.474600000143,2168.975,2167.9691000001426,2168.4745,2165.9373000001906,2167.9691000001426,2168.975100000143,2169.4755,2169.4755,2174.474,4693.0,2174.4741000001427,5.0,2174.4742000000474,4.0,25.0,145.0,26.0,1.0,1.0,0.7,Time
,,S41,1,,,anonymized,Serial_Dependence_U,2023.2.3,Win32,144.9275362320063,,,,,,2174.4745,177.0,4.0,2174.4745,177.0,,,,2177.8111000001427,2178.3112000000474,2177.3105,2177.8111000001427,2175.475200000048,2177.310400000095,2178.3112000000474,2178.8118000001905,2178.811900000095,2185.2164999999995,5943.0,2185.216600000143,5.0,2185.2167000000472,4.0,26.0,146.0,15.0,1.0,0.8,0.7,Time
,,S41,1,,,anonymized,Serial_Dependence_U,2023.2.3,Win32,144.9275362320063,,,,,,2185.217,345.0,4.0,2185.217,345.0,,,,2188.558400000095,2189.0588000001903,2188.0525,2188.558400000095,2186.2158000001905,2188.052400000095,2189.0588000001903,2189.5593000001904,2189.5593000001904,2194.643400000095,4755.0,2194.643400000095,5.0,2194.6436000001427,4.0,27.0,147.0,25.0,1.0,0.8,0.7,Time
,,S41,1,,,anonymized,Serial_Dependence_U,2023.2.3,Win32,144.9275362320063,,,,,,2194.6438000001904,295.0,4.0,2194.6438000001904,295.0,,,,2198.5831000001426,2199.0833000001903,2198.077400000095,2198.5831000001426,2195.6423000001905,2198.0772000000475,2199.0833000001903,2199.5838000001904,2199.5838000001904,2204.0888000001905,4352.0,2204.0889000000952,5.0,2204.0889999999995,4.0,28.0,148.0,28.0,1.0,1.4,0.7,Time
,,S41,1,,,anonymized,Serial_Dependence_U,2023.2.3,Win32,144.9275362320063,,,,,,2204.089200000047,146.0,4.0,2204.08930000019,146.0,,,,2208.2338000001905,2208.7325,2207.7263000001903,2208.2338000001905,2205.09,2207.726200000048,2208.7325,2209.233,2209.2331000001427,2214.588400000095,5253.0,2214.5885,5.0,2214.588600000143,4.0,29.0,149.0,9.0,1.0,1.6,0.7,Time
,,S41,1,,,anonymized,Serial_Dependence_U,2023.2.3,Win32,144.9275362320063,,,,,,2214.5887000000475,309.0,5.0,2285.195600000143,309.0,s,70.60039999985656,,2288.964900000095,2289.464100000143,2288.457900000095,2288.964900000095,2286.197,2288.457900000095,2289.464100000143,2289.9646000001426,2289.9646000001426,2294.8452000000475,4237.0,2294.8453000001905,5.0,2294.8455,5.0,0.0,150.0,12.0,1.0,1.2,0.3,Time
,,S41,1,,,anonymized,Serial_Dependence_U,2023.2.3,Win32,144.9275362320063,,,,,,2294.845700000048,249.0,5.0,2294.846400000095,249.0,,,,2298.1887000000474,2298.689,2297.683400000095,2298.1886000001427,2295.8462000000472,2297.6833000001902,2298.689,2299.189700000047,2299.189700000047,2303.014900000095,3480.0,2303.014900000095,5.0,2303.015100000143,5.0,1.0,151.0,25.0,1.0,0.8,0.7,Time
,,S41,1,,,anonymized,Serial_Dependence_U,2023.2.3,Win32,144.9275362320063,,,,,,2303.0153000001906,78.0,5.0,2303.0154000000957,78.0,,,,2306.551900000095,2307.0521000001427,2306.0462000000475,2306.551900000095,2304.014400000095,2306.0462000000475,2307.0521000001427,2307.552600000143,2307.552600000143,2311.3068000001904,3699.0,2311.306900000095,5.0,2311.307100000143,5.0,2.0,152.0,26.0,1.0,1.0,0.7,Time
,,S41,1,,,anonymized,Serial_Dependence_U,2023.2.3,Win32,144.9275362320063,,,,,,2311.3073000001905,191.0,5.0,2311.307400000095,191.0,,,,2314.650900000095,2315.151,2314.145100000143,2314.6508000001904,2312.3079000000957,2314.145100000143,2315.151,2315.6514000000952,2315.6514999999995,2320.1912000000475,4249.0,2320.1913000001905,5.0,2320.1915,5.0,3.0,153.0,5.0,1.0,0.8,0.7,Time
,,S41,1,,,anonymized,Serial_Dependence_U,2023.2.3,Win32,144.9275362320063,,,,,,2320.1918000001906,207.0,5.0,2320.1918000001906,207.0,,,,2324.3555,2324.855900000095,2323.854900000095,2324.3553000001903,2321.1922000000477,2323.854900000095,2324.855900000095,2325.3563000001905,2325.3563000001905,2330.176,4649.0,2330.176,5.0,2330.176200000047,5.0,4.0,154.0,4.0,1.0,1.6,0.3,Time
,,S41,1,,,anonymized,Serial_Dependence_U,2023.2.3,Win32,144.9275362320063,,,,,,2330.176400000095,105.0,5.0,2330.176400000095,105.0,,,,2334.1436000001427,2334.643900000095,2333.638,2334.1435,2331.1752000000474,2333.637900000095,2334.643900000095,2335.144400000095,2335.144400000095,2339.977600000143,4558.0,2339.977600000143,5.0,2339.9778000001907,5.0,5.0,155.0,13.0,1.0,1.4,0.3,Time
,,S41,1,,,anonymized,Serial_Dependence_U,2023.2.3,Win32,144.9275362320063,,,,,,2339.977900000095,56.0,5.0,2339.978,56.0,,,,2343.5146000001428,2344.014900000095,2343.008900000095,2343.5146000001428,2340.9773000001906,2343.0088000001906,2344.014900000095,2344.515600000143,2344.515600000143,2348.0262000000475,3220.0,2348.0263000001905,5.0,2348.026600000143,5.0,6.0,156.0,16.0,1.0,1.0,0.7,Time
,,S41,1,,,anonymized,Serial_Dependence_U,2023.2.3,Win32,144.9275362320063,,,,,,2348.02680000019,8.0,5.0,2348.026900000095,8.0,,,,2351.766400000095,2352.2667000000474,2351.2602000000475,2351.7663000001903,2349.027400000095,2351.2601000001428,2352.2668000001904,2352.7673000001905,2352.7673000001905,2356.4658000001905,3416.0,2356.4658000001905,5.0,2356.466,5.0,7.0,157.0,27.0,1.0,1.2,0.7,Time
,,S41,1,,,anonymized,Serial_Dependence_U,2023.2.3,Win32,144.9275362320063,,,,,,2356.4663000001906,54.0,5.0,2356.4664000000957,54.0,,,,2360.4007000000474,2360.900900000095,2359.900100000142,2360.4007000000474,2357.466900000095,2359.9,2360.901,2361.4014999999995,2361.401600000143,2365.7485,4121.0,2365.7486000001427,5.0,2365.7488000001904,5.0,8.0,158.0,28.0,1.0,1.4,0.7,Time
,,S41,1,,,anonymized,Serial_Dependence_U,2023.2.3,Win32,144.9275362320063,,,,,,2365.748900000095,88.0,5.0,2365.749,88.0,,,,2369.0905,2369.5907000000475,2368.5848000001906,2369.090400000095,2366.747600000143,2368.5848000001906,2369.5907000000475,2370.0913000001906,2370.0913000001906,2374.4863000001906,4142.0,2374.4864000000957,5.0,2374.4864999999995,5.0,9.0,159.0,15.0,1.0,0.8,0.7,Time
,,S41,1,,,anonymized,Serial_Dependence_U,2023.2.3,Win32,144.9275362320063,,,,,,2374.486700000047,334.0,5.0,2374.4868000001907,334.0,,,,2378.4545,2378.9547000000475,2377.948200000048,2378.454400000095,2375.486100000143,2377.948100000143,2378.9547000000475,2379.4553000001906,2379.455400000095,2383.587100000143,3732.0,2383.587100000143,5.0,2383.5872000000472,5.0,10.0,160.0,3.0,1.0,1.4,0.3,Time
,,S41,1,,,anonymized,Serial_Dependence_U,2023.2.3,Win32,144.9275362320063,,,,,,2383.587400000095,139.0,5.0,2383.587400000095,139.0,,,,2387.352900000095,2387.8531000001426,2386.8472000000475,2387.352900000095,2384.585900000095,2386.8472000000475,2387.8531000001426,2388.3536000001427,2388.3537000000474,2392.3324999999995,3440.0,2392.3324999999995,5.0,2392.332600000143,5.0,11.0,161.0,22.0,1.0,1.2,0.3,Time
,,S41,1,,,anonymized,Serial_Dependence_U,2023.2.3,Win32,144.9275362320063,,,,,,2392.3328000001907,293.0,5.0,2392.332900000095,293.0,,,,2396.2998000001903,2396.8001000001427,2395.7944000000957,2396.299700000048,2393.331400000095,2395.7944000000957,2396.8001000001427,2397.300600000143,2397.3007000000475,2402.9059999999995,4876.0,2402.9059999999995,5.0,2402.906100000143,5.0,12.0,162.0,23.0,1.0,1.4,0.3,Time
,,S41,1,,,anonymized,Serial_Dependence_U,2023.2.3,Win32,144.9275362320063,,,,,,2402.90630000019,113.0,5.0,2402.90630000019,113.0,,,,2406.2686000001427,2406.769,2405.7683000001903,2406.2685,2403.9051000001427,2405.7682000000477,2406.769,2407.2695,2407.269600000143,2411.477200000048,3802.0,2411.477200000048,5.0,2411.4773000001906,5.0,13.0,163.0,0.0,1.0,0.8,0.3,Time
,,S41,1,,,anonymized,Serial_Dependence_U,2023.2.3,Win32,144.9275362320063,,,,,,2411.477600000143,95.0,5.0,2411.477600000143,95.0,,,,2415.613600000143,2416.1123000001903,2415.1126000001427,2415.6135,2412.4766000001428,2415.1125,2416.1123000001903,2416.612900000095,2416.612900000095,2421.5785,4544.0,2421.5785,5.0,2421.578700000048,5.0,14.0,164.0,29.0,1.0,1.6,0.7,Time
,,S41,1,,,anonymized,Serial_Dependence_U,2023.2.3,Win32,144.9275362320063,,,,,,2421.578900000095,178.0,5.0,2421.578900000095,178.0,,,,2425.719900000095,2426.2202000000475,2425.212700000048,2425.7198000001904,2422.577700000048,2425.212600000142,2426.2202000000475,2426.720700000048,2426.7209000000958,2431.051900000095,4015.0,2431.051900000095,5.0,2431.0521000001427,5.0,15.0,165.0,9.0,1.0,1.6,0.7,Time
,,S41,1,,,anonymized,Serial_Dependence_U,2023.2.3,Win32,144.9275362320063,,,,,,2431.0523000001904,136.0,5.0,2431.052400000095,136.0,,,,2434.423600000143,2434.9239999999995,2433.917900000095,2434.4235,2432.053200000048,2433.9178000001903,2434.9239999999995,2435.4245,2435.4245,2439.048700000048,3196.0,2439.0488000001906,5.0,2439.0489000000957,5.0,16.0,166.0,20.0,1.0,0.8,0.3,Time
,,S41,1,,,anonymized,Serial_Dependence_U,2023.2.3,Win32,144.9275362320063,,,,,,2439.049200000047,24.0,5.0,2439.0493000001907,24.0,,,,2442.7885,2443.286900000095,2442.2809000000952,2442.788400000095,2440.047700000048,2442.2809000000952,2443.286900000095,2443.7875,2443.7875,2447.8197000000478,3722.0,2447.819900000095,5.0,2447.82,5.0,17.0,167.0,7.0,1.0,1.2,0.7,Time
,,S41,1,,,anonymized,Serial_Dependence_U,2023.2.3,Win32,144.9275362320063,,,,,,2447.8203000001904,245.0,5.0,2447.8203000001904,245.0,,,,2451.393,2451.8933000001903,2450.8871000001427,2451.392900000095,2448.821,2450.887,2451.8933000001903,2452.3938000001904,2452.3938000001904,2457.6997000000474,4850.0,2457.6998000001904,5.0,2457.699900000095,5.0,18.0,168.0,11.0,1.0,1.0,0.3,Time
,,S41,1,,,anonymized,Serial_Dependence_U,2023.2.3,Win32,144.9275362320063,,,,,,2457.7,254.0,5.0,2457.700100000143,254.0,,,,2461.4385,2461.9387000000474,2460.932700000048,2461.438400000095,2458.6993000001903,2460.932600000143,2461.9387000000474,2462.4392000000475,2462.4393000001905,2466.464400000095,4006.0,2466.4645,5.0,2466.4647000000477,5.0,19.0,169.0,17.0,1.0,1.2,0.7,Time
,,S41,1,,,anonymized,Serial_Dependence_U,2023.2.3,Win32,144.9275362320063,,,,,,2466.464900000095,17.0,5.0,2466.465,17.0,,,,2470.3994000000957,2470.8997000000472,2469.8988000001905,2470.399200000048,2467.4655,2469.8988000001905,2470.8997000000472,2471.400100000142,2471.400100000142,2475.934400000095,4004.0,2475.934400000095,5.0,2475.934600000143,5.0,20.0,170.0,8.0,1.0,1.4,0.7,Time
,,S41,1,,,anonymized,Serial_Dependence_U,2023.2.3,Win32,144.9275362320063,,,,,,2475.9348000001905,39.0,5.0,2475.9348000001905,39.0,,,,2480.0972000000475,2480.597400000095,2479.596600000142,2480.0971000001427,2476.9341000001427,2479.5965,2480.597400000095,2481.0979999999995,2481.0979999999995,2485.345600000143,3951.0,2485.345600000143,5.0,2485.3458000001906,5.0,21.0,171.0,14.0,1.0,1.6,0.3,Time
,,S41,1,,,anonymized,Serial_Dependence_U,2023.2.3,Win32,144.9275362320063,,,,,,2485.3459999999995,61.0,5.0,2485.3459999999995,61.0,,,,2488.9188000001905,2489.4193000001906,2488.413400000095,2488.9188000001905,2486.3468000001903,2488.4133000001902,2489.4193000001906,2489.919700000047,2489.919700000047,2495.385600000143,5137.0,2495.385700000048,5.0,2495.385700000048,5.0,22.0,172.0,21.0,1.0,1.0,0.3,Time
,,S41,1,,,anonymized,Serial_Dependence_U,2023.2.3,Win32,144.9275362320063,,,,,,2495.3859000000957,249.0,5.0,2495.3859999999995,249.0,,,,2498.9238000001906,2499.422900000095,2498.417400000095,2498.9238000001906,2496.3852000000475,2498.4173000001906,2499.422900000095,2499.9235,2499.9235,2504.479100000143,4182.0,2504.479100000143,5.0,2504.4793000001905,5.0,23.0,173.0,6.0,1.0,1.0,0.7,Time
,,S41,1,,,anonymized,Serial_Dependence_U,2023.2.3,Win32,144.9275362320063,,,,,,2504.4795,311.0,5.0,2504.479600000143,311.0,,,,2508.4188000001905,2508.919100000143,2507.9129000000958,2508.4187000000475,2505.4782000000478,2507.9129000000958,2508.919100000143,2509.419600000143,2509.419600000143,2514.967200000048,5019.0,2514.967200000048,5.0,2514.9675,5.0,24.0,174.0,18.0,1.0,1.4,0.7,Time
,,S41,1,,,anonymized,Serial_Dependence_U,2023.2.3,Win32,144.9275362320063,,,,,,2514.9676000001427,241.0,5.0,2514.9677000000474,241.0,,,,2519.1108000001905,2519.611,2518.6051000001426,2519.1107000000475,2515.9684999999995,2518.6051000001426,2519.611,2520.111600000143,2520.111600000143,2526.523400000095,5820.0,2526.523400000095,5.0,2526.5235,5.0,25.0,175.0,19.0,1.0,1.6,0.7,Time
,,S41,1,,,anonymized,Serial_Dependence_U,2023.2.3,Win32,144.9275362320063,,,,,,2526.5238000001905,216.0,5.0,2526.5238000001905,216.0,,,,2529.893,2530.3933000001903,2529.3872000000474,2529.892900000095,2527.522400000095,2529.3871000001427,2530.3933000001903,2530.8938000001904,2530.8938000001904,2535.7628000001905,4399.0,2535.7628000001905,5.0,2535.763,5.0,26.0,176.0,10.0,1.0,0.8,0.3,Time
,,S41,1,,,anonymized,Serial_Dependence_U,2023.2.3,Win32,144.9275362320063,,,,,,2535.763100000143,29.0,5.0,2535.7633000001906,29.0,,,,2539.528100000143,2540.028400000095,2539.022400000095,2539.528100000143,2536.7613000001907,2539.022200000047,2540.028400000095,2540.5292000000472,2540.5293000001902,2545.1683000001904,4273.0,2545.1683000001904,5.0,2545.1685,5.0,27.0,177.0,2.0,1.0,1.2,0.3,Time
,,S41,1,,,anonymized,Serial_Dependence_U,2023.2.3,Win32,144.9275362320063,,,,,,2545.1687000000475,167.0,5.0,2545.1687000000475,167.0,,,,2549.33730000019,2549.837400000095,2548.8316000001428,2549.337100000143,2546.167,2548.8316000001428,2549.8375,2550.3381000001427,2550.3381000001427,2555.0585,4317.0,2555.0585,5.0,2555.058700000048,5.0,28.0,178.0,24.0,1.0,1.6,0.3,Time
,,S41,1,,,anonymized,Serial_Dependence_U,2023.2.3,Win32,144.9275362320063,,,,,,2555.058900000095,315.0,5.0,2555.058900000095,315.0,,,,2558.631900000095,2559.1321000001426,2558.1262000000474,2558.6318000001907,2556.059600000143,2558.1261000001427,2559.1321000001426,2559.6328000001904,2559.6328000001904,2565.965900000095,6075.0,2565.966,5.0,2565.966200000048,5.0,29.0,179.0,1.0,1.0,1.0,0.3,Time
,,S41,1,,,anonymized,Serial_Dependence_U,2023.2.3,Win32,144.9275362320063,,,,,,2565.9664000000957,14.0,6.0,2617.7847000000475,14.0,s,51.80549999999994,,2621.330400000095,2621.8306000001426,2620.8246000001427,2621.3303000001906,2618.785900000095,2620.8245,2621.8306000001426,2622.331,2622.3311000001427,2627.0399000000957,4129.0,2627.0399000000957,5.0,2627.0399999999995,6.0,0.0,180.0,26.0,1.0,1.0,0.7,Time
,,S41,1,,,anonymized,Serial_Dependence_U,2023.2.3,Win32,144.9275362320063,,,,,,2627.040200000047,277.0,6.0,2627.0408000001903,277.0,,,,2630.7778000001904,2631.278100000143,2630.272100000143,2630.7776000001427,2628.0388000001903,2630.272100000143,2631.278100000143,2631.778600000143,2631.778700000048,2636.0702000000474,4121.0,2636.0702000000474,5.0,2636.070400000095,6.0,1.0,181.0,17.0,1.0,1.2,0.7,Time
,,S41,1,,,anonymized,Serial_Dependence_U,2023.2.3,Win32,144.9275362320063,,,,,,2636.0705,98.0,6.0,2636.070600000143,98.0,,,,2640.2115,2640.7118000001906,2639.7057000000477,2640.211400000095,2637.069200000047,2639.7056000001426,2640.7118000001906,2641.21230000019,2641.21230000019,2645.58730000019,4050.0,2645.58730000019,5.0,2645.5875,6.0,2.0,182.0,29.0,1.0,1.6,0.7,Time
,,S41,1,,,anonymized,Serial_Dependence_U,2023.2.3,Win32,144.9275362320063,,,,,,2645.587600000142,109.0,6.0,2645.587700000048,109.0,,,,2649.7301000001426,2650.2288000001904,2649.2229000000957,2649.729900000095,2646.586400000095,2649.2228000001905,2650.2288000001904,2650.7293000001905,2650.7293000001905,2655.45,4557.0,2655.45,5.0,2655.4502000000475,6.0,3.0,183.0,19.0,1.0,1.6,0.7,Time
,,S41,1,,,anonymized,Serial_Dependence_U,2023.2.3,Win32,144.9275362320063,,,,,,2655.4503000001905,293.0,6.0,2655.450400000095,293.0,,,,2658.8216000001426,2659.3218000001903,2658.315900000095,2658.8215,2656.4513000001903,2658.3158000001904,2659.3218000001903,2659.822400000095,2659.822400000095,2663.5765,3443.0,2663.5765,5.0,2663.576700000048,6.0,4.0,184.0,0.0,1.0,0.8,0.3,Time
,,S41,1,,,anonymized,Serial_Dependence_U,2023.2.3,Win32,144.9275362320063,,,,,,2663.576900000095,325.0,6.0,2663.576900000095,325.0,,,,2667.3445,2667.8448000001904,2666.8381000001427,2667.344400000095,2664.577700000048,2666.8381000001427,2667.844900000095,2668.3453000001905,2668.3453000001905,2673.6865,5005.0,2673.6865,5.0,2673.6867000000475,6.0,5.0,185.0,12.0,1.0,1.2,0.3,Time
,,S41,1,,,anonymized,Serial_Dependence_U,2023.2.3,Win32,144.9275362320063,,,,,,2673.6868000001905,239.0,6.0,2673.686900000095,239.0,,,,2677.25230000019,2677.7512000000474,2676.7515,2677.252200000047,2674.6855,2676.751400000095,2677.7512000000474,2678.2517000000475,2678.2517000000475,2683.648,5067.0,2683.648,5.0,2683.6482000000474,6.0,6.0,186.0,11.0,1.0,1.0,0.3,Time
,,S41,1,,,anonymized,Serial_Dependence_U,2023.2.3,Win32,144.9275362320063,,,,,,2683.648400000095,26.0,6.0,2683.648400000095,26.0,,,,2687.2196000001427,2687.72,2686.7138000001905,2687.2195,2684.6475,2686.7138000001905,2687.72,2688.2205,2688.220600000143,2692.635400000095,4369.0,2692.635400000095,5.0,2692.635600000143,6.0,7.0,187.0,21.0,1.0,1.0,0.3,Time
,,S41,1,,,anonymized,Serial_Dependence_U,2023.2.3,Win32,144.9275362320063,,,,,,2692.6358000001906,247.0,6.0,2692.6359000000957,247.0,,,,2696.604700000048,2697.104900000095,2696.098900000095,2696.604600000143,2693.6363000001907,2696.098900000095,2697.104900000095,2697.605400000095,2697.605400000095,2703.148600000143,5240.0,2703.148600000143,5.0,2703.1487000000475,6.0,8.0,188.0,13.0,1.0,1.4,0.3,Time
,,S41,1,,,anonymized,Serial_Dependence_U,2023.2.3,Win32,144.9275362320063,,,,,,2703.1488000001905,51.0,6.0,2703.149,51.0,,,,2706.6848000001905,2707.1849999999995,2706.179,2706.6847000000475,2704.147400000095,2706.178900000095,2707.185100000143,2707.6856000001426,2707.6856000001426,2713.0617000000475,4977.0,2713.0618000001905,5.0,2713.062,6.0,9.0,189.0,6.0,1.0,1.0,0.7,Time
,,S41,1,,,anonymized,Serial_Dependence_U,2023.2.3,Win32,144.9275362320063,,,,,,2713.062200000048,278.0,6.0,2713.0623000001906,278.0,,,,2716.4243000001907,2716.9246000001426,2715.923700000048,2716.424100000143,2714.061900000095,2715.923600000143,2716.9246000001426,2717.425,2717.425,2721.3342000000475,3584.0,2721.3342000000475,5.0,2721.3344000000952,6.0,10.0,190.0,10.0,1.0,0.8,0.3,Time
,,S41,1,,,anonymized,Serial_Dependence_U,2023.2.3,Win32,144.9275362320063,,,,,,2721.334600000143,1.0,6.0,2721.334700000047,1.0,,,,2725.503400000095,2726.003600000143,2724.9974999999995,2725.5033000001904,2722.333400000095,2724.9974999999995,2726.003600000143,2726.504200000048,2726.5043000001906,2732.34380000019,5206.0,2732.343900000095,5.0,2732.344,6.0,11.0,191.0,24.0,1.0,1.6,0.3,Time
,,S41,1,,,anonymized,Serial_Dependence_U,2023.2.3,Win32,144.9275362320063,,,,,,2732.3442000000477,165.0,6.0,2732.3443000001903,165.0,,,,2736.106700000048,2736.6052000000477,2735.6063000001905,2736.106600000143,2733.344900000095,2735.6062000000475,2736.6052000000477,2737.106,2737.106,2742.3407000000475,4752.0,2742.3407000000475,5.0,2742.3408000001905,6.0,12.0,192.0,22.0,1.0,1.2,0.3,Time
,,S41,1,,,anonymized,Serial_Dependence_U,2023.2.3,Win32,144.9275362320063,,,,,,2742.341100000143,226.0,6.0,2742.341200000048,226.0,,,,2746.2823000001904,2746.782600000143,2745.77680000019,2746.2822000000474,2743.3417000000472,2745.77680000019,2746.7827000000475,2747.283200000048,2747.283200000048,2752.443700000048,5038.0,2752.443700000048,5.0,2752.4438000001905,6.0,13.0,193.0,28.0,1.0,1.4,0.7,Time
,,S41,1,,,anonymized,Serial_Dependence_U,2023.2.3,Win32,144.9275362320063,,,,,,2752.4439999999995,94.0,6.0,2752.444100000143,94.0,,,,2756.1818000001904,2756.682100000143,2755.676200000047,2756.1817000000474,2753.442700000048,2755.676100000143,2756.682100000143,2757.182600000143,2757.182600000143,2761.465,3943.0,2761.465,5.0,2761.4652000000474,6.0,14.0,194.0,27.0,1.0,1.2,0.7,Time
,,S41,1,,,anonymized,Serial_Dependence_U,2023.2.3,Win32,144.9275362320063,,,,,,2761.4655,53.0,6.0,2761.465600000143,53.0,,,,2765.434600000143,2765.9349000000952,2764.928200000048,2765.4345,2762.466200000048,2764.928200000048,2765.9349000000952,2766.4355,2766.4355,2771.107200000047,4401.0,2771.1073000001907,5.0,2771.1075,6.0,15.0,195.0,3.0,1.0,1.4,0.3,Time
,,S41,1,,,anonymized,Serial_Dependence_U,2023.2.3,Win32,144.9275362320063,,,,,,2771.1077000000478,156.0,6.0,2771.107900000095,156.0,,,,2775.0489000000957,2775.549200000047,2774.543200000048,2775.0489000000957,2772.1083000001904,2774.5431000001427,2775.549200000047,2776.049900000095,2776.049900000095,2782.160700000047,5757.0,2782.160700000047,5.0,2782.160900000095,6.0,16.0,196.0,8.0,1.0,1.4,0.7,Time
,,S41,1,,,anonymized,Serial_Dependence_U,2023.2.3,Win32,144.9275362320063,,,,,,2782.1611000001426,129.0,6.0,2782.1612000000478,129.0,,,,2785.6992000000478,2786.1995,2785.198700000047,2785.6991000001426,2783.1638000001903,2785.198600000143,2786.1995,2786.700100000143,2786.700100000143,2791.657,4656.0,2791.6571000001427,5.0,2791.6572000000474,6.0,17.0,197.0,16.0,1.0,1.0,0.7,Time
,,S41,1,,,anonymized,Serial_Dependence_U,2023.2.3,Win32,144.9275362320063,,,,,,2791.6573000001904,341.0,6.0,2791.657400000095,341.0,,,,2795.5987000000478,2796.0988000001903,2795.092400000095,2795.5985,2792.658,2795.0923000001903,2796.098900000095,2796.599400000095,2796.599400000095,2801.746200000048,4794.0,2801.7463000001903,5.0,2801.746400000095,6.0,18.0,198.0,18.0,1.0,1.4,0.7,Time
,,S41,1,,,anonymized,Serial_Dependence_U,2023.2.3,Win32,144.9275362320063,,,,,,2801.7466000001427,233.0,6.0,2801.7467000000474,233.0,,,,2805.484200000048,2805.9843000001906,2804.978400000095,2805.484100000143,2802.745,2804.9783000001903,2805.984400000095,2806.4848000001903,2806.4848000001903,2811.8312000000474,4724.0,2811.8312000000474,5.0,2811.8313000001904,6.0,19.0,199.0,7.0,1.0,1.2,0.7,Time
,,S41,1,,,anonymized,Serial_Dependence_U,2023.2.3,Win32,144.9275362320063,,,,,,2811.8315,270.0,6.0,2811.8316000001428,270.0,,,,2816.004,2816.5025,2815.496,2816.0038000001905,2812.8323000001906,2815.495900000095,2816.5025,2817.0032000000474,2817.0032000000474,2823.1995,5719.0,2823.1995,5.0,2823.1997000000474,6.0,20.0,200.0,4.0,1.0,1.6,0.3,Time
,,S41,1,,,anonymized,Serial_Dependence_U,2023.2.3,Win32,144.9275362320063,,,,,,2823.199900000095,37.0,6.0,2823.2,37.0,,,,2826.9652000000474,2827.4655,2826.459900000095,2826.9651000001427,2824.1984999999995,2826.4598000001906,2827.4655,2827.966,2827.966,2832.679400000095,4410.0,2832.679400000095,5.0,2832.6796000001427,6.0,21.0,201.0,2.0,1.0,1.2,0.3,Time
,,S41,1,,,anonymized,Serial_Dependence_U,2023.2.3,Win32,144.9275362320063,,,,,,2832.6798000001904,96.0,6.0,2832.679900000095,96.0,,,,2836.649200000048,2837.1494999999995,2836.1435,2836.649100000143,2833.680700000047,2836.1435,2837.1494999999995,2837.649900000095,2837.649900000095,2842.5815,4365.0,2842.5815,5.0,2842.5817000000475,6.0,22.0,202.0,23.0,1.0,1.4,0.3,Time
,,S41,1,,,anonymized,Serial_Dependence_U,2023.2.3,Win32,144.9275362320063,,,,,,2842.581900000095,125.0,6.0,2842.582,125.0,,,,2846.7223000001904,2847.222600000143,2846.2167000000472,2846.7222000000475,2843.581900000095,2846.216600000143,2847.222600000143,2847.723200000047,2847.723200000047,2853.9798000001906,5866.0,2853.979900000095,5.0,2853.98,6.0,23.0,203.0,9.0,1.0,1.6,0.7,Time
,,S41,1,,,anonymized,Serial_Dependence_U,2023.2.3,Win32,144.9275362320063,,,,,,2853.9802000000477,122.0,6.0,2853.980400000095,122.0,,,,2857.3168000001906,2857.8172000000477,2856.8163000001905,2857.316700000048,2854.9811000001428,2856.8162000000475,2857.8173000001902,2858.317600000142,2858.317700000048,2863.135400000095,4422.0,2863.135400000095,5.0,2863.135600000143,6.0,24.0,204.0,5.0,1.0,0.8,0.7,Time
,,S41,1,,,anonymized,Serial_Dependence_U,2023.2.3,Win32,144.9275362320063,,,,,,2863.1358000001906,357.0,6.0,2863.1359000000957,357.0,,,,2867.3066000001427,2867.807,2866.800900000095,2867.3065,2864.1366000001426,2866.800900000095,2867.807,2868.3075,2868.3075,2874.294700000047,5649.0,2874.294700000047,5.0,2874.294900000095,6.0,25.0,205.0,14.0,1.0,1.6,0.3,Time
,,S41,1,,,anonymized,Serial_Dependence_U,2023.2.3,Win32,144.9275362320063,,,,,,2874.2951000001426,215.0,6.0,2874.2952000000478,215.0,,,,2877.8665,2878.3668000001903,2877.3606000001428,2877.86630000019,2875.2943000001906,2877.3606000001428,2878.3668000001903,2878.867400000095,2878.867400000095,2883.525100000142,4339.0,2883.5253000001903,5.0,2883.525400000095,6.0,26.0,206.0,1.0,1.0,1.0,0.3,Time
,,S41,1,,,anonymized,Serial_Dependence_U,2023.2.3,Win32,144.9275362320063,,,,,,2883.5256000001427,197.0,6.0,2883.5258000001904,197.0,,,,2886.897,2887.397200000047,2886.391400000095,2886.8969000000952,2884.5262000000475,2886.3913000001903,2887.397200000047,2887.8977000000477,2887.8977000000477,2892.0064000000957,3818.0,2892.0064000000957,5.0,2892.006600000143,6.0,27.0,207.0,20.0,1.0,0.8,0.3,Time
,,S41,1,,,anonymized,Serial_Dependence_U,2023.2.3,Win32,144.9275362320063,,,,,,2892.0068000001907,64.0,6.0,2892.006900000095,64.0,,,,2895.3503000001906,2895.8506000001425,2894.8442000000477,2895.3503000001906,2893.0076000001427,2894.8442000000477,2895.8507000000477,2896.3511000001427,2896.3511000001427,2900.573200000048,3793.0,2900.573200000048,5.0,2900.5734000000957,6.0,28.0,208.0,25.0,1.0,0.8,0.7,Time
,,S41,1,,,anonymized,Serial_Dependence_U,2023.2.3,Win32,144.9275362320063,,,,,,2900.573600000143,123.0,6.0,2900.573700000047,123.0,,,,2903.9149000000957,2904.415200000047,2903.4084999999995,2903.9149000000957,2901.5721000001427,2903.4084000000958,2904.415200000047,2904.9157000000478,2904.9157000000478,2909.267700000047,4047.0,2909.2678000001906,5.0,2909.268,6.0,29.0,209.0,15.0,1.0,0.8,0.7,Time
,,S41,1,,,anonymized,Serial_Dependence_U,2023.2.3,Win32,144.9275362320063,,,,,,2909.268400000095,287.0,7.0,2941.3017000000477,287.0,s,32.021200000047884,,2945.2645,2945.7647000000475,2944.763900000095,2945.2645,2942.303100000143,2944.7638000001903,2945.7647000000475,2946.2653000001906,2946.2653000001906,2952.6748000001903,5731.0,2952.674900000095,5.0,2952.6751000001427,7.0,0.0,210.0,3.0,1.0,1.4,0.3,Time
,,S41,1,,,anonymized,Serial_Dependence_U,2023.2.3,Win32,144.9275362320063,,,,,,2952.675400000095,234.0,7.0,2952.676200000047,234.0,,,,2956.220700000048,2956.7208000001906,2955.7148000001903,2956.220600000143,2953.676,2955.7147000000477,2956.7208000001906,2957.2213000001902,2957.2213000001902,2961.9277000000475,4270.0,2961.9278000001905,5.0,2961.927900000095,7.0,1.0,211.0,26.0,1.0,1.0,0.7,Time
,,S41,1,,,anonymized,Serial_Dependence_U,2023.2.3,Win32,144.9275362320063,,,,,,2961.928200000048,15.0,7.0,2961.9284000000957,15.0,,,,2965.2995,2965.7998000001903,2964.794200000048,2965.299400000095,2962.929200000048,2964.794100000143,2965.7998000001903,2966.3003000001904,2966.300400000095,2971.229400000095,4408.0,2971.229400000095,5.0,2971.229600000143,7.0,2.0,212.0,10.0,1.0,0.8,0.3,Time
,,S41,1,,,anonymized,Serial_Dependence_U,2023.2.3,Win32,144.9275362320063,,,,,,2971.229900000095,129.0,7.0,2971.23,129.0,,,,2974.8027000000475,2975.303100000143,2974.2971000001426,2974.802600000143,2972.2306000001427,2974.297,2975.303200000048,2975.8034999999995,2975.8034999999995,2981.351200000048,5377.0,2981.351200000048,5.0,2981.3513000001903,7.0,3.0,213.0,1.0,1.0,1.0,0.3,Time
,,S41,1,,,anonymized,Serial_Dependence_U,2023.2.3,Win32,144.9275362320063,,,,,,2981.3515,239.0,7.0,2981.3517000000475,239.0,,,,2985.5223000001906,2986.0226000001426,2985.016400000095,2985.522200000047,2982.352200000048,2985.0163000001903,2986.0227000000477,2986.5247000000472,2986.5247000000472,2991.537100000143,4643.0,2991.5372000000475,5.0,2991.5373000001905,7.0,4.0,214.0,24.0,1.0,1.6,0.3,Time
,,S41,1,,,anonymized,Serial_Dependence_U,2023.2.3,Win32,144.9275362320063,,,,,,2991.5375,226.0,7.0,2991.5375,226.0,,,,2995.2777000000474,2995.776,2994.770100000143,2995.2776000001427,2992.536900000095,2994.7699999999995,2995.776,2996.2764999999995,2996.276600000143,3001.9302000000475,5345.0,3001.9303000001905,5.0,3001.9304000000952,7.0,5.0,215.0,27.0,1.0,1.2,0.7,Time
,,S41,1,,,anonymized,Serial_Dependence_U,2023.2.3,Win32,144.9275362320063,,,,,,3001.930600000143,101.0,7.0,3001.93080000019,101.0,,,,3006.0997000000475,3006.6003000001906,3005.5941000001426,3006.099600000143,3002.9297000000474,3005.5941000001426,3006.6003000001906,3007.1005,3007.1005,3012.171,4775.0,3012.171,5.0,3012.1712000000475,7.0,6.0,216.0,14.0,1.0,1.6,0.3,Time
,,S41,1,,,anonymized,Serial_Dependence_U,2023.2.3,Win32,144.9275362320063,,,,,,3012.1713000001905,335.0,7.0,3012.1715,335.0,,,,3016.339900000095,3016.8402000000474,3015.833900000095,3016.3398000001903,3013.1698000001907,3015.833900000095,3016.8402000000474,3017.340600000143,3017.340600000143,3023.9405,6249.0,3023.9405,5.0,3023.9406000001427,7.0,7.0,217.0,4.0,1.0,1.6,0.3,Time
,,S41,1,,,anonymized,Serial_Dependence_U,2023.2.3,Win32,144.9275362320063,,,,,,3023.9408000001904,160.0,7.0,3023.940900000095,160.0,,,,3027.7061000001427,3028.2063000001904,3027.200400000095,3027.705900000095,3024.9392000000475,3027.200400000095,3028.2063000001904,3028.7068000001905,3028.7068000001905,3033.610400000095,4516.0,3033.610400000095,5.0,3033.6106000001428,7.0,8.0,218.0,22.0,1.0,1.2,0.3,Time
,,S41,1,,,anonymized,Serial_Dependence_U,2023.2.3,Win32,144.9275362320063,,,,,,3033.6107000000475,31.0,7.0,3033.6108000001905,31.0,,,,3037.181400000095,3037.6816000001427,3036.675900000095,3037.1813000001903,3034.609,3036.6758000001905,3037.6816000001427,3038.1822000000475,3038.182400000095,3042.5273000001903,3899.0,3042.5273000001903,5.0,3042.5275,7.0,9.0,219.0,11.0,1.0,1.0,0.3,Time
,,S41,1,,,anonymized,Serial_Dependence_U,2023.2.3,Win32,144.9275362320063,,,,,,3042.5277000000474,323.0,7.0,3042.527900000095,323.0,,,,3045.871100000142,3046.371400000095,3045.365700000048,3045.871100000142,3043.5283000001905,3045.365600000143,3046.371400000095,3046.872,3046.872,3051.6133000001905,4264.0,3051.6133000001905,5.0,3051.613400000095,7.0,10.0,220.0,25.0,1.0,0.8,0.7,Time
,,S41,1,,,anonymized,Serial_Dependence_U,2023.2.3,Win32,144.9275362320063,,,,,,3051.613700000047,295.0,7.0,3051.6138000001906,295.0,,,,3055.548,3056.048400000095,3055.047700000048,3055.548,3052.6145,3055.0476000001427,3056.048400000095,3056.5489999999995,3056.5489999999995,3061.714400000095,4718.0,3061.7145,5.0,3061.7146000001426,7.0,11.0,221.0,8.0,1.0,1.4,0.7,Time
,,S41,1,,,anonymized,Serial_Dependence_U,2023.2.3,Win32,144.9275362320063,,,,,,3061.7148000001903,289.0,7.0,3061.7148000001903,289.0,,,,3065.058100000143,3065.5585,3064.552400000095,3065.058100000143,3062.715400000095,3064.5523000001904,3065.5585,3066.059,3066.059,3069.8479999999995,3385.0,3069.848100000143,5.0,3069.84830000019,7.0,12.0,222.0,15.0,1.0,0.8,0.7,Time
,,S41,1,,,anonymized,Serial_Dependence_U,2023.2.3,Win32,144.9275362320063,,,,,,3069.848400000095,277.0,7.0,3069.8485,277.0,,,,3073.62280000019,3074.1231000001426,3073.116900000095,3073.62280000019,3070.8492000000474,3073.1168000001903,3074.1231000001426,3074.6236000001427,3074.6237000000474,3080.6858000001903,5666.0,3080.6858000001903,5.0,3080.685900000095,7.0,13.0,223.0,12.0,1.0,1.2,0.3,Time
,,S41,1,,,anonymized,Serial_Dependence_U,2023.2.3,Win32,144.9275362320063,,,,,,3080.6861000001427,324.0,7.0,3080.6862000000474,324.0,,,,3084.4538000001903,3084.954,3083.948100000143,3084.453700000048,3081.687,3083.948,3084.954,3085.454600000143,3085.454600000143,3091.2526000001426,5054.0,3091.2526000001426,5.0,3091.252900000095,7.0,14.0,224.0,2.0,1.0,1.2,0.3,Time
,,S41,1,,,anonymized,Serial_Dependence_U,2023.2.3,Win32,144.9275362320063,,,,,,3091.253,246.0,7.0,3091.2531000001427,246.0,,,,3094.8189000000957,3095.3193000001907,3094.318400000095,3094.8188000001905,3092.2538000001905,3094.3183000001904,3095.3193000001907,3095.8197000000478,3095.8198000001903,3100.7695,4508.0,3100.7695,5.0,3100.769700000048,7.0,15.0,225.0,21.0,1.0,1.0,0.3,Time
,,S41,1,,,anonymized,Serial_Dependence_U,2023.2.3,Win32,144.9275362320063,,,,,,3100.7699000000957,36.0,7.0,3100.7699999999995,36.0,,,,3104.7391000001426,3105.2395,3104.232900000095,3104.7391000001426,3101.772,3104.2328000001903,3105.2395,3105.74,3105.740100000143,3110.8658000001906,4760.0,3110.8659000000957,5.0,3110.8659000000957,7.0,16.0,226.0,13.0,1.0,1.4,0.3,Time
,,S41,1,,,anonymized,Serial_Dependence_U,2023.2.3,Win32,144.9275362320063,,,,,,3110.8662000000472,321.0,7.0,3110.8662000000472,321.0,,,,3114.236700000047,3114.7357000000475,3113.7295,3114.236600000143,3111.8648000001904,3113.729400000095,3114.7357000000475,3115.2363000001906,3115.2363000001906,3120.5775,4637.0,3120.577600000143,5.0,3120.577700000048,7.0,17.0,227.0,0.0,1.0,0.8,0.3,Time
,,S41,1,,,anonymized,Serial_Dependence_U,2023.2.3,Win32,144.9275362320063,,,,,,3120.5779000000957,146.0,7.0,3120.5779999999995,146.0,,,,3124.3085,3124.8088000001903,3123.8079999999995,3124.308400000095,3121.576700000048,3123.8079999999995,3124.8088000001903,3125.309400000095,3125.309400000095,3130.314900000095,4676.0,3130.314900000095,5.0,3130.3152000000478,7.0,18.0,228.0,17.0,1.0,1.2,0.7,Time
,,S41,1,,,anonymized,Serial_Dependence_U,2023.2.3,Win32,144.9275362320063,,,,,,3130.315400000095,65.0,7.0,3130.3156000001427,65.0,,,,3134.4583000001903,3134.9585,3133.9525,3134.4581000001426,3131.315900000095,3133.9525,3134.9585,3135.459,3135.459,3140.6267000000475,4877.0,3140.6267000000475,5.0,3140.6268000001905,7.0,19.0,229.0,29.0,1.0,1.6,0.7,Time
,,S41,1,,,anonymized,Serial_Dependence_U,2023.2.3,Win32,144.9275362320063,,,,,,3140.6269999999995,194.0,7.0,3140.627200000047,194.0,,,,3143.9909999999995,3144.4895,3143.490400000095,3143.9909000000957,3141.6255,3143.490400000095,3144.4895,3144.99,3144.990100000143,3152.12280000019,6652.0,3152.12280000019,5.0,3152.123,7.0,20.0,230.0,20.0,1.0,0.8,0.3,Time
,,S41,1,,,anonymized,Serial_Dependence_U,2023.2.3,Win32,144.9275362320063,,,,,,3152.1233000001903,166.0,7.0,3152.1233000001903,166.0,,,,3156.057400000095,3156.5578000001906,3155.556900000095,3156.057400000095,3153.1238000001904,3155.556900000095,3156.5578000001906,3157.058400000095,3157.058400000095,3162.335,4629.0,3162.335,5.0,3162.3351000001426,7.0,21.0,231.0,28.0,1.0,1.4,0.7,Time
,,S41,1,,,anonymized,Serial_Dependence_U,2023.2.3,Win32,144.9275362320063,,,,,,3162.335400000095,170.0,7.0,3162.335400000095,170.0,,,,3166.4715,3166.971700000048,3165.9709000000958,3166.4713000001902,3163.336,3165.9708000001906,3166.971700000048,3167.4723000001904,3167.4723000001904,3172.7488000001904,4769.0,3172.7488000001904,5.0,3172.749100000143,7.0,22.0,232.0,9.0,1.0,1.6,0.7,Time
,,S41,1,,,anonymized,Serial_Dependence_U,2023.2.3,Win32,144.9275362320063,,,,,,3172.7493000001905,251.0,7.0,3172.749400000095,251.0,,,,3176.2873000001905,3176.787600000143,3175.7809999999995,3176.2873000001905,3173.7499999999995,3175.7809999999995,3176.787600000143,3177.2882000000477,3177.2883000001902,3181.9668000001902,4287.0,3181.966900000095,5.0,3181.967200000048,7.0,23.0,233.0,16.0,1.0,1.0,0.7,Time
,,S41,1,,,anonymized,Serial_Dependence_U,2023.2.3,Win32,144.9275362320063,,,,,,3181.9673000001903,246.0,7.0,3181.9675,246.0,,,,3185.707200000048,3186.2073000001906,3185.201400000095,3185.707100000143,3182.968100000143,3185.201400000095,3186.2074000000957,3186.707900000095,3186.707900000095,3193.0779999999995,5694.0,3193.0779999999995,5.0,3193.078100000143,7.0,24.0,234.0,7.0,1.0,1.2,0.7,Time
,,S41,1,,,anonymized,Serial_Dependence_U,2023.2.3,Win32,144.9275362320063,,,,,,3193.078400000095,226.0,7.0,3193.0785,226.0,,,,3196.4129000000958,3196.9131000001425,3195.912400000095,3196.4128000001906,3194.0771000001428,3195.9123000001905,3196.9132000000477,3197.413700000048,3197.413700000048,3201.431900000095,3456.0,3201.432,5.0,3201.4323000001905,7.0,25.0,235.0,5.0,1.0,0.8,0.7,Time
,,S41,1,,,anonymized,Serial_Dependence_U,2023.2.3,Win32,144.9275362320063,,,,,,3201.4325,202.0,7.0,3201.432600000143,202.0,,,,3205.401600000143,3205.90180000019,3204.895200000047,3205.401600000143,3202.4332000000472,3204.895200000047,3205.90180000019,3206.4023000001903,3206.4023000001903,3211.852900000095,4956.0,3211.852900000095,5.0,3211.8531000001426,7.0,26.0,236.0,23.0,1.0,1.4,0.3,Time
,,S41,1,,,anonymized,Serial_Dependence_U,2023.2.3,Win32,144.9275362320063,,,,,,3211.8533000001903,244.0,7.0,3211.853400000095,244.0,,,,3215.787600000143,3216.2878000001906,3215.287,3215.7875,3212.853900000095,3215.286900000095,3216.2878000001906,3216.7883000001902,3216.788400000095,3221.5436000001428,4442.0,3221.5436000001428,5.0,3221.5437000000475,7.0,27.0,237.0,18.0,1.0,1.4,0.7,Time
,,S41,1,,,anonymized,Serial_Dependence_U,2023.2.3,Win32,144.9275362320063,,,,,,3221.544,210.0,7.0,3221.544100000143,210.0,,,,3225.687,3226.187200000048,3225.1812000000477,3225.686900000095,3222.5448000001907,3225.1812000000477,3226.1873000001906,3226.6877000000472,3226.6878000001902,3231.6793000001903,4422.0,3231.6793000001903,5.0,3231.6795,7.0,28.0,238.0,19.0,1.0,1.6,0.7,Time
,,S41,1,,,anonymized,Serial_Dependence_U,2023.2.3,Win32,144.9275362320063,,,,,,3231.6797000000474,48.0,7.0,3231.679900000095,48.0,,,,3235.217900000095,3235.7183000001905,3234.7122000000472,3235.217900000095,3232.6804000000952,3234.7122000000472,3235.7183000001905,3236.21880000019,3236.21880000019,3241.328400000095,4768.0,3241.3285,5.0,3241.328700000048,7.0,29.0,239.0,6.0,1.0,1.0,0.7,Time
,,S41,1,,,anonymized,Serial_Dependence_U,2023.2.3,Win32,144.9275362320063,,,,,,3241.3288000001903,356.0,8.0,3250.1849999999995,356.0,s,8.845099999904505,,3254.3286000001426,3254.828700000048,3253.822200000048,3254.3285,3251.186400000095,3253.822200000048,3254.8288000001903,3255.3293000001904,3255.3293000001904,3259.6745,3882.0,3259.6746000001426,5.0,3259.6748000001903,8.0,0.0,240.0,19.0,1.0,1.6,0.7,Time
,,S41,1,,,anonymized,Serial_Dependence_U,2023.2.3,Win32,144.9275362320063,,,,,,3259.6751000001427,357.0,8.0,3259.676,357.0,,,,3263.609200000048,3264.1095,3263.1087000000475,3263.609100000143,3260.675400000095,3263.108600000143,3264.1096000001426,3264.6101000001427,3264.6101000001427,3268.711700000048,3708.0,3268.711700000048,5.0,3268.7119000000957,8.0,1.0,241.0,18.0,1.0,1.4,0.7,Time
,,S41,1,,,anonymized,Serial_Dependence_U,2023.2.3,Win32,144.9275362320063,,,,,,3268.712100000143,220.0,8.0,3268.71230000019,220.0,,,,3272.0765,3272.576700000048,3271.575900000095,3272.0765,3269.7128000001903,3271.5758000001906,3272.5768000001904,3273.0773000001905,3273.077400000095,3277.637900000095,4048.0,3277.637900000095,5.0,3277.638100000143,8.0,2.0,242.0,0.0,1.0,0.8,0.3,Time
,,S41,1,,,anonymized,Serial_Dependence_U,2023.2.3,Win32,144.9275362320063,,,,,,3277.638400000095,146.0,8.0,3277.6385,146.0,,,,3281.384900000095,3281.8852000000475,3280.879200000048,3281.3848000001904,3278.640600000143,3280.879100000143,3281.8852000000475,3282.385700000048,3282.385700000048,3287.8105,4650.0,3287.8105,5.0,3287.8106000001426,8.0,3.0,243.0,17.0,1.0,1.2,0.7,Time
,,S41,1,,,anonymized,Serial_Dependence_U,2023.2.3,Win32,144.9275362320063,,,,,,3287.810900000095,253.0,8.0,3287.810900000095,253.0,,,,3291.778,3292.2783000001905,3291.272400000095,3291.777900000095,3288.8095,3291.2723000001906,3292.2783000001905,3292.7788000001906,3292.7788000001906,3298.460900000095,4926.0,3298.460900000095,5.0,3298.461100000143,8.0,4.0,244.0,13.0,1.0,1.4,0.3,Time
,,S41,1,,,anonymized,Serial_Dependence_U,2023.2.3,Win32,144.9275362320063,,,,,,3298.4613000001905,202.0,8.0,3298.4613000001905,202.0,,,,3302.2265,3302.7267000000475,3301.720400000095,3302.2265,3299.4598000001906,3301.720400000095,3302.7268000001905,3303.2274000000957,3303.2274999999995,3308.5388000001903,4610.0,3308.538900000095,5.0,3308.5392000000475,8.0,5.0,245.0,22.0,1.0,1.2,0.3,Time
,,S41,1,,,anonymized,Serial_Dependence_U,2023.2.3,Win32,144.9275362320063,,,,,,3308.539400000095,193.0,8.0,3308.5395,193.0,,,,3312.682100000143,3313.1823000001905,3312.174700000048,3312.681900000095,3309.5398000001906,3312.174700000048,3313.182400000095,3313.6828000001906,3313.6828000001906,3318.7457000000472,4516.0,3318.7458000001902,5.0,3318.745900000095,8.0,6.0,246.0,29.0,1.0,1.6,0.7,Time
,,S41,1,,,anonymized,Serial_Dependence_U,2023.2.3,Win32,144.9275362320063,,,,,,3318.746100000142,42.0,8.0,3318.7463000001903,42.0,,,,3322.080900000095,3322.5812000000474,3321.580400000095,3322.080900000095,3319.745100000143,3321.580400000095,3322.5812000000474,3323.0817000000475,3323.0818000001905,3327.130200000048,3382.0,3327.130200000048,5.0,3327.1303000001903,8.0,7.0,247.0,25.0,1.0,0.8,0.7,Time
,,S41,1,,,anonymized,Serial_Dependence_U,2023.2.3,Win32,144.9275362320063,,,,,,3327.1305,132.0,8.0,3327.1306000001427,132.0,,,,3330.673400000095,3331.173600000143,3330.167900000095,3330.6733000001905,3328.129,3330.1678000001903,3331.173600000143,3331.6743000001907,3331.6743000001907,3337.4606000001427,5248.0,3337.4606000001427,5.0,3337.4608000001904,8.0,8.0,248.0,16.0,1.0,1.0,0.7,Time
,,S41,1,,,anonymized,Serial_Dependence_U,2023.2.3,Win32,144.9275362320063,,,,,,3337.461100000143,181.0,8.0,3337.4612000000475,181.0,,,,3341.4,3341.900400000095,3340.894700000048,3341.4,3338.4593000001905,3340.894600000143,3341.900400000095,3342.400900000095,3342.400900000095,3347.587100000143,4422.0,3347.587100000143,5.0,3347.587400000095,8.0,9.0,249.0,28.0,1.0,1.4,0.7,Time
,,S41,1,,,anonymized,Serial_Dependence_U,2023.2.3,Win32,144.9275362320063,,,,,,3347.587700000048,83.0,8.0,3347.5878000001903,83.0,,,,3351.5567000000474,3352.057,3351.051,3351.5566000001427,3348.5881000001427,3351.051,3352.057,3352.557400000095,3352.557400000095,3357.5652000000478,4572.0,3357.5653000001903,5.0,3357.5653000001903,8.0,10.0,250.0,3.0,1.0,1.4,0.3,Time
,,S41,1,,,anonymized,Serial_Dependence_U,2023.2.3,Win32,144.9275362320063,,,,,,3357.5655,37.0,8.0,3357.5656000001427,37.0,,,,3361.734200000048,3362.234400000095,3361.228400000095,3361.734100000143,3358.564100000143,3361.2283000001903,3362.234400000095,3362.735,3362.735,3368.910200000048,5784.0,3368.9103000001905,5.0,3368.9104000000957,8.0,11.0,251.0,4.0,1.0,1.6,0.3,Time
,,S41,1,,,anonymized,Serial_Dependence_U,2023.2.3,Win32,144.9275362320063,,,,,,3368.910600000143,341.0,8.0,3368.910700000047,341.0,,,,3372.6833000001902,3373.1835,3372.177600000143,3372.6832000000472,3369.9095,3372.1775,3373.1835,3373.6842000000474,3373.6842000000474,3378.7616000001426,4561.0,3378.7616000001426,5.0,3378.7618000001903,8.0,12.0,252.0,12.0,1.0,1.2,0.3,Time
,,S41,1,,,anonymized,Serial_Dependence_U,2023.2.3,Win32,144.9275362320063,,,,,,3378.762,70.0,8.0,3378.762,70.0,,,,3382.9232000000475,3383.423600000143,3382.4228000001904,3382.9232000000475,3379.7602000000475,3382.422700000048,3383.423700000048,3383.924100000143,3383.924100000143,3389.578400000095,5101.0,3389.578400000095,5.0,3389.5785,8.0,13.0,253.0,24.0,1.0,1.6,0.3,Time
,,S41,1,,,anonymized,Serial_Dependence_U,2023.2.3,Win32,144.9275362320063,,,,,,3389.578700000048,247.0,8.0,3389.578700000048,247.0,,,,3393.142400000095,3393.6428000001906,3392.641900000095,3393.1423000001905,3390.5772000000475,3392.6418000001904,3393.6428000001906,3394.1433000001903,3394.1433000001903,3399.095,4091.0,3399.095,5.0,3399.0952000000475,8.0,14.0,254.0,11.0,1.0,1.0,0.3,Time
,,S41,1,,,anonymized,Serial_Dependence_U,2023.2.3,Win32,144.9275362320063,,,,,,3399.095400000095,273.0,8.0,3399.095600000143,273.0,,,,3402.861100000143,3403.3613000001906,3402.355700000048,3402.861,3400.094400000095,3402.355700000048,3403.3613000001906,3403.862,3403.862,3409.1733000001905,4927.0,3409.1733000001905,5.0,3409.173600000143,8.0,15.0,255.0,2.0,1.0,1.2,0.3,Time
,,S41,1,,,anonymized,Serial_Dependence_U,2023.2.3,Win32,144.9275362320063,,,,,,3409.1738000001906,150.0,8.0,3409.1739999999995,150.0,,,,3412.5173000001905,3413.0175,3412.0115,3412.5172000000475,3410.1743000001907,3412.011400000095,3413.017600000143,3413.5181000001426,3413.5181000001426,3417.4483000001906,3278.0,3417.4483000001906,5.0,3417.4484000000957,8.0,16.0,256.0,5.0,1.0,0.8,0.7,Time
,,S41,1,,,anonymized,Serial_Dependence_U,2023.2.3,Win32,144.9275362320063,,,,,,3417.448600000143,112.0,8.0,3417.448700000047,112.0,,,,3421.0195,3421.519600000143,3420.5137000000477,3421.019400000095,3418.447,3420.5136000001426,3421.519600000143,3422.020200000047,3422.020200000047,3426.5971000001427,4156.0,3426.5971000001427,5.0,3426.5973000001904,8.0,17.0,257.0,21.0,1.0,1.0,0.3,Time
