Scale_setup.started,Scale_setup.stopped,participant,session,sex,age,date,expName,psychopyVersion,OS,frameRate,Intro.started,Intro.stopped,key_resp_2.keys,key_resp_2.rt,key_resp_2.duration,block.started,direction,Block_id,block.stopped,trial_direction,Block_resp_2.keys,Block_resp_2.rt,Block_resp_2.duration,ITI.started,ITI.stopped,Mask_2.started,Mask_2.stopped,encoding.started,encoding.stopped,Cue.started,Cue.stopped,Response.started,Response.stopped,keyDuration,Feedback_Time.started,FeedbackID_T,Feedback_Time.stopped,trials.thisRepN,trials.thisTrialN,trials.thisN,trials.thisIndex,trials.ran,TimeDur,Coherence1,TrialType
0.000100000023842,0.0003000000119186,S42,1,,,anonymized,Serial_Dependence_U,2023.2.3,Win32,166.66666666666666,,,,,,,,,,,,,,,,,,,,,,,,,,,,,,,,,,,
,,S42,1,,,anonymized,Serial_Dependence_U,2023.2.3,Win32,166.66666666666666,54.672100000023846,74.93170000004766,space,20.23289999997614,,,,,,,,,,,,,,,,,,,,,,,,,,,,,,,
,,S42,1,,,anonymized,Serial_Dependence_U,2023.2.3,Win32,166.66666666666666,,,,,,74.94260000002383,353.0,0.0,78.02780000001191,353.0,s,3.074600000023821,,82.1673000000119,82.66349999999998,81.66430000001192,82.16710000002384,79.02860000002381,81.66430000001192,82.66370000004768,83.16070000004767,83.16090000003574,87.4575,126.0,87.45770000004767,1.0,88.45699999999998,0.0,0.0,0.0,19.0,1.0,1.6,0.7,Time
,,S42,1,,,anonymized,Serial_Dependence_U,2023.2.3,Win32,166.66666666666666,,,,,,88.45760000002382,227.0,0.0,88.45899999999999,227.0,,,,92.63249999999998,93.12890000003576,92.12970000004766,92.63249999999998,89.46320000004768,92.1296000000238,93.12890000003576,93.62590000003574,93.62590000003574,96.70460000002385,1608.0,96.70460000002385,3.0,97.70440000003576,0.0,1.0,1.0,14.0,1.0,1.6,0.3,Time
,,S42,1,,,anonymized,Serial_Dependence_U,2023.2.3,Win32,166.66666666666666,,,,,,97.7048000000119,268.0,0.0,97.705,268.0,,,,101.24410000002383,101.74010000002382,100.74070000004768,101.24390000003574,98.70470000004768,100.74060000002385,101.74020000004766,102.23699999999998,102.23710000002384,104.05520000004766,1776.0,104.05520000004766,5.0,105.0548000000119,0.0,2.0,2.0,6.0,1.0,1.0,0.7,Time
,,S42,1,,,anonymized,Serial_Dependence_U,2023.2.3,Win32,166.66666666666666,,,,,,105.05520000004766,31.0,0.0,105.05530000001193,31.0,,,,109.02440000003575,109.52099999999996,108.52160000002384,109.0243000000119,106.05490000003574,108.5215,109.52099999999996,110.01790000003574,110.01790000003574,112.70890000003574,2188.0,112.709,5.0,113.7083000000119,0.0,3.0,3.0,23.0,1.0,1.4,0.3,Time
,,S42,1,,,anonymized,Serial_Dependence_U,2023.2.3,Win32,166.66666666666666,,,,,,113.70849999999996,239.0,0.0,113.70860000002382,239.0,,,,117.24770000004766,117.7443000000119,116.745,117.24770000004766,114.709,116.74490000003574,117.7443000000119,118.24110000002382,118.24110000002382,120.744,2035.0,120.74410000002383,5.0,121.74390000003574,0.0,4.0,4.0,16.0,1.0,1.0,0.7,Time
,,S42,1,,,anonymized,Serial_Dependence_U,2023.2.3,Win32,166.66666666666666,,,,,,121.74420000004766,338.0,0.0,121.7443000000119,338.0,,,,125.11349999999996,125.61,124.61070000004766,125.11349999999996,122.7443000000119,124.61060000002384,125.61,126.1073000000119,126.10740000003575,128.30080000001192,1792.0,128.30090000003577,5.0,129.30060000002385,0.0,5.0,5.0,20.0,1.0,0.8,0.3,Time
,,S42,1,,,anonymized,Serial_Dependence_U,2023.2.3,Win32,166.66666666666666,,,,,,129.30090000003577,338.0,0.0,129.30110000002384,338.0,,,,133.03990000003574,133.53630000001192,132.53699999999998,133.0398000000119,130.30080000001192,132.53699999999998,133.53640000003577,134.03330000001193,134.03330000001193,136.51220000004764,1963.0,136.51220000004764,5.0,137.5116000000238,0.0,6.0,6.0,7.0,1.0,1.2,0.7,Time
,,S42,1,,,anonymized,Serial_Dependence_U,2023.2.3,Win32,166.66666666666666,,,,,,137.51180000001193,258.0,0.0,137.512,258.0,,,,141.08140000003573,141.5778000000119,140.5786000000238,141.08130000001188,138.51210000002385,140.57849999999996,141.57790000003575,142.07470000004764,142.07470000004764,144.6567000000477,2146.0,144.6568000000119,5.0,145.65610000002386,0.0,7.0,7.0,1.0,1.0,1.0,0.3,Time
,,S42,1,,,anonymized,Serial_Dependence_U,2023.2.3,Win32,166.66666666666666,,,,,,145.65640000003577,94.0,0.0,145.6565,94.0,,,,149.7951000000238,150.2918000000119,149.29280000001188,149.7951000000238,146.65630000001192,149.29270000004766,150.29190000003575,150.78890000003577,150.78890000003577,152.73449999999997,1466.0,152.73460000002382,2.0,153.73399999999998,0.0,8.0,8.0,29.0,1.0,1.6,0.7,Time
,,S42,1,,,anonymized,Serial_Dependence_U,2023.2.3,Win32,166.66666666666666,,,,,,153.73440000003575,327.0,0.0,153.73449999999997,327.0,,,,157.70370000004766,158.20010000002384,157.20049999999998,157.70349999999996,154.73420000004768,157.20049999999998,158.2002000000477,158.697,158.69710000002385,161.4787000000477,2234.0,161.47880000001192,5.0,162.47830000001193,0.0,9.0,9.0,3.0,1.0,1.4,0.3,Time
,,S42,1,,,anonymized,Serial_Dependence_U,2023.2.3,Win32,166.66666666666666,,,,,,162.47880000001192,252.0,0.0,162.47899999999998,252.0,,,,165.8177000000477,166.31430000001188,165.31490000003572,165.81760000002384,163.4787000000477,165.31490000003572,166.31430000001188,166.81120000004768,166.81120000004768,169.21699999999998,1606.0,169.21699999999998,5.0,170.21690000003576,0.0,10.0,10.0,25.0,1.0,0.8,0.7,Time
,,S42,1,,,anonymized,Serial_Dependence_U,2023.2.3,Win32,166.66666666666666,,,,,,170.21740000003575,2.0,0.0,170.21749999999997,2.0,,,,173.7563000000119,174.25280000001192,173.25320000004768,173.7563000000119,171.21699999999998,173.25320000004768,174.25280000001192,174.74970000004765,174.74970000004765,176.35560000002386,1600.0,176.35570000004765,5.0,177.35530000001188,0.0,11.0,11.0,26.0,1.0,1.0,0.7,Time
,,S42,1,,,anonymized,Serial_Dependence_U,2023.2.3,Win32,166.66666666666666,,,,,,177.35570000004765,209.0,0.0,177.35580000001193,209.0,,,,181.09470000004768,181.59130000001196,180.592,181.09460000002383,178.35560000002386,180.59190000003576,181.59130000001196,182.089,182.08910000002385,183.864,1108.0,183.864,2.0,184.86360000002384,0.0,12.0,12.0,27.0,1.0,1.2,0.7,Time
,,S42,1,,,anonymized,Serial_Dependence_U,2023.2.3,Win32,166.66666666666666,,,,,,184.86390000003576,284.0,0.0,184.86390000003576,284.0,,,,188.60340000003575,189.0995,188.1002000000477,188.60330000001196,185.86410000002385,188.10010000002384,189.0995,189.59640000003577,189.59640000003577,191.8568000000119,1679.0,191.85690000003572,5.0,192.8565,0.0,13.0,13.0,17.0,1.0,1.2,0.7,Time
,,S42,1,,,anonymized,Serial_Dependence_U,2023.2.3,Win32,166.66666666666666,,,,,,192.8568000000119,218.0,0.0,192.85690000003572,218.0,,,,196.8047000000477,197.3045,196.29310000002383,196.8047000000477,193.85710000002385,196.293,197.3045,197.8015,197.8015,201.17100000000005,1997.0,201.1711000000239,5.0,202.1707000000477,0.0,14.0,14.0,18.0,1.0,1.4,0.7,Time
,,S42,1,,,anonymized,Serial_Dependence_U,2023.2.3,Win32,166.66666666666666,,,,,,202.17090000003577,238.0,0.0,202.1711000000239,238.0,,,,205.94010000002385,206.43680000001197,205.4375,205.94010000002385,203.1707000000477,205.4375,206.4369000000358,206.9337000000477,206.933800000012,210.12740000003575,2624.0,210.12750000000003,5.0,211.12710000002383,0.0,15.0,15.0,2.0,1.0,1.2,0.3,Time
,,S42,1,,,anonymized,Serial_Dependence_U,2023.2.3,Win32,166.66666666666666,,,,,,211.12750000000003,18.0,0.0,211.12750000000003,18.0,,,,215.0665,215.56300000000005,214.56360000002388,215.0665,212.12750000000003,214.56350000000003,215.5631000000239,216.06,216.0602000000477,218.49030000001196,1964.0,218.49030000001196,5.0,219.4897000000477,0.0,16.0,16.0,28.0,1.0,1.4,0.7,Time
,,S42,1,,,anonymized,Serial_Dependence_U,2023.2.3,Win32,166.66666666666666,,,,,,219.49010000002383,355.0,0.0,219.4902000000477,355.0,,,,223.45950000000005,223.956,222.95630000001196,223.45940000003577,220.49010000002383,222.95630000001196,223.956,224.452800000012,224.452800000012,227.30730000001196,2194.0,227.30730000001196,5.0,228.3069000000358,0.0,17.0,17.0,13.0,1.0,1.4,0.3,Time
,,S42,1,,,anonymized,Serial_Dependence_U,2023.2.3,Win32,166.66666666666666,,,,,,228.30730000001196,219.0,0.0,228.3075,219.0,,,,231.6465,232.142800000012,231.1434000000358,231.6465,229.30740000003576,231.1434000000358,232.142800000012,232.639800000012,232.639800000012,235.3789000000358,2255.0,235.3789000000358,5.0,236.37870000004773,0.0,18.0,18.0,15.0,1.0,0.8,0.7,Time
,,S42,1,,,anonymized,Serial_Dependence_U,2023.2.3,Win32,166.66666666666666,,,,,,236.37910000002387,321.0,0.0,236.3792000000477,321.0,,,,240.3215,240.82050000000004,239.81510000002385,240.3214000000358,237.379,239.81500000000003,240.8206000000239,241.31760000002384,241.31760000002384,244.00240000003575,2244.0,244.00250000000003,5.0,245.002,0.0,19.0,19.0,8.0,1.0,1.4,0.7,Time
,,S42,1,,,anonymized,Serial_Dependence_U,2023.2.3,Win32,166.66666666666666,,,,,,245.00240000003575,4.0,0.0,245.00250000000003,4.0,,,,248.77200000000005,249.26810000002388,248.2687000000477,248.77200000000005,246.0022000000477,248.2687000000477,249.26810000002388,249.76500000000004,249.7651000000239,253.7952000000477,2243.0,253.7952000000477,5.0,254.79460000002388,0.0,20.0,20.0,22.0,1.0,1.2,0.3,Time
,,S42,1,,,anonymized,Serial_Dependence_U,2023.2.3,Win32,166.66666666666666,,,,,,254.795,319.0,0.0,254.7952000000477,319.0,,,,258.964300000012,259.4609000000358,258.46110000002386,258.964300000012,255.79530000001196,258.46110000002386,259.4609000000358,259.957800000012,259.9579000000358,262.806300000012,2069.0,262.806300000012,4.0,263.805800000012,0.0,21.0,21.0,24.0,1.0,1.6,0.3,Time
,,S42,1,,,anonymized,Serial_Dependence_U,2023.2.3,Win32,166.66666666666666,,,,,,263.80620000004774,22.0,0.0,263.806300000012,22.0,,,,267.37550000000005,267.872,266.8725,267.37550000000005,264.8061000000239,266.8725,267.872,268.368800000012,268.3689000000358,270.9688000000119,2211.0,270.9689000000358,5.0,271.9684000000358,0.0,22.0,22.0,21.0,1.0,1.0,0.3,Time
,,S42,1,,,anonymized,Serial_Dependence_U,2023.2.3,Win32,166.66666666666666,,,,,,271.9689000000358,177.0,0.0,271.96900000000005,177.0,,,,275.53810000002386,276.0346000000239,275.035,275.538,272.9688000000119,275.0349000000358,276.0346000000239,276.53160000002384,276.53160000002384,279.04060000002386,2101.0,279.04060000002386,5.0,280.0402000000477,0.0,23.0,23.0,11.0,1.0,1.0,0.3,Time
,,S42,1,,,anonymized,Serial_Dependence_U,2023.2.3,Win32,166.66666666666666,,,,,,280.0404000000358,101.0,0.0,280.0405,101.0,,,,283.3795,283.8761000000239,282.87660000002387,283.3795,281.0405,282.87660000002387,283.87620000004773,284.3731000000239,284.3731000000239,287.0458000000119,2276.0,287.0458000000119,5.0,288.04530000001193,0.0,24.0,24.0,5.0,1.0,0.8,0.7,Time
,,S42,1,,,anonymized,Serial_Dependence_U,2023.2.3,Win32,166.66666666666666,,,,,,288.0457000000477,325.0,0.0,288.0458000000119,325.0,,,,291.81500000000005,292.3115,291.312,291.81500000000005,289.0455,291.3119000000358,292.3115,292.80850000000004,292.80850000000004,308.7163000000119,1770.0,308.7163000000119,5.0,309.71560000002387,0.0,25.0,25.0,12.0,1.0,1.2,0.3,Time
,,S42,1,,,anonymized,Serial_Dependence_U,2023.2.3,Win32,166.66666666666666,,,,,,309.716,326.0,0.0,309.71610000002386,326.0,,,,313.8851000000239,314.38160000002387,313.3822000000477,313.8851000000239,310.7159000000358,313.3822000000477,314.38160000002387,314.8786000000239,314.8786000000239,318.017800000012,2630.0,318.0179000000358,5.0,319.01750000000004,0.0,26.0,26.0,4.0,1.0,1.6,0.3,Time
,,S42,1,,,anonymized,Serial_Dependence_U,2023.2.3,Win32,166.66666666666666,,,,,,319.017800000012,189.0,0.0,319.0179000000358,189.0,,,,322.38740000003577,322.8837000000477,321.8842000000477,322.387300000012,320.0176000000239,321.88410000002386,322.8837000000477,323.38050000000004,323.38070000004774,327.43480000001193,3118.0,327.4349000000358,5.0,328.43460000002386,0.0,27.0,27.0,10.0,1.0,0.8,0.3,Time
,,S42,1,,,anonymized,Serial_Dependence_U,2023.2.3,Win32,166.66666666666666,,,,,,328.4349000000358,259.0,0.0,328.4349000000358,259.0,,,,332.57380000001194,333.0704000000358,332.0709000000358,332.57380000001194,329.4349000000358,332.0709000000358,333.07050000000004,333.5672000000477,333.5672000000477,336.49460000002387,2767.0,336.4947000000477,5.0,337.494,0.0,28.0,28.0,9.0,1.0,1.6,0.7,Time
,,S42,1,,,anonymized,Serial_Dependence_U,2023.2.3,Win32,166.66666666666666,,,,,,337.49430000001195,128.0,0.0,337.4944000000358,128.0,,,,340.863800000012,341.36030000001193,340.3607000000477,340.8637000000477,338.49430000001195,340.3607000000477,341.36030000001193,341.8571000000239,341.8572000000477,345.341800000012,2944.0,345.341800000012,5.0,346.3414000000358,0.0,29.0,29.0,0.0,1.0,0.8,0.3,Time
,,S42,1,,,anonymized,Serial_Dependence_U,2023.2.3,Win32,166.66666666666666,,,,,,346.341800000012,355.0,1.0,349.86,355.0,s,3.5048999999761463,,353.80180000001195,354.2982000000477,353.2986000000239,353.80170000004773,350.8629000000358,353.2986000000239,354.2982000000477,354.795,354.795,400.3112000000477,1951.0,400.311300000012,5.0,400.316300000012,1.0,0.0,30.0,18.0,1.0,1.4,0.7,Time
,,S42,1,,,anonymized,Serial_Dependence_U,2023.2.3,Win32,166.66666666666666,,,,,,400.3164000000358,77.0,1.0,400.3172000000477,77.0,,,,403.856300000012,404.352800000012,403.3532000000477,403.8562000000477,401.318,403.3531000000239,404.352800000012,404.8496000000239,404.8496000000239,407.2194000000358,2018.0,407.2195,5.0,407.223800000012,1.0,1.0,31.0,26.0,1.0,1.0,0.7,Time
,,S42,1,,,anonymized,Serial_Dependence_U,2023.2.3,Win32,166.66666666666666,,,,,,407.2240000000001,279.0,1.0,407.2240000000001,279.0,,,,410.965300000012,411.461,410.4616000000239,410.965300000012,408.2252000000477,410.4616000000239,411.461,411.9579000000358,411.9579000000358,412.461,120.0,412.461,1.0,412.464800000012,1.0,2.0,32.0,7.0,1.0,1.2,0.7,Time
,,S42,1,,,anonymized,Serial_Dependence_U,2023.2.3,Win32,166.66666666666666,,,,,,412.465,99.0,1.0,412.465,99.0,,,,415.8309000000358,416.3271000000239,415.327800000012,415.8309000000358,413.467,415.3277000000477,416.3272000000477,416.8241000000239,416.8241000000239,419.01180000001193,1681.0,419.01180000001193,5.0,419.0167000000477,1.0,3.0,33.0,10.0,1.0,0.8,0.3,Time
,,S42,1,,,anonymized,Serial_Dependence_U,2023.2.3,Win32,166.66666666666666,,,,,,419.0169000000358,228.0,1.0,419.0169000000358,228.0,,,,422.9875,423.4837000000477,422.484300000012,422.9874000000358,420.0182000000477,422.484300000012,423.4837000000477,423.9807000000477,423.9808000000119,426.5506000000239,2164.0,426.550800000012,5.0,426.555,1.0,4.0,34.0,3.0,1.0,1.4,0.3,Time
,,S42,1,,,anonymized,Serial_Dependence_U,2023.2.3,Win32,166.66666666666666,,,,,,426.5551000000239,225.0,1.0,426.5552000000477,225.0,,,,430.5257000000477,431.0224000000358,430.023,430.5257000000477,427.5566000000239,430.0229000000358,431.0224000000358,431.5193000000119,431.5193000000119,435.7919000000358,2930.0,435.792,5.0,435.796300000012,1.0,5.0,35.0,13.0,1.0,1.4,0.3,Time
,,S42,1,,,anonymized,Serial_Dependence_U,2023.2.3,Win32,166.66666666666666,,,,,,435.7965,203.0,1.0,435.7966000000239,203.0,,,,439.537,440.0334000000358,439.0340000000001,439.537,436.79780000001193,439.03390000003577,440.0336000000239,440.530300000012,440.530300000012,443.13040000003576,2115.0,443.13040000003576,5.0,443.1351000000239,1.0,6.0,36.0,17.0,1.0,1.2,0.7,Time
,,S42,1,,,anonymized,Serial_Dependence_U,2023.2.3,Win32,166.66666666666666,,,,,,443.135300000012,26.0,1.0,443.135300000012,26.0,,,,446.905800000012,447.4022000000477,446.4032000000477,446.905800000012,444.1364000000358,446.4031000000239,447.4022000000477,447.8991000000239,447.8992000000477,451.2442000000477,2941.0,451.2442000000477,5.0,451.2485,1.0,7.0,37.0,12.0,1.0,1.2,0.3,Time
,,S42,1,,,anonymized,Serial_Dependence_U,2023.2.3,Win32,166.66666666666666,,,,,,451.2487000000477,84.0,1.0,451.248800000012,84.0,,,,454.5907000000477,455.0922000000477,454.0866000000239,454.5906000000239,452.2507000000477,454.0866000000239,455.0922000000477,455.58920000004775,455.58920000004775,458.9464000000357,2449.0,458.9465,5.0,458.9512000000477,1.0,8.0,38.0,15.0,1.0,0.8,0.7,Time
,,S42,1,,,anonymized,Serial_Dependence_U,2023.2.3,Win32,166.66666666666666,,,,,,458.9514000000359,184.0,1.0,458.9514000000359,184.0,,,,462.7219000000358,463.2184000000358,462.2189000000358,462.721800000012,459.9525,462.2189000000358,463.2184000000358,463.7154000000357,463.7154000000357,466.4485000000001,2363.0,466.4486000000238,5.0,466.452800000012,1.0,9.0,39.0,2.0,1.0,1.2,0.3,Time
,,S42,1,,,anonymized,Serial_Dependence_U,2023.2.3,Win32,166.66666666666666,,,,,,466.453,72.0,1.0,466.453,72.0,,,,469.7939000000358,470.290300000012,469.29100000000005,469.7939000000358,467.4548000000119,469.2909000000358,470.290300000012,470.7873000000119,470.7873000000119,472.745,1588.0,472.745,5.0,472.7492000000477,1.0,10.0,40.0,25.0,1.0,0.8,0.7,Time
,,S42,1,,,anonymized,Serial_Dependence_U,2023.2.3,Win32,166.66666666666666,,,,,,472.7494000000357,217.0,1.0,472.7495,217.0,,,,476.92020000004766,477.4168000000119,476.4174000000357,476.9201000000239,473.750800000012,476.417300000012,477.4168000000119,477.9139000000358,477.9139000000358,480.56810000002383,2351.0,480.56810000002383,5.0,480.5725,1.0,11.0,41.0,24.0,1.0,1.6,0.3,Time
,,S42,1,,,anonymized,Serial_Dependence_U,2023.2.3,Win32,166.66666666666666,,,,,,480.5727000000477,262.0,1.0,480.5727000000477,262.0,,,,484.5377000000477,485.0342000000477,484.0345,484.5377000000477,481.57190000003584,484.0345,485.0342000000477,485.53100000000006,485.53100000000006,489.3856000000238,2600.0,489.3856000000238,5.0,489.389800000012,1.0,12.0,42.0,23.0,1.0,1.4,0.3,Time
,,S42,1,,,anonymized,Serial_Dependence_U,2023.2.3,Win32,166.66666666666666,,,,,,489.39,233.0,1.0,489.39,233.0,,,,493.130300000012,493.62700000000007,492.6276000000239,493.130300000012,490.39120000004766,492.6276000000239,493.62700000000007,494.12390000003575,494.12390000003575,498.37220000004766,2133.0,498.37220000004766,5.0,498.3766000000238,1.0,13.0,43.0,27.0,1.0,1.2,0.7,Time
,,S42,1,,,anonymized,Serial_Dependence_U,2023.2.3,Win32,166.66666666666666,,,,,,498.376800000012,84.0,1.0,498.3769000000358,84.0,,,,502.5173000000119,503.013800000012,502.0146000000239,502.5173000000119,499.3783000000119,502.0146000000239,503.013800000012,503.5107000000477,503.510800000012,506.0802000000477,2311.0,506.0802000000477,5.0,506.0843000000119,1.0,14.0,44.0,9.0,1.0,1.6,0.7,Time
,,S42,1,,,anonymized,Serial_Dependence_U,2023.2.3,Win32,166.66666666666666,,,,,,506.08440000003577,318.0,1.0,506.0845000000001,318.0,,,,510.2252000000477,510.7219000000358,509.722300000012,510.2252000000477,507.08640000003584,509.722300000012,510.7219000000358,511.2188000000119,511.2189000000358,513.6703000000119,2151.0,513.6703000000119,5.0,513.6745000000001,1.0,15.0,45.0,19.0,1.0,1.6,0.7,Time
,,S42,1,,,anonymized,Serial_Dependence_U,2023.2.3,Win32,166.66666666666666,,,,,,513.6746000000238,103.0,1.0,513.6746000000238,103.0,,,,517.2489000000357,517.745300000012,516.746,517.2489000000357,514.679300000012,516.746,517.745300000012,518.2423000000119,518.2423000000119,521.236300000012,2108.0,521.2364000000358,5.0,521.2405,1.0,16.0,46.0,21.0,1.0,1.0,0.3,Time
,,S42,1,,,anonymized,Serial_Dependence_U,2023.2.3,Win32,166.66666666666666,,,,,,521.2406000000238,85.0,1.0,521.240800000012,85.0,,,,525.181,525.6777000000477,524.6784000000358,525.181,522.2424000000358,524.678300000012,525.6777000000477,526.1748000000119,526.1748000000119,528.6656000000239,2185.0,528.6657000000478,5.0,528.6703000000119,1.0,17.0,47.0,8.0,1.0,1.4,0.7,Time
,,S42,1,,,anonymized,Serial_Dependence_U,2023.2.3,Win32,166.66666666666666,,,,,,528.6705000000001,235.0,1.0,528.6706000000239,235.0,,,,532.8107000000477,533.307,532.3074000000358,532.8106000000239,529.6717000000477,532.3074000000358,533.307,533.8041000000238,533.8042000000477,536.2589000000357,2162.0,536.2589000000357,5.0,536.2632000000477,1.0,18.0,48.0,29.0,1.0,1.6,0.7,Time
,,S42,1,,,anonymized,Serial_Dependence_U,2023.2.3,Win32,166.66666666666666,,,,,,536.2634000000357,90.0,1.0,536.2635,90.0,,,,539.7977000000477,540.2942000000477,539.2955000000001,539.7977000000477,537.2647000000477,539.2955000000001,540.2942000000477,540.7912000000478,540.7913000000119,545.1241000000239,2303.0,545.1241000000239,5.0,545.1288000000119,1.0,19.0,49.0,6.0,1.0,1.0,0.7,Time
,,S42,1,,,anonymized,Serial_Dependence_U,2023.2.3,Win32,166.66666666666666,,,,,,545.129,76.0,1.0,545.129,76.0,,,,549.2996000000238,549.7961000000239,548.7964000000358,549.2996000000238,546.1304000000358,548.7963000000119,549.7961000000239,550.2929000000358,550.2929000000358,553.2689000000358,2483.0,553.2689000000358,5.0,553.273300000012,1.0,20.0,50.0,14.0,1.0,1.6,0.3,Time
,,S42,1,,,anonymized,Serial_Dependence_U,2023.2.3,Win32,166.66666666666666,,,,,,553.2735,39.0,1.0,553.2736000000239,39.0,,,,556.8443000000119,557.3407000000477,556.341,556.8442000000477,554.2747000000477,556.341,557.3407000000477,557.8376000000238,557.8376000000238,559.456800000012,1292.0,559.456800000012,4.0,559.4609000000357,1.0,21.0,51.0,1.0,1.0,1.0,0.3,Time
,,S42,1,,,anonymized,Serial_Dependence_U,2023.2.3,Win32,166.66666666666666,,,,,,559.461,125.0,1.0,559.4611000000239,125.0,,,,563.0312000000478,563.5278000000119,562.528300000012,563.0312000000478,560.4617000000477,562.528300000012,563.5278000000119,564.0247000000477,564.0247000000477,566.0186000000239,1685.0,566.0186000000239,5.0,566.0224000000358,1.0,22.0,52.0,11.0,1.0,1.0,0.3,Time
,,S42,1,,,anonymized,Serial_Dependence_U,2023.2.3,Win32,166.66666666666666,,,,,,566.0226000000239,124.0,1.0,566.0227000000477,124.0,,,,569.394,569.8977000000477,568.8912000000477,569.3939000000358,567.0249000000358,568.8912000000477,569.8977000000477,570.3937000000477,570.393800000012,572.7634000000357,2103.0,572.7634000000357,5.0,572.7679000000358,1.0,23.0,53.0,0.0,1.0,0.8,0.3,Time
,,S42,1,,,anonymized,Serial_Dependence_U,2023.2.3,Win32,166.66666666666666,,,,,,572.7681000000239,32.0,1.0,572.7682000000477,32.0,,,,576.3082000000477,576.8050000000001,575.8058000000119,576.3082000000477,573.7695,575.8057000000478,576.8051000000239,577.3019000000357,577.302,579.4537000000477,1826.0,579.4537000000477,5.0,579.4577000000477,1.0,24.0,54.0,16.0,1.0,1.0,0.7,Time
,,S42,1,,,anonymized,Serial_Dependence_U,2023.2.3,Win32,166.66666666666666,,,,,,579.457800000012,296.0,1.0,579.4579000000358,296.0,,,,582.8290000000001,583.3255,582.3262000000477,582.8288000000119,580.4596000000239,582.3261000000239,583.3255,583.8225,583.8225,586.8284000000358,2454.0,586.8284000000358,5.0,586.8331000000238,1.0,25.0,55.0,20.0,1.0,0.8,0.3,Time
,,S42,1,,,anonymized,Serial_Dependence_U,2023.2.3,Win32,166.66666666666666,,,,,,586.833300000012,245.0,1.0,586.833300000012,245.0,,,,590.7741000000239,591.2699000000358,590.2705000000001,590.774,587.8347000000477,590.2705000000001,591.2699000000358,591.7671000000239,591.7672000000478,594.1366000000239,2084.0,594.1366000000239,5.0,594.1406000000238,1.0,26.0,56.0,28.0,1.0,1.4,0.7,Time
,,S42,1,,,anonymized,Serial_Dependence_U,2023.2.3,Win32,166.66666666666666,,,,,,594.1409000000358,162.0,1.0,594.1409000000358,162.0,,,,598.3121000000239,598.8085,597.8089000000358,598.312,595.1426000000239,597.808800000012,598.8085,599.3074000000358,599.3074000000358,601.4754000000358,1939.0,601.4754000000358,4.0,601.4797000000477,1.0,27.0,57.0,4.0,1.0,1.6,0.3,Time
,,S42,1,,,anonymized,Serial_Dependence_U,2023.2.3,Win32,166.66666666666666,,,,,,601.479800000012,28.0,1.0,601.48,28.0,,,,604.8204000000358,605.3167000000477,604.3174000000358,604.8204000000358,602.4812000000477,604.3174000000358,605.316800000012,605.8137000000477,605.813800000012,608.359,2164.0,608.359,5.0,608.3633000000119,1.0,28.0,58.0,5.0,1.0,0.8,0.7,Time
,,S42,1,,,anonymized,Serial_Dependence_U,2023.2.3,Win32,166.66666666666666,,,,,,608.3635,63.0,1.0,608.3635,63.0,,,,612.1347000000477,612.6311000000238,611.6319000000358,612.1347000000477,609.3651000000239,611.6318000000119,612.6311000000238,613.1279000000358,613.1279000000358,616.0492000000477,1877.0,616.049300000012,5.0,616.0542000000477,1.0,29.0,59.0,22.0,1.0,1.2,0.3,Time
,,S42,1,,,anonymized,Serial_Dependence_U,2023.2.3,Win32,166.66666666666666,,,,,,616.0544000000358,335.0,2.0,629.894,335.0,s,13.826999999999998,,633.4653000000119,633.9619000000358,632.9625,633.4653000000119,630.8961000000239,632.9625,633.9619000000358,634.4587000000477,634.4588000000119,636.7011000000239,1976.0,636.7012000000477,5.0,636.7053000000119,2.0,0.0,60.0,1.0,1.0,1.0,0.3,Time
,,S42,1,,,anonymized,Serial_Dependence_U,2023.2.3,Win32,166.66666666666666,,,,,,636.7056000000239,106.0,2.0,636.7062000000477,106.0,,,,640.0707000000477,640.5672000000477,639.5679000000358,640.0706000000239,637.7071000000238,639.5679000000358,640.5672000000477,641.0641000000238,641.0641000000238,643.0339000000358,1956.0,643.034,5.0,643.038,2.0,1.0,61.0,20.0,1.0,0.8,0.3,Time
,,S42,1,,,anonymized,Serial_Dependence_U,2023.2.3,Win32,166.66666666666666,,,,,,643.0382000000477,296.0,2.0,643.038300000012,296.0,,,,647.009300000012,647.5057000000477,646.5064000000358,647.009300000012,644.0400000000001,646.506300000012,647.505800000012,648.0027000000478,648.0027000000478,649.9601000000239,1724.0,649.9602000000477,4.0,649.9644000000358,2.0,2.0,62.0,13.0,1.0,1.4,0.3,Time
,,S42,1,,,anonymized,Serial_Dependence_U,2023.2.3,Win32,166.66666666666666,,,,,,649.9645,16.0,2.0,649.9646000000239,16.0,,,,654.1056000000239,654.6019000000358,653.6028000000119,654.1056000000239,650.9664000000358,653.6028000000119,654.6019000000358,655.0987000000478,655.0987000000478,656.917300000012,1470.0,656.9174000000357,2.0,656.9215,2.0,3.0,63.0,19.0,1.0,1.6,0.7,Time
,,S42,1,,,anonymized,Serial_Dependence_U,2023.2.3,Win32,166.66666666666666,,,,,,656.9217000000477,10.0,2.0,656.9217000000477,10.0,,,,660.4865,660.9830000000001,659.9841000000239,660.4864000000358,657.9231000000239,659.984,660.9830000000001,661.4799000000357,661.4799000000357,664.6194000000357,2180.0,664.6196000000239,5.0,664.6242000000477,2.0,4.0,64.0,21.0,1.0,1.0,0.3,Time
,,S42,1,,,anonymized,Serial_Dependence_U,2023.2.3,Win32,166.66666666666666,,,,,,664.624300000012,29.0,2.0,664.6245,29.0,,,,668.5643000000119,669.0608000000119,668.0615,668.5643000000119,665.6256000000238,668.0614000000357,669.0608000000119,669.5577000000477,669.5577000000477,671.7941000000238,1933.0,671.7941000000238,5.0,671.7985,2.0,5.0,65.0,8.0,1.0,1.4,0.7,Time
,,S42,1,,,anonymized,Serial_Dependence_U,2023.2.3,Win32,166.66666666666666,,,,,,671.7986000000238,274.0,2.0,671.7987000000477,274.0,,,,675.9696000000239,676.4659000000358,675.4666000000238,675.9695,672.8005,675.4665,676.466,676.962800000012,676.962800000012,679.0964000000358,1839.0,679.0964000000358,4.0,679.1009000000358,2.0,6.0,66.0,24.0,1.0,1.6,0.3,Time
,,S42,1,,,anonymized,Serial_Dependence_U,2023.2.3,Win32,166.66666666666666,,,,,,679.1011000000238,67.0,2.0,679.1011000000238,67.0,,,,683.0716000000239,683.5681000000238,682.5687000000477,683.0715,680.1025000000001,682.5686000000238,683.5681000000238,684.0651000000239,684.0651000000239,688.5744000000358,1612.0,688.5745000000001,4.0,688.5790000000001,2.0,7.0,67.0,23.0,1.0,1.4,0.3,Time
,,S42,1,,,anonymized,Serial_Dependence_U,2023.2.3,Win32,166.66666666666666,,,,,,688.5791000000239,155.0,2.0,688.5792000000478,155.0,,,,692.1494000000358,692.645800000012,691.6464000000358,692.1492000000477,689.58,691.6464000000358,692.645800000012,693.1428000000119,693.1428000000119,695.0279000000357,1521.0,695.0279000000357,5.0,695.0323000000119,2.0,8.0,68.0,11.0,1.0,1.0,0.3,Time
,,S42,1,,,anonymized,Serial_Dependence_U,2023.2.3,Win32,166.66666666666666,,,,,,695.0324000000358,301.0,2.0,695.0325,301.0,,,,698.5729000000358,699.0694000000358,698.0703000000119,698.5729000000358,696.0341000000238,698.0703000000119,699.0694000000358,699.5665,699.5665,701.2452000000477,1478.0,701.2452000000477,5.0,701.2495,2.0,9.0,69.0,16.0,1.0,1.0,0.7,Time
,,S42,1,,,anonymized,Serial_Dependence_U,2023.2.3,Win32,166.66666666666666,,,,,,701.2497000000477,77.0,2.0,701.249800000012,77.0,,,,705.4209000000358,705.9177000000477,704.917800000012,705.4207000000478,702.251300000012,704.9177000000477,705.917800000012,706.414,706.414,708.917,2030.0,708.9171000000239,4.0,708.9218000000119,2.0,10.0,70.0,14.0,1.0,1.6,0.3,Time
,,S42,1,,,anonymized,Serial_Dependence_U,2023.2.3,Win32,166.66666666666666,,,,,,708.9219000000357,350.0,2.0,708.922,350.0,,,,712.8923000000119,713.3891000000239,712.3895,712.8923000000119,709.923300000012,712.3895,713.3892000000477,713.8861000000238,713.8862000000477,717.552300000012,2331.0,717.552300000012,5.0,717.5571000000239,2.0,11.0,71.0,3.0,1.0,1.4,0.3,Time
,,S42,1,,,anonymized,Serial_Dependence_U,2023.2.3,Win32,166.66666666666666,,,,,,717.557300000012,58.0,2.0,717.5574000000358,58.0,,,,721.0975000000001,721.594,720.5945,721.0975000000001,718.5584000000358,720.5945,721.5941000000239,722.0909000000358,722.0909000000358,724.2849000000358,2185.0,724.2850000000001,5.0,724.2894000000358,2.0,12.0,72.0,26.0,1.0,1.0,0.7,Time
,,S42,1,,,anonymized,Serial_Dependence_U,2023.2.3,Win32,166.66666666666666,,,,,,724.2895,99.0,2.0,724.2896000000238,99.0,,,,728.0606000000239,728.556800000012,727.5575,728.0605,725.2908000000119,727.5574000000358,728.556800000012,729.0537000000477,729.053800000012,730.5993000000119,1258.0,730.5993000000119,3.0,730.6036000000239,2.0,13.0,73.0,2.0,1.0,1.2,0.3,Time
,,S42,1,,,anonymized,Serial_Dependence_U,2023.2.3,Win32,166.66666666666666,,,,,,730.6038000000119,332.0,2.0,730.6038000000119,332.0,,,,734.1446000000238,734.6409000000358,733.6416000000239,734.1446000000238,731.6052000000477,733.6416000000239,734.6409000000358,735.1378000000119,735.1378000000119,738.26,2041.0,738.26,5.0,738.2641000000239,2.0,14.0,74.0,6.0,1.0,1.0,0.7,Time
,,S42,1,,,anonymized,Serial_Dependence_U,2023.2.3,Win32,166.66666666666666,,,,,,738.264300000012,115.0,2.0,738.2644000000358,115.0,,,,742.4042000000477,742.9004000000358,741.9011000000239,742.4042000000477,739.2651000000238,741.9011000000239,742.9004000000358,743.3974000000358,743.3974000000358,747.4456000000239,2112.0,747.4457000000477,5.0,747.4501000000239,2.0,15.0,75.0,29.0,1.0,1.6,0.7,Time
,,S42,1,,,anonymized,Serial_Dependence_U,2023.2.3,Win32,166.66666666666666,,,,,,747.4502000000477,144.0,2.0,747.4503000000119,144.0,,,,751.6212000000477,752.1176000000239,751.1182000000478,751.6211000000238,748.4519000000358,751.1181000000239,752.1177000000478,752.6146000000239,752.6146000000239,755.3297000000478,2574.0,755.3298000000119,5.0,755.3344000000358,2.0,16.0,76.0,4.0,1.0,1.6,0.3,Time
,,S42,1,,,anonymized,Serial_Dependence_U,2023.2.3,Win32,166.66666666666666,,,,,,755.3346000000239,124.0,2.0,755.3346000000239,124.0,,,,759.0749000000358,759.5714000000357,758.5721000000239,759.0749000000358,756.3357000000477,758.5721000000239,759.5714000000357,760.0682000000477,760.0682000000477,761.9836000000239,1642.0,761.9837000000477,5.0,761.9883000000119,2.0,17.0,77.0,17.0,1.0,1.2,0.7,Time
,,S42,1,,,anonymized,Serial_Dependence_U,2023.2.3,Win32,166.66666666666666,,,,,,761.9885,259.0,2.0,761.9886000000239,259.0,,,,765.758800000012,766.2554000000358,765.2557000000477,765.758800000012,762.990300000012,765.2556000000238,766.2554000000358,766.7522000000478,766.7522000000478,770.230800000012,2630.0,770.2309000000358,5.0,770.2352000000477,2.0,18.0,78.0,22.0,1.0,1.2,0.3,Time
,,S42,1,,,anonymized,Serial_Dependence_U,2023.2.3,Win32,166.66666666666666,,,,,,770.2354000000358,41.0,2.0,770.2355,41.0,,,,773.5761000000239,774.0725,773.073300000012,773.5761000000239,771.2369000000358,773.0731000000238,774.0725,774.5695000000001,774.5695000000001,775.933300000012,1118.0,775.9334000000358,5.0,775.9374000000358,2.0,19.0,79.0,5.0,1.0,0.8,0.7,Time
,,S42,1,,,anonymized,Serial_Dependence_U,2023.2.3,Win32,166.66666666666666,,,,,,775.9376000000238,269.0,2.0,775.9376000000238,269.0,,,,779.2789000000358,779.775,778.7758000000119,779.278800000012,776.9393000000119,778.7758000000119,779.775,780.2718000000119,780.2719000000358,781.066,537.0,781.0661000000239,1.0,781.0704000000358,2.0,20.0,80.0,25.0,1.0,0.8,0.7,Time
,,S42,1,,,anonymized,Serial_Dependence_U,2023.2.3,Win32,166.66666666666666,,,,,,781.0705,207.0,2.0,781.0706000000239,207.0,,,,784.8112000000477,785.307800000012,784.3081000000238,784.8111000000239,782.0719000000358,784.308,785.307800000012,785.8045000000001,785.8046000000239,787.8045000000001,1787.0,787.8045000000001,5.0,787.8084000000358,2.0,21.0,81.0,7.0,1.0,1.2,0.7,Time
,,S42,1,,,anonymized,Serial_Dependence_U,2023.2.3,Win32,166.66666666666666,,,,,,787.8086000000238,321.0,2.0,787.8087000000477,321.0,,,,791.543800000012,792.0403000000119,791.0413000000119,791.543800000012,788.8092000000477,791.0412000000478,792.0403000000119,792.5369000000358,792.5369000000358,794.8892000000477,1944.0,794.8892000000477,5.0,794.8936000000239,2.0,22.0,82.0,27.0,1.0,1.2,0.7,Time
,,S42,1,,,anonymized,Serial_Dependence_U,2023.2.3,Win32,166.66666666666666,,,,,,794.8937000000477,109.0,2.0,794.893800000012,109.0,,,,798.6641000000238,799.1604000000358,798.1611000000239,798.664,795.8945,798.1610000000001,799.1605000000001,799.6574000000358,799.6574000000358,801.1848000000119,1234.0,801.1849000000358,3.0,801.188800000012,2.0,23.0,83.0,12.0,1.0,1.2,0.3,Time
,,S42,1,,,anonymized,Serial_Dependence_U,2023.2.3,Win32,166.66666666666666,,,,,,801.1889000000358,127.0,2.0,801.1891000000238,127.0,,,,804.5601000000239,805.056800000012,804.0579000000358,804.5601000000239,802.1908000000119,804.057800000012,805.056800000012,805.5536000000238,805.5536000000238,807.5175,1642.0,807.5176000000239,5.0,807.5217000000478,2.0,24.0,84.0,10.0,1.0,0.8,0.3,Time
,,S42,1,,,anonymized,Serial_Dependence_U,2023.2.3,Win32,166.66666666666666,,,,,,807.5218000000119,330.0,2.0,807.5219000000358,330.0,,,,811.4624000000358,811.9589000000358,810.9597000000477,811.4624000000358,808.5236000000239,810.9596000000239,811.9590000000001,812.456,812.4561000000239,814.996,2258.0,814.996,5.0,815.0001000000238,2.0,25.0,85.0,28.0,1.0,1.4,0.7,Time
,,S42,1,,,anonymized,Serial_Dependence_U,2023.2.3,Win32,166.66666666666666,,,,,,815.000300000012,128.0,2.0,815.000300000012,128.0,,,,818.9344000000358,819.4312000000477,818.4321000000239,818.9344000000358,816.001300000012,818.432,819.4312000000477,819.9277000000477,819.9277000000477,822.2372000000477,2106.0,822.2373000000119,5.0,822.241800000012,2.0,26.0,86.0,18.0,1.0,1.4,0.7,Time
,,S42,1,,,anonymized,Serial_Dependence_U,2023.2.3,Win32,166.66666666666666,,,,,,822.2419000000358,287.0,2.0,822.2421000000239,287.0,,,,826.3821000000239,826.8785,825.8791000000239,826.3821000000239,823.2436000000239,825.879,826.8785,827.3754000000358,827.3754000000358,829.908800000012,2400.0,829.908800000012,5.0,829.9127000000477,2.0,27.0,87.0,9.0,1.0,1.6,0.7,Time
,,S42,1,,,anonymized,Serial_Dependence_U,2023.2.3,Win32,166.66666666666666,,,,,,829.9129000000358,93.0,2.0,829.9129000000358,93.0,,,,833.2844000000358,833.7807000000477,832.7812000000478,833.284300000012,830.9147000000477,832.7811000000239,833.7807000000477,834.2776000000239,834.2777000000477,836.9807000000477,2297.0,836.980800000012,5.0,836.984800000012,2.0,28.0,88.0,0.0,1.0,0.8,0.3,Time
,,S42,1,,,anonymized,Serial_Dependence_U,2023.2.3,Win32,166.66666666666666,,,,,,836.985,142.0,2.0,836.9851000000239,142.0,,,,840.3262000000477,840.822300000012,839.8231000000238,840.3261000000239,837.9865,839.823,840.822300000012,841.3191000000239,841.3191000000239,843.1922000000477,1659.0,843.1922000000477,5.0,843.1961000000239,2.0,29.0,89.0,15.0,1.0,0.8,0.7,Time
,,S42,1,,,anonymized,Serial_Dependence_U,2023.2.3,Win32,166.66666666666666,,,,,,843.1962000000477,314.0,3.0,847.1102000000477,314.0,s,3.90119999998808,,851.2827000000477,851.7785,850.7789000000358,851.2826000000239,848.1127000000478,850.7789000000358,851.7785,852.2756000000238,852.2756000000238,854.0211000000239,1368.0,854.0211000000239,2.0,854.0252000000477,3.0,0.0,90.0,14.0,1.0,1.6,0.3,Time
,,S42,1,,,anonymized,Serial_Dependence_U,2023.2.3,Win32,166.66666666666666,,,,,,854.0254000000358,212.0,3.0,854.0259000000358,212.0,,,,858.1965,858.692800000012,857.693800000012,858.1965,855.0271000000239,857.6937000000477,858.692800000012,859.1897000000478,859.1897000000478,861.480800000012,1999.0,861.480800000012,4.0,861.4849000000357,3.0,1.0,91.0,24.0,1.0,1.6,0.3,Time
,,S42,1,,,anonymized,Serial_Dependence_U,2023.2.3,Win32,166.66666666666666,,,,,,861.485,100.0,3.0,861.4851000000239,100.0,,,,864.8562000000477,865.3527000000477,864.3533000000119,864.8561000000238,862.4870000000001,864.3533000000119,865.3527000000477,865.8496000000239,865.8496000000239,867.7283000000119,1632.0,867.7283000000119,5.0,867.7324000000358,3.0,2.0,92.0,10.0,1.0,0.8,0.3,Time
,,S42,1,,,anonymized,Serial_Dependence_U,2023.2.3,Win32,166.66666666666666,,,,,,867.7326000000239,107.0,3.0,867.7327000000477,107.0,,,,871.097800000012,871.5944000000358,870.5954000000357,871.0977000000477,868.7344000000357,870.5954000000357,871.5944000000358,872.091300000012,872.0914000000358,873.6674000000357,1334.0,873.6674000000357,5.0,873.6713000000119,3.0,3.0,93.0,20.0,1.0,0.8,0.3,Time
,,S42,1,,,anonymized,Serial_Dependence_U,2023.2.3,Win32,166.66666666666666,,,,,,873.6714000000358,161.0,3.0,873.6715,161.0,,,,877.442800000012,877.9390000000001,876.9396000000239,877.442800000012,874.6735,876.9396000000239,877.9390000000001,878.436,878.436,879.8664000000358,1367.0,879.8664000000358,4.0,879.8704000000358,3.0,4.0,94.0,2.0,1.0,1.2,0.3,Time
,,S42,1,,,anonymized,Serial_Dependence_U,2023.2.3,Win32,166.66666666666666,,,,,,879.8706000000238,138.0,3.0,879.8706000000238,138.0,,,,883.441800000012,883.9384000000358,882.9389000000358,883.441800000012,880.8724000000358,882.938800000012,883.9384000000358,884.4353000000119,884.4353000000119,886.5805,1655.0,886.5805,5.0,886.5846000000239,3.0,5.0,95.0,21.0,1.0,1.0,0.3,Time
,,S42,1,,,anonymized,Serial_Dependence_U,2023.2.3,Win32,166.66666666666666,,,,,,886.5847000000477,257.0,3.0,886.5847000000477,257.0,,,,889.926,890.4224000000357,889.4231000000239,889.9259000000358,887.5866000000239,889.4231000000239,890.4225,890.9194000000358,890.9194000000358,893.6585,1847.0,893.6585,5.0,893.6625,3.0,6.0,96.0,15.0,1.0,0.8,0.7,Time
,,S42,1,,,anonymized,Serial_Dependence_U,2023.2.3,Win32,166.66666666666666,,,,,,893.6627000000477,96.0,3.0,893.6627000000477,96.0,,,,897.604,898.1002000000477,897.100800000012,897.604,894.664800000012,897.100800000012,898.1002000000477,898.597300000012,898.597300000012,900.7064000000358,1868.0,900.7064000000358,5.0,900.7105,3.0,7.0,97.0,28.0,1.0,1.4,0.7,Time
,,S42,1,,,anonymized,Serial_Dependence_U,2023.2.3,Win32,166.66666666666666,,,,,,900.7107000000477,171.0,3.0,900.710800000012,171.0,,,,904.4519000000358,904.948,903.9485,904.451800000012,901.712300000012,903.9484000000358,904.948,905.445100000024,905.4452000000476,908.6387000000476,2206.0,908.6387000000476,5.0,908.6432000000476,3.0,8.0,98.0,17.0,1.0,1.2,0.7,Time
,,S42,1,,,anonymized,Serial_Dependence_U,2023.2.3,Win32,166.66666666666666,,,,,,908.643300000012,191.0,3.0,908.6435,191.0,,,,912.614100000024,913.1105,912.111300000012,912.614100000024,909.6447000000476,912.1112000000476,913.1105,913.607600000024,913.607600000024,915.916600000024,2100.0,915.9167000000476,5.0,915.9207000000478,3.0,9.0,99.0,13.0,1.0,1.4,0.3,Time
,,S42,1,,,anonymized,Serial_Dependence_U,2023.2.3,Win32,166.66666666666666,,,,,,915.921,245.0,3.0,915.921,245.0,,,,919.461800000012,919.958300000012,918.958800000012,919.4617000000476,916.9229000000358,918.958800000012,919.9584000000358,920.455300000012,920.4554000000358,922.922300000012,2186.0,922.922300000012,5.0,922.926600000024,3.0,10.0,100.0,26.0,1.0,1.0,0.7,Time
,,S42,1,,,anonymized,Serial_Dependence_U,2023.2.3,Win32,166.66666666666666,,,,,,922.9269000000356,216.0,3.0,922.9269000000356,216.0,,,,926.4975,926.9939000000358,925.9945,926.4974000000358,923.9282000000476,925.9944000000356,926.9939000000358,927.490800000012,927.490800000012,929.721100000024,2030.0,929.721100000024,5.0,929.7262000000476,3.0,11.0,101.0,11.0,1.0,1.0,0.3,Time
,,S42,1,,,anonymized,Serial_Dependence_U,2023.2.3,Win32,166.66666666666666,,,,,,929.7264000000358,268.0,3.0,929.7265,268.0,,,,933.8662000000476,934.3625,933.363300000012,933.8661000000238,930.7272000000476,933.3632000000478,934.362600000024,934.859600000024,934.859600000024,937.0232000000476,1936.0,937.023300000012,4.0,937.0274000000358,3.0,12.0,102.0,9.0,1.0,1.6,0.7,Time
,,S42,1,,,anonymized,Serial_Dependence_U,2023.2.3,Win32,166.66666666666666,,,,,,937.027600000024,136.0,3.0,937.027600000024,136.0,,,,940.798800000012,941.295100000024,940.2957000000478,940.798800000012,938.0294000000358,940.2957000000478,941.295100000024,941.792100000024,941.7922000000476,943.537800000012,1443.0,943.5379000000358,4.0,943.5419000000358,3.0,13.0,103.0,12.0,1.0,1.2,0.3,Time
,,S42,1,,,anonymized,Serial_Dependence_U,2023.2.3,Win32,166.66666666666666,,,,,,943.542100000024,206.0,3.0,943.5422000000476,206.0,,,,946.9134000000358,947.4096000000238,946.410300000012,946.9134000000358,944.543800000012,946.410300000012,947.4096000000238,947.906600000024,947.906600000024,949.7429000000358,1637.0,949.743,5.0,949.7474000000358,3.0,14.0,104.0,0.0,1.0,0.8,0.3,Time
,,S42,1,,,anonymized,Serial_Dependence_U,2023.2.3,Win32,166.66666666666666,,,,,,949.7477000000478,270.0,3.0,949.7477000000478,270.0,,,,953.9184000000358,954.4149000000358,953.415600000024,953.9184000000358,950.749100000024,953.4155,954.4149000000358,954.9119000000358,954.912,957.233,2315.0,957.233100000024,5.0,957.2374000000358,3.0,15.0,105.0,4.0,1.0,1.6,0.3,Time
,,S42,1,,,anonymized,Serial_Dependence_U,2023.2.3,Win32,166.66666666666666,,,,,,957.237600000024,354.0,3.0,957.237600000024,354.0,,,,961.2087000000477,961.705,960.7055,961.208600000024,958.239300000012,960.7055,961.705,962.201800000012,962.2019000000358,965.462300000012,1959.0,965.462300000012,5.0,965.467300000012,3.0,16.0,106.0,3.0,1.0,1.4,0.3,Time
,,S42,1,,,anonymized,Serial_Dependence_U,2023.2.3,Win32,166.66666666666666,,,,,,965.4675,258.0,3.0,965.467600000024,258.0,,,,969.6074000000356,970.1045,969.1045,969.607300000012,966.468600000024,969.1044000000356,970.1046000000238,970.6007000000476,970.6007000000476,972.4251000000238,1790.0,972.4251000000238,4.0,972.429800000012,3.0,17.0,107.0,29.0,1.0,1.6,0.7,Time
,,S42,1,,,anonymized,Serial_Dependence_U,2023.2.3,Win32,166.66666666666666,,,,,,972.4299999999998,166.0,3.0,972.4301000000236,166.0,,,,976.570300000012,977.067100000024,976.0672000000476,976.570300000012,973.4313000000118,976.067100000024,977.0672000000476,977.5635,977.5635,979.830300000012,1955.0,979.8304000000358,4.0,979.8344000000355,3.0,18.0,108.0,19.0,1.0,1.6,0.7,Time
,,S42,1,,,anonymized,Serial_Dependence_U,2023.2.3,Win32,166.66666666666666,,,,,,979.8346000000238,157.0,3.0,979.8346000000238,157.0,,,,983.3995,983.8962000000477,982.8968000000118,983.3994000000356,980.8362000000476,982.8968000000118,983.8962000000477,984.3931000000237,984.3932000000476,985.763,1055.0,985.763,4.0,985.7672000000476,3.0,19.0,109.0,1.0,1.0,1.0,0.3,Time
,,S42,1,,,anonymized,Serial_Dependence_U,2023.2.3,Win32,166.66666666666666,,,,,,985.7674000000357,110.0,3.0,985.7674000000357,110.0,,,,989.3081000000238,989.8045,988.8052000000476,989.308,986.7689000000356,988.8052000000476,989.8046000000238,990.301300000012,990.3014000000358,992.2228000000118,1518.0,992.2228000000118,5.0,992.2271000000236,3.0,20.0,110.0,16.0,1.0,1.0,0.7,Time
,,S42,1,,,anonymized,Serial_Dependence_U,2023.2.3,Win32,166.66666666666666,,,,,,992.2272000000476,112.0,3.0,992.2273000000118,112.0,,,,995.5679000000356,996.0645,995.0649999999998,995.5679000000356,993.228800000012,995.0649999999998,996.0645,996.561300000012,996.5614000000356,998.3374000000356,1362.0,998.3375,5.0,998.342,3.0,21.0,111.0,5.0,1.0,0.8,0.7,Time
,,S42,1,,,anonymized,Serial_Dependence_U,2023.2.3,Win32,166.66666666666666,,,,,,998.3422000000476,213.0,3.0,998.3423000000118,213.0,,,,1002.0846000000238,1002.5849000000358,1001.5794000000358,1002.0846000000238,999.3433000000118,1001.5794000000358,1002.5849000000358,1003.0818000000118,1003.0818000000118,1005.5607000000476,2012.0,1005.5607000000476,5.0,1005.564800000012,3.0,22.0,112.0,7.0,1.0,1.2,0.7,Time
,,S42,1,,,anonymized,Serial_Dependence_U,2023.2.3,Win32,166.66666666666666,,,,,,1005.5649000000358,329.0,3.0,1005.5649999999998,329.0,,,,1008.9058000000118,1009.4022000000476,1008.4029000000356,1008.9057000000475,1006.5665,1008.402800000012,1009.4022000000476,1009.899,1009.8991000000236,1011.4871000000236,1337.0,1011.4872000000476,5.0,1011.4916000000236,3.0,23.0,113.0,25.0,1.0,0.8,0.7,Time
,,S42,1,,,anonymized,Serial_Dependence_U,2023.2.3,Win32,166.66666666666666,,,,,,1011.4918000000118,78.0,3.0,1011.4919000000356,78.0,,,,1015.4628000000118,1015.9591000000236,1014.9594000000355,1015.4627000000476,1012.4932000000476,1014.9594000000355,1015.9591000000236,1016.456,1016.456,1018.2015,1519.0,1018.2016000000236,4.0,1018.206,3.0,24.0,114.0,23.0,1.0,1.4,0.3,Time
,,S42,1,,,anonymized,Serial_Dependence_U,2023.2.3,Win32,166.66666666666666,,,,,,1018.2062000000476,17.0,3.0,1018.2062000000476,17.0,,,,1021.9769000000356,1022.4734000000358,1021.4741000000238,1021.9769000000356,1019.2075,1021.474,1022.4734000000358,1022.9704000000356,1022.9705,1025.1826000000235,1890.0,1025.1827000000476,5.0,1025.1868000000118,3.0,25.0,115.0,22.0,1.0,1.2,0.3,Time
,,S42,1,,,anonymized,Serial_Dependence_U,2023.2.3,Win32,166.66666666666666,,,,,,1025.187,180.0,3.0,1025.187,180.0,,,,1028.9274000000355,1029.4243000000115,1028.4248000000118,1028.9274000000355,1026.1888000000115,1028.4248000000118,1029.4243000000115,1029.9209999999998,1029.9209999999998,1032.4244000000356,2036.0,1032.4244000000356,5.0,1032.4286000000238,3.0,26.0,116.0,27.0,1.0,1.2,0.7,Time
,,S42,1,,,anonymized,Serial_Dependence_U,2023.2.3,Win32,166.66666666666666,,,,,,1032.4287000000477,185.0,3.0,1032.4289000000356,185.0,,,,1036.3633000000118,1036.860300000012,1035.861,1036.3633000000118,1033.4299999999998,1035.861,1036.8604000000355,1037.3566000000235,1037.3567000000476,1039.5627000000477,1900.0,1039.5628000000115,5.0,1039.566800000012,3.0,27.0,117.0,18.0,1.0,1.4,0.7,Time
,,S42,1,,,anonymized,Serial_Dependence_U,2023.2.3,Win32,166.66666666666666,,,,,,1039.567,114.0,3.0,1039.567,114.0,,,,1043.5079999999998,1044.0042000000476,1043.0048000000118,1043.5079999999998,1040.5687000000476,1043.0048000000118,1044.0042000000476,1044.5011000000238,1044.5011000000238,1047.6585,1889.0,1047.658600000024,5.0,1047.6634000000356,3.0,28.0,118.0,8.0,1.0,1.4,0.7,Time
,,S42,1,,,anonymized,Serial_Dependence_U,2023.2.3,Win32,166.66666666666666,,,,,,1047.6636000000235,143.0,3.0,1047.6637000000476,143.0,,,,1051.2038000000118,1051.7002000000475,1050.700800000012,1051.2037000000475,1048.6649000000357,1050.700800000012,1051.7003000000118,1052.197300000012,1052.197300000012,1055.1668000000118,2121.0,1055.1669000000356,5.0,1055.1715,3.0,29.0,119.0,6.0,1.0,1.0,0.7,Time
,,S42,1,,,anonymized,Serial_Dependence_U,2023.2.3,Win32,166.66666666666666,,,,,,1055.1716000000238,121.0,4.0,1059.583800000012,121.0,s,4.39810000002376,,1063.521,1064.02,1063.0205,1063.5209000000357,1060.5844000000357,1063.0205,1064.02,1064.5169000000358,1064.5169999999998,1066.8199000000357,2021.0,1066.8199000000357,5.0,1066.8242000000475,4.0,0.0,120.0,18.0,1.0,1.4,0.7,Time
,,S42,1,,,anonymized,Serial_Dependence_U,2023.2.3,Win32,166.66666666666666,,,,,,1066.8245,7.0,4.0,1066.8251000000237,7.0,,,,1070.9893000000118,1071.4858000000115,1070.4864000000357,1070.9892000000475,1067.8257000000476,1070.486300000012,1071.4858000000115,1071.9828000000118,1071.9828000000118,1074.128,1812.0,1074.1281000000238,4.0,1074.1325,4.0,1.0,121.0,24.0,1.0,1.6,0.3,Time
,,S42,1,,,anonymized,Serial_Dependence_U,2023.2.3,Win32,166.66666666666666,,,,,,1074.1326000000238,129.0,4.0,1074.1327000000476,129.0,,,,1077.4736000000237,1077.969800000012,1076.9704000000356,1077.4736000000237,1075.134100000024,1076.9703000000118,1077.969800000012,1078.4668000000115,1078.4668000000115,1081.1515,2104.0,1081.1515,5.0,1081.1557000000475,4.0,2.0,122.0,15.0,1.0,0.8,0.7,Time
,,S42,1,,,anonymized,Serial_Dependence_U,2023.2.3,Win32,166.66666666666666,,,,,,1081.1559000000357,200.0,4.0,1081.156,200.0,,,,1084.7269000000356,1085.2236000000237,1084.224300000012,1084.7268000000115,1082.1576000000236,1084.2242000000476,1085.2236000000237,1085.7265,1085.7266000000238,1087.4903000000118,1416.0,1087.4904000000356,5.0,1087.4947000000475,4.0,3.0,123.0,11.0,1.0,1.0,0.3,Time
,,S42,1,,,anonymized,Serial_Dependence_U,2023.2.3,Win32,166.66666666666666,,,,,,1087.4949000000356,54.0,4.0,1087.495,54.0,,,,1091.6354000000356,1092.1317000000477,1091.1324000000357,1091.6354000000356,1088.496800000012,1091.1323000000118,1092.1317000000477,1092.6289000000356,1092.6289000000356,1094.974300000012,1600.0,1094.974300000012,3.0,1094.9785,4.0,4.0,124.0,9.0,1.0,1.6,0.7,Time
,,S42,1,,,anonymized,Serial_Dependence_U,2023.2.3,Win32,166.66666666666666,,,,,,1094.9786000000238,188.0,4.0,1094.9787000000476,188.0,,,,1098.3196000000237,1098.8159999999998,1097.8166000000238,1098.3194999999998,1095.9802000000475,1097.8166000000238,1098.8159999999998,1099.3129000000356,1099.3129000000356,1101.7129000000357,1496.0,1101.7129000000357,5.0,1101.7176000000238,4.0,5.0,125.0,25.0,1.0,0.8,0.7,Time
,,S42,1,,,anonymized,Serial_Dependence_U,2023.2.3,Win32,166.66666666666666,,,,,,1101.717800000012,62.0,4.0,1101.7179000000356,62.0,,,,1105.0882000000477,1105.584800000012,1104.5856000000238,1105.0882000000477,1102.7192000000475,1104.5855,1105.5849000000358,1106.0817000000477,1106.0818000000118,1108.118,1680.0,1108.1182000000476,5.0,1108.1224000000357,4.0,6.0,126.0,0.0,1.0,0.8,0.3,Time
,,S42,1,,,anonymized,Serial_Dependence_U,2023.2.3,Win32,166.66666666666666,,,,,,1108.1226000000238,94.0,4.0,1108.1227000000476,94.0,,,,1112.0632000000476,1112.5596000000237,1111.5604000000358,1112.0632000000476,1109.1241000000236,1111.560300000012,1112.5596000000237,1113.0567000000476,1113.0567000000476,1114.4932000000476,1430.0,1114.493300000012,3.0,1114.4975,4.0,7.0,127.0,28.0,1.0,1.4,0.7,Time
,,S42,1,,,anonymized,Serial_Dependence_U,2023.2.3,Win32,166.66666666666666,,,,,,1114.4977000000476,17.0,4.0,1114.497800000012,17.0,,,,1118.0686000000237,1118.5649000000358,1117.5657000000476,1118.0685,1115.4992000000475,1117.5657000000476,1118.5649999999998,1119.062,1119.062,1121.2134000000358,1677.0,1121.2134999999998,5.0,1121.2175,4.0,8.0,128.0,1.0,1.0,1.0,0.3,Time
,,S42,1,,,anonymized,Serial_Dependence_U,2023.2.3,Win32,166.66666666666666,,,,,,1121.2176000000238,300.0,4.0,1121.2177000000477,300.0,,,,1124.758800000012,1125.2552000000476,1124.2559000000356,1124.7587000000476,1122.219800000012,1124.2558000000115,1125.2552000000476,1125.7521000000238,1125.7521000000238,1127.2916000000237,1301.0,1127.2917000000475,5.0,1127.2959999999998,4.0,9.0,129.0,16.0,1.0,1.0,0.7,Time
,,S42,1,,,anonymized,Serial_Dependence_U,2023.2.3,Win32,166.66666666666666,,,,,,1127.2962000000475,78.0,4.0,1127.2962000000475,78.0,,,,1130.6371000000238,1131.1333000000118,1130.1339000000355,1130.6371000000238,1128.2977000000476,1130.133800000012,1131.1334000000356,1131.6302000000476,1131.6302000000476,1134.5635,1344.0,1134.5635,5.0,1134.5676000000235,4.0,10.0,130.0,5.0,1.0,0.8,0.7,Time
,,S42,1,,,anonymized,Serial_Dependence_U,2023.2.3,Win32,166.66666666666666,,,,,,1134.567800000012,258.0,4.0,1134.5679000000357,258.0,,,,1138.539,1139.0354000000357,1138.0359000000358,1138.538800000012,1135.5702000000476,1138.0359000000358,1139.0354000000357,1139.532300000012,1139.532300000012,1141.5141000000235,1800.0,1141.5141000000235,4.0,1141.5179999999998,4.0,11.0,131.0,13.0,1.0,1.4,0.3,Time
,,S42,1,,,anonymized,Serial_Dependence_U,2023.2.3,Win32,166.66666666666666,,,,,,1141.5182000000475,262.0,4.0,1141.5182000000475,262.0,,,,1145.6896000000238,1146.186,1145.1872000000476,1145.6895,1142.5201000000238,1145.1872000000476,1146.1861000000238,1146.683,1146.683,1148.5193000000118,1794.0,1148.5193000000118,4.0,1148.523300000012,4.0,12.0,132.0,14.0,1.0,1.6,0.3,Time
,,S42,1,,,anonymized,Serial_Dependence_U,2023.2.3,Win32,166.66666666666666,,,,,,1148.5235,285.0,4.0,1148.523600000024,285.0,,,,1152.465300000012,1152.9609000000355,1151.9617000000476,1152.465300000012,1149.525800000012,1151.9616000000235,1152.9609000000355,1153.4579000000356,1153.458,1155.7185,2230.0,1155.7187000000476,5.0,1155.7227000000476,4.0,13.0,133.0,8.0,1.0,1.4,0.7,Time
,,S42,1,,,anonymized,Serial_Dependence_U,2023.2.3,Win32,166.66666666666666,,,,,,1155.7229000000357,218.0,4.0,1155.723,218.0,,,,1159.088,1159.5844000000357,1158.5849999999998,1159.088,1156.724300000012,1158.5849999999998,1159.5844000000357,1160.081300000012,1160.0814000000355,1170.4199000000356,2109.0,1170.4199999999998,5.0,1170.4243000000115,4.0,14.0,134.0,10.0,1.0,0.8,0.3,Time
,,S42,1,,,anonymized,Serial_Dependence_U,2023.2.3,Win32,166.66666666666666,,,,,,1170.4245,347.0,4.0,1170.4246000000237,347.0,,,,1174.3953000000115,1174.891800000012,1173.8922000000475,1174.3952000000477,1171.4259000000357,1173.8922000000475,1174.891800000012,1175.3886000000236,1175.3887000000475,1176.7586000000238,1037.0,1176.7586000000238,2.0,1176.7628000000118,4.0,15.0,135.0,23.0,1.0,1.4,0.3,Time
,,S42,1,,,anonymized,Serial_Dependence_U,2023.2.3,Win32,166.66666666666666,,,,,,1176.763,74.0,4.0,1176.7631000000238,74.0,,,,1180.9034000000356,1181.4,1180.4006000000238,1180.9033000000118,1177.7648000000115,1180.4005,1181.4,1181.8971000000238,1181.8971000000238,1184.4486000000238,2314.0,1184.4486000000238,5.0,1184.4531000000238,4.0,16.0,136.0,19.0,1.0,1.6,0.7,Time
,,S42,1,,,anonymized,Serial_Dependence_U,2023.2.3,Win32,166.66666666666666,,,,,,1184.4533000000115,260.0,4.0,1184.4533000000115,260.0,,,,1187.8239000000356,1188.3206000000237,1187.3211000000238,1187.8239000000356,1185.4544999999998,1187.321,1188.3206000000237,1188.8175,1188.8176000000235,1192.7385,1512.0,1192.7385,5.0,1192.7427000000475,4.0,17.0,137.0,20.0,1.0,0.8,0.3,Time
,,S42,1,,,anonymized,Serial_Dependence_U,2023.2.3,Win32,166.66666666666666,,,,,,1192.7429000000357,255.0,4.0,1192.7429000000357,255.0,,,,1196.9142000000477,1197.413,1196.4109000000358,1196.9141000000238,1193.7445,1196.410800000012,1197.413100000024,1197.9132000000477,1197.9132000000477,1200.2224000000356,2011.0,1200.2224000000356,4.0,1200.2268000000115,4.0,18.0,138.0,4.0,1.0,1.6,0.3,Time
,,S42,1,,,anonymized,Serial_Dependence_U,2023.2.3,Win32,166.66666666666666,,,,,,1200.227,68.0,4.0,1200.2271000000237,68.0,,,,1203.9674000000357,1204.464,1203.4646000000237,1203.9674000000357,1201.2283000000118,1203.4646000000237,1204.464,1204.960800000012,1204.9609000000355,1205.6944999999998,707.0,1205.6944999999998,1.0,1205.6985,4.0,19.0,139.0,17.0,1.0,1.2,0.7,Time
,,S42,1,,,anonymized,Serial_Dependence_U,2023.2.3,Win32,166.66666666666666,,,,,,1205.6987000000477,133.0,4.0,1205.6987000000477,133.0,,,,1209.4699000000358,1209.9662000000476,1208.9671000000235,1209.469800000012,1206.7005,1208.9671000000235,1209.966300000012,1210.463300000012,1210.4634000000358,1212.7058000000118,1508.0,1212.7059000000356,4.0,1212.7099999999998,4.0,20.0,140.0,2.0,1.0,1.2,0.3,Time
,,S42,1,,,anonymized,Serial_Dependence_U,2023.2.3,Win32,166.66666666666666,,,,,,1212.7103000000118,88.0,4.0,1212.7103000000118,88.0,,,,1216.2814000000358,1216.777800000012,1215.7786000000235,1216.2814000000358,1213.711800000012,1215.7785,1216.777800000012,1217.2746000000238,1217.2747000000477,1219.1779000000356,1840.0,1219.1779000000356,5.0,1219.1822000000475,4.0,21.0,141.0,21.0,1.0,1.0,0.3,Time
,,S42,1,,,anonymized,Serial_Dependence_U,2023.2.3,Win32,166.66666666666666,,,,,,1219.1824000000356,23.0,4.0,1219.1824000000356,23.0,,,,1222.9232000000477,1223.4192000000476,1222.4199999999998,1222.923100000024,1220.1839000000357,1222.4199000000356,1223.4193000000118,1223.9162000000476,1223.9162000000476,1228.0312000000476,2351.0,1228.031300000012,5.0,1228.0354000000357,4.0,22.0,142.0,7.0,1.0,1.2,0.7,Time
,,S42,1,,,anonymized,Serial_Dependence_U,2023.2.3,Win32,166.66666666666666,,,,,,1228.0356000000238,87.0,4.0,1228.0357000000477,87.0,,,,1232.176300000012,1232.6788000000115,1231.6733000000115,1232.1762000000476,1229.0377000000476,1231.6733000000115,1232.6788000000115,1233.1757000000475,1233.1758000000118,1236.8362000000477,1825.0,1236.8362000000477,4.0,1236.8409000000356,4.0,23.0,143.0,29.0,1.0,1.6,0.7,Time
,,S42,1,,,anonymized,Serial_Dependence_U,2023.2.3,Win32,166.66666666666666,,,,,,1236.8411000000235,128.0,4.0,1236.841300000012,128.0,,,,1240.6116000000238,1241.1082000000476,1240.1088000000118,1240.6116000000238,1237.8421000000235,1240.1088000000118,1241.1082000000476,1241.6049000000355,1241.6049000000355,1242.9504000000356,1081.0,1242.9505,2.0,1242.9547000000475,4.0,24.0,144.0,22.0,1.0,1.2,0.3,Time
,,S42,1,,,anonymized,Serial_Dependence_U,2023.2.3,Win32,166.66666666666666,,,,,,1242.955,60.0,4.0,1242.955,60.0,,,,1246.7261000000235,1247.2225,1246.223300000012,1246.726,1243.956600000024,1246.2231000000238,1247.2225,1247.7194000000356,1247.7194000000356,1250.2891000000238,1618.0,1250.2891000000238,5.0,1250.293300000012,4.0,25.0,145.0,12.0,1.0,1.2,0.3,Time
,,S42,1,,,anonymized,Serial_Dependence_U,2023.2.3,Win32,166.66666666666666,,,,,,1250.2934000000355,239.0,4.0,1250.2934000000355,239.0,,,,1254.2647000000477,1254.761,1253.7619000000357,1254.2646000000238,1251.2953000000118,1253.7618000000118,1254.761,1255.2581000000237,1255.2582000000475,1256.7189000000358,1429.0,1256.7189000000358,3.0,1256.7234000000358,4.0,26.0,146.0,3.0,1.0,1.4,0.3,Time
,,S42,1,,,anonymized,Serial_Dependence_U,2023.2.3,Win32,166.66666666666666,,,,,,1256.7236000000237,240.0,4.0,1256.7236000000237,240.0,,,,1260.2639000000356,1260.7604000000356,1259.761,1260.2639000000356,1257.7249000000356,1259.761,1260.7604000000356,1261.2573000000118,1261.2573000000118,1263.845,1711.0,1263.845,5.0,1263.8489000000357,4.0,27.0,147.0,26.0,1.0,1.0,0.7,Time
,,S42,1,,,anonymized,Serial_Dependence_U,2023.2.3,Win32,166.66666666666666,,,,,,1263.8491000000238,62.0,4.0,1263.8492000000476,62.0,,,,1267.3906000000238,1267.8867000000475,1266.8872000000476,1267.3905,1264.8512000000476,1266.8872000000476,1267.8867000000475,1268.3846000000235,1268.3846000000235,1271.0508000000118,1884.0,1271.0508000000118,5.0,1271.0549000000358,4.0,28.0,148.0,6.0,1.0,1.0,0.7,Time
,,S42,1,,,anonymized,Serial_Dependence_U,2023.2.3,Win32,166.66666666666666,,,,,,1271.0551000000237,296.0,4.0,1271.0551000000237,296.0,,,,1274.7955,1275.2919000000356,1274.292600000024,1274.7954000000357,1272.056800000012,1274.2925,1275.292,1275.788800000012,1275.7889000000357,1279.528,2080.0,1279.528100000024,5.0,1279.5324000000358,4.0,29.0,149.0,27.0,1.0,1.2,0.7,Time
,,S42,1,,,anonymized,Serial_Dependence_U,2023.2.3,Win32,166.66666666666666,,,,,,1279.5326000000236,159.0,5.0,1332.8408000000118,159.0,s,53.29380000001197,,1336.4125,1336.9088000000118,1335.9094000000357,1336.4124000000356,1333.8429999999998,1335.9094000000357,1336.9089000000356,1337.4058000000118,1337.4058000000118,1339.1329999999998,1460.0,1339.1331000000237,5.0,1339.137300000012,5.0,0.0,150.0,1.0,1.0,1.0,0.3,Time
,,S42,1,,,anonymized,Serial_Dependence_U,2023.2.3,Win32,166.66666666666666,,,,,,1339.1374999999998,39.0,5.0,1339.1394000000355,39.0,,,,1343.1086000000237,1343.605,1342.6054000000356,1343.1086000000237,1340.139300000012,1342.6053000000118,1343.605,1344.102,1344.102,1348.3014999999998,1596.0,1348.3016000000237,4.0,1348.3059000000358,5.0,1.0,151.0,13.0,1.0,1.4,0.3,Time
,,S42,1,,,anonymized,Serial_Dependence_U,2023.2.3,Win32,166.66666666666666,,,,,,1348.3061000000237,292.0,5.0,1348.3062000000475,292.0,,,,1352.4469000000356,1352.9434000000356,1351.9439000000357,1352.4468000000118,1349.3079000000355,1351.9439000000357,1352.9434000000356,1353.4403000000118,1353.4403000000118,1355.598,1873.0,1355.598,4.0,1355.6022000000476,5.0,2.0,152.0,29.0,1.0,1.6,0.7,Time
,,S42,1,,,anonymized,Serial_Dependence_U,2023.2.3,Win32,166.66666666666666,,,,,,1355.6024000000357,140.0,5.0,1355.6024000000357,140.0,,,,1359.3429000000356,1359.8394999999998,1358.8398000000118,1359.342800000012,1356.6039000000358,1358.8398000000118,1359.8394999999998,1360.3363000000118,1360.3364000000356,1362.0214000000358,1424.0,1362.0214999999998,4.0,1362.0255,5.0,3.0,153.0,17.0,1.0,1.2,0.7,Time
,,S42,1,,,anonymized,Serial_Dependence_U,2023.2.3,Win32,166.66666666666666,,,,,,1362.0256000000238,29.0,5.0,1362.0256000000238,29.0,,,,1366.1664999999998,1366.6633000000118,1365.6635,1366.1664000000358,1363.0273000000118,1365.6635,1366.6633000000118,1367.16,1367.1601000000237,1369.2445,1763.0,1369.2445,4.0,1369.249,5.0,4.0,154.0,9.0,1.0,1.6,0.7,Time
,,S42,1,,,anonymized,Serial_Dependence_U,2023.2.3,Win32,166.66666666666666,,,,,,1369.2492000000475,160.0,5.0,1369.2492000000475,160.0,,,,1373.1899000000358,1373.6864000000355,1372.6867000000475,1373.1899000000358,1370.2509000000357,1372.6866000000236,1373.6864000000355,1374.1832000000477,1374.1833000000115,1377.8557000000476,1575.0,1377.8557000000476,4.0,1377.8601000000235,5.0,5.0,155.0,28.0,1.0,1.4,0.7,Time
,,S42,1,,,anonymized,Serial_Dependence_U,2023.2.3,Win32,166.66666666666666,,,,,,1377.8602000000476,139.0,5.0,1377.860300000012,139.0,,,,1381.4009999999998,1381.8974999999998,1380.898,1381.4009999999998,1378.8621000000237,1380.898,1381.8974999999998,1382.3943000000118,1382.3944000000356,1384.2671000000237,1658.0,1384.2671000000237,5.0,1384.2711000000238,5.0,6.0,156.0,16.0,1.0,1.0,0.7,Time
,,S42,1,,,anonymized,Serial_Dependence_U,2023.2.3,Win32,166.66666666666666,,,,,,1384.2712000000477,91.0,5.0,1384.271300000012,91.0,,,,1387.6424000000357,1388.1391000000235,1387.1397000000477,1387.6424000000357,1385.273300000012,1387.1397000000477,1388.1391000000235,1388.6361000000238,1388.6361000000238,1390.6905,1927.0,1390.6905,5.0,1390.6944999999998,5.0,7.0,157.0,10.0,1.0,0.8,0.3,Time
,,S42,1,,,anonymized,Serial_Dependence_U,2023.2.3,Win32,166.66666666666666,,,,,,1390.6946000000237,289.0,5.0,1390.6947000000475,289.0,,,,1394.2664000000357,1394.7626000000237,1393.7631000000238,1394.2664000000357,1391.6967000000477,1393.763,1394.7626000000237,1395.2595,1395.2595,1397.5021000000238,1770.0,1397.5021000000238,5.0,1397.5064000000357,5.0,8.0,158.0,21.0,1.0,1.0,0.3,Time
,,S42,1,,,anonymized,Serial_Dependence_U,2023.2.3,Win32,166.66666666666666,,,,,,1397.5066000000238,66.0,5.0,1397.5066000000238,66.0,,,,1401.0471000000236,1401.5437000000477,1400.5443000000118,1401.0471000000236,1398.5081000000237,1400.5443000000118,1401.5437000000477,1402.0411000000238,1402.0412000000476,1402.204300000012,135.0,1402.204300000012,1.0,1402.2082000000476,5.0,9.0,159.0,26.0,1.0,1.0,0.7,Time
,,S42,1,,,anonymized,Serial_Dependence_U,2023.2.3,Win32,166.66666666666666,,,,,,1402.2084000000357,244.0,5.0,1402.2085,244.0,,,,1405.5495,1406.0461000000237,1405.0467000000476,1405.5495,1403.2104000000356,1405.0467000000476,1406.0462000000475,1406.543,1406.5431000000235,1413.9728000000118,1448.0,1413.9728000000118,5.0,1413.9772000000476,5.0,10.0,160.0,5.0,1.0,0.8,0.7,Time
,,S42,1,,,anonymized,Serial_Dependence_U,2023.2.3,Win32,166.66666666666666,,,,,,1413.9774000000357,78.0,5.0,1413.9775,78.0,,,,1418.1181000000238,1418.6205,1417.6149000000355,1418.1179000000357,1414.9789999999998,1417.6149000000355,1418.6205,1419.117300000012,1419.117300000012,1421.1597000000477,1951.0,1421.1598000000115,4.0,1421.164,5.0,11.0,161.0,19.0,1.0,1.6,0.7,Time
,,S42,1,,,anonymized,Serial_Dependence_U,2023.2.3,Win32,166.66666666666666,,,,,,1421.1642000000477,43.0,5.0,1421.1643000000115,43.0,,,,1424.935300000012,1425.432,1424.4324000000356,1424.9352000000476,1422.1658000000118,1424.4323000000118,1425.432,1425.9289000000356,1425.9289000000356,1427.868300000012,1593.0,1427.8684000000358,5.0,1427.872800000012,5.0,12.0,162.0,22.0,1.0,1.2,0.3,Time
,,S42,1,,,anonymized,Serial_Dependence_U,2023.2.3,Win32,166.66666666666666,,,,,,1427.8729999999998,142.0,5.0,1427.8731000000237,142.0,,,,1431.6132000000475,1432.1096000000236,1431.1102000000476,1431.6132000000475,1428.8741000000236,1431.1101000000235,1432.1096000000236,1432.6066000000235,1432.6066000000235,1434.3946000000235,1446.0,1434.3947000000476,4.0,1434.3988000000118,5.0,13.0,163.0,27.0,1.0,1.2,0.7,Time
,,S42,1,,,anonymized,Serial_Dependence_U,2023.2.3,Win32,166.66666666666666,,,,,,1434.3989000000356,211.0,5.0,1434.399,211.0,,,,1438.3396000000237,1438.8362000000477,1437.8373000000115,1438.3396000000237,1435.4006000000238,1437.8372000000477,1438.8362000000477,1439.3332000000476,1439.3332000000476,1440.9997000000476,1331.0,1440.9997000000476,3.0,1441.0041000000238,5.0,14.0,164.0,18.0,1.0,1.4,0.7,Time
,,S42,1,,,anonymized,Serial_Dependence_U,2023.2.3,Win32,166.66666666666666,,,,,,1441.004300000012,225.0,5.0,1441.0044000000355,225.0,,,,1444.975300000012,1445.4717000000476,1444.4724000000356,1444.975300000012,1442.0058000000115,1444.4724000000356,1445.4717000000476,1445.9686000000238,1445.9687000000476,1447.9507000000476,1410.0,1447.9507000000476,3.0,1447.9549000000357,5.0,15.0,165.0,3.0,1.0,1.4,0.3,Time
,,S42,1,,,anonymized,Serial_Dependence_U,2023.2.3,Win32,166.66666666666666,,,,,,1447.9551000000238,305.0,5.0,1447.9551000000238,305.0,,,,1451.7262000000476,1452.2224000000356,1451.2232000000477,1451.7262000000476,1448.956600000024,1451.2231000000238,1452.2224000000356,1452.7194000000356,1452.7194000000356,1454.9558000000118,1715.0,1454.9558000000118,5.0,1454.9601000000237,5.0,16.0,166.0,2.0,1.0,1.2,0.3,Time
,,S42,1,,,anonymized,Serial_Dependence_U,2023.2.3,Win32,166.66666666666666,,,,,,1454.9603000000118,83.0,5.0,1454.9604000000356,83.0,,,,1458.5318000000118,1459.0277000000476,1458.0283000000118,1458.5318000000118,1455.9617000000476,1458.0283000000118,1459.0277000000476,1459.5246000000238,1459.5248000000115,1461.967,1897.0,1461.967,5.0,1461.971,5.0,17.0,167.0,11.0,1.0,1.0,0.3,Time
,,S42,1,,,anonymized,Serial_Dependence_U,2023.2.3,Win32,166.66666666666666,,,,,,1461.971100000024,318.0,5.0,1461.9712000000477,318.0,,,,1465.7424999999998,1466.2389999999998,1465.2397000000476,1465.7424999999998,1462.9732000000477,1465.2396000000238,1466.2389999999998,1466.7359000000356,1466.7359000000356,1468.9236000000235,1618.0,1468.9237000000476,5.0,1468.9278000000118,5.0,18.0,168.0,12.0,1.0,1.2,0.3,Time
,,S42,1,,,anonymized,Serial_Dependence_U,2023.2.3,Win32,166.66666666666666,,,,,,1468.928,301.0,5.0,1468.9281000000235,301.0,,,,1472.269100000024,1472.7655,1471.7666000000238,1472.269,1469.9297000000477,1471.7665,1472.7655,1473.2624000000358,1473.2624000000358,1475.4686000000238,1896.0,1475.4686000000238,5.0,1475.4728000000118,5.0,19.0,169.0,25.0,1.0,0.8,0.7,Time
,,S42,1,,,anonymized,Serial_Dependence_U,2023.2.3,Win32,166.66666666666666,,,,,,1475.473,320.0,5.0,1475.473,320.0,,,,1479.4439000000357,1479.9404000000357,1478.9409999999998,1479.4437000000476,1476.4746000000237,1478.9409000000358,1479.9404000000357,1480.4372000000476,1480.4372000000476,1482.5039000000356,1843.0,1482.504,5.0,1482.5079999999998,5.0,20.0,170.0,23.0,1.0,1.4,0.3,Time
,,S42,1,,,anonymized,Serial_Dependence_U,2023.2.3,Win32,166.66666666666666,,,,,,1482.5081000000237,201.0,5.0,1482.5082000000475,201.0,,,,1485.8795,1486.376,1485.3766000000237,1485.8794000000355,1483.5101000000238,1485.3766000000237,1486.376,1486.8729000000358,1486.8729000000358,1494.0544000000357,4363.0,1494.0544000000357,5.0,1494.0586000000235,5.0,21.0,171.0,20.0,1.0,0.8,0.3,Time
,,S42,1,,,anonymized,Serial_Dependence_U,2023.2.3,Win32,166.66666666666666,,,,,,1494.0588000000118,328.0,5.0,1494.0588000000118,328.0,,,,1497.4297000000477,1497.9264000000358,1496.9268000000118,1497.4297000000477,1495.0602000000476,1496.9268000000118,1497.9264000000358,1498.423,1498.423,1502.6167000000476,1115.0,1502.6167000000476,5.0,1502.6213000000118,5.0,22.0,172.0,0.0,1.0,0.8,0.3,Time
,,S42,1,,,anonymized,Serial_Dependence_U,2023.2.3,Win32,166.66666666666666,,,,,,1502.6215,311.0,5.0,1502.6216000000238,311.0,,,,1506.7922000000476,1507.2886000000235,1506.2894000000356,1506.7922000000476,1503.6229999999998,1506.2893000000115,1507.2887000000476,1507.7855,1507.7855,1510.7428000000118,2346.0,1510.7429000000357,5.0,1510.7472000000475,5.0,23.0,173.0,4.0,1.0,1.6,0.3,Time
,,S42,1,,,anonymized,Serial_Dependence_U,2023.2.3,Win32,166.66666666666666,,,,,,1510.7474000000357,302.0,5.0,1510.7474000000357,302.0,,,,1514.9186000000238,1515.4149000000357,1514.4157000000475,1514.9185,1511.7493000000118,1514.4156000000237,1515.4149000000357,1515.9119000000358,1515.9119000000358,1518.439,1909.0,1518.4391000000237,4.0,1518.4433000000115,5.0,24.0,174.0,24.0,1.0,1.6,0.3,Time
,,S42,1,,,anonymized,Serial_Dependence_U,2023.2.3,Win32,166.66666666666666,,,,,,1518.4434000000356,169.0,5.0,1518.4435,169.0,,,,1522.1841000000238,1522.6807000000476,1521.6814000000356,1522.1841000000238,1519.445,1521.6813000000118,1522.6807000000476,1523.1777000000477,1523.1777000000477,1525.4624000000356,1921.0,1525.4625,5.0,1525.4671000000235,5.0,25.0,175.0,7.0,1.0,1.2,0.7,Time
,,S42,1,,,anonymized,Serial_Dependence_U,2023.2.3,Win32,166.66666666666666,,,,,,1525.4673000000118,123.0,5.0,1525.4673000000118,123.0,,,,1528.8079000000355,1529.3042000000476,1528.3047000000477,1528.807800000012,1526.4686000000238,1528.3047000000477,1529.3043000000118,1529.801300000012,1529.801300000012,1531.601,1382.0,1531.6011000000235,5.0,1531.6057000000476,5.0,26.0,176.0,15.0,1.0,0.8,0.7,Time
,,S42,1,,,anonymized,Serial_Dependence_U,2023.2.3,Win32,166.66666666666666,,,,,,1531.6059000000355,350.0,5.0,1531.6059000000355,350.0,,,,1535.146300000012,1535.6429000000358,1534.6435,1535.146300000012,1532.607300000012,1534.6435,1535.6429000000358,1536.1398000000115,1536.1399000000356,1537.8126000000238,1266.0,1537.8128000000115,4.0,1537.8169000000355,5.0,27.0,177.0,6.0,1.0,1.0,0.7,Time
,,S42,1,,,anonymized,Serial_Dependence_U,2023.2.3,Win32,166.66666666666666,,,,,,1537.817,278.0,5.0,1537.817100000024,278.0,,,,1541.9881000000237,1542.4844000000355,1541.4851000000235,1541.9881000000237,1538.8189000000357,1541.4851000000235,1542.4845,1542.9815,1542.9815,1544.866,1613.0,1544.8661000000238,3.0,1544.87,5.0,28.0,178.0,14.0,1.0,1.6,0.3,Time
,,S42,1,,,anonymized,Serial_Dependence_U,2023.2.3,Win32,166.66666666666666,,,,,,1544.8701000000235,252.0,5.0,1544.8702000000476,252.0,,,,1548.8118000000118,1549.308,1548.3086000000235,1548.8118000000118,1545.8724000000357,1548.3085,1549.308,1549.8109000000356,1549.8109000000356,1551.9199000000356,1872.0,1551.9201000000237,5.0,1551.9243000000115,5.0,29.0,179.0,8.0,1.0,1.4,0.7,Time
,,S42,1,,,anonymized,Serial_Dependence_U,2023.2.3,Win32,166.66666666666666,,,,,,1551.9245,313.0,6.0,1635.205,313.0,s,83.27019999998811,,1639.3462000000477,1639.8427000000477,1638.8431000000237,1639.346100000024,1636.2072000000476,1638.8431000000237,1639.8427000000477,1640.3396000000237,1640.3396000000237,1642.6062000000477,1832.0,1642.6062000000477,4.0,1642.6102000000476,6.0,0.0,180.0,9.0,1.0,1.6,0.7,Time
,,S42,1,,,anonymized,Serial_Dependence_U,2023.2.3,Win32,166.66666666666666,,,,,,1642.6104000000355,205.0,6.0,1642.6111000000235,205.0,,,,1646.3819000000358,1646.8782000000476,1645.8784999999998,1646.381800000012,1643.6123000000118,1645.8784999999998,1646.8782000000476,1647.375,1647.375,1648.8298000000118,1242.0,1648.8299000000357,3.0,1648.8339999999998,6.0,1.0,181.0,12.0,1.0,1.2,0.3,Time
,,S42,1,,,anonymized,Serial_Dependence_U,2023.2.3,Win32,166.66666666666666,,,,,,1648.8342000000475,322.0,6.0,1648.8343000000118,322.0,,,,1652.175,1652.6714000000356,1651.6719000000355,1652.175,1649.8359000000355,1651.6719000000355,1652.6714000000356,1653.1684000000355,1653.1684000000355,1654.6289000000356,1243.0,1654.6289000000356,5.0,1654.632800000012,6.0,2.0,182.0,15.0,1.0,0.8,0.7,Time
,,S42,1,,,anonymized,Serial_Dependence_U,2023.2.3,Win32,166.66666666666666,,,,,,1654.6329999999998,246.0,6.0,1654.6331000000237,246.0,,,,1658.6044000000356,1659.1009000000356,1658.1014000000357,1658.6044000000356,1655.6353000000115,1658.1014000000357,1659.101,1659.5979000000357,1659.5979000000357,1661.4644999999998,1679.0,1661.4646000000237,4.0,1661.4689999999998,6.0,3.0,183.0,13.0,1.0,1.4,0.3,Time
,,S42,1,,,anonymized,Serial_Dependence_U,2023.2.3,Win32,166.66666666666666,,,,,,1661.4691000000237,250.0,6.0,1661.4692000000475,250.0,,,,1665.6401000000235,1666.1364000000356,1665.1371000000238,1665.6401000000235,1662.4707000000476,1665.1371000000238,1666.1364999999998,1666.6334000000356,1666.6334000000356,1668.573,1593.0,1668.5731000000235,3.0,1668.577,6.0,4.0,184.0,4.0,1.0,1.6,0.3,Time
,,S42,1,,,anonymized,Serial_Dependence_U,2023.2.3,Win32,166.66666666666666,,,,,,1668.5772000000477,211.0,6.0,1668.5773000000115,211.0,,,,1672.7181000000237,1673.2144999999998,1672.2151000000238,1672.7181000000237,1669.579,1672.2151000000238,1673.2144999999998,1673.7113000000118,1673.7113000000118,1675.9419000000355,2018.0,1675.9419000000355,4.0,1675.9461000000238,6.0,5.0,185.0,29.0,1.0,1.6,0.7,Time
,,S42,1,,,anonymized,Serial_Dependence_U,2023.2.3,Win32,166.66666666666666,,,,,,1675.946300000012,94.0,6.0,1675.946300000012,94.0,,,,1679.2869999999998,1679.7834000000355,1678.7841000000235,1679.2869999999998,1676.9478000000115,1678.7839000000356,1679.7834000000355,1680.280300000012,1680.2804000000356,1682.2744000000357,1727.0,1682.2744000000357,5.0,1682.2786000000235,6.0,6.0,186.0,5.0,1.0,0.8,0.7,Time
,,S42,1,,,anonymized,Serial_Dependence_U,2023.2.3,Win32,166.66666666666666,,,,,,1682.2787000000476,160.0,6.0,1682.278800000012,160.0,,,,1686.4496000000238,1686.9461000000238,1685.9471000000235,1686.4496000000238,1683.2804999999998,1685.9471000000235,1686.9461000000238,1687.4431000000238,1687.4431000000238,1689.5221000000238,1840.0,1689.5221000000238,4.0,1689.5264000000357,6.0,7.0,187.0,14.0,1.0,1.6,0.3,Time
,,S42,1,,,anonymized,Serial_Dependence_U,2023.2.3,Win32,166.66666666666666,,,,,,1689.5265,172.0,6.0,1689.5267000000476,172.0,,,,1693.697300000012,1694.1937000000476,1693.194300000012,1693.697300000012,1690.528100000024,1693.194300000012,1694.1938000000118,1694.6907000000476,1694.690800000012,1696.8725,1734.0,1696.8725,4.0,1696.8765,6.0,8.0,188.0,24.0,1.0,1.6,0.3,Time
,,S42,1,,,anonymized,Serial_Dependence_U,2023.2.3,Win32,166.66666666666666,,,,,,1696.8767000000475,253.0,6.0,1696.8768000000118,253.0,,,,1700.4177000000475,1700.9142000000477,1699.9145,1700.417600000024,1697.8786000000237,1699.9145,1700.9142000000477,1701.4111000000237,1701.4111000000237,1702.2899000000357,848.0,1702.29,2.0,1702.294,6.0,9.0,189.0,16.0,1.0,1.0,0.7,Time
,,S42,1,,,anonymized,Serial_Dependence_U,2023.2.3,Win32,166.66666666666666,,,,,,1702.2943000000118,311.0,6.0,1702.2943000000118,311.0,,,,1705.836,1706.332300000012,1705.3322000000476,1705.836,1703.2963000000118,1705.3321000000235,1706.332300000012,1706.8289000000357,1706.829,1708.5559000000358,1444.0,1708.5559000000358,5.0,1708.5599000000357,6.0,10.0,190.0,6.0,1.0,1.0,0.7,Time
,,S42,1,,,anonymized,Serial_Dependence_U,2023.2.3,Win32,166.66666666666666,,,,,,1708.5601000000238,186.0,6.0,1708.5601000000238,186.0,,,,1712.5314999999998,1713.0279000000355,1712.0285,1712.5314999999998,1709.562,1712.0285,1713.028,1713.5248000000115,1713.5248000000115,1717.9671000000235,1755.0,1717.9671000000235,4.0,1717.9716000000235,6.0,11.0,191.0,23.0,1.0,1.4,0.3,Time
,,S42,1,,,anonymized,Serial_Dependence_U,2023.2.3,Win32,166.66666666666666,,,,,,1717.971800000012,68.0,6.0,1717.971800000012,68.0,,,,1721.712,1722.2087000000477,1721.2093000000118,1721.7119000000357,1718.973,1721.2093000000118,1722.2087000000477,1722.7056000000237,1722.7056000000237,1724.8874999999998,2004.0,1724.8874999999998,5.0,1724.8916000000238,6.0,12.0,192.0,27.0,1.0,1.2,0.7,Time
,,S42,1,,,anonymized,Serial_Dependence_U,2023.2.3,Win32,166.66666666666666,,,,,,1724.8917000000476,41.0,6.0,1724.891800000012,41.0,,,,1728.2629000000356,1728.7594000000356,1727.7601000000238,1728.2629000000356,1725.8932000000475,1727.7599000000357,1728.7594000000356,1729.2563000000118,1729.2563000000118,1731.0199000000357,1505.0,1731.0199000000357,5.0,1731.0237000000477,6.0,13.0,193.0,20.0,1.0,0.8,0.3,Time
,,S42,1,,,anonymized,Serial_Dependence_U,2023.2.3,Win32,166.66666666666666,,,,,,1731.0239000000356,339.0,6.0,1731.024,339.0,,,,1734.5649999999998,1735.0616000000236,1734.062300000012,1734.5649999999998,1732.0259999999998,1734.0622000000476,1735.0616000000236,1735.5586000000235,1735.5586000000235,1740.8312000000476,1471.0,1740.8312000000476,5.0,1740.8354000000356,6.0,14.0,194.0,26.0,1.0,1.0,0.7,Time
,,S42,1,,,anonymized,Serial_Dependence_U,2023.2.3,Win32,166.66666666666666,,,,,,1740.8356000000238,318.0,6.0,1740.8357000000476,318.0,,,,1744.4064999999998,1744.9029000000355,1743.9035,1744.4064000000358,1741.8369000000357,1743.9035,1744.9029000000355,1745.3998000000115,1745.3999000000356,1747.0422000000476,1546.0,1747.042300000012,5.0,1747.0474000000356,6.0,15.0,195.0,11.0,1.0,1.0,0.3,Time
,,S42,1,,,anonymized,Serial_Dependence_U,2023.2.3,Win32,166.66666666666666,,,,,,1747.0476000000235,213.0,6.0,1747.0477000000476,213.0,,,,1750.417600000024,1750.9143000000115,1749.9149000000357,1750.4175,1748.0484000000356,1749.9148000000118,1750.9143000000115,1751.4112000000475,1751.4112000000475,1754.7324999999998,1685.0,1754.7324999999998,5.0,1754.7367000000477,6.0,16.0,196.0,0.0,1.0,0.8,0.3,Time
,,S42,1,,,anonymized,Serial_Dependence_U,2023.2.3,Win32,166.66666666666666,,,,,,1754.7369000000356,278.0,6.0,1754.7369000000356,278.0,,,,1758.3077000000476,1758.8043000000118,1757.8049000000358,1758.3076000000235,1755.7384000000357,1757.8049000000358,1758.8043000000118,1759.3012000000476,1759.3012000000476,1762.6284999999998,1776.0,1762.6286000000237,5.0,1762.6329000000358,6.0,17.0,197.0,21.0,1.0,1.0,0.3,Time
,,S42,1,,,anonymized,Serial_Dependence_U,2023.2.3,Win32,166.66666666666666,,,,,,1762.6329999999998,210.0,6.0,1762.6332000000475,210.0,,,,1766.5737000000477,1767.0699000000357,1766.0707000000475,1766.5737000000477,1763.6343000000118,1766.0706000000237,1767.07,1767.5669000000355,1767.5669000000355,1770.0397000000476,1975.0,1770.0397000000476,5.0,1770.044,6.0,18.0,198.0,18.0,1.0,1.4,0.7,Time
,,S42,1,,,anonymized,Serial_Dependence_U,2023.2.3,Win32,166.66666666666666,,,,,,1770.0441000000235,193.0,6.0,1770.0443000000118,193.0,,,,1774.1846000000237,1774.6813000000118,1773.6819000000355,1774.1844999999998,1771.0455,1773.681800000012,1774.6813000000118,1775.1782000000476,1775.1782000000476,1777.874800000012,2030.0,1777.874800000012,4.0,1777.879,6.0,19.0,199.0,19.0,1.0,1.6,0.7,Time
,,S42,1,,,anonymized,Serial_Dependence_U,2023.2.3,Win32,166.66666666666666,,,,,,1777.8791000000238,88.0,6.0,1777.8791000000238,88.0,,,,1781.6205,1782.1167000000476,1781.1174000000358,1781.6205,1778.8811000000237,1781.1174000000358,1782.1168000000118,1782.6136000000238,1782.6137000000476,1784.5106000000235,1612.0,1784.5106000000235,5.0,1784.5147000000477,6.0,20.0,200.0,17.0,1.0,1.2,0.7,Time
,,S42,1,,,anonymized,Serial_Dependence_U,2023.2.3,Win32,166.66666666666666,,,,,,1784.5148000000115,39.0,6.0,1784.5149000000356,39.0,,,,1788.2558000000115,1788.7522000000477,1787.7531000000238,1788.2558000000115,1785.5167000000476,1787.753,1788.752300000012,1789.2491000000236,1789.2491000000236,1790.9403000000118,1441.0,1790.9403000000118,4.0,1790.944300000012,6.0,21.0,201.0,7.0,1.0,1.2,0.7,Time
,,S42,1,,,anonymized,Serial_Dependence_U,2023.2.3,Win32,166.66666666666666,,,,,,1790.9444999999998,303.0,6.0,1790.9444999999998,303.0,,,,1794.5154000000357,1795.012300000012,1794.0135,1794.5154000000357,1791.9461000000238,1794.0134000000355,1795.012300000012,1795.509100000024,1795.509100000024,1797.0604000000358,1278.0,1797.0604000000358,4.0,1797.0644000000357,6.0,22.0,202.0,1.0,1.0,1.0,0.3,Time
,,S42,1,,,anonymized,Serial_Dependence_U,2023.2.3,Win32,166.66666666666666,,,,,,1797.0646000000238,26.0,6.0,1797.0646000000238,26.0,,,,1800.4365,1800.9326000000235,1799.9333000000115,1800.4364000000355,1798.0667000000476,1799.9332000000477,1800.9326000000235,1801.4295,1801.4295,1803.714200000048,1376.0,1803.714200000048,5.0,1803.718400000036,6.0,23.0,203.0,10.0,1.0,0.8,0.3,Time
,,S42,1,,,anonymized,Serial_Dependence_U,2023.2.3,Win32,166.66666666666666,,,,,,1803.718700000048,198.0,6.0,1803.718700000048,198.0,,,,1807.659700000048,1808.156,1807.156600000024,1807.659700000048,1804.7205,1807.1565,1808.156,1808.653,1808.653,1811.198400000036,1727.0,1811.198400000036,4.0,1811.202700000048,6.0,24.0,204.0,8.0,1.0,1.4,0.7,Time
,,S42,1,,,anonymized,Serial_Dependence_U,2023.2.3,Win32,166.66666666666666,,,,,,1811.202800000012,49.0,6.0,1811.202900000036,49.0,,,,1814.974,1815.470300000012,1814.470900000036,1814.974,1812.204300000012,1814.470900000036,1815.470400000036,1815.967100000024,1815.967200000048,1818.136800000012,1945.0,1818.136800000012,5.0,1818.141,6.0,25.0,205.0,2.0,1.0,1.2,0.3,Time
,,S42,1,,,anonymized,Serial_Dependence_U,2023.2.3,Win32,166.66666666666666,,,,,,1818.1412000000475,104.0,6.0,1818.1412000000475,104.0,,,,1821.482,1821.978600000024,1820.9792000000475,1821.482,1819.143,1820.979100000024,1821.978600000024,1822.4755,1822.4755,1830.050900000036,1642.0,1830.051,5.0,1830.055600000024,6.0,26.0,206.0,25.0,1.0,0.8,0.7,Time
,,S42,1,,,anonymized,Serial_Dependence_U,2023.2.3,Win32,166.66666666666666,,,,,,1830.055800000012,300.0,6.0,1830.055800000012,300.0,,,,1833.995700000048,1834.492300000012,1833.493100000024,1833.995600000024,1831.056700000048,1833.493,1834.492300000012,1834.9892000000475,1834.989300000012,1837.546600000024,2249.0,1837.546600000024,5.0,1837.5507000000475,6.0,27.0,207.0,28.0,1.0,1.4,0.7,Time
,,S42,1,,,anonymized,Serial_Dependence_U,2023.2.3,Win32,166.66666666666666,,,,,,1837.550900000036,28.0,6.0,1837.550900000036,28.0,,,,1841.316300000012,1841.812700000048,1840.813300000012,1841.3162000000475,1838.5525,1840.813200000048,1841.812700000048,1842.309600000024,1842.309600000024,1844.127900000036,1568.0,1844.128,5.0,1844.132,6.0,28.0,208.0,22.0,1.0,1.2,0.3,Time
,,S42,1,,,anonymized,Serial_Dependence_U,2023.2.3,Win32,166.66666666666666,,,,,,1844.1322000000475,138.0,6.0,1844.132300000012,138.0,,,,1848.103300000012,1848.5997000000475,1847.600700000048,1848.103300000012,1845.134,1847.600600000024,1848.5997000000475,1849.096700000048,1849.096700000048,1851.145300000012,1824.0,1851.145400000036,5.0,1851.1495,6.0,29.0,209.0,3.0,1.0,1.4,0.3,Time
,,S42,1,,,anonymized,Serial_Dependence_U,2023.2.3,Win32,166.66666666666666,,,,,,1851.149700000048,8.0,7.0,1857.129900000036,8.0,s,5.967499999999973,,1861.1015,1861.598100000024,1860.598800000012,1861.1015,1858.132300000012,1860.5987000000475,1861.598200000048,1862.095100000024,1862.095100000024,1864.010200000048,1667.0,1864.010300000012,4.0,1864.014900000036,7.0,0.0,210.0,13.0,1.0,1.4,0.3,Time
,,S42,1,,,anonymized,Serial_Dependence_U,2023.2.3,Win32,166.66666666666666,,,,,,1864.015,173.0,7.0,1864.015700000048,173.0,,,,1867.355600000024,1867.851900000036,1866.852400000036,1867.355600000024,1865.016400000036,1866.852400000036,1867.851900000036,1868.349,1868.349,1869.561400000036,1164.0,1869.561400000036,5.0,1869.565600000024,7.0,1.0,211.0,5.0,1.0,0.8,0.7,Time
,,S42,1,,,anonymized,Serial_Dependence_U,2023.2.3,Win32,166.66666666666666,,,,,,1869.565800000012,307.0,7.0,1869.565900000036,307.0,,,,1872.906200000048,1873.402800000012,1872.4035,1872.906200000048,1870.567300000012,1872.4035,1873.402800000012,1873.899700000048,1873.899700000048,1875.869600000024,1569.0,1875.869600000024,5.0,1875.873600000024,7.0,2.0,212.0,15.0,1.0,0.8,0.7,Time
,,S42,1,,,anonymized,Serial_Dependence_U,2023.2.3,Win32,166.66666666666666,,,,,,1875.873800000012,242.0,7.0,1875.873800000012,242.0,,,,1879.414900000036,1879.911300000012,1878.911600000024,1879.414900000036,1876.875800000012,1878.911600000024,1879.911300000012,1880.408100000024,1880.408200000048,1881.111400000036,151.0,1881.1115,1.0,1881.1155,7.0,3.0,213.0,6.0,1.0,1.0,0.7,Time
,,S42,1,,,anonymized,Serial_Dependence_U,2023.2.3,Win32,166.66666666666666,,,,,,1881.115600000024,217.0,7.0,1881.115700000048,217.0,,,,1884.886600000024,1885.3832000000475,1884.383600000024,1884.8865,1882.117300000012,1884.383600000024,1885.383300000012,1885.880100000024,1885.880200000048,1888.013400000036,1387.0,1888.0135,4.0,1888.017900000036,7.0,4.0,214.0,22.0,1.0,1.2,0.3,Time
,,S42,1,,,anonymized,Serial_Dependence_U,2023.2.3,Win32,166.66666666666666,,,,,,1888.018,240.0,7.0,1888.018100000024,240.0,,,,1891.989,1892.485400000036,1891.486,1891.988900000036,1889.019700000048,1891.485900000036,1892.485400000036,1892.982300000012,1892.982400000036,1895.4802000000475,1502.0,1895.480300000012,4.0,1895.4845,7.0,5.0,215.0,23.0,1.0,1.4,0.3,Time
,,S42,1,,,anonymized,Serial_Dependence_U,2023.2.3,Win32,166.66666666666666,,,,,,1895.4847000000475,228.0,7.0,1895.4847000000475,228.0,,,,1899.424300000012,1899.920900000036,1898.9215,1899.424300000012,1896.485400000036,1898.9215,1899.920900000036,1900.418,1900.418100000024,1901.872800000012,1449.0,1901.872800000012,3.0,1901.877,7.0,6.0,216.0,28.0,1.0,1.4,0.7,Time
,,S42,1,,,anonymized,Serial_Dependence_U,2023.2.3,Win32,166.66666666666666,,,,,,1901.877200000048,120.0,7.0,1901.877300000012,120.0,,,,1905.847900000036,1906.3445,1905.345,1905.847900000036,1902.8785,1905.344900000036,1906.3445,1906.841300000012,1906.841300000012,1908.556600000024,1448.0,1908.556600000024,3.0,1908.560900000036,7.0,7.0,217.0,3.0,1.0,1.4,0.3,Time
,,S42,1,,,anonymized,Serial_Dependence_U,2023.2.3,Win32,166.66666666666666,,,,,,1908.561200000048,354.0,7.0,1908.561300000012,354.0,,,,1912.3017000000475,1912.798200000048,1911.798700000048,1912.3017000000475,1909.562800000012,1911.798700000048,1912.798200000048,1913.295100000024,1913.295100000024,1914.252800000012,938.0,1914.252900000036,2.0,1914.256800000012,7.0,8.0,218.0,7.0,1.0,1.2,0.7,Time
,,S42,1,,,anonymized,Serial_Dependence_U,2023.2.3,Win32,166.66666666666666,,,,,,1914.257,5.0,7.0,1914.257100000024,5.0,,,,1918.428100000024,1918.924700000048,1917.925300000012,1918.428,1915.258600000024,1917.925300000012,1918.924700000048,1919.421600000024,1919.421600000024,1921.457900000036,1630.0,1921.457900000036,3.0,1921.4625,7.0,9.0,219.0,14.0,1.0,1.6,0.3,Time
,,S42,1,,,anonymized,Serial_Dependence_U,2023.2.3,Win32,166.66666666666666,,,,,,1921.462700000048,172.0,7.0,1921.462800000012,172.0,,,,1925.633400000036,1926.129900000036,1925.130600000024,1925.633400000036,1922.464,1925.1305,1926.129900000036,1926.626800000012,1926.626800000012,1928.723600000024,1509.0,1928.723800000012,2.0,1928.728100000024,7.0,10.0,220.0,24.0,1.0,1.6,0.3,Time
,,S42,1,,,anonymized,Serial_Dependence_U,2023.2.3,Win32,166.66666666666666,,,,,,1928.7282000000475,37.0,7.0,1928.728300000012,37.0,,,,1932.099400000036,1932.595800000012,1931.5965,1932.099300000012,1929.729800000012,1931.5965,1932.595800000012,1933.092700000048,1933.092700000048,1934.711,1238.0,1934.711,5.0,1934.714900000036,7.0,11.0,221.0,0.0,1.0,0.8,0.3,Time
,,S42,1,,,anonymized,Serial_Dependence_U,2023.2.3,Win32,166.66666666666666,,,,,,1934.715100000024,181.0,7.0,1934.715200000048,181.0,,,,1938.856,1939.3525,1938.353300000012,1938.856,1935.717200000048,1938.353300000012,1939.3525,1939.8497000000475,1939.849800000012,1941.9585,1739.0,1941.958600000024,4.0,1941.962600000024,7.0,12.0,222.0,9.0,1.0,1.6,0.7,Time
,,S42,1,,,anonymized,Serial_Dependence_U,2023.2.3,Win32,166.66666666666666,,,,,,1941.962800000012,211.0,7.0,1941.962800000012,211.0,,,,1946.134300000012,1946.6305,1945.63,1946.1342000000477,1942.964600000024,1945.629900000036,1946.6305,1947.127400000036,1947.1275,1949.818200000048,2188.0,1949.818300000012,5.0,1949.822900000036,7.0,13.0,223.0,4.0,1.0,1.6,0.3,Time
,,S42,1,,,anonymized,Serial_Dependence_U,2023.2.3,Win32,166.66666666666666,,,,,,1949.823100000024,316.0,7.0,1949.823300000012,316.0,,,,1953.963400000036,1954.4602000000475,1953.460900000036,1953.963300000012,1950.8242000000475,1953.460900000036,1954.4602000000475,1954.956800000012,1954.956900000036,1957.320600000024,1714.0,1957.320800000012,4.0,1957.3252000000475,7.0,14.0,224.0,19.0,1.0,1.6,0.7,Time
,,S42,1,,,anonymized,Serial_Dependence_U,2023.2.3,Win32,166.66666666666666,,,,,,1957.325300000012,143.0,7.0,1957.325300000012,143.0,,,,1961.065300000012,1961.562100000024,1960.5625,1961.065300000012,1958.326700000048,1960.562400000036,1961.562100000024,1962.061600000024,1962.061600000024,1964.301400000036,1776.0,1964.301400000036,5.0,1964.3055,7.0,15.0,225.0,27.0,1.0,1.2,0.7,Time
,,S42,1,,,anonymized,Serial_Dependence_U,2023.2.3,Win32,166.66666666666666,,,,,,1964.305700000048,198.0,7.0,1964.305700000048,198.0,,,,1968.246600000024,1968.743100000024,1967.7437000000475,1968.246600000024,1965.307600000024,1967.7437000000475,1968.743100000024,1969.239800000012,1969.239800000012,1972.015800000012,1932.0,1972.015800000012,5.0,1972.020300000012,7.0,16.0,226.0,8.0,1.0,1.4,0.7,Time
,,S42,1,,,anonymized,Serial_Dependence_U,2023.2.3,Win32,166.66666666666666,,,,,,1972.020400000036,229.0,7.0,1972.020600000024,229.0,,,,1975.560800000012,1976.057400000036,1975.057700000048,1975.5607000000475,1973.021800000012,1975.057700000048,1976.057400000036,1976.5545,1976.554600000024,1979.051100000024,2026.0,1979.051100000024,5.0,1979.0552000000475,7.0,17.0,227.0,16.0,1.0,1.0,0.7,Time
,,S42,1,,,anonymized,Serial_Dependence_U,2023.2.3,Win32,166.66666666666666,,,,,,1979.055400000036,273.0,7.0,1979.0555,273.0,,,,1982.626800000012,1983.1232000000475,1982.123800000012,1982.6267000000475,1980.0572000000475,1982.123700000048,1983.1232000000475,1983.620100000024,1983.620100000024,1987.128900000036,2092.0,1987.128900000036,5.0,1987.133300000012,7.0,18.0,228.0,1.0,1.0,1.0,0.3,Time
,,S42,1,,,anonymized,Serial_Dependence_U,2023.2.3,Win32,166.66666666666666,,,,,,1987.1335,148.0,7.0,1987.1335,148.0,,,,1990.5044000000355,1991.000900000036,1990.001400000036,1990.5044000000355,1988.135300000012,1990.001400000036,1991.001,1991.498100000024,1991.498100000024,1993.770800000012,2064.0,1993.770800000012,5.0,1993.775200000048,7.0,19.0,229.0,10.0,1.0,0.8,0.3,Time
,,S42,1,,,anonymized,Serial_Dependence_U,2023.2.3,Win32,166.66666666666666,,,,,,1993.775400000036,53.0,7.0,1993.775400000036,53.0,,,,1997.515800000012,1998.012300000012,1997.012800000012,1997.515800000012,1994.777,1997.012700000048,1998.012300000012,1998.509300000012,1998.509300000012,2001.103,1408.0,2001.103,4.0,2001.1069000000357,7.0,20.0,230.0,17.0,1.0,1.2,0.7,Time
,,S42,1,,,anonymized,Serial_Dependence_U,2023.2.3,Win32,166.66666666666666,,,,,,2001.107100000024,169.0,7.0,2001.107100000024,169.0,,,,2004.8785,2005.375,2004.375700000048,2004.878400000036,2002.109,2004.375600000024,2005.375,2005.872,2005.872,2007.962900000036,1824.0,2007.963,5.0,2007.967300000012,7.0,21.0,231.0,2.0,1.0,1.2,0.3,Time
,,S42,1,,,anonymized,Serial_Dependence_U,2023.2.3,Win32,166.66666666666666,,,,,,2007.9675,183.0,7.0,2007.967600000024,183.0,,,,2011.338400000036,2011.835,2010.835600000024,2011.338400000036,2008.969,2010.8355,2011.835,2012.331900000036,2012.331900000036,2013.083600000024,738.0,2013.083600000024,2.0,2013.087700000048,7.0,22.0,232.0,20.0,1.0,0.8,0.3,Time
,,S42,1,,,anonymized,Serial_Dependence_U,2023.2.3,Win32,166.66666666666666,,,,,,2013.087900000036,246.0,7.0,2013.087900000036,246.0,,,,2016.428600000024,2016.925300000012,2015.925900000036,2016.428600000024,2014.089900000036,2015.925900000036,2016.925300000012,2017.4222000000475,2017.4222000000475,2019.1432000000475,1405.0,2019.1432000000475,5.0,2019.147,7.0,23.0,233.0,25.0,1.0,0.8,0.7,Time
,,S42,1,,,anonymized,Serial_Dependence_U,2023.2.3,Win32,166.66666666666666,,,,,,2019.1472000000476,243.0,7.0,2019.147300000012,243.0,,,,2022.688700000048,2023.185,2022.1857000000475,2022.688600000024,2020.1494000000357,2022.1857000000475,2023.185,2023.682,2023.682100000024,2026.554900000036,1654.0,2026.554900000036,5.0,2026.559,7.0,24.0,234.0,26.0,1.0,1.0,0.7,Time
,,S42,1,,,anonymized,Serial_Dependence_U,2023.2.3,Win32,166.66666666666666,,,,,,2026.559300000012,9.0,7.0,2026.559300000012,9.0,,,,2030.130100000024,2030.626600000024,2029.6274000000355,2030.130100000024,2027.560800000012,2029.627300000012,2030.626600000024,2031.1235,2031.1235,2032.675200000048,1272.0,2032.675200000048,4.0,2032.6795,7.0,25.0,235.0,11.0,1.0,1.0,0.3,Time
,,S42,1,,,anonymized,Serial_Dependence_U,2023.2.3,Win32,166.66666666666666,,,,,,2032.679600000024,102.0,7.0,2032.679700000048,102.0,,,,2036.444900000036,2036.941,2035.941600000024,2036.444800000012,2033.6809000000355,2035.941600000024,2036.941100000024,2037.438,2037.438,2039.086300000012,1430.0,2039.086300000012,4.0,2039.090300000012,7.0,26.0,236.0,12.0,1.0,1.2,0.3,Time
,,S42,1,,,anonymized,Serial_Dependence_U,2023.2.3,Win32,166.66666666666666,,,,,,2039.0905,234.0,7.0,2039.0905,234.0,,,,2042.662,2043.1585,2042.159,2042.662,2040.092600000024,2042.158900000036,2043.1585,2043.655900000036,2043.655900000036,2045.1159000000357,1243.0,2045.116,4.0,2045.12,7.0,27.0,237.0,21.0,1.0,1.0,0.3,Time
,,S42,1,,,anonymized,Serial_Dependence_U,2023.2.3,Win32,166.66666666666666,,,,,,2045.120200000048,34.0,7.0,2045.120200000048,34.0,,,,2049.2613000000115,2049.757600000024,2048.758400000036,2049.261200000047,2046.122300000012,2048.758300000012,2049.7577000000474,2050.2546000000234,2050.2546000000234,2052.309300000012,1821.0,2052.309400000036,4.0,2052.314,7.0,28.0,238.0,29.0,1.0,1.6,0.7,Time
,,S42,1,,,anonymized,Serial_Dependence_U,2023.2.3,Win32,166.66666666666666,,,,,,2052.314300000012,7.0,7.0,2052.314300000012,7.0,,,,2056.2543000000114,2056.750800000012,2055.751300000012,2056.254200000047,2053.3154000000354,2055.751300000012,2056.750800000012,2057.247700000047,2057.247700000047,2059.641800000012,1896.0,2059.641800000012,5.0,2059.646,7.0,29.0,239.0,18.0,1.0,1.4,0.7,Time
,,S42,1,,,anonymized,Serial_Dependence_U,2023.2.3,Win32,166.66666666666666,,,,,,2059.6462000000474,179.0,8.0,2081.418800000012,179.0,s,21.76139999997622,,2085.190300000012,2085.686800000012,2084.6874000000357,2085.190300000012,2082.4207000000474,2084.6873000000114,2085.686800000012,2086.184100000024,2086.184100000024,2088.171700000047,1727.0,2088.171700000047,5.0,2088.175800000012,8.0,0.0,240.0,12.0,1.0,1.2,0.3,Time
,,S42,1,,,anonymized,Serial_Dependence_U,2023.2.3,Win32,166.66666666666666,,,,,,2088.176100000024,278.0,8.0,2088.176800000012,278.0,,,,2092.1469999999995,2092.6435,2091.644300000012,2092.146900000036,2089.177600000024,2091.6442000000475,2092.6435,2093.1404999999995,2093.1404999999995,2095.4373000000114,1956.0,2095.4373000000114,5.0,2095.4415,8.0,1.0,241.0,3.0,1.0,1.4,0.3,Time
,,S42,1,,,anonymized,Serial_Dependence_U,2023.2.3,Win32,166.66666666666666,,,,,,2095.441600000024,308.0,8.0,2095.441700000047,308.0,,,,2099.5826000000234,2100.079,2099.079600000024,2099.5824999999995,2096.4435,2099.0794000000355,2100.079,2100.5759000000357,2100.5759000000357,2102.842900000036,1994.0,2102.842900000036,4.0,2102.846800000012,8.0,2.0,242.0,19.0,1.0,1.6,0.7,Time
,,S42,1,,,anonymized,Serial_Dependence_U,2023.2.3,Win32,166.66666666666666,,,,,,2102.847,279.0,8.0,2102.847100000024,279.0,,,,2106.987600000024,2107.484100000024,2106.4848000000115,2106.987600000024,2103.8487000000478,2106.4848000000115,2107.484100000024,2107.981100000024,2107.981100000024,2110.8173000000115,2570.0,2110.8173000000115,5.0,2110.8214000000357,8.0,3.0,243.0,29.0,1.0,1.6,0.7,Time
,,S42,1,,,anonymized,Serial_Dependence_U,2023.2.3,Win32,166.66666666666666,,,,,,2110.8216000000234,251.0,8.0,2110.8216000000234,251.0,,,,2114.1932000000475,2114.6894999999995,2113.69,2114.193100000024,2111.8234000000352,2113.689900000036,2114.689600000024,2115.186300000012,2115.186300000012,2116.828700000048,1260.0,2116.828800000012,5.0,2116.832900000036,8.0,4.0,244.0,20.0,1.0,0.8,0.3,Time
,,S42,1,,,anonymized,Serial_Dependence_U,2023.2.3,Win32,166.66666666666666,,,,,,2116.833,306.0,8.0,2116.8331000000235,306.0,,,,2120.374100000024,2120.8704999999995,2119.8711000000235,2120.374,2117.835,2119.8711000000235,2120.8706000000234,2121.3675,2121.3675,2123.046100000024,1350.0,2123.046100000024,5.0,2123.050100000024,8.0,5.0,245.0,26.0,1.0,1.0,0.7,Time
,,S42,1,,,anonymized,Serial_Dependence_U,2023.2.3,Win32,166.66666666666666,,,,,,2123.0502000000474,327.0,8.0,2123.050300000012,327.0,,,,2126.391600000024,2126.887900000036,2125.8889000000354,2126.3915,2124.0524000000355,2125.8888000000115,2126.887900000036,2127.3849000000355,2127.3849000000355,2129.4516000000235,1593.0,2129.451700000048,5.0,2129.4558000000115,8.0,6.0,246.0,5.0,1.0,0.8,0.7,Time
,,S42,1,,,anonymized,Serial_Dependence_U,2023.2.3,Win32,166.66666666666666,,,,,,2129.4559000000354,78.0,8.0,2129.456,78.0,,,,2133.427,2133.923400000036,2132.924200000047,2133.4269000000354,2130.4576000000234,2132.924200000047,2133.923400000036,2134.4204000000354,2134.4204000000354,2137.123300000012,2364.0,2137.1234000000354,5.0,2137.127400000036,8.0,7.0,247.0,13.0,1.0,1.4,0.3,Time
,,S42,1,,,anonymized,Serial_Dependence_U,2023.2.3,Win32,166.66666666666666,,,,,,2137.1275,331.0,8.0,2137.1277000000478,331.0,,,,2140.668300000012,2141.165100000024,2140.1656000000235,2140.668300000012,2138.1294000000357,2140.1655,2141.165100000024,2141.662100000024,2141.662100000024,2144.528400000036,1756.0,2144.528400000036,5.0,2144.5325,8.0,8.0,248.0,6.0,1.0,1.0,0.7,Time
,,S42,1,,,anonymized,Serial_Dependence_U,2023.2.3,Win32,166.66666666666666,,,,,,2144.532800000012,161.0,8.0,2144.532800000012,161.0,,,,2148.4761000000235,2148.9761000000235,2147.9709000000357,2148.476,2145.534600000024,2147.9709000000357,2148.9761000000235,2149.473100000024,2149.473200000047,2151.6305,1899.0,2151.6305,5.0,2151.6346000000235,8.0,9.0,249.0,18.0,1.0,1.4,0.7,Time
,,S42,1,,,anonymized,Serial_Dependence_U,2023.2.3,Win32,166.66666666666666,,,,,,2151.634800000012,91.0,8.0,2151.6349000000355,91.0,,,,2154.9759000000354,2155.472400000036,2154.472900000035,2154.9758000000115,2152.636800000012,2154.472800000012,2155.472400000036,2155.9702000000475,2155.970300000012,2157.7571000000235,1438.0,2157.7571000000235,5.0,2157.761100000024,8.0,10.0,250.0,25.0,1.0,0.8,0.7,Time
,,S42,1,,,anonymized,Serial_Dependence_U,2023.2.3,Win32,166.66666666666666,,,,,,2157.7613000000115,162.0,8.0,2157.761400000036,162.0,,,,2161.5026000000234,2161.9989000000355,2160.999400000036,2161.5025,2158.7633000000114,2160.999300000012,2161.9989000000355,2162.496,2162.496,2163.8841000000234,1360.0,2163.8841000000234,4.0,2163.8881000000238,8.0,11.0,251.0,27.0,1.0,1.2,0.7,Time
,,S42,1,,,anonymized,Serial_Dependence_U,2023.2.3,Win32,166.66666666666666,,,,,,2163.888200000047,76.0,8.0,2163.888200000047,76.0,,,,2167.428900000036,2167.9255,2166.926100000024,2167.4288000000115,2164.889900000036,2166.9259999999995,2167.9255,2168.4224000000354,2168.4224000000354,2170.549800000012,1351.0,2170.549800000012,5.0,2170.554,8.0,12.0,252.0,16.0,1.0,1.0,0.7,Time
,,S42,1,,,anonymized,Serial_Dependence_U,2023.2.3,Win32,166.66666666666666,,,,,,2170.5541000000235,218.0,8.0,2170.554200000048,218.0,,,,2174.294900000036,2174.791300000012,2173.7919999999995,2174.294900000036,2171.5554999999995,2173.791900000036,2174.791300000012,2175.2884000000354,2175.2884000000354,2177.427800000012,1745.0,2177.427800000012,5.0,2177.432,8.0,13.0,253.0,17.0,1.0,1.2,0.7,Time
,,S42,1,,,anonymized,Serial_Dependence_U,2023.2.3,Win32,166.66666666666666,,,,,,2177.4322000000475,358.0,8.0,2177.4322000000475,358.0,,,,2180.8033000000114,2181.299800000012,2180.300400000036,2180.803200000048,2178.433800000012,2180.300300000012,2181.299800000012,2181.796600000024,2181.796600000024,2185.3115,1284.0,2185.3115,5.0,2185.315600000024,8.0,14.0,254.0,0.0,1.0,0.8,0.3,Time
,,S42,1,,,anonymized,Serial_Dependence_U,2023.2.3,Win32,166.66666666666666,,,,,,2185.3159000000355,259.0,8.0,2185.3159000000355,259.0,,,,2188.8874000000355,2189.3836000000238,2188.3845,2188.887300000012,2186.317700000048,2188.3844000000354,2189.3836000000238,2189.8805,2189.8805,2192.341,1969.0,2192.341,5.0,2192.3452000000475,8.0,15.0,255.0,21.0,1.0,1.0,0.3,Time
,,S42,1,,,anonymized,Serial_Dependence_U,2023.2.3,Win32,166.66666666666666,,,,,,2192.345300000012,53.0,8.0,2192.345400000036,53.0,,,,2196.086100000024,2196.582700000047,2195.5834000000355,2196.086,2193.3469000000355,2195.583300000012,2196.582700000047,2197.079600000024,2197.079600000024,2201.455200000047,1547.0,2201.455200000047,4.0,2201.459300000012,8.0,16.0,256.0,7.0,1.0,1.2,0.7,Time
,,S42,1,,,anonymized,Serial_Dependence_U,2023.2.3,Win32,166.66666666666666,,,,,,2201.459400000036,241.0,8.0,2201.4594999999995,241.0,,,,2205.6305,2206.1275,2205.1284000000355,2205.6305,2202.461600000024,2205.1284000000355,2206.1275,2206.6239000000355,2206.624,2208.532900000036,1369.0,2208.533,2.0,2208.5375,8.0,17.0,257.0,24.0,1.0,1.6,0.3,Time
,,S42,1,,,anonymized,Serial_Dependence_U,2023.2.3,Win32,166.66666666666666,,,,,,2208.5376000000238,83.0,8.0,2208.537700000047,83.0,,,,2211.9084999999995,2212.405,2211.4055,2211.9084000000357,2209.539,2211.4055,2212.405,2212.9019000000358,2212.9019000000358,2214.1929000000355,1277.0,2214.1929000000355,5.0,2214.1969000000354,8.0,18.0,258.0,10.0,1.0,0.8,0.3,Time
