Scale_setup.started,Scale_setup.stopped,participant,session,sex,age,date,expName,psychopyVersion,OS,frameRate,Intro.started,Intro.stopped,key_resp_2.keys,key_resp_2.rt,key_resp_2.duration,block.started,direction,Block_id,block.stopped,trial_direction,Block_resp_2.keys,Block_resp_2.rt,Block_resp_2.duration,ITI.started,ITI.stopped,Mask_2.started,Mask_2.stopped,encoding.started,encoding.stopped,Cue.started,Cue.stopped,Response.started,Response.stopped,keyDuration,Feedback_Time.started,FeedbackID_T,Feedback_Time.stopped,trials.thisRepN,trials.thisTrialN,trials.thisN,trials.thisIndex,trials.ran,TimeDur,Coherence1,TrialType
0.000299999999811,0.0007999999998133,S43,1,女,20,anonymized,Serial_Dependence_U,2023.2.3,Win32,30.030030030027405,,,,,,,,,,,,,,,,,,,,,,,,,,,,,,,,,,,
,,S43,1,女,20,anonymized,Serial_Dependence_U,2023.2.3,Win32,30.030030030027405,138.78929999999983,159.51619999999994,space,20.630600000000072,,,,,,,,,,,,,,,,,,,,,,,,,,,,,,,
,,S43,1,女,20,anonymized,Serial_Dependence_U,2023.2.3,Win32,30.030030030027405,,,,,,159.54869999999994,67.0,0.0,161.494,67.0,s,1.8538999999998964,0.0588000000000477,165.7048999999999,166.1903999999999,165.20159999999987,165.70469999999997,162.5295,165.2015,166.19059999999985,166.69119999999995,166.6917999999998,207.45360000000008,216.0,207.45419999999973,1.0,208.4497999999998,0.0,0.0,0.0,24.0,1.0,1.6,0.3,Time
,,S43,1,女,20,anonymized,Serial_Dependence_U,2023.2.3,Win32,30.030030030027405,,,,,,208.4526000000001,40.0,0.0,208.4562999999998,40.0,,,,211.8101000000001,212.3156999999997,211.3072999999998,211.80989999999989,209.4716999999997,211.3071999999997,212.31579999999985,212.8167999999998,212.8167999999998,218.1381000000001,5101.0,218.1383999999999,5.0,219.13779999999983,0.0,1.0,1.0,25.0,1.0,0.8,0.7,Time
,,S43,1,女,20,anonymized,Serial_Dependence_U,2023.2.3,Win32,30.030030030027405,,,,,,219.1405,266.0,0.0,219.141,266.0,,,,222.738,223.2162999999998,222.23060000000007,222.7377999999998,220.15669999999972,222.2303999999999,223.2165,223.69269999999972,223.6931999999997,226.5425,2769.0,226.54260000000008,5.0,227.5283999999999,0.0,2.0,2.0,1.0,1.0,1.0,0.3,Time
,,S43,1,女,20,anonymized,Serial_Dependence_U,2023.2.3,Win32,30.030030030027405,,,,,,227.5307999999998,200.0,0.0,227.532,200.0,,,,230.89979999999983,231.4091000000001,230.38829999999984,230.89860000000007,228.53429999999983,230.3881000000001,231.40939999999992,231.9096000000001,231.90969999999973,235.8601999999997,2725.0,235.86039999999988,5.0,236.8606000000001,0.0,3.0,3.0,5.0,1.0,0.8,0.7,Time
,,S43,1,女,20,anonymized,Serial_Dependence_U,2023.2.3,Win32,30.030030030027405,,,,,,236.8611000000001,163.0,0.0,236.86139999999992,163.0,,,,240.6225,241.1136000000001,240.1025,240.62239999999989,237.8408999999999,240.1023999999999,241.1136000000001,241.62869999999967,241.6287999999998,244.5096999999997,2579.0,244.5101000000001,5.0,245.4981999999997,0.0,4.0,4.0,27.0,1.0,1.2,0.7,Time
,,S43,1,女,20,anonymized,Serial_Dependence_U,2023.2.3,Win32,30.030030030027405,,,,,,245.501,60.0,0.0,245.5026999999997,60.0,,,,249.1246999999997,249.6217999999998,248.62039999999996,249.12460000000007,246.5305,248.6196999999997,249.6218999999999,250.10469999999967,250.1047999999998,252.0858999999999,1731.0,252.08610000000007,5.0,253.0745,0.0,5.0,5.0,11.0,1.0,1.0,0.3,Time
,,S43,1,女,20,anonymized,Serial_Dependence_U,2023.2.3,Win32,30.030030030027405,,,,,,253.0762999999998,160.0,0.0,253.07729999999984,160.0,,,,256.4766999999997,256.97069999999974,255.97179999999983,256.4766999999997,254.10139999999996,255.97169999999971,256.9707999999998,257.4723999999999,257.4725,258.74429999999984,1193.0,258.74610000000007,5.0,259.74869999999976,0.0,6.0,6.0,10.0,1.0,0.8,0.3,Time
,,S43,1,女,20,anonymized,Serial_Dependence_U,2023.2.3,Win32,30.030030030027405,,,,,,259.751,148.0,0.0,259.7515,148.0,,,,263.5904,264.0822999999998,263.06129999999985,263.5904,260.7791999999997,263.06119999999976,264.0822999999998,264.5776000000001,264.578,267.15610000000004,2121.0,267.15629999999976,5.0,268.1466000000001,0.0,7.0,7.0,12.0,1.0,1.2,0.3,Time
,,S43,1,女,20,anonymized,Serial_Dependence_U,2023.2.3,Win32,30.030030030027405,,,,,,268.14869999999974,231.0,0.0,268.1519,231.0,,,,271.91650000000004,272.3865,271.4003999999999,271.9161999999998,269.1556999999997,271.4002999999998,272.3866999999997,272.8935,272.8936000000001,275.6743999999999,2397.0,275.6746999999997,5.0,276.65629999999976,0.0,8.0,8.0,17.0,1.0,1.2,0.7,Time
,,S43,1,女,20,anonymized,Serial_Dependence_U,2023.2.3,Win32,30.030030030027405,,,,,,276.6588999999999,18.0,0.0,276.6591999999997,18.0,,,,280.80079999999987,281.28579999999977,280.288,280.80069999999967,277.6503999999999,280.2878999999999,281.28610000000015,281.77869999999973,281.7787999999998,284.7536999999997,2355.0,284.7541000000001,5.0,285.7655,0.0,9.0,9.0,29.0,1.0,1.6,0.7,Time
,,S43,1,女,20,anonymized,Serial_Dependence_U,2023.2.3,Win32,30.030030030027405,,,,,,285.76610000000005,240.0,0.0,285.76649999999995,240.0,,,,289.1837999999998,289.6733999999999,288.6641999999997,289.1836999999997,286.7747999999998,288.6641999999997,289.6736999999997,290.18600000000004,290.1861000000001,293.0138999999999,2335.0,293.01419999999973,5.0,294.0039,0.0,10.0,10.0,20.0,1.0,0.8,0.3,Time
,,S43,1,女,20,anonymized,Serial_Dependence_U,2023.2.3,Win32,30.030030030027405,,,,,,294.0058999999999,342.0,0.0,294.00710000000004,342.0,,,,297.45889999999986,297.95410000000004,296.9366000000001,297.4586999999997,295.04560000000004,296.9365,297.9541999999997,298.4715,298.4716000000001,300.58050000000003,2034.0,300.582,5.0,301.5925,0.0,11.0,11.0,0.0,1.0,0.8,0.3,Time
,,S43,1,女,20,anonymized,Serial_Dependence_U,2023.2.3,Win32,30.030030030027405,,,,,,301.59400000000005,4.0,0.0,301.5953999999999,4.0,,,,305.61239999999987,306.09910000000013,305.098,305.6122999999998,302.6067999999998,305.09789999999987,306.09919999999977,306.6245,306.6245,309.39610000000005,2236.0,309.39629999999977,5.0,310.39189999999985,0.0,12.0,12.0,13.0,1.0,1.4,0.3,Time
,,S43,1,女,20,anonymized,Serial_Dependence_U,2023.2.3,Win32,30.030030030027405,,,,,,310.39239999999995,186.0,0.0,310.39260000000013,186.0,,,,314.4091000000001,314.9231000000001,313.8946999999997,314.4091000000001,311.4233999999999,313.8946999999997,314.9233999999999,315.4306999999998,315.4306999999998,318.125,2191.0,318.1251999999997,5.0,319.1216999999997,0.0,13.0,13.0,3.0,1.0,1.4,0.3,Time
,,S43,1,女,20,anonymized,Serial_Dependence_U,2023.2.3,Win32,30.030030030027405,,,,,,319.12419999999975,317.0,0.0,319.1245,317.0,,,,323.1336999999997,323.649,322.61429999999984,323.1336000000001,320.136,322.61429999999984,323.649,324.16589999999985,324.16600000000005,326.5476000000001,2310.0,326.548,5.0,327.5375,0.0,14.0,14.0,23.0,1.0,1.4,0.3,Time
,,S43,1,女,20,anonymized,Serial_Dependence_U,2023.2.3,Win32,30.030030030027405,,,,,,327.5398999999999,233.0,0.0,327.5402999999998,233.0,,,,331.10919999999976,331.60389999999995,330.58839999999987,331.1091000000001,328.5526000000001,330.5881999999997,331.60389999999995,332.0965,332.0965,334.42549999999994,1835.0,334.42579999999987,5.0,335.4132999999998,0.0,15.0,15.0,26.0,1.0,1.0,0.7,Time
,,S43,1,女,20,anonymized,Serial_Dependence_U,2023.2.3,Win32,30.030030030027405,,,,,,335.4148999999999,6.0,0.0,335.41610000000014,6.0,,,,339.2216000000001,339.71839999999986,338.69000000000005,339.2215,336.42100000000005,338.68989999999985,339.71849999999995,340.19810000000007,340.1985,342.92129999999986,2274.0,342.92150000000004,5.0,343.9121000000001,0.0,16.0,16.0,22.0,1.0,1.2,0.3,Time
,,S43,1,女,20,anonymized,Serial_Dependence_U,2023.2.3,Win32,30.030030030027405,,,,,,343.91319999999973,267.0,0.0,343.9136999999997,267.0,,,,347.8761999999997,348.36789999999985,347.3516000000001,347.876,344.9005,347.3516000000001,348.36800000000005,348.87660000000005,348.87660000000005,350.7167999999998,1254.0,350.7168999999999,2.0,351.718,0.0,17.0,17.0,18.0,1.0,1.4,0.7,Time
,,S43,1,女,20,anonymized,Serial_Dependence_U,2023.2.3,Win32,30.030030030027405,,,,,,351.71929999999986,155.0,0.0,351.7207999999998,155.0,,,,355.8843999999999,356.3969,355.3762999999998,355.8842999999998,352.73,355.3762999999998,356.3969,356.86929999999984,356.8695,360.2412999999998,2894.0,360.24160000000006,5.0,361.2339,0.0,18.0,18.0,19.0,1.0,1.6,0.7,Time
,,S43,1,女,20,anonymized,Serial_Dependence_U,2023.2.3,Win32,30.030030030027405,,,,,,361.2344,145.0,0.0,361.23479999999984,145.0,,,,364.89339999999993,365.39210000000014,364.3637999999999,364.89329999999984,362.2787999999998,364.36369999999977,365.3921999999998,365.878,365.8782999999999,368.26319999999976,1742.0,368.2635,5.0,369.2592999999998,0.0,19.0,19.0,21.0,1.0,1.0,0.3,Time
,,S43,1,女,20,anonymized,Serial_Dependence_U,2023.2.3,Win32,30.030030030027405,,,,,,369.2608999999999,350.0,0.0,369.2615,350.0,,,,373.0564,373.5699,372.5532999999998,373.0562999999999,370.289,372.5531999999997,373.5699,374.063,374.063,376.1575,1584.0,376.15779999999984,5.0,377.1502999999998,0.0,20.0,20.0,2.0,1.0,1.2,0.3,Time
,,S43,1,女,20,anonymized,Serial_Dependence_U,2023.2.3,Win32,30.030030030027405,,,,,,377.15169999999966,341.0,0.0,377.153,341.0,,,,381.13229999999976,381.6361999999997,380.6265,381.13219999999967,378.17569999999967,380.6263999999999,381.6362999999998,382.1163999999999,382.1163999999999,384.33429999999976,1466.0,384.3345000000001,3.0,385.3426999999997,0.0,21.0,21.0,8.0,1.0,1.4,0.7,Time
,,S43,1,女,20,anonymized,Serial_Dependence_U,2023.2.3,Win32,30.030030030027405,,,,,,385.3431999999997,202.0,0.0,385.3436,202.0,,,,389.56010000000015,390.0700000000001,389.0528999999999,389.56,386.3866999999997,389.0527999999998,390.07010000000014,390.5538999999999,390.5538999999999,393.1828999999999,2276.0,393.1831000000001,5.0,394.1793999999999,0.0,22.0,22.0,14.0,1.0,1.6,0.3,Time
,,S43,1,女,20,anonymized,Serial_Dependence_U,2023.2.3,Win32,30.030030030027405,,,,,,394.1797999999998,138.0,0.0,394.1801,138.0,,,,398.1463999999999,398.6301000000001,397.6361999999997,398.1463999999999,395.2015,397.636,398.6301999999997,399.13179999999977,399.13179999999977,401.8,2287.0,401.8025,5.0,402.80069999999967,0.0,23.0,23.0,28.0,1.0,1.4,0.7,Time
,,S43,1,女,20,anonymized,Serial_Dependence_U,2023.2.3,Win32,30.030030030027405,,,,,,402.80119999999977,304.0,0.0,402.8015,304.0,,,,406.979,407.4632999999998,406.4552999999999,406.9789,403.8091999999997,406.45519999999976,407.4632999999998,407.9461000000001,407.9466999999997,410.43510000000015,1642.0,410.4361000000001,3.0,411.4322999999998,0.0,24.0,24.0,9.0,1.0,1.6,0.7,Time
,,S43,1,女,20,anonymized,Serial_Dependence_U,2023.2.3,Win32,30.030030030027405,,,,,,411.4326999999997,241.0,0.0,411.4328999999999,241.0,,,,415.64679999999976,416.15510000000006,415.1256999999997,415.64669999999967,412.4546999999998,415.1256000000001,416.1552999999998,416.6681999999997,416.6682999999998,418.3829,1322.0,418.3831000000001,2.0,419.3796999999997,0.0,25.0,25.0,4.0,1.0,1.6,0.3,Time
,,S43,1,女,20,anonymized,Serial_Dependence_U,2023.2.3,Win32,30.030030030027405,,,,,,419.3816000000001,185.0,0.0,419.3818999999999,185.0,,,,423.16510000000005,423.65160000000014,422.6547999999998,423.165,420.4153999999999,422.6546999999997,423.652,424.13839999999993,424.13879999999983,426.14,1509.0,426.1401999999997,4.0,427.1185,0.0,26.0,26.0,7.0,1.0,1.2,0.7,Time
,,S43,1,女,20,anonymized,Serial_Dependence_U,2023.2.3,Win32,30.030030030027405,,,,,,427.1203999999999,286.0,0.0,427.1217999999998,286.0,,,,430.711,431.20069999999976,430.1935,430.7108999999999,428.1312999999998,430.1935,431.20089999999993,431.6837999999998,431.6846000000001,433.7267999999998,1501.0,433.7268999999999,5.0,434.7066999999997,0.0,27.0,27.0,6.0,1.0,1.0,0.7,Time
,,S43,1,女,20,anonymized,Serial_Dependence_U,2023.2.3,Win32,30.030030030027405,,,,,,434.7085,178.0,0.0,434.7105,178.0,,,,438.2898999999999,438.79229999999984,437.76560000000006,438.2897999999998,435.716,437.7655,438.7926000000001,439.2986999999997,439.2986999999997,441.2757999999998,1762.0,441.276,5.0,442.2665,0.0,28.0,28.0,16.0,1.0,1.0,0.7,Time
,,S43,1,女,20,anonymized,Serial_Dependence_U,2023.2.3,Win32,30.030030030027405,,,,,,442.26710000000014,335.0,0.0,442.2674,335.0,,,,445.62889999999993,446.1108999999999,445.1125,445.62869999999975,443.27179999999976,445.1125,446.1111000000001,446.5871000000001,446.5872999999998,448.9682999999998,1830.0,448.9683999999999,5.0,449.97019999999975,0.0,29.0,29.0,15.0,1.0,0.8,0.7,Time
,,S43,1,女,20,anonymized,Serial_Dependence_U,2023.2.3,Win32,30.030030030027405,,,,,,449.9707999999998,321.0,1.0,453.4903999999999,321.0,s,3.4664999999999964,,457.2936000000001,457.7928999999999,456.7845,457.2935,454.5235,456.7842999999998,457.7928999999999,458.28279999999984,458.2828999999999,460.4727999999998,1455.0,460.473,4.0,460.4926,1.0,0.0,30.0,17.0,1.0,1.2,0.7,Time
,,S43,1,女,20,anonymized,Serial_Dependence_U,2023.2.3,Win32,30.030030030027405,,,,,,460.49300000000005,132.0,1.0,460.49419999999975,132.0,,,,464.6377999999999,465.144,464.1318999999999,464.6376000000001,461.49929999999983,464.13179999999977,465.144,465.6282999999999,465.6284,467.66079999999977,1998.0,467.6611,4.0,467.6826999999997,1.0,1.0,31.0,19.0,1.0,1.6,0.7,Time
,,S43,1,女,20,anonymized,Serial_Dependence_U,2023.2.3,Win32,30.030030030027405,,,,,,467.6831000000001,46.0,1.0,467.6831999999997,46.0,,,,471.7025,472.1896,471.1976999999997,471.7022999999998,468.70949999999993,471.1976999999997,472.1896,472.6886999999997,472.6887999999998,473.7964999999999,1065.0,473.7964999999999,2.0,473.8166999999997,1.0,2.0,32.0,3.0,1.0,1.4,0.3,Time
,,S43,1,女,20,anonymized,Serial_Dependence_U,2023.2.3,Win32,30.030030030027405,,,,,,473.8171000000001,158.0,1.0,473.8171999999997,158.0,,,,477.80139999999983,478.31069999999966,477.2992999999998,477.80079999999975,474.834,477.2991999999997,478.3107999999997,478.8168999999999,478.817,483.372,4067.0,483.37229999999977,5.0,483.3908999999999,1.0,3.0,33.0,23.0,1.0,1.4,0.3,Time
,,S43,1,女,20,anonymized,Serial_Dependence_U,2023.2.3,Win32,30.030030030027405,,,,,,483.3911000000001,355.0,1.0,483.3913999999999,355.0,,,,487.568,488.0623999999999,487.039,487.5678999999999,484.3916999999997,487.039,488.0623999999999,488.5537999999998,488.5537999999998,490.4407999999997,1703.0,490.4411000000001,4.0,490.4625,1.0,4.0,34.0,29.0,1.0,1.6,0.7,Time
,,S43,1,女,20,anonymized,Serial_Dependence_U,2023.2.3,Win32,30.030030030027405,,,,,,490.4627999999998,291.0,1.0,490.463,291.0,,,,493.82589999999993,494.3143999999999,493.3204999999999,493.8257999999997,491.4716999999997,493.32039999999984,494.3146999999997,494.8061,494.8061999999997,496.5345,1655.0,496.5347999999998,5.0,496.5533999999999,1.0,5.0,35.0,5.0,1.0,0.8,0.7,Time
,,S43,1,女,20,anonymized,Serial_Dependence_U,2023.2.3,Win32,30.030030030027405,,,,,,496.5537999999998,149.0,1.0,496.554,149.0,,,,500.1125,500.5821000000001,499.6043999999998,500.1123999999999,497.5431000000001,499.6041999999997,500.5821999999997,501.0772999999998,501.0772999999998,502.8728999999999,1600.0,502.87299999999993,5.0,502.89219999999966,1.0,6.0,36.0,26.0,1.0,1.0,0.7,Time
,,S43,1,女,20,anonymized,Serial_Dependence_U,2023.2.3,Win32,30.030030030027405,,,,,,502.89239999999984,302.0,1.0,502.8926,302.0,,,,506.9056000000001,507.38679999999977,506.3836000000001,506.9056000000001,503.8963999999999,506.3835,507.3871,507.8706000000001,507.8707999999998,509.9097999999998,2004.0,509.91010000000006,5.0,509.9306,1.0,7.0,37.0,13.0,1.0,1.4,0.3,Time
,,S43,1,女,20,anonymized,Serial_Dependence_U,2023.2.3,Win32,30.030030030027405,,,,,,509.9311,319.0,1.0,509.9312999999997,319.0,,,,514.0994999999999,514.6156000000001,513.5888999999999,514.0994999999999,510.954,513.5886999999997,514.6156000000001,515.0998999999999,515.0998999999999,518.1042999999997,2522.0,518.1043999999998,5.0,518.1251999999997,1.0,8.0,38.0,9.0,1.0,1.6,0.7,Time
,,S43,1,女,20,anonymized,Serial_Dependence_U,2023.2.3,Win32,30.030030030027405,,,,,,518.1256999999997,168.0,1.0,518.1257999999998,168.0,,,,522.2982999999998,522.7751999999997,521.7913999999998,522.2981999999997,519.1098999999999,521.7912999999998,522.7753999999999,523.2691999999997,523.2691999999997,525.7026000000001,1966.0,525.7028999999999,4.0,525.7251000000001,1.0,9.0,39.0,4.0,1.0,1.6,0.3,Time
,,S43,1,女,20,anonymized,Serial_Dependence_U,2023.2.3,Win32,30.030030030027405,,,,,,525.7252999999998,203.0,1.0,525.7253999999999,203.0,,,,529.0936,529.579,528.5746,529.0935,526.7376999999997,528.5745,529.5791999999997,530.0564999999999,530.0566999999996,532.5628999999999,2017.0,532.5636000000001,5.0,532.582,1.0,10.0,40.0,25.0,1.0,0.8,0.7,Time
,,S43,1,女,20,anonymized,Serial_Dependence_U,2023.2.3,Win32,30.030030030027405,,,,,,532.5822999999998,154.0,1.0,532.5825,154.0,,,,536.1652999999998,536.648,535.66,536.1648999999999,533.5832999999998,535.6588999999999,536.648,537.1519999999999,537.1521,539.1211000000001,1741.0,539.122,5.0,539.1396000000001,1.0,11.0,41.0,21.0,1.0,1.0,0.3,Time
,,S43,1,女,20,anonymized,Serial_Dependence_U,2023.2.3,Win32,30.030030030027405,,,,,,539.1401000000001,122.0,1.0,539.1403999999999,122.0,,,,542.9361,543.4296999999997,542.4312999999997,542.9361,540.1667999999997,542.4311,543.4296999999997,543.9382999999998,543.9386999999997,546.6712999999997,2359.0,546.6745,5.0,546.6918999999999,1.0,12.0,42.0,12.0,1.0,1.2,0.3,Time
,,S43,1,女,20,anonymized,Serial_Dependence_U,2023.2.3,Win32,30.030030030027405,,,,,,546.6921999999997,211.0,1.0,546.6923999999999,211.0,,,,550.6705,551.165,550.1485,550.6703999999999,547.6895,550.1483999999999,551.1651,551.6411999999997,551.6412999999998,553.7456000000001,1894.0,553.746,5.0,553.7651000000001,1.0,13.0,43.0,8.0,1.0,1.4,0.7,Time
,,S43,1,女,20,anonymized,Serial_Dependence_U,2023.2.3,Win32,30.030030030027405,,,,,,553.7653999999999,338.0,1.0,553.7655,338.0,,,,557.5577999999998,558.0342999999998,557.0553999999998,557.5576999999997,554.7908999999999,557.0551999999997,558.0343999999999,558.5097999999998,558.5098999999999,560.506,1781.0,560.5082999999997,5.0,560.5301000000001,1.0,14.0,44.0,2.0,1.0,1.2,0.3,Time
,,S43,1,女,20,anonymized,Serial_Dependence_U,2023.2.3,Win32,30.030030030027405,,,,,,560.5305,181.0,1.0,560.5308999999999,181.0,,,,563.9655,564.4433999999999,563.4416999999997,563.9649999999999,561.5547999999998,563.4416000000001,564.4433999999999,564.9543999999999,564.9544999999999,566.9287999999998,1828.0,566.9291999999997,5.0,566.951,1.0,15.0,45.0,0.0,1.0,0.8,0.3,Time
,,S43,1,女,20,anonymized,Serial_Dependence_U,2023.2.3,Win32,30.030030030027405,,,,,,566.9515,294.0,1.0,566.9516000000001,294.0,,,,570.5106000000001,571.0016999999997,569.9902999999998,570.5105,567.9487999999998,569.9901999999997,571.0016999999997,571.4966000000001,571.4967999999998,573.0525,1126.0,573.0527999999998,4.0,573.0731000000001,1.0,16.0,46.0,16.0,1.0,1.0,0.7,Time
,,S43,1,女,20,anonymized,Serial_Dependence_U,2023.2.3,Win32,30.030030030027405,,,,,,573.0733999999999,95.0,1.0,573.0736,95.0,,,,576.4957999999998,576.9933999999998,575.9731999999997,576.4957999999998,574.095,575.9731,576.9934999999999,577.4931999999997,577.4931999999997,579.1057999999998,1258.0,579.1083999999998,5.0,579.1256999999997,1.0,17.0,47.0,20.0,1.0,0.8,0.3,Time
,,S43,1,女,20,anonymized,Serial_Dependence_U,2023.2.3,Win32,30.030030030027405,,,,,,579.1261000000001,206.0,1.0,579.1262999999998,206.0,,,,583.3416999999997,583.8211999999996,582.8266000000001,583.3416000000001,580.1592999999998,582.8263999999999,583.8215,584.3151,584.3151999999997,586.3916999999997,1594.0,586.3921,3.0,586.4136000000001,1.0,18.0,48.0,24.0,1.0,1.6,0.3,Time
,,S43,1,女,20,anonymized,Serial_Dependence_U,2023.2.3,Win32,30.030030030027405,,,,,,586.4138999999999,153.0,1.0,586.4141999999997,153.0,,,,589.7906999999997,590.2773999999998,589.2786000000001,589.7906,587.4268999999999,589.2785,590.2774999999999,590.766,590.7661,592.9788999999998,1990.0,592.9807999999998,5.0,592.9963999999999,1.0,19.0,49.0,15.0,1.0,0.8,0.7,Time
,,S43,1,女,20,anonymized,Serial_Dependence_U,2023.2.3,Win32,30.030030030027405,,,,,,592.9966999999997,181.0,1.0,592.9968999999999,181.0,,,,596.7606999999997,597.2718999999998,596.2476,596.7606000000001,593.999,596.2475,597.2718999999998,597.7708999999999,597.771,600.1759999999999,2214.0,600.177,5.0,600.1991999999997,1.0,20.0,50.0,27.0,1.0,1.2,0.7,Time
,,S43,1,女,20,anonymized,Serial_Dependence_U,2023.2.3,Win32,30.030030030027405,,,,,,600.1996999999997,249.0,1.0,600.1999999999999,249.0,,,,604.1806,604.6771000000001,603.6496999999997,604.1806,601.2118999999999,603.6491999999997,604.6773999999999,605.1658999999999,605.1658999999999,607.3905,1787.0,607.3906999999997,4.0,607.4111999999997,1.0,21.0,51.0,28.0,1.0,1.4,0.7,Time
,,S43,1,女,20,anonymized,Serial_Dependence_U,2023.2.3,Win32,30.030030030027405,,,,,,607.4116999999997,198.0,1.0,607.4118999999998,198.0,,,,611.3996999999997,611.9078999999999,610.8758999999999,611.3996000000001,608.4297999999998,610.8757999999998,611.9078999999999,612.3923999999998,612.3923999999998,614.8536999999997,2174.0,614.8562999999998,5.0,614.8732999999997,1.0,22.0,52.0,18.0,1.0,1.4,0.7,Time
,,S43,1,女,20,anonymized,Serial_Dependence_U,2023.2.3,Win32,30.030030030027405,,,,,,614.8734999999999,57.0,1.0,614.8736999999996,57.0,,,,618.4642999999998,618.9592999999998,617.9596,618.4641999999997,615.8867999999998,617.9594999999999,618.9593999999998,619.4462999999998,619.4462999999998,621.1363999999999,1440.0,621.1377999999997,5.0,621.1551999999997,1.0,23.0,53.0,11.0,1.0,1.0,0.3,Time
,,S43,1,女,20,anonymized,Serial_Dependence_U,2023.2.3,Win32,30.030030030027405,,,,,,621.1553999999999,30.0,1.0,621.1556999999997,30.0,,,,624.6936000000001,625.1741000000001,624.1871000000001,624.6936000000001,622.1526999999996,624.1871000000001,625.1741000000001,625.653,625.6532999999998,628.4133999999999,2127.0,628.4136999999997,5.0,628.4354999999999,1.0,24.0,54.0,6.0,1.0,1.0,0.7,Time
,,S43,1,女,20,anonymized,Serial_Dependence_U,2023.2.3,Win32,30.030030030027405,,,,,,628.4361,262.0,1.0,628.4363999999998,262.0,,,,632.6422999999998,633.1435,632.1161999999997,632.6422999999998,629.443,632.1156999999997,633.1438999999999,633.6097999999998,633.6098999999999,635.5021,1446.0,635.5021999999997,2.0,635.5215,1.0,25.0,55.0,14.0,1.0,1.6,0.3,Time
,,S43,1,女,20,anonymized,Serial_Dependence_U,2023.2.3,Win32,30.030030030027405,,,,,,635.5217999999998,276.0,1.0,635.5221,276.0,,,,639.3679999999999,639.8561000000001,638.8435,639.3678999999998,636.5426999999997,638.8431999999997,639.8561000000001,640.3271999999997,640.3275,642.8254999999999,1569.0,642.8276000000001,5.0,642.8432999999998,1.0,26.0,56.0,22.0,1.0,1.2,0.3,Time
,,S43,1,女,20,anonymized,Serial_Dependence_U,2023.2.3,Win32,30.030030030027405,,,,,,642.8436,33.0,1.0,642.8438999999998,33.0,,,,646.6131,647.1023999999999,646.0846,646.6128999999999,643.8421000000001,646.0844999999999,647.1025,647.5808999999999,647.5811999999997,649.5586000000001,1602.0,649.5586000000001,5.0,649.5767999999998,1.0,27.0,57.0,7.0,1.0,1.2,0.7,Time
,,S43,1,女,20,anonymized,Serial_Dependence_U,2023.2.3,Win32,30.030030030027405,,,,,,649.577,275.0,1.0,649.5771999999997,275.0,,,,653.0126,653.5041999999997,652.4811000000001,653.0124999999999,650.5908999999999,652.481,653.5042999999998,653.9846999999997,653.9846999999997,656.3852999999998,1858.0,656.3855,5.0,656.4069999999999,1.0,28.0,58.0,10.0,1.0,0.8,0.3,Time
,,S43,1,女,20,anonymized,Serial_Dependence_U,2023.2.3,Win32,30.030030030027405,,,,,,656.4073999999998,179.0,1.0,656.4076000000001,179.0,,,,660.0221999999997,660.5151000000001,659.4946999999997,660.0221999999997,657.4008999999999,659.4946000000001,660.5152999999998,661.0047999999998,661.0047999999998,663.9027999999997,2266.0,663.9052999999998,5.0,663.922,1.0,29.0,59.0,1.0,1.0,1.0,0.3,Time
,,S43,1,女,20,anonymized,Serial_Dependence_U,2023.2.3,Win32,30.030030030027405,,,,,,663.9222999999998,224.0,2.0,714.2173999999999,224.0,s,50.2484000000004,,718.4202999999998,718.9136999999997,717.8903999999999,718.4201,715.2476,717.8902999999998,718.9137999999998,719.4161999999997,719.4162999999998,721.4546999999997,1777.0,721.4561999999997,4.0,721.4756000000001,2.0,0.0,60.0,19.0,1.0,1.6,0.7,Time
,,S43,1,女,20,anonymized,Serial_Dependence_U,2023.2.3,Win32,30.030030030027405,,,,,,721.4758999999999,271.0,2.0,721.4775,271.0,,,,725.5052999999998,725.9828999999999,724.9796999999996,725.5051999999997,722.4915,724.9796000000001,725.9828999999999,726.4751000000001,726.4751000000001,727.4448999999998,340.0,727.4449999999999,1.0,727.4631999999997,2.0,1.0,61.0,13.0,1.0,1.4,0.3,Time
,,S43,1,女,20,anonymized,Serial_Dependence_U,2023.2.3,Win32,30.030030030027405,,,,,,727.4635,314.0,2.0,727.4636999999997,314.0,,,,730.8976999999996,731.3919999999999,730.3641999999996,730.8976,728.4892999999997,730.3631999999997,731.3921,731.8908999999999,731.891,733.8131999999997,1791.0,733.8136000000001,5.0,733.834,2.0,2.0,62.0,10.0,1.0,0.8,0.3,Time
,,S43,1,女,20,anonymized,Serial_Dependence_U,2023.2.3,Win32,30.030030030027405,,,,,,733.8342999999998,78.0,2.0,733.8346,78.0,,,,737.38,737.8908999999999,736.8787999999997,737.3798999999999,734.829,736.8786999999996,737.8908999999999,738.3726999999997,738.3728999999998,740.8516999999997,1928.0,740.8518999999999,5.0,740.8707999999998,2.0,3.0,63.0,16.0,1.0,1.0,0.7,Time
,,S43,1,女,20,anonymized,Serial_Dependence_U,2023.2.3,Win32,30.030030030027405,,,,,,740.8711999999997,142.0,2.0,740.8713999999999,142.0,,,,745.0318999999998,745.5235,744.5261999999997,745.0318999999998,741.8907999999998,744.5261,745.5236000000001,746.0181999999996,746.0181999999996,748.1196999999997,2029.0,748.12,4.0,748.1391000000001,2.0,4.0,64.0,9.0,1.0,1.6,0.7,Time
,,S43,1,女,20,anonymized,Serial_Dependence_U,2023.2.3,Win32,30.030030030027405,,,,,,748.1395,99.0,2.0,748.1396999999997,99.0,,,,751.7513999999999,752.2426999999997,751.2221000000001,751.7511999999997,749.1486000000001,751.2221000000001,752.2428999999998,752.7361999999997,752.7361999999997,754.3456999999997,1257.0,754.3457999999998,4.0,754.3656999999997,2.0,5.0,65.0,11.0,1.0,1.0,0.3,Time
,,S43,1,女,20,anonymized,Serial_Dependence_U,2023.2.3,Win32,30.030030030027405,,,,,,754.3661000000001,356.0,2.0,754.3661999999997,356.0,,,,757.7396000000001,758.2506999999997,757.2126000000001,757.7395,755.3736999999996,757.2125,758.2506999999997,758.752,758.7521,760.9862999999998,1756.0,760.9865,5.0,761.0055,2.0,6.0,66.0,15.0,1.0,0.8,0.7,Time
,,S43,1,女,20,anonymized,Serial_Dependence_U,2023.2.3,Win32,30.030030030027405,,,,,,761.006,130.0,2.0,761.0061999999997,130.0,,,,764.992,765.4931,764.4616999999997,764.9918999999999,762.0158999999999,764.4615,765.4931,765.9822999999998,765.9828999999999,767.716,1201.0,767.7186,2.0,767.7346000000001,2.0,7.0,67.0,8.0,1.0,1.4,0.7,Time
,,S43,1,女,20,anonymized,Serial_Dependence_U,2023.2.3,Win32,30.030030030027405,,,,,,767.7348999999999,31.0,2.0,767.7351000000001,31.0,,,,771.1157999999998,771.591,770.6033999999999,771.1156999999997,768.7668999999999,770.6032999999998,771.591,772.0816000000001,772.0816000000001,774.0363999999998,1760.0,774.0368999999998,5.0,774.0595,2.0,8.0,68.0,5.0,1.0,0.8,0.7,Time
,,S43,1,女,20,anonymized,Serial_Dependence_U,2023.2.3,Win32,30.030030030027405,,,,,,774.0601999999997,165.0,2.0,774.0603999999998,165.0,,,,777.4496,777.9406999999997,776.9183999999999,777.4495,775.0486999999997,776.9181999999997,777.9407999999997,778.4449999999999,778.4449999999999,780.4209999999999,1336.0,780.4213999999998,5.0,780.4406,2.0,9.0,69.0,0.0,1.0,0.8,0.3,Time
,,S43,1,女,20,anonymized,Serial_Dependence_U,2023.2.3,Win32,30.030030030027405,,,,,,780.4408999999998,21.0,2.0,780.4411999999996,21.0,,,,784.078,784.5737999999998,783.5398999999999,784.0777999999998,781.4653999999999,783.5398999999999,784.5743999999999,785.0573999999999,785.0576999999997,787.346,1848.0,787.3461999999997,5.0,787.3676999999997,2.0,10.0,70.0,1.0,1.0,1.0,0.3,Time
,,S43,1,女,20,anonymized,Serial_Dependence_U,2023.2.3,Win32,30.030030030027405,,,,,,787.3679999999999,274.0,2.0,787.3681999999997,274.0,,,,791.1897999999998,791.678,790.658,791.1896999999997,788.4056999999997,790.658,791.6781999999997,792.1731000000001,792.1733999999999,794.0736,1864.0,794.0737999999998,5.0,794.0925,2.0,11.0,71.0,7.0,1.0,1.2,0.7,Time
,,S43,1,女,20,anonymized,Serial_Dependence_U,2023.2.3,Win32,30.030030030027405,,,,,,794.0927999999998,186.0,2.0,794.093,186.0,,,,798.0799999999999,798.5552999999998,797.5701,798.0799999999999,795.0968999999999,797.5698999999998,798.5553999999998,799.0675,799.0676000000001,801.4445,1930.0,801.4446,5.0,801.4621999999997,2.0,12.0,72.0,3.0,1.0,1.4,0.3,Time
,,S43,1,女,20,anonymized,Serial_Dependence_U,2023.2.3,Win32,30.030030030027405,,,,,,801.4626999999997,286.0,2.0,801.463,286.0,,,,805.6618999999998,806.1607999999998,805.1571999999996,805.6618999999998,802.4728999999999,805.1571999999996,806.161,806.6441999999997,806.6442999999998,809.178,1761.0,809.1791999999997,4.0,809.1961000000001,2.0,13.0,73.0,24.0,1.0,1.6,0.3,Time
,,S43,1,女,20,anonymized,Serial_Dependence_U,2023.2.3,Win32,30.030030030027405,,,,,,809.1963999999999,103.0,2.0,809.1966000000001,103.0,,,,812.9946000000001,813.5113999999999,812.4626999999997,812.9943999999999,810.1891,812.4626000000001,813.5113999999999,813.9953999999999,813.9953999999999,816.819,2358.0,816.8191999999997,5.0,816.8382999999998,2.0,14.0,74.0,22.0,1.0,1.2,0.3,Time
,,S43,1,女,20,anonymized,Serial_Dependence_U,2023.2.3,Win32,30.030030030027405,,,,,,816.8386999999997,230.0,2.0,816.8388999999999,230.0,,,,821.0638999999999,821.5672999999998,820.5409999999999,821.0637999999998,817.8582999999998,820.5408999999999,821.5672999999998,822.0586000000001,822.059,824.7391999999996,2337.0,824.7411999999997,5.0,824.756,2.0,15.0,75.0,4.0,1.0,1.6,0.3,Time
,,S43,1,女,20,anonymized,Serial_Dependence_U,2023.2.3,Win32,30.030030030027405,,,,,,824.7562999999998,94.0,2.0,824.7565,94.0,,,,828.7267999999998,829.2206000000001,828.2073999999999,828.7267999999998,825.7716999999997,828.2073999999999,829.2206000000001,829.6966000000001,829.6966999999997,832.4644999999999,2239.0,832.4646999999997,5.0,832.4817999999998,2.0,16.0,76.0,28.0,1.0,1.4,0.7,Time
,,S43,1,女,20,anonymized,Serial_Dependence_U,2023.2.3,Win32,30.030030030027405,,,,,,832.4831999999997,81.0,2.0,832.4834999999999,81.0,,,,835.8261000000001,836.3321000000001,835.3086000000001,835.8252999999997,833.4756000000001,835.3086000000001,836.3321000000001,836.8266999999997,836.8267999999998,839.4151,2127.0,839.4171000000001,5.0,839.437,2.0,17.0,77.0,25.0,1.0,0.8,0.7,Time
,,S43,1,女,20,anonymized,Serial_Dependence_U,2023.2.3,Win32,30.030030030027405,,,,,,839.4373999999999,284.0,2.0,839.4376000000001,284.0,,,,843.1998999999998,843.6941999999997,842.6868999999999,843.1997999999998,840.4493999999999,842.6866999999997,843.6942999999998,844.2041999999997,844.2043999999999,846.3693999999999,1788.0,846.3696999999997,5.0,846.3901000000001,2.0,18.0,78.0,27.0,1.0,1.2,0.7,Time
,,S43,1,女,20,anonymized,Serial_Dependence_U,2023.2.3,Win32,30.030030030027405,,,,,,846.3903999999999,177.0,2.0,846.3905,177.0,,,,850.1808999999998,850.675,849.6761999999997,850.1807999999997,847.4202999999998,849.6759999999999,850.6751,851.1627999999998,851.1628999999999,855.5866000000001,4340.0,855.5883999999999,5.0,855.6047999999998,2.0,19.0,79.0,17.0,1.0,1.2,0.7,Time
,,S43,1,女,20,anonymized,Serial_Dependence_U,2023.2.3,Win32,30.030030030027405,,,,,,855.6051999999997,26.0,2.0,855.6053999999999,26.0,,,,859.0326999999996,859.5168999999999,858.5095,859.0325,856.615,858.5093999999999,859.5168999999999,860.0142999999998,860.0142999999998,860.9588999999999,196.0,860.9591,1.0,860.9783999999999,2.0,20.0,80.0,20.0,1.0,0.8,0.3,Time
,,S43,1,女,20,anonymized,Serial_Dependence_U,2023.2.3,Win32,30.030030030027405,,,,,,860.9791999999997,144.0,2.0,860.9794999999999,144.0,,,,864.9996999999997,865.4865,864.4691,864.9996000000001,862.0133999999999,864.4689999999999,865.4866000000001,866.0053999999999,866.0055,868.1561999999997,1692.0,868.1581999999997,4.0,868.1763999999998,2.0,21.0,81.0,18.0,1.0,1.4,0.7,Time
,,S43,1,女,20,anonymized,Serial_Dependence_U,2023.2.3,Win32,30.030030030027405,,,,,,868.1766999999996,253.0,2.0,868.1768999999999,253.0,,,,871.707,872.2041999999997,871.1926999999997,871.707,869.1556,871.1926000000001,872.2041999999997,872.6903999999998,872.6904999999999,875.2468999999999,2049.0,875.2471,5.0,875.2641000000001,2.0,22.0,82.0,26.0,1.0,1.0,0.7,Time
,,S43,1,女,20,anonymized,Serial_Dependence_U,2023.2.3,Win32,30.030030030027405,,,,,,875.2643999999999,232.0,2.0,875.2646000000001,232.0,,,,879.2637999999998,879.7425,878.7556999999997,879.2637999999998,876.2896000000001,878.7556000000001,879.7425,880.2271000000001,880.2271000000001,882.7308999999999,2313.0,882.732,5.0,882.7521999999997,2.0,23.0,83.0,23.0,1.0,1.4,0.3,Time
,,S43,1,女,20,anonymized,Serial_Dependence_U,2023.2.3,Win32,30.030030030027405,,,,,,882.7524999999999,157.0,2.0,882.7526999999997,157.0,,,,886.5588999999999,887.0488999999999,886.0464999999999,886.5587999999998,883.7785,886.0463999999998,887.0496,887.5402999999998,887.5403999999999,890.2361000000001,2620.0,890.2362999999998,5.0,890.2542999999998,2.0,24.0,84.0,12.0,1.0,1.2,0.3,Time
,,S43,1,女,20,anonymized,Serial_Dependence_U,2023.2.3,Win32,30.030030030027405,,,,,,890.2546000000001,194.0,2.0,890.2547999999998,194.0,,,,894.4531000000001,894.9655,893.9316999999996,894.453,891.2669999999999,893.9316999999996,894.9655,895.4491,895.4491999999997,898.3572999999998,2284.0,898.3596999999997,5.0,898.3778999999998,2.0,25.0,85.0,14.0,1.0,1.6,0.3,Time
,,S43,1,女,20,anonymized,Serial_Dependence_U,2023.2.3,Win32,30.030030030027405,,,,,,898.3781999999997,350.0,2.0,898.3784999999999,350.0,,,,902.5313999999998,903.0195,902.02,902.5313999999998,899.3711000000001,902.0199,903.0195,903.5111999999996,903.5112999999998,907.261,3099.0,907.2611,5.0,907.2786999999996,2.0,26.0,86.0,29.0,1.0,1.6,0.7,Time
,,S43,1,女,20,anonymized,Serial_Dependence_U,2023.2.3,Win32,30.030030030027405,,,,,,907.279,75.0,2.0,907.2791999999996,75.0,,,,910.8746,911.3726999999996,910.3441999999995,910.8746,908.2767999999998,910.3441999999995,911.3726999999996,911.8511,911.8511,914.4502999999996,2250.0,914.4505,5.0,914.4709,2.0,27.0,87.0,6.0,1.0,1.0,0.7,Time
,,S43,1,女,20,anonymized,Serial_Dependence_U,2023.2.3,Win32,30.030030030027405,,,,,,914.4715,197.0,2.0,914.4716999999996,197.0,,,,918.3124,918.8108999999998,917.7932999999998,918.3122999999998,915.5071,917.7931999999996,918.8108999999998,919.3006999999996,919.3008999999998,922.0975,2763.0,922.0987999999998,5.0,922.1152999999998,2.0,28.0,88.0,2.0,1.0,1.2,0.3,Time
,,S43,1,女,20,anonymized,Serial_Dependence_U,2023.2.3,Win32,30.030030030027405,,,,,,922.1155,242.0,2.0,922.1156999999996,242.0,,,,925.7221999999996,926.236,925.2064,925.7216999999996,923.1372999999998,925.2059,926.236,926.7467999999998,926.7469,929.6997999999998,2696.0,929.7001999999997,5.0,929.7202999999998,2.0,29.0,89.0,21.0,1.0,1.0,0.3,Time
,,S43,1,女,20,anonymized,Serial_Dependence_U,2023.2.3,Win32,30.030030030027405,,,,,,929.7206999999996,340.0,3.0,934.1851,340.0,s,4.42029999999977,,937.7666,938.2586999999996,937.2642999999998,937.7665,935.2085,937.2641999999996,938.2587999999998,938.7516999999996,938.7517999999998,942.5935,3539.0,942.5961999999996,5.0,942.6117999999998,3.0,0.0,90.0,26.0,1.0,1.0,0.7,Time
,,S43,1,女,20,anonymized,Serial_Dependence_U,2023.2.3,Win32,30.030030030027405,,,,,,942.6121,326.0,3.0,942.6154,326.0,,,,946.7691,947.2641999999996,946.2655,946.769,943.6206999999996,946.2654,947.2645,947.7747999999998,947.7751999999996,951.4809,3323.0,951.4811,5.0,951.4991,3.0,1.0,91.0,9.0,1.0,1.6,0.7,Time
,,S43,1,女,20,anonymized,Serial_Dependence_U,2023.2.3,Win32,30.030030030027405,,,,,,951.4994,343.0,3.0,951.4996,343.0,,,,955.5166999999996,956.0156999999996,955.0042999999998,955.5166,952.5259,955.0041999999996,956.016,956.499,956.4996,960.4302999999998,3750.0,960.4315,5.0,960.4491999999996,3.0,2.0,92.0,3.0,1.0,1.4,0.3,Time
,,S43,1,女,20,anonymized,Serial_Dependence_U,2023.2.3,Win32,30.030030030027405,,,,,,960.4495,322.0,3.0,960.4496,322.0,,,,964.2461999999996,964.7459,963.7164,964.2461999999996,961.4741999999997,963.7162999999998,964.746,965.2536,965.2536999999996,969.08,3505.0,969.0801999999996,5.0,969.1006999999996,3.0,3.0,93.0,27.0,1.0,1.2,0.7,Time
,,S43,1,女,20,anonymized,Serial_Dependence_U,2023.2.3,Win32,30.030030030027405,,,,,,969.1011999999996,250.0,3.0,969.1014,250.0,,,,973.2875,973.7997999999998,972.7732999999998,973.2875,970.1181999999995,972.7731999999996,973.7997999999998,974.2896,974.2896999999996,978.081,3426.0,978.0811999999996,5.0,978.1004,3.0,4.0,94.0,19.0,1.0,1.6,0.7,Time
,,S43,1,女,20,anonymized,Serial_Dependence_U,2023.2.3,Win32,30.030030030027405,,,,,,978.1006999999996,120.0,3.0,978.1009,120.0,,,,981.5219999999998,982.0294999999998,981.0057999999996,981.5218999999998,979.1189,981.0056999999996,982.0296,982.5288999999996,982.5291,986.5661999999996,3612.0,986.5663999999998,5.0,986.5857999999996,3.0,5.0,95.0,0.0,1.0,0.8,0.3,Time
,,S43,1,女,20,anonymized,Serial_Dependence_U,2023.2.3,Win32,30.030030030027405,,,,,,986.5862999999996,39.0,3.0,986.5866,39.0,,,,990.1749999999998,990.6734999999998,989.6606,990.1749,987.5771999999996,989.6601999999996,990.6736,991.1743999999998,991.1745,994.7046999999995,3119.0,994.7048999999998,5.0,994.7227999999996,3.0,6.0,96.0,1.0,1.0,1.0,0.3,Time
,,S43,1,女,20,anonymized,Serial_Dependence_U,2023.2.3,Win32,30.030030030027405,,,,,,994.7231999999996,348.0,3.0,994.7233999999996,348.0,,,,998.5084999999998,998.9843999999996,997.9949999999998,998.5083999999998,995.7322999999998,997.9948999999998,998.9846,999.461,999.461,1003.0546999999996,3447.0,1003.0556999999995,5.0,1003.0715,3.0,7.0,97.0,12.0,1.0,1.2,0.3,Time
,,S43,1,女,20,anonymized,Serial_Dependence_U,2023.2.3,Win32,30.030030030027405,,,,,,1003.0717999999996,36.0,3.0,1003.0719999999998,36.0,,,,1007.0617999999996,1007.5381,1006.5417999999996,1007.0617999999996,1004.0648999999996,1006.5416,1007.5382999999996,1008.0235,1008.0235,1011.5708999999998,3435.0,1011.5709999999998,5.0,1011.5879,3.0,8.0,98.0,23.0,1.0,1.4,0.3,Time
,,S43,1,女,20,anonymized,Serial_Dependence_U,2023.2.3,Win32,30.030030030027405,,,,,,1011.5881999999996,121.0,3.0,1011.5883999999998,121.0,,,,1015.1807999999996,1015.6602999999996,1014.6613999999998,1015.1806999999995,1012.6091,1014.6612999999996,1015.6606,1016.1405,1016.1406999999996,1019.4346,3018.0,1019.4346999999996,5.0,1019.4537999999995,3.0,9.0,99.0,16.0,1.0,1.0,0.7,Time
,,S43,1,女,20,anonymized,Serial_Dependence_U,2023.2.3,Win32,30.030030030027405,,,,,,1019.4541999999996,249.0,3.0,1019.4542999999998,249.0,,,,1023.0632999999996,1023.5611999999996,1022.5618999999998,1023.0632999999996,1020.4908999999996,1022.5617999999996,1023.5611999999996,1024.047,1024.0471,1027.2301,3118.0,1027.232,5.0,1027.2516999999998,3.0,10.0,100.0,21.0,1.0,1.0,0.3,Time
,,S43,1,女,20,anonymized,Serial_Dependence_U,2023.2.3,Win32,30.030030030027405,,,,,,1027.252,236.0,3.0,1027.2521999999997,236.0,,,,1031.0536,1031.5441999999996,1030.5323,1031.0535,1028.2541,1030.5321999999996,1031.5441999999996,1032.0511999999997,1032.0511999999997,1035.1834,2636.0,1035.1838999999998,5.0,1035.2063999999998,3.0,11.0,101.0,22.0,1.0,1.2,0.3,Time
,,S43,1,女,20,anonymized,Serial_Dependence_U,2023.2.3,Win32,30.030030030027405,,,,,,1035.2067999999997,302.0,3.0,1035.2069,302.0,,,,1038.6136,1039.1136,1038.0831999999996,1038.6136,1036.2259,1038.0831,1039.1136999999997,1039.612,1039.6121,1042.848,3077.0,1042.8483,5.0,1042.8652999999997,3.0,12.0,102.0,5.0,1.0,0.8,0.7,Time
,,S43,1,女,20,anonymized,Serial_Dependence_U,2023.2.3,Win32,30.030030030027405,,,,,,1042.8656999999996,169.0,3.0,1042.8657999999998,169.0,,,,1047.0968999999998,1047.589,1046.572,1047.0967999999998,1043.8816000000002,1046.5719,1047.5895,1048.0997999999995,1048.0997999999995,1051.5137999999995,3336.0,1051.514,5.0,1051.5303,3.0,13.0,103.0,24.0,1.0,1.6,0.3,Time
,,S43,1,女,20,anonymized,Serial_Dependence_U,2023.2.3,Win32,30.030030030027405,,,,,,1051.5307999999998,234.0,3.0,1051.531,234.0,,,,1055.1407999999997,1055.6357999999998,1054.6092999999998,1055.1406999999997,1052.5285,1054.6089,1055.6358999999998,1056.1125,1056.1125,1059.6821,3302.0,1059.6825,5.0,1059.702,3.0,14.0,104.0,11.0,1.0,1.0,0.3,Time
,,S43,1,女,20,anonymized,Serial_Dependence_U,2023.2.3,Win32,30.030030030027405,,,,,,1059.7024,149.0,3.0,1059.7026,149.0,,,,1063.4761999999996,1063.9743999999998,1062.9472999999998,1063.4761,1060.6857999999995,1062.9471999999996,1063.9743999999998,1064.4796999999996,1064.4806999999996,1067.8876,3070.0,1067.8911999999998,5.0,1067.9082999999998,3.0,15.0,105.0,17.0,1.0,1.2,0.7,Time
,,S43,1,女,20,anonymized,Serial_Dependence_U,2023.2.3,Win32,30.030030030027405,,,,,,1067.9086,286.0,3.0,1067.9087999999997,286.0,,,,1072.0726,1072.5621999999996,1071.5571,1072.0725,1068.9099,1071.557,1072.5623999999998,1073.0611,1073.0611,1076.4031999999995,3182.0,1076.4037999999998,5.0,1076.4202999999998,3.0,16.0,106.0,29.0,1.0,1.6,0.7,Time
,,S43,1,女,20,anonymized,Serial_Dependence_U,2023.2.3,Win32,30.030030030027405,,,,,,1076.4206,261.0,3.0,1076.4208999999998,261.0,,,,1080.3771999999997,1080.8716999999997,1079.8671999999997,1080.377,1077.4281999999996,1079.8671000000002,1080.8722999999998,1081.3652999999997,1081.3654,1085.0,3281.0,1085.0001999999995,5.0,1085.0186,3.0,17.0,107.0,18.0,1.0,1.4,0.7,Time
,,S43,1,女,20,anonymized,Serial_Dependence_U,2023.2.3,Win32,30.030030030027405,,,,,,1085.019,235.0,3.0,1085.0191999999995,235.0,,,,1088.6265,1089.1174,1088.0921999999996,1088.6254,1086.0387999999998,1088.0921,1089.1175,1089.6116,1089.6119,1092.749,3012.0,1092.7492999999995,5.0,1092.7686,3.0,18.0,108.0,6.0,1.0,1.0,0.7,Time
,,S43,1,女,20,anonymized,Serial_Dependence_U,2023.2.3,Win32,30.030030030027405,,,,,,1092.7691,44.0,3.0,1092.7694,44.0,,,,1096.1811999999998,1096.6606000000002,1095.6611999999998,1096.1811,1093.777,1095.661,1096.6608,1097.1466,1097.1467999999998,1100.1436999999996,2908.0,1100.1438999999998,5.0,1100.1618,3.0,19.0,109.0,10.0,1.0,0.8,0.3,Time
,,S43,1,女,20,anonymized,Serial_Dependence_U,2023.2.3,Win32,30.030030030027405,,,,,,1100.1621,33.0,3.0,1100.1621999999998,33.0,,,,1103.5445,1104.0345,1103.0406999999998,1103.5443999999998,1101.1599,1103.0406,1104.0345,1104.5181999999998,1104.5186,1107.9966999999997,3236.0,1107.9969,5.0,1108.0151999999996,3.0,20.0,110.0,20.0,1.0,0.8,0.3,Time
,,S43,1,女,20,anonymized,Serial_Dependence_U,2023.2.3,Win32,30.030030030027405,,,,,,1108.0156000000002,90.0,3.0,1108.0157999999997,90.0,,,,1111.8021,1112.2788999999998,1111.2719,1111.802,1109.0171,1111.2719,1112.2788999999998,1112.7698999999998,1112.77,1115.9589,3142.0,1115.9591,5.0,1115.9797999999998,3.0,21.0,111.0,7.0,1.0,1.2,0.7,Time
,,S43,1,女,20,anonymized,Serial_Dependence_U,2023.2.3,Win32,30.030030030027405,,,,,,1115.9802999999995,77.0,3.0,1115.9804,77.0,,,,1119.3737999999998,1119.8538999999998,1118.8519,1119.3736999999996,1116.9955,1118.8519,1119.8541,1120.336,1120.3361999999995,1123.5671999999995,2951.0,1123.5691000000002,5.0,1123.5839,3.0,22.0,112.0,25.0,1.0,0.8,0.7,Time
,,S43,1,女,20,anonymized,Serial_Dependence_U,2023.2.3,Win32,30.030030030027405,,,,,,1123.5841999999998,270.0,3.0,1123.5844,270.0,,,,1127.8112999999998,1128.2913,1127.2986999999996,1127.8111999999996,1124.6152999999997,1127.2986,1128.2917999999995,1128.7613,1128.7613,1132.0478999999998,3176.0,1132.0481,5.0,1132.0658999999998,3.0,23.0,113.0,4.0,1.0,1.6,0.3,Time
,,S43,1,女,20,anonymized,Serial_Dependence_U,2023.2.3,Win32,30.030030030027405,,,,,,1132.0662999999995,72.0,3.0,1132.0666999999996,72.0,,,,1136.2668,1136.7617999999998,1135.7639,1136.2666999999997,1133.0881999999997,1135.7639,1136.7626999999998,1137.2411999999997,1137.2411999999997,1140.68,2957.0,1140.6801,5.0,1140.6981,3.0,24.0,114.0,14.0,1.0,1.6,0.3,Time
,,S43,1,女,20,anonymized,Serial_Dependence_U,2023.2.3,Win32,30.030030030027405,,,,,,1140.6983999999998,234.0,3.0,1140.6986999999997,234.0,,,,1144.488,1144.9843999999998,1143.9725,1144.4879,1141.6765,1143.9721,1144.9845,1145.4679,1145.468,1149.1511999999998,3558.0,1149.1524,5.0,1149.1682999999998,3.0,25.0,115.0,2.0,1.0,1.2,0.3,Time
,,S43,1,女,20,anonymized,Serial_Dependence_U,2023.2.3,Win32,30.030030030027405,,,,,,1149.1686,154.0,3.0,1149.1686999999995,154.0,,,,1152.5594,1153.069,1152.0366999999997,1152.5594,1150.1782999999998,1152.0366,1153.0695,1153.5661999999998,1153.5661999999998,1157.071,3153.0,1157.0723999999998,5.0,1157.0893,3.0,26.0,116.0,15.0,1.0,0.8,0.7,Time
,,S43,1,女,20,anonymized,Serial_Dependence_U,2023.2.3,Win32,30.030030030027405,,,,,,1157.0896999999998,235.0,3.0,1157.0899,235.0,,,,1161.0776999999996,1161.5745,1160.5561,1161.0775,1158.0932999999998,1160.556,1161.5746,1162.0736000000002,1162.0738,1165.6676,3231.0,1165.6676999999995,5.0,1165.6877999999997,3.0,27.0,117.0,28.0,1.0,1.4,0.7,Time
,,S43,1,女,20,anonymized,Serial_Dependence_U,2023.2.3,Win32,30.030030030027405,,,,,,1165.6881,239.0,3.0,1165.6883999999998,239.0,,,,1169.6526,1170.1444,1169.1391999999996,1169.6524,1166.6886,1169.1385,1170.1451999999997,1170.632,1170.6321999999998,1174.3876999999998,3027.0,1174.3877999999995,5.0,1174.4086,3.0,28.0,118.0,8.0,1.0,1.4,0.7,Time
,,S43,1,女,20,anonymized,Serial_Dependence_U,2023.2.3,Win32,30.030030030027405,,,,,,1174.4089,61.0,3.0,1174.4091,61.0,,,,1178.4279,1178.9091,1177.9261999999997,1178.4277999999997,1175.4367999999995,1177.9261999999997,1178.9091,1179.4086999999995,1179.4089,1182.7995,3356.0,1182.7999,5.0,1182.8186,3.0,29.0,119.0,13.0,1.0,1.4,0.3,Time
,,S43,1,女,20,anonymized,Serial_Dependence_U,2023.2.3,Win32,30.030030030027405,,,,,,1182.8191999999997,351.0,4.0,1269.7651999999996,351.0,s,86.89620000000014,,1273.3565,1273.8274,1272.8282999999997,1273.3557999999998,1270.7843999999998,1272.8281999999997,1273.8276999999996,1274.3245,1274.3246,1277.5036999999998,3104.0,1277.504,5.0,1277.5233999999998,4.0,0.0,120.0,26.0,1.0,1.0,0.7,Time
,,S43,1,女,20,anonymized,Serial_Dependence_U,2023.2.3,Win32,30.030030030027405,,,,,,1277.5237999999997,36.0,4.0,1277.5256999999997,36.0,,,,1281.152,1281.6407999999997,1280.6382999999998,1281.152,1278.5558,1280.6381999999996,1281.6414,1282.1271000000002,1282.1273,1285.3961999999997,3234.0,1285.3989,5.0,1285.4175,4.0,1.0,121.0,21.0,1.0,1.0,0.3,Time
,,S43,1,女,20,anonymized,Serial_Dependence_U,2023.2.3,Win32,30.030030030027405,,,,,,1285.418,341.0,4.0,1285.4181999999996,341.0,,,,1288.7588999999998,1289.2723999999998,1288.2481,1288.7588999999998,1286.4026999999996,1288.2478999999998,1289.2723999999998,1289.7626999999998,1289.763,1293.1531999999995,3278.0,1293.155,5.0,1293.1754,4.0,2.0,122.0,25.0,1.0,0.8,0.7,Time
,,S43,1,女,20,anonymized,Serial_Dependence_U,2023.2.3,Win32,30.030030030027405,,,,,,1293.1759,57.0,4.0,1293.1761,57.0,,,,1296.9826999999998,1297.4795,1296.4553,1296.9826999999998,1294.1934,1296.4551999999996,1297.4796,1297.9643,1297.965,1301.1781,3102.0,1301.1782999999998,5.0,1301.198,4.0,3.0,123.0,17.0,1.0,1.2,0.7,Time
,,S43,1,女,20,anonymized,Serial_Dependence_U,2023.2.3,Win32,30.030030030027405,,,,,,1301.1983999999998,289.0,4.0,1301.1985,289.0,,,,1304.7746999999997,1305.2652999999998,1304.2611000000002,1304.7746,1302.1861,1304.261,1305.2653999999998,1305.7798999999998,1305.7801000000002,1308.9543,2679.0,1308.9547999999998,5.0,1308.9771999999996,4.0,4.0,124.0,1.0,1.0,1.0,0.3,Time
,,S43,1,女,20,anonymized,Serial_Dependence_U,2023.2.3,Win32,30.030030030027405,,,,,,1308.9775,9.0,4.0,1308.9776999999997,9.0,,,,1312.7752999999998,1313.2611000000002,1312.2543999999998,1312.7751999999996,1309.9992999999995,1312.2541999999996,1313.2613,1313.7376999999997,1313.7378,1317.0474,3096.0,1317.0477999999998,5.0,1317.0667999999998,4.0,5.0,125.0,7.0,1.0,1.2,0.7,Time
,,S43,1,女,20,anonymized,Serial_Dependence_U,2023.2.3,Win32,30.030030030027405,,,,,,1317.0676999999996,87.0,4.0,1317.0782999999997,87.0,,,,1321.0866,1321.6022999999998,1320.5676,1321.0865,1318.0844,1320.5675,1321.6022999999998,1322.0891,1322.0891,1325.2516,2884.0,1325.2533,5.0,1325.2726999999998,4.0,6.0,126.0,13.0,1.0,1.4,0.3,Time
,,S43,1,女,20,anonymized,Serial_Dependence_U,2023.2.3,Win32,30.030030030027405,,,,,,1325.2731999999996,359.0,4.0,1325.2733999999998,359.0,,,,1329.4945,1329.9816999999996,1328.9655,1329.4943999999998,1326.273,1328.9653999999998,1329.9817999999998,1330.4727999999998,1330.4729,1334.4417999999998,3879.0,1334.4421,5.0,1334.4645,4.0,7.0,127.0,24.0,1.0,1.6,0.3,Time
,,S43,1,女,20,anonymized,Serial_Dependence_U,2023.2.3,Win32,30.030030030027405,,,,,,1334.465,324.0,4.0,1334.4651999999996,324.0,,,,1338.2194,1338.7121,1337.7146999999998,1338.2192999999995,1335.4767999999997,1337.7146,1338.7122999999997,1339.2159,1339.216,1342.5316999999998,2900.0,1342.5326999999995,5.0,1342.5516,4.0,8.0,128.0,27.0,1.0,1.2,0.7,Time
,,S43,1,女,20,anonymized,Serial_Dependence_U,2023.2.3,Win32,30.030030030027405,,,,,,1342.552,24.0,4.0,1342.5522999999998,24.0,,,,1346.7275,1347.2161,1346.2161999999996,1346.7274,1343.5636999999997,1346.2161,1347.2161999999996,1347.7222999999997,1347.7222999999997,1351.3121999999996,3317.0,1351.3125,5.0,1351.332,4.0,9.0,129.0,9.0,1.0,1.6,0.7,Time
,,S43,1,女,20,anonymized,Serial_Dependence_U,2023.2.3,Win32,30.030030030027405,,,,,,1351.3323999999998,331.0,4.0,1351.3326999999997,331.0,,,,1354.941,1355.428,1354.429,1354.941,1352.3466,1354.4289,1355.4281,1355.9275,1355.9275,1359.4316999999996,3208.0,1359.4328999999998,5.0,1359.4501,4.0,10.0,130.0,11.0,1.0,1.0,0.3,Time
,,S43,1,女,20,anonymized,Serial_Dependence_U,2023.2.3,Win32,30.030030030027405,,,,,,1359.4504,140.0,4.0,1359.4506,140.0,,,,1363.2674,1363.7619,1362.7401999999995,1363.2672999999998,1360.4722999999997,1362.7396999999996,1363.7626,1364.2545,1364.2546,1367.8669,3480.0,1367.868,5.0,1367.8869,4.0,11.0,131.0,22.0,1.0,1.2,0.3,Time
,,S43,1,女,20,anonymized,Serial_Dependence_U,2023.2.3,Win32,30.030030030027405,,,,,,1367.8873,306.0,4.0,1367.8876,306.0,,,,1371.7175,1372.2139,1371.2051,1371.7173999999998,1368.9276999999995,1371.2049,1372.214,1372.7036,1372.7039,1376.5712999999998,3594.0,1376.574,5.0,1376.5889,4.0,12.0,132.0,2.0,1.0,1.2,0.3,Time
,,S43,1,女,20,anonymized,Serial_Dependence_U,2023.2.3,Win32,30.030030030027405,,,,,,1376.5899,224.0,4.0,1376.5901,224.0,,,,1379.9666,1380.4716,1379.4563999999998,1379.9665,1377.5717999999997,1379.4553,1380.4716999999996,1380.9617999999998,1380.9621,1384.3241,2860.0,1384.325,5.0,1384.3422999999998,4.0,13.0,133.0,0.0,1.0,0.8,0.3,Time
,,S43,1,女,20,anonymized,Serial_Dependence_U,2023.2.3,Win32,30.030030030027405,,,,,,1384.3426999999997,77.0,4.0,1384.3429,77.0,,,,1387.9136,1388.4042999999997,1387.4016,1387.9135,1385.3506999999995,1387.4015,1388.4044,1388.8973999999998,1388.8976999999998,1392.3915,3167.0,1392.3936,5.0,1392.4125,4.0,14.0,134.0,16.0,1.0,1.0,0.7,Time
,,S43,1,女,20,anonymized,Serial_Dependence_U,2023.2.3,Win32,30.030030030027405,,,,,,1392.4128999999998,320.0,4.0,1392.4131,320.0,,,,1396.2084,1396.7026999999996,1395.6908,1396.2082999999998,1393.4041,1395.6906999999997,1396.7027999999998,1397.1783999999998,1397.1783999999998,1400.4563999999998,3202.0,1400.4595,5.0,1400.4771,4.0,15.0,135.0,12.0,1.0,1.2,0.3,Time
,,S43,1,女,20,anonymized,Serial_Dependence_U,2023.2.3,Win32,30.030030030027405,,,,,,1400.4775,10.0,4.0,1400.4776999999997,10.0,,,,1404.4986,1404.9994,1403.986,1404.4984,1401.4976,1403.9859,1404.9995,1405.4921000000002,1405.4925,1408.9486000000002,3035.0,1408.9491999999998,5.0,1408.9652999999998,4.0,16.0,136.0,23.0,1.0,1.4,0.3,Time
,,S43,1,女,20,anonymized,Serial_Dependence_U,2023.2.3,Win32,30.030030030027405,,,,,,1408.9656999999995,336.0,4.0,1408.966,336.0,,,,1413.1036,1413.582,1412.6026999999997,1413.1035,1409.97,1412.6024,1413.5821999999996,1414.0601,1414.0601,1417.2591999999995,3139.0,1417.2614,5.0,1417.2803,4.0,17.0,137.0,29.0,1.0,1.6,0.7,Time
,,S43,1,女,20,anonymized,Serial_Dependence_U,2023.2.3,Win32,30.030030030027405,,,,,,1417.2806,50.0,4.0,1417.2809,50.0,,,,1420.7231999999997,1421.23,1420.1991999999998,1420.7231000000002,1418.3184,1420.1991999999998,1421.23,1421.7067999999997,1421.7067999999997,1425.4201,3269.0,1425.4214,5.0,1425.4394,4.0,18.0,138.0,10.0,1.0,0.8,0.3,Time
,,S43,1,女,20,anonymized,Serial_Dependence_U,2023.2.3,Win32,30.030030030027405,,,,,,1425.4398,352.0,4.0,1425.44,352.0,,,,1428.8468999999998,1429.3348,1428.3365,1428.8468999999998,1426.4451999999997,1428.3364,1429.3348999999998,1429.8296,1429.8296,1433.6531999999995,3335.0,1433.6534,5.0,1433.6721,4.0,19.0,139.0,20.0,1.0,0.8,0.3,Time
,,S43,1,女,20,anonymized,Serial_Dependence_U,2023.2.3,Win32,30.030030030027405,,,,,,1433.6726,191.0,4.0,1433.6727999999998,191.0,,,,1437.0722999999998,1437.5874,1436.5556999999997,1437.0721999999996,1434.6957999999995,1436.5555,1437.5875,1438.1034,1438.1035,1441.8807999999997,3384.0,1441.8826,5.0,1441.8963,4.0,20.0,140.0,15.0,1.0,0.8,0.7,Time
,,S43,1,女,20,anonymized,Serial_Dependence_U,2023.2.3,Win32,30.030030030027405,,,,,,1441.8966,194.0,4.0,1441.8967999999998,194.0,,,,1445.8989,1446.3811999999996,1445.3646,1445.8986999999995,1442.9092999999998,1445.3645,1446.3812999999998,1446.8631999999998,1446.8632999999998,1450.3301999999996,3061.0,1450.3303999999998,5.0,1450.348,4.0,21.0,141.0,28.0,1.0,1.4,0.7,Time
,,S43,1,女,20,anonymized,Serial_Dependence_U,2023.2.3,Win32,30.030030030027405,,,,,,1450.3483,180.0,4.0,1450.3485,180.0,,,,1454.5658,1455.0677999999998,1454.0475,1454.5656999999997,1451.3641,1454.0474,1455.0681,1455.5337999999997,1455.5341,1459.535,3672.0,1459.5356000000002,5.0,1459.5591000000002,4.0,22.0,142.0,4.0,1.0,1.6,0.3,Time
,,S43,1,女,20,anonymized,Serial_Dependence_U,2023.2.3,Win32,30.030030030027405,,,,,,1459.5595,286.0,4.0,1459.5597999999998,286.0,,,,1463.7641,1464.2819,1463.2433,1463.764,1460.5612999999998,1463.2431999999997,1464.2819,1464.7817999999995,1464.7819,1469.009,3908.0,1469.009,5.0,1469.0266,4.0,23.0,143.0,14.0,1.0,1.6,0.3,Time
,,S43,1,女,20,anonymized,Serial_Dependence_U,2023.2.3,Win32,30.030030030027405,,,,,,1469.027,65.0,4.0,1469.0271999999998,65.0,,,,1473.1985,1473.6924,1472.6717999999998,1473.1983999999998,1470.0358,1472.6717999999998,1473.6925,1474.1771,1474.1775,1478.4426999999996,4065.0,1478.4436999999996,5.0,1478.4646,4.0,24.0,144.0,19.0,1.0,1.6,0.7,Time
,,S43,1,女,20,anonymized,Serial_Dependence_U,2023.2.3,Win32,30.030030030027405,,,,,,1478.4651999999996,240.0,4.0,1478.4662999999998,240.0,,,,1481.8556,1482.3416,1481.3272999999997,1481.8555,1479.4861999999996,1481.3271999999995,1482.3416,1482.8306,1482.8306,1486.281,3066.0,1486.2811999999997,5.0,1486.3041999999996,4.0,25.0,145.0,5.0,1.0,0.8,0.7,Time
,,S43,1,女,20,anonymized,Serial_Dependence_U,2023.2.3,Win32,30.030030030027405,,,,,,1486.3046000000002,352.0,4.0,1486.3046999999997,352.0,,,,1489.887,1490.3886,1489.3641,1489.8869,1487.3231,1489.3641,1490.3886999999995,1490.8787999999995,1490.8787999999995,1494.3889,3253.0,1494.3902999999998,5.0,1494.407,4.0,26.0,146.0,6.0,1.0,1.0,0.7,Time
,,S43,1,女,20,anonymized,Serial_Dependence_U,2023.2.3,Win32,30.030030030027405,,,,,,1494.4075,229.0,4.0,1494.4076999999995,229.0,,,,1498.3935,1498.8692999999998,1497.8846999999996,1498.3935,1495.4136,1497.8845,1498.8693999999998,1499.3475,1499.3475,1501.8435,2112.0,1501.8436999999997,5.0,1501.8617999999997,4.0,27.0,147.0,8.0,1.0,1.4,0.7,Time
,,S43,1,女,20,anonymized,Serial_Dependence_U,2023.2.3,Win32,30.030030030027405,,,,,,1501.8621999999998,251.0,4.0,1501.8624,251.0,,,,1505.832,1506.3093,1505.3123999999998,1505.8317999999997,1502.8638999999998,1505.3122999999998,1506.31,1506.8172999999997,1506.8172999999997,1510.8097999999998,3620.0,1510.8099,5.0,1510.8281000000002,4.0,28.0,148.0,18.0,1.0,1.4,0.7,Time
,,S43,1,女,20,anonymized,Serial_Dependence_U,2023.2.3,Win32,30.030030030027405,,,,,,1510.8284,64.0,4.0,1510.8286,64.0,,,,1514.8271,1515.329,1514.3044,1514.827,1511.8232999999998,1514.3044,1515.3291000000002,1515.8154,1515.8155,1519.7988999999998,3589.0,1519.7994,5.0,1519.8151999999998,4.0,29.0,149.0,3.0,1.0,1.4,0.3,Time
,,S43,1,女,20,anonymized,Serial_Dependence_U,2023.2.3,Win32,30.030030030027405,,,,,,1519.8155,284.0,5.0,1684.2255,284.0,s,164.3635999999999,,1688.3997999999997,1688.8996999999997,1687.8886,1688.3996999999997,1685.2321000000002,1687.8885,1688.8997999999997,1689.3976,1689.3976999999998,1693.5051,3789.0,1693.5051,5.0,1693.5231999999996,5.0,0.0,150.0,9.0,1.0,1.6,0.7,Time
,,S43,1,女,20,anonymized,Serial_Dependence_U,2023.2.3,Win32,30.030030030027405,,,,,,1693.5235,191.0,5.0,1693.5249,191.0,,,,1697.7645,1698.2692999999997,1697.2357999999997,1697.7642999999998,1694.5432999999998,1697.2357999999997,1698.2692999999997,1698.7846999999997,1698.7846999999997,1702.9563999999998,3896.0,1702.9571,5.0,1702.9756999999995,5.0,1.0,151.0,4.0,1.0,1.6,0.3,Time
,,S43,1,女,20,anonymized,Serial_Dependence_U,2023.2.3,Win32,30.030030030027405,,,,,,1702.9765,161.0,5.0,1702.9771999999996,161.0,,,,1706.9471,1707.4295,1706.4237999999998,1706.9471,1703.99,1706.4237999999998,1707.4298,1707.9246,1707.9246,1711.9021,3821.0,1711.9022999999995,5.0,1711.9225,5.0,2.0,152.0,8.0,1.0,1.4,0.7,Time
,,S43,1,女,20,anonymized,Serial_Dependence_U,2023.2.3,Win32,30.030030030027405,,,,,,1711.9228999999998,337.0,5.0,1711.9231999999995,337.0,,,,1716.12,1716.6183,1715.5932999999998,1716.1199,1712.9385,1715.5931,1716.6183999999998,1717.1006,1717.1009,1721.2104,3749.0,1721.2116999999996,5.0,1721.2346999999995,5.0,3.0,153.0,29.0,1.0,1.6,0.7,Time
,,S43,1,女,20,anonymized,Serial_Dependence_U,2023.2.3,Win32,30.030030030027405,,,,,,1721.2351999999996,338.0,5.0,1721.2356,338.0,,,,1724.7964,1725.307,1724.279,1724.7964,1722.2468,1724.2788999999998,1725.3075,1725.7982999999997,1725.7984,1729.1267999999998,2925.0,1729.1271000000002,5.0,1729.1476,5.0,4.0,154.0,26.0,1.0,1.0,0.7,Time
,,S43,1,女,20,anonymized,Serial_Dependence_U,2023.2.3,Win32,30.030030030027405,,,,,,1729.148,258.0,5.0,1729.1481,258.0,,,,1733.321,1733.8211,1732.7939,1733.321,1730.1364,1732.7927999999995,1733.8211,1734.3285,1734.3285,1738.0371999999998,3364.0,1738.0377999999998,5.0,1738.0526999999995,5.0,5.0,155.0,19.0,1.0,1.6,0.7,Time
,,S43,1,女,20,anonymized,Serial_Dependence_U,2023.2.3,Win32,30.030030030027405,,,,,,1738.053,221.0,5.0,1738.0532999999998,221.0,,,,1741.4263999999998,1741.9365,1740.9089,1741.4263,1739.0693,1740.9086999999995,1741.9365,1742.4479,1742.4482999999998,1745.9631000000002,3122.0,1745.9635,5.0,1745.9842999999998,5.0,6.0,156.0,25.0,1.0,0.8,0.7,Time
,,S43,1,女,20,anonymized,Serial_Dependence_U,2023.2.3,Win32,30.030030030027405,,,,,,1745.9847999999995,128.0,5.0,1745.985,128.0,,,,1749.5807999999995,1750.0581999999995,1749.0554,1749.5806999999998,1747.0113,1749.0552999999998,1750.0581999999995,1750.5686,1750.569,1754.1799,3206.0,1754.1801,5.0,1754.1981999999996,5.0,7.0,157.0,6.0,1.0,1.0,0.7,Time
,,S43,1,女,20,anonymized,Serial_Dependence_U,2023.2.3,Win32,30.030030030027405,,,,,,1754.1985,219.0,5.0,1754.1988,219.0,,,,1757.9717999999998,1758.4833,1757.443,1757.9716999999996,1755.1802999999998,1757.4428999999998,1758.4833,1758.9724,1758.9724,1762.534,3250.0,1762.5362999999998,5.0,1762.5558,5.0,8.0,158.0,17.0,1.0,1.2,0.7,Time
,,S43,1,女,20,anonymized,Serial_Dependence_U,2023.2.3,Win32,30.030030030027405,,,,,,1762.5562999999995,11.0,5.0,1762.5564,11.0,,,,1766.744,1767.2308999999998,1766.2298999999998,1766.7439,1763.5574,1766.2298999999998,1767.2308999999998,1767.7406,1767.7406999999996,1771.4941999999996,3330.0,1771.4963999999998,5.0,1771.5169,5.0,9.0,159.0,24.0,1.0,1.6,0.3,Time
,,S43,1,女,20,anonymized,Serial_Dependence_U,2023.2.3,Win32,30.030030030027405,,,,,,1771.5174,29.0,5.0,1771.5176,29.0,,,,1775.2785,1775.7746,1774.7716999999998,1775.2784,1772.5366999999997,1774.7716,1775.7746999999997,1776.2595,1776.2596,1779.9621999999997,3612.0,1779.9643,5.0,1779.9831999999997,5.0,10.0,160.0,7.0,1.0,1.2,0.7,Time
,,S43,1,女,20,anonymized,Serial_Dependence_U,2023.2.3,Win32,30.030030030027405,,,,,,1779.9836,269.0,5.0,1779.9837999999995,269.0,,,,1783.3426000000002,1783.8297999999998,1782.8384,1783.3426000000002,1780.9924,1782.8384,1783.83,1784.3125,1784.3127999999997,1787.8036,3104.0,1787.8051999999998,5.0,1787.8203,5.0,11.0,161.0,15.0,1.0,0.8,0.7,Time
,,S43,1,女,20,anonymized,Serial_Dependence_U,2023.2.3,Win32,30.030030030027405,,,,,,1787.8206,14.0,5.0,1787.8209,14.0,,,,1791.4009,1791.903,1790.8836999999996,1791.4006999999997,1788.8158,1790.8836999999996,1791.9031,1792.3796,1792.3797999999997,1796.3154,3603.0,1796.3155,5.0,1796.3338,5.0,12.0,162.0,21.0,1.0,1.0,0.3,Time
,,S43,1,女,20,anonymized,Serial_Dependence_U,2023.2.3,Win32,30.030030030027405,,,,,,1796.3341,346.0,5.0,1796.3341999999998,346.0,,,,1799.741,1800.2396999999996,1799.2141999999997,1799.7408999999998,1797.3481999999997,1799.2141,1800.24,1800.7214,1800.7216999999996,1804.3214,3206.0,1804.3223,5.0,1804.3413,5.0,13.0,163.0,0.0,1.0,0.8,0.3,Time
,,S43,1,女,20,anonymized,Serial_Dependence_U,2023.2.3,Win32,30.030030030027405,,,,,,1804.3417,337.0,5.0,1804.342,337.0,,,,1808.2913,1808.7749,1807.7897,1808.2912,1805.3459,1807.7896,1808.7751,1809.2746,1809.2747,1813.3875,3738.0,1813.3888,5.0,1813.4078,5.0,14.0,164.0,28.0,1.0,1.4,0.7,Time
,,S43,1,女,20,anonymized,Serial_Dependence_U,2023.2.3,Win32,30.030030030027405,,,,,,1813.4083,63.0,5.0,1813.4086,63.0,,,,1817.3928,1817.8868,1816.8917,1817.3927,1814.4244,1816.8916,1817.8868,1818.3787,1818.3791,1822.5384,3816.0,1822.5386,5.0,1822.5572,5.0,15.0,165.0,23.0,1.0,1.4,0.3,Time
,,S43,1,女,20,anonymized,Serial_Dependence_U,2023.2.3,Win32,30.030030030027405,,,,,,1822.5575,30.0,5.0,1822.5577,30.0,,,,1826.6087,1827.1008,1826.0947,1826.6086,1823.6032,1826.0946,1827.1008,1827.5979,1827.5982,1831.3052,3346.0,1831.3055,5.0,1831.3234,5.0,16.0,166.0,3.0,1.0,1.4,0.3,Time
,,S43,1,女,20,anonymized,Serial_Dependence_U,2023.2.3,Win32,30.030030030027405,,,,,,1831.324,273.0,5.0,1831.3242,273.0,,,,1835.1307,1835.6212,1834.6123,1835.1306,1832.3242,1834.6122,1835.6213,1836.1136,1836.1136,1840.2389,3704.0,1840.2415,5.0,1840.2557,5.0,17.0,167.0,12.0,1.0,1.2,0.3,Time
,,S43,1,女,20,anonymized,Serial_Dependence_U,2023.2.3,Win32,30.030030030027405,,,,,,1840.2562,218.0,5.0,1840.2564,218.0,,,,1844.207,1844.7008,1843.6847,1844.2069,1841.2483,1843.6846,1844.7009,1845.2059,1845.206,1849.1742,3675.0,1849.1744,5.0,1849.1938,5.0,18.0,168.0,18.0,1.0,1.4,0.7,Time
,,S43,1,女,20,anonymized,Serial_Dependence_U,2023.2.3,Win32,30.030030030027405,,,,,,1849.1941,302.0,5.0,1849.1944,302.0,,,,1852.6238,1853.1209,1852.0987,1852.6237,1850.2073,1852.0985,1853.1209,1853.6188,1853.6188,1857.1252,3112.0,1857.1267,5.0,1857.1439,5.0,19.0,169.0,20.0,1.0,0.8,0.3,Time
,,S43,1,女,20,anonymized,Serial_Dependence_U,2023.2.3,Win32,30.030030030027405,,,,,,1857.1443,260.0,5.0,1857.1445,260.0,,,,1860.703,1861.1941,1860.1744,1860.703,1858.1362,1860.1743,1861.1942,1861.697,1861.6973,1865.3466,3318.0,1865.3469,5.0,1865.3666,5.0,20.0,170.0,16.0,1.0,1.0,0.7,Time
,,S43,1,女,20,anonymized,Serial_Dependence_U,2023.2.3,Win32,30.030030030027405,,,,,,1865.367,348.0,5.0,1865.3672,348.0,,,,1868.7633,1869.2619,1868.2323,1868.7632,1866.3864,1868.2322,1869.2619,1869.7595,1869.7596,1872.9241,2949.0,1872.9243,5.0,1872.9375,5.0,21.0,171.0,5.0,1.0,0.8,0.7,Time
,,S43,1,女,20,anonymized,Serial_Dependence_U,2023.2.3,Win32,30.030030030027405,,,,,,1872.9379,350.0,5.0,1872.9381,350.0,,,,1876.7494,1877.2469,1876.2305,1876.7492,1873.9459,1876.2304,1877.2469,1877.7342,1877.7346,1881.267,3048.0,1881.2675,5.0,1881.2899,5.0,22.0,172.0,22.0,1.0,1.2,0.3,Time
,,S43,1,女,20,anonymized,Serial_Dependence_U,2023.2.3,Win32,30.030030030027405,,,,,,1881.2904,333.0,5.0,1881.2905,333.0,,,,1884.6841,1885.1798,1884.153,1884.6841,1882.2831,1884.1529,1885.1799,1885.6569,1885.657,1889.0995,3075.0,1889.0996,5.0,1889.1172,5.0,23.0,173.0,10.0,1.0,0.8,0.3,Time
,,S43,1,女,20,anonymized,Serial_Dependence_U,2023.2.3,Win32,30.030030030027405,,,,,,1889.1175,10.0,5.0,1889.1177,10.0,,,,1892.7599,1893.2552,1892.24,1892.7598,1890.1483,1892.2399,1893.2553,1893.7558,1893.7558,1897.3745,3108.0,1897.376,5.0,1897.3941,5.0,24.0,174.0,1.0,1.0,1.0,0.3,Time
,,S43,1,女,20,anonymized,Serial_Dependence_U,2023.2.3,Win32,30.030030030027405,,,,,,1897.3943,260.0,5.0,1897.3946,260.0,,,,1901.2102,1901.7159,1900.6882,1901.2102,1898.4126,1900.6881,1901.7159,1902.2138,1902.2144,1906.0113,3338.0,1906.0125,5.0,1906.0341,5.0,25.0,175.0,2.0,1.0,1.2,0.3,Time
,,S43,1,女,20,anonymized,Serial_Dependence_U,2023.2.3,Win32,30.030030030027405,,,,,,1906.0344,254.0,5.0,1906.0347,254.0,,,,1909.6753,1910.1846,1909.1427,1909.6752,1907.0506,1909.1426,1910.1847,1910.6872,1910.6875,1914.373,3306.0,1914.3732,5.0,1914.3936,5.0,26.0,176.0,11.0,1.0,1.0,0.3,Time
,,S43,1,女,20,anonymized,Serial_Dependence_U,2023.2.3,Win32,30.030030030027405,,,,,,1914.394,149.0,5.0,1914.3942,149.0,,,,1918.1654,1918.675,1917.6493,1918.1652,1915.3924,1917.6492,1918.6752,1919.167,1919.1671,1922.8991,3372.0,1922.8996,5.0,1922.915,5.0,27.0,177.0,27.0,1.0,1.2,0.7,Time
,,S43,1,女,20,anonymized,Serial_Dependence_U,2023.2.3,Win32,30.030030030027405,,,,,,1922.9154,154.0,5.0,1922.9156,154.0,,,,1926.9642,1927.4645,1926.4378,1926.9641,1923.9475,1926.4377,1927.4645,1927.9457,1927.9458,1931.5767,3365.0,1931.579,5.0,1931.5961,5.0,28.0,178.0,13.0,1.0,1.4,0.3,Time
,,S43,1,女,20,anonymized,Serial_Dependence_U,2023.2.3,Win32,30.030030030027405,,,,,,1931.5965,42.0,5.0,1931.5967,42.0,,,,1935.7748,1936.2892,1935.272,1935.7747,1932.6059,1935.2719,1936.2892,1936.7831,1936.7832,1940.9713,3557.0,1940.9715,5.0,1940.9929,5.0,29.0,179.0,14.0,1.0,1.6,0.3,Time
,,S43,1,女,20,anonymized,Serial_Dependence_U,2023.2.3,Win32,30.030030030027405,,,,,,1940.9933,113.0,6.0,2126.026,113.0,s,184.99019999999973,,2129.6324,2130.1242,2129.1213,2129.6323,2127.0491,2129.1212,2130.1242,2130.6146,2130.6148,2134.5879,3437.0,2134.5882,5.0,2134.6024,6.0,0.0,180.0,11.0,1.0,1.0,0.3,Time
,,S43,1,女,20,anonymized,Serial_Dependence_U,2023.2.3,Win32,30.030030030027405,,,,,,2134.6032,195.0,6.0,2134.6055,195.0,,,,2138.0115,2138.518,2137.4805,2138.0113,2135.6337,2137.4805,2138.5183,2139.0195,2139.0197,2142.2036000000003,3104.0,2142.204,5.0,2142.2225,6.0,1.0,181.0,25.0,1.0,0.8,0.7,Time
,,S43,1,女,20,anonymized,Serial_Dependence_U,2023.2.3,Win32,30.030030030027405,,,,,,2142.223,275.0,6.0,2142.2233,275.0,,,,2146.1668,2146.6721,2145.6548,2146.1668,2143.2037,2145.6545,2146.6721,2147.1644,2147.1645,2150.9373,3433.0,2150.9376999999995,5.0,2150.9566,6.0,2.0,182.0,28.0,1.0,1.4,0.7,Time
,,S43,1,女,20,anonymized,Serial_Dependence_U,2023.2.3,Win32,30.030030030027405,,,,,,2150.9569,120.0,6.0,2150.9571,120.0,,,,2154.7046,2155.1977,2154.2031999999995,2154.7046,2151.9536000000003,2154.2031,2155.198,2155.6856999999995,2155.6856999999995,2159.0311,3142.0,2159.0313,5.0,2159.0511,6.0,3.0,183.0,17.0,1.0,1.2,0.7,Time
,,S43,1,女,20,anonymized,Serial_Dependence_U,2023.2.3,Win32,30.030030030027405,,,,,,2159.0515,76.0,6.0,2159.0516999999995,76.0,,,,2162.8905,2163.3903,2162.3684,2162.8903,2160.0811,2162.3684,2163.3903,2163.8837,2163.8837,2167.2616000000003,2921.0,2167.2617,5.0,2167.2791,6.0,4.0,184.0,12.0,1.0,1.2,0.3,Time
,,S43,1,女,20,anonymized,Serial_Dependence_U,2023.2.3,Win32,30.030030030027405,,,,,,2167.2795,34.0,6.0,2167.2797,34.0,,,,2171.3231,2171.8162,2170.7935,2171.323,2168.3131,2170.7934,2171.8164,2172.2943,2172.2944,2176.1562,3409.0,2176.1564,5.0,2176.1745,6.0,5.0,185.0,13.0,1.0,1.4,0.3,Time
,,S43,1,女,20,anonymized,Serial_Dependence_U,2023.2.3,Win32,30.030030030027405,,,,,,2176.1748,198.0,6.0,2176.175,198.0,,,,2180.3712,2180.8537,2179.8459,2180.3711,2177.1974,2179.8458,2180.8538,2181.3467,2181.3467,2185.6141999999995,3978.0,2185.6167,5.0,2185.6376,6.0,6.0,186.0,19.0,1.0,1.6,0.7,Time
,,S43,1,女,20,anonymized,Serial_Dependence_U,2023.2.3,Win32,30.030030030027405,,,,,,2185.6382,169.0,6.0,2185.6386,169.0,,,,2189.2536,2189.7575,2188.7266,2189.2535,2186.6421,2188.7264,2189.7576,2190.2469,2190.2471,2193.9576,3337.0,2193.9585,5.0,2193.9744,6.0,7.0,187.0,21.0,1.0,1.0,0.3,Time
,,S43,1,女,20,anonymized,Serial_Dependence_U,2023.2.3,Win32,30.030030030027405,,,,,,2193.9749,142.0,6.0,2193.9751,142.0,,,,2197.5327,2198.0412,2197.0321,2197.5327,2194.9665,2197.032,2198.0418,2198.5211,2198.5211,2201.7798,2961.0,2201.7819,5.0,2201.7966,6.0,8.0,188.0,1.0,1.0,1.0,0.3,Time
,,S43,1,女,20,anonymized,Serial_Dependence_U,2023.2.3,Win32,30.030030030027405,,,,,,2201.7969,91.0,6.0,2201.7971,91.0,,,,2205.2078,2205.6908,2204.6758,2205.2076999999995,2202.7916,2204.6757,2205.6909,2206.2082,2206.2082,2209.767,3124.0,2209.7672,5.0,2209.7853,6.0,9.0,189.0,0.0,1.0,0.8,0.3,Time
,,S43,1,女,20,anonymized,Serial_Dependence_U,2023.2.3,Win32,30.030030030027405,,,,,,2209.7858,103.0,6.0,2209.7869,103.0,,,,2213.7708,2214.26,2213.255,2213.7707,2210.7941,2213.2544,2214.2601,2214.7483,2214.7486,2218.2468,3071.0,2218.247,5.0,2218.2678,6.0,10.0,190.0,18.0,1.0,1.4,0.7,Time
,,S43,1,女,20,anonymized,Serial_Dependence_U,2023.2.3,Win32,30.030030030027405,,,,,,2218.2683,297.0,6.0,2218.2684,297.0,,,,2222.4772,2222.9742,2221.9551,2222.4771,2219.2937,2221.955,2222.9742,2223.4646,2223.4646999999995,2227.5167,3650.0,2227.5169,5.0,2227.536,6.0,11.0,191.0,29.0,1.0,1.6,0.7,Time
,,S43,1,女,20,anonymized,Serial_Dependence_U,2023.2.3,Win32,30.030030030027405,,,,,,2227.5364,274.0,6.0,2227.5365,274.0,,,,2231.3542,2231.8502,2230.826,2231.3541,2228.5689,2230.826,2231.8502,2232.3531000000003,2232.3531000000003,2236.0478,3351.0,2236.0481,5.0,2236.07,6.0,12.0,192.0,7.0,1.0,1.2,0.7,Time
,,S43,1,女,20,anonymized,Serial_Dependence_U,2023.2.3,Win32,30.030030030027405,,,,,,2236.0704,36.0,6.0,2236.0707,36.0,,,,2240.2737,2240.7809,2239.7589,2240.2736,2237.0687,2239.7589,2240.7811,2241.2651,2241.2654,2245.3527,3879.0,2245.3544,5.0,2245.3756,6.0,13.0,193.0,24.0,1.0,1.6,0.3,Time
,,S43,1,女,20,anonymized,Serial_Dependence_U,2023.2.3,Win32,30.030030030027405,,,,,,2245.376,112.0,6.0,2245.3763,112.0,,,,2248.803,2249.293,2248.2765,2248.8029,2246.4074,2248.2765,2249.2931,2249.7866,2249.7867,2253.6932,3480.0,2253.6937,5.0,2253.7121999999995,6.0,14.0,194.0,10.0,1.0,0.8,0.3,Time
,,S43,1,女,20,anonymized,Serial_Dependence_U,2023.2.3,Win32,30.030030030027405,,,,,,2253.7127,309.0,6.0,2253.7129,309.0,,,,2257.9211,2258.4216,2257.3991,2257.921,2254.7509,2257.399,2258.4219,2258.9143,2258.9144,2263.2497,4042.0,2263.2499,5.0,2263.2721,6.0,15.0,195.0,9.0,1.0,1.6,0.7,Time
,,S43,1,女,20,anonymized,Serial_Dependence_U,2023.2.3,Win32,30.030030030027405,,,,,,2263.2725,10.0,6.0,2263.2726999999995,10.0,,,,2266.6688,2267.187,2266.1645,2266.6688,2264.3098,2266.1645,2267.1871,2267.6753,2267.6756,2271.2739,3095.0,2271.2749,5.0,2271.2907,6.0,16.0,196.0,5.0,1.0,0.8,0.7,Time
,,S43,1,女,20,anonymized,Serial_Dependence_U,2023.2.3,Win32,30.030030030027405,,,,,,2271.2911,21.0,6.0,2271.2913000000003,21.0,,,,2274.8596,2275.3349,2274.3399,2274.8595,2272.2833,2274.3398,2275.3349,2275.8274999999994,2275.8278,2279.4956,3269.0,2279.4958,5.0,2279.5129,6.0,17.0,197.0,26.0,1.0,1.0,0.7,Time
,,S43,1,女,20,anonymized,Serial_Dependence_U,2023.2.3,Win32,30.030030030027405,,,,,,2279.5134,279.0,6.0,2279.5138,279.0,,,,2283.5434,2284.0488,2283.0295,2283.5434,2280.5419,2283.0294,2284.0489,2284.5422,2284.5423,2288.503,3556.0,2288.5051,5.0,2288.5201,6.0,18.0,198.0,3.0,1.0,1.4,0.3,Time
,,S43,1,女,20,anonymized,Serial_Dependence_U,2023.2.3,Win32,30.030030030027405,,,,,,2288.5214999999994,43.0,6.0,2288.5218000000004,43.0,,,,2292.7299,2293.2299,2292.2001,2292.7297,2289.5194999999994,2292.2,2293.23,2293.7294999999995,2293.7294999999995,2297.6421,3536.0,2297.6424,5.0,2297.6657,6.0,19.0,199.0,4.0,1.0,1.6,0.3,Time
,,S43,1,女,20,anonymized,Serial_Dependence_U,2023.2.3,Win32,30.030030030027405,,,,,,2297.6662,123.0,6.0,2297.6664,123.0,,,,2301.2273000000005,2301.7214,2300.7141,2301.2272,2298.671,2300.7139,2301.7216,2302.22,2302.2201,2305.9429999999998,3306.0,2305.9432,5.0,2305.9641,6.0,20.0,200.0,6.0,1.0,1.0,0.7,Time
,,S43,1,女,20,anonymized,Serial_Dependence_U,2023.2.3,Win32,30.030030030027405,,,,,,2305.9646,313.0,6.0,2305.9648,313.0,,,,2309.9564,2310.4588000000003,2309.4472,2309.9563000000003,2306.9983,2309.4471,2310.4589999999994,2310.9592,2310.9594,2314.7924,3497.0,2314.7934999999998,5.0,2314.8097,6.0,21.0,201.0,8.0,1.0,1.4,0.7,Time
,,S43,1,女,20,anonymized,Serial_Dependence_U,2023.2.3,Win32,30.030030030027405,,,,,,2314.8099,11.0,6.0,2314.8101,11.0,,,,2319.0077,2319.4953,2318.5064999999995,2319.0076,2315.8288,2318.5064,2319.4954999999995,2320.0068,2320.0069,2323.735,3539.0,2323.7353000000003,5.0,2323.7562,6.0,22.0,202.0,14.0,1.0,1.6,0.3,Time
,,S43,1,女,20,anonymized,Serial_Dependence_U,2023.2.3,Win32,30.030030030027405,,,,,,2323.7567,164.0,6.0,2323.7569,164.0,,,,2327.7469,2328.2607,2327.2273000000005,2327.7469,2324.7616000000003,2327.2272,2328.2608000000005,2328.769,2328.7692,2332.7382,3587.0,2332.7384,5.0,2332.7584,6.0,23.0,203.0,23.0,1.0,1.4,0.3,Time
,,S43,1,女,20,anonymized,Serial_Dependence_U,2023.2.3,Win32,30.030030030027405,,,,,,2332.7588,247.0,6.0,2332.759,247.0,,,,2336.5866,2337.0772,2336.0538,2336.5863000000004,2333.7638,2336.0536999999995,2337.0773000000004,2337.5544,2337.5544999999997,2341.5559,3634.0,2341.5561999999995,5.0,2341.5723000000003,6.0,24.0,204.0,2.0,1.0,1.2,0.3,Time
,,S43,1,女,20,anonymized,Serial_Dependence_U,2023.2.3,Win32,30.030030030027405,,,,,,2341.5727,190.0,6.0,2341.5729,190.0,,,,2345.3629999999994,2345.8586,2344.8374,2345.3629,2342.5578,2344.8371999999995,2345.8587,2346.3628000000003,2346.3629999999994,2350.4362,3683.0,2350.4384999999997,5.0,2350.4576999999995,6.0,25.0,205.0,22.0,1.0,1.2,0.3,Time
,,S43,1,女,20,anonymized,Serial_Dependence_U,2023.2.3,Win32,30.030030030027405,,,,,,2350.458,331.0,6.0,2350.4583,331.0,,,,2354.2294999999995,2354.7326000000003,2353.7052,2354.2293000000004,2351.4569,2353.7051,2354.7328,2355.244,2355.2441,2359.1639,3646.0,2359.1663000000003,5.0,2359.1851,6.0,26.0,206.0,27.0,1.0,1.2,0.7,Time
,,S43,1,女,20,anonymized,Serial_Dependence_U,2023.2.3,Win32,30.030030030027405,,,,,,2359.1858,36.0,6.0,2359.1861,36.0,,,,2362.5822,2363.067,2362.0624,2362.5821,2360.2093000000004,2362.0622,2363.067,2363.5703000000003,2363.5708000000004,2367.0284999999994,3036.0,2367.0288,5.0,2367.0466,6.0,27.0,207.0,15.0,1.0,0.8,0.7,Time
,,S43,1,女,20,anonymized,Serial_Dependence_U,2023.2.3,Win32,30.030030030027405,,,,,,2367.0469,205.0,6.0,2367.0471,205.0,,,,2370.4584,2370.9394999999995,2369.9321,2370.4583,2368.0542,2369.9321,2370.9396,2371.4302,2371.4302,2374.9977,3113.0,2374.999,5.0,2375.0185,6.0,28.0,208.0,20.0,1.0,0.8,0.3,Time
,,S43,1,女,20,anonymized,Serial_Dependence_U,2023.2.3,Win32,30.030030030027405,,,,,,2375.0189,78.0,6.0,2375.0192,78.0,,,,2378.601,2379.1118,2378.0727,2378.6008,2376.0349,2378.0726,2379.1118,2379.6069,2379.6069999999995,2382.8129,2956.0,2382.8131,5.0,2382.8339999999994,6.0,29.0,209.0,16.0,1.0,1.0,0.7,Time
,,S43,1,女,20,anonymized,Serial_Dependence_U,2023.2.3,Win32,30.030030030027405,,,,,,2382.8343000000004,258.0,7.0,2479.4335,258.0,s,96.55470000000014,,2483.2591,2483.7554999999998,2482.7249999999995,2483.259,2480.4502,2482.7248000000004,2483.7556,2484.2539,2484.2541,2488.2535,3626.0,2488.2541,5.0,2488.2708,7.0,0.0,210.0,22.0,1.0,1.2,0.3,Time
,,S43,1,女,20,anonymized,Serial_Dependence_U,2023.2.3,Win32,30.030030030027405,,,,,,2488.2714,268.0,7.0,2488.2726,268.0,,,,2492.0736,2492.5552,2491.5474,2492.0734999999995,2489.2734,2491.5474,2492.5553000000004,2493.0444,2493.0444999999995,2496.7498,3365.0,2496.7514,5.0,2496.7704,7.0,1.0,211.0,2.0,1.0,1.2,0.3,Time
,,S43,1,女,20,anonymized,Serial_Dependence_U,2023.2.3,Win32,30.030030030027405,,,,,,2496.7708,160.0,7.0,2496.771,160.0,,,,2501.0207,2501.5109999999995,2500.4832,2501.0206000000003,2497.784,2500.4826000000003,2501.5111,2501.9866,2501.9866999999995,2506.1137,3796.0,2506.1139,5.0,2506.1316,7.0,2.0,212.0,4.0,1.0,1.6,0.3,Time
,,S43,1,女,20,anonymized,Serial_Dependence_U,2023.2.3,Win32,30.030030030027405,,,,,,2506.1319,293.0,7.0,2506.1321000000003,293.0,,,,2510.1341,2510.6436,2509.6285,2510.134,2507.1434,2509.6284,2510.6437,2511.1359,2511.1359999999995,2515.0969999999998,3551.0,2515.0971,5.0,2515.1153000000004,7.0,3.0,213.0,23.0,1.0,1.4,0.3,Time
,,S43,1,女,20,anonymized,Serial_Dependence_U,2023.2.3,Win32,30.030030030027405,,,,,,2515.1156,235.0,7.0,2515.1158,235.0,,,,2518.7033,2519.2134,2518.1757,2518.7031999999995,2516.1143,2518.1756,2519.2136,2519.7133000000003,2519.7134,2523.4229,3267.0,2523.4251,5.0,2523.4414999999995,7.0,4.0,214.0,26.0,1.0,1.0,0.7,Time
,,S43,1,女,20,anonymized,Serial_Dependence_U,2023.2.3,Win32,30.030030030027405,,,,,,2523.4419,284.0,7.0,2523.4421,284.0,,,,2527.0491,2527.5244999999995,2526.5222,2527.0489,2524.4644,2526.5221,2527.5246,2528.0066,2528.0067,2531.4764,3294.0,2531.4778,5.0,2531.4987,7.0,5.0,215.0,16.0,1.0,1.0,0.7,Time
,,S43,1,女,20,anonymized,Serial_Dependence_U,2023.2.3,Win32,30.030030030027405,,,,,,2531.4991,262.0,7.0,2531.4993000000004,262.0,,,,2535.1364,2535.6359999999995,2534.6199,2535.1363,2532.5267,2534.6198000000004,2535.6359999999995,2536.1429,2536.1431999999995,2539.7073,3267.0,2539.7074999999995,5.0,2539.7253,7.0,6.0,216.0,1.0,1.0,1.0,0.3,Time
,,S43,1,女,20,anonymized,Serial_Dependence_U,2023.2.3,Win32,30.030030030027405,,,,,,2539.7256999999995,313.0,7.0,2539.7258,313.0,,,,2543.4821,2543.9634999999994,2542.9734,2543.4819999999995,2540.7223000000004,2542.9733,2543.9636,2544.4554,2544.4556,2548.2499999999995,3438.0,2548.2509999999997,5.0,2548.2676,7.0,7.0,217.0,7.0,1.0,1.2,0.7,Time
,,S43,1,女,20,anonymized,Serial_Dependence_U,2023.2.3,Win32,30.030030030027405,,,,,,2548.2691,150.0,7.0,2548.2693000000004,150.0,,,,2552.3931,2552.8962,2551.8881,2552.393,2549.2549,2551.8879,2552.8962,2553.4004999999997,2553.4006,2557.286,3626.0,2557.2862,5.0,2557.3036,7.0,8.0,218.0,29.0,1.0,1.6,0.7,Time
,,S43,1,女,20,anonymized,Serial_Dependence_U,2023.2.3,Win32,30.030030030027405,,,,,,2557.3039,344.0,7.0,2557.304,344.0,,,,2561.2859,2561.7698,2560.7669,2561.2857,2558.3269,2560.7668000000003,2561.7701,2562.2474999999995,2562.2474999999995,2565.9625,3639.0,2565.9628,5.0,2565.9831,7.0,9.0,219.0,28.0,1.0,1.4,0.7,Time
,,S43,1,女,20,anonymized,Serial_Dependence_U,2023.2.3,Win32,30.030030030027405,,,,,,2565.9835,188.0,7.0,2565.9836,188.0,,,,2569.4364,2569.9172,2568.9075,2569.4364,2567.0185,2568.9074,2569.9172,2570.4275,2570.4277,2573.8857,3034.0,2573.8859,5.0,2573.9052,7.0,10.0,220.0,20.0,1.0,0.8,0.3,Time
,,S43,1,女,20,anonymized,Serial_Dependence_U,2023.2.3,Win32,30.030030030027405,,,,,,2573.9054999999994,159.0,7.0,2573.9056,159.0,,,,2577.9076,2578.3991,2577.3845,2577.9075,2574.9216,2577.3844,2578.3992,2578.9068,2578.9069,2582.7094,3563.0,2582.7113000000004,5.0,2582.7291,7.0,11.0,221.0,18.0,1.0,1.4,0.7,Time
,,S43,1,女,20,anonymized,Serial_Dependence_U,2023.2.3,Win32,30.030030030027405,,,,,,2582.7294,125.0,7.0,2582.7296,125.0,,,,2586.6662,2587.1597,2586.1591,2586.6661,2583.7201,2586.159,2587.1598000000004,2587.6496999999995,2587.65,2591.3468000000003,3448.0,2591.3469999999998,5.0,2591.3681,7.0,12.0,222.0,8.0,1.0,1.4,0.7,Time
,,S43,1,女,20,anonymized,Serial_Dependence_U,2023.2.3,Win32,30.030030030027405,,,,,,2591.3685,342.0,7.0,2591.3686999999995,342.0,,,,2594.7798000000003,2595.2732,2594.2719,2594.7797,2592.3989,2594.2719,2595.2732,2595.7596,2595.7597,2599.1024999999995,3038.0,2599.1036,5.0,2599.1211,7.0,13.0,223.0,0.0,1.0,0.8,0.3,Time
,,S43,1,女,20,anonymized,Serial_Dependence_U,2023.2.3,Win32,30.030030030027405,,,,,,2599.1214999999997,80.0,7.0,2599.1216,80.0,,,,2602.4924,2602.9766,2601.9735,2602.4924,2600.1319,2601.9734,2602.9767,2603.4748000000004,2603.4751,2606.8504,2979.0,2606.8526,5.0,2606.8703,7.0,14.0,224.0,15.0,1.0,0.8,0.7,Time
,,S43,1,女,20,anonymized,Serial_Dependence_U,2023.2.3,Win32,30.030030030027405,,,,,,2606.8708,14.0,7.0,2606.8711,14.0,,,,2610.4753,2610.9677,2609.9584,2610.4752,2607.8841999999995,2609.9583,2610.9677,2611.4618,2611.4619,2614.8412,3139.0,2614.8414,5.0,2614.8596,7.0,15.0,225.0,11.0,1.0,1.0,0.3,Time
,,S43,1,女,20,anonymized,Serial_Dependence_U,2023.2.3,Win32,30.030030030027405,,,,,,2614.8601,88.0,7.0,2614.8603000000003,88.0,,,,2618.6514,2619.1443000000004,2618.1424,2618.6513000000004,2615.8868,2618.1423000000004,2619.1443000000004,2619.6475,2619.6478,2623.3849999999998,3255.0,2623.3851,5.0,2623.4033000000004,7.0,16.0,226.0,27.0,1.0,1.2,0.7,Time
,,S43,1,女,20,anonymized,Serial_Dependence_U,2023.2.3,Win32,30.030030030027405,,,,,,2623.4038,19.0,7.0,2623.4039999999995,19.0,,,,2626.8047,2627.2919,2626.2813,2626.8046,2624.4094999999998,2626.2812,2627.2919999999995,2627.7692,2627.7694999999994,2631.2105,3080.0,2631.2134,5.0,2631.2296,7.0,17.0,227.0,10.0,1.0,0.8,0.3,Time
,,S43,1,女,20,anonymized,Serial_Dependence_U,2023.2.3,Win32,30.030030030027405,,,,,,2631.2299,359.0,7.0,2631.2301,359.0,,,,2635.2321,2635.7197,2634.7028,2635.2321,2632.2242,2634.7027,2635.72,2636.2022,2636.2024999999994,2639.9868,3619.0,2639.9883000000004,5.0,2640.0082,7.0,18.0,228.0,3.0,1.0,1.4,0.3,Time
,,S43,1,女,20,anonymized,Serial_Dependence_U,2023.2.3,Win32,30.030030030027405,,,,,,2640.0096,112.0,7.0,2640.0098000000003,112.0,,,,2644.2043000000003,2644.7162,2643.6743,2644.2041,2641.0016,2643.6741999999995,2644.7162,2645.2061,2645.2063000000003,2649.3529,3896.0,2649.3532,5.0,2649.3697,7.0,19.0,229.0,14.0,1.0,1.6,0.3,Time
,,S43,1,女,20,anonymized,Serial_Dependence_U,2023.2.3,Win32,30.030030030027405,,,,,,2649.3701,199.0,7.0,2649.3703,199.0,,,,2652.7831,2653.2799,2652.2587,2652.7829999999994,2650.3993,2652.2586,2653.2801,2653.7691,2653.7694999999994,2657.175,3040.0,2657.1752,5.0,2657.1952,7.0,20.0,230.0,25.0,1.0,0.8,0.7,Time
,,S43,1,女,20,anonymized,Serial_Dependence_U,2023.2.3,Win32,30.030030030027405,,,,,,2657.1957,97.0,7.0,2657.1958000000004,97.0,,,,2661.3957,2661.8923000000004,2660.8699999999994,2661.3956000000003,2658.1973000000003,2660.8699,2661.8923000000004,2662.3819,2662.3819,2666.7041,4050.0,2666.7064,5.0,2666.7216,7.0,21.0,231.0,24.0,1.0,1.6,0.3,Time
,,S43,1,女,20,anonymized,Serial_Dependence_U,2023.2.3,Win32,30.030030030027405,,,,,,2666.7219,37.0,7.0,2666.7222,37.0,,,,2670.3309,2670.8193,2669.8267,2670.3306999999995,2667.7387,2669.8266,2670.8194,2671.3119999999994,2671.3119999999994,2675.2726,3550.0,2675.2748,5.0,2675.2901,7.0,22.0,232.0,21.0,1.0,1.0,0.3,Time
,,S43,1,女,20,anonymized,Serial_Dependence_U,2023.2.3,Win32,30.030030030027405,,,,,,2675.2913000000003,332.0,7.0,2675.2915,332.0,,,,2679.4473000000003,2679.9547,2678.9384999999997,2679.4473000000003,2676.3046,2678.9384,2679.9548000000004,2680.4497,2680.4497,2684.3586,3511.0,2684.3603000000003,5.0,2684.3783000000003,7.0,23.0,233.0,19.0,1.0,1.6,0.7,Time
,,S43,1,女,20,anonymized,Serial_Dependence_U,2023.2.3,Win32,30.030030030027405,,,,,,2684.3789999999995,131.0,7.0,2684.3792,131.0,,,,2687.746,2688.2326000000003,2687.2395,2687.7459,2685.3779,2687.2393,2688.2326000000003,2688.6956,2688.6957,2692.4068,3293.0,2692.4071,5.0,2692.4225,7.0,24.0,234.0,5.0,1.0,0.8,0.7,Time
,,S43,1,女,20,anonymized,Serial_Dependence_U,2023.2.3,Win32,30.030030030027405,,,,,,2692.4229,69.0,7.0,2692.423,69.0,,,,2696.4016,2696.9246000000003,2695.8865,2696.4016,2693.4172,2695.8864,2696.9247,2697.4057,2697.4057,2701.3291,3519.0,2701.3293000000003,5.0,2701.3473000000004,7.0,25.0,235.0,13.0,1.0,1.4,0.3,Time
,,S43,1,女,20,anonymized,Serial_Dependence_U,2023.2.3,Win32,30.030030030027405,,,,,,2701.3477,156.0,7.0,2701.3478000000005,156.0,,,,2705.5381,2706.0428,2705.0236,2705.538,2702.3719999999994,2705.0235,2706.0429,2706.5334999999995,2706.5334999999995,2710.3867,3654.0,2710.3877,5.0,2710.4033000000004,7.0,26.0,236.0,9.0,1.0,1.6,0.7,Time
,,S43,1,女,20,anonymized,Serial_Dependence_U,2023.2.3,Win32,30.030030030027405,,,,,,2710.4037,183.0,7.0,2710.4039,183.0,,,,2714.2047,2714.7184999999995,2713.6815,2714.2045,2711.4034999999994,2713.6815,2714.7188,2715.2069,2715.2069999999994,2719.3116,3687.0,2719.3119,5.0,2719.3347,7.0,27.0,237.0,12.0,1.0,1.2,0.3,Time
,,S43,1,女,20,anonymized,Serial_Dependence_U,2023.2.3,Win32,30.030030030027405,,,,,,2719.335,228.0,7.0,2719.3351999999995,228.0,,,,2722.9194999999995,2723.4207,2722.4119,2722.9194,2720.3518000000004,2722.4118000000003,2723.421,2723.9102,2723.9103000000005,2727.5911,3363.0,2727.592,5.0,2727.6096999999995,7.0,28.0,238.0,6.0,1.0,1.0,0.7,Time
,,S43,1,女,20,anonymized,Serial_Dependence_U,2023.2.3,Win32,30.030030030027405,,,,,,2727.61,48.0,7.0,2727.6102,48.0,,,,2731.3966,2731.8959,2730.8749999999995,2731.3966,2728.6238000000003,2730.8749,2731.896,2732.4,2732.4001,2735.9687,3408.0,2735.969,5.0,2735.9888,7.0,29.0,239.0,17.0,1.0,1.2,0.7,Time
,,S43,1,女,20,anonymized,Serial_Dependence_U,2023.2.3,Win32,30.030030030027405,,,,,,2735.9891999999995,82.0,8.0,2814.7624,82.0,s,78.73019999999997,,2818.1714,2818.6759,2817.6416,2818.1712,2815.7587,2817.6415,2818.6759,2819.1858,2819.186,2822.7707,3214.0,2822.7709,5.0,2822.7859,8.0,0.0,240.0,20.0,1.0,0.8,0.3,Time
,,S43,1,女,20,anonymized,Serial_Dependence_U,2023.2.3,Win32,30.030030030027405,,,,,,2822.7863,144.0,8.0,2822.7874,144.0,,,,2826.5939,2827.0861,2826.0679,2826.5938,2823.8018,2826.0677,2827.0863000000004,2827.5819999999994,2827.5821,2831.3782,3416.0,2831.3785,5.0,2831.393,8.0,1.0,241.0,22.0,1.0,1.2,0.3,Time
,,S43,1,女,20,anonymized,Serial_Dependence_U,2023.2.3,Win32,30.030030030027405,,,,,,2831.3933,75.0,8.0,2831.3935,75.0,,,,2835.3736,2835.8846,2834.8629,2835.3734,2832.4071,2834.8628000000003,2835.8846,2836.4013000000004,2836.4014,2840.5611,3829.0,2840.5613000000003,5.0,2840.5796,8.0,2.0,242.0,28.0,1.0,1.4,0.7,Time
,,S43,1,女,20,anonymized,Serial_Dependence_U,2023.2.3,Win32,30.030030030027405,,,,,,2840.5799999999995,289.0,8.0,2840.5802,289.0,,,,2844.7539999999995,2845.2373,2844.229,2844.7539,2841.5746,2844.2289,2845.2375,2845.7354,2845.7354,2849.8099999999995,3720.0,2849.8103,5.0,2849.8242,8.0,3.0,243.0,9.0,1.0,1.6,0.7,Time
,,S43,1,女,20,anonymized,Serial_Dependence_U,2023.2.3,Win32,30.030030030027405,,,,,,2849.8245,62.0,8.0,2849.8249,62.0,,,,2853.8192,2854.3249,2853.2998,2853.8191,2850.8276,2853.2997,2854.325,2854.8057,2854.8057,2858.7074,3733.0,2858.7086,5.0,2858.7287,8.0,4.0,244.0,13.0,1.0,1.4,0.3,Time
,,S43,1,女,20,anonymized,Serial_Dependence_U,2023.2.3,Win32,30.030030030027405,,,,,,2858.729,106.0,8.0,2858.7292,106.0,,,,2862.092,2862.5941000000003,2861.5887,2862.0919,2859.7424,2861.5886,2862.5941000000003,2863.1024999999995,2863.1026,2866.5176,3328.0,2866.5177,5.0,2866.5319,8.0,5.0,245.0,5.0,1.0,0.8,0.7,Time
,,S43,1,女,20,anonymized,Serial_Dependence_U,2023.2.3,Win32,30.030030030027405,,,,,,2866.5323000000003,3.0,8.0,2866.5325,3.0,,,,2869.9438000000005,2870.4344999999994,2869.4176,2869.9437,2867.5475,2869.4175,2870.4352,2870.9282,2870.9282,2874.2728,3289.0,2874.273,5.0,2874.2913000000003,8.0,6.0,246.0,10.0,1.0,0.8,0.3,Time
,,S43,1,女,20,anonymized,Serial_Dependence_U,2023.2.3,Win32,30.030030030027405,,,,,,2874.2918000000004,114.0,8.0,2874.2921,114.0,,,,2878.3139999999994,2878.795,2877.7934,2878.3138000000004,2875.3158000000003,2877.7933000000003,2878.795,2879.3028000000004,2879.3029,2883.1048,3415.0,2883.1049,5.0,2883.1246,8.0,7.0,247.0,3.0,1.0,1.4,0.3,Time
,,S43,1,女,20,anonymized,Serial_Dependence_U,2023.2.3,Win32,30.030030030027405,,,,,,2883.1249,133.0,8.0,2883.1249999999995,133.0,,,,2887.1235,2887.5973000000004,2886.5954999999994,2887.1234,2884.1357,2886.5954,2887.5974,2888.0898,2888.0899,2891.775,3227.0,2891.7753,5.0,2891.7971999999995,8.0,8.0,248.0,18.0,1.0,1.4,0.7,Time
,,S43,1,女,20,anonymized,Serial_Dependence_U,2023.2.3,Win32,30.030030030027405,,,,,,2891.7977,104.0,8.0,2891.7979,104.0,,,,2896.0236,2896.5011,2895.5005,2896.0235,2892.8175,2895.5004,2896.5013000000004,2896.9941,2896.9942,2900.282,2796.0,2900.2839,5.0,2900.3004,8.0,9.0,249.0,4.0,1.0,1.6,0.3,Time
,,S43,1,女,20,anonymized,Serial_Dependence_U,2023.2.3,Win32,30.030030030027405,,,,,,2900.3007,16.0,8.0,2900.3009999999995,16.0,,,,2903.6968,2904.1732,2903.1953000000003,2903.6968,2901.3266,2903.1953000000003,2904.1733000000004,2904.6502,2904.6504999999997,2908.3508,3254.0,2908.3536,5.0,2908.3706999999995,8.0,10.0,250.0,0.0,1.0,0.8,0.3,Time
,,S43,1,女,20,anonymized,Serial_Dependence_U,2023.2.3,Win32,30.030030030027405,,,,,,2908.3711,142.0,8.0,2908.3712,142.0,,,,2911.9161,2912.3934,2911.4021999999995,2911.9161,2909.364,2911.4021,2912.3935,2912.8838,2912.8838,2916.985,3439.0,2916.9852,5.0,2917.0036,8.0,11.0,251.0,16.0,1.0,1.0,0.7,Time
,,S43,1,女,20,anonymized,Serial_Dependence_U,2023.2.3,Win32,30.030030030027405,,,,,,2917.0039,203.0,8.0,2917.0041,203.0,,,,2920.7904,2921.2771,2920.2612,2920.7904,2918.0003,2920.2611,2921.2771999999995,2921.7829,2921.7829,2925.6283000000003,3369.0,2925.6298,5.0,2925.6473,8.0,12.0,252.0,27.0,1.0,1.2,0.7,Time
,,S43,1,女,20,anonymized,Serial_Dependence_U,2023.2.3,Win32,30.030030030027405,,,,,,2925.6476,243.0,8.0,2925.6479,243.0,,,,2929.2383000000004,2929.7324,2928.7144,2929.2382,2926.6443000000004,2928.7142,2929.7326000000003,2930.2247,2930.2248000000004,2933.9521,3337.0,2933.9549,5.0,2933.9729,8.0,13.0,253.0,21.0,1.0,1.0,0.3,Time
,,S43,1,女,20,anonymized,Serial_Dependence_U,2023.2.3,Win32,30.030030030027405,,,,,,2933.9733,150.0,8.0,2933.9735,150.0,,,,2937.5168000000003,2938.014,2937.012,2937.5168000000003,2934.9797,2937.0118,2938.014,2938.5217,2938.5218000000004,2942.2121999999995,3278.0,2942.2123,5.0,2942.2294999999995,8.0,14.0,254.0,6.0,1.0,1.0,0.7,Time
,,S43,1,女,20,anonymized,Serial_Dependence_U,2023.2.3,Win32,30.030030030027405,,,,,,2942.2299,203.0,8.0,2942.2301,203.0,,,,2945.6182,2946.1062,2945.0801,2945.6181,2943.2466,2945.0801,2946.1063000000004,2946.6019999999994,2946.6019999999994,2949.7324,2941.0,2949.7325,5.0,2949.7471,8.0,15.0,255.0,25.0,1.0,0.8,0.7,Time
,,S43,1,女,20,anonymized,Serial_Dependence_U,2023.2.3,Win32,30.030030030027405,,,,,,2949.7477,169.0,8.0,2949.7479,169.0,,,,2953.9099999999994,2954.4093000000003,2953.3903,2953.9099,2950.7449,2953.3902,2954.4093000000003,2954.9071,2954.9073000000003,2958.6203,3350.0,2958.6218000000003,5.0,2958.6431999999995,8.0,16.0,256.0,19.0,1.0,1.6,0.7,Time
,,S43,1,女,20,anonymized,Serial_Dependence_U,2023.2.3,Win32,30.030030030027405,,,,,,2958.6437,208.0,8.0,2958.6439,208.0,,,,2962.4122,2962.9269,2961.8946,2962.4122,2959.6494999999995,2961.8944999999994,2962.9269,2963.4394999999995,2963.4396,2967.4484999999995,3428.0,2967.4511,5.0,2967.4642,8.0,17.0,257.0,7.0,1.0,1.2,0.7,Time
,,S43,1,女,20,anonymized,Serial_Dependence_U,2023.2.3,Win32,30.030030030027405,,,,,,2967.4646999999995,207.0,8.0,2967.4649,207.0,,,,2971.2343,2971.7269999999994,2970.7318000000005,2971.2343,2968.4861,2970.7317,2971.7269999999994,2972.2106,2972.2107,2975.9455,3272.0,2975.9463,5.0,2975.9666999999995,8.0,18.0,258.0,17.0,1.0,1.2,0.7,Time
,,S43,1,女,20,anonymized,Serial_Dependence_U,2023.2.3,Win32,30.030030030027405,,,,,,2975.9672,97.0,8.0,2975.9674,97.0,,,,2979.5731,2980.0548000000003,2979.0565,2979.5729,2976.9661,2979.0564,2980.0549,2980.5474,2980.5474,2984.2656999999995,3295.0,2984.266,5.0,2984.2821,8.0,19.0,259.0,1.0,1.0,1.0,0.3,Time
,,S43,1,女,20,anonymized,Serial_Dependence_U,2023.2.3,Win32,30.030030030027405,,,,,,2984.2826,42.0,8.0,2984.2828000000004,42.0,,,,2987.8853000000004,2988.384,2987.3593,2987.8852,2985.2942,2987.3593,2988.384,2988.8671,2988.8671,2992.5094,3205.0,2992.5098000000003,5.0,2992.5259999999994,8.0,20.0,260.0,11.0,1.0,1.0,0.3,Time
,,S43,1,女,20,anonymized,Serial_Dependence_U,2023.2.3,Win32,30.030030030027405,,,,,,2992.5264,339.0,8.0,2992.5266,339.0,,,,2996.3549,2996.8546,2995.8392,2996.3548,2993.55,2995.8391,2996.8547,2997.3375,2997.3376,3000.9439,3248.0,3000.9439999999995,5.0,3000.9623,8.0,21.0,261.0,2.0,1.0,1.2,0.3,Time
,,S43,1,女,20,anonymized,Serial_Dependence_U,2023.2.3,Win32,30.030030030027405,,,,,,3000.9626,140.0,8.0,3000.9629,140.0,,,,3004.5369,3005.0243,3004.0099999999998,3004.5368000000003,3001.9524999999994,3004.0099,3005.0243,3005.5179,3005.5179,3009.3859999999995,3441.0,3009.3862,5.0,3009.4054999999994,8.0,22.0,262.0,26.0,1.0,1.0,0.7,Time
,,S43,1,女,20,anonymized,Serial_Dependence_U,2023.2.3,Win32,30.030030030027405,,,,,,3009.4058000000005,215.0,8.0,3009.4059999999995,215.0,,,,3012.7938000000004,3013.278,3012.277,3012.7937,3010.4363000000003,3012.277,3013.278,3013.7944999999995,3013.7944999999995,3017.4666999999995,2923.0,3017.4669,5.0,3017.4861,8.0,23.0,263.0,15.0,1.0,0.8,0.7,Time
,,S43,1,女,20,anonymized,Serial_Dependence_U,2023.2.3,Win32,30.030030030027405,,,,,,3017.4864999999995,53.0,8.0,3017.4866999999995,53.0,,,,3021.4346,3021.9241999999995,3020.9162,3021.4344,3018.4776,3020.9161,3021.9243,3022.4219,3022.422,3026.2424999999994,3401.0,3026.2449,5.0,3026.2584999999995,8.0,24.0,264.0,8.0,1.0,1.4,0.7,Time
,,S43,1,女,20,anonymized,Serial_Dependence_U,2023.2.3,Win32,30.030030030027405,,,,,,3026.2588,185.0,8.0,3026.259,185.0,,,,3030.4353,3030.9519999999998,3029.9138000000003,3030.4352,3027.2651,3029.9137,3030.9521,3031.4387,3031.4388000000004,3035.7739,3858.0,3035.775,5.0,3035.7934999999998,8.0,25.0,265.0,29.0,1.0,1.6,0.7,Time
,,S43,1,女,20,anonymized,Serial_Dependence_U,2023.2.3,Win32,30.030030030027405,,,,,,3035.7939,208.0,8.0,3035.7941,208.0,,,,3039.9895,3040.5077,3039.4731,3039.9893,3036.7932,3039.4731,3040.5077,3040.9926,3040.9928000000004,3045.2697,3800.0,3045.2699,5.0,3045.2892,8.0,26.0,266.0,24.0,1.0,1.6,0.3,Time
,,S43,1,女,20,anonymized,Serial_Dependence_U,2023.2.3,Win32,30.030030030027405,,,,,,3045.2894999999994,229.0,8.0,3045.2897,229.0,,,,3049.2962,3049.7889,3048.7691,3049.2961,3046.2779,3048.769,3049.7889,3050.2941,3050.2941,3054.3729,3705.0,3054.3756,5.0,3054.3917,8.0,27.0,267.0,23.0,1.0,1.4,0.3,Time
,,S43,1,女,20,anonymized,Serial_Dependence_U,2023.2.3,Win32,30.030030030027405,,,,,,3054.392,295.0,8.0,3054.3921,295.0,,,,3058.1997,3058.6899,3057.6903,3058.1997,3055.425,3057.6903,3058.6901000000003,3059.1699,3059.1701000000003,3063.2262,3690.0,3063.228,5.0,3063.2474,8.0,28.0,268.0,12.0,1.0,1.2,0.3,Time
,,S43,1,女,20,anonymized,Serial_Dependence_U,2023.2.3,Win32,30.030030030027405,,,,,,3063.2479,344.0,8.0,3063.2481,344.0,,,,3067.4343000000003,3067.9096,3066.9269,3067.4342,3064.2337,3066.9269,3067.9098000000004,3068.3851,3068.3852,3072.6159999999995,3894.0,3072.6183,5.0,3072.6382,8.0,29.0,269.0,14.0,1.0,1.6,0.3,Time
