Scale_setup.started,Scale_setup.stopped,participant,session,sex,age,date,expName,psychopyVersion,OS,frameRate,Intro.started,Intro.stopped,key_resp_2.keys,key_resp_2.rt,key_resp_2.duration,block.started,direction,Block_id,block.stopped,trial_direction,Block_resp_2.keys,Block_resp_2.rt,Block_resp_2.duration,ITI.started,ITI.stopped,Mask_2.started,Mask_2.stopped,encoding.started,encoding.stopped,Cue.started,Cue.stopped,Response.started,Response.stopped,keyDuration,Feedback_Time.started,FeedbackID_T,Feedback_Time.stopped,trials.thisRepN,trials.thisTrialN,trials.thisN,trials.thisIndex,trials.ran,TimeDur,Coherence1,TrialType
0.0002000000178838,0.0005000000000023,S44,1,女,23,anonymized,Serial_Dependence_U,2023.2.3,Win32,59.523809523799216,,,,,,,,,,,,,,,,,,,,,,,,,,,,,,,,,,,
,,S44,1,女,23,anonymized,Serial_Dependence_U,2023.2.3,Win32,59.523809523799216,127.22670000001789,491.1818000000119,space,363.91620000001785,,,,,,,,,,,,,,,,,,,,,,,,,,,,,,,
,,S44,1,女,23,anonymized,Serial_Dependence_U,2023.2.3,Win32,59.523809523799216,,,,,,491.2025,327.0,0.0,497.296400000006,327.0,s,6.066700000017931,,500.8683000000119,501.3616000000238,500.3521000000238,500.8681000000238,498.319400000006,500.3518000000119,501.361800000012,501.861800000012,501.8621000000238,521.0761000000239,695.0,521.0766000000239,1.0,522.0751000000238,0.0,0.0,0.0,16.0,1.0,1.0,0.7,Time
,,S44,1,女,23,anonymized,Serial_Dependence_U,2023.2.3,Win32,59.523809523799216,,,,,,522.076400000006,78.0,0.0,522.080400000006,78.0,,,,525.4248000000119,525.9239000000059,524.9078000000119,525.4246000000238,523.0758000000119,524.9077000000178,525.9241000000238,526.4235,526.4236000000238,528.9577000000179,1435.0,528.957800000012,5.0,529.9562000000178,0.0,1.0,1.0,5.0,1.0,0.8,0.7,Time
,,S44,1,女,23,anonymized,Serial_Dependence_U,2023.2.3,Win32,59.523809523799216,,,,,,529.9568000000119,339.0,0.0,529.957,339.0,,,,533.5401000000238,534.0382000000178,533.0236000000239,533.54,530.957,533.0233000000119,534.0383000000119,534.5391000000238,534.5392000000179,542.7711000000238,799.0,542.7712000000179,2.0,543.770800000012,0.0,2.0,2.0,21.0,1.0,1.0,0.3,Time
,,S44,1,女,23,anonymized,Serial_Dependence_U,2023.2.3,Win32,59.523809523799216,,,,,,543.7721000000238,156.0,0.0,543.772400000006,156.0,,,,547.5708000000119,548.0702000000178,547.0541000000238,547.5706000000238,544.787900000006,547.0539000000059,548.0702000000178,548.5698000000119,548.5699999999999,553.1862000000178,967.0,553.1863000000119,2.0,554.1851000000238,0.0,3.0,3.0,22.0,1.0,1.2,0.3,Time
,,S44,1,女,23,anonymized,Serial_Dependence_U,2023.2.3,Win32,59.523809523799216,,,,,,554.1858000000119,333.0,0.0,554.1861000000238,333.0,,,,557.7857000000179,558.2844000000059,557.2692000000179,557.7856000000238,555.2029000000059,557.269,558.2845,558.7843000000119,558.7844000000059,567.3003000000119,825.0,567.3004999999999,2.0,568.2996000000238,0.0,4.0,4.0,11.0,1.0,1.0,0.3,Time
,,S44,1,女,23,anonymized,Serial_Dependence_U,2023.2.3,Win32,59.523809523799216,,,,,,568.300400000006,238.0,0.0,568.3008000000119,238.0,,,,572.4998000000119,572.9988000000119,571.9832000000179,572.4996000000239,569.316400000006,571.9831000000238,572.9988000000119,573.4988000000119,573.4988000000119,576.732,1001.0,576.7321000000238,1.0,577.7309000000059,0.0,5.0,5.0,24.0,1.0,1.6,0.3,Time
,,S44,1,女,23,anonymized,Serial_Dependence_U,2023.2.3,Win32,59.523809523799216,,,,,,577.7316000000238,203.0,0.0,577.7322000000179,203.0,,,,581.8815,582.3805,581.3695,581.881300000012,578.7372000000179,581.369400000006,582.3806000000238,582.8804000000059,582.8804000000059,586.653,1517.0,586.6531000000239,2.0,587.645800000012,0.0,6.0,6.0,9.0,1.0,1.6,0.7,Time
,,S44,1,女,23,anonymized,Serial_Dependence_U,2023.2.3,Win32,59.523809523799216,,,,,,587.6467000000179,173.0,0.0,587.6472000000178,173.0,,,,591.635,592.1288000000119,591.1134999999999,591.6349000000059,588.6499000000059,591.113400000006,592.128900000006,592.6286000000239,592.6287000000178,595.2016000000239,2483.0,595.2018000000119,5.0,596.194900000006,0.0,7.0,7.0,3.0,1.0,1.4,0.3,Time
,,S44,1,女,23,anonymized,Serial_Dependence_U,2023.2.3,Win32,59.523809523799216,,,,,,596.1955,327.0,0.0,596.1958000000119,327.0,,,,599.5675,600.0604999999999,599.0506000000238,599.5674000000059,597.2117000000179,599.0504999999999,600.0604999999999,600.5607000000178,600.5607000000178,603.1505,1679.0,603.1506000000238,5.0,604.1433000000119,0.0,8.0,8.0,15.0,1.0,0.8,0.7,Time
,,S44,1,女,23,anonymized,Serial_Dependence_U,2023.2.3,Win32,59.523809523799216,,,,,,604.144,158.0,0.0,604.1443000000119,158.0,,,,608.3153000000119,608.8092000000179,607.7931000000239,608.3151000000238,605.1608000000119,607.793,608.8092000000179,609.3092000000179,609.309300000012,612.4154000000059,2300.0,612.4155,5.0,613.4085,0.0,9.0,9.0,19.0,1.0,1.6,0.7,Time
,,S44,1,女,23,anonymized,Serial_Dependence_U,2023.2.3,Win32,59.523809523799216,,,,,,613.4091000000238,87.0,0.0,613.4094000000059,87.0,,,,617.3919999999999,617.8957000000179,616.880800000012,617.3918000000119,614.4089000000059,616.8807000000179,617.8957000000179,618.3907000000179,618.390800000012,625.1801000000238,2910.0,625.1801000000238,5.0,626.1777000000178,0.0,10.0,10.0,13.0,1.0,1.4,0.3,Time
,,S44,1,女,23,anonymized,Serial_Dependence_U,2023.2.3,Win32,59.523809523799216,,,,,,626.1781000000238,110.0,0.0,626.1782000000179,110.0,,,,629.9565,630.4553000000119,629.4429000000059,629.9563000000119,627.1788000000118,629.4428000000119,630.455400000006,630.9551000000238,630.9551000000238,632.761900000006,1416.0,632.761900000006,4.0,633.7548000000119,0.0,11.0,11.0,2.0,1.0,1.2,0.3,Time
,,S44,1,女,23,anonymized,Serial_Dependence_U,2023.2.3,Win32,59.523809523799216,,,,,,633.7556000000238,81.0,0.0,633.755800000012,81.0,,,,637.959900000006,638.4538000000119,637.4432000000179,637.9598000000119,634.760800000012,637.4431000000238,638.4539000000059,638.958900000006,638.959,641.7768000000119,1700.0,641.7768000000119,4.0,642.7698000000119,0.0,12.0,12.0,14.0,1.0,1.6,0.3,Time
,,S44,1,女,23,anonymized,Serial_Dependence_U,2023.2.3,Win32,59.523809523799216,,,,,,642.7705,346.0,0.0,642.7707000000179,346.0,,,,646.7255,647.2191000000238,646.2088000000119,646.725400000006,643.7704000000059,646.2087000000179,647.2192000000178,647.718900000006,647.7189999999999,650.1918000000119,2026.0,650.1918000000119,5.0,651.184900000006,0.0,13.0,13.0,28.0,1.0,1.4,0.7,Time
,,S44,1,女,23,anonymized,Serial_Dependence_U,2023.2.3,Win32,59.523809523799216,,,,,,651.1854999999999,281.0,0.0,651.1858000000119,281.0,,,,654.5719000000059,655.0672000000179,654.0574000000059,654.5715,652.1913000000119,654.0573000000119,655.0673000000119,655.5672000000179,655.5672000000179,657.7577000000178,1466.0,657.7578000000119,5.0,658.7504000000059,0.0,14.0,14.0,10.0,1.0,0.8,0.3,Time
,,S44,1,女,23,anonymized,Serial_Dependence_U,2023.2.3,Win32,59.523809523799216,,,,,,658.7511000000238,127.0,0.0,658.7514000000059,127.0,,,,662.1335,662.632900000006,661.6223000000119,662.1333000000119,659.7564000000059,661.6221000000238,662.633,663.1326000000238,663.1326000000238,665.0896000000238,1601.0,665.0896000000238,5.0,666.0818000000119,0.0,15.0,15.0,0.0,1.0,0.8,0.3,Time
,,S44,1,女,23,anonymized,Serial_Dependence_U,2023.2.3,Win32,59.523809523799216,,,,,,666.0826000000238,328.0,0.0,666.0829000000059,328.0,,,,670.066,670.5644000000059,669.5545,670.0658000000119,667.0886000000238,669.5544000000059,670.5644000000059,671.0644000000059,671.0644000000059,672.9883000000119,1493.0,672.988400000006,4.0,673.9809000000059,0.0,16.0,16.0,23.0,1.0,1.4,0.3,Time
,,S44,1,女,23,anonymized,Serial_Dependence_U,2023.2.3,Win32,59.523809523799216,,,,,,673.9815,316.0,0.0,673.9819000000059,316.0,,,,677.7341000000238,678.2301000000239,677.22,677.734,674.982,677.22,678.2302000000178,678.7296000000239,678.7296000000239,681.0865,1867.0,681.0865,5.0,682.0796000000238,0.0,17.0,17.0,27.0,1.0,1.2,0.7,Time
,,S44,1,女,23,anonymized,Serial_Dependence_U,2023.2.3,Win32,59.523809523799216,,,,,,682.080400000006,216.0,0.0,682.0807000000178,216.0,,,,685.6296000000239,686.1285,685.1184999999999,685.6295,683.0851000000238,685.118400000006,686.1285,686.6166000000238,686.6167000000179,688.768400000006,1549.0,688.7685,5.0,689.7607000000179,0.0,18.0,18.0,6.0,1.0,1.0,0.7,Time
,,S44,1,女,23,anonymized,Serial_Dependence_U,2023.2.3,Win32,59.523809523799216,,,,,,689.761,327.0,0.0,689.7613000000119,327.0,,,,693.1543000000119,693.644,692.6345,693.1542000000179,690.7673000000119,692.6341000000239,693.6441000000239,694.1439000000059,694.1439000000059,696.7337000000178,1523.0,696.7338000000119,5.0,697.7265,0.0,19.0,19.0,20.0,1.0,0.8,0.3,Time
,,S44,1,女,23,anonymized,Serial_Dependence_U,2023.2.3,Win32,59.523809523799216,,,,,,697.7276000000238,188.0,0.0,697.7279000000059,188.0,,,,701.3102000000179,701.8092000000179,700.7987000000179,701.3101000000238,698.7496000000239,700.7986000000238,701.809300000012,702.3092000000179,702.309300000012,706.7812000000179,2135.0,706.7813000000119,5.0,707.775,0.0,20.0,20.0,26.0,1.0,1.0,0.7,Time
,,S44,1,女,23,anonymized,Serial_Dependence_U,2023.2.3,Win32,59.523809523799216,,,,,,707.7757000000179,306.0,0.0,707.7759000000059,306.0,,,,711.5252000000179,712.024,711.0135,711.525,708.781400000006,711.013400000006,712.0241000000239,712.524,712.524,714.2475,1400.0,714.2476000000238,4.0,715.2402000000178,0.0,21.0,21.0,7.0,1.0,1.2,0.7,Time
,,S44,1,女,23,anonymized,Serial_Dependence_U,2023.2.3,Win32,59.523809523799216,,,,,,715.2408000000119,346.0,0.0,715.2411000000238,346.0,,,,719.2067000000179,719.7057000000178,718.6902000000179,719.2066000000239,716.2572000000179,718.6899999999999,719.7058000000119,720.2057000000178,720.2057000000178,722.5123000000119,2050.0,722.5123000000119,5.0,723.5051000000238,0.0,22.0,22.0,18.0,1.0,1.4,0.7,Time
,,S44,1,女,23,anonymized,Serial_Dependence_U,2023.2.3,Win32,59.523809523799216,,,,,,723.5057000000179,66.0,0.0,723.506,66.0,,,,727.461,727.9543000000119,726.9561000000239,727.460900000006,724.5221000000238,726.956,727.954400000006,728.4546000000238,728.4547000000179,730.627900000006,1534.0,730.627900000006,4.0,731.6201000000239,0.0,23.0,23.0,8.0,1.0,1.4,0.7,Time
,,S44,1,女,23,anonymized,Serial_Dependence_U,2023.2.3,Win32,59.523809523799216,,,,,,731.6206000000238,62.0,0.0,731.6208000000119,62.0,,,,735.7871000000238,736.286,735.2761000000238,735.786900000006,732.6417000000179,735.2759000000059,736.286,736.7855,736.7857000000179,740.3921000000238,1800.0,740.3922000000179,4.0,741.3846000000239,0.0,24.0,24.0,29.0,1.0,1.6,0.7,Time
,,S44,1,女,23,anonymized,Serial_Dependence_U,2023.2.3,Win32,59.523809523799216,,,,,,741.385,143.0,0.0,741.3852000000179,143.0,,,,745.584400000006,746.0841000000238,745.074,745.584400000006,742.406900000006,745.074,746.0841000000238,746.5838000000119,746.583900000006,749.4227000000178,1428.0,749.4227000000178,2.0,750.416400000006,0.0,25.0,25.0,4.0,1.0,1.6,0.3,Time
,,S44,1,女,23,anonymized,Serial_Dependence_U,2023.2.3,Win32,59.523809523799216,,,,,,750.4168000000119,48.0,0.0,750.416900000006,48.0,,,,753.9997000000178,754.4992000000178,753.4879999999999,753.9996000000239,751.4197000000179,753.487900000006,754.4993000000119,754.9988000000119,754.9988000000119,757.2542000000178,1182.0,757.2543000000119,4.0,758.2487000000178,0.0,26.0,26.0,1.0,1.0,1.0,0.3,Time
,,S44,1,女,23,anonymized,Serial_Dependence_U,2023.2.3,Win32,59.523809523799216,,,,,,758.2492000000178,71.0,0.0,758.249400000006,71.0,,,,762.0198000000119,762.5142000000178,761.5154000000059,762.0198000000119,759.2488000000119,761.5153000000118,762.5142000000178,763.0143000000119,763.0143000000119,764.3026000000239,1232.0,764.3027000000178,3.0,765.2972000000178,0.0,27.0,27.0,12.0,1.0,1.2,0.3,Time
,,S44,1,女,23,anonymized,Serial_Dependence_U,2023.2.3,Win32,59.523809523799216,,,,,,765.2976000000239,95.0,0.0,765.2978000000119,95.0,,,,769.0521000000239,769.546400000006,768.5356000000238,769.052,766.2976000000239,768.5356000000238,769.546400000006,770.0466000000238,770.0466000000238,771.8683000000119,1100.0,771.868400000006,2.0,772.8625,0.0,28.0,28.0,17.0,1.0,1.2,0.7,Time
,,S44,1,女,23,anonymized,Serial_Dependence_U,2023.2.3,Win32,59.523809523799216,,,,,,772.8628000000119,53.0,0.0,772.8629999999999,53.0,,,,776.2289999999999,776.728400000006,775.7174000000059,776.2289999999999,773.8673000000119,775.7174000000059,776.7284999999999,777.2162000000178,777.2163000000119,778.684,1450.0,778.6841000000238,5.0,779.678,0.0,29.0,29.0,25.0,1.0,0.8,0.7,Time
,,S44,1,女,23,anonymized,Serial_Dependence_U,2023.2.3,Win32,59.523809523799216,,,,,,779.6783000000119,163.0,1.0,853.4116000000238,163.0,s,73.68790000000592,,857.4039000000059,857.898,856.899,857.4038000000119,854.4327000000179,856.8989000000059,857.8981000000239,858.3988000000119,858.3988000000119,860.337800000012,616.0,860.3379000000059,1.0,860.3507000000178,1.0,0.0,30.0,3.0,1.0,1.4,0.3,Time
,,S44,1,女,23,anonymized,Serial_Dependence_U,2023.2.3,Win32,59.523809523799216,,,,,,860.3514000000059,153.0,1.0,860.3525,153.0,,,,864.3185,864.8129000000059,863.8007000000179,864.318300000012,861.3538000000119,863.8006000000238,864.8129000000059,865.3134000000059,865.3135,866.0851000000238,665.0,866.0851000000238,1.0,866.0929000000059,1.0,1.0,31.0,28.0,1.0,1.4,0.7,Time
,,S44,1,女,23,anonymized,Serial_Dependence_U,2023.2.3,Win32,59.523809523799216,,,,,,866.0932000000179,241.0,1.0,866.0933000000119,241.0,,,,870.0965,870.5951000000239,869.5857000000178,870.0964000000059,867.114,869.585400000006,870.5951000000239,871.095400000006,871.0955,872.3852000000179,816.0,872.3853000000119,1.0,872.4004000000059,1.0,2.0,32.0,23.0,1.0,1.4,0.3,Time
,,S44,1,女,23,anonymized,Serial_Dependence_U,2023.2.3,Win32,59.523809523799216,,,,,,872.4007000000179,221.0,1.0,872.4009000000059,221.0,,,,875.7798000000118,876.2782000000178,875.2683000000119,875.7796000000238,873.4009000000059,875.2681000000239,876.2782000000178,876.7777000000178,876.7777000000178,878.2011000000239,800.0,878.2012000000178,3.0,878.2163000000119,1.0,3.0,33.0,20.0,1.0,0.8,0.3,Time
,,S44,1,女,23,anonymized,Serial_Dependence_U,2023.2.3,Win32,59.523809523799216,,,,,,878.2166000000238,1.0,1.0,878.2167000000179,1.0,,,,881.5948000000119,882.0939999999999,881.0834000000059,881.5947000000178,879.217,881.0832000000179,882.0939999999999,882.5938000000119,882.593900000006,883.4669000000059,748.0,883.467,2.0,883.481,1.0,4.0,34.0,10.0,1.0,0.8,0.3,Time
,,S44,1,女,23,anonymized,Serial_Dependence_U,2023.2.3,Win32,59.523809523799216,,,,,,883.4812000000179,216.0,1.0,883.4813000000119,216.0,,,,887.0438000000119,887.542400000006,886.5302000000179,887.0436000000238,884.4941000000239,886.5301000000238,887.5425,888.041900000006,888.041900000006,888.7991000000238,584.0,888.7992000000179,1.0,888.8135,1.0,5.0,35.0,6.0,1.0,1.0,0.7,Time
,,S44,1,女,23,anonymized,Serial_Dependence_U,2023.2.3,Win32,59.523809523799216,,,,,,888.8137000000179,104.0,1.0,888.813800000012,104.0,,,,892.3798000000119,892.8746000000239,891.8597000000178,892.3797000000179,889.814900000006,891.8596000000239,892.8747000000178,893.38,893.3801000000238,894.3654000000059,867.0,894.3655,2.0,894.3792000000178,1.0,6.0,36.0,26.0,1.0,1.0,0.7,Time
,,S44,1,女,23,anonymized,Serial_Dependence_U,2023.2.3,Win32,59.523809523799216,,,,,,894.3797000000179,90.0,1.0,894.3798000000119,90.0,,,,897.7253000000119,898.2243000000119,897.2139999999999,897.7252000000178,895.380800000012,897.213900000006,898.224400000006,898.7272000000178,898.7272000000178,899.6645000000001,777.0,899.6646000000237,3.0,899.6793000000118,1.0,7.0,37.0,25.0,1.0,0.8,0.7,Time
,,S44,1,女,23,anonymized,Serial_Dependence_U,2023.2.3,Win32,59.523809523799216,,,,,,899.6795,344.0,1.0,899.6796000000238,344.0,,,,903.8443000000118,904.339900000006,903.3277000000178,903.844100000024,900.6916000000238,903.3276000000236,904.339900000006,904.8398000000118,904.8398000000118,905.6626000000238,733.0,905.6627000000178,1.0,905.676800000012,1.0,8.0,38.0,19.0,1.0,1.6,0.7,Time
,,S44,1,女,23,anonymized,Serial_Dependence_U,2023.2.3,Win32,59.523809523799216,,,,,,905.677,34.0,1.0,905.677,34.0,,,,909.027100000024,909.522300000012,908.5115,909.027,906.6736000000236,908.511300000012,909.522400000006,910.0218000000118,910.0218000000118,910.7965,384.0,910.7965,1.0,910.8108000000118,1.0,9.0,39.0,5.0,1.0,0.8,0.7,Time
,,S44,1,女,23,anonymized,Serial_Dependence_U,2023.2.3,Win32,59.523809523799216,,,,,,910.8112000000178,177.0,1.0,910.8112000000178,177.0,,,,914.955600000024,915.4541000000238,914.444200000018,914.955400000006,911.8112000000178,914.444,915.4541000000238,915.954200000018,915.954200000018,917.543900000006,999.0,917.544,1.0,917.5566000000238,1.0,10.0,40.0,9.0,1.0,1.6,0.7,Time
,,S44,1,女,23,anonymized,Serial_Dependence_U,2023.2.3,Win32,59.523809523799216,,,,,,917.5567000000178,151.0,1.0,917.556900000006,151.0,,,,921.337300000012,921.836800000012,920.826100000024,921.3371000000238,918.559900000006,920.826,921.836800000012,922.3367000000178,922.336800000012,923.327300000012,851.0,923.3275,2.0,923.343400000006,1.0,11.0,41.0,12.0,1.0,1.2,0.3,Time
,,S44,1,女,23,anonymized,Serial_Dependence_U,2023.2.3,Win32,59.523809523799216,,,,,,923.343900000006,265.0,1.0,923.344100000024,265.0,,,,926.736700000018,927.2355,926.225800000012,926.7366000000238,924.353800000012,926.225700000018,927.2355,927.739200000018,927.739200000018,929.676300000012,579.0,929.676300000012,2.0,929.689100000024,1.0,12.0,42.0,0.0,1.0,0.8,0.3,Time
,,S44,1,女,23,anonymized,Serial_Dependence_U,2023.2.3,Win32,59.523809523799216,,,,,,929.6893000000118,64.0,1.0,929.689400000006,64.0,,,,933.6555,934.1513000000118,933.141400000006,933.655400000006,930.7026000000236,933.1412000000178,934.1513000000118,934.651100000024,934.6512000000178,935.574400000006,648.0,935.5745,1.0,935.588200000018,1.0,13.0,43.0,18.0,1.0,1.4,0.7,Time
,,S44,1,女,23,anonymized,Serial_Dependence_U,2023.2.3,Win32,59.523809523799216,,,,,,935.5885,83.0,1.0,935.5885,83.0,,,,939.772700000018,940.266400000006,939.256800000012,939.772600000024,936.584900000006,939.256700000018,940.2665,940.766400000006,940.7665,941.489200000018,682.0,941.489200000018,1.0,941.5025,1.0,14.0,44.0,14.0,1.0,1.6,0.3,Time
,,S44,1,女,23,anonymized,Serial_Dependence_U,2023.2.3,Win32,59.523809523799216,,,,,,941.502900000006,124.0,1.0,941.5031000000238,124.0,,,,945.703400000006,946.199100000024,945.189100000024,945.703300000012,942.522700000018,945.189,946.1992000000178,946.699,946.699,947.722400000006,633.0,947.722400000006,1.0,947.736800000012,1.0,15.0,45.0,4.0,1.0,1.6,0.3,Time
,,S44,1,女,23,anonymized,Serial_Dependence_U,2023.2.3,Win32,59.523809523799216,,,,,,947.737,131.0,1.0,947.737100000024,131.0,,,,951.304900000006,951.797900000006,950.802300000012,951.304800000012,948.7365,950.8022000000178,951.798,952.2976000000236,952.2977000000178,953.355800000012,961.0,953.355900000006,3.0,953.3691000000238,1.0,16.0,46.0,11.0,1.0,1.0,0.3,Time
,,S44,1,女,23,anonymized,Serial_Dependence_U,2023.2.3,Win32,59.523809523799216,,,,,,953.369400000006,174.0,1.0,953.3695,174.0,,,,956.9034000000058,957.396700000018,956.402200000018,956.903300000012,954.365200000018,956.402100000024,957.3968000000118,957.897,957.8971000000238,958.9369000000058,817.0,958.9371000000236,2.0,958.9515,1.0,17.0,47.0,16.0,1.0,1.0,0.7,Time
,,S44,1,女,23,anonymized,Serial_Dependence_U,2023.2.3,Win32,59.523809523799216,,,,,,958.952,58.0,1.0,958.9521000000238,58.0,,,,962.7135,963.212300000012,962.2021000000238,962.713400000006,959.967400000006,962.2021000000238,963.212400000006,963.712300000012,963.712400000006,964.7027000000178,917.0,964.7028000000118,2.0,964.7155,1.0,18.0,48.0,17.0,1.0,1.2,0.7,Time
,,S44,1,女,23,anonymized,Serial_Dependence_U,2023.2.3,Win32,59.523809523799216,,,,,,964.715700000018,47.0,1.0,964.715700000018,47.0,,,,968.3011000000238,968.794800000012,967.784900000006,968.300900000006,965.713,967.784800000012,968.794800000012,969.295100000024,969.295100000024,970.034700000018,700.0,970.034700000018,1.0,970.047900000006,1.0,19.0,49.0,1.0,1.0,1.0,0.3,Time
,,S44,1,女,23,anonymized,Serial_Dependence_U,2023.2.3,Win32,59.523809523799216,,,,,,970.048100000024,4.0,1.0,970.048200000018,4.0,,,,973.4175,973.910700000018,972.9006000000238,973.417300000012,971.050700000018,972.9005,973.910700000018,974.413900000006,974.413900000006,975.1337000000178,650.0,975.133800000012,2.0,975.146900000006,1.0,20.0,50.0,15.0,1.0,0.8,0.7,Time
,,S44,1,女,23,anonymized,Serial_Dependence_U,2023.2.3,Win32,59.523809523799216,,,,,,975.1471000000238,205.0,1.0,975.1472000000178,205.0,,,,979.332300000012,979.826200000018,978.8277000000178,979.3322000000178,976.1606000000238,978.8275,979.826300000012,980.326200000018,980.326200000018,981.1175,751.0,981.1175,1.0,981.130300000012,1.0,21.0,51.0,24.0,1.0,1.6,0.3,Time
,,S44,1,女,23,anonymized,Serial_Dependence_U,2023.2.3,Win32,59.523809523799216,,,,,,981.1305,100.0,1.0,981.1306000000238,100.0,,,,985.114900000006,985.6088000000118,984.593,985.114900000006,982.1271000000238,984.593,985.6088000000118,986.108700000018,986.1088000000118,987.065100000024,884.0,987.065100000024,1.0,987.08,1.0,22.0,52.0,13.0,1.0,1.4,0.3,Time
,,S44,1,女,23,anonymized,Serial_Dependence_U,2023.2.3,Win32,59.523809523799216,,,,,,987.0802000000178,132.0,1.0,987.080300000012,132.0,,,,991.046200000018,991.541,990.5311000000238,991.046100000024,988.0811000000238,990.531,991.541,992.040900000006,992.040900000006,993.080800000012,550.0,993.080800000012,1.0,993.0956000000238,1.0,23.0,53.0,8.0,1.0,1.4,0.7,Time
,,S44,1,女,23,anonymized,Serial_Dependence_U,2023.2.3,Win32,59.523809523799216,,,,,,993.095800000012,331.0,1.0,993.095900000006,331.0,,,,996.891,997.389900000006,996.379300000012,996.890900000006,994.108400000006,996.379300000012,997.389900000006,997.8896000000238,997.889700000018,999.663200000018,762.0,999.663300000012,1.0,999.678,1.0,24.0,54.0,22.0,1.0,1.2,0.3,Time
,,S44,1,女,23,anonymized,Serial_Dependence_U,2023.2.3,Win32,59.523809523799216,,,,,,999.678300000012,142.0,1.0,999.678300000012,142.0,,,,1003.4616000000236,1003.9551000000238,1002.9451000000238,1003.4615,1000.6736000000236,1002.944900000006,1003.9551000000238,1004.4551000000238,1004.4551000000238,1005.494900000006,850.0,1005.495,2.0,1005.5087000000178,1.0,25.0,55.0,2.0,1.0,1.2,0.3,Time
,,S44,1,女,23,anonymized,Serial_Dependence_U,2023.2.3,Win32,59.523809523799216,,,,,,1005.508900000006,130.0,1.0,1005.509100000024,130.0,,,,1009.676400000006,1010.170900000006,1009.1596000000238,1009.6762000000178,1006.522600000024,1009.1595,1010.171,1010.6706000000238,1010.670700000018,1011.6938000000118,682.0,1011.6938000000118,1.0,1011.706,1.0,26.0,56.0,29.0,1.0,1.6,0.7,Time
,,S44,1,女,23,anonymized,Serial_Dependence_U,2023.2.3,Win32,59.523809523799216,,,,,,1011.7062000000178,181.0,1.0,1011.706300000012,181.0,,,,1015.4431000000238,1015.9365,1014.937800000012,1015.443,1012.7048000000118,1014.937700000018,1015.936600000024,1016.436400000006,1016.436400000006,1018.2931000000236,966.0,1018.293300000012,2.0,1018.307200000018,1.0,27.0,57.0,27.0,1.0,1.2,0.7,Time
,,S44,1,女,23,anonymized,Serial_Dependence_U,2023.2.3,Win32,59.523809523799216,,,,,,1018.3076000000236,41.0,1.0,1018.3076000000236,41.0,,,,1021.886400000006,1022.385200000018,1021.375300000012,1021.886300000012,1019.3091000000238,1021.375200000018,1022.385300000012,1022.885300000012,1022.885400000006,1025.0753000000118,1053.0,1025.075400000006,4.0,1025.088200000018,1.0,28.0,58.0,21.0,1.0,1.0,0.3,Time
,,S44,1,女,23,anonymized,Serial_Dependence_U,2023.2.3,Win32,59.523809523799216,,,,,,1025.088600000024,355.0,1.0,1025.0887000000178,355.0,,,,1028.8354000000058,1029.333900000006,1028.3236000000238,1028.835200000018,1026.091,1028.3235,1029.333900000006,1029.821600000024,1029.821600000024,1032.055800000012,1200.0,1032.055900000006,3.0,1032.064800000012,1.0,29.0,59.0,7.0,1.0,1.2,0.7,Time
,,S44,1,女,23,anonymized,Serial_Dependence_U,2023.2.3,Win32,59.523809523799216,,,,,,1032.065100000024,123.0,2.0,1067.771200000018,123.0,s,35.683099999994056,,1071.9275,1072.4262000000178,1071.4165,1071.927300000012,1068.777900000006,1071.416300000012,1072.4262000000178,1072.9262000000178,1072.9262000000178,1074.865900000006,1699.0,1074.866,4.0,1074.878300000012,2.0,0.0,60.0,19.0,1.0,1.6,0.7,Time
,,S44,1,女,23,anonymized,Serial_Dependence_U,2023.2.3,Win32,59.523809523799216,,,,,,1074.8785,340.0,2.0,1074.879700000018,340.0,,,,1078.626300000012,1079.1255,1078.112900000006,1078.626200000018,1075.8765,1078.112800000012,1079.1255,1079.6251000000238,1079.625200000018,1081.648700000018,1274.0,1081.648800000012,4.0,1081.662800000012,2.0,1.0,61.0,27.0,1.0,1.2,0.7,Time
,,S44,1,女,23,anonymized,Serial_Dependence_U,2023.2.3,Win32,59.523809523799216,,,,,,1081.663100000024,194.0,2.0,1081.663100000024,194.0,,,,1085.0586000000235,1085.557400000006,1084.5476000000235,1085.058400000006,1082.675700000018,1084.5474000000058,1085.557400000006,1086.0577000000178,1086.057800000012,1086.7315,534.0,1086.7315,1.0,1086.745,2.0,2.0,62.0,20.0,1.0,0.8,0.3,Time
,,S44,1,女,23,anonymized,Serial_Dependence_U,2023.2.3,Win32,59.523809523799216,,,,,,1086.7452000000178,335.0,2.0,1086.745300000012,335.0,,,,1090.7245,1091.223300000012,1090.2075,1090.724400000006,1087.741400000006,1090.207400000006,1091.223300000012,1091.7231000000238,1091.723200000018,1094.012700000018,426.0,1094.012900000006,1.0,1094.0262000000178,2.0,3.0,63.0,13.0,1.0,1.4,0.3,Time
,,S44,1,女,23,anonymized,Serial_Dependence_U,2023.2.3,Win32,59.523809523799216,,,,,,1094.026400000006,173.0,2.0,1094.0266000000238,173.0,,,,1097.806200000018,1098.304900000006,1097.294700000018,1097.806,1095.027100000024,1097.2946000000238,1098.305,1098.804900000006,1098.805,1099.562,468.0,1099.562,1.0,1099.577,2.0,4.0,64.0,12.0,1.0,1.2,0.3,Time
,,S44,1,女,23,anonymized,Serial_Dependence_U,2023.2.3,Win32,59.523809523799216,,,,,,1099.577400000006,316.0,2.0,1099.5775,316.0,,,,1102.938800000012,1103.437800000012,1102.427800000012,1102.9386000000238,1100.5891000000238,1102.427700000018,1103.437900000006,1103.9376000000238,1103.937800000012,1105.560600000024,692.0,1105.560700000018,2.0,1105.574400000006,2.0,5.0,65.0,25.0,1.0,0.8,0.7,Time
,,S44,1,女,23,anonymized,Serial_Dependence_U,2023.2.3,Win32,59.523809523799216,,,,,,1105.574700000018,32.0,2.0,1105.574800000012,32.0,,,,1109.759400000006,1110.2531000000238,1109.254600000024,1109.759300000012,1106.587900000006,1109.254400000006,1110.2531000000238,1110.7531000000238,1110.7532000000178,1112.092800000012,616.0,1112.092900000006,1.0,1112.1071000000238,2.0,6.0,66.0,4.0,1.0,1.6,0.3,Time
,,S44,1,女,23,anonymized,Serial_Dependence_U,2023.2.3,Win32,59.523809523799216,,,,,,1112.107400000006,359.0,2.0,1112.1075,359.0,,,,1115.903100000024,1116.402200000018,1115.391900000006,1115.903,1113.1201000000235,1115.391800000012,1116.402200000018,1116.902200000018,1116.902200000018,1118.209100000024,667.0,1118.209200000018,1.0,1118.2235,2.0,7.0,67.0,22.0,1.0,1.2,0.3,Time
,,S44,1,女,23,anonymized,Serial_Dependence_U,2023.2.3,Win32,59.523809523799216,,,,,,1118.2238000000118,153.0,2.0,1118.223900000006,153.0,,,,1122.424300000012,1122.917700000018,1121.907300000012,1122.424200000018,1119.235800000012,1121.9072000000178,1122.917800000012,1123.417300000012,1123.417300000012,1125.057400000006,501.0,1125.0575,1.0,1125.067300000012,2.0,8.0,68.0,14.0,1.0,1.6,0.3,Time
,,S44,1,女,23,anonymized,Serial_Dependence_U,2023.2.3,Win32,59.523809523799216,,,,,,1125.0676000000235,303.0,2.0,1125.067800000012,303.0,,,,1129.005700000018,1129.4997000000178,1128.500900000006,1129.0056000000238,1126.0695,1128.5008000000118,1129.4997000000178,1129.9995,1129.9995,1131.804900000006,900.0,1131.805,1.0,1131.8145,2.0,9.0,69.0,18.0,1.0,1.4,0.7,Time
,,S44,1,女,23,anonymized,Serial_Dependence_U,2023.2.3,Win32,59.523809523799216,,,,,,1131.814800000012,217.0,2.0,1131.815100000024,217.0,,,,1135.599600000024,1136.098700000018,1135.088200000018,1135.599600000024,1132.821600000024,1135.0881000000238,1136.098700000018,1136.598700000018,1136.598700000018,1137.0731000000235,1.0,1137.073400000006,1.0,1137.086800000012,2.0,10.0,70.0,2.0,1.0,1.2,0.3,Time
,,S44,1,女,23,anonymized,Serial_Dependence_U,2023.2.3,Win32,59.523809523799216,,,,,,1137.087,178.0,2.0,1137.0871000000238,178.0,,,,1141.248200000018,1141.7472000000178,1140.7373000000118,1141.248,1138.104900000006,1140.7372000000178,1141.7472000000178,1142.247700000018,1142.247800000012,1143.971,1050.0,1143.971100000024,1.0,1143.9831000000238,2.0,11.0,71.0,9.0,1.0,1.6,0.7,Time
,,S44,1,女,23,anonymized,Serial_Dependence_U,2023.2.3,Win32,59.523809523799216,,,,,,1143.983400000006,12.0,2.0,1143.983400000006,12.0,,,,1147.5308000000118,1148.029900000006,1147.0197000000178,1147.5307000000178,1144.9818000000118,1147.0196000000235,1148.03,1148.5298000000118,1148.5298000000118,1150.169900000006,501.0,1150.17,1.0,1150.1826000000235,2.0,12.0,72.0,16.0,1.0,1.0,0.7,Time
,,S44,1,女,23,anonymized,Serial_Dependence_U,2023.2.3,Win32,59.523809523799216,,,,,,1150.1827000000178,346.0,2.0,1150.182800000012,346.0,,,,1153.578600000024,1154.0788000000118,1153.066800000012,1153.578400000006,1151.1855,1153.066800000012,1154.0788000000118,1154.5785,1154.5785,1155.768800000012,517.0,1155.768900000006,1.0,1155.7822000000178,2.0,13.0,73.0,10.0,1.0,0.8,0.3,Time
,,S44,1,女,23,anonymized,Serial_Dependence_U,2023.2.3,Win32,59.523809523799216,,,,,,1155.7825,206.0,2.0,1155.7825,206.0,,,,1159.745300000012,1160.244400000006,1159.2325,1159.7452000000178,1156.8011000000238,1159.232300000012,1160.2445,1160.743900000006,1160.744,1162.417800000012,817.0,1162.417800000012,1.0,1162.4293000000118,2.0,14.0,74.0,28.0,1.0,1.4,0.7,Time
,,S44,1,女,23,anonymized,Serial_Dependence_U,2023.2.3,Win32,59.523809523799216,,,,,,1162.4295,56.0,2.0,1162.4296000000238,56.0,,,,1166.610600000024,1167.1095,1166.100300000012,1166.610400000006,1163.434,1166.1001000000238,1167.109600000024,1167.609600000024,1167.609700000018,1169.016700000018,1150.0,1169.016800000012,2.0,1169.0286000000235,2.0,15.0,75.0,24.0,1.0,1.6,0.3,Time
,,S44,1,女,23,anonymized,Serial_Dependence_U,2023.2.3,Win32,59.523809523799216,,,,,,1169.028800000012,79.0,2.0,1169.028900000006,79.0,,,,1172.998800000012,1173.4918000000118,1172.493,1172.9987000000178,1170.026700000018,1172.492900000006,1173.491900000006,1173.992,1173.992,1174.9315,877.0,1174.9316000000238,1.0,1174.945400000006,2.0,16.0,76.0,3.0,1.0,1.4,0.3,Time
,,S44,1,女,23,anonymized,Serial_Dependence_U,2023.2.3,Win32,59.523809523799216,,,,,,1174.945600000024,337.0,2.0,1174.945600000024,337.0,,,,1179.1081000000238,1179.607400000006,1178.597600000024,1179.108,1175.9641000000238,1178.597400000006,1179.607400000006,1180.107200000018,1180.107200000018,1181.7641000000235,867.0,1181.7641000000235,1.0,1181.7765,2.0,17.0,77.0,29.0,1.0,1.6,0.7,Time
,,S44,1,女,23,anonymized,Serial_Dependence_U,2023.2.3,Win32,59.523809523799216,,,,,,1181.776800000012,324.0,2.0,1181.776900000006,324.0,,,,1185.163,1185.656300000012,1184.6458000000118,1185.162900000006,1182.7745,1184.6457000000178,1185.656300000012,1186.156200000018,1186.156400000006,1187.547200000018,851.0,1187.547200000018,4.0,1187.562,2.0,18.0,78.0,0.0,1.0,0.8,0.3,Time
,,S44,1,女,23,anonymized,Serial_Dependence_U,2023.2.3,Win32,59.523809523799216,,,,,,1187.562300000012,140.0,2.0,1187.562300000012,140.0,,,,1191.110400000006,1191.6046000000238,1190.595900000006,1191.110300000012,1188.5567000000178,1190.5957000000178,1191.6046000000238,1192.105100000024,1192.105200000018,1193.095100000024,810.0,1193.095200000018,2.0,1193.110300000012,2.0,19.0,79.0,6.0,1.0,1.0,0.7,Time
,,S44,1,女,23,anonymized,Serial_Dependence_U,2023.2.3,Win32,59.523809523799216,,,,,,1193.1105,227.0,2.0,1193.110600000024,227.0,,,,1196.871800000012,1197.3711000000235,1196.360700000018,1196.871700000018,1194.127900000006,1196.360600000024,1197.3711000000235,1197.870800000012,1197.870800000012,1198.9782000000178,1001.0,1198.9782000000178,2.0,1198.990800000012,2.0,20.0,80.0,7.0,1.0,1.2,0.7,Time
,,S44,1,女,23,anonymized,Serial_Dependence_U,2023.2.3,Win32,59.523809523799216,,,,,,1198.991,279.0,2.0,1198.9911000000238,279.0,,,,1202.971,1203.47,1202.454400000006,1202.970900000006,1199.988400000006,1202.454300000012,1203.47,1203.9695,1203.9695,1205.209800000012,1117.0,1205.209900000006,2.0,1205.224700000018,2.0,21.0,81.0,23.0,1.0,1.4,0.3,Time
,,S44,1,女,23,anonymized,Serial_Dependence_U,2023.2.3,Win32,59.523809523799216,,,,,,1205.2249000000058,234.0,2.0,1205.225,234.0,,,,1209.169800000012,1209.668900000006,1208.6585,1209.1696000000238,1206.2205,1208.658400000006,1209.668900000006,1210.168800000012,1210.168900000006,1211.474800000012,624.0,1211.475,1.0,1211.4883000000118,2.0,22.0,82.0,8.0,1.0,1.4,0.7,Time
,,S44,1,女,23,anonymized,Serial_Dependence_U,2023.2.3,Win32,59.523809523799216,,,,,,1211.4886000000238,259.0,2.0,1211.4886000000238,259.0,,,,1215.068600000024,1215.567900000006,1214.557200000018,1215.0685,1212.4861000000235,1214.557100000024,1215.567900000006,1216.067300000012,1216.067400000006,1217.6225,593.0,1217.6226000000238,1.0,1217.629700000018,2.0,23.0,83.0,11.0,1.0,1.0,0.3,Time
,,S44,1,女,23,anonymized,Serial_Dependence_U,2023.2.3,Win32,59.523809523799216,,,,,,1217.629900000006,106.0,2.0,1217.629900000006,106.0,,,,1221.2176000000238,1221.716700000018,1220.7005,1221.2175,1218.638400000006,1220.700400000006,1221.716800000012,1222.2165,1222.2166000000238,1224.238100000024,533.0,1224.238200000018,1.0,1224.248,2.0,24.0,84.0,1.0,1.0,1.0,0.3,Time
,,S44,1,女,23,anonymized,Serial_Dependence_U,2023.2.3,Win32,59.523809523799216,,,,,,1224.248200000018,105.0,2.0,1224.248400000006,105.0,,,,1227.816300000012,1228.3156000000238,1227.303400000006,1227.816100000024,1225.266700000018,1227.303300000012,1228.3157000000178,1228.815400000006,1228.8155,1230.1557000000178,617.0,1230.1558000000118,1.0,1230.167600000024,2.0,25.0,85.0,26.0,1.0,1.0,0.7,Time
,,S44,1,女,23,anonymized,Serial_Dependence_U,2023.2.3,Win32,59.523809523799216,,,,,,1230.167800000012,153.0,2.0,1230.167800000012,153.0,,,,1233.904200000018,1234.403300000012,1233.398800000012,1233.9041000000238,1231.1658000000118,1233.398700000018,1234.403300000012,1234.8975,1234.897600000024,1235.987700000018,550.0,1235.987800000012,1.0,1236.001400000006,2.0,26.0,86.0,17.0,1.0,1.2,0.7,Time
,,S44,1,女,23,anonymized,Serial_Dependence_U,2023.2.3,Win32,59.523809523799216,,,,,,1236.001600000024,212.0,2.0,1236.0017000000178,212.0,,,,1239.586100000024,1240.079600000024,1239.069900000006,1239.586,1236.998100000024,1239.069700000018,1240.079700000018,1240.5801000000238,1240.5802000000178,1241.7701000000238,533.0,1241.770200000018,1.0,1241.782600000024,2.0,27.0,87.0,21.0,1.0,1.0,0.3,Time
,,S44,1,女,23,anonymized,Serial_Dependence_U,2023.2.3,Win32,59.523809523799216,,,,,,1241.782800000012,354.0,2.0,1241.782800000012,354.0,,,,1245.151700000018,1245.6506000000238,1244.634,1245.151700000018,1242.796800000012,1244.633900000006,1245.650700000018,1246.145400000006,1246.1455,1246.7695,484.0,1246.7695,1.0,1246.7835,2.0,28.0,88.0,15.0,1.0,0.8,0.7,Time
,,S44,1,女,23,anonymized,Serial_Dependence_U,2023.2.3,Win32,59.523809523799216,,,,,,1246.783900000006,175.0,2.0,1246.783900000006,175.0,,,,1250.134,1250.628,1249.618,1250.133900000006,1247.7829000000058,1249.617900000006,1250.6281000000238,1251.1281000000238,1251.1282000000178,1251.950100000024,582.0,1251.950100000024,2.0,1251.9575,2.0,29.0,89.0,5.0,1.0,0.8,0.7,Time
,,S44,1,女,23,anonymized,Serial_Dependence_U,2023.2.3,Win32,59.523809523799216,,,,,,1251.957700000018,315.0,3.0,1320.513800000012,315.0,s,68.52529999998205,,1324.682100000024,1325.180700000018,1324.1717000000178,1324.682,1321.536400000006,1324.1716000000238,1325.180700000018,1325.681800000012,1325.681900000006,1327.5215,1024.0,1327.521600000024,1.0,1327.536400000006,3.0,0.0,90.0,9.0,1.0,1.6,0.7,Time
,,S44,1,女,23,anonymized,Serial_Dependence_U,2023.2.3,Win32,59.523809523799216,,,,,,1327.5366000000238,28.0,3.0,1327.5375,28.0,,,,1331.1075,1331.596900000006,1330.586900000006,1331.107300000012,1328.554,1330.586900000006,1331.597,1332.0966000000235,1332.0966000000235,1333.6365,559.0,1333.6367000000178,1.0,1333.6502000000178,3.0,1.0,91.0,6.0,1.0,1.0,0.7,Time
,,S44,1,女,23,anonymized,Serial_Dependence_U,2023.2.3,Win32,59.523809523799216,,,,,,1333.6505,81.0,3.0,1333.6506000000238,81.0,,,,1337.652400000006,1338.145600000024,1337.136300000012,1337.6523000000118,1334.669800000012,1337.1361000000238,1338.145600000024,1338.644900000006,1338.644900000006,1340.2351000000235,533.0,1340.2352000000178,1.0,1340.250400000006,3.0,2.0,92.0,13.0,1.0,1.4,0.3,Time
,,S44,1,女,23,anonymized,Serial_Dependence_U,2023.2.3,Win32,59.523809523799216,,,,,,1340.250900000006,86.0,3.0,1340.251200000018,86.0,,,,1343.795400000006,1344.294800000012,1343.283800000012,1343.7953000000118,1341.2511000000238,1343.283700000018,1344.294800000012,1344.794,1344.794,1346.185,433.0,1346.1851000000238,1.0,1346.1983000000118,3.0,3.0,93.0,16.0,1.0,1.0,0.7,Time
,,S44,1,女,23,anonymized,Serial_Dependence_U,2023.2.3,Win32,59.523809523799216,,,,,,1346.1985,344.0,3.0,1346.1985,344.0,,,,1349.9951000000235,1350.498,1349.4782000000178,1349.995,1347.211800000012,1349.478,1350.498,1350.994,1350.994,1351.8008000000118,550.0,1351.800900000006,1.0,1351.8132000000178,3.0,4.0,94.0,12.0,1.0,1.2,0.3,Time
,,S44,1,女,23,anonymized,Serial_Dependence_U,2023.2.3,Win32,59.523809523799216,,,,,,1351.8135,194.0,3.0,1351.8136000000238,194.0,,,,1355.999200000018,1356.492300000012,1355.493700000018,1355.999,1352.831600000024,1355.493700000018,1356.492400000006,1356.9925,1356.9925,1357.883,484.0,1357.883100000024,1.0,1357.896,3.0,5.0,95.0,4.0,1.0,1.6,0.3,Time
,,S44,1,女,23,anonymized,Serial_Dependence_U,2023.2.3,Win32,59.523809523799216,,,,,,1357.896200000018,323.0,3.0,1357.896300000012,323.0,,,,1361.8636000000238,1362.358400000006,1361.342800000012,1361.8635,1358.9103000000118,1361.342700000018,1362.358400000006,1362.858300000012,1362.858400000006,1363.9481000000235,817.0,1363.9482000000178,1.0,1363.9616000000235,3.0,6.0,96.0,28.0,1.0,1.4,0.7,Time
,,S44,1,女,23,anonymized,Serial_Dependence_U,2023.2.3,Win32,59.523809523799216,,,,,,1363.961900000006,174.0,3.0,1363.961900000006,174.0,,,,1367.324700000018,1367.823800000012,1366.8086000000235,1367.3246000000238,1364.9751000000238,1366.808400000006,1367.823800000012,1368.323900000006,1368.324100000024,1369.897,700.0,1369.8971000000238,2.0,1369.910900000006,3.0,7.0,97.0,25.0,1.0,0.8,0.7,Time
,,S44,1,女,23,anonymized,Serial_Dependence_U,2023.2.3,Win32,59.523809523799216,,,,,,1369.911200000018,61.0,3.0,1369.911200000018,61.0,,,,1373.6782000000178,1374.172900000006,1373.1615,1373.6782000000178,1370.9241000000238,1373.161400000006,1374.172900000006,1374.6726000000235,1374.6726000000235,1376.662800000012,867.0,1376.662900000006,2.0,1376.675900000006,3.0,8.0,98.0,7.0,1.0,1.2,0.7,Time
,,S44,1,女,23,anonymized,Serial_Dependence_U,2023.2.3,Win32,59.523809523799216,,,,,,1376.6761000000238,129.0,3.0,1376.6761000000238,129.0,,,,1380.0262000000178,1380.5218000000118,1379.511600000024,1380.0262000000178,1377.673200000018,1379.511400000006,1380.521900000006,1381.021700000018,1381.0218000000118,1382.2127000000178,730.0,1382.2128000000118,2.0,1382.226400000006,3.0,9.0,99.0,15.0,1.0,0.8,0.7,Time
,,S44,1,女,23,anonymized,Serial_Dependence_U,2023.2.3,Win32,59.523809523799216,,,,,,1382.2266000000238,8.0,3.0,1382.226700000018,8.0,,,,1385.9716000000235,1386.470800000012,1385.4607000000178,1385.9715,1383.2273000000118,1385.4605,1386.470800000012,1386.97,1386.97,1387.877700000018,485.0,1387.8778000000118,1.0,1387.891800000012,3.0,10.0,100.0,17.0,1.0,1.2,0.7,Time
,,S44,1,女,23,anonymized,Serial_Dependence_U,2023.2.3,Win32,59.523809523799216,,,,,,1387.892100000024,329.0,3.0,1387.892100000024,329.0,,,,1391.442800000012,1391.936,1390.926300000012,1391.4427000000178,1388.887700000018,1390.926300000012,1391.936,1392.436300000012,1392.436400000006,1393.743,583.0,1393.743,1.0,1393.7565,3.0,11.0,101.0,26.0,1.0,1.0,0.7,Time
,,S44,1,女,23,anonymized,Serial_Dependence_U,2023.2.3,Win32,59.523809523799216,,,,,,1393.756700000018,182.0,3.0,1393.756800000012,182.0,,,,1397.1365,1397.635300000012,1396.6251000000238,1397.136300000012,1394.753400000006,1396.625,1397.635400000006,1398.135,1398.1351000000238,1399.6255,766.0,1399.6256000000235,3.0,1399.6382000000178,3.0,12.0,102.0,0.0,1.0,0.8,0.3,Time
,,S44,1,女,23,anonymized,Serial_Dependence_U,2023.2.3,Win32,59.523809523799216,,,,,,1399.638400000006,255.0,3.0,1399.638400000006,255.0,,,,1403.223900000006,1403.717700000018,1402.7025,1403.2238000000118,1400.640700000018,1402.702400000006,1403.717700000018,1404.2173000000118,1404.2173000000118,1405.6246000000235,843.0,1405.6246000000235,2.0,1405.637600000024,3.0,13.0,103.0,1.0,1.0,1.0,0.3,Time
,,S44,1,女,23,anonymized,Serial_Dependence_U,2023.2.3,Win32,59.523809523799216,,,,,,1405.6378000000118,308.0,3.0,1405.638,308.0,,,,1408.984,1409.483400000006,1408.472,1408.983900000006,1406.6401000000235,1408.471800000012,1409.483400000006,1409.982900000006,1409.982900000006,1410.9392000000178,766.0,1410.9392000000178,3.0,1410.9462000000178,3.0,14.0,104.0,5.0,1.0,0.8,0.7,Time
,,S44,1,女,23,anonymized,Serial_Dependence_U,2023.2.3,Win32,59.523809523799216,,,,,,1410.9465,69.0,3.0,1410.946600000024,69.0,,,,1415.122,1415.614800000012,1414.619900000006,1415.121800000012,1411.954200000018,1414.619800000012,1415.614800000012,1416.114900000006,1416.115100000024,1417.370900000006,617.0,1417.370900000006,1.0,1417.380300000012,3.0,15.0,105.0,14.0,1.0,1.6,0.3,Time
,,S44,1,女,23,anonymized,Serial_Dependence_U,2023.2.3,Win32,59.523809523799216,,,,,,1417.3806000000238,106.0,3.0,1417.380800000012,106.0,,,,1420.965300000012,1421.4638000000118,1420.454600000024,1420.9652000000178,1418.3871000000238,1420.4545,1421.4638000000118,1421.963600000024,1421.963600000024,1423.235700000018,749.0,1423.235800000012,2.0,1423.245800000012,3.0,16.0,106.0,21.0,1.0,1.0,0.3,Time
,,S44,1,女,23,anonymized,Serial_Dependence_U,2023.2.3,Win32,59.523809523799216,,,,,,1423.2462000000178,298.0,3.0,1423.2466000000238,298.0,,,,1427.2016000000235,1427.696,1426.686,1427.2015,1424.252600000024,1426.686,1427.696,1428.1961000000238,1428.1961000000238,1429.5366000000238,551.0,1429.5366000000238,1.0,1429.5495,3.0,17.0,107.0,8.0,1.0,1.4,0.7,Time
,,S44,1,女,23,anonymized,Serial_Dependence_U,2023.2.3,Win32,59.523809523799216,,,,,,1429.5497000000178,318.0,3.0,1429.5497000000178,318.0,,,,1433.717400000006,1434.211400000006,1433.202400000006,1433.717400000006,1430.569400000006,1433.202300000012,1434.211400000006,1434.7121000000238,1434.712200000018,1436.985400000006,765.0,1436.9855,1.0,1436.998800000012,3.0,18.0,108.0,19.0,1.0,1.6,0.7,Time
,,S44,1,女,23,anonymized,Serial_Dependence_U,2023.2.3,Win32,59.523809523799216,,,,,,1436.998900000006,273.0,3.0,1436.999,273.0,,,,1441.150400000006,1441.644200000018,1440.633800000012,1441.1503000000118,1438.0011000000238,1440.6336000000238,1441.644200000018,1442.144,1442.144,1443.217800000012,802.0,1443.217900000006,1.0,1443.2327000000178,3.0,19.0,109.0,29.0,1.0,1.6,0.7,Time
,,S44,1,女,23,anonymized,Serial_Dependence_U,2023.2.3,Win32,59.523809523799216,,,,,,1443.233,80.0,3.0,1443.2331000000238,80.0,,,,1447.0111000000238,1447.51,1446.497900000006,1447.010900000006,1444.247800000012,1446.497800000012,1447.5101000000238,1448.009400000006,1448.0095,1449.865900000006,716.0,1449.866,1.0,1449.879,3.0,20.0,110.0,27.0,1.0,1.2,0.7,Time
,,S44,1,女,23,anonymized,Serial_Dependence_U,2023.2.3,Win32,59.523809523799216,,,,,,1449.8791000000238,99.0,3.0,1449.8792000000178,99.0,,,,1453.659700000018,1454.158,1453.1479000000058,1453.6595,1450.8816000000238,1453.147700000018,1454.158,1454.6585,1454.658600000024,1456.098700000018,835.0,1456.098700000018,1.0,1456.111700000018,3.0,21.0,111.0,22.0,1.0,1.2,0.3,Time
,,S44,1,女,23,anonymized,Serial_Dependence_U,2023.2.3,Win32,59.523809523799216,,,,,,1456.111900000006,94.0,3.0,1456.112,94.0,,,,1459.508200000018,1460.0073000000118,1458.997400000006,1459.508100000024,1457.125400000006,1458.997400000006,1460.0073000000118,1460.5077000000178,1460.5077000000178,1461.9316000000238,734.0,1461.9317000000178,2.0,1461.9461000000238,3.0,22.0,112.0,10.0,1.0,0.8,0.3,Time
,,S44,1,女,23,anonymized,Serial_Dependence_U,2023.2.3,Win32,59.523809523799216,,,,,,1461.946400000006,90.0,3.0,1461.946400000006,90.0,,,,1465.9448000000118,1466.439800000012,1465.43,1465.944700000018,1462.946300000012,1465.429900000006,1466.439900000006,1466.9395,1466.9395,1468.381,851.0,1468.381100000024,1.0,1468.3915,3.0,23.0,113.0,3.0,1.0,1.4,0.3,Time
,,S44,1,女,23,anonymized,Serial_Dependence_U,2023.2.3,Win32,59.523809523799216,,,,,,1468.391700000018,12.0,3.0,1468.391700000018,12.0,,,,1471.976800000012,1472.472200000018,1471.4617000000178,1471.9766000000238,1469.3901000000235,1471.4616000000235,1472.472200000018,1472.972200000018,1472.972200000018,1474.662200000018,993.0,1474.662200000018,3.0,1474.675700000018,3.0,24.0,114.0,11.0,1.0,1.0,0.3,Time
,,S44,1,女,23,anonymized,Serial_Dependence_U,2023.2.3,Win32,59.523809523799216,,,,,,1474.675900000006,154.0,3.0,1474.676,154.0,,,,1478.860300000012,1479.354200000018,1478.344,1478.8602000000178,1475.675600000024,1478.343800000012,1479.354200000018,1479.854100000024,1479.854200000018,1481.6275,1033.0,1481.627600000024,1.0,1481.642,3.0,25.0,115.0,24.0,1.0,1.6,0.3,Time
,,S44,1,女,23,anonymized,Serial_Dependence_U,2023.2.3,Win32,59.523809523799216,,,,,,1481.6423000000118,36.0,3.0,1481.6425,36.0,,,,1485.042300000012,1485.536200000018,1484.526900000006,1485.0422000000178,1482.654400000006,1484.526800000012,1485.536200000018,1486.035800000012,1486.036,1487.609700000018,800.0,1487.609800000012,3.0,1487.6226000000238,3.0,26.0,116.0,20.0,1.0,0.8,0.3,Time
,,S44,1,女,23,anonymized,Serial_Dependence_U,2023.2.3,Win32,59.523809523799216,,,,,,1487.622800000012,254.0,3.0,1487.622900000006,254.0,,,,1491.391700000018,1491.885200000018,1490.886400000006,1491.3916000000238,1488.6201000000235,1490.886200000018,1491.885300000012,1492.3851000000238,1492.385200000018,1493.692200000018,767.0,1493.692400000006,1.0,1493.705,3.0,27.0,117.0,2.0,1.0,1.2,0.3,Time
,,S44,1,女,23,anonymized,Serial_Dependence_U,2023.2.3,Win32,59.523809523799216,,,,,,1493.705300000012,167.0,3.0,1493.705300000012,167.0,,,,1497.7016000000235,1498.2005,1497.1906000000238,1497.7014000000058,1494.722900000006,1497.1905,1498.2005,1498.7007000000178,1498.700800000012,1500.3571000000238,875.0,1500.357200000018,1.0,1500.3711000000235,3.0,28.0,118.0,23.0,1.0,1.4,0.3,Time
,,S44,1,女,23,anonymized,Serial_Dependence_U,2023.2.3,Win32,59.523809523799216,,,,,,1500.371400000006,48.0,3.0,1500.3715,48.0,,,,1504.3555,1504.849600000024,1503.839900000006,1504.355300000012,1501.3895,1503.8398000000118,1504.849700000018,1505.349,1505.349,1506.6896000000238,617.0,1506.689800000012,1.0,1506.7025,3.0,29.0,119.0,18.0,1.0,1.4,0.7,Time
,,S44,1,女,23,anonymized,Serial_Dependence_U,2023.2.3,Win32,59.523809523799216,,,,,,1506.7028000000118,284.0,4.0,1532.9381000000235,284.0,s,26.209099999994123,,1536.711400000006,1537.2105,1536.2,1536.711300000012,1533.932200000018,1536.199800000012,1537.2106000000238,1537.7105,1537.7106000000238,1539.617400000006,667.0,1539.6175,1.0,1539.630300000012,4.0,0.0,120.0,22.0,1.0,1.2,0.3,Time
,,S44,1,女,23,anonymized,Serial_Dependence_U,2023.2.3,Win32,59.523809523799216,,,,,,1539.6305,85.0,4.0,1539.631700000018,85.0,,,,1543.7766000000238,1544.2755,1543.2655,1543.7765,1540.631,1543.265400000006,1544.2755,1544.776,1544.776,1546.265700000018,833.0,1546.265800000012,1.0,1546.2791000000238,4.0,1.0,121.0,9.0,1.0,1.6,0.7,Time
,,S44,1,女,23,anonymized,Serial_Dependence_U,2023.2.3,Win32,59.523809523799216,,,,,,1546.2795,336.0,4.0,1546.2796000000235,336.0,,,,1549.6758000000118,1550.1747000000178,1549.165200000018,1549.675600000024,1547.281700000018,1549.165,1550.1747000000178,1550.662900000006,1550.663,1552.065200000018,832.0,1552.0653000000118,3.0,1552.078400000006,4.0,2.0,122.0,10.0,1.0,0.8,0.3,Time
,,S44,1,女,23,anonymized,Serial_Dependence_U,2023.2.3,Win32,59.523809523799216,,,,,,1552.078600000024,271.0,4.0,1552.0788000000118,271.0,,,,1555.6625,1556.156900000006,1555.146200000018,1555.6625,1553.0755,1555.146200000018,1556.156900000006,1556.6568000000118,1556.6568000000118,1557.663800000012,516.0,1557.663800000012,1.0,1557.6792000000178,4.0,3.0,123.0,21.0,1.0,1.0,0.3,Time
,,S44,1,女,23,anonymized,Serial_Dependence_U,2023.2.3,Win32,59.523809523799216,,,,,,1557.679400000006,181.0,4.0,1557.6795,181.0,,,,1561.477700000018,1561.973,1560.9607000000178,1561.4775,1558.6965,1560.9606000000238,1561.973,1562.4728000000118,1562.472900000006,1563.679800000012,643.0,1563.679900000006,1.0,1563.692300000012,4.0,4.0,124.0,12.0,1.0,1.2,0.3,Time
,,S44,1,女,23,anonymized,Serial_Dependence_U,2023.2.3,Win32,59.523809523799216,,,,,,1563.6925,158.0,4.0,1563.6926000000235,158.0,,,,1567.643200000018,1568.1381000000238,1567.1226000000238,1567.643200000018,1564.689900000006,1567.1225,1568.1382000000178,1568.638300000012,1568.638400000006,1569.9617000000178,776.0,1569.9617000000178,1.0,1569.9745,4.0,5.0,125.0,8.0,1.0,1.4,0.7,Time
,,S44,1,女,23,anonymized,Serial_Dependence_U,2023.2.3,Win32,59.523809523799216,,,,,,1569.974700000018,43.0,4.0,1569.9749000000058,43.0,,,,1573.937900000006,1574.437300000012,1573.4216000000238,1573.937700000018,1570.988800000012,1573.4215,1574.437400000006,1574.937,1574.9371000000235,1575.894,534.0,1575.894100000024,1.0,1575.908300000012,4.0,6.0,126.0,18.0,1.0,1.4,0.7,Time
,,S44,1,女,23,anonymized,Serial_Dependence_U,2023.2.3,Win32,59.523809523799216,,,,,,1575.9085,84.0,4.0,1575.908600000024,84.0,,,,1580.04,1580.535900000006,1579.536900000006,1580.039900000006,1576.904300000012,1579.536800000012,1580.535900000006,1581.035700000018,1581.035800000012,1582.1926000000235,649.0,1582.1927000000178,1.0,1582.207800000012,4.0,7.0,127.0,19.0,1.0,1.6,0.7,Time
,,S44,1,女,23,anonymized,Serial_Dependence_U,2023.2.3,Win32,59.523809523799216,,,,,,1582.208,181.0,4.0,1582.208100000024,181.0,,,,1586.4061000000238,1586.9016000000238,1585.886600000024,1586.4061000000238,1583.224800000012,1585.886400000006,1586.9016000000238,1587.4013000000118,1587.4013000000118,1588.9247000000178,850.0,1588.9248000000118,1.0,1588.9385,4.0,8.0,128.0,4.0,1.0,1.6,0.3,Time
,,S44,1,女,23,anonymized,Serial_Dependence_U,2023.2.3,Win32,59.523809523799216,,,,,,1588.938700000018,358.0,4.0,1588.938900000006,358.0,,,,1592.706800000012,1593.2007000000178,1592.188700000018,1592.706700000018,1589.9521000000238,1592.1886000000238,1593.2007000000178,1593.7005,1593.7006000000238,1595.474300000012,1017.0,1595.474300000012,2.0,1595.487800000012,4.0,9.0,129.0,27.0,1.0,1.2,0.7,Time
,,S44,1,女,23,anonymized,Serial_Dependence_U,2023.2.3,Win32,59.523809523799216,,,,,,1595.488,4.0,4.0,1595.488100000024,4.0,,,,1599.0505,1599.5497000000178,1598.5397000000178,1599.050300000012,1596.504300000012,1598.5395,1599.5497000000178,1600.054400000006,1600.054400000006,1601.323800000012,768.0,1601.323900000006,2.0,1601.336100000024,4.0,10.0,130.0,6.0,1.0,1.0,0.7,Time
,,S44,1,女,23,anonymized,Serial_Dependence_U,2023.2.3,Win32,59.523809523799216,,,,,,1601.336400000006,332.0,4.0,1601.336400000006,332.0,,,,1605.332400000006,1605.831700000018,1604.822300000012,1605.332300000012,1602.338300000012,1604.8221000000235,1605.831700000018,1606.331800000012,1606.331800000012,1607.572700000018,633.0,1607.572800000012,1.0,1607.585900000006,4.0,11.0,131.0,13.0,1.0,1.4,0.3,Time
,,S44,1,女,23,anonymized,Serial_Dependence_U,2023.2.3,Win32,59.523809523799216,,,,,,1607.586,12.0,4.0,1607.586100000024,12.0,,,,1611.1481000000238,1611.647400000006,1610.637900000006,1611.148,1608.598700000018,1610.637900000006,1611.647400000006,1612.147300000012,1612.147300000012,1613.704200000018,584.0,1613.704200000018,1.0,1613.7152000000178,4.0,12.0,132.0,26.0,1.0,1.0,0.7,Time
,,S44,1,女,23,anonymized,Serial_Dependence_U,2023.2.3,Win32,59.523809523799216,,,,,,1613.7155,148.0,4.0,1613.715600000024,148.0,,,,1617.896900000006,1618.3958000000118,1617.380700000018,1617.8968000000118,1614.714400000006,1617.3806000000238,1618.395900000006,1618.8958000000118,1618.895900000006,1619.9695,517.0,1619.9695,1.0,1619.9825,4.0,13.0,133.0,24.0,1.0,1.6,0.3,Time
,,S44,1,女,23,anonymized,Serial_Dependence_U,2023.2.3,Win32,59.523809523799216,,,,,,1619.9828000000118,270.0,4.0,1619.9828000000118,270.0,,,,1623.3515,1623.845200000018,1622.8466000000235,1623.351300000012,1620.984700000018,1622.846400000006,1623.845300000012,1624.344900000006,1624.345,1625.4517000000178,549.0,1625.4517000000178,1.0,1625.465700000018,4.0,14.0,134.0,0.0,1.0,0.8,0.3,Time
,,S44,1,女,23,anonymized,Serial_Dependence_U,2023.2.3,Win32,59.523809523799216,,,,,,1625.4659000000058,299.0,4.0,1625.466,299.0,,,,1629.667,1630.1606000000238,1629.151100000024,1629.666900000006,1626.483600000024,1629.151,1630.160700000018,1630.6605,1630.6606000000238,1631.984,566.0,1631.9841000000238,1.0,1631.998200000018,4.0,15.0,135.0,14.0,1.0,1.6,0.3,Time
,,S44,1,女,23,anonymized,Serial_Dependence_U,2023.2.3,Win32,59.523809523799216,,,,,,1631.998400000006,202.0,4.0,1631.9985,202.0,,,,1635.7606000000235,1636.259800000012,1635.250300000012,1635.7605,1633.0145,1635.2501000000238,1636.259800000012,1636.759200000018,1636.759300000012,1637.8166000000238,816.0,1637.8167000000178,1.0,1637.8312000000178,4.0,16.0,136.0,7.0,1.0,1.2,0.7,Time
,,S44,1,女,23,anonymized,Serial_Dependence_U,2023.2.3,Win32,59.523809523799216,,,,,,1637.8315,139.0,4.0,1637.831600000024,139.0,,,,1641.1965,1641.692200000018,1640.6815,1641.196400000006,1638.8432000000178,1640.681400000006,1641.692200000018,1642.196700000018,1642.196700000018,1643.315800000012,566.0,1643.315900000006,2.0,1643.3298000000118,4.0,17.0,137.0,5.0,1.0,0.8,0.7,Time
,,S44,1,女,23,anonymized,Serial_Dependence_U,2023.2.3,Win32,59.523809523799216,,,,,,1643.329900000006,98.0,4.0,1643.33,98.0,,,,1646.914300000012,1647.407300000012,1646.3968000000118,1646.9141000000238,1644.326100000024,1646.396700000018,1647.407400000006,1647.895400000006,1647.8955,1648.2915,358.0,1648.291600000024,1.0,1648.304700000018,4.0,18.0,138.0,1.0,1.0,1.0,0.3,Time
,,S44,1,女,23,anonymized,Serial_Dependence_U,2023.2.3,Win32,59.523809523799216,,,,,,1648.304900000006,346.0,4.0,1648.304900000006,346.0,,,,1652.462900000006,1652.9561000000238,1651.946800000012,1652.4627000000178,1649.3135,1651.946600000024,1652.9562000000178,1653.4561000000238,1653.4562000000178,1654.212200000018,717.0,1654.212300000012,1.0,1654.222,4.0,19.0,139.0,29.0,1.0,1.6,0.7,Time
,,S44,1,女,23,anonymized,Serial_Dependence_U,2023.2.3,Win32,59.523809523799216,,,,,,1654.222300000012,216.0,4.0,1654.222300000012,216.0,,,,1658.178300000012,1658.671800000012,1657.661800000012,1658.1782000000178,1655.2273000000118,1657.6617000000178,1658.671800000012,1659.172,1659.172,1660.5251000000237,763.0,1660.5252000000178,1.0,1660.533800000012,4.0,20.0,140.0,28.0,1.0,1.4,0.7,Time
,,S44,1,女,23,anonymized,Serial_Dependence_U,2023.2.3,Win32,59.523809523799216,,,,,,1660.534,176.0,4.0,1660.5341000000235,176.0,,,,1663.894400000006,1664.388,1663.378400000006,1663.894400000006,1661.544,1663.378300000012,1664.3881000000238,1664.8875,1664.887600000024,1665.660400000006,717.0,1665.6605,2.0,1665.668700000018,4.0,21.0,141.0,25.0,1.0,0.8,0.7,Time
,,S44,1,女,23,anonymized,Serial_Dependence_U,2023.2.3,Win32,59.523809523799216,,,,,,1665.669,118.0,4.0,1665.669,118.0,,,,1669.443200000018,1669.9371000000235,1668.926600000024,1669.4431000000238,1666.6882000000178,1668.9265,1669.9371000000235,1670.441300000012,1670.4414000000058,1671.7435,783.0,1671.7435,1.0,1671.7576000000238,4.0,22.0,142.0,17.0,1.0,1.2,0.7,Time
,,S44,1,女,23,anonymized,Serial_Dependence_U,2023.2.3,Win32,59.523809523799216,,,,,,1671.7577000000178,316.0,4.0,1671.757800000012,316.0,,,,1675.7418000000118,1676.2351000000235,1675.225800000012,1675.741600000024,1672.7541000000238,1675.225700000018,1676.2351000000235,1676.735,1676.7351000000235,1678.1927000000178,767.0,1678.1927000000178,1.0,1678.2052000000178,4.0,23.0,143.0,23.0,1.0,1.4,0.3,Time
,,S44,1,女,23,anonymized,Serial_Dependence_U,2023.2.3,Win32,59.523809523799216,,,,,,1678.205400000006,215.0,4.0,1678.205400000006,215.0,,,,1681.5577000000178,1682.051300000012,1681.041700000018,1681.5577000000178,1679.2085,1681.0415,1682.051400000006,1682.551600000024,1682.551600000024,1683.791900000006,633.0,1683.792,2.0,1683.8053000000118,4.0,24.0,144.0,15.0,1.0,0.8,0.7,Time
,,S44,1,女,23,anonymized,Serial_Dependence_U,2023.2.3,Win32,59.523809523799216,,,,,,1683.8056000000238,21.0,4.0,1683.8056000000238,21.0,,,,1687.351300000012,1687.850300000012,1686.8412000000178,1687.3512000000178,1684.807100000024,1686.841,1687.850300000012,1688.350400000006,1688.350400000006,1691.1005,480.0,1691.100600000024,1.0,1691.1144000000058,4.0,25.0,145.0,16.0,1.0,1.0,0.7,Time
,,S44,1,女,23,anonymized,Serial_Dependence_U,2023.2.3,Win32,59.523809523799216,,,,,,1691.1146000000238,165.0,4.0,1691.1147000000178,165.0,,,,1695.099600000024,1695.599300000012,1694.5888000000118,1695.0995,1692.1223000000118,1694.5887000000178,1695.599300000012,1696.098600000024,1696.098600000024,1697.007100000024,685.0,1697.0073000000118,1.0,1697.018100000024,4.0,26.0,146.0,3.0,1.0,1.4,0.3,Time
,,S44,1,女,23,anonymized,Serial_Dependence_U,2023.2.3,Win32,59.523809523799216,,,,,,1697.018300000012,76.0,4.0,1697.0184000000058,76.0,,,,1700.598700000018,1701.0978000000118,1700.082800000012,1700.598600000024,1698.016,1700.0826000000238,1701.0978000000118,1701.597600000024,1701.5977000000178,1702.8055,550.0,1702.8056000000238,1.0,1702.819900000006,4.0,27.0,147.0,11.0,1.0,1.0,0.3,Time
,,S44,1,女,23,anonymized,Serial_Dependence_U,2023.2.3,Win32,59.523809523799216,,,,,,1702.8202000000178,155.0,4.0,1702.820300000012,155.0,,,,1706.619900000006,1707.1137000000178,1706.103400000006,1706.619800000012,1703.831900000006,1706.1033000000118,1707.113800000012,1707.613800000012,1707.613800000012,1708.387300000012,583.0,1708.387400000006,1.0,1708.4016000000238,4.0,28.0,148.0,2.0,1.0,1.2,0.3,Time
,,S44,1,女,23,anonymized,Serial_Dependence_U,2023.2.3,Win32,59.523809523799216,,,,,,1708.401800000012,122.0,4.0,1708.401900000006,122.0,,,,1711.785400000006,1712.2795,1711.264,1711.7853000000118,1709.3972000000178,1711.2639000000058,1712.2795,1712.779400000006,1712.779400000006,1713.5965,385.0,1713.5967000000178,1.0,1713.609600000024,4.0,29.0,149.0,20.0,1.0,0.8,0.3,Time
,,S44,1,女,23,anonymized,Serial_Dependence_U,2023.2.3,Win32,59.523809523799216,,,,,,1713.609800000012,294.0,5.0,1753.503600000024,294.0,s,39.85940000000596,,1756.8781000000238,1757.371,1756.3725,1756.878,1754.5095,1756.372400000006,1757.371,1757.8713000000118,1757.8713000000118,1759.0051000000235,373.0,1759.0052000000178,1.0,1759.018,5.0,0.0,150.0,10.0,1.0,0.8,0.3,Time
,,S44,1,女,23,anonymized,Serial_Dependence_U,2023.2.3,Win32,59.523809523799216,,,,,,1759.018200000018,150.0,5.0,1759.019400000006,150.0,,,,1762.410100000024,1762.903800000012,1761.887900000006,1762.41,1760.0256000000238,1761.8878000000118,1762.903900000006,1763.403800000012,1763.403800000012,1764.3432000000178,367.0,1764.3433000000118,1.0,1764.3581000000238,5.0,1.0,151.0,0.0,1.0,0.8,0.3,Time
,,S44,1,女,23,anonymized,Serial_Dependence_U,2023.2.3,Win32,59.523809523799216,,,,,,1764.358400000006,161.0,5.0,1764.358400000006,161.0,,,,1767.703600000024,1768.2028000000118,1767.192200000018,1767.7035,1765.359800000012,1767.192200000018,1768.2028000000118,1768.7025,1768.7026000000235,1769.4435,517.0,1769.443600000024,1.0,1769.457700000018,5.0,2.0,152.0,5.0,1.0,0.8,0.7,Time
,,S44,1,女,23,anonymized,Serial_Dependence_U,2023.2.3,Win32,59.523809523799216,,,,,,1769.457900000006,307.0,5.0,1769.458,307.0,,,,1772.808300000012,1773.3011000000238,1772.291600000024,1772.808200000018,1770.453200000018,1772.291400000006,1773.3011000000238,1773.801600000024,1773.801600000024,1774.923100000024,613.0,1774.923100000024,2.0,1774.9327000000178,5.0,3.0,153.0,25.0,1.0,0.8,0.7,Time
,,S44,1,女,23,anonymized,Serial_Dependence_U,2023.2.3,Win32,59.523809523799216,,,,,,1774.933,41.0,5.0,1774.933,41.0,,,,1779.101800000012,1779.600700000018,1778.590400000006,1779.1016000000238,1775.940900000006,1778.590400000006,1779.600800000012,1780.100700000018,1780.100700000018,1781.489800000012,851.0,1781.489900000006,1.0,1781.496800000012,5.0,4.0,154.0,9.0,1.0,1.6,0.7,Time
,,S44,1,女,23,anonymized,Serial_Dependence_U,2023.2.3,Win32,59.523809523799216,,,,,,1781.497,318.0,5.0,1781.497100000024,318.0,,,,1784.900900000006,1785.3992000000178,1784.389400000006,1784.900800000012,1782.517400000006,1784.3892000000178,1785.399300000012,1785.899800000012,1785.899800000012,1787.407300000012,882.0,1787.407300000012,4.0,1787.421200000018,5.0,5.0,155.0,20.0,1.0,0.8,0.3,Time
,,S44,1,女,23,anonymized,Serial_Dependence_U,2023.2.3,Win32,59.523809523799216,,,,,,1787.4216000000238,112.0,5.0,1787.421800000012,112.0,,,,1791.3716000000238,1791.865,1790.854800000012,1791.3715,1788.416700000018,1790.8547000000178,1791.865100000024,1792.365,1792.365,1793.5055,717.0,1793.5056000000238,1.0,1793.5184000000058,5.0,6.0,156.0,8.0,1.0,1.4,0.7,Time
,,S44,1,女,23,anonymized,Serial_Dependence_U,2023.2.3,Win32,59.523809523799216,,,,,,1793.5186000000238,209.0,5.0,1793.5187000000178,209.0,,,,1797.2655,1797.7635,1796.752,1797.265400000006,1794.515400000006,1796.751900000006,1797.7635,1798.263400000006,1798.263400000006,1800.0709000000058,717.0,1800.071,1.0,1800.0867000000178,5.0,7.0,157.0,7.0,1.0,1.2,0.7,Time
,,S44,1,女,23,anonymized,Serial_Dependence_U,2023.2.3,Win32,59.523809523799216,,,,,,1800.086900000006,311.0,5.0,1800.086900000006,311.0,,,,1803.664,1804.163300000012,1803.1524000000056,1803.663900000006,1801.086400000006,1803.152300000012,1804.163300000012,1804.663100000024,1804.663200000018,1805.320700000018,567.0,1805.320700000018,1.0,1805.3347000000176,5.0,8.0,158.0,11.0,1.0,1.0,0.3,Time
,,S44,1,女,23,anonymized,Serial_Dependence_U,2023.2.3,Win32,59.523809523799216,,,,,,1805.335,290.0,5.0,1805.335,290.0,,,,1809.101800000012,1809.595100000024,1808.596200000018,1809.101600000024,1806.333800000012,1808.596100000024,1809.595100000024,1810.0955,1810.095600000024,1811.512600000024,458.0,1811.512600000024,1.0,1811.524800000012,5.0,9.0,159.0,22.0,1.0,1.2,0.3,Time
,,S44,1,女,23,anonymized,Serial_Dependence_U,2023.2.3,Win32,59.523809523799216,,,,,,1811.525100000024,230.0,5.0,1811.5252000000175,230.0,,,,1815.712,1816.210900000006,1815.2017000000176,1815.711900000006,1812.529,1815.2015,1816.210900000006,1816.710900000006,1816.711,1817.951100000024,612.0,1817.951100000024,1.0,1817.9639000000057,5.0,10.0,160.0,24.0,1.0,1.6,0.3,Time
,,S44,1,女,23,anonymized,Serial_Dependence_U,2023.2.3,Win32,59.523809523799216,,,,,,1817.9642000000176,142.0,5.0,1817.9642000000176,142.0,,,,1821.549400000006,1822.043400000006,1821.033400000006,1821.549300000012,1818.961200000018,1821.033300000012,1822.043400000006,1822.531,1822.531100000024,1823.727,475.0,1823.727100000024,1.0,1823.7397000000176,5.0,11.0,161.0,1.0,1.0,1.0,0.3,Time
,,S44,1,女,23,anonymized,Serial_Dependence_U,2023.2.3,Win32,59.523809523799216,,,,,,1823.739900000006,174.0,5.0,1823.74,174.0,,,,1827.493,1827.9922000000176,1826.981600000024,1827.4929000000056,1824.748800000012,1826.9815,1827.9922000000176,1828.491900000006,1828.491900000006,1830.098600000024,783.0,1830.098700000018,1.0,1830.111400000006,5.0,12.0,162.0,27.0,1.0,1.2,0.7,Time
,,S44,1,女,23,anonymized,Serial_Dependence_U,2023.2.3,Win32,59.523809523799216,,,,,,1830.111600000024,336.0,5.0,1830.111600000024,336.0,,,,1833.8975,1834.391,1833.391100000024,1833.897400000006,1831.125800000012,1833.391,1834.391,1834.891100000024,1834.8912000000175,1836.214600000024,662.0,1836.214800000012,1.0,1836.229,5.0,13.0,163.0,12.0,1.0,1.2,0.3,Time
,,S44,1,女,23,anonymized,Serial_Dependence_U,2023.2.3,Win32,59.523809523799216,,,,,,1836.229200000018,336.0,5.0,1836.229300000012,336.0,,,,1840.18,1840.673300000012,1839.678300000012,1840.179800000012,1837.246600000024,1839.678100000024,1840.673300000012,1841.172800000012,1841.172900000006,1842.8792000000176,934.0,1842.879300000012,1.0,1842.891900000006,5.0,14.0,164.0,18.0,1.0,1.4,0.7,Time
,,S44,1,女,23,anonymized,Serial_Dependence_U,2023.2.3,Win32,59.523809523799216,,,,,,1842.892200000018,96.0,5.0,1842.8924000000056,96.0,,,,1847.072700000018,1847.571900000006,1846.5619000000056,1847.072600000024,1843.8957000000175,1846.561700000018,1847.571900000006,1848.071300000012,1848.071400000006,1849.679300000012,736.0,1849.679400000006,1.0,1849.694100000024,5.0,15.0,165.0,4.0,1.0,1.6,0.3,Time
,,S44,1,女,23,anonymized,Serial_Dependence_U,2023.2.3,Win32,59.523809523799216,,,,,,1849.6945,109.0,5.0,1849.6945,109.0,,,,1853.4777000000176,1853.970800000012,1852.959900000006,1853.4775,1850.694600000024,1852.959900000006,1853.970800000012,1854.4705,1854.470600000024,1856.027800000012,966.0,1856.027800000012,2.0,1856.041800000012,5.0,16.0,166.0,2.0,1.0,1.2,0.3,Time
,,S44,1,女,23,anonymized,Serial_Dependence_U,2023.2.3,Win32,59.523809523799216,,,,,,1856.042,165.0,5.0,1856.042300000012,165.0,,,,1860.2097000000176,1860.703,1859.707700000018,1860.2095,1857.0374000000056,1859.707600000024,1860.703100000024,1861.202800000012,1861.202900000006,1862.1602000000175,517.0,1862.160300000012,1.0,1862.174300000012,5.0,17.0,167.0,14.0,1.0,1.6,0.3,Time
,,S44,1,女,23,anonymized,Serial_Dependence_U,2023.2.3,Win32,59.523809523799216,,,,,,1862.1745,256.0,5.0,1862.174600000024,256.0,,,,1866.1695,1866.668700000018,1865.6527000000176,1866.169400000006,1863.186600000024,1865.6525,1866.668700000018,1867.168100000024,1867.168100000024,1868.3755,677.0,1868.375600000024,1.0,1868.388,5.0,18.0,168.0,3.0,1.0,1.4,0.3,Time
,,S44,1,女,23,anonymized,Serial_Dependence_U,2023.2.3,Win32,59.523809523799216,,,,,,1868.3882000000176,192.0,5.0,1868.388400000006,192.0,,,,1871.956800000012,1872.450600000024,1871.452,1871.956800000012,1869.4082000000176,1871.452,1872.4507000000176,1872.950900000006,1872.951,1874.542300000012,694.0,1874.5425,1.0,1874.5554000000056,5.0,19.0,169.0,26.0,1.0,1.0,0.7,Time
,,S44,1,女,23,anonymized,Serial_Dependence_U,2023.2.3,Win32,59.523809523799216,,,,,,1874.555600000024,67.0,5.0,1874.5557000000176,67.0,,,,1878.690100000024,1879.183,1878.188900000006,1878.69,1875.555900000006,1878.188900000006,1879.183,1879.6825,1879.682600000024,1881.039900000006,776.0,1881.04,1.0,1881.0535,5.0,20.0,170.0,29.0,1.0,1.6,0.7,Time
,,S44,1,女,23,anonymized,Serial_Dependence_U,2023.2.3,Win32,59.523809523799216,,,,,,1881.053800000012,108.0,5.0,1881.053800000012,108.0,,,,1884.399400000006,1884.898700000018,1883.888700000018,1884.3992000000176,1882.055300000012,1883.888600000024,1884.898700000018,1885.3985,1885.398700000018,1886.505700000018,633.0,1886.505800000012,2.0,1886.519100000024,5.0,21.0,171.0,15.0,1.0,0.8,0.7,Time
,,S44,1,女,23,anonymized,Serial_Dependence_U,2023.2.3,Win32,59.523809523799216,,,,,,1886.519300000012,252.0,5.0,1886.519300000012,252.0,,,,1890.665300000012,1891.163800000012,1890.152,1890.665100000024,1887.515800000012,1890.151800000012,1891.163900000006,1891.664100000024,1891.664200000018,1892.954,600.0,1892.954100000024,1.0,1892.962300000012,5.0,22.0,172.0,19.0,1.0,1.6,0.7,Time
,,S44,1,女,23,anonymized,Serial_Dependence_U,2023.2.3,Win32,59.523809523799216,,,,,,1892.9625,205.0,5.0,1892.962600000024,205.0,,,,1896.519300000012,1897.0132000000176,1896.0007000000176,1896.519200000018,1893.9645,1896.000600000024,1897.0132000000176,1897.513100000024,1897.513100000024,1898.480600000024,380.0,1898.4807000000176,1.0,1898.493600000024,5.0,23.0,173.0,6.0,1.0,1.0,0.7,Time
,,S44,1,女,23,anonymized,Serial_Dependence_U,2023.2.3,Win32,59.523809523799216,,,,,,1898.4939000000056,31.0,5.0,1898.494,31.0,,,,1902.067,1902.561700000018,1901.551400000006,1902.066900000006,1899.5135,1901.551300000012,1902.561700000018,1903.0622000000176,1903.062300000012,1904.2667000000176,566.0,1904.2667000000176,1.0,1904.273600000024,5.0,24.0,174.0,16.0,1.0,1.0,0.7,Time
,,S44,1,女,23,anonymized,Serial_Dependence_U,2023.2.3,Win32,59.523809523799216,,,,,,1904.273800000012,210.0,5.0,1904.273800000012,210.0,,,,1908.250800000012,1908.744100000024,1907.734400000006,1908.2507000000176,1905.267800000012,1907.734300000012,1908.7442000000176,1909.244300000012,1909.244300000012,1910.251300000012,518.0,1910.251400000006,1.0,1910.264100000024,5.0,25.0,175.0,13.0,1.0,1.4,0.3,Time
,,S44,1,女,23,anonymized,Serial_Dependence_U,2023.2.3,Win32,59.523809523799216,,,,,,1910.264300000012,29.0,5.0,1910.264400000006,29.0,,,,1914.209900000006,1914.7094000000056,1913.6992000000175,1914.209800000012,1911.266600000024,1913.699100000024,1914.7094000000056,1915.209600000024,1915.209600000024,1916.300400000006,517.0,1916.3005,1.0,1916.3147000000176,5.0,26.0,176.0,28.0,1.0,1.4,0.7,Time
,,S44,1,女,23,anonymized,Serial_Dependence_U,2023.2.3,Win32,59.523809523799216,,,,,,1916.315100000024,180.0,5.0,1916.315200000018,180.0,,,,1919.909900000006,1920.408700000018,1919.3962000000176,1919.909800000012,1917.3265,1919.396100000024,1920.408800000012,1920.897300000012,1920.897300000012,1922.013600000024,566.0,1922.013700000018,1.0,1922.025300000012,5.0,27.0,177.0,21.0,1.0,1.0,0.3,Time
,,S44,1,女,23,anonymized,Serial_Dependence_U,2023.2.3,Win32,59.523809523799216,,,,,,1922.0257000000177,197.0,5.0,1922.025800000012,197.0,,,,1925.997400000006,1926.4914000000056,1925.492400000006,1925.997200000018,1923.030100000024,1925.492300000012,1926.4915,1926.991300000012,1926.991300000012,1928.314900000006,700.0,1928.3150000000005,1.0,1928.3295,5.0,28.0,178.0,23.0,1.0,1.4,0.3,Time
,,S44,1,女,23,anonymized,Serial_Dependence_U,2023.2.3,Win32,59.523809523799216,,,,,,1928.3297000000184,164.0,5.0,1928.329800000012,164.0,,,,1932.0912000000185,1932.5900000000004,1931.58,1932.091,1929.341800000012,1931.5799000000063,1932.590100000024,1933.078,1933.078100000024,1934.413200000018,750.0,1934.413300000012,1.0,1934.426900000006,5.0,29.0,179.0,17.0,1.0,1.2,0.7,Time
,,S44,1,女,23,anonymized,Serial_Dependence_U,2023.2.3,Win32,59.523809523799216,,,,,,1934.427100000024,263.0,6.0,1985.4940000000004,263.0,s,51.042800000012,,1989.6644000000065,1990.163300000012,1989.152600000024,1989.664200000018,1986.520400000006,1989.152600000024,1990.163300000012,1990.663300000012,1990.663400000006,1991.8875,632.0,1991.887600000024,1.0,1991.8985,6.0,0.0,180.0,29.0,1.0,1.6,0.7,Time
,,S44,1,女,23,anonymized,Serial_Dependence_U,2023.2.3,Win32,59.523809523799216,,,,,,1991.898800000012,62.0,6.0,1991.899800000012,62.0,,,,1995.249,1995.7452000000185,1994.7355,1995.2489000000064,1992.8967000000184,1994.7354000000064,1995.745300000012,1996.2455,1996.2455,1997.185300000012,316.0,1997.185400000006,1.0,1997.197600000024,6.0,1.0,181.0,15.0,1.0,0.8,0.7,Time
,,S44,1,女,23,anonymized,Serial_Dependence_U,2023.2.3,Win32,59.523809523799216,,,,,,1997.197800000012,268.0,6.0,1997.1979000000065,268.0,,,,2000.767800000012,2001.261,2000.265900000006,2000.7677000000183,1998.201700000018,2000.265800000012,2001.261100000024,2001.7612000000177,2001.761300000012,2002.6995000000004,431.0,2002.699600000024,1.0,2002.7130000000004,6.0,2.0,182.0,21.0,1.0,1.0,0.3,Time
,,S44,1,女,23,anonymized,Serial_Dependence_U,2023.2.3,Win32,59.523809523799216,,,,,,2002.713200000018,340.0,6.0,2002.713300000012,340.0,,,,2006.264600000024,2006.7604000000065,2005.751200000018,2006.2645,2003.716800000012,2005.751100000024,2006.7604000000065,2007.2604000000065,2007.2604000000065,2008.150700000018,350.0,2008.150800000012,1.0,2008.164100000024,6.0,3.0,183.0,16.0,1.0,1.0,0.7,Time
,,S44,1,女,23,anonymized,Serial_Dependence_U,2023.2.3,Win32,59.523809523799216,,,,,,2008.164200000018,206.0,6.0,2008.164300000012,206.0,,,,2011.747,2012.2429000000063,2011.232300000012,2011.7469000000065,2009.160800000012,2011.2322000000177,2012.2429000000063,2012.7427000000184,2012.742800000012,2013.348600000024,401.0,2013.348700000018,1.0,2013.3585,6.0,4.0,184.0,1.0,1.0,1.0,0.3,Time
,,S44,1,女,23,anonymized,Serial_Dependence_U,2023.2.3,Win32,59.523809523799216,,,,,,2013.3587000000184,199.0,6.0,2013.358800000012,199.0,,,,2017.548,2018.0414000000064,2017.043200000018,2017.548,2014.3764000000065,2017.043100000024,2018.0414000000064,2018.5300000000004,2018.5301000000245,2019.6149000000064,406.0,2019.615100000024,1.0,2019.6289000000063,6.0,5.0,185.0,24.0,1.0,1.6,0.3,Time
,,S44,1,女,23,anonymized,Serial_Dependence_U,2023.2.3,Win32,59.523809523799216,,,,,,2019.629100000024,143.0,6.0,2019.629300000012,143.0,,,,2023.797200000018,2024.290400000006,2023.280300000012,2023.797100000024,2020.631100000024,2023.280200000018,2024.290400000006,2024.790600000024,2024.790700000018,2026.545200000018,910.0,2026.5453000000125,1.0,2026.5529000000065,6.0,6.0,186.0,9.0,1.0,1.6,0.7,Time
,,S44,1,女,23,anonymized,Serial_Dependence_U,2023.2.3,Win32,59.523809523799216,,,,,,2026.553100000024,143.0,6.0,2026.5532000000185,143.0,,,,2030.756800000012,2031.255800000012,2030.245600000024,2030.756600000024,2027.574200000018,2030.2454000000064,2031.255800000012,2031.755600000024,2031.755600000024,2033.3792000000185,684.0,2033.3792000000185,1.0,2033.3939000000064,6.0,7.0,187.0,4.0,1.0,1.6,0.3,Time
,,S44,1,女,23,anonymized,Serial_Dependence_U,2023.2.3,Win32,59.523809523799216,,,,,,2033.394300000012,242.0,6.0,2033.3944000000065,242.0,,,,2037.3780000000004,2037.8715000000004,2036.861600000024,2037.377900000006,2034.389800000012,2036.8615,2037.8715000000004,2038.3716000000245,2038.3716000000245,2040.0295000000003,784.0,2040.0295000000003,1.0,2040.045200000018,6.0,8.0,188.0,23.0,1.0,1.4,0.3,Time
,,S44,1,女,23,anonymized,Serial_Dependence_U,2023.2.3,Win32,59.523809523799216,,,,,,2040.045700000018,153.0,6.0,2040.045800000012,153.0,,,,2043.4251000000245,2043.9203000000125,2042.9084000000064,2043.4250000000004,2041.0385000000003,2042.908300000012,2043.920400000006,2044.4194000000064,2044.4194000000064,2045.5590000000004,882.0,2045.5590000000004,4.0,2045.568100000024,6.0,9.0,189.0,0.0,1.0,0.8,0.3,Time
,,S44,1,女,23,anonymized,Serial_Dependence_U,2023.2.3,Win32,59.523809523799216,,,,,,2045.5684000000065,123.0,6.0,2045.5684000000065,123.0,,,,2049.520400000006,2050.0195,2049.009100000024,2049.520300000012,2046.575600000024,2049.009,2050.0195,2050.519400000006,2050.519400000006,2051.6609000000058,585.0,2051.661,1.0,2051.674400000006,6.0,10.0,190.0,28.0,1.0,1.4,0.7,Time
,,S44,1,女,23,anonymized,Serial_Dependence_U,2023.2.3,Win32,59.523809523799216,,,,,,2051.6745,347.0,6.0,2051.6747000000178,347.0,,,,2055.035800000012,2055.535100000024,2054.519100000024,2055.035600000024,2052.686,2054.519,2055.535100000024,2056.035200000018,2056.035300000012,2057.475300000012,802.0,2057.475300000012,3.0,2057.4892000000177,6.0,11.0,191.0,25.0,1.0,0.8,0.7,Time
,,S44,1,女,23,anonymized,Serial_Dependence_U,2023.2.3,Win32,59.523809523799216,,,,,,2057.489400000006,351.0,6.0,2057.4895,351.0,,,,2061.434800000012,2061.933800000012,2060.921200000018,2061.434700000018,2058.485300000012,2060.921200000018,2061.933800000012,2062.433800000012,2062.433900000006,2063.6575,702.0,2063.657700000018,1.0,2063.671400000006,6.0,12.0,192.0,18.0,1.0,1.4,0.7,Time
,,S44,1,女,23,anonymized,Serial_Dependence_U,2023.2.3,Win32,59.523809523799216,,,,,,2063.671600000024,316.0,6.0,2063.671700000018,316.0,,,,2067.816600000024,2068.315800000012,2067.3062000000177,2067.8165,2064.672900000006,2067.306,2068.315800000012,2068.815700000018,2068.815700000018,2070.389900000006,983.0,2070.389900000006,1.0,2070.407,6.0,13.0,193.0,19.0,1.0,1.6,0.7,Time
,,S44,1,女,23,anonymized,Serial_Dependence_U,2023.2.3,Win32,59.523809523799216,,,,,,2070.407300000012,65.0,6.0,2070.407400000006,65.0,,,,2073.9825,2074.481200000018,2073.471600000024,2073.982400000006,2071.3997000000177,2073.4715,2074.481200000018,2074.981300000012,2074.981300000012,2076.570800000012,799.0,2076.570900000006,2.0,2076.58,6.0,14.0,194.0,11.0,1.0,1.0,0.3,Time
,,S44,1,女,23,anonymized,Serial_Dependence_U,2023.2.3,Win32,59.523809523799216,,,,,,2076.580600000024,233.0,6.0,2076.5807000000177,233.0,,,,2080.774,2081.2637000000177,2080.27,2080.773800000012,2077.603900000006,2080.269900000006,2081.2637000000177,2081.763300000012,2081.7634000000057,2083.170600000024,800.0,2083.170800000012,1.0,2083.183800000012,6.0,15.0,195.0,14.0,1.0,1.6,0.3,Time
,,S44,1,女,23,anonymized,Serial_Dependence_U,2023.2.3,Win32,59.523809523799216,,,,,,2083.184,2.0,6.0,2083.184100000024,2.0,,,,2086.563800000012,2087.0627000000177,2086.052300000012,2086.563700000018,2084.180700000018,2086.052200000018,2087.062800000012,2087.562900000006,2087.562900000006,2088.519300000012,449.0,2088.519400000006,1.0,2088.532700000018,6.0,16.0,196.0,10.0,1.0,0.8,0.3,Time
,,S44,1,女,23,anonymized,Serial_Dependence_U,2023.2.3,Win32,59.523809523799216,,,,,,2088.532900000006,208.0,6.0,2088.533,208.0,,,,2092.312200000018,2092.811800000012,2091.800800000012,2092.312100000024,2089.533200000018,2091.800600000024,2092.811800000012,2093.299900000006,2093.3,2094.535100000024,550.0,2094.535200000018,1.0,2094.5492000000177,6.0,17.0,197.0,22.0,1.0,1.2,0.3,Time
,,S44,1,女,23,anonymized,Serial_Dependence_U,2023.2.3,Win32,59.523809523799216,,,,,,2094.549300000012,312.0,6.0,2094.549400000006,312.0,,,,2098.3115,2098.810200000018,2097.800300000012,2098.311400000006,2095.562100000024,2097.800300000012,2098.810200000018,2099.310200000018,2099.310300000012,2100.502900000006,551.0,2100.503,1.0,2100.516300000012,6.0,18.0,198.0,27.0,1.0,1.2,0.7,Time
,,S44,1,女,23,anonymized,Serial_Dependence_U,2023.2.3,Win32,59.523809523799216,,,,,,2100.5165,210.0,6.0,2100.516600000024,210.0,,,,2104.277100000024,2104.776200000018,2103.764,2104.277,2101.515400000006,2103.763900000006,2104.776200000018,2105.281300000012,2105.2814000000058,2106.650900000006,818.0,2106.651,1.0,2106.665400000006,6.0,19.0,199.0,7.0,1.0,1.2,0.7,Time
,,S44,1,女,23,anonymized,Serial_Dependence_U,2023.2.3,Win32,59.523809523799216,,,,,,2106.665600000024,330.0,6.0,2106.6657000000178,330.0,,,,2110.1985,2110.691600000024,2109.692700000018,2110.198300000012,2107.659800000012,2109.6925,2110.691600000024,2111.190900000006,2111.190900000006,2112.414600000024,742.0,2112.414800000012,2.0,2112.428100000024,6.0,20.0,200.0,6.0,1.0,1.0,0.7,Time
,,S44,1,女,23,anonymized,Serial_Dependence_U,2023.2.3,Win32,59.523809523799216,,,,,,2112.428300000012,287.0,6.0,2112.428400000006,287.0,,,,2116.408300000012,2116.9075,2115.896900000006,2116.408300000012,2113.425800000012,2115.896800000012,2116.907600000024,2117.407,2117.407,2118.7645,617.0,2118.764600000024,1.0,2118.777900000006,6.0,21.0,201.0,13.0,1.0,1.4,0.3,Time
,,S44,1,女,23,anonymized,Serial_Dependence_U,2023.2.3,Win32,59.523809523799216,,,,,,2118.778200000018,117.0,6.0,2118.778300000012,117.0,,,,2122.574,2123.072900000006,2122.062300000012,2122.573900000006,2119.791,2122.062200000018,2123.072900000006,2123.573,2123.573,2124.631400000006,561.0,2124.6315,1.0,2124.644200000018,6.0,22.0,202.0,2.0,1.0,1.2,0.3,Time
,,S44,1,女,23,anonymized,Serial_Dependence_U,2023.2.3,Win32,59.523809523799216,,,,,,2124.644300000012,264.0,6.0,2124.6445,264.0,,,,2128.5894000000058,2129.088800000012,2128.0762000000177,2128.589200000018,2125.6432000000177,2128.076100000024,2129.088900000006,2129.588300000012,2129.5885,2131.013200000018,651.0,2131.013300000012,1.0,2131.025900000006,6.0,23.0,203.0,8.0,1.0,1.4,0.7,Time
,,S44,1,女,23,anonymized,Serial_Dependence_U,2023.2.3,Win32,59.523809523799216,,,,,,2131.026100000024,194.0,6.0,2131.026200000018,194.0,,,,2134.593700000018,2135.087300000012,2134.077,2134.593600000024,2132.038600000024,2134.076900000006,2135.087300000012,2135.587400000006,2135.587400000006,2136.987800000012,685.0,2136.987900000006,1.0,2136.999200000018,6.0,24.0,204.0,26.0,1.0,1.0,0.7,Time
,,S44,1,女,23,anonymized,Serial_Dependence_U,2023.2.3,Win32,59.523809523799216,,,,,,2136.9995,316.0,6.0,2136.999600000024,316.0,,,,2140.3605,2140.853100000024,2139.858100000024,2140.360400000006,2138.021,2139.858,2140.853100000024,2141.353300000012,2141.353300000012,2142.826700000018,799.0,2142.826700000018,3.0,2142.840800000012,6.0,25.0,205.0,5.0,1.0,0.8,0.7,Time
,,S44,1,女,23,anonymized,Serial_Dependence_U,2023.2.3,Win32,59.523809523799216,,,,,,2142.841100000024,59.0,6.0,2142.841200000018,59.0,,,,2146.836100000024,2147.335,2146.326100000024,2146.836,2143.859,2146.326,2147.335,2147.8349000000057,2147.8349000000057,2148.8192000000176,477.0,2148.8194000000058,1.0,2148.8335,6.0,26.0,206.0,3.0,1.0,1.4,0.3,Time
,,S44,1,女,23,anonymized,Serial_Dependence_U,2023.2.3,Win32,59.523809523799216,,,,,,2148.833700000018,332.0,6.0,2148.833800000012,332.0,,,,2152.618600000024,2153.117400000006,2152.1075,2152.6185,2149.841200000018,2152.107400000006,2153.1175,2153.617300000012,2153.617400000006,2155.124700000018,883.0,2155.124800000012,2.0,2155.1384000000057,6.0,27.0,207.0,12.0,1.0,1.2,0.3,Time
,,S44,1,女,23,anonymized,Serial_Dependence_U,2023.2.3,Win32,59.523809523799216,,,,,,2155.1387000000177,246.0,6.0,2155.1387000000177,246.0,,,,2158.883700000018,2159.383400000006,2158.372800000012,2158.883700000018,2156.134800000012,2158.372600000024,2159.383400000006,2159.883300000012,2159.883300000012,2161.390600000024,701.0,2161.390800000012,1.0,2161.403700000018,6.0,28.0,208.0,17.0,1.0,1.2,0.7,Time
,,S44,1,女,23,anonymized,Serial_Dependence_U,2023.2.3,Win32,59.523809523799216,,,,,,2161.403900000006,348.0,6.0,2161.404,348.0,,,,2164.783200000018,2165.281900000006,2164.271900000006,2164.783200000018,2162.403700000018,2164.271800000012,2165.281900000006,2165.782100000024,2165.782200000018,2167.322800000012,816.0,2167.323,3.0,2167.336300000012,6.0,29.0,209.0,20.0,1.0,0.8,0.3,Time
,,S44,1,女,23,anonymized,Serial_Dependence_U,2023.2.3,Win32,59.523809523799216,,,,,,2167.3365,211.0,7.0,2184.4242000000177,211.0,s,17.0649999999996,,2187.829,2188.3327000000177,2187.317800000012,2187.828900000006,2185.4345,2187.317600000024,2188.3327000000177,2188.8282000000177,2188.828300000012,2189.535200000018,683.0,2189.535300000012,2.0,2189.551200000018,7.0,0.0,210.0,0.0,1.0,0.8,0.3,Time
,,S44,1,女,23,anonymized,Serial_Dependence_U,2023.2.3,Win32,59.523809523799216,,,,,,2189.5515,145.0,7.0,2189.552800000012,145.0,,,,2193.332800000012,2193.827200000018,2192.8169000000057,2193.332800000012,2190.545400000006,2192.8169000000057,2193.827200000018,2194.327,2194.327,2195.216900000006,649.0,2195.217,1.0,2195.225200000018,7.0,1.0,211.0,12.0,1.0,1.2,0.3,Time
,,S44,1,女,23,anonymized,Serial_Dependence_U,2023.2.3,Win32,59.523809523799216,,,,,,2195.2254000000057,336.0,7.0,2195.225600000024,336.0,,,,2199.398800000012,2199.892700000018,2198.882300000012,2199.398700000018,2196.231400000006,2198.8822000000177,2199.892700000018,2200.392700000018,2200.392700000018,2200.632900000006,116.0,2200.632900000006,1.0,2200.650200000018,7.0,2.0,212.0,29.0,1.0,1.6,0.7,Time
,,S44,1,女,23,anonymized,Serial_Dependence_U,2023.2.3,Win32,59.523809523799216,,,,,,2200.650700000018,264.0,7.0,2200.650900000006,264.0,,,,2204.015300000012,2204.508100000024,2203.498300000012,2204.015300000012,2201.659700000018,2203.4982000000177,2204.508100000024,2205.0085,2205.008600000024,2207.4985,616.0,2207.498600000024,2.0,2207.511400000006,7.0,3.0,213.0,5.0,1.0,0.8,0.7,Time
,,S44,1,女,23,anonymized,Serial_Dependence_U,2023.2.3,Win32,59.523809523799216,,,,,,2207.5115,262.0,7.0,2207.5117000000178,262.0,,,,2211.0585,2211.556900000006,2210.547300000012,2211.058400000006,2208.509100000024,2210.547100000024,2211.556900000006,2212.057,2212.057,2213.5805,866.0,2213.580600000024,2.0,2213.594600000024,7.0,4.0,214.0,26.0,1.0,1.0,0.7,Time
,,S44,1,女,23,anonymized,Serial_Dependence_U,2023.2.3,Win32,59.523809523799216,,,,,,2213.594900000006,171.0,7.0,2213.595100000024,171.0,,,,2217.773300000012,2218.272800000012,2217.262100000024,2217.773200000018,2214.590700000018,2217.261900000006,2218.272800000012,2218.7727000000177,2218.7727000000177,2220.313600000024,893.0,2220.313600000024,1.0,2220.326800000012,7.0,5.0,215.0,4.0,1.0,1.6,0.3,Time
,,S44,1,女,23,anonymized,Serial_Dependence_U,2023.2.3,Win32,59.523809523799216,,,,,,2220.327100000024,208.0,7.0,2220.327200000018,208.0,,,,2223.689300000012,2224.188200000018,2223.178300000012,2223.689200000018,2221.328100000024,2223.178200000018,2224.188300000012,2224.688200000018,2224.688300000012,2225.7785,493.0,2225.778600000024,1.0,2225.793400000006,7.0,6.0,216.0,15.0,1.0,0.8,0.7,Time
,,S44,1,女,23,anonymized,Serial_Dependence_U,2023.2.3,Win32,59.523809523799216,,,,,,2225.793700000018,299.0,7.0,2225.793700000018,299.0,,,,2229.3715,2229.8707000000177,2228.860800000012,2229.371400000006,2226.788700000018,2228.860700000018,2229.8707000000177,2230.3705,2230.370600000024,2231.411,433.0,2231.411100000024,1.0,2231.423300000012,7.0,7.0,217.0,21.0,1.0,1.0,0.3,Time
,,S44,1,女,23,anonymized,Serial_Dependence_U,2023.2.3,Win32,59.523809523799216,,,,,,2231.4235,232.0,7.0,2231.4235,232.0,,,,2235.004,2235.503,2234.4925,2235.003900000006,2232.421,2234.492400000006,2235.503100000024,2236.0027000000177,2236.002800000012,2236.993600000024,433.0,2236.9937000000177,1.0,2237.007300000012,7.0,8.0,218.0,1.0,1.0,1.0,0.3,Time
,,S44,1,女,23,anonymized,Serial_Dependence_U,2023.2.3,Win32,59.523809523799216,,,,,,2237.0075,77.0,7.0,2237.007700000018,77.0,,,,2240.969400000006,2241.468700000018,2240.458600000024,2240.9692000000177,2238.019900000006,2240.458400000006,2241.468800000012,2241.968300000012,2241.968300000012,2243.741400000006,814.0,2243.741400000006,1.0,2243.7555,7.0,9.0,219.0,28.0,1.0,1.4,0.7,Time
,,S44,1,女,23,anonymized,Serial_Dependence_U,2023.2.3,Win32,59.523809523799216,,,,,,2243.755800000012,122.0,7.0,2243.755800000012,122.0,,,,2247.506800000012,2248.000900000006,2247.001900000006,2247.5067000000176,2244.768300000012,2247.001800000012,2248.000900000006,2248.500900000006,2248.500900000006,2249.874200000018,700.0,2249.874300000012,1.0,2249.888900000006,7.0,10.0,220.0,27.0,1.0,1.2,0.7,Time
,,S44,1,女,23,anonymized,Serial_Dependence_U,2023.2.3,Win32,59.523809523799216,,,,,,2249.889300000012,355.0,7.0,2249.8895,355.0,,,,2253.867400000006,2254.366,2253.356100000024,2253.867400000006,2250.884300000012,2253.356,2254.366,2254.865900000006,2254.866,2256.123300000012,650.0,2256.123300000012,1.0,2256.137200000018,7.0,11.0,221.0,3.0,1.0,1.4,0.3,Time
,,S44,1,女,23,anonymized,Serial_Dependence_U,2023.2.3,Win32,59.523809523799216,,,,,,2256.137400000006,59.0,7.0,2256.1375,59.0,,,,2259.683,2260.186900000006,2259.1715,2259.682900000006,2257.133100000024,2259.171400000006,2260.186900000006,2260.682,2260.682,2261.773200000018,627.0,2261.773200000018,1.0,2261.787200000018,7.0,12.0,222.0,16.0,1.0,1.0,0.7,Time
,,S44,1,女,23,anonymized,Serial_Dependence_U,2023.2.3,Win32,59.523809523799216,,,,,,2261.787400000006,1.0,7.0,2261.787400000006,1.0,,,,2265.587300000012,2266.081,2265.069100000024,2265.5872000000177,2262.799,2265.068900000006,2266.081,2266.580300000012,2266.580300000012,2267.820200000018,653.0,2267.820300000012,1.0,2267.828,7.0,13.0,223.0,2.0,1.0,1.2,0.3,Time
,,S44,1,女,23,anonymized,Serial_Dependence_U,2023.2.3,Win32,59.523809523799216,,,,,,2267.8282000000177,312.0,7.0,2267.828300000012,312.0,,,,2271.580800000012,2272.085,2271.069600000024,2271.5807000000177,2268.8372000000177,2271.0695,2272.085,2272.5795,2272.5795,2273.804,701.0,2273.8042000000178,1.0,2273.818400000006,7.0,14.0,224.0,17.0,1.0,1.2,0.7,Time
,,S44,1,女,23,anonymized,Serial_Dependence_U,2023.2.3,Win32,59.523809523799216,,,,,,2273.818800000012,11.0,7.0,2273.818900000006,11.0,,,,2277.9675,2278.461700000018,2277.451900000006,2277.967400000006,2274.813600000024,2277.451700000018,2278.461700000018,2278.961800000012,2278.961800000012,2280.219100000024,643.0,2280.2192000000177,1.0,2280.230300000012,7.0,15.0,225.0,19.0,1.0,1.6,0.7,Time
,,S44,1,女,23,anonymized,Serial_Dependence_U,2023.2.3,Win32,59.523809523799216,,,,,,2280.2305,251.0,7.0,2280.230600000024,251.0,,,,2284.034,2284.5275,2283.515800000012,2284.033900000006,2281.246,2283.515800000012,2284.527600000024,2285.0275,2285.0275,2286.284800000012,642.0,2286.284900000006,1.0,2286.297900000006,7.0,16.0,226.0,22.0,1.0,1.2,0.3,Time
,,S44,1,女,23,anonymized,Serial_Dependence_U,2023.2.3,Win32,59.523809523799216,,,,,,2286.298300000012,218.0,7.0,2286.298400000006,218.0,,,,2290.493900000006,2290.993200000018,2289.982800000012,2290.493900000006,2287.300100000024,2289.9827000000178,2290.993300000012,2291.493100000024,2291.493200000018,2292.634400000006,634.0,2292.6345,1.0,2292.647200000018,7.0,17.0,227.0,14.0,1.0,1.6,0.3,Time
,,S44,1,女,23,anonymized,Serial_Dependence_U,2023.2.3,Win32,59.523809523799216,,,,,,2292.6474000000057,153.0,7.0,2292.6475,153.0,,,,2296.397200000018,2296.891900000006,2295.881800000012,2296.397,2293.649,2295.8817000000176,2296.891900000006,2297.392,2297.392100000024,2298.666700000018,735.0,2298.666800000012,1.0,2298.679,7.0,18.0,228.0,7.0,1.0,1.2,0.7,Time
,,S44,1,女,23,anonymized,Serial_Dependence_U,2023.2.3,Win32,59.523809523799216,,,,,,2298.679300000012,344.0,7.0,2298.679400000006,344.0,,,,2302.825300000012,2303.324300000012,2302.314,2302.825300000012,2299.681300000012,2302.314,2303.324400000006,2303.823900000006,2303.824,2304.999,661.0,2304.999100000024,1.0,2305.011300000012,7.0,19.0,229.0,9.0,1.0,1.6,0.7,Time
,,S44,1,女,23,anonymized,Serial_Dependence_U,2023.2.3,Win32,59.523809523799216,,,,,,2305.0115,308.0,7.0,2305.011600000024,308.0,,,,2309.179900000006,2309.673100000024,2308.6775,2309.179900000006,2306.007400000006,2308.677400000006,2309.673200000018,2310.173200000018,2310.173300000012,2311.513300000012,767.0,2311.513300000012,1.0,2311.528400000006,7.0,20.0,230.0,24.0,1.0,1.6,0.3,Time
,,S44,1,女,23,anonymized,Serial_Dependence_U,2023.2.3,Win32,59.523809523799216,,,,,,2311.528800000012,34.0,7.0,2311.529,34.0,,,,2315.4782000000178,2315.972100000024,2314.956300000012,2315.478100000024,2312.524100000024,2314.956200000018,2315.972100000024,2316.471900000006,2316.471900000006,2317.644,756.0,2317.644,1.0,2317.653100000024,7.0,21.0,231.0,8.0,1.0,1.4,0.7,Time
,,S44,1,女,23,anonymized,Serial_Dependence_U,2023.2.3,Win32,59.523809523799216,,,,,,2317.653400000006,291.0,7.0,2317.6535,291.0,,,,2321.221600000024,2321.721,2320.710900000006,2321.221400000006,2318.677800000012,2320.710800000012,2321.721100000024,2322.220900000006,2322.220900000006,2323.510800000012,666.0,2323.511,1.0,2323.525200000018,7.0,22.0,232.0,6.0,1.0,1.0,0.7,Time
,,S44,1,女,23,anonymized,Serial_Dependence_U,2023.2.3,Win32,59.523809523799216,,,,,,2323.5255,338.0,7.0,2323.5255,338.0,,,,2327.508200000018,2328.002900000006,2326.992700000018,2327.508100000024,2324.521300000012,2326.992600000024,2328.002900000006,2328.490900000006,2328.491,2329.760800000012,684.0,2329.761,1.0,2329.772800000012,7.0,23.0,233.0,23.0,1.0,1.4,0.3,Time
,,S44,1,女,23,anonymized,Serial_Dependence_U,2023.2.3,Win32,59.523809523799216,,,,,,2329.773,125.0,7.0,2329.773100000024,125.0,,,,2333.3687000000177,2333.867800000012,2332.853300000012,2333.368600000024,2330.786600000024,2332.8532000000178,2333.867800000012,2334.368900000006,2334.369,2335.709100000024,683.0,2335.709200000018,1.0,2335.7237000000177,7.0,24.0,234.0,11.0,1.0,1.0,0.3,Time
,,S44,1,女,23,anonymized,Serial_Dependence_U,2023.2.3,Win32,59.523809523799216,,,,,,2335.724,269.0,7.0,2335.724,269.0,,,,2339.0742000000178,2339.5672000000177,2338.5575,2339.074100000024,2336.7192000000177,2338.557300000012,2339.5672000000177,2340.067300000012,2340.067300000012,2341.342,827.0,2341.342,3.0,2341.355600000024,7.0,25.0,235.0,25.0,1.0,0.8,0.7,Time
,,S44,1,女,23,anonymized,Serial_Dependence_U,2023.2.3,Win32,59.523809523799216,,,,,,2341.355700000018,36.0,7.0,2341.355900000006,36.0,,,,2345.356600000024,2345.849700000018,2344.8397000000177,2345.3565,2342.368100000024,2344.839600000024,2345.849700000018,2346.349900000006,2346.35,2347.542200000018,552.0,2347.542300000012,1.0,2347.555400000006,7.0,26.0,236.0,13.0,1.0,1.4,0.3,Time
,,S44,1,女,23,anonymized,Serial_Dependence_U,2023.2.3,Win32,59.523809523799216,,,,,,2347.555700000018,355.0,7.0,2347.555700000018,355.0,,,,2350.942700000018,2351.432400000006,2350.4219000000057,2350.942600000024,2348.550400000006,2350.421800000012,2351.4325,2351.932300000012,2351.932300000012,2353.2235,618.0,2353.223600000024,2.0,2353.235100000024,7.0,27.0,237.0,10.0,1.0,0.8,0.3,Time
,,S44,1,女,23,anonymized,Serial_Dependence_U,2023.2.3,Win32,59.523809523799216,,,,,,2353.235300000012,35.0,7.0,2353.235400000006,35.0,,,,2357.181800000012,2357.6812000000177,2356.671300000012,2357.181700000018,2354.238300000012,2356.671100000024,2357.681300000012,2358.1812000000177,2358.1812000000177,2359.0224000000057,768.0,2359.0225,1.0,2359.035100000024,7.0,28.0,238.0,18.0,1.0,1.4,0.7,Time
,,S44,1,女,23,anonymized,Serial_Dependence_U,2023.2.3,Win32,59.523809523799216,,,,,,2359.035400000006,229.0,7.0,2359.0355,229.0,,,,2362.420600000024,2362.913700000018,2361.903600000024,2362.420300000012,2360.031900000006,2361.903400000006,2362.913700000018,2363.418400000006,2363.4185,2364.521200000018,608.0,2364.521200000018,2.0,2364.535100000024,7.0,29.0,239.0,20.0,1.0,0.8,0.3,Time
,,S44,1,女,23,anonymized,Serial_Dependence_U,2023.2.3,Win32,59.523809523799216,,,,,,2364.535300000012,215.0,8.0,2379.124900000006,215.0,s,14.563300000011624,,2382.486,2382.9765,2381.982800000012,2382.485800000012,2380.144700000018,2381.982600000024,2382.9765,2383.464900000006,2383.464900000006,2385.566700000018,733.0,2385.566800000012,2.0,2385.581,8.0,0.0,240.0,15.0,1.0,0.8,0.7,Time
,,S44,1,女,23,anonymized,Serial_Dependence_U,2023.2.3,Win32,59.523809523799216,,,,,,2385.581200000018,25.0,8.0,2385.582300000012,25.0,,,,2389.579700000018,2390.075300000012,2389.059700000018,2389.5795,2386.593200000018,2389.0595,2390.075300000012,2390.575400000006,2390.5755,2391.766600000024,617.0,2391.766700000018,1.0,2391.781,8.0,1.0,241.0,13.0,1.0,1.4,0.3,Time
,,S44,1,女,23,anonymized,Serial_Dependence_U,2023.2.3,Win32,59.523809523799216,,,,,,2391.781200000018,203.0,8.0,2391.781300000012,203.0,,,,2395.325400000006,2395.8245,2394.814,2395.325400000006,2392.775900000006,2394.814,2395.8245,2396.3245,2396.324600000024,2397.464600000024,711.0,2397.4647000000177,2.0,2397.4777000000176,8.0,2.0,242.0,6.0,1.0,1.0,0.7,Time
,,S44,1,女,23,anonymized,Serial_Dependence_U,2023.2.3,Win32,59.523809523799216,,,,,,2397.477900000006,170.0,8.0,2397.478100000024,170.0,,,,2400.857600000024,2401.356800000012,2400.3415,2400.857600000024,2398.474800000012,2400.341300000012,2401.356800000012,2401.856400000006,2401.856400000006,2402.711700000018,381.0,2402.711700000018,1.0,2402.7245,8.0,3.0,243.0,0.0,1.0,0.8,0.3,Time
,,S44,1,女,23,anonymized,Serial_Dependence_U,2023.2.3,Win32,59.523809523799216,,,,,,2402.724800000012,151.0,8.0,2402.724900000006,151.0,,,,2406.095600000024,2406.589,2405.579200000018,2406.0955,2403.7405,2405.579100000024,2406.589100000024,2407.089200000018,2407.089200000018,2408.062300000012,382.0,2408.062400000006,1.0,2408.075300000012,8.0,4.0,244.0,25.0,1.0,0.8,0.7,Time
,,S44,1,女,23,anonymized,Serial_Dependence_U,2023.2.3,Win32,59.523809523799216,,,,,,2408.0755,266.0,8.0,2408.0755,266.0,,,,2412.261,2412.7595,2411.744200000018,2412.261,2409.076100000024,2411.744100000024,2412.759600000024,2413.259900000006,2413.259900000006,2414.3617000000177,483.0,2414.361800000012,1.0,2414.3765,8.0,5.0,245.0,4.0,1.0,1.6,0.3,Time
,,S44,1,女,23,anonymized,Serial_Dependence_U,2023.2.3,Win32,59.523809523799216,,,,,,2414.376800000012,156.0,8.0,2414.376900000006,156.0,,,,2418.121400000006,2418.620600000024,2417.610200000018,2418.121400000006,2415.3772000000176,2417.61,2418.620600000024,2419.125600000024,2419.125700000018,2419.895800000012,617.0,2419.895900000006,1.0,2419.907900000006,8.0,6.0,246.0,27.0,1.0,1.2,0.7,Time
,,S44,1,女,23,anonymized,Serial_Dependence_U,2023.2.3,Win32,59.523809523799216,,,,,,2419.908100000024,50.0,8.0,2419.908200000018,50.0,,,,2423.307400000006,2423.808,2422.792900000006,2423.307300000012,2420.920800000012,2422.792800000012,2423.808,2424.302400000006,2424.3025,2425.009600000024,460.0,2425.009700000018,1.0,2425.024100000024,8.0,7.0,247.0,20.0,1.0,0.8,0.3,Time
,,S44,1,女,23,anonymized,Serial_Dependence_U,2023.2.3,Win32,59.523809523799216,,,,,,2425.024300000012,7.0,8.0,2425.024300000012,7.0,,,,2428.808400000006,2429.302,2428.291900000006,2428.808300000012,2426.02,2428.291800000012,2429.302,2429.8017000000177,2429.8017000000177,2430.702300000012,366.0,2430.702400000006,1.0,2430.715800000012,8.0,8.0,248.0,12.0,1.0,1.2,0.3,Time
,,S44,1,女,23,anonymized,Serial_Dependence_U,2023.2.3,Win32,59.523809523799216,,,,,,2430.716,209.0,8.0,2430.716,209.0,,,,2434.273400000006,2434.767400000006,2433.7575,2434.273400000006,2431.719,2433.7575,2434.767600000024,2435.267400000006,2435.267400000006,2435.889200000018,465.0,2435.889400000006,1.0,2435.903,8.0,9.0,249.0,26.0,1.0,1.0,0.7,Time
,,S44,1,女,23,anonymized,Serial_Dependence_U,2023.2.3,Win32,59.523809523799216,,,,,,2435.903100000024,105.0,8.0,2435.903200000018,105.0,,,,2439.4925,2439.987900000006,2438.973,2439.492400000006,2436.901400000006,2438.972900000006,2439.988,2440.482600000024,2440.482600000024,2441.4235,416.0,2441.423600000024,1.0,2441.436900000006,8.0,10.0,250.0,1.0,1.0,1.0,0.3,Time
,,S44,1,女,23,anonymized,Serial_Dependence_U,2023.2.3,Win32,59.523809523799216,,,,,,2441.437200000018,128.0,8.0,2441.437200000018,128.0,,,,2445.021,2445.5155,2444.505300000012,2445.020900000006,2442.433900000006,2444.505200000018,2445.5155,2446.015300000012,2446.015400000006,2447.156300000012,533.0,2447.156300000012,1.0,2447.169200000018,8.0,11.0,251.0,11.0,1.0,1.0,0.3,Time
,,S44,1,女,23,anonymized,Serial_Dependence_U,2023.2.3,Win32,59.523809523799216,,,,,,2447.169400000006,235.0,8.0,2447.1695,235.0,,,,2450.521100000024,2451.014600000024,2450.004300000012,2450.521,2448.165900000006,2450.004100000024,2451.014700000018,2451.514700000018,2451.514800000012,2452.655100000024,550.0,2452.655100000024,1.0,2452.669,8.0,12.0,252.0,5.0,1.0,0.8,0.7,Time
,,S44,1,女,23,anonymized,Serial_Dependence_U,2023.2.3,Win32,59.523809523799216,,,,,,2452.669200000018,218.0,8.0,2452.669300000012,218.0,,,,2456.480800000012,2456.980300000012,2455.970300000012,2456.480700000018,2453.686900000006,2455.970200000018,2456.980400000006,2457.480300000012,2457.480300000012,2458.503600000024,495.0,2458.503700000018,1.0,2458.516700000018,8.0,13.0,253.0,2.0,1.0,1.2,0.3,Time
,,S44,1,女,23,anonymized,Serial_Dependence_U,2023.2.3,Win32,59.523809523799216,,,,,,2458.517,203.0,8.0,2458.517,203.0,,,,2462.652300000012,2463.145800000012,2462.15,2462.6522000000177,2459.514200000018,2462.149900000006,2463.145900000006,2463.645300000012,2463.645400000006,2465.135400000006,932.0,2465.135400000006,1.0,2465.144100000024,8.0,14.0,254.0,9.0,1.0,1.6,0.7,Time
,,S44,1,女,23,anonymized,Serial_Dependence_U,2023.2.3,Win32,59.523809523799216,,,,,,2465.1445,32.0,8.0,2465.144600000024,32.0,,,,2468.728600000024,2469.2277000000176,2468.218100000024,2468.728400000006,2466.146100000024,2468.217900000006,2469.2277000000176,2469.728100000024,2469.7282000000178,2470.645300000012,383.0,2470.645400000006,1.0,2470.659400000006,8.0,15.0,255.0,21.0,1.0,1.0,0.3,Time
,,S44,1,女,23,anonymized,Serial_Dependence_U,2023.2.3,Win32,59.523809523799216,,,,,,2470.659600000024,5.0,8.0,2470.659600000024,5.0,,,,2474.611300000012,2475.110300000012,2474.094600000024,2474.611200000018,2471.661900000006,2474.094600000024,2475.110300000012,2475.609600000024,2475.6097000000177,2477.0175,785.0,2477.017600000024,1.0,2477.030800000012,8.0,16.0,256.0,28.0,1.0,1.4,0.7,Time
,,S44,1,女,23,anonymized,Serial_Dependence_U,2023.2.3,Win32,59.523809523799216,,,,,,2477.031100000024,3.0,8.0,2477.031200000018,3.0,,,,2480.7769000000058,2481.275700000018,2480.265600000024,2480.776800000012,2478.0325,2480.2655,2481.275700000018,2481.775200000018,2481.775300000012,2483.016800000012,752.0,2483.016800000012,1.0,2483.028300000012,8.0,17.0,257.0,17.0,1.0,1.2,0.7,Time
,,S44,1,女,23,anonymized,Serial_Dependence_U,2023.2.3,Win32,59.523809523799216,,,,,,2483.028600000024,195.0,8.0,2483.028700000018,195.0,,,,2487.197900000006,2487.691400000006,2486.681400000006,2487.197700000018,2484.0315,2486.681300000012,2487.6915,2488.191400000006,2488.1915,2489.5655,702.0,2489.565600000024,1.0,2489.577800000012,8.0,18.0,258.0,19.0,1.0,1.6,0.7,Time
,,S44,1,女,23,anonymized,Serial_Dependence_U,2023.2.3,Win32,59.523809523799216,,,,,,2489.578100000024,157.0,8.0,2489.578100000024,157.0,,,,2493.7245,2494.223600000024,2493.2082000000178,2493.724400000006,2490.575,2493.208100000024,2494.223600000024,2494.723600000024,2494.723600000024,2495.963900000006,700.0,2495.963900000006,1.0,2495.976700000018,8.0,19.0,259.0,29.0,1.0,1.6,0.7,Time
,,S44,1,女,23,anonymized,Serial_Dependence_U,2023.2.3,Win32,59.523809523799216,,,,,,2495.976800000012,152.0,8.0,2495.977,152.0,,,,2499.9565,2500.4555,2499.443600000024,2499.956400000006,2496.974,2499.4435,2500.4555,2500.9554000000057,2500.9555,2501.912,783.0,2501.912100000024,1.0,2501.923400000006,8.0,20.0,260.0,23.0,1.0,1.4,0.3,Time
