Scale_setup.started,Scale_setup.stopped,participant,session,sex,age,date,expName,psychopyVersion,OS,frameRate,Intro.started,Intro.stopped,key_resp_2.keys,key_resp_2.rt,key_resp_2.duration,block.started,direction,Block_id,block.stopped,trial_direction,Block_resp_2.keys,Block_resp_2.rt,Block_resp_2.duration,ITI.started,ITI.stopped,Mask_2.started,Mask_2.stopped,encoding.started,encoding.stopped,Cue.started,Cue.stopped,Response.started,Response.stopped,keyDuration,Feedback_Time.started,FeedbackID_T,Feedback_Time.stopped,trials.thisRepN,trials.thisTrialN,trials.thisN,trials.thisIndex,trials.ran,TimeDur,Coherence1,TrialType
0.0004000000953645,0.0005999999046295,S46,1,女,21,anonymized,Serial_Dependence_U,2023.2.3,Win32,60.24096385542697,,,,,,,,,,,,,,,,,,,,,,,,,,,,,,,,,,,
,,S46,1,女,21,anonymized,Serial_Dependence_U,2023.2.3,Win32,60.24096385542697,48.78709999990463,104.9345,space,56.125,,,,,,,,,,,,,,,,,,,,,,,,,,,,,,,
,,S46,1,女,21,anonymized,Serial_Dependence_U,2023.2.3,Win32,60.24096385542697,,,,,,104.94990000009535,247.0,0.0,107.84540000009537,247.0,s,2.8696000001430377,,111.99329999995231,112.4932000000477,111.48070000004768,111.99309999990464,108.846,111.4805,112.49340000009536,112.9932000000477,112.99329999995231,134.88570000004768,161.0,134.88590000009538,1.0,135.88459999990465,0.0,0.0,0.0,19.0,1.0,1.6,0.7,Time
,,S46,1,女,21,anonymized,Serial_Dependence_U,2023.2.3,Win32,60.24096385542697,,,,,,135.8852999999523,242.0,0.0,135.88750000000002,242.0,,,,139.44979999995232,139.95009999990464,138.93529999995232,139.4497000000477,136.90109999990463,138.9352000000477,139.95009999990464,140.4502000000477,140.4502000000477,147.4805,4030.0,147.4805,5.0,148.4802999999523,0.0,1.0,1.0,26.0,1.0,1.0,0.7,Time
,,S46,1,女,21,anonymized,Serial_Dependence_U,2023.2.3,Win32,60.24096385542697,,,,,,148.48070000004768,61.0,0.0,148.48090000009535,61.0,,,,152.27929999995231,152.77909999990464,151.76359999990464,152.2792000000477,149.49679999995232,151.76359999990464,152.77909999990464,153.27940000009536,153.27940000009536,154.445,836.0,154.445,1.0,155.44400000000002,0.0,2.0,2.0,12.0,1.0,1.2,0.3,Time
,,S46,1,女,21,anonymized,Serial_Dependence_U,2023.2.3,Win32,60.24096385542697,,,,,,155.44459999990465,259.0,0.0,155.4447000000477,259.0,,,,159.24370000004768,159.7432000000477,158.7272000000477,159.24370000004768,156.46079999995231,158.72709999990462,159.7432000000477,160.24440000009537,160.24440000009537,163.3587000000477,1366.0,163.3587999999523,4.0,164.3577999999523,0.0,3.0,3.0,22.0,1.0,1.2,0.3,Time
,,S46,1,女,21,anonymized,Serial_Dependence_U,2023.2.3,Win32,60.24096385542697,,,,,,164.35840000009537,278.0,0.0,164.35859999990464,278.0,,,,167.709,168.20659999990465,167.2075,167.70890000009538,165.37490000009538,167.2072999999523,168.20659999990465,168.7062000000477,168.7062000000477,169.6232999999523,681.0,169.62359999990463,2.0,170.62309999990464,0.0,4.0,4.0,5.0,1.0,0.8,0.7,Time
,,S46,1,女,21,anonymized,Serial_Dependence_U,2023.2.3,Win32,60.24096385542697,,,,,,170.6235,120.0,0.0,170.62379999995233,120.0,,,,174.0052000000477,174.50409999990464,173.4887000000477,174.005,171.6232000000477,173.48850000000002,174.5042000000477,175.0055,175.0055,175.6545,248.0,175.6545,1.0,176.65340000009536,0.0,5.0,5.0,0.0,1.0,0.8,0.3,Time
,,S46,1,女,21,anonymized,Serial_Dependence_U,2023.2.3,Win32,60.24096385542697,,,,,,176.65390000009538,0.0,0.0,176.65409999990464,0.0,,,,180.054,180.5532000000477,179.53659999990464,180.05379999995233,177.67109999990464,179.53650000000002,180.5532000000477,181.05240000009536,181.0525,182.6695,1238.0,182.66959999990465,5.0,183.66840000009535,0.0,6.0,6.0,10.0,1.0,0.8,0.3,Time
,,S46,1,女,21,anonymized,Serial_Dependence_U,2023.2.3,Win32,60.24096385542697,,,,,,183.6687000000477,55.0,0.0,183.66890000009536,55.0,,,,187.25040000009537,187.75029999995232,186.73429999995236,187.25029999995232,184.6687000000477,186.73409999990463,187.75040000009537,188.25029999995232,188.25029999995232,190.14929999995232,1536.0,190.14940000009537,5.0,191.1492000000477,0.0,7.0,7.0,21.0,1.0,1.0,0.3,Time
,,S46,1,女,21,anonymized,Serial_Dependence_U,2023.2.3,Win32,60.24096385542697,,,,,,191.1495,66.0,0.0,191.1497000000477,66.0,,,,195.34879999995232,195.84779999995231,194.83159999990465,195.34859999990465,192.16509999990464,194.83140000009536,195.84790000009536,196.3487000000477,196.34879999995232,197.19759999990464,420.0,197.1977000000477,1.0,198.1977000000477,0.0,8.0,8.0,4.0,1.0,1.6,0.3,Time
,,S46,1,女,21,anonymized,Serial_Dependence_U,2023.2.3,Win32,60.24096385542697,,,,,,198.19829999995235,256.0,0.0,198.1985,256.0,,,,201.79679999995236,202.29509999990464,201.28,201.79670000004768,199.2145,201.27990000009535,202.29509999990464,202.79459999990465,202.7947000000477,205.44509999990464,2201.0,205.4452999999523,5.0,206.44359999990465,0.0,9.0,9.0,1.0,1.0,1.0,0.3,Time
,,S46,1,女,21,anonymized,Serial_Dependence_U,2023.2.3,Win32,60.24096385542697,,,,,,206.44409999990464,307.0,0.0,206.4442000000477,307.0,,,,210.20990000009536,210.7092000000477,209.694,210.2097999999523,207.46059999990464,209.69340000009535,210.7092000000477,211.20890000009535,211.20890000009535,213.39209999990464,1412.0,213.39229999995231,4.0,214.392,0.0,10.0,10.0,17.0,1.0,1.2,0.7,Time
,,S46,1,女,21,anonymized,Serial_Dependence_U,2023.2.3,Win32,60.24096385542697,,,,,,214.39229999995231,198.0,0.0,214.3925,198.0,,,,218.37379999995235,218.873,217.8732000000477,218.37370000004768,215.4092999999523,217.87309999990464,218.87309999990464,219.37220000004768,219.37220000004768,221.4052000000477,2023.0,221.40529999995232,5.0,222.40640000009537,0.0,11.0,11.0,23.0,1.0,1.4,0.3,Time
,,S46,1,女,21,anonymized,Serial_Dependence_U,2023.2.3,Win32,60.24096385542697,,,,,,222.40659999990464,345.0,0.0,222.4067000000477,345.0,,,,226.35440000009535,226.85340000009535,225.8385,226.35429999995236,223.4059000000954,225.83840000009536,226.8535,227.35390000009536,227.354,229.55290000009535,1286.0,229.55290000009535,2.0,230.5525,0.0,12.0,12.0,28.0,1.0,1.4,0.7,Time
,,S46,1,女,21,anonymized,Serial_Dependence_U,2023.2.3,Win32,60.24096385542697,,,,,,230.55290000009535,285.0,0.0,230.55309999990465,285.0,,,,234.51909999990465,235.0184000000953,234.00140000009532,234.51890000009533,231.5697000000477,234.0012999999523,235.0184000000953,235.5184000000953,235.5184000000953,236.71690000009536,542.0,236.7170999999046,1.0,237.71809999990464,0.0,13.0,13.0,18.0,1.0,1.4,0.7,Time
,,S46,1,女,21,anonymized,Serial_Dependence_U,2023.2.3,Win32,60.24096385542697,,,,,,237.71840000009533,118.0,0.0,237.71859999990463,118.0,,,,241.30029999995227,241.7987999999523,240.7990999999046,241.30020000004768,238.733,240.7990999999046,241.7987999999523,242.2985,242.2985,246.4135,3613.0,246.4135,5.0,247.41379999995232,0.0,14.0,14.0,11.0,1.0,1.0,0.3,Time
,,S46,1,女,21,anonymized,Serial_Dependence_U,2023.2.3,Win32,60.24096385542697,,,,,,247.41420000004769,55.0,0.0,247.4142999999523,55.0,,,,251.1620999999046,251.66140000009537,250.6465,251.16190000009536,248.41470000004765,250.6465,251.6615,252.16129999995232,252.16140000009537,255.04470000004764,2482.0,255.0447999999523,5.0,256.0432000000477,0.0,15.0,15.0,7.0,1.0,1.2,0.7,Time
,,S46,1,女,21,anonymized,Serial_Dependence_U,2023.2.3,Win32,60.24096385542697,,,,,,256.04359999990464,184.0,0.0,256.04359999990464,184.0,,,,260.2099000000954,260.7085,259.69309999990463,260.2097000000477,257.0615,259.69309999990463,260.7085,261.20979999995234,261.2099000000954,262.0427000000477,380.0,262.0427999999523,1.0,263.04240000009537,0.0,16.0,16.0,9.0,1.0,1.6,0.7,Time
,,S46,1,女,21,anonymized,Serial_Dependence_U,2023.2.3,Win32,60.24096385542697,,,,,,263.0427999999523,55.0,0.0,263.04290000009536,55.0,,,,267.0235,267.5227000000477,266.5077000000477,267.02340000009536,264.04159999990463,266.5075,267.5227000000477,268.0237999999523,268.0237999999523,270.6905,2281.0,270.69059999990463,5.0,271.689,0.0,17.0,17.0,13.0,1.0,1.4,0.3,Time
,,S46,1,女,21,anonymized,Serial_Dependence_U,2023.2.3,Win32,60.24096385542697,,,,,,271.6895,121.0,0.0,271.6897000000477,121.0,,,,275.0547000000477,275.5539000000954,274.5385,275.0545999999046,272.70550000000003,274.5384000000953,275.55400000000003,276.0545999999046,276.0545999999046,277.2864000000954,846.0,277.2865,4.0,278.2865,0.0,18.0,18.0,25.0,1.0,0.8,0.7,Time
,,S46,1,女,21,anonymized,Serial_Dependence_U,2023.2.3,Win32,60.24096385542697,,,,,,278.2869000000954,318.0,0.0,278.2870999999046,318.0,,,,282.4852999999523,282.9847999999523,281.9687000000477,282.4852999999523,279.30309999990465,281.96859999990465,282.9847999999523,283.48409999990463,283.4842000000477,284.76800000000003,780.0,284.7680999999046,1.0,285.76820000004767,0.0,19.0,19.0,24.0,1.0,1.6,0.3,Time
,,S46,1,女,21,anonymized,Serial_Dependence_U,2023.2.3,Win32,60.24096385542697,,,,,,285.76859999990467,303.0,0.0,285.7687999999523,303.0,,,,289.9662999999523,290.4652999999523,289.4507999999523,289.9662000000477,286.7847999999523,289.4507000000477,290.4652999999523,290.9650999999046,290.9652000000477,292.7314000000954,1208.0,292.7314000000954,2.0,293.73129999995234,0.0,20.0,20.0,14.0,1.0,1.6,0.3,Time
,,S46,1,女,21,anonymized,Serial_Dependence_U,2023.2.3,Win32,60.24096385542697,,,,,,293.7315,176.0,0.0,293.73159999990463,176.0,,,,297.89679999995235,298.3967000000477,297.3810999999046,297.89679999995235,294.7472000000477,297.38100000000003,298.3967000000477,298.89679999995235,298.89679999995235,301.41179999995234,2093.0,301.412,5.0,302.4115,0.0,21.0,21.0,29.0,1.0,1.6,0.7,Time
,,S46,1,女,21,anonymized,Serial_Dependence_U,2023.2.3,Win32,60.24096385542697,,,,,,302.4119000000954,152.0,0.0,302.412,152.0,,,,305.9774000000954,306.4762000000477,305.4602000000477,305.9774000000954,303.42829999995234,305.4600999999046,306.47629999995235,306.97679999995233,306.97679999995233,308.4757000000477,1417.0,308.4757999999523,5.0,309.4764000000954,0.0,22.0,22.0,6.0,1.0,1.0,0.7,Time
,,S46,1,女,21,anonymized,Serial_Dependence_U,2023.2.3,Win32,60.24096385542697,,,,,,309.4767000000477,255.0,0.0,309.4767000000477,255.0,,,,313.2757999999523,313.7739000000953,312.75909999990466,313.27570000004766,310.4920999999046,312.75909999990466,313.7739000000953,314.274,314.27409999990465,316.08979999995233,1415.0,316.08979999995233,4.0,317.08929999995235,0.0,23.0,23.0,2.0,1.0,1.2,0.3,Time
,,S46,1,女,21,anonymized,Serial_Dependence_U,2023.2.3,Win32,60.24096385542697,,,,,,317.0895,280.0,0.0,317.08959999990464,280.0,,,,321.07229999995235,321.5715,320.55609999990463,321.07209999990465,318.0899000000954,320.55579999995234,321.5715,322.0710999999046,322.07120000004767,323.8375,1399.0,323.8375999999046,3.0,324.837,0.0,24.0,24.0,3.0,1.0,1.4,0.3,Time
,,S46,1,女,21,anonymized,Serial_Dependence_U,2023.2.3,Win32,60.24096385542697,,,,,,324.8374000000954,106.0,0.0,324.8375,106.0,,,,328.4032999999523,328.9037000000477,327.8860999999046,328.40320000004766,325.85429999995233,327.8860999999046,328.9037000000477,329.40250000000003,329.40250000000003,330.51909999990465,779.0,330.51909999990465,2.0,331.51940000009535,0.0,25.0,25.0,16.0,1.0,1.0,0.7,Time
,,S46,1,女,21,anonymized,Serial_Dependence_U,2023.2.3,Win32,60.24096385542697,,,,,,331.51979999995234,254.0,0.0,331.52,254.0,,,,334.8835999999046,335.3834000000954,334.36740000009536,334.8835,332.5345,334.3672999999523,335.3835,335.8835,335.8835999999046,336.80009999990466,476.0,336.80009999990466,1.0,337.79990000009536,0.0,26.0,26.0,15.0,1.0,0.8,0.7,Time
,,S46,1,女,21,anonymized,Serial_Dependence_U,2023.2.3,Win32,60.24096385542697,,,,,,337.8002000000477,53.0,0.0,337.8002999999523,53.0,,,,341.5492999999523,342.0479000000953,341.04829999995235,341.5492000000477,338.8172999999523,341.0482000000477,342.048,342.548,342.548,343.56459999990466,617.0,343.56459999990466,1.0,344.56420000004766,0.0,27.0,27.0,27.0,1.0,1.2,0.7,Time
,,S46,1,女,21,anonymized,Serial_Dependence_U,2023.2.3,Win32,60.24096385542697,,,,,,344.5647000000477,249.0,0.0,344.5649000000953,249.0,,,,348.5294000000954,349.02929999995234,348.01390000009536,348.5292000000477,345.58050000000003,348.01390000009536,349.0294000000954,349.5287999999523,349.5287999999523,350.4454000000954,499.0,350.4455,1.0,351.44509999990464,0.0,28.0,28.0,8.0,1.0,1.4,0.7,Time
,,S46,1,女,21,anonymized,Serial_Dependence_U,2023.2.3,Win32,60.24096385542697,,,,,,351.4454000000954,8.0,0.0,351.44559999990463,8.0,,,,354.84409999990464,355.3437999999523,354.32729999995234,354.844,352.4615,354.3272000000477,355.3437999999523,355.84409999990464,355.84409999990464,356.0105999999046,103.0,356.0105999999046,1.0,357.0104000000954,0.0,29.0,29.0,20.0,1.0,0.8,0.3,Time
,,S46,1,女,21,anonymized,Serial_Dependence_U,2023.2.3,Win32,60.24096385542697,,,,,,357.0105999999046,147.0,1.0,420.1045999999046,147.0,s,63.073299999952326,,423.88779999995234,424.38640000009536,423.3707000000477,423.8877000000477,421.1057999999523,423.3705,424.3865,424.8867000000477,424.8867999999523,426.60270000004766,1585.0,426.60270000004766,5.0,426.61,1.0,0.0,30.0,2.0,1.0,1.2,0.3,Time
,,S46,1,女,21,anonymized,Serial_Dependence_U,2023.2.3,Win32,60.24096385542697,,,,,,426.6102999999523,198.0,1.0,426.6115999999046,198.0,,,,429.9852999999523,430.4852999999523,429.46929999995234,429.9850999999047,427.6042000000477,429.4692000000477,430.4852999999523,430.9855999999047,430.9857000000477,432.5005,1323.0,432.5005,5.0,432.5070999999047,1.0,1.0,31.0,10.0,1.0,0.8,0.3,Time
,,S46,1,女,21,anonymized,Serial_Dependence_U,2023.2.3,Win32,60.24096385542697,,,,,,432.5072999999523,177.0,1.0,432.50740000009534,177.0,,,,435.89979999995234,436.39959999990464,435.3845999999047,435.8997000000477,433.518,435.3845,436.39959999990464,436.8994000000954,436.8994000000954,438.4485,1520.0,438.4485999999046,5.0,438.45529999995233,1.0,2.0,32.0,0.0,1.0,0.8,0.3,Time
,,S46,1,女,21,anonymized,Serial_Dependence_U,2023.2.3,Win32,60.24096385542697,,,,,,438.4555999999046,323.0,1.0,438.45570000004767,323.0,,,,442.2319000000954,442.73179999995233,441.73090000009535,442.2317000000477,439.4655999999046,441.7307999999523,442.73179999995233,443.2314000000954,443.2315,445.5132000000477,2161.0,445.5132999999523,5.0,445.5190999999047,1.0,3.0,33.0,22.0,1.0,1.2,0.3,Time
,,S46,1,女,21,anonymized,Serial_Dependence_U,2023.2.3,Win32,60.24096385542697,,,,,,445.5192000000477,356.0,1.0,445.5192999999523,356.0,,,,449.6960999999046,450.1942000000477,449.1790999999046,449.696,446.5137999999523,449.179,450.1942000000477,450.6947999999523,450.69490000009534,450.8444000000954,50.0,450.8445,1.0,450.8502999999523,1.0,4.0,34.0,14.0,1.0,1.6,0.3,Time
,,S46,1,女,21,anonymized,Serial_Dependence_U,2023.2.3,Win32,60.24096385542697,,,,,,450.8505999999047,56.0,1.0,450.8505999999047,56.0,,,,454.5932999999523,455.0927999999523,454.0767999999523,454.5932999999523,451.845,454.0767000000477,455.0927999999523,455.5932000000477,455.5932999999523,455.9934000000954,241.0,455.9935,1.0,455.99990000009535,1.0,5.0,35.0,17.0,1.0,1.2,0.7,Time
,,S46,1,女,21,anonymized,Serial_Dependence_U,2023.2.3,Win32,60.24096385542697,,,,,,456.0000999999047,22.0,1.0,456.0002000000477,22.0,,,,459.9587000000477,460.4585,459.44240000009535,459.9585,457.0095,459.4422999999523,460.4585,460.959,460.9590999999047,463.54040000009536,2205.0,463.5405999999047,5.0,463.5464000000954,1.0,6.0,36.0,28.0,1.0,1.4,0.7,Time
,,S46,1,女,21,anonymized,Serial_Dependence_U,2023.2.3,Win32,60.24096385542697,,,,,,463.5467000000477,155.0,1.0,463.5467999999523,155.0,,,,467.5397000000477,468.0385,467.0230999999046,467.5395999999046,464.558,467.0230999999046,468.0385,468.53909999990464,468.53909999990464,471.0707999999523,2087.0,471.0707999999523,5.0,471.0775,1.0,7.0,37.0,13.0,1.0,1.4,0.3,Time
,,S46,1,女,21,anonymized,Serial_Dependence_U,2023.2.3,Win32,60.24096385542697,,,,,,471.0777000000477,237.0,1.0,471.07779999995233,237.0,,,,474.6697999999523,475.16970000004767,474.1535,474.66970000004767,472.0882999999523,474.1532999999523,475.16970000004767,475.67,475.67,478.2862000000477,2166.0,478.2862000000477,5.0,478.29220000004767,1.0,8.0,38.0,1.0,1.0,1.0,0.3,Time
,,S46,1,女,21,anonymized,Serial_Dependence_U,2023.2.3,Win32,60.24096385542697,,,,,,478.29240000009537,285.0,1.0,478.2925,285.0,,,,481.8847999999524,482.3847999999524,481.3682000000477,481.8845999999047,479.30290000009535,481.368,482.3847999999524,482.8832999999523,482.8832999999523,485.2827999999523,2018.0,485.2827999999523,5.0,485.2902999999523,1.0,9.0,39.0,21.0,1.0,1.0,0.3,Time
,,S46,1,女,21,anonymized,Serial_Dependence_U,2023.2.3,Win32,60.24096385542697,,,,,,485.2907000000477,236.0,1.0,485.291,236.0,,,,488.634,489.13120000004767,488.1322999999524,488.6337999999523,486.3005,488.1322999999524,489.13120000004767,489.6315,489.6315999999047,491.93109999990463,1995.0,491.9312000000477,5.0,491.9372000000477,1.0,10.0,40.0,15.0,1.0,0.8,0.7,Time
,,S46,1,女,21,anonymized,Serial_Dependence_U,2023.2.3,Win32,60.24096385542697,,,,,,491.9374000000954,169.0,1.0,491.9375999999046,169.0,,,,495.71320000004766,496.2135,495.197,495.7130999999047,492.93109999990463,495.1969000000954,496.2135,496.7132999999524,496.7132999999524,499.6947999999524,2664.0,499.6947999999524,5.0,499.7017000000477,1.0,11.0,41.0,12.0,1.0,1.2,0.3,Time
,,S46,1,女,21,anonymized,Serial_Dependence_U,2023.2.3,Win32,60.24096385542697,,,,,,499.702,122.0,1.0,499.7020999999046,122.0,,,,503.8767999999524,504.376,503.36179999995227,503.8765999999047,500.6952000000476,503.36179999995227,504.376,504.8765999999047,504.87670000004766,508.82450000000006,3551.0,508.8245999999047,5.0,508.8309000000954,1.0,12.0,42.0,4.0,1.0,1.6,0.3,Time
,,S46,1,女,21,anonymized,Serial_Dependence_U,2023.2.3,Win32,60.24096385542697,,,,,,508.8312000000477,39.0,1.0,508.8312000000477,39.0,,,,512.7739000000954,513.2732999999523,512.2572999999524,512.7737999999523,509.8255,512.2572000000476,513.2734000000954,513.7732000000477,513.7732000000477,518.0052000000477,3798.0,518.0052000000477,5.0,518.0112999999524,1.0,13.0,43.0,18.0,1.0,1.4,0.7,Time
,,S46,1,女,21,anonymized,Serial_Dependence_U,2023.2.3,Win32,60.24096385542697,,,,,,518.0115,179.0,1.0,518.0115999999047,179.0,,,,521.5720999999046,522.07,521.0555999999046,521.572,519.022,521.0555,522.07,522.5710999999046,522.5712000000477,526.3025,3573.0,526.3025999999046,5.0,526.3085,1.0,14.0,44.0,16.0,1.0,1.0,0.7,Time
,,S46,1,女,21,anonymized,Serial_Dependence_U,2023.2.3,Win32,60.24096385542697,,,,,,526.3087999999523,16.0,1.0,526.3087999999523,16.0,,,,530.4685999999047,530.9675999999047,529.9527000000477,530.4685999999047,527.3195000000001,529.9525999999047,530.9675999999047,531.4682999999524,531.4684000000954,534.1829000000954,2700.0,534.183,5.0,534.1912999999523,1.0,15.0,45.0,29.0,1.0,1.6,0.7,Time
,,S46,1,女,21,anonymized,Serial_Dependence_U,2023.2.3,Win32,60.24096385542697,,,,,,534.1915,186.0,1.0,534.1917000000477,186.0,,,,537.5320999999046,538.033,537.0157999999524,537.5319000000953,535.1837000000477,537.0157000000477,538.033,538.5329000000954,538.533,541.598,2754.0,541.598,5.0,541.604,1.0,16.0,46.0,25.0,1.0,0.8,0.7,Time
,,S46,1,女,21,anonymized,Serial_Dependence_U,2023.2.3,Win32,60.24096385542697,,,,,,541.6044000000953,109.0,1.0,541.6045,109.0,,,,545.3467999999523,545.8454000000954,544.8302999999523,545.3467000000477,542.5980999999047,544.83,545.8454000000954,546.3452000000477,546.3452000000477,547.9622999999523,1342.0,547.9624000000954,4.0,547.9677999999524,1.0,17.0,47.0,27.0,1.0,1.2,0.7,Time
,,S46,1,女,21,anonymized,Serial_Dependence_U,2023.2.3,Win32,60.24096385542697,,,,,,547.9680999999047,342.0,1.0,547.9682000000477,342.0,,,,552.1440999999046,552.6447000000477,551.6277000000476,552.144,548.9622999999523,551.6275999999046,552.6447000000477,553.143,553.143,555.8257999999523,2346.0,555.8259000000953,5.0,555.8325,1.0,18.0,48.0,24.0,1.0,1.6,0.3,Time
,,S46,1,女,21,anonymized,Serial_Dependence_U,2023.2.3,Win32,60.24096385542697,,,,,,555.8327000000477,333.0,1.0,555.8327999999523,333.0,,,,559.4252999999524,559.9247999999524,558.9087999999523,559.4252000000477,556.8419000000954,558.9087999999523,559.9247999999524,560.4259000000953,560.426,563.1067000000477,2287.0,563.1067999999523,5.0,563.1127999999524,1.0,19.0,49.0,11.0,1.0,1.0,0.3,Time
,,S46,1,女,21,anonymized,Serial_Dependence_U,2023.2.3,Win32,60.24096385542697,,,,,,563.113,152.0,1.0,563.1130999999046,152.0,,,,566.6725,567.1730999999046,566.1567999999523,566.6722999999523,564.1234000000953,566.1565999999046,567.1730999999046,567.6717999999523,567.6719000000953,570.4047999999523,2413.0,570.4047999999523,5.0,570.4107999999524,1.0,20.0,50.0,6.0,1.0,1.0,0.7,Time
,,S46,1,女,21,anonymized,Serial_Dependence_U,2023.2.3,Win32,60.24096385542697,,,,,,570.4110000000001,33.0,1.0,570.4110999999046,33.0,,,,573.7549000000954,574.2542000000477,573.2537000000477,573.7547000000477,571.4207999999524,573.2537000000477,574.2542999999523,574.7537999999523,574.7537999999523,576.9520999999046,364.0,576.9520999999046,1.0,576.958,1.0,21.0,51.0,5.0,1.0,0.8,0.7,Time
,,S46,1,女,21,anonymized,Serial_Dependence_U,2023.2.3,Win32,60.24096385542697,,,,,,576.9582000000477,234.0,1.0,576.9582999999524,234.0,,,,580.7020999999046,581.2004000000953,580.2015,580.702,577.9687000000476,580.2014000000954,581.2004000000953,581.7010999999046,581.7010999999046,584.4669000000954,2303.0,584.467,5.0,584.474,1.0,22.0,52.0,7.0,1.0,1.2,0.7,Time
,,S46,1,女,21,anonymized,Serial_Dependence_U,2023.2.3,Win32,60.24096385542697,,,,,,584.4742000000477,89.0,1.0,584.4745,89.0,,,,588.4647999999523,588.9645,587.9484000000954,588.4647000000477,585.4822000000477,587.9482999999523,588.9645,589.4650999999046,589.4652000000477,592.6127000000477,2732.0,592.6127999999524,5.0,592.6190999999046,1.0,23.0,53.0,3.0,1.0,1.4,0.3,Time
,,S46,1,女,21,anonymized,Serial_Dependence_U,2023.2.3,Win32,60.24096385542697,,,,,,592.6192000000477,231.0,1.0,592.6192999999523,231.0,,,,596.5790999999047,597.0797000000476,596.0629000000954,596.579,593.6299000000954,596.0627999999523,597.0797000000476,597.5779000000954,597.578,601.2282000000477,3352.0,601.2282999999524,5.0,601.2345999999046,1.0,24.0,54.0,8.0,1.0,1.4,0.7,Time
,,S46,1,女,21,anonymized,Serial_Dependence_U,2023.2.3,Win32,60.24096385542697,,,,,,601.2347000000477,45.0,1.0,601.2347999999523,45.0,,,,605.21,605.7087999999524,604.6929000000954,605.21,602.2277000000477,604.6927000000477,605.7087999999524,606.2090000000001,606.2090000000001,608.5909000000954,1976.0,608.591,5.0,608.5994000000953,1.0,25.0,55.0,23.0,1.0,1.4,0.3,Time
,,S46,1,女,21,anonymized,Serial_Dependence_U,2023.2.3,Win32,60.24096385542697,,,,,,608.5995999999046,153.0,1.0,608.5997000000477,153.0,,,,611.9902999999523,612.4902000000477,611.4739000000953,611.9902999999523,609.6087999999523,611.4737000000476,612.4902000000477,612.9895999999046,612.9895999999046,614.7055999999046,1604.0,614.7055999999046,5.0,614.712,1.0,26.0,56.0,20.0,1.0,0.8,0.3,Time
,,S46,1,女,21,anonymized,Serial_Dependence_U,2023.2.3,Win32,60.24096385542697,,,,,,614.7122999999523,224.0,1.0,614.7122999999523,224.0,,,,618.8722999999524,619.3714000000954,618.3555,618.8722999999524,615.7229000000954,618.3554000000954,619.3714000000954,619.8705999999046,619.8707000000477,621.8202999999523,1614.0,621.8204000000953,3.0,621.8269000000954,1.0,27.0,57.0,19.0,1.0,1.6,0.7,Time
,,S46,1,女,21,anonymized,Serial_Dependence_U,2023.2.3,Win32,60.24096385542697,,,,,,621.8272999999523,2.0,1.0,621.8272999999523,2.0,,,,625.3859000000954,625.8865999999047,624.8702000000477,625.3857000000477,622.8372000000477,624.8700999999046,625.8865999999047,626.3847999999523,626.385,629.5847000000476,2859.0,629.5847999999523,5.0,629.5915,1.0,28.0,58.0,26.0,1.0,1.0,0.7,Time
,,S46,1,女,21,anonymized,Serial_Dependence_U,2023.2.3,Win32,60.24096385542697,,,,,,629.5917000000477,102.0,1.0,629.5917999999523,102.0,,,,633.7337999999523,634.2329000000954,633.2167999999523,633.7337000000476,630.5847000000476,633.2165999999046,634.2330000000001,634.7332999999524,634.7332999999524,639.6805,4498.0,639.6805999999046,5.0,639.6874000000954,1.0,29.0,59.0,9.0,1.0,1.6,0.7,Time
,,S46,1,女,21,anonymized,Serial_Dependence_U,2023.2.3,Win32,60.24096385542697,,,,,,639.6875999999046,120.0,2.0,658.9142000000477,120.0,s,19.211300000190704,,662.5070999999047,663.0070000000001,661.9905999999046,662.5070999999047,659.9245999999047,661.9905,663.0070000000001,663.5064000000954,663.5065,666.7395999999046,2902.0,666.7395999999046,5.0,666.7467999999524,2.0,0.0,60.0,1.0,1.0,1.0,0.3,Time
,,S46,1,女,21,anonymized,Serial_Dependence_U,2023.2.3,Win32,60.24096385542697,,,,,,666.7470999999047,279.0,2.0,666.7482000000477,279.0,,,,670.9047000000477,671.4030999999046,670.388,670.9045999999047,667.7545999999046,670.3877999999523,671.4030999999046,671.9030999999046,671.9030999999046,675.6695,3405.0,675.6695,5.0,675.6754000000954,2.0,1.0,61.0,9.0,1.0,1.6,0.7,Time
,,S46,1,女,21,anonymized,Serial_Dependence_U,2023.2.3,Win32,60.24096385542697,,,,,,675.6755999999046,328.0,2.0,675.6757000000476,328.0,,,,679.0345,679.5347999999523,678.5184000000954,679.0344000000954,676.6852000000476,678.5182999999523,679.5347999999523,680.0337000000477,680.0337999999523,680.6837000000477,231.0,680.6837999999523,1.0,680.6895,2.0,2.0,62.0,5.0,1.0,0.8,0.7,Time
,,S46,1,女,21,anonymized,Serial_Dependence_U,2023.2.3,Win32,60.24096385542697,,,,,,680.6897999999524,56.0,2.0,680.6899000000953,56.0,,,,684.6325,685.1315,684.1169000000954,684.6324000000953,681.6844000000954,684.1164000000954,685.1315,685.6322999999524,685.6324000000953,689.1640999999047,3145.0,689.1640999999047,5.0,689.1724000000954,2.0,3.0,63.0,18.0,1.0,1.4,0.7,Time
,,S46,1,女,21,anonymized,Serial_Dependence_U,2023.2.3,Win32,60.24096385542697,,,,,,689.1727000000477,357.0,2.0,689.1727000000477,357.0,,,,692.7470999999047,693.2462999999523,692.2304000000954,692.747,690.1639000000954,692.2304000000954,693.2462999999523,693.7464000000954,693.7464000000954,698.3447999999523,3777.0,698.3449000000953,5.0,698.351,2.0,4.0,64.0,21.0,1.0,1.0,0.3,Time
,,S46,1,女,21,anonymized,Serial_Dependence_U,2023.2.3,Win32,60.24096385542697,,,,,,698.3512000000477,336.0,2.0,698.3512999999523,336.0,,,,701.9102999999524,702.4102999999524,701.3932000000477,701.9102000000477,699.3612999999523,701.3930999999046,702.4102999999524,702.9097000000477,702.9097000000477,703.6262000000477,335.0,703.6262999999523,1.0,703.6327999999523,2.0,5.0,65.0,6.0,1.0,1.0,0.7,Time
,,S46,1,女,21,anonymized,Serial_Dependence_U,2023.2.3,Win32,60.24096385542697,,,,,,703.633,191.0,2.0,703.633,191.0,,,,707.2245,707.7259000000954,706.7095,707.2242999999523,704.6427000000477,706.7095,707.7259000000954,708.2255999999046,708.2255999999046,713.3239000000954,3485.0,713.3239000000954,5.0,713.33,2.0,6.0,66.0,11.0,1.0,1.0,0.3,Time
,,S46,1,女,21,anonymized,Serial_Dependence_U,2023.2.3,Win32,60.24096385542697,,,,,,713.3300999999046,187.0,2.0,713.3302999999523,187.0,,,,716.6730999999046,717.1705000000001,716.1717000000477,716.673,714.3385999999047,716.1715,717.1705000000001,717.671,717.671,719.8699000000954,1742.0,719.8699000000954,5.0,719.8775,2.0,7.0,67.0,15.0,1.0,0.8,0.7,Time
,,S46,1,女,21,anonymized,Serial_Dependence_U,2023.2.3,Win32,60.24096385542697,,,,,,719.8777999999523,104.0,2.0,719.8777999999523,104.0,,,,724.052,724.5515,723.537,724.052,720.8707000000477,723.5369000000953,724.5515999999046,725.0529000000954,725.053,727.3180999999047,1842.0,727.3182000000477,4.0,727.3239000000954,2.0,8.0,68.0,14.0,1.0,1.6,0.3,Time
,,S46,1,女,21,anonymized,Serial_Dependence_U,2023.2.3,Win32,60.24096385542697,,,,,,727.3240999999047,240.0,2.0,727.3242000000477,240.0,,,,731.5167999999524,732.0165999999047,731.0000999999046,731.5167000000476,728.3352999999523,731.0,732.0165999999047,732.5172000000476,732.5172000000476,732.8672000000477,315.0,732.8672999999524,1.0,732.8727999999523,2.0,9.0,69.0,24.0,1.0,1.6,0.3,Time
,,S46,1,女,21,anonymized,Serial_Dependence_U,2023.2.3,Win32,60.24096385542697,,,,,,732.873,237.0,2.0,732.8732000000477,237.0,,,,736.8650999999046,737.3649000000954,736.3492000000477,736.8650999999046,733.8827000000476,736.349,737.3649000000954,737.8642000000477,737.8642999999523,741.4627000000477,3166.0,741.4627000000477,5.0,741.472,2.0,10.0,70.0,3.0,1.0,1.4,0.3,Time
,,S46,1,女,21,anonymized,Serial_Dependence_U,2023.2.3,Win32,60.24096385542697,,,,,,741.4722999999523,89.0,2.0,741.4724000000954,89.0,,,,745.2290999999046,745.7284000000953,744.7117999999523,745.229,742.4792999999523,744.7117000000477,745.7284000000953,746.2284000000953,746.2285,748.3275,1107.0,748.3275999999047,2.0,748.3357000000477,2.0,11.0,71.0,7.0,1.0,1.2,0.7,Time
,,S46,1,女,21,anonymized,Serial_Dependence_U,2023.2.3,Win32,60.24096385542697,,,,,,748.3359000000954,144.0,2.0,748.336,144.0,,,,751.8947000000477,752.3925,751.3775,751.8945999999046,749.3447999999523,751.3774000000953,752.3925,752.8937000000477,752.8937999999523,756.2577999999523,2830.0,756.2577999999523,5.0,756.2639000000954,2.0,12.0,72.0,16.0,1.0,1.0,0.7,Time
,,S46,1,女,21,anonymized,Serial_Dependence_U,2023.2.3,Win32,60.24096385542697,,,,,,756.2640999999046,148.0,2.0,756.2642000000477,148.0,,,,760.0082000000477,760.5077999999523,759.5075999999046,760.0080999999046,757.2752000000477,759.5075999999046,760.5079000000953,761.0062000000477,761.0062000000477,765.3217999999523,3814.0,765.3219000000954,5.0,765.33,2.0,13.0,73.0,27.0,1.0,1.2,0.7,Time
,,S46,1,女,21,anonymized,Serial_Dependence_U,2023.2.3,Win32,60.24096385542697,,,,,,765.3302000000477,86.0,2.0,765.3302999999523,86.0,,,,769.0704000000953,769.5702000000476,768.5547000000477,769.0702999999523,766.3215,768.5545999999047,769.5702000000476,770.071,770.071,773.586,3001.0,773.586,5.0,773.5930999999047,2.0,14.0,74.0,17.0,1.0,1.2,0.7,Time
,,S46,1,女,21,anonymized,Serial_Dependence_U,2023.2.3,Win32,60.24096385542697,,,,,,773.5934000000954,334.0,2.0,773.5934000000954,334.0,,,,777.1512999999524,777.6509000000954,776.635,777.1512000000477,774.6020999999047,776.6347999999523,777.6509000000954,778.15,778.15,782.1000999999046,3560.0,782.1000999999046,5.0,782.1062000000477,2.0,15.0,75.0,26.0,1.0,1.0,0.7,Time
,,S46,1,女,21,anonymized,Serial_Dependence_U,2023.2.3,Win32,60.24096385542697,,,,,,782.1064000000954,120.0,2.0,782.1065,120.0,,,,785.8822000000476,786.3805999999047,785.3814000000954,785.8820999999047,783.1155,785.3812000000477,786.3807000000477,786.8812999999524,786.8812999999524,791.53,4266.0,791.53,5.0,791.538,2.0,16.0,76.0,12.0,1.0,1.2,0.3,Time
,,S46,1,女,21,anonymized,Serial_Dependence_U,2023.2.3,Win32,60.24096385542697,,,,,,791.5382000000477,274.0,2.0,791.5384000000954,274.0,,,,795.6945000000001,796.1949000000953,795.1790999999047,795.6942999999524,792.5467999999523,795.179,796.1949000000953,796.6939000000954,796.694,797.8274000000954,688.0,797.8274000000954,1.0,797.8330999999047,2.0,17.0,77.0,29.0,1.0,1.6,0.7,Time
,,S46,1,女,21,anonymized,Serial_Dependence_U,2023.2.3,Win32,60.24096385542697,,,,,,797.8332999999524,31.0,2.0,797.8334000000954,31.0,,,,801.7767000000476,802.2755,801.2600999999046,801.7765999999046,798.8284000000954,801.26,802.2755,802.776,802.776,806.2407000000477,3395.0,806.2407999999523,5.0,806.2472000000477,2.0,18.0,78.0,28.0,1.0,1.4,0.7,Time
,,S46,1,女,21,anonymized,Serial_Dependence_U,2023.2.3,Win32,60.24096385542697,,,,,,806.2472999999524,351.0,2.0,806.2474000000954,351.0,,,,809.6075,810.107,809.091,809.6074000000954,807.2579000000953,809.091,810.107,810.6072999999524,810.6072999999524,815.7217000000477,2039.0,815.7217999999523,5.0,815.7277999999524,2.0,19.0,79.0,25.0,1.0,0.8,0.7,Time
,,S46,1,女,21,anonymized,Serial_Dependence_U,2023.2.3,Win32,60.24096385542697,,,,,,815.728,199.0,2.0,815.7280999999047,199.0,,,,819.5037000000477,820.0027000000476,818.9874000000954,819.5035999999046,816.7212999999523,818.9872999999524,820.0027000000476,820.5025999999046,820.5025999999046,823.8684000000953,2929.0,823.8684000000953,5.0,823.8744000000954,2.0,20.0,80.0,2.0,1.0,1.2,0.3,Time
,,S46,1,女,21,anonymized,Serial_Dependence_U,2023.2.3,Win32,60.24096385542697,,,,,,823.8747000000477,156.0,2.0,823.8747000000477,156.0,,,,827.6672999999523,828.1667999999523,827.1514000000954,827.6672000000477,824.8850999999046,827.1512999999524,828.1669000000953,828.6670999999046,828.6670999999046,831.7504000000954,3011.0,831.7505,5.0,831.7564000000954,2.0,21.0,81.0,22.0,1.0,1.2,0.3,Time
,,S46,1,女,21,anonymized,Serial_Dependence_U,2023.2.3,Win32,60.24096385542697,,,,,,831.7565999999047,52.0,2.0,831.7567000000477,52.0,,,,835.1327999999523,835.6315999999047,834.6314000000954,835.1327000000476,832.766,834.6314000000954,835.6315999999047,836.1305999999047,836.1307000000477,840.4965999999047,3983.0,840.4965999999047,5.0,840.503,2.0,22.0,82.0,10.0,1.0,0.8,0.3,Time
,,S46,1,女,21,anonymized,Serial_Dependence_U,2023.2.3,Win32,60.24096385542697,,,,,,840.5030999999046,149.0,2.0,840.5032000000477,149.0,,,,844.6615,845.1615,844.1454000000954,844.6612999999523,841.5127000000477,844.1454000000954,845.1615999999046,845.6619000000953,845.6619000000953,849.2262999999523,3162.0,849.2262999999523,5.0,849.2325999999047,2.0,23.0,83.0,19.0,1.0,1.6,0.7,Time
,,S46,1,女,21,anonymized,Serial_Dependence_U,2023.2.3,Win32,60.24096385542697,,,,,,849.2327999999524,149.0,2.0,849.2330000000001,149.0,,,,852.6257000000477,853.1252999999523,852.11,852.6255999999047,850.2432999999523,852.11,853.1252999999523,853.6247999999523,853.6247999999523,856.6405,2726.0,856.6405,5.0,856.6482000000477,2.0,24.0,84.0,0.0,1.0,0.8,0.3,Time
,,S46,1,女,21,anonymized,Serial_Dependence_U,2023.2.3,Win32,60.24096385542697,,,,,,856.6485,267.0,2.0,856.6485999999046,267.0,,,,860.0407000000477,860.5405,859.5235,860.0405999999047,857.6570999999046,859.5235,860.5405,861.039,861.039,864.1047000000477,2996.0,864.1047999999523,5.0,864.1112999999523,2.0,25.0,85.0,20.0,1.0,0.8,0.3,Time
,,S46,1,女,21,anonymized,Serial_Dependence_U,2023.2.3,Win32,60.24096385542697,,,,,,864.1115999999047,40.0,2.0,864.1119000000954,40.0,,,,868.3035,868.8037000000477,867.7872999999523,868.3034000000954,865.1215999999047,867.7872000000477,868.8037000000477,869.3029000000954,869.3029000000954,869.3699000000954,59.0,869.37,1.0,869.3759000000954,2.0,26.0,86.0,4.0,1.0,1.6,0.3,Time
,,S46,1,女,21,anonymized,Serial_Dependence_U,2023.2.3,Win32,60.24096385542697,,,,,,869.3762000000477,303.0,2.0,869.3762000000477,303.0,,,,873.3194000000954,873.8179000000954,872.8184000000954,873.3192000000477,870.3872000000476,872.8184000000954,873.8179000000954,874.318,874.318,878.5674000000954,3819.0,878.5675,5.0,878.5745999999046,2.0,27.0,87.0,8.0,1.0,1.4,0.7,Time
,,S46,1,女,21,anonymized,Serial_Dependence_U,2023.2.3,Win32,60.24096385542697,,,,,,878.5747000000476,152.0,2.0,878.5747999999523,152.0,,,,882.5650999999046,883.0652999999523,882.0492999999523,882.565,879.5827999999523,882.0490999999047,883.0652999999523,883.5650999999046,883.5650999999046,887.0984000000954,3104.0,887.0985000000001,5.0,887.1052000000477,2.0,28.0,88.0,13.0,1.0,1.4,0.3,Time
,,S46,1,女,21,anonymized,Serial_Dependence_U,2023.2.3,Win32,60.24096385542697,,,,,,887.1054000000954,6.0,2.0,887.1055,6.0,,,,891.0805,891.5789000000954,890.5792999999524,891.0804000000953,888.1139000000953,890.5792000000476,891.579,892.0785,892.0785999999047,896.9617000000477,4464.0,896.9617000000477,5.0,896.9675,2.0,29.0,89.0,23.0,1.0,1.4,0.3,Time
,,S46,1,女,21,anonymized,Serial_Dependence_U,2023.2.3,Win32,60.24096385542697,,,,,,896.9675999999047,27.0,3.0,899.5667999999523,27.0,s,2.583000000000084,,903.1597000000476,903.6582999999524,902.6429000000952,903.1597000000476,900.5759000000953,902.6427999999524,903.6582999999524,904.1585999999046,904.1585999999046,908.8235999999048,4332.0,908.8235999999048,5.0,908.8299000000952,3.0,0.0,90.0,1.0,1.0,1.0,0.3,Time
,,S46,1,女,21,anonymized,Serial_Dependence_U,2023.2.3,Win32,60.24096385542697,,,,,,908.8300999999046,198.0,3.0,908.8310999999046,198.0,,,,913.0222000000476,913.5220999999046,912.5064000000954,913.0220999999046,909.8407000000476,912.5062999999524,913.5220999999046,914.0212000000477,914.0212000000477,918.7207000000476,4330.0,918.7207999999524,5.0,918.727,3.0,1.0,91.0,24.0,1.0,1.6,0.3,Time
,,S46,1,女,21,anonymized,Serial_Dependence_U,2023.2.3,Win32,60.24096385542697,,,,,,918.7272999999524,129.0,3.0,918.7272999999524,129.0,,,,922.9195,923.4180999999046,922.4032999999524,922.919,919.7372999999524,922.4032000000476,923.4180999999046,923.918,923.918,929.4167000000476,5139.0,929.4167000000476,5.0,929.4225,3.0,2.0,92.0,4.0,1.0,1.6,0.3,Time
,,S46,1,女,21,anonymized,Serial_Dependence_U,2023.2.3,Win32,60.24096385542697,,,,,,929.4227000000476,121.0,3.0,929.4227999999524,121.0,,,,933.5645,934.0655999999046,933.0504000000954,933.5645,930.4167000000476,933.0502999999524,934.0655999999046,934.5652999999523,934.5652999999523,937.5469000000952,2479.0,937.5469000000952,5.0,937.5537000000476,3.0,3.0,93.0,19.0,1.0,1.6,0.7,Time
,,S46,1,女,21,anonymized,Serial_Dependence_U,2023.2.3,Win32,60.24096385542697,,,,,,937.5539000000954,105.0,3.0,937.5539000000954,105.0,,,,941.1130999999046,941.6117000000476,940.5962999999524,941.113,938.5645,940.5962999999524,941.6117000000476,942.1119000000954,942.1119000000954,944.7105999999046,1528.0,944.7105999999046,5.0,944.7165,3.0,4.0,94.0,6.0,1.0,1.0,0.7,Time
,,S46,1,女,21,anonymized,Serial_Dependence_U,2023.2.3,Win32,60.24096385542697,,,,,,944.7167999999524,207.0,3.0,944.7167999999524,207.0,,,,948.0609000000952,948.56,947.5435999999046,948.0607999999525,945.7112000000476,947.5434000000954,948.56,949.0604000000952,949.0604000000952,953.3082999999524,3813.0,953.3084000000954,5.0,953.3142000000475,3.0,5.0,95.0,25.0,1.0,0.8,0.7,Time
,,S46,1,女,21,anonymized,Serial_Dependence_U,2023.2.3,Win32,60.24096385542697,,,,,,953.3145,161.0,3.0,953.3145,161.0,,,,957.0917999999524,957.5900999999046,956.5744000000954,957.0917999999524,954.3085,956.5742999999524,957.5900999999046,958.0894000000952,958.0894000000952,962.355,3960.0,962.3550999999046,5.0,962.3607999999524,3.0,6.0,96.0,22.0,1.0,1.2,0.3,Time
,,S46,1,女,21,anonymized,Serial_Dependence_U,2023.2.3,Win32,60.24096385542697,,,,,,962.361,268.0,3.0,962.3610999999046,268.0,,,,966.1214000000954,966.6212999999524,965.6204000000954,966.1212999999524,963.3552000000476,965.6202999999524,966.6212999999524,967.1200999999046,967.1200999999046,971.3860999999048,3464.0,971.3860999999048,5.0,971.3922999999525,3.0,7.0,97.0,12.0,1.0,1.2,0.3,Time
,,S46,1,女,21,anonymized,Serial_Dependence_U,2023.2.3,Win32,60.24096385542697,,,,,,971.3925,63.0,3.0,971.3927000000476,63.0,,,,975.3677000000476,975.8674000000954,974.8522999999524,975.3675,972.3855,974.8522000000476,975.8674000000954,976.3667000000476,976.3667000000476,979.4664000000954,2747.0,979.4665,5.0,979.4727000000476,3.0,8.0,98.0,13.0,1.0,1.4,0.3,Time
,,S46,1,女,21,anonymized,Serial_Dependence_U,2023.2.3,Win32,60.24096385542697,,,,,,979.4727999999524,307.0,3.0,979.4729000000954,307.0,,,,983.6312999999524,984.1312000000476,983.1155999999046,983.6312000000476,980.4829000000954,983.1155999999046,984.1312000000476,984.6317000000475,984.6317999999524,986.698,1837.0,986.698,4.0,986.7035999999048,3.0,9.0,99.0,29.0,1.0,1.6,0.7,Time
,,S46,1,女,21,anonymized,Serial_Dependence_U,2023.2.3,Win32,60.24096385542697,,,,,,986.7037999999524,239.0,3.0,986.7039000000954,239.0,,,,990.2955,990.7949000000954,989.7794000000954,990.2954000000954,987.7132999999524,989.7792999999524,990.7949000000954,991.2952999999524,991.2952999999524,993.9780999999048,2666.0,993.9782000000477,5.0,993.9847000000476,3.0,10.0,100.0,21.0,1.0,1.0,0.3,Time
,,S46,1,女,21,anonymized,Serial_Dependence_U,2023.2.3,Win32,60.24096385542697,,,,,,993.9849000000954,1.0,3.0,993.9849000000954,1.0,,,,997.9600999999046,998.459,997.4435999999048,997.96,994.9782999999524,997.4434000000954,998.4590999999048,998.9594000000956,998.9594000000956,1002.9752000000476,3474.0,1002.9752000000476,5.0,1002.9812999999524,3.0,11.0,101.0,3.0,1.0,1.4,0.3,Time
,,S46,1,女,21,anonymized,Serial_Dependence_U,2023.2.3,Win32,60.24096385542697,,,,,,1002.9815000000002,266.0,3.0,1002.9815000000002,266.0,,,,1006.3735,1006.8725999999048,1005.8575999999048,1006.3734000000956,1003.9915000000002,1005.8575000000002,1006.8725999999048,1007.3729000000956,1007.3729000000956,1009.9217000000476,2052.0,1009.9217999999524,5.0,1009.9280000000002,3.0,12.0,102.0,10.0,1.0,0.8,0.3,Time
,,S46,1,女,21,anonymized,Serial_Dependence_U,2023.2.3,Win32,60.24096385542697,,,,,,1009.9282999999524,0.0,3.0,1009.9284000000954,0.0,,,,1013.6725,1014.1707000000478,1013.1717999999524,1013.6724000000956,1010.9390000000002,1013.1717999999524,1014.1707000000478,1014.6705999999048,1014.6707000000478,1017.4360999999049,2473.0,1017.4362000000476,5.0,1017.4424000000956,3.0,13.0,103.0,17.0,1.0,1.2,0.7,Time
,,S46,1,女,21,anonymized,Serial_Dependence_U,2023.2.3,Win32,60.24096385542697,,,,,,1017.4425999999048,162.0,3.0,1017.4427000000476,162.0,,,,1021.003,1021.5014000000956,1020.4859000000956,1021.0029000000956,1018.4530999999048,1020.4859000000956,1021.5014000000956,1022.0020999999048,1022.0020999999048,1022.9845999999048,509.0,1022.9845999999048,1.0,1022.9902000000478,3.0,14.0,104.0,26.0,1.0,1.0,0.7,Time
,,S46,1,女,21,anonymized,Serial_Dependence_U,2023.2.3,Win32,60.24096385542697,,,,,,1022.9904000000956,283.0,3.0,1022.9905000000002,283.0,,,,1026.7844000000953,1027.2840999999046,1026.2667000000476,1026.7842999999525,1024.001099999905,1026.2665999999049,1027.2842000000476,1027.783,1027.7830999999046,1029.5834000000957,1369.0,1029.5834000000957,4.0,1029.5899000000954,3.0,15.0,105.0,2.0,1.0,1.2,0.3,Time
,,S46,1,女,21,anonymized,Serial_Dependence_U,2023.2.3,Win32,60.24096385542697,,,,,,1029.5902000000476,67.0,3.0,1029.5902999999523,67.0,,,,1033.1662000000476,1033.6645999999046,1032.6487000000477,1033.1660999999046,1030.5832000000478,1032.6485999999047,1033.6647000000478,1034.1642000000477,1034.1642999999524,1035.7632000000476,1165.0,1035.7632000000476,4.0,1035.7695,3.0,16.0,106.0,11.0,1.0,1.0,0.3,Time
,,S46,1,女,21,anonymized,Serial_Dependence_U,2023.2.3,Win32,60.24096385542697,,,,,,1035.7697999999525,145.0,3.0,1035.7697999999525,145.0,,,,1039.1125,1039.6117000000477,1038.596,1039.1125,1036.764,1038.5959000000953,1039.6117000000477,1040.1117000000477,1040.1117000000477,1042.8282999999524,2399.0,1042.8284000000954,5.0,1042.8350999999047,3.0,17.0,107.0,15.0,1.0,0.8,0.7,Time
,,S46,1,女,21,anonymized,Serial_Dependence_U,2023.2.3,Win32,60.24096385542697,,,,,,1042.8354000000954,302.0,3.0,1042.8354000000954,302.0,,,,1046.2269000000954,1046.7265999999047,1045.7105999999046,1046.2267000000477,1043.8440999999043,1045.7105,1046.7265999999047,1047.2267999999524,1047.2267999999524,1048.0594000000954,397.0,1048.0595,1.0,1048.0657999999523,3.0,18.0,108.0,20.0,1.0,0.8,0.3,Time
,,S46,1,女,21,anonymized,Serial_Dependence_U,2023.2.3,Win32,60.24096385542697,,,,,,1048.066,50.0,3.0,1048.0660999999047,50.0,,,,1052.2257000000477,1052.724,1051.708599999905,1052.2255,1049.076,1051.708599999905,1052.724,1053.2239000000957,1053.224,1056.9727999999525,3123.0,1056.9729000000957,5.0,1056.9787999999523,3.0,19.0,109.0,9.0,1.0,1.6,0.7,Time
,,S46,1,女,21,anonymized,Serial_Dependence_U,2023.2.3,Win32,60.24096385542697,,,,,,1056.979,326.0,3.0,1056.9790999999047,326.0,,,,1060.7227999999525,1061.2215999999046,1060.222,1060.7227000000478,1057.9897000000476,1060.2219000000953,1061.2215999999046,1061.7210999999047,1061.7210999999047,1064.2214000000954,1077.0,1064.2214000000954,2.0,1064.2277000000477,3.0,20.0,110.0,27.0,1.0,1.2,0.7,Time
,,S46,1,女,21,anonymized,Serial_Dependence_U,2023.2.3,Win32,60.24096385542697,,,,,,1064.228,344.0,3.0,1064.2280999999043,344.0,,,,1067.5869000000953,1068.0867000000476,1067.0705999999047,1067.5869000000953,1065.2377000000477,1067.070400000095,1068.0867000000476,1068.5864000000954,1068.5864000000954,1072.8342000000478,3080.0,1072.8342999999522,5.0,1072.8405,3.0,21.0,111.0,5.0,1.0,0.8,0.7,Time
,,S46,1,女,21,anonymized,Serial_Dependence_U,2023.2.3,Win32,60.24096385542697,,,,,,1072.8407000000475,46.0,3.0,1072.8407999999524,46.0,,,,1076.2340999999046,1076.7325999999046,1075.7175,1076.234,1073.8509000000954,1075.7174000000953,1076.7325999999046,1077.2332000000476,1077.2332999999524,1081.132,3331.0,1081.132,5.0,1081.138400000095,3.0,22.0,112.0,0.0,1.0,0.8,0.3,Time
,,S46,1,女,21,anonymized,Serial_Dependence_U,2023.2.3,Win32,60.24096385542697,,,,,,1081.1385999999047,352.0,3.0,1081.1385999999047,352.0,,,,1085.1142999999522,1085.6135999999046,1084.5975,1085.1140999999047,1082.132,1084.5972999999524,1085.6135999999046,1086.1135999999046,1086.1135999999046,1087.5455999999049,1244.0,1087.5457000000476,2.0,1087.5519000000954,3.0,23.0,113.0,23.0,1.0,1.4,0.3,Time
,,S46,1,女,21,anonymized,Serial_Dependence_U,2023.2.3,Win32,60.24096385542697,,,,,,1087.5522000000476,20.0,3.0,1087.5524000000953,20.0,,,,1091.7445999999047,1092.2440999999046,1091.2287000000476,1091.7445,1088.5622999999523,1091.2285,1092.2440999999046,1092.7445999999047,1092.7445999999047,1094.6607000000477,1377.0,1094.6607000000477,2.0,1094.6665999999047,3.0,24.0,114.0,14.0,1.0,1.6,0.3,Time
,,S46,1,女,21,anonymized,Serial_Dependence_U,2023.2.3,Win32,60.24096385542697,,,,,,1094.6669000000954,112.0,3.0,1094.6669000000954,112.0,,,,1098.6097000000475,1099.1095,1098.0922999999525,1098.6095999999047,1095.6609000000954,1098.0922000000478,1099.1095,1099.6082999999524,1099.6085,1100.9079000000954,779.0,1100.908,1.0,1100.9139000000953,3.0,25.0,115.0,18.0,1.0,1.4,0.7,Time
,,S46,1,女,21,anonymized,Serial_Dependence_U,2023.2.3,Win32,60.24096385542697,,,,,,1100.9140999999047,268.0,3.0,1100.9140999999047,268.0,,,,1104.8582999999524,1105.3565999999046,1104.3572999999524,1104.8582000000476,1101.9257000000478,1104.3572000000477,1105.3565999999046,1105.8562999999524,1105.8564000000954,1108.9217000000476,720.0,1108.9217000000476,1.0,1108.928,3.0,26.0,116.0,8.0,1.0,1.4,0.7,Time
,,S46,1,女,21,anonymized,Serial_Dependence_U,2023.2.3,Win32,60.24096385542697,,,,,,1108.9282000000476,331.0,3.0,1108.9282999999523,331.0,,,,1112.4879000000954,1112.9877000000477,1111.9717000000476,1112.4877999999524,1109.938599999905,1111.9715999999046,1112.9877000000477,1113.4867999999524,1113.4867999999524,1115.9034000000954,1964.0,1115.9035,5.0,1115.9094000000953,3.0,27.0,117.0,16.0,1.0,1.0,0.7,Time
,,S46,1,女,21,anonymized,Serial_Dependence_U,2023.2.3,Win32,60.24096385542697,,,,,,1115.909599999905,281.0,3.0,1115.9097000000477,281.0,,,,1119.8685,1120.3689000000954,1119.3525,1119.868400000095,1116.9205999999049,1119.3524000000957,1120.3689000000954,1120.8682999999523,1120.868400000095,1123.7175,2283.0,1123.717599999905,5.0,1123.7247999999522,3.0,28.0,118.0,28.0,1.0,1.4,0.7,Time
,,S46,1,女,21,anonymized,Serial_Dependence_U,2023.2.3,Win32,60.24096385542697,,,,,,1123.725,7.0,3.0,1123.7250999999046,7.0,,,,1127.4660999999046,1127.9660999999046,1126.9494000000957,1127.4659000000954,1124.7187000000476,1126.9492999999522,1127.9662000000476,1128.4650999999046,1128.4650999999046,1129.7815,909.0,1129.7815,2.0,1129.7884000000954,3.0,29.0,119.0,7.0,1.0,1.2,0.7,Time
,,S46,1,女,21,anonymized,Serial_Dependence_U,2023.2.3,Win32,60.24096385542697,,,,,,1129.7887000000476,306.0,4.0,1132.8975999999047,306.0,s,3.0881000001431858,,1136.4465,1136.9460999999046,1135.9307999999523,1136.4462999999523,1133.8977000000475,1135.9307999999523,1136.9460999999046,1137.446,1137.446,1138.3452000000475,493.0,1138.3452999999524,1.0,1138.3510999999046,4.0,0.0,120.0,26.0,1.0,1.0,0.7,Time
,,S46,1,女,21,anonymized,Serial_Dependence_U,2023.2.3,Win32,60.24096385542697,,,,,,1138.3512999999523,272.0,4.0,1138.3522000000478,272.0,,,,1141.7447000000475,1142.2442999999523,1141.2284000000957,1141.7445999999047,1139.3622999999525,1141.2282999999522,1142.2442999999523,1142.7444000000953,1142.7444000000953,1143.8445999999046,616.0,1143.8445999999046,2.0,1143.8502000000476,4.0,1.0,121.0,20.0,1.0,0.8,0.3,Time
,,S46,1,女,21,anonymized,Serial_Dependence_U,2023.2.3,Win32,60.24096385542697,,,,,,1143.8502999999523,60.0,4.0,1143.8504000000953,60.0,,,,1147.6439000000953,1148.1419000000951,1147.1264000000954,1147.6437999999523,1144.8609000000954,1147.126099999905,1148.1419000000951,1148.6415,1148.6415,1149.7585,461.0,1149.7587000000476,1.0,1149.7642000000476,4.0,2.0,122.0,22.0,1.0,1.2,0.3,Time
,,S46,1,女,21,anonymized,Serial_Dependence_U,2023.2.3,Win32,60.24096385542697,,,,,,1149.7644000000953,65.0,4.0,1149.7645999999047,65.0,,,,1153.3405,1153.8409000000954,1152.8257000000476,1153.3402000000476,1150.7585,1152.8257000000476,1153.8409000000954,1154.3397999999522,1154.3397999999522,1156.0734000000953,1257.0,1156.0735,4.0,1156.0805,4.0,3.0,123.0,21.0,1.0,1.0,0.3,Time
,,S46,1,女,21,anonymized,Serial_Dependence_U,2023.2.3,Win32,60.24096385542697,,,,,,1156.0807999999524,102.0,4.0,1156.081,102.0,,,,1160.2387000000476,1160.738,1159.7222000000477,1160.2385999999046,1157.0905,1159.722,1160.7380999999043,1161.2375,1161.2375,1163.1375999999048,1464.0,1163.1375999999048,2.0,1163.1432000000475,4.0,4.0,124.0,29.0,1.0,1.6,0.7,Time
,,S46,1,女,21,anonymized,Serial_Dependence_U,2023.2.3,Win32,60.24096385542697,,,,,,1163.1434000000954,278.0,4.0,1163.1435,278.0,,,,1166.8872999999523,1167.386,1166.3865999999043,1166.8872000000476,1164.1535,1166.3865,1167.386099999905,1167.8852000000477,1167.8852000000477,1170.401,2037.0,1170.4010999999043,5.0,1170.4070999999046,4.0,5.0,125.0,17.0,1.0,1.2,0.7,Time
,,S46,1,女,21,anonymized,Serial_Dependence_U,2023.2.3,Win32,60.24096385542697,,,,,,1170.407400000095,105.0,4.0,1170.4075,105.0,,,,1173.984400000095,1174.4829000000957,1173.4667000000477,1173.9842999999523,1171.4015,1173.4665999999047,1174.4829000000957,1174.9834000000951,1174.9834000000951,1177.5822999999525,2090.0,1177.5824000000953,5.0,1177.5892999999523,4.0,6.0,126.0,11.0,1.0,1.0,0.3,Time
,,S46,1,女,21,anonymized,Serial_Dependence_U,2023.2.3,Win32,60.24096385542697,,,,,,1177.5895999999047,335.0,4.0,1177.5897000000475,335.0,,,,1181.532,1182.0314000000951,1181.0150999999046,1181.5319000000954,1178.5825999999047,1181.0150999999046,1182.0315,1182.5310999999049,1182.5312000000476,1185.3957999999525,2325.0,1185.3959000000957,5.0,1185.402,4.0,7.0,127.0,28.0,1.0,1.4,0.7,Time
,,S46,1,女,21,anonymized,Serial_Dependence_U,2023.2.3,Win32,60.24096385542697,,,,,,1185.4022000000475,56.0,4.0,1185.4022999999522,56.0,,,,1189.5297999999525,1190.0282000000475,1189.0285999999046,1189.5297999999525,1186.397400000095,1189.0282999999524,1190.0282999999524,1190.5275,1190.5275,1193.6777999999524,2709.0,1193.6779000000954,5.0,1193.684,4.0,8.0,128.0,19.0,1.0,1.6,0.7,Time
,,S46,1,女,21,anonymized,Serial_Dependence_U,2023.2.3,Win32,60.24096385542697,,,,,,1193.6842999999524,236.0,4.0,1193.6842999999524,236.0,,,,1197.0427000000475,1197.5430999999046,1196.526,1197.0425999999047,1194.6945999999043,1196.5259000000954,1197.5432000000476,1198.0427000000475,1198.0427000000475,1199.8919000000951,1327.0,1199.8920999999043,5.0,1199.898,4.0,9.0,129.0,25.0,1.0,0.8,0.7,Time
,,S46,1,女,21,anonymized,Serial_Dependence_U,2023.2.3,Win32,60.24096385542697,,,,,,1199.8982000000476,26.0,4.0,1199.8984000000953,26.0,,,,1203.6575,1204.1572000000476,1203.1404000000953,1203.657400000095,1200.908,1203.1402999999525,1204.1572000000476,1204.6567000000475,1204.6567000000475,1207.0055,1941.0,1207.0055999999047,5.0,1207.0112999999524,4.0,10.0,130.0,7.0,1.0,1.2,0.7,Time
,,S46,1,女,21,anonymized,Serial_Dependence_U,2023.2.3,Win32,60.24096385542697,,,,,,1207.0115999999043,274.0,4.0,1207.0115999999043,274.0,,,,1210.4052999999524,1210.9047000000478,1209.8885999999047,1210.4052000000477,1208.0234000000953,1209.8885,1210.9047000000478,1211.4037999999523,1211.4037999999523,1215.07,3331.0,1215.07,5.0,1215.0760999999047,4.0,11.0,131.0,10.0,1.0,0.8,0.3,Time
,,S46,1,女,21,anonymized,Serial_Dependence_U,2023.2.3,Win32,60.24096385542697,,,,,,1215.0762000000475,189.0,4.0,1215.0762999999524,189.0,,,,1218.653,1219.151,1218.1520999999047,1218.652900000095,1216.0860999999047,1218.152,1219.1510999999043,1219.6517999999523,1219.6517999999523,1221.034,1018.0,1221.034,3.0,1221.0402999999524,4.0,12.0,132.0,1.0,1.0,1.0,0.3,Time
,,S46,1,女,21,anonymized,Serial_Dependence_U,2023.2.3,Win32,60.24096385542697,,,,,,1221.0405999999043,294.0,4.0,1221.0405999999043,294.0,,,,1224.783,1225.282400000095,1224.2667999999524,1224.783,1222.0354000000957,1224.2667000000476,1225.2825,1225.7822000000476,1225.7822000000476,1228.032,1835.0,1228.0320999999046,5.0,1228.0387000000476,4.0,13.0,133.0,27.0,1.0,1.2,0.7,Time
,,S46,1,女,21,anonymized,Serial_Dependence_U,2023.2.3,Win32,60.24096385542697,,,,,,1228.0389000000953,232.0,4.0,1228.039,232.0,,,,1231.8312000000476,1232.3302000000476,1231.315,1231.8312000000476,1229.0485999999046,1231.315,1232.3302999999523,1232.8312999999523,1232.8312999999523,1236.0465,2460.0,1236.0465,5.0,1236.0532000000476,4.0,14.0,134.0,2.0,1.0,1.2,0.3,Time
,,S46,1,女,21,anonymized,Serial_Dependence_U,2023.2.3,Win32,60.24096385542697,,,,,,1236.0535,352.0,4.0,1236.0535999999047,352.0,,,,1240.2112000000477,1240.712,1239.6947000000478,1240.211,1237.0624000000953,1239.6945999999043,1240.712,1241.2115,1241.2115,1243.642900000095,2011.0,1243.642900000095,4.0,1243.6495,4.0,15.0,135.0,9.0,1.0,1.6,0.7,Time
,,S46,1,女,21,anonymized,Serial_Dependence_U,2023.2.3,Win32,60.24096385542697,,,,,,1243.6497999999524,154.0,4.0,1243.6497999999524,154.0,,,,1247.2095999999046,1247.7084000000957,1246.6925,1247.2095999999046,1244.6600999999046,1246.6924000000954,1247.7084000000957,1248.2089000000954,1248.2089000000954,1251.0742999999522,2365.0,1251.0744000000957,5.0,1251.0797999999522,4.0,16.0,136.0,16.0,1.0,1.0,0.7,Time
,,S46,1,女,21,anonymized,Serial_Dependence_U,2023.2.3,Win32,60.24096385542697,,,,,,1251.08,258.0,4.0,1251.08,258.0,,,,1255.0402999999524,1255.5392999999524,1254.5234000000953,1255.0402000000477,1252.0917999999524,1254.5234000000953,1255.5394000000954,1256.0392999999524,1256.0392999999524,1259.5040999999046,2664.0,1259.5042000000476,5.0,1259.5125,4.0,17.0,137.0,18.0,1.0,1.4,0.7,Time
,,S46,1,女,21,anonymized,Serial_Dependence_U,2023.2.3,Win32,60.24096385542697,,,,,,1259.5127999999522,310.0,4.0,1259.5129000000954,310.0,,,,1263.2872999999522,1263.786,1262.7702000000477,1263.2872999999522,1260.5052999999525,1262.7700999999047,1263.7860999999043,1264.2872999999522,1264.2874000000954,1267.7682999999524,2954.0,1267.7682999999524,5.0,1267.7752999999525,4.0,18.0,138.0,12.0,1.0,1.2,0.3,Time
,,S46,1,女,21,anonymized,Serial_Dependence_U,2023.2.3,Win32,60.24096385542697,,,,,,1267.7755,122.0,4.0,1267.775599999905,122.0,,,,1271.9667999999524,1272.4665,1271.4505,1271.9667000000477,1268.785,1271.4504000000954,1272.4665,1272.9662000000476,1272.9662000000476,1276.2165,2802.0,1276.2165999999047,5.0,1276.2229000000957,4.0,19.0,139.0,24.0,1.0,1.6,0.3,Time
,,S46,1,女,21,anonymized,Serial_Dependence_U,2023.2.3,Win32,60.24096385542697,,,,,,1276.2232000000477,286.0,4.0,1276.2232999999524,286.0,,,,1280.4135,1280.9145999999046,1279.8995999999047,1280.4134000000954,1277.2330999999049,1279.8995,1280.9145999999046,1281.4127999999523,1281.4129000000953,1283.6457999999525,1850.0,1283.6459000000957,4.0,1283.6522000000475,4.0,20.0,140.0,14.0,1.0,1.6,0.3,Time
,,S46,1,女,21,anonymized,Serial_Dependence_U,2023.2.3,Win32,60.24096385542697,,,,,,1283.6524000000954,223.0,4.0,1283.6524000000954,223.0,,,,1287.8442000000475,1288.3439000000951,1287.3264000000954,1287.844,1284.6614000000957,1287.3262999999524,1288.3439000000951,1288.8429000000954,1288.8429000000954,1291.8087000000478,2466.0,1291.8087999999525,5.0,1291.8149000000951,4.0,21.0,141.0,4.0,1.0,1.6,0.3,Time
,,S46,1,女,21,anonymized,Serial_Dependence_U,2023.2.3,Win32,60.24096385542697,,,,,,1291.8150999999043,93.0,4.0,1291.8152000000478,93.0,,,,1295.3765,1295.8787000000475,1294.8560999999047,1295.3764000000954,1292.8102000000476,1294.8559000000953,1295.8787999999524,1296.3779000000957,1296.378,1296.971,64.0,1296.971,1.0,1296.9774000000957,4.0,22.0,142.0,6.0,1.0,1.0,0.7,Time
,,S46,1,女,21,anonymized,Serial_Dependence_U,2023.2.3,Win32,60.24096385542697,,,,,,1296.9777000000477,199.0,4.0,1296.9777000000477,199.0,,,,1300.353900000095,1300.8582000000476,1299.8387999999522,1300.3537999999523,1297.9745999999047,1299.8387000000478,1300.8582000000476,1301.3647999999523,1301.3647999999523,1303.2010999999047,1465.0,1303.2010999999047,5.0,1303.207,4.0,23.0,143.0,0.0,1.0,0.8,0.3,Time
,,S46,1,女,21,anonymized,Serial_Dependence_U,2023.2.3,Win32,60.24096385542697,,,,,,1303.2072000000476,129.0,4.0,1303.2072999999525,129.0,,,,1307.1762999999523,1307.6667000000475,1306.6540999999047,1307.1762000000476,1304.2097000000476,1306.654,1307.6667999999522,1308.1525,1308.1525999999046,1309.2927999999524,730.0,1309.2927999999524,1.0,1309.2987999999525,4.0,24.0,144.0,8.0,1.0,1.4,0.7,Time
,,S46,1,女,21,anonymized,Serial_Dependence_U,2023.2.3,Win32,60.24096385542697,,,,,,1309.299,190.0,4.0,1309.299,190.0,,,,1313.3080999999047,1313.8060999999047,1312.7982999999524,1313.3080999999047,1310.3205999999047,1312.7982000000477,1313.8060999999047,1314.3047999999524,1314.3047999999524,1315.206,883.0,1315.206,1.0,1315.2117000000476,4.0,25.0,145.0,23.0,1.0,1.4,0.3,Time
,,S46,1,女,21,anonymized,Serial_Dependence_U,2023.2.3,Win32,60.24096385542697,,,,,,1315.212,255.0,4.0,1315.212,255.0,,,,1318.5692000000477,1319.0685999999046,1318.0539000000954,1318.569099999905,1316.2204000000954,1318.0537999999524,1319.0685999999046,1319.5705999999047,1319.5707000000475,1322.017900000095,2089.0,1322.017900000095,5.0,1322.024,4.0,26.0,146.0,5.0,1.0,0.8,0.7,Time
,,S46,1,女,21,anonymized,Serial_Dependence_U,2023.2.3,Win32,60.24096385542697,,,,,,1322.0242000000476,261.0,4.0,1322.0242999999523,261.0,,,,1326.0157999999524,1326.515599999905,1325.4997999999523,1326.015599999905,1323.0339000000954,1325.4997000000476,1326.515599999905,1327.0164000000957,1327.0164000000957,1329.3314000000953,1887.0,1329.3315,5.0,1329.3375999999046,4.0,27.0,147.0,3.0,1.0,1.4,0.3,Time
,,S46,1,女,21,anonymized,Serial_Dependence_U,2023.2.3,Win32,60.24096385542697,,,,,,1329.3377999999525,207.0,4.0,1329.3379000000953,207.0,,,,1333.3142000000478,1333.813599999905,1332.7972999999524,1333.3140999999046,1330.3315,1332.7972999999524,1333.813599999905,1334.3137999999524,1334.3137999999524,1338.5452000000478,3781.0,1338.5452000000478,5.0,1338.5512999999523,4.0,28.0,148.0,13.0,1.0,1.4,0.3,Time
,,S46,1,女,21,anonymized,Serial_Dependence_U,2023.2.3,Win32,60.24096385542697,,,,,,1338.5515,194.0,4.0,1338.5515999999047,194.0,,,,1341.9109000000954,1342.4102000000478,1341.3937999999523,1341.9107999999524,1339.5615,1341.3937000000476,1342.4102000000478,1342.909599999905,1342.9097000000477,1345.9750999999046,2684.0,1345.9752000000476,5.0,1345.9815,4.0,29.0,149.0,15.0,1.0,0.8,0.7,Time
,,S46,1,女,21,anonymized,Serial_Dependence_U,2023.2.3,Win32,60.24096385542697,,,,,,1345.9815999999046,226.0,5.0,1392.3189000000957,226.0,s,46.309400000095366,,1395.709,1396.2095,1395.1922999999524,1395.7087999999524,1393.3267999999523,1395.1922000000477,1396.2095,1396.7095999999046,1396.7095999999046,1399.057,1938.0,1399.057,5.0,1399.0627999999524,5.0,0.0,150.0,20.0,1.0,0.8,0.3,Time
,,S46,1,女,21,anonymized,Serial_Dependence_U,2023.2.3,Win32,60.24096385542697,,,,,,1399.063,137.0,5.0,1399.0644000000957,137.0,,,,1403.2232000000477,1403.7237999999522,1402.7067000000477,1403.2232000000477,1400.073599999905,1402.7065999999047,1403.7237999999522,1404.2235,1404.2235,1406.506,1705.0,1406.5060999999046,4.0,1406.5122000000476,5.0,1.0,151.0,9.0,1.0,1.6,0.7,Time
,,S46,1,女,21,anonymized,Serial_Dependence_U,2023.2.3,Win32,60.24096385542697,,,,,,1406.5125,126.0,5.0,1406.5125,126.0,,,,1410.5035999999047,1411.0032999999523,1409.9872999999525,1410.503400000095,1407.5212999999524,1409.9872999999525,1411.0032999999523,1411.5027000000478,1411.5027999999522,1413.0874000000954,716.0,1413.0875,1.0,1413.0942000000475,5.0,2.0,152.0,13.0,1.0,1.4,0.3,Time
,,S46,1,女,21,anonymized,Serial_Dependence_U,2023.2.3,Win32,60.24096385542697,,,,,,1413.0944000000954,17.0,5.0,1413.0945999999046,17.0,,,,1416.6687000000477,1417.1675999999047,1416.1520999999047,1416.6687000000477,1414.0859000000953,1416.1520999999047,1417.1675999999047,1417.6672999999523,1417.6672999999523,1418.9507000000476,663.0,1418.9507999999523,1.0,1418.9595,5.0,3.0,153.0,1.0,1.0,1.0,0.3,Time
,,S46,1,女,21,anonymized,Serial_Dependence_U,2023.2.3,Win32,60.24096385542697,,,,,,1418.9597999999523,90.0,5.0,1418.959900000095,90.0,,,,1422.9009000000954,1423.399,1422.3999000000954,1422.9007999999524,1419.9674000000953,1422.3997999999524,1423.399,1423.8994000000953,1423.8994000000953,1425.665099999905,1280.0,1425.665099999905,2.0,1425.6709000000951,5.0,4.0,154.0,8.0,1.0,1.4,0.7,Time
,,S46,1,女,21,anonymized,Serial_Dependence_U,2023.2.3,Win32,60.24096385542697,,,,,,1425.671,205.0,5.0,1425.6712000000475,205.0,,,,1429.4149000000957,1429.9137000000476,1428.9139000000953,1429.4147999999525,1426.6812999999522,1428.9137999999523,1429.9137000000476,1430.4145,1430.4145999999046,1430.5472999999524,121.0,1430.5475,1.0,1430.5532999999523,5.0,5.0,155.0,17.0,1.0,1.2,0.7,Time
,,S46,1,女,21,anonymized,Serial_Dependence_U,2023.2.3,Win32,60.24096385542697,,,,,,1430.5535999999047,158.0,5.0,1430.5537000000477,158.0,,,,1434.1125,1434.612599999905,1433.5959000000953,1434.1122000000478,1431.564,1433.5957999999523,1434.6127000000477,1435.1129000000954,1435.1129000000954,1436.5625,1033.0,1436.5625,3.0,1436.568,5.0,6.0,156.0,26.0,1.0,1.0,0.7,Time
,,S46,1,女,21,anonymized,Serial_Dependence_U,2023.2.3,Win32,60.24096385542697,,,,,,1436.5682000000477,33.0,5.0,1436.5682999999524,33.0,,,,1440.3105,1440.8104000000951,1439.7935,1440.3102999999523,1437.5615,1439.7935,1440.8104000000951,1441.3102000000476,1441.3102000000476,1444.2435999999047,2578.0,1444.2435999999047,5.0,1444.2495,5.0,7.0,157.0,27.0,1.0,1.2,0.7,Time
,,S46,1,女,21,anonymized,Serial_Dependence_U,2023.2.3,Win32,60.24096385542697,,,,,,1444.2497000000476,95.0,5.0,1444.2497999999523,95.0,,,,1447.6417000000476,1448.1407999999524,1447.1244000000954,1447.6417000000476,1445.2587999999523,1447.1242999999524,1448.1409000000954,1448.642,1448.642,1450.4574000000953,963.0,1450.4574000000953,4.0,1450.4635,5.0,8.0,158.0,0.0,1.0,0.8,0.3,Time
,,S46,1,女,21,anonymized,Serial_Dependence_U,2023.2.3,Win32,60.24096385542697,,,,,,1450.4637000000478,325.0,5.0,1450.4637999999522,325.0,,,,1454.0392000000477,1454.5390999999047,1453.522400000095,1454.039,1451.457,1453.5222999999523,1454.5392000000477,1455.0384000000954,1455.0385,1458.1890999999046,2739.0,1458.1890999999046,5.0,1458.1949000000957,5.0,9.0,159.0,21.0,1.0,1.0,0.3,Time
,,S46,1,女,21,anonymized,Serial_Dependence_U,2023.2.3,Win32,60.24096385542697,,,,,,1458.195,292.0,5.0,1458.1950999999046,292.0,,,,1462.3365,1462.8357999999523,1461.8200999999046,1462.3364000000954,1459.1887999999524,1461.82,1462.8359000000953,1463.3352000000475,1463.3352000000475,1466.751,2230.0,1466.751,5.0,1466.7582999999522,5.0,10.0,160.0,29.0,1.0,1.6,0.7,Time
,,S46,1,女,21,anonymized,Serial_Dependence_U,2023.2.3,Win32,60.24096385542697,,,,,,1466.7585999999046,172.0,5.0,1466.7585999999046,172.0,,,,1470.5162999999525,1471.0174000000954,1470.0002999999524,1470.5162000000478,1467.7690999999047,1470.0002000000477,1471.0175,1471.5172000000478,1471.5172000000478,1473.8652000000477,355.0,1473.8652000000477,1.0,1473.872,5.0,11.0,161.0,7.0,1.0,1.2,0.7,Time
,,S46,1,女,21,anonymized,Serial_Dependence_U,2023.2.3,Win32,60.24096385542697,,,,,,1473.8722999999522,292.0,5.0,1473.8724000000957,292.0,,,,1477.8155,1478.3140999999046,1477.2994000000954,1477.8154000000957,1474.8662000000477,1477.2992999999524,1478.3140999999046,1478.8135,1478.813599999905,1481.5457000000476,1989.0,1481.5457000000476,5.0,1481.5522999999523,5.0,12.0,162.0,18.0,1.0,1.4,0.7,Time
,,S46,1,女,21,anonymized,Serial_Dependence_U,2023.2.3,Win32,60.24096385542697,,,,,,1481.5524000000953,164.0,5.0,1481.5525,164.0,,,,1485.0955999999046,1485.595,1484.5787999999525,1485.0955999999046,1482.546,1484.5785999999046,1485.595,1486.0950999999047,1486.0952000000475,1488.3775999999043,1451.0,1488.3775999999043,5.0,1488.3832999999522,5.0,13.0,163.0,16.0,1.0,1.0,0.7,Time
,,S46,1,女,21,anonymized,Serial_Dependence_U,2023.2.3,Win32,60.24096385542697,,,,,,1488.3835,239.0,5.0,1488.3837000000476,239.0,,,,1491.7275,1492.2262000000476,1491.2105,1491.7274000000957,1489.378400000095,1491.2104000000954,1492.2262999999523,1492.7254000000953,1492.7254000000953,1494.7582999999522,1466.0,1494.7582999999522,5.0,1494.7657999999524,5.0,14.0,164.0,15.0,1.0,0.8,0.7,Time
,,S46,1,女,21,anonymized,Serial_Dependence_U,2023.2.3,Win32,60.24096385542697,,,,,,1494.7660999999046,9.0,5.0,1494.7662000000478,9.0,,,,1498.9402999999522,1499.4402999999522,1498.4249000000957,1498.9402000000478,1495.7585999999046,1498.4247999999525,1499.4402999999522,1499.94,1499.94,1503.0055999999047,2115.0,1503.0055999999047,5.0,1503.012,5.0,15.0,165.0,4.0,1.0,1.6,0.3,Time
,,S46,1,女,21,anonymized,Serial_Dependence_U,2023.2.3,Win32,60.24096385542697,,,,,,1503.0122000000476,254.0,5.0,1503.0122999999523,254.0,,,,1507.0052000000476,1507.504,1506.487599999905,1507.0050999999046,1504.0232999999523,1506.4875,1507.5040999999046,1508.0035,1508.0035999999047,1511.1530999999047,2297.0,1511.1530999999047,5.0,1511.1589000000954,5.0,16.0,166.0,3.0,1.0,1.4,0.3,Time
,,S46,1,女,21,anonymized,Serial_Dependence_U,2023.2.3,Win32,60.24096385542697,,,,,,1511.1590999999046,174.0,5.0,1511.1592999999525,174.0,,,,1515.352,1515.8515999999047,1514.834900000095,1515.3519000000954,1512.169599999905,1514.8347999999523,1515.8515999999047,1516.3509000000954,1516.3509000000954,1519.017,2185.0,1519.0172000000478,5.0,1519.0242999999523,5.0,17.0,167.0,14.0,1.0,1.6,0.3,Time
,,S46,1,女,21,anonymized,Serial_Dependence_U,2023.2.3,Win32,60.24096385542697,,,,,,1519.0245999999047,161.0,5.0,1519.025,161.0,,,,1522.9655999999047,1523.4655,1522.4492999999522,1522.9655,1520.0172999999522,1522.4490999999043,1523.4655,1523.9647999999522,1523.9647999999522,1527.2810999999049,2718.0,1527.2812000000476,5.0,1527.287,5.0,18.0,168.0,28.0,1.0,1.4,0.7,Time
,,S46,1,女,21,anonymized,Serial_Dependence_U,2023.2.3,Win32,60.24096385542697,,,,,,1527.2872000000475,223.0,5.0,1527.2872999999522,223.0,,,,1530.8800999999046,1531.3792000000476,1530.3644000000954,1530.88,1528.296900000095,1530.3644000000954,1531.3792999999523,1531.8790999999046,1531.8792000000476,1533.7784000000954,1278.0,1533.7785,4.0,1533.7862000000478,5.0,19.0,169.0,11.0,1.0,1.0,0.3,Time
,,S46,1,女,21,anonymized,Serial_Dependence_U,2023.2.3,Win32,60.24096385542697,,,,,,1533.7865999999046,223.0,5.0,1533.7867999999523,223.0,,,,1537.9287000000477,1538.4275,1537.4270999999046,1537.9285999999047,1534.794599999905,1537.4269000000954,1538.4275999999047,1538.9265,1538.9265,1542.1255999999046,791.0,1542.1255999999046,1.0,1542.1342999999524,5.0,20.0,170.0,19.0,1.0,1.6,0.7,Time
,,S46,1,女,21,anonymized,Serial_Dependence_U,2023.2.3,Win32,60.24096385542697,,,,,,1542.1344000000954,1.0,5.0,1542.1345,1.0,,,,1545.924099999905,1546.4239000000953,1545.4087999999524,1545.924,1543.1427000000476,1545.4085999999047,1546.424,1546.9237000000478,1546.9237999999525,1549.1899000000951,1933.0,1549.1899000000951,5.0,1549.196,5.0,21.0,171.0,22.0,1.0,1.2,0.3,Time
,,S46,1,女,21,anonymized,Serial_Dependence_U,2023.2.3,Win32,60.24096385542697,,,,,,1549.1962000000476,251.0,5.0,1549.1962000000476,251.0,,,,1552.9565999999047,1553.4550999999046,1552.4557000000475,1552.9565,1550.1907999999523,1552.4555999999047,1553.4552000000476,1553.9545999999043,1553.9547000000478,1557.5035999999047,2849.0,1557.5035999999047,5.0,1557.5104000000954,5.0,22.0,172.0,12.0,1.0,1.2,0.3,Time
,,S46,1,女,21,anonymized,Serial_Dependence_U,2023.2.3,Win32,60.24096385542697,,,,,,1557.5105999999046,181.0,5.0,1557.5107000000478,181.0,,,,1561.070400000095,1561.5700999999046,1560.553,1561.0702999999523,1558.5205999999046,1560.5529000000954,1561.5702000000476,1562.0692000000477,1562.0692000000477,1567.185,2373.0,1567.185,5.0,1567.1910999999047,5.0,23.0,173.0,6.0,1.0,1.0,0.7,Time
,,S46,1,女,21,anonymized,Serial_Dependence_U,2023.2.3,Win32,60.24096385542697,,,,,,1567.1914000000954,351.0,5.0,1567.1914000000954,351.0,,,,1570.9670999999046,1571.4659000000954,1570.466,1570.9670999999046,1568.2005999999046,1570.4657999999524,1571.466,1571.966,1571.966,1577.4477000000477,2985.0,1577.4477000000477,5.0,1577.4540999999049,5.0,24.0,174.0,2.0,1.0,1.2,0.3,Time
,,S46,1,女,21,anonymized,Serial_Dependence_U,2023.2.3,Win32,60.24096385542697,,,,,,1577.4542999999524,226.0,5.0,1577.4544000000951,226.0,,,,1580.7959000000951,1581.2955999999049,1580.2802000000477,1580.7957999999524,1578.4475,1580.2802000000477,1581.2955999999049,1581.7952999999522,1581.7952999999522,1586.977,4190.0,1586.9770999999046,5.0,1586.9855,5.0,25.0,175.0,25.0,1.0,0.8,0.7,Time
,,S46,1,女,21,anonymized,Serial_Dependence_U,2023.2.3,Win32,60.24096385542697,,,,,,1586.9857999999524,303.0,5.0,1586.9859000000954,303.0,,,,1590.9439000000957,1591.4422000000477,1590.4430999999047,1590.9437999999525,1587.978,1590.443,1591.4422000000477,1591.9419000000953,1591.9419000000953,1595.2410999999047,3177.0,1595.2412999999524,5.0,1595.2469000000954,5.0,26.0,176.0,23.0,1.0,1.4,0.3,Time
,,S46,1,女,21,anonymized,Serial_Dependence_U,2023.2.3,Win32,60.24096385542697,,,,,,1595.2470999999043,87.0,5.0,1595.2472000000478,87.0,,,,1599.4235999999046,1599.9225,1598.9067000000475,1599.4235999999046,1596.242,1598.9065999999043,1599.9225,1600.4235999999046,1600.4235999999046,1604.0052000000476,3508.0,1604.0052000000476,5.0,1604.011099999905,5.0,27.0,177.0,24.0,1.0,1.6,0.3,Time
,,S46,1,女,21,anonymized,Serial_Dependence_U,2023.2.3,Win32,60.24096385542697,,,,,,1604.0114000000954,217.0,5.0,1604.0115,217.0,,,,1607.3870999999046,1607.887,1606.8722999999522,1607.3869000000957,1605.0059000000954,1606.8722999999522,1607.887,1608.3865999999043,1608.3865999999043,1609.8534000000957,816.0,1609.8535,3.0,1609.8590999999046,5.0,28.0,178.0,10.0,1.0,0.8,0.3,Time
,,S46,1,女,21,anonymized,Serial_Dependence_U,2023.2.3,Win32,60.24096385542697,,,,,,1609.859400000095,169.0,5.0,1609.859400000095,169.0,,,,1613.202,1613.7012000000475,1612.685,1613.2017999999523,1610.8537999999523,1612.6849000000957,1613.7012000000475,1614.2025,1614.2025,1616.517,1347.0,1616.5170999999043,5.0,1616.5232999999523,5.0,29.0,179.0,5.0,1.0,0.8,0.7,Time
,,S46,1,女,21,anonymized,Serial_Dependence_U,2023.2.3,Win32,60.24096385542697,,,,,,1616.5235,316.0,6.0,1618.8169000000953,316.0,s,2.2854000000954784,,1622.9819000000953,1623.4810999999047,1622.4659000000954,1622.9817999999525,1619.8332999999525,1622.4657999999524,1623.4810999999047,1623.9817000000478,1623.9817000000478,1626.5144000000953,2095.0,1626.5144000000953,5.0,1626.5200999999047,6.0,0.0,180.0,19.0,1.0,1.6,0.7,Time
,,S46,1,女,21,anonymized,Serial_Dependence_U,2023.2.3,Win32,60.24096385542697,,,,,,1626.5204000000954,271.0,6.0,1626.5215,271.0,,,,1630.4795999999046,1630.9802999999524,1629.964400000095,1630.4795,1627.5317999999522,1629.9642999999523,1630.9804000000954,1631.4795,1631.4795,1633.345,1043.0,1633.345,2.0,1633.3512999999523,6.0,1.0,181.0,8.0,1.0,1.4,0.7,Time
,,S46,1,女,21,anonymized,Serial_Dependence_U,2023.2.3,Win32,60.24096385542697,,,,,,1633.3515999999047,199.0,6.0,1633.3517000000477,199.0,,,,1636.9439000000957,1637.4444000000954,1636.4284000000953,1636.9437999999525,1634.3617000000477,1636.4282999999523,1637.4444000000954,1637.9432999999524,1637.9432999999524,1640.8262999999524,2448.0,1640.8262999999524,5.0,1640.8355999999046,6.0,2.0,182.0,21.0,1.0,1.0,0.3,Time
,,S46,1,女,21,anonymized,Serial_Dependence_U,2023.2.3,Win32,60.24096385542697,,,,,,1640.8357999999523,117.0,6.0,1640.8359000000953,117.0,,,,1644.8250999999048,1645.3237999999524,1644.3079000000953,1644.8250999999048,1641.8417000000477,1644.3077999999523,1645.3239000000954,1645.8239000000954,1645.8239000000954,1648.0242000000476,1669.0,1648.0242000000476,4.0,1648.0307999999525,6.0,3.0,183.0,23.0,1.0,1.4,0.3,Time
,,S46,1,女,21,anonymized,Serial_Dependence_U,2023.2.3,Win32,60.24096385542697,,,,,,1648.0310999999049,243.0,6.0,1648.0312000000476,243.0,,,,1651.4225999999046,1651.9222999999524,1650.9059000000957,1651.4225999999046,1649.0399000000957,1650.9057000000478,1651.9222999999524,1652.4215,1652.4215,1654.371,1492.0,1654.371,5.0,1654.377,6.0,4.0,184.0,0.0,1.0,0.8,0.3,Time
,,S46,1,女,21,anonymized,Serial_Dependence_U,2023.2.3,Win32,60.24096385542697,,,,,,1654.3772000000477,61.0,6.0,1654.3772000000477,61.0,,,,1658.3537000000476,1658.8524000000957,1657.837,1658.3535,1655.3707999999524,1657.8367999999523,1658.8524000000957,1659.3524000000957,1659.3525,1661.8522999999525,1935.0,1661.8522999999525,5.0,1661.8582000000476,6.0,5.0,185.0,13.0,1.0,1.4,0.3,Time
,,S46,1,女,21,anonymized,Serial_Dependence_U,2023.2.3,Win32,60.24096385542697,,,,,,1661.8584000000951,216.0,6.0,1661.8584000000951,216.0,,,,1665.4017999999523,1665.901,1664.9007999999524,1665.4017000000476,1662.8680999999046,1664.9007000000477,1665.901,1666.4005,1666.4005,1667.5832000000478,598.0,1667.5832000000478,1.0,1667.5890999999046,6.0,6.0,186.0,6.0,1.0,1.0,0.7,Time
,,S46,1,女,21,anonymized,Serial_Dependence_U,2023.2.3,Win32,60.24096385542697,,,,,,1667.5892999999523,128.0,6.0,1667.589400000095,128.0,,,,1671.3485999999043,1671.8485999999043,1670.8330999999046,1671.3484000000954,1668.5997999999522,1670.833,1671.8485999999043,1672.3485999999043,1672.3485999999043,1674.664,2064.0,1674.6640999999047,5.0,1674.6705,6.0,7.0,187.0,27.0,1.0,1.2,0.7,Time
,,S46,1,女,21,anonymized,Serial_Dependence_U,2023.2.3,Win32,60.24096385542697,,,,,,1674.6707999999524,273.0,6.0,1674.6709000000951,273.0,,,,1678.0470999999047,1678.5459000000951,1677.5465,1678.047,1675.6817999999523,1677.5464000000954,1678.5459000000951,1679.0470999999047,1679.0472000000475,1682.0129000000954,2399.0,1682.013,5.0,1682.0187000000476,6.0,8.0,188.0,10.0,1.0,0.8,0.3,Time
,,S46,1,女,21,anonymized,Serial_Dependence_U,2023.2.3,Win32,60.24096385542697,,,,,,1682.0189000000953,178.0,6.0,1682.019,178.0,,,,1685.8112000000476,1686.3100999999049,1685.2944000000953,1685.8110999999046,1683.0285999999046,1685.2942000000478,1686.3102000000476,1686.8097999999522,1686.8097999999522,1688.4267999999522,1111.0,1688.4267999999522,2.0,1688.434,6.0,9.0,189.0,22.0,1.0,1.2,0.3,Time
,,S46,1,女,21,anonymized,Serial_Dependence_U,2023.2.3,Win32,60.24096385542697,,,,,,1688.4342999999524,173.0,6.0,1688.4342999999524,173.0,,,,1692.009,1692.5085,1691.4919000000957,1692.0087999999523,1689.427,1691.4915999999046,1692.5085,1693.0089000000953,1693.009,1695.3075999999046,1815.0,1695.3075999999046,5.0,1695.3137999999524,6.0,10.0,190.0,1.0,1.0,1.0,0.3,Time
,,S46,1,女,21,anonymized,Serial_Dependence_U,2023.2.3,Win32,60.24096385542697,,,,,,1695.314,230.0,6.0,1695.3140999999046,230.0,,,,1698.6565,1699.1560999999049,1698.1407000000477,1698.6564000000951,1696.3079000000953,1698.140599999905,1699.1560999999049,1699.6555,1699.6555999999046,1703.2045999999043,1866.0,1703.2047000000478,5.0,1703.2102999999522,6.0,11.0,191.0,15.0,1.0,0.8,0.7,Time
,,S46,1,女,21,anonymized,Serial_Dependence_U,2023.2.3,Win32,60.24096385542697,,,,,,1703.2105,234.0,6.0,1703.2105999999046,234.0,,,,1707.3707999999524,1707.8705999999047,1706.8540999999047,1707.3707999999524,1704.2210999999047,1706.8540999999047,1707.8705999999047,1708.3692000000476,1708.3692000000476,1709.2032000000477,51.0,1709.2032000000477,1.0,1709.2089000000954,6.0,12.0,192.0,29.0,1.0,1.6,0.7,Time
,,S46,1,女,21,anonymized,Serial_Dependence_U,2023.2.3,Win32,60.24096385542697,,,,,,1709.2090999999043,189.0,6.0,1709.2090999999043,189.0,,,,1713.1517000000476,1713.650599999905,1712.6357999999525,1713.1517000000476,1710.2022999999524,1712.6355999999046,1713.650599999905,1714.152,1714.152,1716.7504000000954,2150.0,1716.7504000000954,5.0,1716.7565,6.0,13.0,193.0,28.0,1.0,1.4,0.7,Time
,,S46,1,女,21,anonymized,Serial_Dependence_U,2023.2.3,Win32,60.24096385542697,,,,,,1716.7567000000477,192.0,6.0,1716.7567000000477,192.0,,,,1720.0987000000478,1720.5985999999043,1719.583,1720.0985999999043,1717.7505,1719.5829000000954,1720.5985999999043,1721.0987999999522,1721.0987999999522,1724.6479000000954,2797.0,1724.6479000000954,5.0,1724.6539000000953,6.0,14.0,194.0,25.0,1.0,0.8,0.7,Time
,,S46,1,女,21,anonymized,Serial_Dependence_U,2023.2.3,Win32,60.24096385542697,,,,,,1724.6540999999047,242.0,6.0,1724.6542000000477,242.0,,,,1728.8305999999047,1729.3295999999043,1728.3300999999046,1728.8305999999047,1725.6637000000476,1728.33,1729.3295999999043,1729.8285,1729.8285999999046,1731.1780999999046,878.0,1731.1780999999046,1.0,1731.1839000000953,6.0,15.0,195.0,14.0,1.0,1.6,0.3,Time
,,S46,1,女,21,anonymized,Serial_Dependence_U,2023.2.3,Win32,60.24096385542697,,,,,,1731.184,63.0,6.0,1731.184099999905,63.0,,,,1734.9607000000476,1735.46,1734.4449000000957,1734.9605999999046,1732.1780999999046,1734.4447000000478,1735.46,1735.9607000000476,1735.9607000000476,1739.2757999999524,2417.0,1739.2759000000954,5.0,1739.2817000000475,6.0,16.0,196.0,2.0,1.0,1.2,0.3,Time
,,S46,1,女,21,anonymized,Serial_Dependence_U,2023.2.3,Win32,60.24096385542697,,,,,,1739.2819000000954,10.0,6.0,1739.2819000000954,10.0,,,,1743.0580999999047,1743.5575,1742.5420999999046,1743.058,1740.2764000000957,1742.5420999999046,1743.5575,1744.058,1744.058,1746.957,2323.0,1746.957,5.0,1746.9640999999046,6.0,17.0,197.0,12.0,1.0,1.2,0.3,Time
,,S46,1,女,21,anonymized,Serial_Dependence_U,2023.2.3,Win32,60.24096385542697,,,,,,1746.964400000095,183.0,6.0,1746.9645,183.0,,,,1750.34,1750.8389000000957,1749.8390999999046,1750.3399000000954,1747.973099999905,1749.8389000000957,1750.8389000000957,1751.338,1751.338,1754.3877000000475,2638.0,1754.3877999999522,5.0,1754.3935,6.0,18.0,198.0,20.0,1.0,0.8,0.3,Time
,,S46,1,女,21,anonymized,Serial_Dependence_U,2023.2.3,Win32,60.24096385542697,,,,,,1754.3937000000476,260.0,6.0,1754.3937999999523,260.0,,,,1758.3367000000476,1758.8365999999046,1757.8360999999047,1758.3365999999046,1755.4037999999523,1757.836,1758.8367000000476,1759.3350999999047,1759.3352000000475,1762.8857000000478,3109.0,1762.8857999999525,5.0,1762.8935,6.0,19.0,199.0,18.0,1.0,1.4,0.7,Time
,,S46,1,女,21,anonymized,Serial_Dependence_U,2023.2.3,Win32,60.24096385542697,,,,,,1762.8937000000476,90.0,6.0,1762.8937999999523,90.0,,,,1766.6337000000476,1767.1324000000957,1766.1175999999043,1766.6335999999046,1763.885,1766.1175,1767.1324000000957,1767.6324000000957,1767.6324000000957,1769.166,947.0,1769.166,2.0,1769.172,6.0,20.0,200.0,17.0,1.0,1.2,0.7,Time
,,S46,1,女,21,anonymized,Serial_Dependence_U,2023.2.3,Win32,60.24096385542697,,,,,,1769.1720999999047,281.0,6.0,1769.1722000000475,281.0,,,,1772.7314000000954,1773.2314000000954,1772.2145,1772.7314000000954,1770.182,1772.2145,1773.2314000000954,1773.7310999999047,1773.7310999999047,1774.6305999999047,431.0,1774.6305999999047,1.0,1774.6369000000957,6.0,21.0,201.0,16.0,1.0,1.0,0.7,Time
,,S46,1,女,21,anonymized,Serial_Dependence_U,2023.2.3,Win32,60.24096385542697,,,,,,1774.6370999999046,205.0,6.0,1774.6372000000476,205.0,,,,1778.2139000000957,1778.712,1777.6967999999524,1778.2137999999522,1775.6309000000954,1777.6967000000477,1778.712,1779.2120999999047,1779.2120999999047,1781.528,1737.0,1781.528,5.0,1781.5420999999046,6.0,22.0,202.0,11.0,1.0,1.0,0.3,Time
,,S46,1,女,21,anonymized,Serial_Dependence_U,2023.2.3,Win32,60.24096385542697,,,,,,1781.5422999999523,265.0,6.0,1781.5424000000953,265.0,,,,1785.5444000000953,1786.0429000000954,1785.0284000000954,1785.5440999999046,1782.5625,1785.0284000000954,1786.0429000000954,1786.5427000000475,1786.5427999999524,1789.327,2386.0,1789.327,5.0,1789.333,6.0,23.0,203.0,3.0,1.0,1.4,0.3,Time
,,S46,1,女,21,anonymized,Serial_Dependence_U,2023.2.3,Win32,60.24096385542697,,,,,,1789.3332000000478,161.0,6.0,1789.3332999999525,161.0,,,,1792.8747000000476,1793.3737000000476,1792.3587999999522,1792.8747000000476,1790.3265,1792.3587000000475,1793.3737000000476,1793.8742000000475,1793.8742000000475,1797.608,2649.0,1797.6082999999524,5.0,1797.6147000000476,6.0,24.0,204.0,26.0,1.0,1.0,0.7,Time
,,S46,1,女,21,anonymized,Serial_Dependence_U,2023.2.3,Win32,60.24096385542697,,,,,,1797.6149000000953,42.0,6.0,1797.615,42.0,,,,1801.7715999999043,1802.271799999952,1801.2552000000476,1801.7715999999043,1798.6225999999049,1801.2550999999046,1802.2719000000957,1802.771200000048,1802.771200000048,1805.820200000048,2635.0,1805.820200000048,5.0,1805.8269000000955,6.0,25.0,205.0,9.0,1.0,1.6,0.7,Time
,,S46,1,女,21,anonymized,Serial_Dependence_U,2023.2.3,Win32,60.24096385542697,,,,,,1805.8270999999047,306.0,6.0,1805.8270999999047,306.0,,,,1809.169200000048,1809.6682999999523,1808.653,1809.1690999999048,1806.8210999999048,1808.653,1809.6682999999523,1810.1680999999048,1810.1680999999048,1813.934200000048,3340.0,1813.934200000048,5.0,1813.9405999999049,6.0,26.0,206.0,5.0,1.0,0.8,0.7,Time
,,S46,1,女,21,anonymized,Serial_Dependence_U,2023.2.3,Win32,60.24096385542697,,,,,,1813.9409000000956,350.0,6.0,1813.9409000000956,350.0,,,,1818.1335999999048,1818.6330999999047,1817.6175999999043,1818.1335,1814.9507999999523,1817.6174000000956,1818.6330999999047,1819.132,1819.132,1821.5307999999525,1984.0,1821.5309000000957,4.0,1821.5380999999047,6.0,27.0,207.0,24.0,1.0,1.6,0.3,Time
,,S46,1,女,21,anonymized,Serial_Dependence_U,2023.2.3,Win32,60.24096385542697,,,,,,1821.5382999999524,75.0,6.0,1821.5384000000956,75.0,,,,1825.7134000000956,1826.213200000048,1825.197200000048,1825.7132999999524,1822.532200000048,1825.197200000048,1826.213200000048,1826.7125,1826.7125,1829.894700000048,2733.0,1829.8947999999525,5.0,1829.901200000048,6.0,28.0,208.0,4.0,1.0,1.6,0.3,Time
,,S46,1,女,21,anonymized,Serial_Dependence_U,2023.2.3,Win32,60.24096385542697,,,,,,1829.9015,96.0,6.0,1829.9015,96.0,,,,1833.660599999905,1834.1607999999524,1833.1455,1833.6604000000957,1830.9110999999043,1833.1452999999524,1834.1607999999524,1834.6600999999048,1834.6600999999048,1837.5260999999043,2310.0,1837.526200000048,5.0,1837.5350999999048,6.0,29.0,209.0,7.0,1.0,1.2,0.7,Time
,,S46,1,女,21,anonymized,Serial_Dependence_U,2023.2.3,Win32,60.24096385542697,,,,,,1837.5354000000957,95.0,7.0,1839.958599999905,95.0,s,2.408100000143122,,1843.557200000048,1844.0575999999048,1843.040700000048,1843.557,1840.9745,1843.0405999999043,1844.057700000048,1844.5564000000957,1844.5565,1848.405700000048,3466.0,1848.405700000048,5.0,1848.411700000048,7.0,0.0,210.0,21.0,1.0,1.0,0.3,Time
,,S46,1,女,21,anonymized,Serial_Dependence_U,2023.2.3,Win32,60.24096385542697,,,,,,1848.4119000000956,188.0,7.0,1848.4127999999523,188.0,,,,1851.971,1852.471,1851.454799999952,1851.9709000000955,1849.4215999999049,1851.454700000048,1852.471,1852.9719000000955,1852.9719000000955,1854.2035999999048,955.0,1854.2035999999048,3.0,1854.2094000000957,7.0,1.0,211.0,6.0,1.0,1.0,0.7,Time
,,S46,1,女,21,anonymized,Serial_Dependence_U,2023.2.3,Win32,60.24096385542697,,,,,,1854.2095999999049,346.0,7.0,1854.209700000048,346.0,,,,1857.5695,1858.0682999999524,1857.0529000000956,1857.5694000000956,1855.2197999999523,1857.0527999999524,1858.0682999999524,1858.5685999999048,1858.5685999999048,1861.401200000048,2241.0,1861.401200000048,5.0,1861.4075,7.0,2.0,212.0,15.0,1.0,0.8,0.7,Time
,,S46,1,女,21,anonymized,Serial_Dependence_U,2023.2.3,Win32,60.24096385542697,,,,,,1861.4077999999524,130.0,7.0,1861.408,130.0,,,,1864.9835,1865.4839000000957,1864.4669000000956,1864.9832999999524,1862.4015999999049,1864.4667999999524,1865.4839000000957,1865.9832999999524,1865.9832999999524,1866.915700000048,684.0,1866.915700000048,1.0,1866.9215999999049,7.0,3.0,213.0,1.0,1.0,1.0,0.3,Time
,,S46,1,女,21,anonymized,Serial_Dependence_U,2023.2.3,Win32,60.24096385542697,,,,,,1866.9217999999523,330.0,7.0,1866.9219000000955,330.0,,,,1871.0822999999525,1871.5807999999524,1870.5650999999043,1871.0822999999525,1867.933,1870.5650999999043,1871.5809000000957,1872.081200000048,1872.081200000048,1873.497700000048,1041.0,1873.497700000048,1.0,1873.5035999999047,7.0,4.0,214.0,29.0,1.0,1.6,0.7,Time
,,S46,1,女,21,anonymized,Serial_Dependence_U,2023.2.3,Win32,60.24096385542697,,,,,,1873.5037999999524,41.0,7.0,1873.5037999999524,41.0,,,,1877.679200000048,1878.1784000000955,1877.164,1877.6790999999048,1874.498200000048,1877.1639000000955,1878.1784000000955,1878.6789000000956,1878.6789000000956,1880.2117999999523,806.0,1880.2117999999523,1.0,1880.217700000048,7.0,5.0,215.0,14.0,1.0,1.6,0.3,Time
,,S46,1,女,21,anonymized,Serial_Dependence_U,2023.2.3,Win32,60.24096385542697,,,,,,1880.2179000000956,182.0,7.0,1880.2180999999048,182.0,,,,1884.193700000048,1884.693200000048,1883.6775,1884.1935,1881.2115,1883.6772999999523,1884.693200000048,1885.1934000000956,1885.1934000000956,1887.976700000048,2463.0,1887.976700000048,5.0,1887.9825999999048,7.0,6.0,216.0,23.0,1.0,1.4,0.3,Time
,,S46,1,女,21,anonymized,Serial_Dependence_U,2023.2.3,Win32,60.24096385542697,,,,,,1887.9829000000957,280.0,7.0,1887.9829000000957,280.0,,,,1891.325700000048,1891.825299999952,1890.8245999999049,1891.3255999999049,1888.9934000000956,1890.8245,1891.825299999952,1892.3245999999049,1892.3245999999049,1895.739,2771.0,1895.739,5.0,1895.7457999999524,7.0,7.0,217.0,25.0,1.0,0.8,0.7,Time
,,S46,1,女,21,anonymized,Serial_Dependence_U,2023.2.3,Win32,60.24096385542697,,,,,,1895.746,160.0,7.0,1895.7460999999048,160.0,,,,1899.5055,1900.004700000048,1898.9884000000957,1899.5052999999525,1896.756599999905,1898.988299999952,1900.004700000048,1900.5047999999524,1900.5047999999524,1905.602599999905,4563.0,1905.602599999905,5.0,1905.608799999952,7.0,8.0,218.0,7.0,1.0,1.2,0.7,Time
,,S46,1,女,21,anonymized,Serial_Dependence_U,2023.2.3,Win32,60.24096385542697,,,,,,1905.609,26.0,7.0,1905.6090999999049,26.0,,,,1909.752200000048,1910.2509000000955,1909.2357999999524,1909.7520999999049,1906.603299999952,1909.235700000048,1910.2509000000955,1910.7505,1910.7505,1914.9660999999048,3783.0,1914.9660999999048,5.0,1914.9727999999525,7.0,9.0,219.0,19.0,1.0,1.6,0.7,Time
,,S46,1,女,21,anonymized,Serial_Dependence_U,2023.2.3,Win32,60.24096385542697,,,,,,1914.973,131.0,7.0,1914.973099999905,131.0,,,,1918.9655,1919.4665,1918.448599999905,1918.9655,1915.982799999952,1918.4485,1919.4665,1919.9660999999048,1919.966200000048,1924.113,3804.0,1924.1130999999043,5.0,1924.1194000000955,7.0,10.0,220.0,13.0,1.0,1.4,0.3,Time
,,S46,1,女,21,anonymized,Serial_Dependence_U,2023.2.3,Win32,60.24096385542697,,,,,,1924.1195999999047,160.0,7.0,1924.119700000048,160.0,,,,1928.0627999999524,1928.561200000048,1927.5455,1928.062700000048,1925.1140999999047,1927.5454000000957,1928.561200000048,1929.0620999999048,1929.0620999999048,1932.6782999999523,3158.0,1932.6782999999523,5.0,1932.6844000000956,7.0,11.0,221.0,18.0,1.0,1.4,0.7,Time
,,S46,1,女,21,anonymized,Serial_Dependence_U,2023.2.3,Win32,60.24096385542697,,,,,,1932.6845999999043,354.0,7.0,1932.684700000048,354.0,,,,1936.4255999999043,1936.9259000000957,1935.909599999905,1936.4255999999043,1933.677700000048,1935.909599999905,1936.926,1937.425,1937.425099999905,1941.691,3873.0,1941.691,5.0,1941.6969000000956,7.0,12.0,222.0,27.0,1.0,1.2,0.7,Time
,,S46,1,女,21,anonymized,Serial_Dependence_U,2023.2.3,Win32,60.24096385542697,,,,,,1941.6970999999048,93.0,7.0,1941.697200000048,93.0,,,,1945.640700000048,1946.138700000048,1945.1225999999049,1945.640700000048,1942.6915999999048,1945.1224000000957,1946.138700000048,1946.6385999999047,1946.6385999999047,1949.4044000000956,2419.0,1949.4044000000956,5.0,1949.4114000000957,7.0,13.0,223.0,8.0,1.0,1.4,0.7,Time
,,S46,1,女,21,anonymized,Serial_Dependence_U,2023.2.3,Win32,60.24096385542697,,,,,,1949.411700000048,83.0,7.0,1949.411700000048,83.0,,,,1952.7705,1953.272,1952.255,1952.7704000000956,1950.4217999999523,1952.2547999999524,1953.272,1953.7695,1953.7695,1955.4030999999047,1297.0,1955.4030999999047,5.0,1955.4090999999048,7.0,14.0,224.0,5.0,1.0,0.8,0.7,Time
,,S46,1,女,21,anonymized,Serial_Dependence_U,2023.2.3,Win32,60.24096385542697,,,,,,1955.4092999999525,131.0,7.0,1955.4094000000955,131.0,,,,1959.5684000000956,1960.068,1959.0524000000955,1959.5684000000956,1956.419200000048,1959.052200000048,1960.068,1960.567700000048,1960.567700000048,1963.434,2546.0,1963.434099999905,5.0,1963.4399000000956,7.0,15.0,225.0,9.0,1.0,1.6,0.7,Time
,,S46,1,女,21,anonymized,Serial_Dependence_U,2023.2.3,Win32,60.24096385542697,,,,,,1963.4400999999043,351.0,7.0,1963.440200000048,351.0,,,,1966.8325,1967.3325,1966.3160999999047,1966.8324000000955,1964.45,1966.316,1967.3325,1967.8319000000956,1967.832,1971.3477999999525,3023.0,1971.3479000000957,5.0,1971.355200000048,7.0,16.0,226.0,10.0,1.0,0.8,0.3,Time
,,S46,1,女,21,anonymized,Serial_Dependence_U,2023.2.3,Win32,60.24096385542697,,,,,,1971.3555,215.0,7.0,1971.3555999999048,215.0,,,,1975.1465,1975.6452999999524,1974.63,1975.1464000000956,1972.363700000048,1974.6299000000956,1975.6454000000956,1976.1454000000956,1976.1454000000956,1978.8285,2183.0,1978.8285999999048,5.0,1978.8349000000956,7.0,17.0,227.0,22.0,1.0,1.2,0.3,Time
,,S46,1,女,21,anonymized,Serial_Dependence_U,2023.2.3,Win32,60.24096385542697,,,,,,1978.835200000048,323.0,7.0,1978.835299999952,323.0,,,,1982.6114000000955,1983.109700000048,1982.0935999999049,1982.6112999999525,1979.829200000048,1982.0935,1983.1097999999524,1983.6105,1983.6105999999047,1986.6582999999523,2688.0,1986.6582999999523,5.0,1986.6645,7.0,18.0,228.0,2.0,1.0,1.2,0.3,Time
,,S46,1,女,21,anonymized,Serial_Dependence_U,2023.2.3,Win32,60.24096385542697,,,,,,1986.664700000048,144.0,7.0,1986.6647999999525,144.0,,,,1990.0579000000955,1990.5574000000956,1989.5415,1990.057700000048,1987.6749000000957,1989.5412999999523,1990.5575,1991.0575999999048,1991.0575999999048,1994.2897999999525,2861.0,1994.2899000000957,5.0,1994.296200000048,7.0,19.0,229.0,20.0,1.0,0.8,0.3,Time
,,S46,1,女,21,anonymized,Serial_Dependence_U,2023.2.3,Win32,60.24096385542697,,,,,,1994.2964000000957,168.0,7.0,1994.2965,168.0,,,,1997.8889000000956,1998.3882999999523,1997.3725,1997.8887999999524,1995.3055999999049,1997.3725,1998.3882999999523,1998.8880999999049,1998.8880999999049,2002.9704000000957,3306.0,2002.9704000000957,5.0,2002.9765,7.0,20.0,230.0,11.0,1.0,1.0,0.3,Time
,,S46,1,女,21,anonymized,Serial_Dependence_U,2023.2.3,Win32,60.24096385542697,,,,,,2002.9765999999047,239.0,7.0,2002.9767999999524,239.0,,,,2006.7532999999523,2007.2519000000957,2006.252799999952,2006.7530999999049,2003.986200000048,2006.2525999999043,2007.252,2007.7530999999049,2007.753200000048,2011.884200000048,2869.0,2011.8842999999524,5.0,2011.8907999999524,7.0,21.0,231.0,12.0,1.0,1.2,0.3,Time
,,S46,1,女,21,anonymized,Serial_Dependence_U,2023.2.3,Win32,60.24096385542697,,,,,,2011.891,230.0,7.0,2011.891,230.0,,,,2015.283,2015.7820999999049,2014.7675999999049,2015.2827999999524,2012.9002999999525,2014.7670999999043,2015.7820999999049,2016.2815,2016.2815999999043,2018.1989000000956,1850.0,2018.1989000000956,5.0,2018.2055,7.0,22.0,232.0,0.0,1.0,0.8,0.3,Time
,,S46,1,女,21,anonymized,Serial_Dependence_U,2023.2.3,Win32,60.24096385542697,,,,,,2018.2057999999524,298.0,7.0,2018.2057999999524,298.0,,,,2021.7469000000956,2022.2470999999043,2021.2310999999047,2021.746599999905,2019.198700000048,2021.2309000000955,2022.2470999999043,2022.7475,2022.7475,2026.3785,3193.0,2026.3785,5.0,2026.3855,7.0,23.0,233.0,26.0,1.0,1.0,0.7,Time
,,S46,1,女,21,anonymized,Serial_Dependence_U,2023.2.3,Win32,60.24096385542697,,,,,,2026.385700000048,260.0,7.0,2026.3857999999525,260.0,,,,2030.127799999952,2030.627799999952,2029.6115999999045,2030.1277000000475,2027.3797000000477,2029.6115,2030.627799999952,2031.1275999999043,2031.1275999999043,2035.109,3348.0,2035.1090999999049,5.0,2035.115200000048,7.0,24.0,234.0,17.0,1.0,1.2,0.7,Time
,,S46,1,女,21,anonymized,Serial_Dependence_U,2023.2.3,Win32,60.24096385542697,,,,,,2035.1154000000956,206.0,7.0,2035.1155999999048,206.0,,,,2039.2759000000956,2039.7735999999047,2038.7749000000952,2039.2757999999524,2036.109299999952,2038.774700000048,2039.7735999999047,2040.2740999999048,2040.2740999999048,2043.0065,2281.0,2043.0065999999044,5.0,2043.0124000000956,7.0,25.0,235.0,24.0,1.0,1.6,0.3,Time
,,S46,1,女,21,anonymized,Serial_Dependence_U,2023.2.3,Win32,60.24096385542697,,,,,,2043.0125999999048,179.0,7.0,2043.012700000048,179.0,,,,2046.9882999999525,2047.4890999999045,2046.473,2046.988200000048,2044.007299999952,2046.473,2047.4890999999045,2047.988,2047.988,2049.354400000096,901.0,2049.354400000096,1.0,2049.3602999999525,7.0,26.0,236.0,3.0,1.0,1.4,0.3,Time
,,S46,1,女,21,anonymized,Serial_Dependence_U,2023.2.3,Win32,60.24096385542697,,,,,,2049.360599999905,261.0,7.0,2049.360599999905,261.0,,,,2052.919400000096,2053.419700000048,2052.403700000048,2052.919400000096,2050.3707999999524,2052.4035000000003,2053.419700000048,2053.9190000000003,2053.9190000000003,2056.0360999999048,1790.0,2056.0360999999048,5.0,2056.041599999905,7.0,27.0,237.0,16.0,1.0,1.0,0.7,Time
,,S46,1,女,21,anonymized,Serial_Dependence_U,2023.2.3,Win32,60.24096385542697,,,,,,2056.0417999999527,273.0,7.0,2056.041900000096,273.0,,,,2059.984700000048,2060.485099999905,2059.4840000000004,2059.9845999999047,2057.052700000048,2059.483900000096,2060.485099999905,2060.9847999999524,2060.9847999999524,2063.7490000000003,2323.0,2063.7490000000003,5.0,2063.755099999905,7.0,28.0,238.0,28.0,1.0,1.4,0.7,Time
,,S46,1,女,21,anonymized,Serial_Dependence_U,2023.2.3,Win32,60.24096385542697,,,,,,2063.7552999999525,209.0,7.0,2063.7552999999525,209.0,,,,2067.9485999999047,2068.4482999999527,2067.432,2067.9485999999047,2064.765900000096,2067.4317999999525,2068.4482999999527,2068.9475,2068.9475,2071.414,2042.0,2071.414,4.0,2071.421200000048,7.0,29.0,239.0,4.0,1.0,1.6,0.3,Time
,,S46,1,女,21,anonymized,Serial_Dependence_U,2023.2.3,Win32,60.24096385542697,,,,,,2071.421599999905,173.0,8.0,2073.796400000096,173.0,s,2.3538999998572763,,2077.746200000048,2078.244,2077.229200000048,2077.746099999905,2074.797200000048,2077.229099999905,2078.244099999905,2078.744,2078.744,2080.995099999905,1799.0,2080.995099999905,4.0,2081.0009000000955,8.0,0.0,240.0,28.0,1.0,1.4,0.7,Time
,,S46,1,女,21,anonymized,Serial_Dependence_U,2023.2.3,Win32,60.24096385542697,,,,,,2081.001099999905,286.0,8.0,2081.0020999999047,286.0,,,,2084.5435,2085.0417999999527,2084.0425,2084.5435,2082.011400000096,2084.042400000096,2085.0417999999527,2085.542200000048,2085.542200000048,2088.5242999999527,2575.0,2088.5242999999527,5.0,2088.530200000048,8.0,1.0,241.0,6.0,1.0,1.0,0.7,Time
,,S46,1,女,21,anonymized,Serial_Dependence_U,2023.2.3,Win32,60.24096385542697,,,,,,2088.530400000096,101.0,8.0,2088.5305000000003,101.0,,,,2092.0902999999525,2092.5904000000955,2091.5732999999527,2092.0902999999525,2089.5405999999048,2091.5732999999527,2092.5904000000955,2093.0904000000955,2093.0904000000955,2096.1725,2705.0,2096.172599999905,5.0,2096.179599999905,8.0,2.0,242.0,26.0,1.0,1.0,0.7,Time
,,S46,1,女,21,anonymized,Serial_Dependence_U,2023.2.3,Win32,60.24096385542697,,,,,,2096.179900000096,261.0,8.0,2096.1800000000003,261.0,,,,2100.170900000096,2100.6695999999047,2099.654200000048,2100.170700000048,2097.1885,2099.6540999999047,2100.6695999999047,2101.1695000000004,2101.1695000000004,2101.953200000048,112.0,2101.953400000096,1.0,2101.958900000096,8.0,3.0,243.0,23.0,1.0,1.4,0.3,Time
,,S46,1,女,21,anonymized,Serial_Dependence_U,2023.2.3,Win32,60.24096385542697,,,,,,2101.959099999905,178.0,8.0,2101.959099999905,178.0,,,,2105.5519000000954,2106.0517999999524,2105.036,2105.5517999999524,2102.971599999905,2105.035900000096,2106.0519000000954,2106.551700000048,2106.5517999999524,2107.101900000096,97.0,2107.101900000096,1.0,2107.1075,8.0,4.0,244.0,21.0,1.0,1.0,0.3,Time
,,S46,1,女,21,anonymized,Serial_Dependence_U,2023.2.3,Win32,60.24096385542697,,,,,,2107.107700000048,69.0,8.0,2107.107700000048,69.0,,,,2111.285099999905,2111.784200000048,2110.783400000096,2111.2850000000003,2108.1177999999527,2110.7832999999528,2111.784200000048,2112.2844000000955,2112.2844000000955,2115.1162999999524,2466.0,2115.1164000000954,5.0,2115.122900000096,8.0,5.0,245.0,4.0,1.0,1.6,0.3,Time
,,S46,1,女,21,anonymized,Serial_Dependence_U,2023.2.3,Win32,60.24096385542697,,,,,,2115.123200000048,215.0,8.0,2115.123200000048,215.0,,,,2118.514599999905,2119.014200000048,2117.999099999905,2118.5145,2116.1320999999048,2117.9990000000003,2119.014200000048,2119.513200000048,2119.5132999999523,2123.0972999999526,2830.0,2123.0972999999526,5.0,2123.1034000000955,8.0,6.0,246.0,0.0,1.0,0.8,0.3,Time
,,S46,1,女,21,anonymized,Serial_Dependence_U,2023.2.3,Win32,60.24096385542697,,,,,,2123.103700000048,304.0,8.0,2123.103799999953,304.0,,,,2127.094700000048,2127.594200000048,2126.5782999999524,2127.094700000048,2124.1130000000003,2126.578200000048,2127.5942999999525,2128.0945,2128.0945,2131.0105000000003,2339.0,2131.0105000000003,5.0,2131.016900000096,8.0,7.0,247.0,3.0,1.0,1.4,0.3,Time
,,S46,1,女,21,anonymized,Serial_Dependence_U,2023.2.3,Win32,60.24096385542697,,,,,,2131.017099999905,44.0,8.0,2131.017200000048,44.0,,,,2134.793,2135.291400000096,2134.2925999999047,2134.793,2132.027,2134.2925999999047,2135.291400000096,2135.791900000096,2135.791900000096,2137.775099999905,1496.0,2137.7752999999525,4.0,2137.7825000000003,8.0,8.0,248.0,12.0,1.0,1.2,0.3,Time
,,S46,1,女,21,anonymized,Serial_Dependence_U,2023.2.3,Win32,60.24096385542697,,,,,,2137.782700000048,137.0,8.0,2137.7827999999527,137.0,,,,2141.557099999905,2142.055900000096,2141.040400000096,2141.557099999905,2138.7749000000954,2141.040400000096,2142.055900000096,2142.556,2142.5560999999047,2145.205400000096,2355.0,2145.205400000096,5.0,2145.211400000096,8.0,9.0,249.0,22.0,1.0,1.2,0.3,Time
,,S46,1,女,21,anonymized,Serial_Dependence_U,2023.2.3,Win32,60.24096385542697,,,,,,2145.211599999905,10.0,8.0,2145.211599999905,10.0,,,,2149.355,2149.854400000096,2148.854099999905,2149.354599999905,2146.222,2148.8540000000003,2149.854400000096,2150.353,2150.3530999999048,2151.82,1053.0,2151.82,1.0,2151.825599999905,8.0,10.0,250.0,19.0,1.0,1.6,0.7,Time
,,S46,1,女,21,anonymized,Serial_Dependence_U,2023.2.3,Win32,60.24096385542697,,,,,,2151.8257999999523,340.0,8.0,2151.8257999999523,340.0,,,,2155.8185000000003,2156.318200000048,2155.302200000048,2155.8182999999526,2152.8372999999524,2155.302099999905,2156.318200000048,2156.818599999905,2156.8190000000004,2158.017200000048,715.0,2158.0172999999527,1.0,2158.023200000048,8.0,11.0,251.0,13.0,1.0,1.4,0.3,Time
,,S46,1,女,21,anonymized,Serial_Dependence_U,2023.2.3,Win32,60.24096385542697,,,,,,2158.0234000000955,176.0,8.0,2158.0235,176.0,,,,2161.5505000000003,2162.049200000048,2161.05,2161.5505000000003,2159.018599999905,2161.0499000000955,2162.0492999999524,2162.5507999999527,2162.5507999999527,2166.948200000048,3784.0,2166.9482999999527,5.0,2166.9550000000004,8.0,12.0,252.0,16.0,1.0,1.0,0.7,Time
,,S46,1,女,21,anonymized,Serial_Dependence_U,2023.2.3,Win32,60.24096385542697,,,,,,2166.9552999999523,89.0,8.0,2166.955400000096,89.0,,,,2170.9137999999525,2171.412900000096,2170.396900000096,2170.9137999999525,2167.9645,2170.396700000048,2171.412900000096,2171.913599999905,2171.913599999905,2175.528400000096,2868.0,2175.5285000000003,5.0,2175.534200000048,8.0,13.0,253.0,18.0,1.0,1.4,0.7,Time
,,S46,1,女,21,anonymized,Serial_Dependence_U,2023.2.3,Win32,60.24096385542697,,,,,,2175.5345,257.0,8.0,2175.5345,257.0,,,,2179.278400000096,2179.776400000096,2178.7774000000954,2179.2782999999527,2176.5447999999524,2178.7774000000954,2179.7765000000004,2180.2765999999046,2180.2765999999046,2183.608900000096,2890.0,2183.6090000000004,5.0,2183.614700000048,8.0,14.0,254.0,7.0,1.0,1.2,0.7,Time
,,S46,1,女,21,anonymized,Serial_Dependence_U,2023.2.3,Win32,60.24096385542697,,,,,,2183.615,336.0,8.0,2183.615,336.0,,,,2187.357599999905,2187.8570999999047,2186.841400000096,2187.3575,2184.6092999999523,2186.8412999999528,2187.857200000048,2188.357200000048,2188.357200000048,2191.0904000000955,2262.0,2191.0905,5.0,2191.096700000048,8.0,15.0,255.0,17.0,1.0,1.2,0.7,Time
,,S46,1,女,21,anonymized,Serial_Dependence_U,2023.2.3,Win32,60.24096385542697,,,,,,2191.097,139.0,8.0,2191.097,139.0,,,,2194.689200000048,2195.189099999905,2194.1735000000003,2194.6890000000003,2192.105700000048,2194.173400000096,2195.189099999905,2195.688700000048,2195.688700000048,2198.7202999999527,2527.0,2198.720400000096,5.0,2198.7262999999525,8.0,16.0,256.0,11.0,1.0,1.0,0.3,Time
,,S46,1,女,21,anonymized,Serial_Dependence_U,2023.2.3,Win32,60.24096385542697,,,,,,2198.7265,249.0,8.0,2198.7265,249.0,,,,2202.6857999999525,2203.1865000000003,2202.1702999999525,2202.6855999999048,2199.736700000048,2202.170200000048,2203.1865000000003,2203.685700000048,2203.685700000048,2204.985,813.0,2204.985099999905,1.0,2204.990900000096,8.0,17.0,257.0,8.0,1.0,1.4,0.7,Time
,,S46,1,女,21,anonymized,Serial_Dependence_U,2023.2.3,Win32,60.24096385542697,,,,,,2204.9910000000004,34.0,8.0,2204.9910000000004,34.0,,,,2208.7677999999523,2209.2664000000955,2208.250700000048,2208.767700000048,2205.985200000048,2208.250700000048,2209.2665,2209.7664000000955,2209.7664000000955,2213.3485999999048,3080.0,2213.348700000048,5.0,2213.355,8.0,18.0,258.0,2.0,1.0,1.2,0.3,Time
