Scale_setup.started,Scale_setup.stopped,participant,session,sex,age,date,expName,psychopyVersion,OS,frameRate,Intro.started,Intro.stopped,key_resp_2.keys,key_resp_2.rt,key_resp_2.duration,block.started,direction,Block_id,block.stopped,trial_direction,Block_resp_2.keys,Block_resp_2.rt,Block_resp_2.duration,ITI.started,ITI.stopped,Mask_2.started,Mask_2.stopped,encoding.started,encoding.stopped,Cue.started,Cue.stopped,Response.started,Response.stopped,keyDuration,Feedback_Time.started,FeedbackID_T,Feedback_Time.stopped,trials.thisRepN,trials.thisTrialN,trials.thisN,trials.thisIndex,trials.ran,TimeDur,Coherence1,TrialType
0.0001999999880695,0.0004999999999881,S47,1,F,22,anonymized,Serial_Dependence_U,2023.2.3,Win32,60.24096385550618,,,,,,,,,,,,,,,,,,,,,,,,,,,,,,,,,,,
,,S47,1,F,22,anonymized,Serial_Dependence_U,2023.2.3,Win32,60.24096385550618,166.6135,484.3355999999643,space,317.6926999999881,,,,,,,,,,,,,,,,,,,,,,,,,,,,,,,
,,S47,1,F,22,anonymized,Serial_Dependence_U,2023.2.3,Win32,60.24096385550618,,,,,,484.3420000000001,219.0,0.0,491.1815999999643,219.0,s,6.810100000023795,,494.9500000000001,495.4515999999643,494.43169999998815,494.9498999999762,492.18669999998815,494.4315999999643,495.45189999997626,495.9505999999643,495.95069999998816,497.75200000000007,925.0,497.75209999996434,2.0,498.7501999999881,0.0,0.0,0.0,7.0,1.0,1.2,0.7,Time
,,S47,1,F,22,anonymized,Serial_Dependence_U,2023.2.3,Win32,60.24096385550618,,,,,,498.750800000012,139.0,0.0,498.7521999999881,139.0,,,,502.50109999996425,502.9963999999762,501.99700000000007,502.5010000000001,499.7633999999762,501.9968999999762,502.9963999999762,503.4956999999881,503.4956999999881,505.6793999999762,1734.0,505.6793999999762,5.0,506.6793999999762,0.0,1.0,1.0,17.0,1.0,1.2,0.7,Time
,,S47,1,F,22,anonymized,Serial_Dependence_U,2023.2.3,Win32,60.24096385550618,,,,,,506.6796999999881,339.0,0.0,506.6798999999762,339.0,,,,510.0173999999762,510.51150000000007,509.5123999999762,510.0173000000119,507.6795000000001,509.5123000000119,510.5115999999642,511.01150000000007,511.01150000000007,512.779,1015.0,512.779,4.0,513.7783999999762,0.0,2.0,2.0,15.0,1.0,0.8,0.7,Time
,,S47,1,F,22,anonymized,Serial_Dependence_U,2023.2.3,Win32,60.24096385550618,,,,,,513.7786999999881,28.0,0.0,513.7788999999763,28.0,,,,517.9783000000119,518.4776999999881,517.4653999999762,517.9781999999881,514.7850000000001,517.465300000012,518.4776999999881,518.977300000012,518.9773999999762,521.0643000000119,1323.0,521.0643000000119,2.0,522.0605,0.0,3.0,3.0,24.0,1.0,1.6,0.3,Time
,,S47,1,F,22,anonymized,Serial_Dependence_U,2023.2.3,Win32,60.24096385550618,,,,,,522.0608999999762,244.0,0.0,522.061,244.0,,,,525.6265999999642,526.1268000000119,525.1133000000119,525.6265999999642,523.0635999999643,525.1131999999882,526.1268000000119,526.6286999999882,526.628800000012,528.5933999999762,1366.0,528.5933999999762,5.0,529.5925000000001,0.0,4.0,4.0,16.0,1.0,1.0,0.7,Time
,,S47,1,F,22,anonymized,Serial_Dependence_U,2023.2.3,Win32,60.24096385550618,,,,,,529.5928999999762,131.0,0.0,529.5930000000001,131.0,,,,533.575800000012,534.0755,533.0596999999881,533.5756999999882,530.5933000000119,533.0595000000001,534.0755999999643,534.575,534.5750999999643,536.875,1704.0,536.875,4.0,537.875800000012,0.0,5.0,5.0,3.0,1.0,1.4,0.3,Time
,,S47,1,F,22,anonymized,Serial_Dependence_U,2023.2.3,Win32,60.24096385550618,,,,,,537.8760000000001,97.0,0.0,537.8761999999881,97.0,,,,542.0415999999643,542.5408000000119,541.5246999999881,542.0415,538.8913999999762,541.5246999999881,542.5408000000119,543.0408000000119,543.0408000000119,545.4076999999882,1633.0,545.407800000012,3.0,546.4076999999882,0.0,6.0,6.0,19.0,1.0,1.6,0.7,Time
,,S47,1,F,22,anonymized,Serial_Dependence_U,2023.2.3,Win32,60.24096385550618,,,,,,546.4080999999643,313.0,0.0,546.408300000012,313.0,,,,550.5738999999762,551.0733999999762,550.062800000012,550.5738999999762,547.4238999999762,550.0626999999881,551.0733999999762,551.5733999999762,551.5733999999762,554.0061999999881,1676.0,554.0061999999881,3.0,555.0060000000001,0.0,7.0,7.0,9.0,1.0,1.6,0.7,Time
,,S47,1,F,22,anonymized,Serial_Dependence_U,2023.2.3,Win32,60.24096385550618,,,,,,555.006300000012,165.0,0.0,555.0063999999762,165.0,,,,558.755800000012,559.2560999999642,558.2411999999881,558.7556999999881,556.0061999999881,558.2411999999881,559.2560999999642,559.755300000012,559.755300000012,561.8220999999643,1319.0,561.8221999999881,4.0,562.8218999999762,0.0,8.0,8.0,27.0,1.0,1.2,0.7,Time
,,S47,1,F,22,anonymized,Serial_Dependence_U,2023.2.3,Win32,60.24096385550618,,,,,,562.8221999999881,39.0,0.0,562.822300000012,39.0,,,,566.807800000012,567.3076999999881,566.3050999999643,566.8076999999881,563.8386999999881,566.3050000000001,567.3076999999881,567.8041999999881,567.8041999999881,569.6878999999763,1377.0,569.6878999999763,3.0,570.6873999999763,0.0,9.0,9.0,23.0,1.0,1.4,0.3,Time
,,S47,1,F,22,anonymized,Serial_Dependence_U,2023.2.3,Win32,60.24096385550618,,,,,,570.6880000000001,210.0,0.0,570.6880999999643,210.0,,,,574.8705000000001,575.37,574.3568999999762,574.8703999999763,571.6898000000119,574.3568999999762,575.37,575.870800000012,575.8708999999762,577.775300000012,1400.0,577.775300000012,2.0,578.7695,0.0,10.0,10.0,4.0,1.0,1.6,0.3,Time
,,S47,1,F,22,anonymized,Serial_Dependence_U,2023.2.3,Win32,60.24096385550618,,,,,,578.7698999999762,140.0,0.0,578.7698999999762,140.0,,,,582.1363999999762,582.635800000012,581.6196999999881,582.1363000000119,579.7861999999882,581.6196999999881,582.635800000012,583.1353999999762,583.1355000000001,584.4855999999643,676.0,584.4855999999643,2.0,585.4883000000119,0.0,11.0,11.0,25.0,1.0,0.8,0.7,Time
,,S47,1,F,22,anonymized,Serial_Dependence_U,2023.2.3,Win32,60.24096385550618,,,,,,585.4886999999882,261.0,0.0,585.4888999999762,261.0,,,,589.0855999999643,589.5848999999762,588.5688999999762,589.0855,586.5065000000001,588.568800000012,589.5848999999762,590.0848999999762,590.085,592.0370999999643,1376.0,592.0371999999882,5.0,593.0343999999762,0.0,12.0,12.0,21.0,1.0,1.0,0.3,Time
,,S47,1,F,22,anonymized,Serial_Dependence_U,2023.2.3,Win32,60.24096385550618,,,,,,593.0345999999643,264.0,0.0,593.034800000012,264.0,,,,597.0173999999762,597.5173000000119,596.5040999999643,597.0171999999882,594.0380999999643,596.504,597.5173000000119,598.0170999999643,598.0170999999643,599.8048999999762,1159.0,599.8048999999762,2.0,600.8000000000001,0.0,13.0,13.0,13.0,1.0,1.4,0.3,Time
,,S47,1,F,22,anonymized,Serial_Dependence_U,2023.2.3,Win32,60.24096385550618,,,,,,600.8003999999762,280.0,0.0,600.8005,280.0,,,,604.3860999999642,604.8863999999762,603.8671999999881,604.3860000000001,601.8200999999643,603.8670999999642,604.8865000000001,605.3825,605.3825,607.4331999999881,1453.0,607.433300000012,5.0,608.4321999999881,0.0,14.0,14.0,26.0,1.0,1.0,0.7,Time
,,S47,1,F,22,anonymized,Serial_Dependence_U,2023.2.3,Win32,60.24096385550618,,,,,,608.4323999999762,174.0,0.0,608.4325,174.0,,,,612.619,613.1145999999643,612.0991999999882,612.619,609.4351999999882,612.0990999999643,613.1145999999643,613.6150999999643,613.6150999999643,615.7980999999643,1425.0,615.7980999999643,2.0,616.7983999999763,0.0,15.0,15.0,14.0,1.0,1.6,0.3,Time
,,S47,1,F,22,anonymized,Serial_Dependence_U,2023.2.3,Win32,60.24096385550618,,,,,,616.7985999999643,326.0,0.0,616.7986999999881,326.0,,,,620.7475999999643,621.2470999999642,620.231,620.7475999999643,617.798800000012,620.231,621.2470999999642,621.7470999999642,621.7470999999642,624.1490999999643,1499.0,624.1491999999881,4.0,625.1465999999643,0.0,16.0,16.0,8.0,1.0,1.4,0.7,Time
,,S47,1,F,22,anonymized,Serial_Dependence_U,2023.2.3,Win32,60.24096385550618,,,,,,625.1468999999762,17.0,0.0,625.1470999999643,17.0,,,,628.7301999999881,629.2295999999643,628.2133000000119,628.7301999999881,626.1473999999762,628.2133000000119,629.2296999999882,629.729300000012,629.729300000012,631.8798999999763,1260.0,631.8800999999643,4.0,632.879800000012,0.0,17.0,17.0,11.0,1.0,1.0,0.3,Time
,,S47,1,F,22,anonymized,Serial_Dependence_U,2023.2.3,Win32,60.24096385550618,,,,,,632.8800999999643,97.0,0.0,632.8801999999881,97.0,,,,636.2455999999643,636.745300000012,635.7288999999762,636.2455999999643,633.883800000012,635.7288000000119,636.745300000012,637.2453999999763,637.2453999999763,639.1281999999882,1045.0,639.1281999999882,5.0,640.128300000012,0.0,18.0,18.0,5.0,1.0,0.8,0.7,Time
,,S47,1,F,22,anonymized,Serial_Dependence_U,2023.2.3,Win32,60.24096385550618,,,,,,640.1285999999643,87.0,0.0,640.1286999999882,87.0,,,,643.5328999999762,644.0276999999882,643.0113999999762,643.532800000012,641.1450999999643,643.0113999999762,644.0276999999882,644.5273999999762,644.5275,646.0608999999762,916.0,646.0608999999762,4.0,647.0603999999762,0.0,19.0,19.0,0.0,1.0,0.8,0.3,Time
,,S47,1,F,22,anonymized,Serial_Dependence_U,2023.2.3,Win32,60.24096385550618,,,,,,647.060800000012,241.0,0.0,647.061,241.0,,,,650.431,650.931300000012,649.928800000012,650.431,648.0643000000119,649.9286999999881,650.9313999999762,651.4268999999762,651.4268999999762,653.293300000012,1036.0,653.2933999999763,4.0,654.293,0.0,20.0,20.0,20.0,1.0,0.8,0.3,Time
,,S47,1,F,22,anonymized,Serial_Dependence_U,2023.2.3,Win32,60.24096385550618,,,,,,654.2935,302.0,0.0,654.2936999999881,302.0,,,,657.8763999999762,658.3795999999643,657.3595999999643,657.8763999999762,655.2930999999643,657.3595999999643,658.3795999999643,658.8756999999881,658.875800000012,660.7086999999881,1038.0,660.7088000000119,3.0,661.7103999999762,0.0,21.0,21.0,1.0,1.0,1.0,0.3,Time
,,S47,1,F,22,anonymized,Serial_Dependence_U,2023.2.3,Win32,60.24096385550618,,,,,,661.7105999999643,148.0,0.0,661.7106999999882,148.0,,,,665.6748999999762,666.1745000000001,665.158300000012,665.6748999999762,662.7250999999643,665.158300000012,666.1745000000001,666.6746999999881,666.6748000000119,668.9770000000001,1536.0,668.9770000000001,4.0,669.974300000012,0.0,22.0,22.0,18.0,1.0,1.4,0.7,Time
,,S47,1,F,22,anonymized,Serial_Dependence_U,2023.2.3,Win32,60.24096385550618,,,,,,669.9745999999643,256.0,0.0,669.9746999999882,256.0,,,,673.7591999999881,674.258800000012,673.2410999999643,673.7591999999881,670.9750999999643,673.2410000000001,674.258800000012,674.7566999999881,674.7566999999881,676.9233999999763,1309.0,676.9235000000001,4.0,677.926800000012,0.0,23.0,23.0,12.0,1.0,1.2,0.3,Time
,,S47,1,F,22,anonymized,Serial_Dependence_U,2023.2.3,Win32,60.24096385550618,,,,,,677.927300000012,339.0,0.0,677.927300000012,339.0,,,,681.7083999999762,682.205800000012,681.1915,681.7083999999762,678.926300000012,681.1915,682.205800000012,682.7060999999643,682.7061999999881,684.972300000012,1407.0,684.972300000012,4.0,685.9720000000001,0.0,24.0,24.0,2.0,1.0,1.2,0.3,Time
,,S47,1,F,22,anonymized,Serial_Dependence_U,2023.2.3,Win32,60.24096385550618,,,,,,685.9723999999762,19.0,0.0,685.9725999999642,19.0,,,,690.1258999999762,690.6215000000001,689.6253999999763,690.1258999999762,686.9896999999881,689.625300000012,690.6215000000001,691.121300000012,691.121300000012,693.4733999999762,1666.0,693.4733999999762,3.0,694.4715000000001,0.0,25.0,25.0,29.0,1.0,1.6,0.7,Time
,,S47,1,F,22,anonymized,Serial_Dependence_U,2023.2.3,Win32,60.24096385550618,,,,,,694.4720000000001,225.0,0.0,694.4720999999643,225.0,,,,697.8545999999643,698.354,697.3393999999762,697.8545999999643,695.472800000012,697.3393999999762,698.3540999999643,698.8555,698.8555,700.4878999999762,947.0,700.4878999999762,4.0,701.4870999999642,0.0,26.0,26.0,10.0,1.0,0.8,0.3,Time
,,S47,1,F,22,anonymized,Serial_Dependence_U,2023.2.3,Win32,60.24096385550618,,,,,,701.4875000000001,218.0,0.0,701.4875999999642,218.0,,,,705.4368999999762,705.9375,704.9218999999762,705.4366999999882,702.4896999999881,704.9218999999762,705.9375,706.4361999999882,706.4361999999882,708.6028000000119,1488.0,708.6028999999762,4.0,709.5913999999763,0.0,27.0,27.0,28.0,1.0,1.4,0.7,Time
,,S47,1,F,22,anonymized,Serial_Dependence_U,2023.2.3,Win32,60.24096385550618,,,,,,709.591800000012,44.0,0.0,709.5918999999762,44.0,,,,713.3690999999643,713.8686999999882,712.8540999999643,713.369,710.587800000012,712.854,713.8686999999882,714.3681999999882,714.3681999999882,716.4543999999762,1334.0,716.4543999999762,4.0,717.4513999999762,0.0,28.0,28.0,22.0,1.0,1.2,0.3,Time
,,S47,1,F,22,anonymized,Serial_Dependence_U,2023.2.3,Win32,60.24096385550618,,,,,,717.4516999999881,342.0,0.0,717.4518999999763,342.0,,,,721.0025999999643,721.5036999999882,720.4848999999762,721.0025999999643,718.4526999999881,720.4848999999762,721.5036999999882,722.0008999999762,722.0008999999762,724.2010999999643,1153.0,724.2011999999881,4.0,725.2000999999643,0.0,29.0,29.0,6.0,1.0,1.0,0.7,Time
,,S47,1,F,22,anonymized,Serial_Dependence_U,2023.2.3,Win32,60.24096385550618,,,,,,725.2003999999762,91.0,1.0,729.9415999999643,91.0,s,4.707100000023843,,734.1200999999643,734.6160999999643,733.601,734.12,730.9346999999881,733.6008999999763,734.6160999999643,735.1178000000119,735.1178000000119,736.999,1162.0,736.9990999999643,2.0,737.0055000000001,1.0,0.0,30.0,14.0,1.0,1.6,0.3,Time
,,S47,1,F,22,anonymized,Serial_Dependence_U,2023.2.3,Win32,60.24096385550618,,,,,,737.0056999999881,245.0,1.0,737.006300000012,245.0,,,,740.7983999999763,741.298300000012,740.2863000000119,740.798300000012,738.017800000012,740.2861999999882,741.298300000012,741.7980999999643,741.7980999999643,743.798800000012,1242.0,743.798800000012,3.0,743.804300000012,1.0,1.0,31.0,22.0,1.0,1.2,0.3,Time
,,S47,1,F,22,anonymized,Serial_Dependence_U,2023.2.3,Win32,60.24096385550618,,,,,,743.8045000000001,333.0,1.0,743.8045999999642,333.0,,,,747.1980999999643,747.6975999999643,746.682800000012,747.1980000000001,744.8206999999882,746.682800000012,747.6975999999643,748.1975000000001,748.1975000000001,749.8160999999643,750.0,749.8160999999643,2.0,749.8215,1.0,2.0,32.0,10.0,1.0,0.8,0.3,Time
,,S47,1,F,22,anonymized,Serial_Dependence_U,2023.2.3,Win32,60.24096385550618,,,,,,749.8216999999881,251.0,1.0,749.821800000012,251.0,,,,753.813800000012,754.3135999999643,753.3038999999762,753.8136999999881,750.8311999999881,753.303800000012,754.3135999999643,754.8128999999763,754.8130000000001,756.9986999999882,1387.0,756.9986999999882,3.0,757.0048999999763,1.0,3.0,33.0,3.0,1.0,1.4,0.3,Time
,,S47,1,F,22,anonymized,Serial_Dependence_U,2023.2.3,Win32,60.24096385550618,,,,,,757.005,37.0,1.0,757.0051999999881,37.0,,,,760.3308999999762,760.8290000000001,759.8296999999882,760.3308999999762,757.9973000000119,759.8295999999643,760.8290000000001,761.3286999999881,761.3286999999881,762.9310999999643,700.0,762.9310999999643,2.0,762.9365,1.0,4.0,34.0,25.0,1.0,0.8,0.7,Time
,,S47,1,F,22,anonymized,Serial_Dependence_U,2023.2.3,Win32,60.24096385550618,,,,,,762.936800000012,270.0,1.0,762.9368999999762,270.0,,,,766.6645999999643,767.1615999999643,766.1640000000001,766.6645999999643,763.9318999999762,766.1638999999763,767.1615999999643,767.661800000012,767.661800000012,769.980300000012,1133.0,769.9803999999762,2.0,769.9860000000001,1.0,5.0,35.0,27.0,1.0,1.2,0.7,Time
,,S47,1,F,22,anonymized,Serial_Dependence_U,2023.2.3,Win32,60.24096385550618,,,,,,769.986300000012,89.0,1.0,769.986300000012,89.0,,,,774.1280999999643,774.6273000000119,773.6171999999881,774.1280999999643,770.9805,773.6170999999642,774.6273000000119,775.1306999999881,775.130800000012,777.5793999999762,1333.0,777.5795,2.0,777.5853999999762,1.0,6.0,36.0,9.0,1.0,1.6,0.7,Time
,,S47,1,F,22,anonymized,Serial_Dependence_U,2023.2.3,Win32,60.24096385550618,,,,,,777.5855999999643,101.0,1.0,777.5856999999882,101.0,,,,781.144800000012,781.6446999999881,780.628300000012,781.144800000012,778.5961999999881,780.628300000012,781.644800000012,782.1475,782.1475,784.1260999999643,1180.0,784.1260999999643,4.0,784.1315999999642,1.0,7.0,37.0,6.0,1.0,1.0,0.7,Time
,,S47,1,F,22,anonymized,Serial_Dependence_U,2023.2.3,Win32,60.24096385550618,,,,,,784.1318999999762,197.0,1.0,784.1318999999762,197.0,,,,788.2758999999762,788.7755000000001,787.7610000000001,788.2758000000119,785.1275999999643,787.7610000000001,788.7755000000001,789.275300000012,789.275300000012,791.8253999999762,1594.0,791.8255,3.0,791.832300000012,1.0,8.0,38.0,29.0,1.0,1.6,0.7,Time
,,S47,1,F,22,anonymized,Serial_Dependence_U,2023.2.3,Win32,60.24096385550618,,,,,,791.8325000000001,48.0,1.0,791.8325000000001,48.0,,,,795.7915,796.2910999999643,795.2748999999762,795.7913999999762,792.8431999999881,795.274800000012,796.2910999999643,796.791,796.7910999999643,799.0933999999762,1371.0,799.0935000000001,3.0,799.0988000000119,1.0,9.0,39.0,18.0,1.0,1.4,0.7,Time
,,S47,1,F,22,anonymized,Serial_Dependence_U,2023.2.3,Win32,60.24096385550618,,,,,,799.099,35.0,1.0,799.0990999999643,35.0,,,,803.0425,803.5400999999642,802.5275,803.0423999999762,800.0920999999643,802.5273999999762,803.5400999999642,804.0400000000001,804.0400000000001,806.2235000000001,1335.0,806.2235000000001,3.0,806.2293999999762,1.0,10.0,40.0,8.0,1.0,1.4,0.7,Time
,,S47,1,F,22,anonymized,Serial_Dependence_U,2023.2.3,Win32,60.24096385550618,,,,,,806.2295999999643,304.0,1.0,806.2296999999882,304.0,,,,809.7788999999763,810.272300000012,809.2576999999882,809.778800000012,807.2236999999882,809.2576999999882,810.272300000012,810.7731999999882,810.7731999999882,812.6065999999643,1205.0,812.6065999999643,4.0,812.6120999999642,1.0,11.0,41.0,16.0,1.0,1.0,0.7,Time
,,S47,1,F,22,anonymized,Serial_Dependence_U,2023.2.3,Win32,60.24096385550618,,,,,,812.6123999999762,208.0,1.0,812.6123999999762,208.0,,,,816.207,816.7046999999882,815.6901999999882,816.206800000012,813.6238999999762,815.6900999999643,816.7048000000119,817.2061999999881,817.2061999999881,819.6548999999762,1342.0,819.6548999999762,5.0,819.6606999999881,1.0,12.0,42.0,21.0,1.0,1.0,0.3,Time
,,S47,1,F,22,anonymized,Serial_Dependence_U,2023.2.3,Win32,60.24096385550618,,,,,,819.6608999999762,84.0,1.0,819.6610000000001,84.0,,,,823.2046999999882,823.7041999999881,822.6928999999762,823.2046999999882,820.655300000012,822.692800000012,823.7043000000119,824.2043999999762,824.2043999999762,825.9895999999643,1167.0,825.989800000012,4.0,825.995,1.0,13.0,43.0,26.0,1.0,1.0,0.7,Time
,,S47,1,F,22,anonymized,Serial_Dependence_U,2023.2.3,Win32,60.24096385550618,,,,,,825.995300000012,358.0,1.0,825.995300000012,358.0,,,,829.3875999999643,829.8868999999762,828.8705999999643,829.3875999999643,827.0041999999881,828.8705999999643,829.8870000000001,830.3863999999762,830.3863999999762,831.9553999999762,590.0,831.9553999999762,2.0,831.9615999999643,1.0,14.0,44.0,20.0,1.0,0.8,0.3,Time
,,S47,1,F,22,anonymized,Serial_Dependence_U,2023.2.3,Win32,60.24096385550618,,,,,,831.9618999999763,102.0,1.0,831.9618999999763,102.0,,,,835.3366999999881,835.8383000000119,834.8215,835.3366999999881,832.9535999999642,834.8215,835.8383000000119,836.3361999999881,836.3361999999881,838.421,1069.0,838.4210999999643,5.0,838.4265,1.0,15.0,45.0,0.0,1.0,0.8,0.3,Time
,,S47,1,F,22,anonymized,Serial_Dependence_U,2023.2.3,Win32,60.24096385550618,,,,,,838.4266999999882,33.0,1.0,838.426800000012,33.0,,,,842.5871999999881,843.0875999999643,842.0855,842.5871999999881,839.4191999999881,842.0853999999762,843.0875999999643,843.5888999999762,843.5888999999762,845.7678999999762,1080.0,845.768,1.0,845.7735,1.0,16.0,46.0,4.0,1.0,1.6,0.3,Time
,,S47,1,F,22,anonymized,Serial_Dependence_U,2023.2.3,Win32,60.24096385550618,,,,,,845.773800000012,122.0,1.0,845.7738999999762,122.0,,,,849.7708999999762,850.2670999999643,849.2568999999762,849.7708999999762,846.7888999999763,849.2568999999762,850.2671999999882,850.7668999999762,850.767,852.9171999999882,1578.0,852.9173999999762,4.0,852.923300000012,1.0,17.0,47.0,23.0,1.0,1.4,0.3,Time
,,S47,1,F,22,anonymized,Serial_Dependence_U,2023.2.3,Win32,60.24096385550618,,,,,,852.9235999999643,328.0,1.0,852.9235999999643,328.0,,,,856.7005999999643,857.202800000012,856.1853999999762,856.7005999999643,853.9175,856.1853000000119,857.202800000012,857.7030000000001,857.7030000000001,859.3688999999762,1221.0,859.3688999999762,3.0,859.3751999999881,1.0,18.0,48.0,12.0,1.0,1.2,0.3,Time
,,S47,1,F,22,anonymized,Serial_Dependence_U,2023.2.3,Win32,60.24096385550618,,,,,,859.3755000000001,182.0,1.0,859.3755999999643,182.0,,,,862.9543999999762,863.452300000012,862.4325,862.9543000000119,860.369300000012,862.4323999999762,863.452300000012,863.9521999999881,863.9521999999881,865.519800000012,741.0,865.519800000012,2.0,865.5253999999762,1.0,19.0,49.0,1.0,1.0,1.0,0.3,Time
,,S47,1,F,22,anonymized,Serial_Dependence_U,2023.2.3,Win32,60.24096385550618,,,,,,865.5255999999642,298.0,1.0,865.5256999999881,298.0,,,,869.4873999999762,869.981300000012,868.9836999999882,869.4873000000119,866.5170999999643,868.9836999999882,869.9813999999762,870.4813999999762,870.4813999999762,872.3813999999762,1283.0,872.3813999999762,2.0,872.3875999999643,1.0,20.0,50.0,13.0,1.0,1.4,0.3,Time
,,S47,1,F,22,anonymized,Serial_Dependence_U,2023.2.3,Win32,60.24096385550618,,,,,,872.3878999999762,230.0,1.0,872.3878999999762,230.0,,,,875.7313999999761,876.230800000012,875.2145000000002,875.7313000000121,873.3835,875.2145000000002,876.2308999999763,876.7320999999644,876.7320999999644,878.2666999999882,864.0,878.2666999999882,4.0,878.272,1.0,21.0,51.0,15.0,1.0,0.8,0.7,Time
,,S47,1,F,22,anonymized,Serial_Dependence_U,2023.2.3,Win32,60.24096385550618,,,,,,878.2721999999882,147.0,1.0,878.272300000012,147.0,,,,882.4493000000119,882.9493999999762,881.9315999999643,882.4491999999881,879.263699999988,881.9315999999643,882.9495000000001,883.4478000000121,883.4478000000121,885.4666999999882,1276.0,885.4666999999882,2.0,885.4725,1.0,22.0,52.0,24.0,1.0,1.6,0.3,Time
,,S47,1,F,22,anonymized,Serial_Dependence_U,2023.2.3,Win32,60.24096385550618,,,,,,885.4726999999881,189.0,1.0,885.472800000012,189.0,,,,889.214300000012,889.7120000000001,888.6978000000121,889.214300000012,886.4630000000001,888.6978000000121,889.7120000000001,890.2120999999644,890.2120999999644,891.912199999988,1228.0,891.9123000000119,3.0,891.9181999999881,1.0,23.0,53.0,17.0,1.0,1.2,0.7,Time
,,S47,1,F,22,anonymized,Serial_Dependence_U,2023.2.3,Win32,60.24096385550618,,,,,,891.9183999999763,77.0,1.0,891.9185000000001,77.0,,,,895.495,896.000800000012,894.9820000000001,895.4948999999762,892.9125,894.9818999999762,896.000800000012,896.494699999988,896.4948000000119,898.5781999999882,1361.0,898.5783000000121,5.0,898.5838999999761,1.0,24.0,54.0,11.0,1.0,1.0,0.3,Time
,,S47,1,F,22,anonymized,Serial_Dependence_U,2023.2.3,Win32,60.24096385550618,,,,,,898.5840999999642,2.0,1.0,898.5843000000119,2.0,,,,902.3628999999764,902.8605,901.861,902.362800000012,899.5960000000001,901.860800000012,902.8605999999644,903.3600999999644,903.3600999999644,904.977,1007.0,904.9770999999644,2.0,904.9828999999762,1.0,25.0,55.0,2.0,1.0,1.2,0.3,Time
,,S47,1,F,22,anonymized,Serial_Dependence_U,2023.2.3,Win32,60.24096385550618,,,,,,904.983300000012,99.0,1.0,904.983300000012,99.0,,,,908.927,909.4258999999762,908.4115999999644,908.9268999999762,905.9786999999882,908.4115999999644,909.4258999999762,909.927699999988,909.927699999988,912.0265999999644,1407.0,912.0265999999644,3.0,912.032300000012,1.0,26.0,56.0,28.0,1.0,1.4,0.7,Time
,,S47,1,F,22,anonymized,Serial_Dependence_U,2023.2.3,Win32,60.24096385550618,,,,,,912.0325,216.0,1.0,912.0325,216.0,,,,915.3605999999644,915.8588999999762,914.8595999999642,915.3605999999644,913.0263999999762,914.8595,915.8588999999762,916.3475999999642,916.3475999999642,917.927899999976,991.0,917.927899999976,4.0,917.9335,1.0,27.0,57.0,5.0,1.0,0.8,0.7,Time
,,S47,1,F,22,anonymized,Serial_Dependence_U,2023.2.3,Win32,60.24096385550618,,,,,,917.933699999988,111.0,1.0,917.933699999988,111.0,,,,921.6931999999882,922.1953999999764,921.1768999999762,921.6931999999882,918.941699999988,921.176800000012,922.1953999999764,922.6906999999882,922.6906999999882,924.4941999999882,1206.0,924.4941999999882,3.0,924.4995999999644,1.0,28.0,58.0,7.0,1.0,1.2,0.7,Time
,,S47,1,F,22,anonymized,Serial_Dependence_U,2023.2.3,Win32,60.24096385550618,,,,,,924.499800000012,357.0,1.0,924.4998999999764,357.0,,,,928.626,929.1250999999644,928.124199999988,928.626,925.4918999999762,928.1240999999642,929.1250999999644,929.626300000012,929.626300000012,932.023699999988,1476.0,932.023800000012,2.0,932.029399999976,1.0,29.0,59.0,19.0,1.0,1.6,0.7,Time
,,S47,1,F,22,anonymized,Serial_Dependence_U,2023.2.3,Win32,60.24096385550618,,,,,,932.029699999988,111.0,2.0,1150.537199999988,111.0,s,218.4743000000119,,1154.0946999999885,1154.593800000012,1153.5798000000118,1154.0945999999644,1151.532699999988,1153.579699999988,1154.593800000012,1155.093800000012,1155.0938999999762,1156.88,1143.0,1156.8800999999644,4.0,1156.885899999976,2.0,0.0,60.0,16.0,1.0,1.0,0.7,Time
,,S47,1,F,22,anonymized,Serial_Dependence_U,2023.2.3,Win32,60.24096385550618,,,,,,1156.8860999999642,153.0,2.0,1156.886800000012,153.0,,,,1161.0811999999885,1161.5760999999643,1160.562,1161.0810999999644,1157.8963000000122,1160.561899999976,1161.576199999988,1162.076199999988,1162.076300000012,1163.978300000012,1566.0,1163.978300000012,3.0,1163.9838000000118,2.0,1.0,61.0,14.0,1.0,1.6,0.3,Time
,,S47,1,F,22,anonymized,Serial_Dependence_U,2023.2.3,Win32,60.24096385550618,,,,,,1163.983899999976,49.0,2.0,1163.9840999999642,49.0,,,,1167.3610999999642,1167.8620999999644,1166.842899999976,1167.361,1164.996899999976,1166.8428000000122,1167.8620999999644,1168.358599999964,1168.358599999964,1170.1590999999644,1195.0,1170.1590999999644,5.0,1170.1645,2.0,2.0,62.0,5.0,1.0,0.8,0.7,Time
,,S47,1,F,22,anonymized,Serial_Dependence_U,2023.2.3,Win32,60.24096385550618,,,,,,1170.164599999964,80.0,2.0,1170.1648000000118,80.0,,,,1173.9253000000122,1174.4243999999762,1173.4116999999883,1173.9253000000122,1171.177300000012,1173.4116999999883,1174.4243999999762,1174.926,1174.926,1176.5458999999764,1037.0,1176.5460000000005,2.0,1176.5513999999762,2.0,3.0,63.0,7.0,1.0,1.2,0.7,Time
,,S47,1,F,22,anonymized,Serial_Dependence_U,2023.2.3,Win32,60.24096385550618,,,,,,1176.5515999999643,143.0,2.0,1176.5515999999643,143.0,,,,1180.5265999999642,1181.0271999999882,1180.0096999999882,1180.5265999999642,1177.541599999964,1180.0095,1181.027300000012,1181.5273999999763,1181.5273999999763,1183.6585999999645,1426.0,1183.658699999988,3.0,1183.6643000000122,2.0,4.0,64.0,13.0,1.0,1.4,0.3,Time
,,S47,1,F,22,anonymized,Serial_Dependence_U,2023.2.3,Win32,60.24096385550618,,,,,,1183.6645,272.0,2.0,1183.664599999964,272.0,,,,1187.043,1187.5411999999883,1186.5255999999645,1187.043,1184.6570000000002,1186.5255999999645,1187.5411999999883,1188.0435999999645,1188.0435999999645,1189.4903000000118,724.0,1189.490399999976,2.0,1189.495800000012,2.0,5.0,65.0,20.0,1.0,0.8,0.3,Time
,,S47,1,F,22,anonymized,Serial_Dependence_U,2023.2.3,Win32,60.24096385550618,,,,,,1189.4960999999644,258.0,2.0,1189.4961999999882,258.0,,,,1193.0745999999644,1193.571800000012,1192.573399999976,1193.0745000000002,1190.5078999999764,1192.5733000000118,1193.5718999999765,1194.0720999999644,1194.0720999999644,1195.6910000000005,984.0,1195.6910000000005,3.0,1195.6965,2.0,6.0,66.0,1.0,1.0,1.0,0.3,Time
,,S47,1,F,22,anonymized,Serial_Dependence_U,2023.2.3,Win32,60.24096385550618,,,,,,1195.696800000012,73.0,2.0,1195.696800000012,73.0,,,,1199.671800000012,1200.1710000000005,1199.155899999976,1199.671800000012,1196.6905000000002,1199.1558000000118,1200.1710000000005,1200.6710000000005,1200.6710000000005,1202.7725999999643,1488.0,1202.7726999999882,4.0,1202.778099999964,2.0,7.0,67.0,23.0,1.0,1.4,0.3,Time
,,S47,1,F,22,anonymized,Serial_Dependence_U,2023.2.3,Win32,60.24096385550618,,,,,,1202.778399999976,187.0,2.0,1202.778399999976,187.0,,,,1206.9205999999645,1207.4083999999762,1206.4068999999763,1206.9205000000002,1203.7750999999644,1206.406800000012,1207.4083999999762,1207.9075000000005,1207.9075000000005,1210.238699999988,1626.0,1210.238800000012,3.0,1210.2443999999764,2.0,8.0,68.0,19.0,1.0,1.6,0.7,Time
,,S47,1,F,22,anonymized,Serial_Dependence_U,2023.2.3,Win32,60.24096385550618,,,,,,1210.244699999988,241.0,2.0,1210.244699999988,241.0,,,,1213.8383000000122,1214.3358999999764,1213.3215,1213.8381999999883,1211.2538000000118,1213.3213999999762,1214.3358999999764,1214.836099999964,1214.836099999964,1216.4383999999764,976.0,1216.4383999999764,3.0,1216.4438000000118,2.0,9.0,69.0,21.0,1.0,1.0,0.3,Time
,,S47,1,F,22,anonymized,Serial_Dependence_U,2023.2.3,Win32,60.24096385550618,,,,,,1216.444,27.0,2.0,1216.444,27.0,,,,1220.219300000012,1220.718199999988,1219.7043000000122,1220.2191999999882,1217.437800000012,1219.7043000000122,1220.7183000000118,1221.2223000000122,1221.2223000000122,1223.1193999999764,1219.0,1223.1193999999764,3.0,1223.1256999999882,2.0,10.0,70.0,2.0,1.0,1.2,0.3,Time
,,S47,1,F,22,anonymized,Serial_Dependence_U,2023.2.3,Win32,60.24096385550618,,,,,,1223.1258999999764,272.0,2.0,1223.1260999999645,272.0,,,,1227.0851999999882,1227.5883000000122,1226.5698999999763,1227.085,1224.1365,1226.569800000012,1227.5883000000122,1228.084399999976,1228.0845,1230.037800000012,1326.0,1230.037800000012,2.0,1230.0431999999882,2.0,11.0,71.0,8.0,1.0,1.4,0.7,Time
,,S47,1,F,22,anonymized,Serial_Dependence_U,2023.2.3,Win32,60.24096385550618,,,,,,1230.043300000012,187.0,2.0,1230.0433999999764,187.0,,,,1233.5843000000118,1234.0845999999642,1233.069,1233.584099999964,1231.036,1233.068899999976,1234.084699999988,1234.586800000012,1234.586899999976,1236.619300000012,1234.0,1236.6193999999764,4.0,1236.624699999988,2.0,12.0,72.0,6.0,1.0,1.0,0.7,Time
,,S47,1,F,22,anonymized,Serial_Dependence_U,2023.2.3,Win32,60.24096385550618,,,,,,1236.6248999999762,43.0,2.0,1236.625,43.0,,,,1240.370800000012,1240.865699999988,1239.8680999999642,1240.370699999988,1237.635899999976,1239.8680999999642,1240.865699999988,1241.3671999999883,1241.3671999999883,1243.219300000012,1165.0,1243.219300000012,3.0,1243.224899999976,2.0,13.0,73.0,17.0,1.0,1.2,0.7,Time
,,S47,1,F,22,anonymized,Serial_Dependence_U,2023.2.3,Win32,60.24096385550618,,,,,,1243.225,241.0,2.0,1243.225199999988,241.0,,,,1247.4021999999882,1247.902,1246.883800000012,1247.4021999999882,1244.2173999999764,1246.883800000012,1247.902,1248.3995,1248.3995,1250.5500999999645,1466.0,1250.5501999999883,2.0,1250.5555,2.0,14.0,74.0,24.0,1.0,1.6,0.3,Time
,,S47,1,F,22,anonymized,Serial_Dependence_U,2023.2.3,Win32,60.24096385550618,,,,,,1250.555699999988,355.0,2.0,1250.555699999988,355.0,,,,1254.7495,1255.2488999999764,1254.232800000012,1254.749399999976,1251.5676999999882,1254.2326999999882,1255.2488999999764,1255.7475999999642,1255.7475999999642,1258.082800000012,1704.0,1258.083,4.0,1258.0895999999643,2.0,15.0,75.0,4.0,1.0,1.6,0.3,Time
,,S47,1,F,22,anonymized,Serial_Dependence_U,2023.2.3,Win32,60.24096385550618,,,,,,1258.089800000012,162.0,2.0,1258.089800000012,162.0,,,,1262.0504999999998,1262.546099999964,1261.5485,1262.0504999999998,1259.100199999988,1261.5485,1262.546099999964,1263.0465999999642,1263.046699999988,1265.0155999999645,1480.0,1265.015699999988,4.0,1265.0213000000122,2.0,16.0,76.0,28.0,1.0,1.4,0.7,Time
,,S47,1,F,22,anonymized,Serial_Dependence_U,2023.2.3,Win32,60.24096385550618,,,,,,1265.0214999999998,106.0,2.0,1265.0214999999998,106.0,,,,1269.162800000012,1269.6618999999764,1268.6475,1269.1625999999642,1266.0166999999883,1268.6475,1269.6618999999764,1270.1618999999764,1270.1618999999764,1272.1673999999762,1113.0,1272.1675,1.0,1272.173800000012,2.0,17.0,77.0,29.0,1.0,1.6,0.7,Time
,,S47,1,F,22,anonymized,Serial_Dependence_U,2023.2.3,Win32,60.24096385550618,,,,,,1272.174,251.0,2.0,1272.174199999988,251.0,,,,1276.1450999999645,1276.644699999988,1275.6303999999764,1276.145,1273.1640999999645,1275.6303999999764,1276.644800000012,1277.144800000012,1277.144800000012,1278.9443999999762,1293.0,1278.9443999999762,2.0,1278.9500000000005,2.0,18.0,78.0,3.0,1.0,1.4,0.3,Time
,,S47,1,F,22,anonymized,Serial_Dependence_U,2023.2.3,Win32,60.24096385550618,,,,,,1278.9503000000118,330.0,2.0,1278.950399999976,330.0,,,,1282.346199999988,1282.843699999988,1281.8294999999998,1282.3460999999645,1279.962800000012,1281.8293999999764,1282.843800000012,1283.343800000012,1283.343800000012,1284.7441999999885,882.0,1284.7441999999885,4.0,1284.749699999988,2.0,19.0,79.0,0.0,1.0,0.8,0.3,Time
,,S47,1,F,22,anonymized,Serial_Dependence_U,2023.2.3,Win32,60.24096385550618,,,,,,1284.7498999999762,272.0,2.0,1284.75,272.0,,,,1288.4981999999882,1288.997699999988,1287.9938999999763,1288.4981999999882,1285.750199999988,1287.993800000012,1288.997800000012,1289.4938999999763,1289.4938999999763,1291.110300000012,1167.0,1291.1103999999764,3.0,1291.1160999999645,2.0,20.0,80.0,27.0,1.0,1.2,0.7,Time
,,S47,1,F,22,anonymized,Serial_Dependence_U,2023.2.3,Win32,60.24096385550618,,,,,,1291.116300000012,27.0,2.0,1291.1163999999762,27.0,,,,1294.4933999999762,1294.9938999999763,1293.9775,1294.493300000012,1292.1135,1293.9775,1294.9938999999763,1295.493800000012,1295.493800000012,1296.811300000012,858.0,1296.811300000012,4.0,1296.816699999988,2.0,21.0,81.0,10.0,1.0,0.8,0.3,Time
,,S47,1,F,22,anonymized,Serial_Dependence_U,2023.2.3,Win32,60.24096385550618,,,,,,1296.817,105.0,2.0,1296.817,105.0,,,,1300.594300000012,1301.0925999999645,1300.0935999999642,1300.594300000012,1297.828800000012,1300.0935,1301.0925999999645,1301.5910999999642,1301.591199999988,1303.3270999999645,1150.0,1303.3270999999645,3.0,1303.332699999988,2.0,22.0,82.0,22.0,1.0,1.2,0.3,Time
,,S47,1,F,22,anonymized,Serial_Dependence_U,2023.2.3,Win32,60.24096385550618,,,,,,1303.333,312.0,2.0,1303.333,312.0,,,,1306.8760999999645,1307.3736999999885,1306.3578999999763,1306.8760999999645,1304.325199999988,1306.357800000012,1307.373800000012,1307.873800000012,1307.873800000012,1309.5115999999643,1024.0,1309.5115999999643,3.0,1309.5169999999998,2.0,23.0,83.0,26.0,1.0,1.0,0.7,Time
,,S47,1,F,22,anonymized,Serial_Dependence_U,2023.2.3,Win32,60.24096385550618,,,,,,1309.517199999988,193.0,2.0,1309.517199999988,193.0,,,,1312.873800000012,1313.3730999999643,1312.3625999999645,1312.8736999999885,1310.523899999976,1312.3625999999645,1313.3730999999643,1313.8728999999762,1313.873,1315.1918999999762,850.0,1315.1918999999762,4.0,1315.1975000000002,2.0,24.0,84.0,25.0,1.0,0.8,0.7,Time
,,S47,1,F,22,anonymized,Serial_Dependence_U,2023.2.3,Win32,60.24096385550618,,,,,,1315.1976999999883,153.0,2.0,1315.1976999999883,153.0,,,,1318.557199999988,1319.0565999999644,1318.041300000012,1318.557099999964,1316.207800000012,1318.041300000012,1319.0565999999644,1319.555800000012,1319.5558999999762,1321.039599999964,899.0,1321.039699999988,4.0,1321.045,2.0,25.0,85.0,15.0,1.0,0.8,0.7,Time
,,S47,1,F,22,anonymized,Serial_Dependence_U,2023.2.3,Win32,60.24096385550618,,,,,,1321.0451999999882,19.0,2.0,1321.0451999999882,19.0,,,,1324.822,1325.3253000000118,1324.306300000012,1324.8218999999765,1322.040300000012,1324.3061999999882,1325.3253000000118,1325.823,1325.823,1327.990899999976,1108.0,1327.991,2.0,1327.997199999988,2.0,26.0,86.0,12.0,1.0,1.2,0.3,Time
,,S47,1,F,22,anonymized,Serial_Dependence_U,2023.2.3,Win32,60.24096385550618,,,,,,1327.997399999976,342.0,2.0,1327.9975,342.0,,,,1331.572899999976,1332.070599999964,1331.0570000000002,1331.5728000000122,1328.9885,1331.056800000012,1332.070599999964,1332.5703999999764,1332.5703999999764,1334.3563000000122,1056.0,1334.356399999976,4.0,1334.361800000012,2.0,27.0,87.0,11.0,1.0,1.0,0.3,Time
,,S47,1,F,22,anonymized,Serial_Dependence_U,2023.2.3,Win32,60.24096385550618,,,,,,1334.3620999999644,69.0,2.0,1334.3620999999644,69.0,,,,1338.5203999999762,1339.020300000012,1338.0088999999762,1338.520300000012,1335.3705999999645,1338.008800000012,1339.020300000012,1339.5225999999643,1339.5225999999643,1341.5050999999644,1333.0,1341.5051999999882,2.0,1341.510899999976,2.0,28.0,88.0,9.0,1.0,1.6,0.7,Time
,,S47,1,F,22,anonymized,Serial_Dependence_U,2023.2.3,Win32,60.24096385550618,,,,,,1341.511199999988,77.0,2.0,1341.511300000012,77.0,,,,1345.438,1345.935199999988,1344.935800000012,1345.4378999999765,1342.5030000000002,1344.9356999999882,1345.935199999988,1346.4350999999642,1346.4350999999642,1348.2706999999882,1307.0,1348.2706999999882,2.0,1348.276099999964,2.0,29.0,89.0,18.0,1.0,1.4,0.7,Time
,,S47,1,F,22,anonymized,Serial_Dependence_U,2023.2.3,Win32,60.24096385550618,,,,,,1348.2763000000118,261.0,3.0,1644.0521999999885,261.0,s,295.745800000012,,1648.2133000000122,1648.7120999999645,1647.6991999999882,1648.2133000000122,1645.0503999999764,1647.6991999999882,1648.7120999999645,1649.212300000012,1649.212300000012,1651.2478999999762,1583.0,1651.248,3.0,1651.253599999964,3.0,0.0,90.0,29.0,1.0,1.6,0.7,Time
,,S47,1,F,22,anonymized,Serial_Dependence_U,2023.2.3,Win32,60.24096385550618,,,,,,1651.253899999976,356.0,3.0,1651.2545999999645,356.0,,,,1655.013699999988,1655.5113999999762,1654.497099999964,1655.0135999999643,1652.2645000000002,1654.4969999999998,1655.5113999999762,1656.011199999988,1656.011199999988,1657.580300000012,1075.0,1657.580300000012,2.0,1657.5858999999764,3.0,1.0,91.0,7.0,1.0,1.2,0.7,Time
,,S47,1,F,22,anonymized,Serial_Dependence_U,2023.2.3,Win32,60.24096385550618,,,,,,1657.5860000000002,126.0,3.0,1657.586099999964,126.0,,,,1661.1445999999642,1661.6320999999643,1660.6295999999645,1661.144399999976,1658.595199999988,1660.6295,1661.6320999999643,1662.131,1662.131,1663.7165,1067.0,1663.7165,4.0,1663.7221999999883,3.0,2.0,92.0,26.0,1.0,1.0,0.7,Time
,,S47,1,F,22,anonymized,Serial_Dependence_U,2023.2.3,Win32,60.24096385550618,,,,,,1663.7225,303.0,3.0,1663.722599999964,303.0,,,,1667.879,1668.376599999964,1667.362300000012,1667.878899999976,1664.7288999999764,1667.3621999999882,1668.376599999964,1668.8765,1668.8765,1670.809599999964,1311.0,1670.809599999964,2.0,1670.8155999999644,3.0,3.0,93.0,19.0,1.0,1.6,0.7,Time
,,S47,1,F,22,anonymized,Serial_Dependence_U,2023.2.3,Win32,60.24096385550618,,,,,,1670.815800000012,311.0,3.0,1670.8158999999764,311.0,,,,1674.411,1674.909,1673.8928999999762,1674.4108999999762,1671.828,1673.8928999999762,1674.909,1675.409,1675.4090999999644,1677.077599999964,1047.0,1677.077599999964,3.0,1677.0828999999762,3.0,4.0,94.0,1.0,1.0,1.0,0.3,Time
,,S47,1,F,22,anonymized,Serial_Dependence_U,2023.2.3,Win32,60.24096385550618,,,,,,1677.0830999999644,354.0,3.0,1677.0830999999644,354.0,,,,1680.859,1681.3578999999763,1680.343699999988,1680.858899999976,1678.0773000000115,1680.3435999999642,1681.3578999999763,1681.8576999999882,1681.857800000012,1683.625300000012,1095.0,1683.6253999999765,2.0,1683.630899999976,3.0,5.0,95.0,2.0,1.0,1.2,0.3,Time
,,S47,1,F,22,anonymized,Serial_Dependence_U,2023.2.3,Win32,60.24096385550618,,,,,,1683.631199999988,292.0,3.0,1683.631199999988,292.0,,,,1687.0271999999882,1687.5263000000118,1686.5076999999883,1687.0270999999643,1684.6415000000002,1686.5076999999883,1687.5263000000118,1688.027300000012,1688.027300000012,1689.492699999988,837.0,1689.492699999988,3.0,1689.4980999999643,3.0,6.0,96.0,0.0,1.0,0.8,0.3,Time
,,S47,1,F,22,anonymized,Serial_Dependence_U,2023.2.3,Win32,60.24096385550618,,,,,,1689.498300000012,215.0,3.0,1689.4983999999763,215.0,,,,1692.840300000012,1693.3415,1692.3271999999884,1692.8401999999885,1690.4938999999763,1692.3270999999645,1693.3415,1693.8396999999882,1693.839800000012,1695.3085999999644,900.0,1695.3086999999882,4.0,1695.314199999988,3.0,7.0,97.0,15.0,1.0,0.8,0.7,Time
,,S47,1,F,22,anonymized,Serial_Dependence_U,2023.2.3,Win32,60.24096385550618,,,,,,1695.314399999976,126.0,3.0,1695.314399999976,126.0,,,,1699.0560999999643,1699.5573000000118,1698.539899999976,1699.056,1696.306800000012,1698.539899999976,1699.5573000000118,1700.0583999999762,1700.0583999999762,1701.7055,1125.0,1701.7055,2.0,1701.711099999964,3.0,8.0,98.0,27.0,1.0,1.2,0.7,Time
,,S47,1,F,22,anonymized,Serial_Dependence_U,2023.2.3,Win32,60.24096385550618,,,,,,1701.711399999976,32.0,3.0,1701.711399999976,32.0,,,,1705.306,1705.8049999999998,1704.7905999999643,1705.3058999999762,1702.724300000012,1704.7905,1705.8049999999998,1706.3045000000002,1706.3045000000002,1706.872399999976,135.0,1706.8725,1.0,1706.8788000000118,3.0,9.0,99.0,21.0,1.0,1.0,0.3,Time
,,S47,1,F,22,anonymized,Serial_Dependence_U,2023.2.3,Win32,60.24096385550618,,,,,,1706.878899999976,218.0,3.0,1706.879,218.0,,,,1710.2580000000005,1710.7545,1709.7396999999885,1710.2578999999764,1707.8733999999763,1709.7395999999644,1710.7545999999645,1711.2583000000118,1711.2583000000118,1713.006399999976,1138.0,1713.0065,5.0,1713.0118999999763,3.0,10.0,100.0,10.0,1.0,0.8,0.3,Time
,,S47,1,F,22,anonymized,Serial_Dependence_U,2023.2.3,Win32,60.24096385550618,,,,,,1713.0120999999644,324.0,3.0,1713.0121999999883,324.0,,,,1716.354099999964,1716.8535999999644,1715.837800000012,1716.3538999999764,1714.0043999999762,1715.8376999999882,1716.8536999999883,1717.3533999999763,1717.3533999999763,1719.104099999964,1175.0,1719.104099999964,5.0,1719.109800000012,3.0,11.0,101.0,25.0,1.0,0.8,0.7,Time
,,S47,1,F,22,anonymized,Serial_Dependence_U,2023.2.3,Win32,60.24096385550618,,,,,,1719.11,283.0,3.0,1719.1100999999644,283.0,,,,1723.2545,1723.7525999999643,1722.7385,1723.2543999999762,1720.105,1722.738399999976,1723.7525999999643,1724.252800000012,1724.2528999999763,1726.1695,1296.0,1726.1695,2.0,1726.1750999999645,3.0,12.0,102.0,9.0,1.0,1.6,0.7,Time
,,S47,1,F,22,anonymized,Serial_Dependence_U,2023.2.3,Win32,60.24096385550618,,,,,,1726.1753000000122,142.0,3.0,1726.1753000000122,142.0,,,,1729.5190000000002,1730.0065,1729.0023999999762,1729.518800000012,1727.1708999999764,1729.0023999999762,1730.0065999999642,1730.501399999976,1730.501399999976,1731.9685,871.0,1731.9685999999642,4.0,1731.9741999999883,3.0,13.0,103.0,5.0,1.0,0.8,0.7,Time
,,S47,1,F,22,anonymized,Serial_Dependence_U,2023.2.3,Win32,60.24096385550618,,,,,,1731.9743999999764,169.0,3.0,1731.9745000000005,169.0,,,,1736.1515,1736.6508000000122,1735.636300000012,1736.151399999976,1732.970099999964,1735.636199999988,1736.6508000000122,1737.1505999999645,1737.1505999999645,1739.0835999999645,1307.0,1739.0835999999645,2.0,1739.0895,3.0,14.0,104.0,14.0,1.0,1.6,0.3,Time
,,S47,1,F,22,anonymized,Serial_Dependence_U,2023.2.3,Win32,60.24096385550618,,,,,,1739.089800000012,206.0,3.0,1739.0898999999763,206.0,,,,1743.0523999999764,1743.5503000000122,1742.5355999999642,1743.052300000012,1740.1011999999882,1742.5355999999642,1743.5503000000122,1744.049800000012,1744.0498999999763,1746.0500000000002,1291.0,1746.0500000000002,2.0,1746.056,3.0,15.0,105.0,8.0,1.0,1.4,0.7,Time
,,S47,1,F,22,anonymized,Serial_Dependence_U,2023.2.3,Win32,60.24096385550618,,,,,,1746.056300000012,76.0,3.0,1746.056300000012,76.0,,,,1749.434599999964,1749.9325999999642,1748.921699999988,1749.434599999964,1747.052899999976,1748.921699999988,1749.9325999999642,1750.432099999964,1750.432099999964,1751.884800000012,934.0,1751.8848999999764,4.0,1751.8915000000002,3.0,16.0,106.0,20.0,1.0,0.8,0.3,Time
,,S47,1,F,22,anonymized,Serial_Dependence_U,2023.2.3,Win32,60.24096385550618,,,,,,1751.8918000000122,242.0,3.0,1751.8918999999764,242.0,,,,1755.8335999999645,1756.3315000000002,1755.315800000012,1755.8335999999645,1752.8828999999764,1755.3156999999885,1756.3315000000002,1756.8358999999764,1756.8360000000002,1758.6673999999762,1339.0,1758.6673999999762,3.0,1758.6730000000002,3.0,17.0,107.0,28.0,1.0,1.4,0.7,Time
,,S47,1,F,22,anonymized,Serial_Dependence_U,2023.2.3,Win32,60.24096385550618,,,,,,1758.6731999999884,228.0,3.0,1758.6733000000115,228.0,,,,1762.448099999964,1762.9488999999762,1761.9310999999643,1762.448,1759.6665000000005,1761.931,1762.9488999999762,1763.447300000012,1763.447300000012,1765.363699999988,1172.0,1765.363699999988,3.0,1765.369699999988,3.0,18.0,108.0,12.0,1.0,1.2,0.3,Time
,,S47,1,F,22,anonymized,Serial_Dependence_U,2023.2.3,Win32,60.24096385550618,,,,,,1765.369899999976,148.0,3.0,1765.37,148.0,,,,1769.334699999988,1769.8305999999643,1768.8305,1769.3345999999642,1766.3670000000002,1768.8305,1769.8305999999643,1770.329899999976,1770.329899999976,1772.363199999988,1364.0,1772.363199999988,3.0,1772.369899999976,3.0,19.0,109.0,13.0,1.0,1.4,0.3,Time
,,S47,1,F,22,anonymized,Serial_Dependence_U,2023.2.3,Win32,60.24096385550618,,,,,,1772.3700999999642,304.0,3.0,1772.3700999999642,304.0,,,,1776.5645,1777.062,1776.047800000012,1776.564399999976,1773.379699999988,1776.0476999999885,1777.062,1777.5510999999642,1777.5510999999642,1779.7975,1466.0,1779.7975,2.0,1779.803199999988,3.0,20.0,110.0,4.0,1.0,1.6,0.3,Time
,,S47,1,F,22,anonymized,Serial_Dependence_U,2023.2.3,Win32,60.24096385550618,,,,,,1779.803399999976,158.0,3.0,1779.8035,158.0,,,,1783.381199999988,1783.878699999988,1782.878599999964,1783.381099999964,1780.813899999976,1782.878599999964,1783.878699999988,1784.3778999999763,1784.3778999999763,1785.7804999999998,881.0,1785.7804999999998,2.0,1785.785800000012,3.0,21.0,111.0,11.0,1.0,1.0,0.3,Time
,,S47,1,F,22,anonymized,Serial_Dependence_U,2023.2.3,Win32,60.24096385550618,,,,,,1785.7858999999762,310.0,3.0,1785.7860999999643,310.0,,,,1789.7628000000118,1790.260599999964,1789.246,1789.762699999988,1786.7800000000002,1789.246,1790.260599999964,1790.760699999988,1790.760699999988,1792.930399999976,1496.0,1792.9305,4.0,1792.936300000012,3.0,22.0,112.0,3.0,1.0,1.4,0.3,Time
,,S47,1,F,22,anonymized,Serial_Dependence_U,2023.2.3,Win32,60.24096385550618,,,,,,1792.9365000000005,326.0,3.0,1792.936599999964,326.0,,,,1796.8976999999882,1797.398300000012,1796.3785000000005,1796.8976999999882,1793.943699999988,1796.3783999999764,1797.398300000012,1797.896899999976,1797.896899999976,1799.745699999988,1561.0,1799.745800000012,4.0,1799.7515,3.0,23.0,113.0,18.0,1.0,1.4,0.7,Time
,,S47,1,F,22,anonymized,Serial_Dependence_U,2023.2.3,Win32,60.24096385550618,,,,,,1799.751699999988,207.0,3.0,1799.7518000000118,207.0,,,,1803.929,1804.429800000012,1803.412300000012,1803.928899999976,1800.7440999999644,1803.412300000012,1804.429899999976,1804.929300000012,1804.9293999999763,1807.3288999999763,1733.0,1807.329,4.0,1807.338800000012,3.0,24.0,114.0,24.0,1.0,1.6,0.3,Time
,,S47,1,F,22,anonymized,Serial_Dependence_U,2023.2.3,Win32,60.24096385550618,,,,,,1807.339199999988,164.0,3.0,1807.339399999976,164.0,,,,1810.892,1811.390899999976,1810.379099999964,1810.8918999999764,1808.3446999999885,1810.379099999964,1811.390899999976,1811.8961999999883,1811.8961999999883,1813.774699999988,1312.0,1813.774800000012,5.0,1813.783699999988,3.0,25.0,115.0,16.0,1.0,1.0,0.7,Time
,,S47,1,F,22,anonymized,Serial_Dependence_U,2023.2.3,Win32,60.24096385550618,,,,,,1813.784,311.0,3.0,1813.784199999988,311.0,,,,1817.341099999964,1817.84,1816.8240999999643,1817.341,1814.791599999964,1816.8240999999643,1817.84,1818.3401999999885,1818.3401999999885,1820.293800000012,1117.0,1820.293800000012,4.0,1820.2995,3.0,26.0,116.0,6.0,1.0,1.0,0.7,Time
,,S47,1,F,22,anonymized,Serial_Dependence_U,2023.2.3,Win32,60.24096385550618,,,,,,1820.299699999988,107.0,3.0,1820.299800000012,107.0,,,,1824.09,1824.589,1823.5763999999765,1824.0898999999763,1821.307199999988,1823.576300000012,1824.589,1825.089,1825.089,1826.776699999988,1000.0,1826.776699999988,2.0,1826.7821999999885,3.0,27.0,117.0,22.0,1.0,1.2,0.3,Time
,,S47,1,F,22,anonymized,Serial_Dependence_U,2023.2.3,Win32,60.24096385550618,,,,,,1826.7823999999764,111.0,3.0,1826.7825000000005,111.0,,,,1830.5093999999765,1831.012599999964,1830.0085,1830.509300000012,1827.775899999976,1830.008399999976,1831.012699999988,1831.5141999999885,1831.5141999999885,1833.259800000012,1237.0,1833.259800000012,3.0,1833.273800000012,3.0,28.0,118.0,17.0,1.0,1.2,0.7,Time
,,S47,1,F,22,anonymized,Serial_Dependence_U,2023.2.3,Win32,60.24096385550618,,,,,,1833.274199999988,284.0,3.0,1833.274300000012,284.0,,,,1837.274399999976,1837.7731999999885,1836.758800000012,1837.274399999976,1834.2890999999645,1836.758800000012,1837.7731999999885,1838.273300000012,1838.273300000012,1840.325399999976,1500.0,1840.325399999976,4.0,1840.3398999999763,3.0,29.0,119.0,23.0,1.0,1.4,0.3,Time
,,S47,1,F,22,anonymized,Serial_Dependence_U,2023.2.3,Win32,60.24096385550618,,,,,,1840.3403999999764,333.0,4.0,2217.414599999964,333.0,s,377.03849999999966,,2221.590599999964,2222.090099999964,2221.087699999988,2221.5905,2218.4245,2221.087599999964,2222.090199999988,2222.586699999988,2222.586699999988,2224.787099999964,1524.0,2224.787300000012,3.0,2224.793300000012,4.0,0.0,120.0,4.0,1.0,1.6,0.3,Time
,,S47,1,F,22,anonymized,Serial_Dependence_U,2023.2.3,Win32,60.24096385550618,,,,,,2224.793599999964,32.0,4.0,2224.794399999976,32.0,,,,2228.556699999988,2229.053,2228.0533000000114,2228.556599999964,2225.790099999964,2228.053099999964,2229.053,2229.562,2229.562099999964,2231.6073000000115,1317.0,2231.607399999976,4.0,2231.622,4.0,1.0,121.0,22.0,1.0,1.2,0.3,Time
,,S47,1,F,22,anonymized,Serial_Dependence_U,2023.2.3,Win32,60.24096385550618,,,,,,2231.622300000012,23.0,4.0,2231.6224999999995,23.0,,,,2235.196699999988,2235.688199999988,2234.689699999988,2235.196699999988,2232.6485,2234.689599999964,2235.688199999988,2236.1853000000115,2236.1853000000115,2238.074099999964,1200.0,2238.074099999964,4.0,2238.088199999988,4.0,2.0,122.0,6.0,1.0,1.0,0.7,Time
,,S47,1,F,22,anonymized,Serial_Dependence_U,2023.2.3,Win32,60.24096385550618,,,,,,2238.088699999988,44.0,4.0,2238.088800000012,44.0,,,,2241.838399999976,2242.3369999999995,2241.322199999988,2241.838300000012,2239.088899999976,2241.322199999988,2242.3369999999995,2242.8369999999995,2242.837199999988,2244.588300000012,1183.0,2244.588399999976,3.0,2244.593599999964,4.0,3.0,123.0,17.0,1.0,1.2,0.7,Time
,,S47,1,F,22,anonymized,Serial_Dependence_U,2023.2.3,Win32,60.24096385550618,,,,,,2244.593899999976,151.0,4.0,2244.594,151.0,,,,2247.971099999964,2248.469399999976,2247.457199999988,2247.9709999999995,2245.588099999964,2247.457199999988,2248.469399999976,2248.969800000012,2248.969800000012,2250.47,915.0,2250.470099999964,4.0,2250.483899999976,4.0,4.0,124.0,20.0,1.0,0.8,0.3,Time
,,S47,1,F,22,anonymized,Serial_Dependence_U,2023.2.3,Win32,60.24096385550618,,,,,,2250.4845,99.0,4.0,2250.484599999964,99.0,,,,2254.636399999976,2255.132599999964,2254.120099999964,2254.636399999976,2251.4875,2254.12,2255.132599999964,2255.635899999976,2255.635899999976,2257.832599999964,1479.0,2257.832699999988,2.0,2257.841599999964,4.0,5.0,125.0,29.0,1.0,1.6,0.7,Time
,,S47,1,F,22,anonymized,Serial_Dependence_U,2023.2.3,Win32,60.24096385550618,,,,,,2257.842,68.0,4.0,2257.842,68.0,,,,2261.786300000012,2262.285199999988,2261.274699999988,2261.786199999988,2258.836599999964,2261.274599999964,2262.285199999988,2262.784199999988,2262.784199999988,2264.719399999976,1400.0,2264.719399999976,3.0,2264.727599999964,4.0,6.0,126.0,28.0,1.0,1.4,0.7,Time
,,S47,1,F,22,anonymized,Serial_Dependence_U,2023.2.3,Win32,60.24096385550618,,,,,,2264.727899999976,257.0,4.0,2264.728,257.0,,,,2268.685399999976,2269.177300000012,2268.1715,2268.6853000000115,2265.736300000012,2268.1715,2269.177300000012,2269.674199999988,2269.674199999988,2271.567899999976,1433.0,2271.567899999976,3.0,2271.576099999964,4.0,7.0,127.0,18.0,1.0,1.4,0.7,Time
,,S47,1,F,22,anonymized,Serial_Dependence_U,2023.2.3,Win32,60.24096385550618,,,,,,2271.576399999976,325.0,4.0,2271.5765,325.0,,,,2275.1835,2275.679599999964,2274.666899999976,2275.1833000000115,2272.601099999964,2274.666899999976,2275.679599999964,2276.1675,2276.1675,2278.084199999988,1137.0,2278.084300000012,4.0,2278.090399999976,4.0,8.0,128.0,11.0,1.0,1.0,0.3,Time
,,S47,1,F,22,anonymized,Serial_Dependence_U,2023.2.3,Win32,60.24096385550618,,,,,,2278.090599999964,341.0,4.0,2278.090699999988,341.0,,,,2281.6633000000115,2282.162099999964,2281.150199999988,2281.663099999964,2279.099899999976,2281.150099999964,2282.162099999964,2282.662199999988,2282.662199999988,2284.4325,1150.0,2284.432599999964,4.0,2284.439199999988,4.0,9.0,129.0,26.0,1.0,1.0,0.7,Time
,,S47,1,F,22,anonymized,Serial_Dependence_U,2023.2.3,Win32,60.24096385550618,,,,,,2284.439399999976,77.0,4.0,2284.439399999976,77.0,,,,2287.784800000012,2288.279399999976,2287.2825,2287.784699999988,2285.447599999964,2287.282399999976,2288.2795,2288.7795,2288.7795,2290.195800000012,930.0,2290.195800000012,4.0,2290.204199999988,4.0,10.0,130.0,5.0,1.0,0.8,0.7,Time
,,S47,1,F,22,anonymized,Serial_Dependence_U,2023.2.3,Win32,60.24096385550618,,,,,,2290.2045,92.0,4.0,2290.204599999964,92.0,,,,2293.981599999964,2294.479399999976,2293.466,2293.981300000012,2291.199199999988,2293.465800000012,2294.479399999976,2294.985,2294.985,2296.954300000012,1139.0,2296.954300000012,2.0,2296.968099999964,4.0,11.0,131.0,12.0,1.0,1.2,0.3,Time
,,S47,1,F,22,anonymized,Serial_Dependence_U,2023.2.3,Win32,60.24096385550618,,,,,,2296.968599999964,115.0,4.0,2296.968699999988,115.0,,,,2300.337399999976,2300.827300000012,2299.814399999976,2300.337399999976,2297.98,2299.814300000012,2300.827300000012,2301.317199999988,2301.317199999988,2303.063599999964,916.0,2303.063699999988,4.0,2303.071899999976,4.0,12.0,132.0,25.0,1.0,0.8,0.7,Time
,,S47,1,F,22,anonymized,Serial_Dependence_U,2023.2.3,Win32,60.24096385550618,,,,,,2303.072199999988,130.0,4.0,2303.072300000012,130.0,,,,2306.6449999999995,2307.142300000012,2306.1435,2306.6449999999995,2304.097399999976,2306.143399999976,2307.142399999976,2307.646399999976,2307.646399999976,2309.263399999976,1084.0,2309.263599999964,4.0,2309.270399999976,4.0,13.0,133.0,16.0,1.0,1.0,0.7,Time
,,S47,1,F,22,anonymized,Serial_Dependence_U,2023.2.3,Win32,60.24096385550618,,,,,,2309.2705,4.0,4.0,2309.270599999964,4.0,,,,2312.642699999988,2313.132599999964,2312.1293000000114,2312.642599999964,2310.261599999964,2312.129099999964,2313.132599999964,2313.627699999988,2313.627699999988,2315.429300000012,1133.0,2315.429399999976,5.0,2315.438800000012,4.0,14.0,134.0,0.0,1.0,0.8,0.3,Time
,,S47,1,F,22,anonymized,Serial_Dependence_U,2023.2.3,Win32,60.24096385550618,,,,,,2315.439099999964,202.0,4.0,2315.439300000012,202.0,,,,2319.044899999976,2319.541399999976,2318.530699999988,2319.0448000000115,2316.464899999976,2318.530599999964,2319.541399999976,2320.041199999988,2320.041300000012,2321.861099999964,1119.0,2321.861199999988,4.0,2321.875599999964,4.0,15.0,135.0,1.0,1.0,1.0,0.3,Time
,,S47,1,F,22,anonymized,Serial_Dependence_U,2023.2.3,Win32,60.24096385550618,,,,,,2321.876099999964,90.0,4.0,2321.876199999988,90.0,,,,2325.2445,2325.740399999976,2324.729899999976,2325.244399999976,2322.894199999988,2324.7298000000114,2325.740399999976,2326.24,2326.24,2327.894899999976,1069.0,2327.894899999976,5.0,2327.909099999964,4.0,16.0,136.0,15.0,1.0,0.8,0.7,Time
,,S47,1,F,22,anonymized,Serial_Dependence_U,2023.2.3,Win32,60.24096385550618,,,,,,2327.9095,202.0,4.0,2327.909699999988,202.0,,,,2332.0758000000114,2332.563699999988,2331.5603000000115,2332.075699999988,2328.921300000012,2331.560199999988,2332.563800000012,2333.056300000012,2333.056399999976,2335.243699999988,1483.0,2335.243800000012,2.0,2335.252399999976,4.0,17.0,137.0,9.0,1.0,1.6,0.7,Time
,,S47,1,F,22,anonymized,Serial_Dependence_U,2023.2.3,Win32,60.24096385550618,,,,,,2335.252599999964,218.0,4.0,2335.252699999988,218.0,,,,2339.442699999988,2339.940800000012,2338.925699999988,2339.442599999964,2336.262899999976,2338.925699999988,2339.940899999976,2340.440699999988,2340.440699999988,2342.16,1183.0,2342.160199999988,2.0,2342.174399999976,4.0,18.0,138.0,14.0,1.0,1.6,0.3,Time
,,S47,1,F,22,anonymized,Serial_Dependence_U,2023.2.3,Win32,60.24096385550618,,,,,,2342.174899999976,327.0,4.0,2342.175,327.0,,,,2346.341899999976,2346.840599999964,2345.8308000000115,2346.3418000000115,2343.196199999988,2345.8305,2346.840599999964,2347.344099999964,2347.344199999988,2349.7415,1483.0,2349.7415,2.0,2349.7505,4.0,19.0,139.0,19.0,1.0,1.6,0.7,Time
,,S47,1,F,22,anonymized,Serial_Dependence_U,2023.2.3,Win32,60.24096385550618,,,,,,2349.750699999988,209.0,4.0,2349.750800000012,209.0,,,,2353.5223000000115,2354.0225,2353.006699999988,2353.522199999988,2350.742699999988,2353.006199999988,2354.0225,2354.515099999964,2354.515099999964,2356.3038000000115,1122.0,2356.3038000000115,2.0,2356.318,4.0,20.0,140.0,2.0,1.0,1.2,0.3,Time
,,S47,1,F,22,anonymized,Serial_Dependence_U,2023.2.3,Win32,60.24096385550618,,,,,,2356.318399999976,272.0,4.0,2356.318599999964,272.0,,,,2359.903199999988,2360.409300000012,2359.39,2359.903099999964,2357.323199999988,2359.389899999976,2360.409300000012,2360.902199999988,2360.902300000012,2362.523599999964,1101.0,2362.523699999988,4.0,2362.532199999988,4.0,21.0,141.0,21.0,1.0,1.0,0.3,Time
,,S47,1,F,22,anonymized,Serial_Dependence_U,2023.2.3,Win32,60.24096385550618,,,,,,2362.532399999976,226.0,4.0,2362.5325,226.0,,,,2366.5215,2367.018,2366.005699999988,2366.5215,2363.538899999976,2366.005699999988,2367.018,2367.524699999988,2367.524699999988,2369.488399999976,1467.0,2369.488399999976,3.0,2369.494699999988,4.0,22.0,142.0,3.0,1.0,1.4,0.3,Time
,,S47,1,F,22,anonymized,Serial_Dependence_U,2023.2.3,Win32,60.24096385550618,,,,,,2369.494899999976,309.0,4.0,2369.494899999976,309.0,,,,2373.2543000000114,2373.750899999976,2372.737800000012,2373.254199999988,2370.4954999999995,2372.737800000012,2373.750899999976,2374.256399999976,2374.2564999999995,2376.423199999988,1334.0,2376.423300000012,4.0,2376.4378000000115,4.0,23.0,143.0,27.0,1.0,1.2,0.7,Time
,,S47,1,F,22,anonymized,Serial_Dependence_U,2023.2.3,Win32,60.24096385550618,,,,,,2376.438300000012,157.0,4.0,2376.438399999976,157.0,,,,2379.824300000012,2380.319699999988,2379.317599999964,2379.824199999988,2377.451399999976,2379.317599999964,2380.319699999988,2380.833,2380.833,2382.55,879.0,2382.550099999964,4.0,2382.5644999999995,4.0,24.0,144.0,10.0,1.0,0.8,0.3,Time
,,S47,1,F,22,anonymized,Serial_Dependence_U,2023.2.3,Win32,60.24096385550618,,,,,,2382.564899999976,236.0,4.0,2382.565,236.0,,,,2386.553199999988,2387.051699999988,2386.037,2386.553099999964,2383.567199999988,2386.037,2387.051699999988,2387.5575,2387.557599999964,2389.702800000012,1238.0,2389.702899999976,2.0,2389.711300000012,4.0,25.0,145.0,13.0,1.0,1.4,0.3,Time
,,S47,1,F,22,anonymized,Serial_Dependence_U,2023.2.3,Win32,60.24096385550618,,,,,,2389.711599999964,298.0,4.0,2389.711699999988,298.0,,,,2393.888099999964,2394.387300000012,2393.386599999964,2393.888,2390.7188000000115,2393.386599999964,2394.387300000012,2394.881300000012,2394.881399999976,2397.0983000000115,1676.0,2397.0983000000115,3.0,2397.1135,4.0,26.0,146.0,24.0,1.0,1.6,0.3,Time
,,S47,1,F,22,anonymized,Serial_Dependence_U,2023.2.3,Win32,60.24096385550618,,,,,,2397.114,75.0,4.0,2397.114099999964,75.0,,,,2401.086199999988,2401.58,2400.567800000012,2401.086099999964,2398.1345,2400.567800000012,2401.58,2402.0868000000114,2402.0868000000114,2403.985800000012,1401.0,2403.985800000012,3.0,2403.999599999964,4.0,27.0,147.0,8.0,1.0,1.4,0.7,Time
,,S47,1,F,22,anonymized,Serial_Dependence_U,2023.2.3,Win32,60.24096385550618,,,,,,2403.999899999976,257.0,4.0,2403.9999999999995,257.0,,,,2407.767099999964,2408.265300000012,2407.250199999988,2407.767099999964,2405.0055,2407.250099999964,2408.265300000012,2408.755699999988,2408.755800000012,2410.600899999976,1234.0,2410.600899999976,3.0,2410.609199999988,4.0,28.0,148.0,7.0,1.0,1.2,0.7,Time
,,S47,1,F,22,anonymized,Serial_Dependence_U,2023.2.3,Win32,60.24096385550618,,,,,,2410.609599999964,311.0,4.0,2410.609599999964,311.0,,,,2414.587699999988,2415.084899999976,2414.083599999964,2414.587599999964,2411.619099999964,2414.083599999964,2415.085,2415.581,2415.581,2417.482800000012,1417.0,2417.482899999976,3.0,2417.491399999976,4.0,29.0,149.0,23.0,1.0,1.4,0.3,Time
,,S47,1,F,22,anonymized,Serial_Dependence_U,2023.2.3,Win32,60.24096385550618,,,,,,2417.491699999988,70.0,5.0,2662.135199999988,70.0,s,244.61980000001225,,2665.8993000000114,2666.395800000012,2665.396199999988,2665.8993000000114,2663.132399999976,2665.396099999964,2666.395800000012,2666.902699999988,2666.902699999988,2668.583,1267.0,2668.583,4.0,2668.588300000012,5.0,0.0,150.0,2.0,1.0,1.2,0.3,Time
,,S47,1,F,22,anonymized,Serial_Dependence_U,2023.2.3,Win32,60.24096385550618,,,,,,2668.5885,336.0,5.0,2668.589199999988,336.0,,,,2671.9374999999995,2672.430599999964,2671.426599999964,2671.937399999976,2669.581899999976,2671.426599999964,2672.430699999988,2672.935699999988,2672.935699999988,2674.416899999976,993.0,2674.416899999976,4.0,2674.4308000000115,5.0,1.0,151.0,25.0,1.0,0.8,0.7,Time
,,S47,1,F,22,anonymized,Serial_Dependence_U,2023.2.3,Win32,60.24096385550618,,,,,,2674.431199999988,170.0,5.0,2674.431399999976,170.0,,,,2677.964800000012,2678.463,2677.462099999964,2677.964800000012,2675.428899999976,2677.4618000000114,2678.463,2678.963,2678.963,2680.415099999964,950.0,2680.415099999964,2.0,2680.4288000000115,5.0,2.0,152.0,16.0,1.0,1.0,0.7,Time
,,S47,1,F,22,anonymized,Serial_Dependence_U,2023.2.3,Win32,60.24096385550618,,,,,,2680.429199999988,45.0,5.0,2680.429399999976,45.0,,,,2684.379599999964,2684.876599999964,2683.878800000012,2684.3795,2681.444199999988,2683.878699999988,2684.876599999964,2685.376399999976,2685.376399999976,2687.326800000012,1294.0,2687.326899999976,2.0,2687.340599999964,5.0,3.0,153.0,8.0,1.0,1.4,0.7,Time
,,S47,1,F,22,anonymized,Serial_Dependence_U,2023.2.3,Win32,60.24096385550618,,,,,,2687.340899999976,21.0,5.0,2687.341099999964,21.0,,,,2691.0965,2691.594699999988,2690.589199999988,2691.0965,2688.346699999988,2690.589099999964,2691.594699999988,2692.094599999964,2692.094699999988,2693.782,1186.0,2693.782099999964,3.0,2693.790599999964,5.0,4.0,154.0,17.0,1.0,1.2,0.7,Time
,,S47,1,F,22,anonymized,Serial_Dependence_U,2023.2.3,Win32,60.24096385550618,,,,,,2693.790800000012,351.0,5.0,2693.791,351.0,,,,2697.195599999964,2697.696899999976,2696.6784999999995,2697.1955,2694.8123000000114,2696.678399999976,2697.696899999976,2698.1939999999995,2698.194099999964,2699.631099999964,916.0,2699.631099999964,4.0,2699.6449999999995,5.0,5.0,155.0,10.0,1.0,0.8,0.3,Time
,,S47,1,F,22,anonymized,Serial_Dependence_U,2023.2.3,Win32,60.24096385550618,,,,,,2699.645399999976,37.0,5.0,2699.6455,37.0,,,,2703.815399999976,2704.310199999988,2703.311099999964,2703.815300000012,2700.661699999988,2703.310899999976,2704.310199999988,2704.813599999964,2704.813599999964,2706.9283000000114,1400.0,2706.9284999999995,2.0,2706.937,5.0,6.0,156.0,9.0,1.0,1.6,0.7,Time
,,S47,1,F,22,anonymized,Serial_Dependence_U,2023.2.3,Win32,60.24096385550618,,,,,,2706.9373000000114,190.0,5.0,2706.9373000000114,190.0,,,,2711.1118000000115,2711.61,2710.599,2711.1118000000115,2707.928,2710.598899999976,2711.61,2712.1095,2712.1095,2714.4145,1650.0,2714.4145,3.0,2714.4235,5.0,7.0,157.0,14.0,1.0,1.6,0.3,Time
,,S47,1,F,22,anonymized,Serial_Dependence_U,2023.2.3,Win32,60.24096385550618,,,,,,2714.423800000012,97.0,5.0,2714.423899999976,97.0,,,,2718.025899999976,2718.521800000012,2717.509099999964,2718.025800000012,2715.429099999964,2717.509099999964,2718.521800000012,2719.022,2719.022,2720.7768000000115,1184.0,2720.776899999976,4.0,2720.791199999988,5.0,8.0,158.0,21.0,1.0,1.0,0.3,Time
,,S47,1,F,22,anonymized,Serial_Dependence_U,2023.2.3,Win32,60.24096385550618,,,,,,2720.791699999988,305.0,5.0,2720.792,305.0,,,,2724.791199999988,2725.287300000012,2724.275899999976,2724.791199999988,2721.809099999964,2724.275899999976,2725.287300000012,2725.790599999964,2725.790599999964,2727.541,1300.0,2727.541099999964,2.0,2727.548199999988,5.0,9.0,159.0,3.0,1.0,1.4,0.3,Time
,,S47,1,F,22,anonymized,Serial_Dependence_U,2023.2.3,Win32,60.24096385550618,,,,,,2727.548599999964,311.0,5.0,2727.548800000012,311.0,,,,2731.1008000000115,2731.589899999976,2730.593300000012,2731.1008000000115,2728.557899999976,2730.593199999988,2731.589899999976,2732.087099999964,2732.087099999964,2733.824099999964,1188.0,2733.824199999988,4.0,2733.838399999976,5.0,10.0,160.0,26.0,1.0,1.0,0.7,Time
,,S47,1,F,22,anonymized,Serial_Dependence_U,2023.2.3,Win32,60.24096385550618,,,,,,2733.838899999976,234.0,5.0,2733.8389999999995,234.0,,,,2737.787,2738.277300000012,2737.273699999988,2737.786899999976,2734.840099999964,2737.2735,2738.277300000012,2738.769899999976,2738.769899999976,2740.94,1499.0,2740.940099999964,4.0,2740.948899999976,5.0,11.0,161.0,18.0,1.0,1.4,0.7,Time
,,S47,1,F,22,anonymized,Serial_Dependence_U,2023.2.3,Win32,60.24096385550618,,,,,,2740.949099999964,209.0,5.0,2740.949199999988,209.0,,,,2745.137599999964,2745.642399999976,2744.637,2745.137599999964,2741.969199999988,2744.636699999988,2745.6425,2746.147800000012,2746.147800000012,2748.1694999999995,1446.0,2748.1694999999995,2.0,2748.183399999976,5.0,12.0,162.0,4.0,1.0,1.6,0.3,Time
,,S47,1,F,22,anonymized,Serial_Dependence_U,2023.2.3,Win32,60.24096385550618,,,,,,2748.183800000012,52.0,5.0,2748.184,52.0,,,,2752.1743000000115,2752.6678000000115,2751.672399999976,2752.174199999988,2749.193699999988,2751.6723000000115,2752.6678000000115,2753.173,2753.173,2754.837800000012,1088.0,2754.837800000012,2.0,2754.846599999964,5.0,13.0,163.0,23.0,1.0,1.4,0.3,Time
,,S47,1,F,22,anonymized,Serial_Dependence_U,2023.2.3,Win32,60.24096385550618,,,,,,2754.846899999976,33.0,5.0,2754.847,33.0,,,,2758.438300000012,2758.939399999976,2757.921,2758.438300000012,2755.875599999964,2757.920800000012,2758.939399999976,2759.439199999988,2759.439199999988,2761.200599999964,1157.0,2761.200599999964,4.0,2761.209899999976,5.0,14.0,164.0,6.0,1.0,1.0,0.7,Time
,,S47,1,F,22,anonymized,Serial_Dependence_U,2023.2.3,Win32,60.24096385550618,,,,,,2761.210199999988,318.0,5.0,2761.210300000012,318.0,,,,2765.153899999976,2765.658899999976,2764.65,2765.153699999988,2762.208300000012,2764.65,2765.658899999976,2766.156699999988,2766.156800000012,2768.3355,1590.0,2768.335599999964,4.0,2768.344,5.0,15.0,165.0,28.0,1.0,1.4,0.7,Time
,,S47,1,F,22,anonymized,Serial_Dependence_U,2023.2.3,Win32,60.24096385550618,,,,,,2768.344300000012,22.0,5.0,2768.344399999976,22.0,,,,2772.5205,2773.024899999976,2772.001699999988,2772.5205,2769.354099999964,2772.001599999964,2773.024899999976,2773.515399999976,2773.5154999999995,2775.685699999988,1466.0,2775.685699999988,2.0,2775.694399999976,5.0,16.0,166.0,29.0,1.0,1.6,0.7,Time
,,S47,1,F,22,anonymized,Serial_Dependence_U,2023.2.3,Win32,60.24096385550618,,,,,,2775.694699999988,190.0,5.0,2775.694800000012,190.0,,,,2779.467199999988,2779.9639999999995,2778.951099999964,2779.467199999988,2776.705599999964,2778.951,2779.9639999999995,2780.4664999999995,2780.4664999999995,2782.101199999988,1066.0,2782.101300000012,2.0,2782.1095,5.0,17.0,167.0,7.0,1.0,1.2,0.7,Time
,,S47,1,F,22,anonymized,Serial_Dependence_U,2023.2.3,Win32,60.24096385550618,,,,,,2782.109899999976,263.0,5.0,2782.11,263.0,,,,2786.313199999988,2786.813,2785.801,2786.313199999988,2783.133699999988,2785.800899999976,2786.813099999964,2787.314699999988,2787.3148000000115,2789.4055,1272.0,2789.405599999964,2.0,2789.42,5.0,18.0,168.0,24.0,1.0,1.6,0.3,Time
,,S47,1,F,22,anonymized,Serial_Dependence_U,2023.2.3,Win32,60.24096385550618,,,,,,2789.420300000012,275.0,5.0,2789.420399999976,275.0,,,,2793.200699999988,2793.704699999988,2792.682099999964,2793.200699999988,2790.4205,2792.682099999964,2793.704699999988,2794.2005,2794.2005,2795.546,961.0,2795.546099999964,2.0,2795.554599999964,5.0,19.0,169.0,22.0,1.0,1.2,0.3,Time
,,S47,1,F,22,anonymized,Serial_Dependence_U,2023.2.3,Win32,60.24096385550618,,,,,,2795.555,97.0,5.0,2795.555,97.0,,,,2799.132199999988,2799.627599999964,2798.617399999976,2799.132099999964,2796.547599999964,2798.617300000012,2799.627599999964,2800.127699999988,2800.127899999976,2801.279699999988,697.0,2801.279800000012,1.0,2801.293800000012,5.0,20.0,170.0,11.0,1.0,1.0,0.3,Time
,,S47,1,F,22,anonymized,Serial_Dependence_U,2023.2.3,Win32,60.24096385550618,,,,,,2801.294300000012,158.0,5.0,2801.2944999999995,158.0,,,,2804.666300000012,2805.160599999964,2804.164899999976,2804.666199999988,2802.295300000012,2804.164800000012,2805.160699999988,2805.660300000012,2805.660399999976,2806.896199999988,760.0,2806.896300000012,2.0,2806.9083000000114,5.0,21.0,171.0,0.0,1.0,0.8,0.3,Time
,,S47,1,F,22,anonymized,Serial_Dependence_U,2023.2.3,Win32,60.24096385550618,,,,,,2806.908599999964,280.0,5.0,2806.908699999988,280.0,,,,2810.7164999999995,2811.213599999964,2810.197199999988,2810.716399999976,2807.934199999988,2810.197099999964,2811.213699999988,2811.716899999976,2811.717,2813.447300000012,1249.0,2813.447300000012,3.0,2813.462599999964,5.0,22.0,172.0,12.0,1.0,1.2,0.3,Time
,,S47,1,F,22,anonymized,Serial_Dependence_U,2023.2.3,Win32,60.24096385550618,,,,,,2813.463,63.0,5.0,2813.463099999964,63.0,,,,2816.809699999988,2817.312,2816.301,2816.8095,2814.462199999988,2816.301,2817.312,2817.809,2817.809099999964,2818.996899999976,786.0,2818.997,3.0,2819.005399999976,5.0,23.0,173.0,15.0,1.0,0.8,0.7,Time
,,S47,1,F,22,anonymized,Serial_Dependence_U,2023.2.3,Win32,60.24096385550618,,,,,,2819.005699999988,279.0,5.0,2819.005800000012,279.0,,,,2822.404099999964,2822.901599999964,2821.879199999988,2822.4039999999995,2820.017699999988,2821.879199999988,2822.901599999964,2823.394399999976,2823.394399999976,2824.896599999964,767.0,2824.896599999964,3.0,2824.904899999976,5.0,24.0,174.0,20.0,1.0,0.8,0.3,Time
,,S47,1,F,22,anonymized,Serial_Dependence_U,2023.2.3,Win32,60.24096385550618,,,,,,2824.905199999988,358.0,5.0,2824.905300000012,358.0,,,,2828.2478000000115,2828.746599999964,2827.745,2828.2478000000115,2825.911399999976,2827.744899999976,2828.746599999964,2829.245199999988,2829.245199999988,2830.394800000012,750.0,2830.394899999976,2.0,2830.403,5.0,25.0,175.0,5.0,1.0,0.8,0.7,Time
,,S47,1,F,22,anonymized,Serial_Dependence_U,2023.2.3,Win32,60.24096385550618,,,,,,2830.403300000012,16.0,5.0,2830.403399999976,16.0,,,,2834.141199999988,2834.639899999976,2833.627800000012,2834.141099999964,2831.3945,2833.627699999988,2834.64,2835.145899999976,2835.145899999976,2836.957,1247.0,2836.957099999964,3.0,2836.970699999988,5.0,26.0,176.0,27.0,1.0,1.2,0.7,Time
,,S47,1,F,22,anonymized,Serial_Dependence_U,2023.2.3,Win32,60.24096385550618,,,,,,2836.971199999988,71.0,5.0,2836.9713000000115,71.0,,,,2841.1105,2841.611,2840.609699999988,2841.110399999976,2837.976699999988,2840.609599999964,2841.611,2842.110899999976,2842.111,2844.061,1433.0,2844.061099999964,2.0,2844.069800000012,5.0,27.0,177.0,19.0,1.0,1.6,0.7,Time
,,S47,1,F,22,anonymized,Serial_Dependence_U,2023.2.3,Win32,60.24096385550618,,,,,,2844.070099999964,302.0,5.0,2844.070199999988,302.0,,,,2847.644199999988,2848.137899999976,2847.141899999976,2847.644099999964,2845.0755,2847.141800000012,2848.138,2848.637899999976,2848.637899999976,2849.9715,1042.0,2849.971599999964,3.0,2849.9774999999995,5.0,28.0,178.0,1.0,1.0,1.0,0.3,Time
,,S47,1,F,22,anonymized,Serial_Dependence_U,2023.2.3,Win32,60.24096385550618,,,,,,2849.977699999988,137.0,5.0,2849.9778000000115,137.0,,,,2853.9605,2854.462899999976,2853.455099999964,2853.960399999976,2850.991899999976,2853.455099999964,2854.462899999976,2854.955,2854.955,2856.6915,1344.0,2856.6915,3.0,2856.700099999964,5.0,29.0,179.0,13.0,1.0,1.4,0.3,Time
,,S47,1,F,22,anonymized,Serial_Dependence_U,2023.2.3,Win32,60.24096385550618,,,,,,2856.700399999976,197.0,6.0,2950.6395,197.0,s,93.90980000001218,,2954.379,2954.880800000012,2953.878399999976,2954.379,2951.6455,2953.878300000012,2954.880899999976,2955.377899999976,2955.377899999976,2957.012399999976,1250.0,2957.0125,3.0,2957.021099999964,6.0,0.0,180.0,7.0,1.0,1.2,0.7,Time
,,S47,1,F,22,anonymized,Serial_Dependence_U,2023.2.3,Win32,60.24096385550618,,,,,,2957.0215,103.0,6.0,2957.022800000012,103.0,,,,2961.0275,2961.525,2960.511099999964,2961.0275,2958.044399999976,2960.5109999999995,2961.525,2962.023099999964,2962.023099999964,2964.173099999964,1292.0,2964.173199999988,2.0,2964.181099999964,6.0,1.0,181.0,23.0,1.0,1.4,0.3,Time
,,S47,1,F,22,anonymized,Serial_Dependence_U,2023.2.3,Win32,60.24096385550618,,,,,,2964.181300000012,331.0,6.0,2964.1815,331.0,,,,2967.522699999988,2968.010699999988,2967.011099999964,2967.522599999964,2965.177,2967.011099999964,2968.010699999988,2968.505599999964,2968.505699999988,2969.875699999988,816.0,2969.875699999988,3.0,2969.881599999964,6.0,2.0,182.0,5.0,1.0,0.8,0.7,Time
,,S47,1,F,22,anonymized,Serial_Dependence_U,2023.2.3,Win32,60.24096385550618,,,,,,2969.8818000000115,311.0,6.0,2969.8818000000115,311.0,,,,2973.842699999988,2974.341099999964,2973.339399999976,2973.842599999964,2970.875199999988,2973.339399999976,2974.341199999988,2974.840899999976,2974.840899999976,2976.909800000012,1368.0,2976.909800000012,3.0,2976.918399999976,6.0,3.0,183.0,3.0,1.0,1.4,0.3,Time
,,S47,1,F,22,anonymized,Serial_Dependence_U,2023.2.3,Win32,60.24096385550618,,,,,,2976.918599999964,300.0,6.0,2976.918699999988,300.0,,,,2980.494800000012,2980.996199999988,2979.981800000012,2980.494800000012,2977.915599999964,2979.981699999988,2980.996199999988,2981.490099999964,2981.490199999988,2983.2543000000114,862.0,2983.254399999976,2.0,2983.262800000012,6.0,4.0,184.0,1.0,1.0,1.0,0.3,Time
,,S47,1,F,22,anonymized,Serial_Dependence_U,2023.2.3,Win32,60.24096385550618,,,,,,2983.263099999964,219.0,6.0,2983.263099999964,219.0,,,,2987.259399999976,2987.759199999988,2986.742599999964,2987.259399999976,2984.271300000012,2986.7425,2987.759199999988,2988.253300000012,2988.253399999976,2989.741599999964,1084.0,2989.741699999988,2.0,2989.7498000000114,6.0,5.0,185.0,13.0,1.0,1.4,0.3,Time
,,S47,1,F,22,anonymized,Serial_Dependence_U,2023.2.3,Win32,60.24096385550618,,,,,,2989.750099999964,129.0,6.0,2989.750199999988,129.0,,,,2993.520099999964,2994.021099999964,2993.007899999976,2993.520099999964,2990.7615,2993.007800000012,2994.021099999964,2994.522099999964,2994.522099999964,2996.485699999988,1094.0,2996.485899999976,2.0,2996.4998000000114,6.0,6.0,186.0,27.0,1.0,1.2,0.7,Time
,,S47,1,F,22,anonymized,Serial_Dependence_U,2023.2.3,Win32,60.24096385550618,,,,,,2996.500099999964,67.0,6.0,2996.5003000000115,67.0,,,,3000.670300000012,3001.173399999976,3000.169699999988,3000.670199999988,2997.507199999988,3000.169399999976,3001.173399999976,3001.6715,3001.6715,3003.844899999976,1622.0,3003.845,3.0,3003.859399999976,6.0,7.0,187.0,4.0,1.0,1.6,0.3,Time
,,S47,1,F,22,anonymized,Serial_Dependence_U,2023.2.3,Win32,60.24096385550618,,,,,,3003.859899999976,280.0,6.0,3003.86,280.0,,,,3007.218099999964,3007.719899999976,3006.706599999964,3007.218,3004.858800000012,3006.706599999964,3007.719899999976,3008.220300000012,3008.220399999976,3009.855800000012,885.0,3009.855899999976,4.0,3009.864099999964,6.0,8.0,188.0,15.0,1.0,0.8,0.7,Time
,,S47,1,F,22,anonymized,Serial_Dependence_U,2023.2.3,Win32,60.24096385550618,,,,,,3009.864300000012,313.0,6.0,3009.864399999976,313.0,,,,3013.437199999988,3013.940800000012,3012.9345,3013.437099999964,3010.867199999988,3012.934300000012,3013.940800000012,3014.432699999988,3014.4328000000114,3016.5225,1335.0,3016.5225,5.0,3016.5365,6.0,9.0,189.0,21.0,1.0,1.0,0.3,Time
,,S47,1,F,22,anonymized,Serial_Dependence_U,2023.2.3,Win32,60.24096385550618,,,,,,3016.536899999976,172.0,6.0,3016.537099999964,172.0,,,,3020.327,3020.819599999964,3019.819399999976,3020.326899999976,3017.552399999976,3019.819399999976,3020.819699999988,3021.322699999988,3021.322899999976,3023.053399999976,1200.0,3023.053399999976,3.0,3023.062,6.0,10.0,190.0,12.0,1.0,1.2,0.3,Time
,,S47,1,F,22,anonymized,Serial_Dependence_U,2023.2.3,Win32,60.24096385550618,,,,,,3023.0623000000114,331.0,6.0,3023.0623000000114,331.0,,,,3026.618399999976,3027.117599999964,3026.1048000000114,3026.618399999976,3024.0685,3026.1048000000114,3027.117599999964,3027.617300000012,3027.617300000012,3029.251800000012,1133.0,3029.251800000012,4.0,3029.257899999976,6.0,11.0,191.0,6.0,1.0,1.0,0.7,Time
,,S47,1,F,22,anonymized,Serial_Dependence_U,2023.2.3,Win32,60.24096385550618,,,,,,3029.258,318.0,6.0,3029.258199999988,318.0,,,,3032.626300000012,3033.124399999976,3032.121300000012,3032.626300000012,3030.251599999964,3032.121199999988,3033.1245,3033.614199999988,3033.614300000012,3035.0309999999995,819.0,3035.031099999964,3.0,3035.040199999988,6.0,12.0,192.0,20.0,1.0,0.8,0.3,Time
,,S47,1,F,22,anonymized,Serial_Dependence_U,2023.2.3,Win32,60.24096385550618,,,,,,3035.0405,223.0,6.0,3035.040599999964,223.0,,,,3038.391,3038.880599999964,3037.884,3038.390899999976,3036.050800000012,3037.883899999976,3038.880599999964,3039.380300000012,3039.380300000012,3040.529599999964,699.0,3040.529599999964,2.0,3040.538,6.0,13.0,193.0,25.0,1.0,0.8,0.7,Time
,,S47,1,F,22,anonymized,Serial_Dependence_U,2023.2.3,Win32,60.24096385550618,,,,,,3040.538399999976,256.0,6.0,3040.538399999976,256.0,,,,3044.7205,3045.215099999964,3044.200199999988,3044.720399999976,3041.554099999964,3044.200199999988,3045.215099999964,3045.719899999976,3045.72,3048.213199999988,1506.0,3048.213199999988,2.0,3048.228300000012,6.0,14.0,194.0,9.0,1.0,1.6,0.7,Time
,,S47,1,F,22,anonymized,Serial_Dependence_U,2023.2.3,Win32,60.24096385550618,,,,,,3048.228899999976,210.0,6.0,3048.229099999964,210.0,,,,3051.823099999964,3052.3115,3051.299099999964,3051.823099999964,3049.230599999964,3051.299099999964,3052.3115,3052.811800000012,3052.811899999976,3054.167099999964,806.0,3054.167199999988,2.0,3054.181,6.0,15.0,195.0,11.0,1.0,1.0,0.3,Time
,,S47,1,F,22,anonymized,Serial_Dependence_U,2023.2.3,Win32,60.24096385550618,,,,,,3054.181399999976,120.0,6.0,3054.181599999964,120.0,,,,3057.599199999988,3058.094300000012,3057.084699999988,3057.599199999988,3055.207099999964,3057.0845,3058.094399999976,3058.598099999964,3058.598099999964,3060.064699999988,766.0,3060.064899999976,3.0,3060.073099999964,6.0,16.0,196.0,10.0,1.0,0.8,0.3,Time
,,S47,1,F,22,anonymized,Serial_Dependence_U,2023.2.3,Win32,60.24096385550618,,,,,,3060.073399999976,153.0,6.0,3060.073599999964,153.0,,,,3064.2789999999995,3064.776899999976,3063.775399999976,3064.2789999999995,3061.097199999988,3063.775300000012,3064.777,3065.2793000000115,3065.2793000000115,3067.431800000012,1444.0,3067.431899999976,2.0,3067.446599999964,6.0,17.0,197.0,24.0,1.0,1.6,0.3,Time
,,S47,1,F,22,anonymized,Serial_Dependence_U,2023.2.3,Win32,60.24096385550618,,,,,,3067.447,233.0,6.0,3067.447099999964,233.0,,,,3071.229199999988,3071.7253000000114,3070.713199999988,3071.229199999988,3068.447,3070.713099999964,3071.7253000000114,3072.2253000000114,3072.225399999976,3074.015899999976,924.0,3074.016,2.0,3074.029800000012,6.0,18.0,198.0,2.0,1.0,1.2,0.3,Time
,,S47,1,F,22,anonymized,Serial_Dependence_U,2023.2.3,Win32,60.24096385550618,,,,,,3074.030199999988,116.0,6.0,3074.030399999976,116.0,,,,3077.9803000000115,3078.482099999964,3077.466399999976,3077.980199999988,3075.033599999964,3077.466399999976,3078.482099999964,3078.9778000000115,3078.977899999976,3080.967699999988,1255.0,3080.967800000012,2.0,3080.976199999988,6.0,19.0,199.0,28.0,1.0,1.4,0.7,Time
,,S47,1,F,22,anonymized,Serial_Dependence_U,2023.2.3,Win32,60.24096385550618,,,,,,3080.9765,284.0,6.0,3080.976599999964,284.0,,,,3084.5109999999995,3085.012699999988,3084.007899999976,3084.510800000012,3081.976199999988,3084.007699999988,3085.012800000012,3085.5068000000115,3085.5068000000115,3087.344699999988,1284.0,3087.344699999988,4.0,3087.350099999964,6.0,20.0,200.0,16.0,1.0,1.0,0.7,Time
,,S47,1,F,22,anonymized,Serial_Dependence_U,2023.2.3,Win32,60.24096385550618,,,,,,3087.3503000000114,17.0,6.0,3087.350399999976,17.0,,,,3090.710199999988,3091.2065,3090.209599999964,3090.710099999964,3088.343699999988,3090.209599999964,3091.2065,3091.693800000012,3091.693800000012,3092.8099999999995,732.0,3092.810099999964,2.0,3092.819199999988,6.0,21.0,201.0,0.0,1.0,0.8,0.3,Time
,,S47,1,F,22,anonymized,Serial_Dependence_U,2023.2.3,Win32,60.24096385550618,,,,,,3092.819399999976,193.0,6.0,3092.819599999964,193.0,,,,3096.3793000000114,3096.872099999964,3095.8585,3096.3793000000114,3093.8234999999995,3095.8585,3096.872099999964,3097.372,3097.372,3098.806099999964,804.0,3098.806099999964,2.0,3098.8135,6.0,22.0,202.0,26.0,1.0,1.0,0.7,Time
,,S47,1,F,22,anonymized,Serial_Dependence_U,2023.2.3,Win32,60.24096385550618,,,,,,3098.813800000012,356.0,6.0,3098.813899999976,356.0,,,,3102.542,3103.0378000000114,3102.0415,3102.541899999976,3099.8083000000115,3102.0415,3103.0378000000114,3103.540899999976,3103.540899999976,3105.2744999999995,1049.0,3105.2744999999995,2.0,3105.28,6.0,23.0,203.0,17.0,1.0,1.2,0.7,Time
,,S47,1,F,22,anonymized,Serial_Dependence_U,2023.2.3,Win32,60.24096385550618,,,,,,3105.280199999988,133.0,6.0,3105.280300000012,133.0,,,,3109.057300000012,3109.5545,3108.540699999988,3109.057300000012,3106.274399999976,3108.540599999964,3109.554599999964,3110.0534999999995,3110.0534999999995,3111.795800000012,1200.0,3111.795899999976,3.0,3111.805199999988,6.0,24.0,204.0,22.0,1.0,1.2,0.3,Time
,,S47,1,F,22,anonymized,Serial_Dependence_U,2023.2.3,Win32,60.24096385550618,,,,,,3111.8054999999995,63.0,6.0,3111.805599999964,63.0,,,,3115.975199999988,3116.469800000012,3115.457199999988,3115.975199999988,3112.821099999964,3115.457199999988,3116.469800000012,3116.972099999964,3116.972199999988,3119.1905,1608.0,3119.190699999988,3.0,3119.199099999964,6.0,25.0,205.0,19.0,1.0,1.6,0.7,Time
,,S47,1,F,22,anonymized,Serial_Dependence_U,2023.2.3,Win32,60.24096385550618,,,,,,3119.199300000012,16.0,6.0,3119.199399999976,16.0,,,,3123.3625,3123.852,3122.861199999988,3123.362399999976,3120.207,3122.861199999988,3123.852,3124.352,3124.352,3126.406800000012,1518.0,3126.406800000012,2.0,3126.421,6.0,26.0,206.0,29.0,1.0,1.6,0.7,Time
,,S47,1,F,22,anonymized,Serial_Dependence_U,2023.2.3,Win32,60.24096385550618,,,,,,3126.421399999976,204.0,6.0,3126.4215,204.0,,,,3130.6215,3131.1179999999995,3130.109899999976,3130.621399999976,3127.4365,3130.1098000000115,3131.1179999999995,3131.6175,3131.6175,3133.505300000012,1404.0,3133.505300000012,2.0,3133.513699999988,6.0,27.0,207.0,14.0,1.0,1.6,0.3,Time
,,S47,1,F,22,anonymized,Serial_Dependence_U,2023.2.3,Win32,60.24096385550618,,,,,,3133.514,268.0,6.0,3133.514099999964,268.0,,,,3137.490599999964,3137.991699999988,3136.9705,3137.4905,3134.520399999976,3136.970399999976,3137.991699999988,3138.485899999976,3138.486,3140.600199999988,1350.0,3140.6003000000114,3.0,3140.615300000012,6.0,28.0,208.0,8.0,1.0,1.4,0.7,Time
,,S47,1,F,22,anonymized,Serial_Dependence_U,2023.2.3,Win32,60.24096385550618,,,,,,3140.615699999988,150.0,6.0,3140.6158000000114,150.0,,,,3144.553,3145.050899999976,3144.051899999976,3144.553,3141.619899999976,3144.051800000012,3145.050899999976,3145.548800000012,3145.548899999976,3147.417399999976,1347.0,3147.417399999976,3.0,3147.422699999988,6.0,29.0,209.0,18.0,1.0,1.4,0.7,Time
,,S47,1,F,22,anonymized,Serial_Dependence_U,2023.2.3,Win32,60.24096385550618,,,,,,3147.422899999976,304.0,7.0,3397.990300000012,304.0,s,250.54949999999965,,3401.550899999976,3402.048599999964,3401.033099999964,3401.550899999976,3399.001599999964,3401.033,3402.048699999988,3402.551,3402.551099999964,3404.5185,1401.0,3404.518599999964,5.0,3404.523899999976,7.0,0.0,210.0,16.0,1.0,1.0,0.7,Time
,,S47,1,F,22,anonymized,Serial_Dependence_U,2023.2.3,Win32,60.24096385550618,,,,,,3404.524099999964,286.0,7.0,3404.525399999976,286.0,,,,3408.716399999976,3409.216199999988,3408.200300000012,3408.716399999976,3405.532099999964,3408.200300000012,3409.216199999988,3409.7164999999995,3409.7164999999995,3411.8475,1526.0,3411.847599999964,3.0,3411.853099999964,7.0,1.0,211.0,24.0,1.0,1.6,0.3,Time
,,S47,1,F,22,anonymized,Serial_Dependence_U,2023.2.3,Win32,60.24096385550618,,,,,,3411.853300000012,23.0,7.0,3411.853399999976,23.0,,,,3415.231199999988,3415.730699999988,3414.718099999964,3415.231199999988,3412.8483000000115,3414.718099999964,3415.730699999988,3416.230199999988,3416.2303000000115,3417.633199999988,900.0,3417.633199999988,4.0,3417.638699999988,7.0,2.0,212.0,10.0,1.0,0.8,0.3,Time
,,S47,1,F,22,anonymized,Serial_Dependence_U,2023.2.3,Win32,60.24096385550618,,,,,,3417.638899999976,261.0,7.0,3417.639099999964,261.0,,,,3421.7985,3422.295699999988,3421.2965,3421.798399999976,3418.632899999976,3421.296399999976,3422.295699999988,3422.797599999964,3422.797599999964,3424.782800000012,1299.0,3424.782899999976,2.0,3424.788800000012,7.0,3.0,213.0,14.0,1.0,1.6,0.3,Time
,,S47,1,F,22,anonymized,Serial_Dependence_U,2023.2.3,Win32,60.24096385550618,,,,,,3424.789,332.0,7.0,3424.789099999964,332.0,,,,3428.580899999976,3429.079099999964,3428.065599999964,3428.580899999976,3425.796300000012,3428.065599999964,3429.079099999964,3429.581,3429.581,3431.111699999988,1113.0,3431.111699999988,2.0,3431.118099999964,7.0,4.0,214.0,2.0,1.0,1.2,0.3,Time
,,S47,1,F,22,anonymized,Serial_Dependence_U,2023.2.3,Win32,60.24096385550618,,,,,,3431.1183000000115,313.0,7.0,3431.118399999976,313.0,,,,3435.049699999988,3435.5444999999995,3434.5468000000114,3435.049699999988,3432.113699999988,3434.5468000000114,3435.5444999999995,3436.045899999976,3436.045899999976,3437.878399999976,1326.0,3437.878599999964,2.0,3437.884199999988,7.0,5.0,215.0,18.0,1.0,1.4,0.7,Time
,,S47,1,F,22,anonymized,Serial_Dependence_U,2023.2.3,Win32,60.24096385550618,,,,,,3437.8843000000115,96.0,7.0,3437.884399999976,96.0,,,,3441.245899999976,3441.7435,3440.7298000000114,3441.245899999976,3438.880699999988,3440.7298000000114,3441.7435,3442.244399999976,3442.244399999976,3443.645899999976,817.0,3443.646,3.0,3443.651399999976,7.0,6.0,216.0,25.0,1.0,0.8,0.7,Time
,,S47,1,F,22,anonymized,Serial_Dependence_U,2023.2.3,Win32,60.24096385550618,,,,,,3443.6514999999995,217.0,7.0,3443.651599999964,217.0,,,,3447.21,3447.711899999976,3446.6935,3447.209899999976,3444.645899999976,3446.693399999976,3447.711899999976,3448.209,3448.209,3449.895199999988,933.0,3449.895199999988,2.0,3449.9005,7.0,7.0,217.0,26.0,1.0,1.0,0.7,Time
,,S47,1,F,22,anonymized,Serial_Dependence_U,2023.2.3,Win32,60.24096385550618,,,,,,3449.900800000012,30.0,7.0,3449.900899999976,30.0,,,,3453.663199999988,3454.1588000000115,3453.1445,3453.663099999964,3450.8955,3453.144399999976,3454.158899999976,3454.6588000000115,3454.6588000000115,3456.411300000012,1244.0,3456.411399999976,3.0,3456.417,7.0,8.0,218.0,7.0,1.0,1.2,0.7,Time
,,S47,1,F,22,anonymized,Serial_Dependence_U,2023.2.3,Win32,60.24096385550618,,,,,,3456.4173000000114,45.0,7.0,3456.4173000000114,45.0,,,,3460.543699999988,3461.042699999988,3460.041599999964,3460.543699999988,3457.410399999976,3460.0415,3461.042699999988,3461.544199999988,3461.544199999988,3463.3075,1311.0,3463.3075,2.0,3463.313599999964,7.0,9.0,219.0,19.0,1.0,1.6,0.7,Time
,,S47,1,F,22,anonymized,Serial_Dependence_U,2023.2.3,Win32,60.24096385550618,,,,,,3463.313800000012,53.0,7.0,3463.313899999976,53.0,,,,3466.691,3467.193399999976,3466.176,3466.690800000012,3464.308099999964,3466.176,3467.193399999976,3467.692699999988,3467.692699999988,3469.457,1237.0,3469.457099999964,5.0,3469.4625,7.0,10.0,220.0,20.0,1.0,0.8,0.3,Time
,,S47,1,F,22,anonymized,Serial_Dependence_U,2023.2.3,Win32,60.24096385550618,,,,,,3469.462800000012,123.0,7.0,3469.462899999976,123.0,,,,3473.439599999964,3473.939199999988,3472.926899999976,3473.4394999999995,3470.457099999964,3472.926899999976,3473.939300000012,3474.438800000012,3474.438800000012,3476.122300000012,1196.0,3476.122300000012,2.0,3476.127899999976,7.0,11.0,221.0,13.0,1.0,1.4,0.3,Time
,,S47,1,F,22,anonymized,Serial_Dependence_U,2023.2.3,Win32,60.24096385550618,,,,,,3476.128,280.0,7.0,3476.128199999988,280.0,,,,3480.288899999976,3480.7883000000115,3479.774099999964,3480.288899999976,3477.139800000012,3479.774,3480.788399999976,3481.2885,3481.288599999964,3483.138199999988,1341.0,3483.138199999988,2.0,3483.144599999964,7.0,12.0,222.0,29.0,1.0,1.6,0.7,Time
,,S47,1,F,22,anonymized,Serial_Dependence_U,2023.2.3,Win32,60.24096385550618,,,,,,3483.144699999988,91.0,7.0,3483.144899999976,91.0,,,,3487.091599999964,3487.5893000000115,3486.590800000012,3487.0914999999995,3484.156699999988,3486.590599999964,3487.5893000000115,3488.091199999988,3488.091199999988,3489.803899999976,1294.0,3489.804,2.0,3489.809599999964,7.0,13.0,223.0,8.0,1.0,1.4,0.7,Time
,,S47,1,F,22,anonymized,Serial_Dependence_U,2023.2.3,Win32,60.24096385550618,,,,,,3489.809800000012,151.0,7.0,3489.809800000012,151.0,,,,3493.541300000012,3494.040199999988,3493.0399999999995,3493.541300000012,3490.804699999988,3493.039899999976,3494.040199999988,3494.536399999976,3494.5365,3496.236599999964,1089.0,3496.2368000000115,2.0,3496.242800000012,7.0,14.0,224.0,17.0,1.0,1.2,0.7,Time
,,S47,1,F,22,anonymized,Serial_Dependence_U,2023.2.3,Win32,60.24096385550618,,,,,,3496.2429999999995,117.0,7.0,3496.243099999964,117.0,,,,3500.186800000012,3500.686199999988,3499.671699999988,3500.186800000012,3497.24,3499.671699999988,3500.686199999988,3501.185599999964,3501.185699999988,3502.638399999976,906.0,3502.6385,1.0,3502.644199999988,7.0,15.0,225.0,28.0,1.0,1.4,0.7,Time
,,S47,1,F,22,anonymized,Serial_Dependence_U,2023.2.3,Win32,60.24096385550618,,,,,,3502.644300000012,74.0,7.0,3502.644399999976,74.0,,,,3505.987,3506.486699999988,3505.471199999988,3505.987,3503.638,3505.4709999999995,3506.486699999988,3506.989300000012,3506.989300000012,3508.668699999988,1115.0,3508.668800000012,5.0,3508.674399999976,7.0,16.0,226.0,15.0,1.0,0.8,0.7,Time
,,S47,1,F,22,anonymized,Serial_Dependence_U,2023.2.3,Win32,60.24096385550618,,,,,,3508.674599999964,200.0,7.0,3508.674599999964,200.0,,,,3512.802800000012,3513.300699999988,3512.301199999988,3512.802800000012,3509.668399999976,3512.301,3513.300699999988,3513.800899999976,3513.800899999976,3515.718099999964,1435.0,3515.718099999964,2.0,3515.7235,7.0,17.0,227.0,9.0,1.0,1.6,0.7,Time
,,S47,1,F,22,anonymized,Serial_Dependence_U,2023.2.3,Win32,60.24096385550618,,,,,,3515.723699999988,273.0,7.0,3515.723899999976,273.0,,,,3519.087199999988,3519.583399999976,3518.584300000012,3519.087199999988,3516.721699999988,3518.584199999988,3519.583399999976,3520.083099999964,3520.083099999964,3521.4505,824.0,3521.450599999964,3.0,3521.456199999988,7.0,18.0,228.0,0.0,1.0,0.8,0.3,Time
,,S47,1,F,22,anonymized,Serial_Dependence_U,2023.2.3,Win32,60.24096385550618,,,,,,3521.4565,217.0,7.0,3521.456599999964,217.0,,,,3525.184599999964,3525.682599999964,3524.682699999988,3525.1845,3522.451899999976,3524.682699999988,3525.682699999988,3526.182399999976,3526.1825,3527.685599999964,1029.0,3527.685599999964,2.0,3527.691099999964,7.0,19.0,229.0,27.0,1.0,1.2,0.7,Time
,,S47,1,F,22,anonymized,Serial_Dependence_U,2023.2.3,Win32,60.24096385550618,,,,,,3527.691399999976,197.0,7.0,3527.691399999976,197.0,,,,3531.465699999988,3531.965099999964,3530.951899999976,3531.465599999964,3528.682699999988,3530.951899999976,3531.965099999964,3532.464699999988,3532.464699999988,3533.965,972.0,3533.965099999964,2.0,3533.970699999988,7.0,20.0,230.0,12.0,1.0,1.2,0.3,Time
,,S47,1,F,22,anonymized,Serial_Dependence_U,2023.2.3,Win32,60.24096385550618,,,,,,3533.970899999976,217.0,7.0,3533.9709999999995,217.0,,,,3537.551899999976,3538.0505,3537.033699999988,3537.551899999976,3534.965399999976,3537.033599999964,3538.0505,3538.5493000000115,3538.549399999976,3540.166899999976,923.0,3540.166899999976,2.0,3540.172199999988,7.0,21.0,231.0,11.0,1.0,1.0,0.3,Time
,,S47,1,F,22,anonymized,Serial_Dependence_U,2023.2.3,Win32,60.24096385550618,,,,,,3540.1725,209.0,7.0,3540.1725,209.0,,,,3543.748800000012,3544.246800000012,3543.231199999988,3543.748699999988,3541.165800000012,3543.231099999964,3544.246800000012,3544.746699999988,3544.746800000012,3546.7825,1130.0,3546.782599999964,4.0,3546.787899999976,7.0,22.0,232.0,1.0,1.0,1.0,0.3,Time
,,S47,1,F,22,anonymized,Serial_Dependence_U,2023.2.3,Win32,60.24096385550618,,,,,,3546.788199999988,70.0,7.0,3546.7883000000115,70.0,,,,3550.563199999988,3551.062399999976,3550.048199999988,3550.563099999964,3547.781699999988,3550.048099999964,3551.062399999976,3551.562099999964,3551.562199999988,3553.265,1091.0,3553.265,2.0,3553.270699999988,7.0,23.0,233.0,22.0,1.0,1.2,0.3,Time
,,S47,1,F,22,anonymized,Serial_Dependence_U,2023.2.3,Win32,60.24096385550618,,,,,,3553.270899999976,54.0,7.0,3553.271,54.0,,,,3557.445699999988,3557.944800000012,3556.9308000000115,3557.445599999964,3554.263,3556.9308000000115,3557.944899999976,3558.444599999964,3558.444699999988,3560.611599999964,1599.0,3560.611699999988,3.0,3560.617399999976,7.0,24.0,234.0,4.0,1.0,1.6,0.3,Time
,,S47,1,F,22,anonymized,Serial_Dependence_U,2023.2.3,Win32,60.24096385550618,,,,,,3560.617699999988,21.0,7.0,3560.617800000012,21.0,,,,3564.597,3565.094300000012,3564.096699999988,3564.597,3561.628599999964,3564.0965,3565.094399999976,3565.597899999976,3565.5979999999995,3567.643800000012,1447.0,3567.643800000012,3.0,3567.649599999964,7.0,25.0,235.0,23.0,1.0,1.4,0.3,Time
,,S47,1,F,22,anonymized,Serial_Dependence_U,2023.2.3,Win32,60.24096385550618,,,,,,3567.6498000000115,59.0,7.0,3567.649899999976,59.0,,,,3571.243899999976,3571.7429999999995,3570.728699999988,3571.243800000012,3568.662300000012,3570.728699999988,3571.7429999999995,3572.248599999964,3572.248599999964,3573.859699999988,1097.0,3573.859699999988,4.0,3573.865199999988,7.0,26.0,236.0,21.0,1.0,1.0,0.3,Time
,,S47,1,F,22,anonymized,Serial_Dependence_U,2023.2.3,Win32,60.24096385550618,,,,,,3573.865399999976,262.0,7.0,3573.8655,262.0,,,,3577.429,3577.931399999976,3576.909800000012,3577.428899999976,3574.8638000000115,3576.909699999988,3577.931399999976,3578.429699999988,3578.429699999988,3580.008899999976,1125.0,3580.009,4.0,3580.015199999988,7.0,27.0,237.0,6.0,1.0,1.0,0.7,Time
,,S47,1,F,22,anonymized,Serial_Dependence_U,2023.2.3,Win32,60.24096385550618,,,,,,3580.0154999999995,301.0,7.0,3580.015599999964,301.0,,,,3583.3605,3583.8598000000115,3582.842099999964,3583.360399999976,3581.008599999964,3582.842099999964,3583.8598000000115,3584.358599999964,3584.358699999988,3585.743899999976,893.0,3585.743899999976,4.0,3585.749300000012,7.0,28.0,238.0,5.0,1.0,0.8,0.7,Time
,,S47,1,F,22,anonymized,Serial_Dependence_U,2023.2.3,Win32,60.24096385550618,,,,,,3585.7495,14.0,7.0,3585.7495,14.0,,,,3589.741399999976,3590.2405,3589.23,3589.7413000000115,3586.758199999988,3589.23,3590.2405,3590.7415,3590.741599999964,3592.940599999964,1497.0,3592.940699999988,4.0,3592.946899999976,7.0,29.0,239.0,3.0,1.0,1.4,0.3,Time
,,S47,1,F,22,anonymized,Serial_Dependence_U,2023.2.3,Win32,60.24096385550618,,,,,,3592.947099999964,96.0,8.0,4028.439099999964,96.0,s,435.46349999999984,,4032.582599999964,4033.072300000012,4032.071699999988,4032.5825,4029.435899999976,4032.071699999988,4033.072300000012,4033.565899999976,4033.566099999964,4035.4851999999873,1455.0,4035.4851999999873,2.0,4035.490699999988,8.0,0.0,240.0,9.0,1.0,1.6,0.7,Time
,,S47,1,F,22,anonymized,Serial_Dependence_U,2023.2.3,Win32,60.24096385550618,,,,,,4035.491,80.0,8.0,4035.491800000012,80.0,,,,4039.417300000012,4039.914899999976,4038.915699999988,4039.417099999964,4036.4825,4038.915599999964,4039.914899999976,4040.415,4040.415099999964,4042.215199999988,1353.0,4042.215300000012,3.0,4042.220899999976,8.0,1.0,241.0,28.0,1.0,1.4,0.7,Time
,,S47,1,F,22,anonymized,Serial_Dependence_U,2023.2.3,Win32,60.24096385550618,,,,,,4042.221099999964,264.0,8.0,4042.221199999988,264.0,,,,4045.567,4046.065800000011,4045.0645,4045.567,4043.233399999976,4045.064399999976,4046.065800000011,4046.563899999976,4046.564,4048.0971999999874,914.0,4048.0973000000113,4.0,4048.102699999988,8.0,2.0,242.0,25.0,1.0,0.8,0.7,Time
,,S47,1,F,22,anonymized,Serial_Dependence_U,2023.2.3,Win32,60.24096385550618,,,,,,4048.102899999976,104.0,8.0,4048.103,104.0,,,,4051.6816999999874,4052.18,4051.164,4051.6816999999874,4049.100800000012,4051.163899999976,4052.180099999964,4052.679899999976,4052.679899999976,4054.083899999976,915.0,4054.083899999976,2.0,4054.089300000012,8.0,3.0,243.0,21.0,1.0,1.0,0.3,Time
,,S47,1,F,22,anonymized,Serial_Dependence_U,2023.2.3,Win32,60.24096385550618,,,,,,4054.0895,298.0,8.0,4054.089599999964,298.0,,,,4057.464699999988,4057.962800000012,4056.948399999976,4057.464699999988,4055.081899999976,4056.948199999988,4057.962899999976,4058.4645,4058.4645,4059.915,886.0,4059.915,4.0,4059.920699999988,8.0,4.0,244.0,20.0,1.0,0.8,0.3,Time
,,S47,1,F,22,anonymized,Serial_Dependence_U,2023.2.3,Win32,60.24096385550618,,,,,,4059.920899999976,189.0,8.0,4059.921,189.0,,,,4063.462800000012,4063.961800000012,4062.949,4063.462699999988,4060.9148000000114,4062.949,4063.961800000012,4064.4631999999874,4064.4631999999874,4065.944899999976,1045.0,4065.945,3.0,4065.951300000012,8.0,5.0,245.0,6.0,1.0,1.0,0.7,Time
,,S47,1,F,22,anonymized,Serial_Dependence_U,2023.2.3,Win32,60.24096385550618,,,,,,4065.951599999964,146.0,8.0,4065.951599999964,146.0,,,,4069.312,4069.810899999976,4068.796699999988,4069.311699999988,4066.9615,4068.796699999988,4069.810899999976,4070.312599999964,4070.312599999964,4071.663899999976,844.0,4071.664,4.0,4071.6693000000114,8.0,6.0,246.0,5.0,1.0,0.8,0.7,Time
,,S47,1,F,22,anonymized,Serial_Dependence_U,2023.2.3,Win32,60.24096385550618,,,,,,4071.669399999976,245.0,8.0,4071.6695,245.0,,,,4075.627699999988,4076.1281999999874,4075.1124999999993,4075.627699999988,4072.663199999988,4075.1124999999993,4076.128300000011,4076.627800000012,4076.627800000012,4078.662599999964,1432.0,4078.662699999988,3.0,4078.668099999965,8.0,7.0,247.0,18.0,1.0,1.4,0.7,Time
,,S47,1,F,22,anonymized,Serial_Dependence_U,2023.2.3,Win32,60.24096385550618,,,,,,4078.668300000011,114.0,8.0,4078.668300000011,114.0,,,,4082.648300000012,4083.1423000000113,4082.127,4082.648199999988,4079.6605,4082.127,4083.1423000000113,4083.642399999976,4083.642399999976,4085.359399999976,1205.0,4085.3595,2.0,4085.3655,8.0,8.0,248.0,23.0,1.0,1.4,0.3,Time
,,S47,1,F,22,anonymized,Serial_Dependence_U,2023.2.3,Win32,60.24096385550618,,,,,,4085.365699999988,288.0,8.0,4085.3658000000114,288.0,,,,4089.127800000012,4089.625,4088.6108000000113,4089.127800000012,4086.377300000012,4088.610699999987,4089.625099999964,4090.125099999964,4090.125199999988,4091.725,1129.0,4091.725099999964,2.0,4091.731,8.0,9.0,249.0,7.0,1.0,1.2,0.7,Time
,,S47,1,F,22,anonymized,Serial_Dependence_U,2023.2.3,Win32,60.24096385550618,,,,,,4091.731099999964,195.0,8.0,4091.731199999987,195.0,,,,4095.476699999987,4095.974399999976,4094.961300000012,4095.4765,4092.727,4094.961300000012,4095.974399999976,4096.479399999976,4096.479399999976,4098.041300000012,1118.0,4098.041499999999,2.0,4098.047099999964,8.0,10.0,250.0,17.0,1.0,1.2,0.7,Time
,,S47,1,F,22,anonymized,Serial_Dependence_U,2023.2.3,Win32,60.24096385550618,,,,,,4098.047399999976,352.0,8.0,4098.047399999976,352.0,,,,4101.809099999964,4102.306599999964,4101.292199999988,4101.809099999964,4099.057599999964,4101.292199999988,4102.306599999964,4102.806599999964,4102.806599999964,4104.356699999988,1070.0,4104.356800000011,2.0,4104.362899999976,8.0,11.0,251.0,27.0,1.0,1.2,0.7,Time
,,S47,1,F,22,anonymized,Serial_Dependence_U,2023.2.3,Win32,60.24096385550618,,,,,,4104.363099999964,157.0,8.0,4104.363199999988,157.0,,,,4107.928599999964,4108.428300000011,4107.408800000012,4107.928599999964,4105.360399999976,4107.408800000012,4108.428300000011,4108.922399999976,4108.922399999976,4110.422399999976,1053.0,4110.4225,4.0,4110.4285,8.0,12.0,252.0,26.0,1.0,1.0,0.7,Time
,,S47,1,F,22,anonymized,Serial_Dependence_U,2023.2.3,Win32,60.24096385550618,,,,,,4110.428699999988,45.0,8.0,4110.428699999988,45.0,,,,4114.573599999964,4115.074300000012,4114.057599999964,4114.573599999964,4111.422800000011,4114.0575,4115.074399999976,4115.576,4115.576,4117.407800000012,1260.0,4117.407800000012,2.0,4117.4145,8.0,13.0,253.0,19.0,1.0,1.6,0.7,Time
,,S47,1,F,22,anonymized,Serial_Dependence_U,2023.2.3,Win32,60.24096385550618,,,,,,4117.414699999988,137.0,8.0,4117.414899999976,137.0,,,,4121.188399999975,4121.688999999999,4120.6775,4121.188300000012,4118.407800000012,4120.677399999976,4121.688999999999,4122.1875,4122.187599999964,4123.940300000012,1250.0,4123.940399999976,3.0,4123.945699999988,8.0,14.0,254.0,12.0,1.0,1.2,0.3,Time
,,S47,1,F,22,anonymized,Serial_Dependence_U,2023.2.3,Win32,60.24096385550618,,,,,,4123.945899999976,212.0,8.0,4123.946,212.0,,,,4127.920800000012,4128.4215,4127.405699999988,4127.920699999988,4124.937899999976,4127.405599999964,4128.4215,4128.919899999976,4128.919899999976,4130.7225,1298.0,4130.7225,2.0,4130.728300000012,8.0,15.0,255.0,13.0,1.0,1.4,0.3,Time
,,S47,1,F,22,anonymized,Serial_Dependence_U,2023.2.3,Win32,60.24096385550618,,,,,,4130.728599999964,105.0,8.0,4130.728699999988,105.0,,,,4134.2885,4134.788899999976,4133.787800000012,4134.2885,4131.720699999988,4133.787800000012,4134.788899999976,4135.286199999988,4135.286300000012,4137.071599999964,1033.0,4137.071599999964,3.0,4137.077199999988,8.0,16.0,256.0,11.0,1.0,1.0,0.3,Time
,,S47,1,F,22,anonymized,Serial_Dependence_U,2023.2.3,Win32,60.24096385550618,,,,,,4137.077499999999,200.0,8.0,4137.077499999999,200.0,,,,4140.837,4141.339599999964,4140.336099999964,4140.836899999976,4138.070699999988,4140.335999999999,4141.339699999988,4141.839800000012,4141.839800000012,4143.551300000012,1128.0,4143.5515,2.0,4143.557699999988,8.0,17.0,257.0,2.0,1.0,1.2,0.3,Time
