Scale_setup.started,Scale_setup.stopped,participant,session,sex,age,date,expName,psychopyVersion,OS,frameRate,Intro.started,Intro.stopped,key_resp_2.keys,key_resp_2.rt,key_resp_2.duration,block.started,direction,Block_id,block.stopped,trial_direction,Block_resp_2.keys,Block_resp_2.rt,Block_resp_2.duration,ITI.started,ITI.stopped,Mask_2.started,Mask_2.stopped,encoding.started,encoding.stopped,Cue.started,Cue.stopped,Response.started,Response.stopped,keyDuration,Feedback_Time.started,FeedbackID_T,Feedback_Time.stopped,trials.thisRepN,trials.thisTrialN,trials.thisN,trials.thisIndex,trials.ran,TimeDur,Coherence1,TrialType
0.0003000000119186,0.0006000000238373,S48,1,女,22,anonymized,Serial_Dependence_U,2023.2.3,Win32,59.523809523799216,,,,,,,,,,,,,,,,,,,,,,,,,,,,,,,,,,,
,,S48,1,女,22,anonymized,Serial_Dependence_U,2023.2.3,Win32,59.523809523799216,493.5941000000238,607.5079999999999,space,113.86860000002378,,,,,,,,,,,,,,,,,,,,,,,,,,,,,,,
,,S48,1,女,22,anonymized,Serial_Dependence_U,2023.2.3,Win32,59.523809523799216,,,,,,607.5172000000476,3.0,0.0,629.2396000000238,3.0,s,21.69360000002393,,632.6111000000238,633.1113000000119,632.0939000000358,632.6109000000357,630.259,632.0938000000119,633.1117000000477,633.6122000000477,633.6125,681.4154000000357,371.0,681.4162000000476,1.0,682.4163000000119,0.0,0.0,0.0,5.0,1.0,0.8,0.7,Time
,,S48,1,女,22,anonymized,Serial_Dependence_U,2023.2.3,Win32,59.523809523799216,,,,,,682.4169999999999,131.0,0.0,682.4192000000477,131.0,,,,686.6227000000476,687.1228000000119,686.1055,686.6226000000238,683.4347000000477,686.1054000000357,687.1229000000358,687.6237000000476,687.6239000000357,689.4601000000238,984.0,689.4602000000476,1.0,690.461,0.0,1.0,1.0,24.0,1.0,1.6,0.3,Time
,,S48,1,女,22,anonymized,Serial_Dependence_U,2023.2.3,Win32,59.523809523799216,,,,,,690.4617000000477,37.0,0.0,690.4623000000119,37.0,,,,694.0172000000476,694.5174000000358,693.4995,694.0171000000238,691.4631000000238,693.4994000000357,694.5174999999999,695.0178000000119,695.0179000000358,702.9959000000357,1339.0,702.996,5.0,703.9974000000358,0.0,2.0,2.0,16.0,1.0,1.0,0.7,Time
,,S48,1,女,22,anonymized,Serial_Dependence_U,2023.2.3,Win32,59.523809523799216,,,,,,703.9979000000358,272.0,0.0,703.9981000000238,272.0,,,,707.8034000000357,708.3036000000238,707.2862000000476,707.8033000000119,705.0162000000477,707.2861000000238,708.3036000000238,708.8041000000238,708.8042000000477,709.1551000000238,183.0,709.1552000000477,1.0,710.1563000000119,0.0,3.0,3.0,12.0,1.0,1.2,0.3,Time
,,S48,1,女,22,anonymized,Serial_Dependence_U,2023.2.3,Win32,59.523809523799216,,,,,,710.1574999999999,91.0,0.0,710.1577000000476,91.0,,,,713.7492000000476,714.2457000000477,713.2479999999999,713.7491000000238,711.175,713.2479000000358,714.2459000000357,714.7463000000118,714.7463000000118,716.587,1569.0,716.5871000000238,5.0,717.5844000000358,0.0,4.0,4.0,1.0,1.0,1.0,0.3,Time
,,S48,1,女,22,anonymized,Serial_Dependence_U,2023.2.3,Win32,59.523809523799216,,,,,,717.5853000000119,287.0,0.0,717.5854000000357,287.0,,,,720.9768000000118,721.4725,720.4564000000357,720.9766000000238,718.5894000000358,720.4563000000119,721.4727000000477,721.9734000000358,721.9735,723.2629999999999,818.0,723.2631000000238,3.0,724.2599000000357,0.0,5.0,5.0,20.0,1.0,0.8,0.3,Time
,,S48,1,女,22,anonymized,Serial_Dependence_U,2023.2.3,Win32,59.523809523799216,,,,,,724.2604000000357,131.0,0.0,724.2609000000357,131.0,,,,728.4042000000477,728.8999000000357,727.903,728.4041000000238,725.265,727.9028000000119,728.9,729.4008000000119,729.4008000000119,730.6418000000119,708.0,730.6419000000358,1.0,731.6374000000358,0.0,6.0,6.0,9.0,1.0,1.6,0.7,Time
,,S48,1,女,22,anonymized,Serial_Dependence_U,2023.2.3,Win32,59.523809523799216,,,,,,731.6385,304.0,0.0,731.6388000000119,304.0,,,,735.2131000000238,735.713,734.7119000000357,735.2129000000357,732.6423000000119,734.7118000000119,735.7131000000238,736.2107000000476,736.2108000000119,738.0367000000476,1380.0,738.0367000000476,5.0,739.0314000000358,0.0,7.0,7.0,21.0,1.0,1.0,0.3,Time
,,S48,1,女,22,anonymized,Serial_Dependence_U,2023.2.3,Win32,59.523809523799216,,,,,,739.0323000000119,25.0,0.0,739.0329000000357,25.0,,,,742.8243000000119,743.3209000000357,742.3067000000476,742.8242000000477,740.034,742.3064999999999,743.3209999999999,743.8215,743.8217000000476,744.9737000000476,701.0,744.9739999999999,1.0,745.9747000000476,0.0,8.0,8.0,22.0,1.0,1.2,0.3,Time
,,S48,1,女,22,anonymized,Serial_Dependence_U,2023.2.3,Win32,59.523809523799216,,,,,,745.9753000000119,223.0,0.0,745.9758000000119,223.0,,,,749.3303000000119,749.8302000000476,748.8139000000357,749.3301000000238,746.9772000000477,748.8136000000238,749.8302000000476,750.331,750.3312000000476,752.0343000000119,1080.0,752.0345,5.0,753.0351000000238,0.0,9.0,9.0,15.0,1.0,0.8,0.7,Time
,,S48,1,女,22,anonymized,Serial_Dependence_U,2023.2.3,Win32,59.523809523799216,,,,,,753.0361000000238,107.0,0.0,753.0364000000358,107.0,,,,757.2112000000476,757.7085,756.708,757.211,754.0377000000476,756.7078000000118,757.7085,758.2091000000238,758.2092000000476,759.1608000000119,437.0,759.1611000000238,1.0,760.1619000000358,0.0,10.0,10.0,4.0,1.0,1.6,0.3,Time
,,S48,1,女,22,anonymized,Serial_Dependence_U,2023.2.3,Win32,59.523809523799216,,,,,,760.1631000000239,76.0,0.0,760.1633000000119,76.0,,,,764.3224000000357,764.8188000000118,763.8014999999999,764.3222000000477,761.1688000000119,763.8012000000476,764.8188000000118,765.3196000000238,765.3196000000238,766.6759999999999,500.0,766.6759999999999,1.0,767.6728000000119,0.0,11.0,11.0,29.0,1.0,1.6,0.7,Time
,,S48,1,女,22,anonymized,Serial_Dependence_U,2023.2.3,Win32,59.523809523799216,,,,,,767.6739000000357,172.0,0.0,767.6743000000118,172.0,,,,771.0649999999999,771.5617000000476,770.5472000000476,771.0649999999999,768.6787000000477,770.5469999999999,771.5618000000119,772.0656000000238,772.0657000000476,773.2187000000476,717.0,773.2187000000476,2.0,774.2156000000238,0.0,12.0,12.0,10.0,1.0,0.8,0.3,Time
,,S48,1,女,22,anonymized,Serial_Dependence_U,2023.2.3,Win32,59.523809523799216,,,,,,774.2164000000357,291.0,0.0,774.2168000000119,291.0,,,,777.9603000000119,778.4554000000358,777.4571000000238,777.9602000000476,775.2219000000357,777.457,778.4554000000358,778.9559000000357,778.9559000000357,780.3287000000477,844.0,780.3289000000357,2.0,781.326,0.0,13.0,13.0,17.0,1.0,1.2,0.7,Time
,,S48,1,女,22,anonymized,Serial_Dependence_U,2023.2.3,Win32,59.523809523799216,,,,,,781.3271000000238,193.0,0.0,781.3274000000357,193.0,,,,785.0837000000477,785.5821000000238,784.5819000000357,785.0836000000238,782.3446000000238,784.5816000000239,785.5821000000238,786.0831000000238,786.0832000000477,787.2729000000357,618.0,787.2729999999999,1.0,788.2695,0.0,14.0,14.0,7.0,1.0,1.2,0.7,Time
,,S48,1,女,22,anonymized,Serial_Dependence_U,2023.2.3,Win32,59.523809523799216,,,,,,788.2703000000118,54.0,0.0,788.2707000000477,54.0,,,,792.463,792.9596000000238,791.9467000000476,792.4629000000357,789.275,791.9466000000239,792.9597000000476,793.4604000000357,793.4604000000357,795.1683000000119,1236.0,795.1683000000119,2.0,796.164,0.0,15.0,15.0,14.0,1.0,1.6,0.3,Time
,,S48,1,女,22,anonymized,Serial_Dependence_U,2023.2.3,Win32,59.523809523799216,,,,,,796.1649000000357,22.0,0.0,796.1652000000477,22.0,,,,799.9242000000477,800.4202000000477,799.4059000000358,799.924,797.1692000000477,799.4058000000119,800.4202000000477,800.9211000000238,800.9211000000238,802.31,960.0,802.3101000000238,2.0,803.3075,0.0,16.0,16.0,27.0,1.0,1.2,0.7,Time
,,S48,1,女,22,anonymized,Serial_Dependence_U,2023.2.3,Win32,59.523809523799216,,,,,,803.3081000000238,189.0,0.0,803.3085,189.0,,,,806.9006000000238,807.3969000000358,806.3987000000476,806.9005,804.3291000000238,806.3986000000239,807.3969999999999,807.8977000000476,807.8978000000119,809.3375,951.0,809.3375,3.0,810.3348000000119,0.0,17.0,17.0,11.0,1.0,1.0,0.3,Time
,,S48,1,女,22,anonymized,Serial_Dependence_U,2023.2.3,Win32,59.523809523799216,,,,,,810.3354000000357,107.0,0.0,810.3357000000476,107.0,,,,813.9069999999999,814.4074000000358,813.3941000000239,813.9068000000119,811.3577000000477,813.394,814.4074000000358,814.9077000000476,814.9078000000119,816.2139999999999,750.0,816.2141000000238,2.0,817.2112000000476,0.0,18.0,18.0,6.0,1.0,1.0,0.7,Time
,,S48,1,女,22,anonymized,Serial_Dependence_U,2023.2.3,Win32,59.523809523799216,,,,,,817.2121000000238,222.0,0.0,817.2126000000238,222.0,,,,820.9889999999999,821.4839000000358,820.4868000000118,820.9888000000119,818.2133000000119,820.4866000000238,821.4839999999999,821.985,821.9851000000239,823.6424000000358,1169.0,823.6424000000358,3.0,824.6386000000238,0.0,19.0,19.0,2.0,1.0,1.2,0.3,Time
,,S48,1,女,22,anonymized,Serial_Dependence_U,2023.2.3,Win32,59.523809523799216,,,,,,824.6392000000476,291.0,0.0,824.6398000000119,291.0,,,,828.6284000000358,829.1287000000476,828.1139000000358,828.6282000000476,825.6406000000238,828.1138000000119,829.1289000000357,829.6292000000476,829.6294000000357,830.9697000000476,852.0,830.9698000000119,1.0,831.966,0.0,20.0,20.0,13.0,1.0,1.4,0.3,Time
,,S48,1,女,22,anonymized,Serial_Dependence_U,2023.2.3,Win32,59.523809523799216,,,,,,831.9669000000357,73.0,0.0,831.9673000000118,73.0,,,,835.3578000000119,835.8548000000119,834.8413000000119,835.3577000000477,832.9681000000238,834.8412000000477,835.8548000000119,836.356,836.3561000000238,837.7793000000119,969.0,837.7794000000357,4.0,838.7758000000119,0.0,21.0,21.0,0.0,1.0,0.8,0.3,Time
,,S48,1,女,22,anonymized,Serial_Dependence_U,2023.2.3,Win32,59.523809523799216,,,,,,838.7769000000358,117.0,0.0,838.7773000000119,117.0,,,,842.1316000000238,842.6311000000238,841.6168000000118,842.1313000000118,839.7801000000238,841.6167000000477,842.6312000000477,843.1319000000358,843.132,844.2883000000119,767.0,844.2883000000119,3.0,845.285300000012,0.0,22.0,22.0,25.0,1.0,0.8,0.7,Time
,,S48,1,女,22,anonymized,Serial_Dependence_U,2023.2.3,Win32,59.523809523799216,,,,,,845.2864999999999,251.0,0.0,845.2866000000238,251.0,,,,849.2303000000119,849.7251000000238,848.7275,849.2303000000119,846.2909999999999,848.7274000000357,849.7252000000476,850.2255,850.2256000000239,851.4655,800.0,851.4656000000238,1.0,852.4622000000477,0.0,23.0,23.0,28.0,1.0,1.4,0.7,Time
,,S48,1,女,22,anonymized,Serial_Dependence_U,2023.2.3,Win32,59.523809523799216,,,,,,852.4631000000238,146.0,0.0,852.4636000000238,146.0,,,,856.4391000000238,856.9352000000476,855.9373000000119,856.4391000000238,853.4644999999999,855.9373000000119,856.9352000000476,857.4359999999999,857.4361000000238,859.1606000000238,1250.0,859.1607000000477,2.0,860.1568000000119,0.0,24.0,24.0,3.0,1.0,1.4,0.3,Time
,,S48,1,女,22,anonymized,Serial_Dependence_U,2023.2.3,Win32,59.523809523799216,,,,,,860.158,265.0,0.0,860.1583000000119,265.0,,,,864.1132000000476,864.6133000000119,863.5999000000357,864.1129999999999,861.1614000000358,863.5998000000119,864.6134000000358,865.1138000000119,865.1139999999999,866.9544999999999,1061.0,866.9546000000238,2.0,867.9513000000119,0.0,25.0,25.0,8.0,1.0,1.4,0.7,Time
,,S48,1,女,22,anonymized,Serial_Dependence_U,2023.2.3,Win32,59.523809523799216,,,,,,867.9521000000238,357.0,0.0,867.9525,357.0,,,,872.1114000000357,872.6081000000238,871.5909000000357,872.1112000000477,868.9566000000239,871.5907000000476,872.6082000000476,873.1088000000119,873.1089000000358,874.5148000000119,984.0,874.5149000000357,1.0,875.5123000000119,0.0,26.0,26.0,19.0,1.0,1.6,0.7,Time
,,S48,1,女,22,anonymized,Serial_Dependence_U,2023.2.3,Win32,59.523809523799216,,,,,,875.5132000000476,1.0,0.0,875.5137000000476,1.0,,,,879.5224000000358,880.0188000000119,879.0041000000238,879.5223000000119,876.531,879.004,880.0188000000119,880.5196000000238,880.5197000000477,883.9626000000238,1471.0,883.9626000000238,4.0,884.9592000000476,0.0,27.0,27.0,23.0,1.0,1.4,0.3,Time
,,S48,1,女,22,anonymized,Serial_Dependence_U,2023.2.3,Win32,59.523809523799216,,,,,,884.9601000000238,90.0,0.0,884.9606000000238,90.0,,,,888.919,889.4156000000238,888.4024999999999,888.9189000000357,885.9613000000119,888.4024000000358,889.4156000000238,889.9163000000119,889.9164000000358,891.3018000000119,860.0,891.3019000000357,1.0,892.3032000000477,0.0,28.0,28.0,18.0,1.0,1.4,0.7,Time
,,S48,1,女,22,anonymized,Serial_Dependence_U,2023.2.3,Win32,59.523809523799216,,,,,,892.3038000000118,66.0,0.0,892.3043000000118,66.0,,,,895.8594999999999,896.3591000000238,895.3419000000357,895.8591000000238,893.3054999999999,895.3417000000477,896.3592000000476,896.8598000000119,896.8599000000357,898.1161000000238,928.0,898.1162000000477,2.0,899.1129999999999,0.0,29.0,29.0,26.0,1.0,1.0,0.7,Time
,,S48,1,女,22,anonymized,Serial_Dependence_U,2023.2.3,Win32,59.523809523799216,,,,,,899.1139999999999,125.0,1.0,905.2387000000476,125.0,s,6.099800000011896,,909.3952000000476,909.8954000000356,908.882800000012,909.3951000000238,906.2411000000238,908.8827000000476,909.8955,910.3961000000238,910.3961000000238,911.7349000000356,858.0,911.735,1.0,911.7354000000356,1.0,0.0,30.0,9.0,1.0,1.6,0.7,Time
,,S48,1,女,22,anonymized,Serial_Dependence_U,2023.2.3,Win32,59.523809523799216,,,,,,911.735800000012,102.0,1.0,911.7369000000356,102.0,,,,915.2874000000356,915.7874000000356,914.7734000000356,915.2872000000476,912.7352000000476,914.773300000012,915.7875,916.287800000012,916.2879000000356,917.843800000012,1012.0,917.8439000000358,3.0,917.844400000036,1.0,1.0,31.0,16.0,1.0,1.0,0.7,Time
,,S48,1,女,22,anonymized,Serial_Dependence_U,2023.2.3,Win32,59.523809523799216,,,,,,917.844800000012,67.0,1.0,917.845,67.0,,,,921.4337000000478,921.929300000012,920.916200000048,921.433600000024,918.845100000024,920.916100000024,921.929300000012,922.433,922.433,924.249800000012,1369.0,924.25,5.0,924.250600000024,1.0,2.0,32.0,11.0,1.0,1.0,0.3,Time
,,S48,1,女,22,anonymized,Serial_Dependence_U,2023.2.3,Win32,59.523809523799216,,,,,,924.251,264.0,1.0,924.2511000000238,264.0,,,,928.3935,928.89,927.891600000024,928.393400000036,925.252300000012,927.8915000000002,928.890100000024,929.3902000000478,929.3902000000478,931.548,1566.0,931.548,3.0,931.5484000000358,1.0,3.0,33.0,19.0,1.0,1.6,0.7,Time
,,S48,1,女,22,anonymized,Serial_Dependence_U,2023.2.3,Win32,59.523809523799216,,,,,,931.5487000000478,47.0,1.0,931.549,47.0,,,,935.1192000000478,935.6195,934.615300000012,935.119,932.546100000024,934.615100000024,935.619600000024,936.116800000012,936.116900000036,937.990100000024,1327.0,937.990100000024,5.0,937.9904000000358,1.0,4.0,34.0,1.0,1.0,1.0,0.3,Time
,,S48,1,女,22,anonymized,Serial_Dependence_U,2023.2.3,Win32,59.523809523799216,,,,,,937.9907000000478,81.0,1.0,937.990900000036,81.0,,,,941.575,942.075300000012,941.062400000036,941.574800000012,938.9912000000476,941.062300000012,942.075400000036,942.5759000000356,942.576,944.0665,818.0,944.0665,2.0,944.0669000000356,1.0,5.0,35.0,21.0,1.0,1.0,0.3,Time
,,S48,1,女,22,anonymized,Serial_Dependence_U,2023.2.3,Win32,59.523809523799216,,,,,,944.0674000000358,63.0,1.0,944.0675,63.0,,,,948.071800000012,948.568,947.554300000012,948.0717000000476,945.0829000000358,947.5542000000478,948.568,949.071,949.071100000024,950.808800000012,1084.0,950.808900000036,2.0,950.8091000000238,1.0,6.0,36.0,3.0,1.0,1.4,0.3,Time
,,S48,1,女,22,anonymized,Serial_Dependence_U,2023.2.3,Win32,59.523809523799216,,,,,,950.8095,147.0,1.0,950.809600000024,147.0,,,,954.5939000000358,955.094100000024,954.0819000000358,954.593700000048,951.809900000036,954.0817000000476,955.094100000024,955.5949000000358,955.595,957.1675,886.0,957.1675,2.0,957.1679000000358,1.0,7.0,37.0,22.0,1.0,1.2,0.3,Time
,,S48,1,女,22,anonymized,Serial_Dependence_U,2023.2.3,Win32,59.523809523799216,,,,,,957.168300000012,138.0,1.0,957.1685,138.0,,,,961.354100000024,961.853800000012,960.8419000000358,961.3539000000358,958.1660000000002,960.841800000012,961.853800000012,962.3547000000478,962.354800000012,964.362600000024,1420.0,964.3627000000477,2.0,964.3629000000358,1.0,8.0,38.0,14.0,1.0,1.6,0.3,Time
,,S48,1,女,22,anonymized,Serial_Dependence_U,2023.2.3,Win32,59.523809523799216,,,,,,964.3632000000478,196.0,1.0,964.363300000012,196.0,,,,968.547400000036,969.047900000036,968.033400000036,968.547300000012,965.359300000012,968.033300000012,969.048,969.5484000000358,969.5484000000358,972.3565,1935.0,972.3565,4.0,972.356900000036,1.0,9.0,39.0,4.0,1.0,1.6,0.3,Time
,,S48,1,女,22,anonymized,Serial_Dependence_U,2023.2.3,Win32,59.523809523799216,,,,,,972.3572000000476,80.0,1.0,972.3574000000358,80.0,,,,975.6944000000358,976.1912000000476,975.193600000024,975.6944000000358,973.357900000036,975.1935,976.1912000000476,976.695300000012,976.6954000000358,979.217100000024,735.0,979.2172000000478,2.0,979.2175,1.0,10.0,40.0,5.0,1.0,0.8,0.7,Time
,,S48,1,女,22,anonymized,Serial_Dependence_U,2023.2.3,Win32,59.523809523799216,,,,,,979.217800000012,89.0,1.0,979.218,89.0,,,,983.1689000000358,983.6686000000238,982.654600000024,983.1687000000476,980.214100000024,982.6544000000358,983.6687000000476,984.1695,984.1695,985.8277000000478,1052.0,985.8277000000478,2.0,985.828,1.0,11.0,41.0,18.0,1.0,1.4,0.7,Time
,,S48,1,女,22,anonymized,Serial_Dependence_U,2023.2.3,Win32,59.523809523799216,,,,,,985.8284000000358,137.0,1.0,985.828600000024,137.0,,,,989.1654000000358,989.6612000000478,988.6634000000358,989.1652000000475,986.8242000000478,988.6634000000358,989.661300000012,990.1615000000002,990.1615000000002,992.086300000012,1002.0,992.086300000012,4.0,992.0867000000478,1.0,12.0,42.0,25.0,1.0,0.8,0.7,Time
,,S48,1,女,22,anonymized,Serial_Dependence_U,2023.2.3,Win32,59.523809523799216,,,,,,992.086900000036,337.0,1.0,992.0871000000238,337.0,,,,996.274100000024,996.7710000000002,995.7595,996.274,993.0859000000356,995.759300000012,996.771100000024,997.271800000012,997.271900000036,999.913900000036,1836.0,999.914,4.0,999.914300000012,1.0,13.0,43.0,24.0,1.0,1.6,0.3,Time
,,S48,1,女,22,anonymized,Serial_Dependence_U,2023.2.3,Win32,59.523809523799216,,,,,,999.9147000000478,234.0,1.0,999.914800000012,234.0,,,,1003.668400000036,1004.1651000000238,1003.151300000012,1003.6682000000478,1000.911100000024,1003.151100000024,1004.1651000000238,1004.665800000012,1004.665900000036,1009.393800000012,1409.0,1009.393900000036,4.0,1009.3942000000476,1.0,14.0,44.0,17.0,1.0,1.2,0.7,Time
,,S48,1,女,22,anonymized,Serial_Dependence_U,2023.2.3,Win32,59.523809523799216,,,,,,1009.394600000024,112.0,1.0,1009.3947000000478,112.0,,,,1013.35,1013.845600000024,1012.831400000036,1013.349900000036,1010.391600000024,1012.831400000036,1013.8457000000478,1014.3465,1014.346600000024,1017.518600000024,1086.0,1017.518800000012,2.0,1017.5194000000358,1.0,15.0,45.0,8.0,1.0,1.4,0.7,Time
,,S48,1,女,22,anonymized,Serial_Dependence_U,2023.2.3,Win32,59.523809523799216,,,,,,1017.52,72.0,1.0,1017.5202000000476,72.0,,,,1021.473800000012,1021.974300000012,1020.959800000012,1021.473800000012,1018.521600000024,1020.959800000012,1021.974300000012,1022.474900000036,1022.474900000036,1024.5990000000002,667.0,1024.599100000024,1.0,1024.5994000000358,1.0,16.0,46.0,28.0,1.0,1.4,0.7,Time
,,S48,1,女,22,anonymized,Serial_Dependence_U,2023.2.3,Win32,59.523809523799216,,,,,,1024.599800000012,283.0,1.0,1024.6,283.0,,,,1027.983600000024,1028.483900000036,1027.4689000000358,1027.9834000000358,1025.599800000012,1027.468800000012,1028.483900000036,1028.9842000000478,1028.984300000012,1030.041200000048,518.0,1030.041300000012,1.0,1030.041600000024,1.0,17.0,47.0,0.0,1.0,0.8,0.3,Time
,,S48,1,女,22,anonymized,Serial_Dependence_U,2023.2.3,Win32,59.523809523799216,,,,,,1030.042,271.0,1.0,1030.042300000012,271.0,,,,1033.426800000012,1033.924900000036,1032.913300000012,1033.4267000000475,1031.041900000036,1032.9132000000477,1033.9250000000002,1034.4254000000358,1034.4255,1035.8952000000477,893.0,1035.8954000000358,4.0,1035.895600000024,1.0,18.0,48.0,10.0,1.0,0.8,0.3,Time
,,S48,1,女,22,anonymized,Serial_Dependence_U,2023.2.3,Win32,59.523809523799216,,,,,,1035.895900000036,240.0,1.0,1035.8960000000002,240.0,,,,1039.872,1040.367300000012,1039.3709000000358,1039.871800000012,1036.896300000012,1039.370800000012,1040.367300000012,1040.868200000048,1040.8684000000358,1042.776100000024,1424.0,1042.776100000024,3.0,1042.7765000000002,1.0,19.0,49.0,23.0,1.0,1.4,0.3,Time
,,S48,1,女,22,anonymized,Serial_Dependence_U,2023.2.3,Win32,59.523809523799216,,,,,,1042.7769000000358,17.0,1.0,1042.777,17.0,,,,1046.314,1046.810100000024,1045.8122000000478,1046.3139000000358,1043.773300000012,1045.812100000024,1046.810200000048,1047.3107000000475,1047.3107000000475,1049.5346000000238,1693.0,1049.5347000000477,5.0,1049.535100000024,1.0,20.0,50.0,26.0,1.0,1.0,0.7,Time
,,S48,1,女,22,anonymized,Serial_Dependence_U,2023.2.3,Win32,59.523809523799216,,,,,,1049.5355000000002,244.0,1.0,1049.535600000024,244.0,,,,1053.290800000012,1053.786800000012,1052.7714000000358,1053.2907000000478,1050.5337000000477,1052.771300000012,1053.786800000012,1054.287600000024,1054.287600000024,1056.294300000012,668.0,1056.294300000012,1.0,1056.2946000000238,1.0,21.0,51.0,27.0,1.0,1.2,0.7,Time
,,S48,1,女,22,anonymized,Serial_Dependence_U,2023.2.3,Win32,59.523809523799216,,,,,,1056.2949000000358,110.0,1.0,1056.295100000024,110.0,,,,1060.083,1060.5800000000002,1059.5662000000475,1060.0829000000358,1057.2929000000358,1059.566100000024,1060.580100000024,1061.080800000012,1061.080800000012,1064.9075,2504.0,1064.9075,5.0,1064.907800000012,1.0,22.0,52.0,2.0,1.0,1.2,0.3,Time
,,S48,1,女,22,anonymized,Serial_Dependence_U,2023.2.3,Win32,59.523809523799216,,,,,,1064.908100000024,229.0,1.0,1064.9082000000478,229.0,,,,1068.4609000000355,1068.958800000012,1067.9454000000358,1068.460800000012,1065.9054000000358,1067.945200000048,1068.9589000000358,1069.459600000024,1069.459600000024,1071.183900000036,801.0,1071.183900000036,2.0,1071.1842000000477,1.0,23.0,53.0,6.0,1.0,1.0,0.7,Time
,,S48,1,女,22,anonymized,Serial_Dependence_U,2023.2.3,Win32,59.523809523799216,,,,,,1071.184600000024,78.0,1.0,1071.1847000000478,78.0,,,,1074.5715,1075.067600000024,1074.0536000000238,1074.571300000012,1072.1847000000478,1074.0536000000238,1075.0677000000478,1075.5685,1075.5685,1077.4440000000002,1299.0,1077.4441000000238,5.0,1077.444300000012,1.0,24.0,54.0,20.0,1.0,0.8,0.3,Time
,,S48,1,女,22,anonymized,Serial_Dependence_U,2023.2.3,Win32,59.523809523799216,,,,,,1077.444800000012,297.0,1.0,1077.4450000000002,297.0,,,,1081.4279000000358,1081.9277000000477,1080.9145,1081.4277000000477,1078.4444000000358,1080.9144000000358,1081.9277000000477,1082.428400000036,1082.4286000000238,1084.535400000036,1602.0,1084.535400000036,4.0,1084.5357000000477,1.0,25.0,55.0,13.0,1.0,1.4,0.3,Time
,,S48,1,女,22,anonymized,Serial_Dependence_U,2023.2.3,Win32,59.523809523799216,,,,,,1084.5362000000478,211.0,1.0,1084.536300000012,211.0,,,,1087.8905,1088.386900000036,1087.372600000024,1087.890400000036,1085.533800000012,1087.3725000000002,1088.386900000036,1088.8877000000475,1088.887800000012,1090.7292000000475,1253.0,1090.729300000012,5.0,1090.729600000024,1.0,26.0,56.0,15.0,1.0,0.8,0.7,Time
,,S48,1,女,22,anonymized,Serial_Dependence_U,2023.2.3,Win32,59.523809523799216,,,,,,1090.73,198.0,1.0,1090.7302000000475,198.0,,,,1094.5001000000238,1094.9965,1093.999100000024,1094.5,1091.729100000024,1093.9989000000355,1094.9965,1095.4972000000478,1095.497300000012,1098.051100000024,1961.0,1098.051200000048,5.0,1098.0515,1.0,27.0,57.0,12.0,1.0,1.2,0.3,Time
,,S48,1,女,22,anonymized,Serial_Dependence_U,2023.2.3,Win32,59.523809523799216,,,,,,1098.051900000036,127.0,1.0,1098.052100000024,127.0,,,,1101.8091000000238,1102.307100000024,1101.294,1101.809,1099.0565,1101.294,1102.307100000024,1102.807900000036,1102.807900000036,1105.532900000036,2170.0,1105.533,5.0,1105.533300000012,1.0,28.0,58.0,7.0,1.0,1.2,0.7,Time
,,S48,1,女,22,anonymized,Serial_Dependence_U,2023.2.3,Win32,59.523809523799216,,,,,,1105.5337000000477,33.0,1.0,1105.5339000000358,33.0,,,,1109.689,1110.188100000024,1109.171300000012,1109.689,1106.5305,1109.171300000012,1110.1882000000478,1110.689800000012,1110.689800000012,1112.893400000036,1620.0,1112.893400000036,3.0,1112.8937000000478,1.0,29.0,59.0,29.0,1.0,1.6,0.7,Time
,,S48,1,女,22,anonymized,Serial_Dependence_U,2023.2.3,Win32,59.523809523799216,,,,,,1112.8942000000477,78.0,2.0,1116.177300000012,78.0,s,3.2595000000001164,,1120.334100000024,1120.833800000012,1119.8194000000358,1120.333800000012,1117.1799000000358,1119.819300000012,1120.834,1121.335,1121.335,1123.410400000036,1187.0,1123.4105000000002,2.0,1123.4107000000477,2.0,0.0,60.0,9.0,1.0,1.6,0.7,Time
,,S48,1,女,22,anonymized,Serial_Dependence_U,2023.2.3,Win32,59.523809523799216,,,,,,1123.4112000000478,211.0,2.0,1123.412400000036,211.0,,,,1127.1607000000477,1127.661100000024,1126.6474000000358,1127.1605000000002,1124.4067000000475,1126.6474000000358,1127.661100000024,1128.161400000036,1128.161400000036,1130.519,1836.0,1130.519100000024,5.0,1130.519300000012,2.0,1.0,61.0,7.0,1.0,1.2,0.7,Time
,,S48,1,女,22,anonymized,Serial_Dependence_U,2023.2.3,Win32,59.523809523799216,,,,,,1130.519600000024,237.0,2.0,1130.519800000012,237.0,,,,1134.4745,1134.975,1133.956300000012,1134.4745,1131.516400000036,1133.956100000024,1134.975,1135.471800000012,1135.471900000036,1138.148300000012,1853.0,1138.1484000000355,5.0,1138.1487000000477,2.0,2.0,62.0,18.0,1.0,1.4,0.7,Time
,,S48,1,女,22,anonymized,Serial_Dependence_U,2023.2.3,Win32,59.523809523799216,,,,,,1138.149100000024,313.0,2.0,1138.149300000012,313.0,,,,1141.8982000000478,1142.3984000000355,1141.384800000012,1141.898,1139.144900000036,1141.384600000024,1142.3985,1142.899100000024,1142.8992000000478,1145.057800000012,1559.0,1145.057800000012,4.0,1145.0581000000238,2.0,3.0,63.0,27.0,1.0,1.2,0.7,Time
,,S48,1,女,22,anonymized,Serial_Dependence_U,2023.2.3,Win32,59.523809523799216,,,,,,1145.0585,0.0,2.0,1145.058600000024,0.0,,,,1148.608600000024,1149.108200000048,1148.095,1148.608300000012,1146.054100000024,1148.0949000000358,1149.108300000012,1149.608800000012,1149.608900000036,1151.148300000012,1011.0,1151.1485,3.0,1151.1487000000477,2.0,4.0,64.0,26.0,1.0,1.0,0.7,Time
,,S48,1,女,22,anonymized,Serial_Dependence_U,2023.2.3,Win32,59.523809523799216,,,,,,1151.149100000024,10.0,2.0,1151.1492000000478,10.0,,,,1154.519900000036,1155.016800000012,1154.018,1154.519800000012,1152.1502000000478,1154.017800000012,1155.016800000012,1155.5175000000002,1155.517600000024,1157.040800000012,1050.0,1157.040800000012,5.0,1157.041100000024,2.0,5.0,65.0,0.0,1.0,0.8,0.3,Time
,,S48,1,女,22,anonymized,Serial_Dependence_U,2023.2.3,Win32,59.523809523799216,,,,,,1157.0415,191.0,2.0,1157.041600000024,191.0,,,,1161.029300000012,1161.5262000000478,1160.5114000000358,1161.0291000000238,1158.0424000000355,1160.511300000012,1161.5262000000478,1162.0269000000358,1162.027,1164.051300000012,1601.0,1164.051300000012,4.0,1164.0515,2.0,6.0,66.0,23.0,1.0,1.4,0.3,Time
,,S48,1,女,22,anonymized,Serial_Dependence_U,2023.2.3,Win32,59.523809523799216,,,,,,1164.051900000036,113.0,2.0,1164.052100000024,113.0,,,,1167.4219000000355,1167.9187000000477,1166.9209000000358,1167.421800000012,1165.048600000024,1166.920800000012,1167.9187000000477,1168.419400000036,1168.4195,1170.2897000000478,1301.0,1170.289900000036,5.0,1170.2904000000358,2.0,7.0,67.0,10.0,1.0,0.8,0.3,Time
,,S48,1,女,22,anonymized,Serial_Dependence_U,2023.2.3,Win32,59.523809523799216,,,,,,1170.290800000012,210.0,2.0,1170.290900000036,210.0,,,,1174.465600000024,1174.9622000000477,1173.964600000024,1174.4655,1171.291300000012,1173.9645,1174.9624000000358,1175.4630000000002,1175.4630000000002,1177.953900000036,1970.0,1177.9540000000002,4.0,1177.954200000048,2.0,8.0,68.0,14.0,1.0,1.6,0.3,Time
,,S48,1,女,22,anonymized,Serial_Dependence_U,2023.2.3,Win32,59.523809523799216,,,,,,1177.954600000024,74.0,2.0,1177.9547000000478,74.0,,,,1181.9435,1182.439800000012,1181.4264000000358,1181.9434000000358,1178.9555,1181.4264000000358,1182.4399000000358,1182.940600000024,1182.940800000012,1185.232600000024,1758.0,1185.232600000024,4.0,1185.232900000036,2.0,9.0,69.0,13.0,1.0,1.4,0.3,Time
,,S48,1,女,22,anonymized,Serial_Dependence_U,2023.2.3,Win32,59.523809523799216,,,,,,1185.233300000012,26.0,2.0,1185.2335,26.0,,,,1189.217400000036,1189.717,1188.703300000012,1189.217100000024,1186.229600000024,1188.7032000000477,1189.717,1190.2177000000477,1190.2177000000477,1192.409100000024,1536.0,1192.4092000000478,4.0,1192.4095,2.0,10.0,70.0,3.0,1.0,1.4,0.3,Time
,,S48,1,女,22,anonymized,Serial_Dependence_U,2023.2.3,Win32,59.523809523799216,,,,,,1192.4099000000358,340.0,2.0,1192.41,340.0,,,,1196.5815,1197.077600000024,1196.0767000000478,1196.5815,1193.406200000048,1196.076600000024,1197.077600000024,1197.5784000000358,1197.5785,1199.3147000000477,1209.0,1199.314800000012,2.0,1199.3155000000002,2.0,11.0,71.0,24.0,1.0,1.6,0.3,Time
,,S48,1,女,22,anonymized,Serial_Dependence_U,2023.2.3,Win32,59.523809523799216,,,,,,1199.316100000024,310.0,2.0,1199.3165,310.0,,,,1202.903600000024,1203.4035,1202.389300000012,1202.9034000000358,1200.3192000000477,1202.389300000012,1203.403600000024,1203.9041000000238,1203.9042000000477,1205.777800000012,1468.0,1205.777800000012,5.0,1205.778100000024,2.0,12.0,72.0,11.0,1.0,1.0,0.3,Time
,,S48,1,女,22,anonymized,Serial_Dependence_U,2023.2.3,Win32,59.523809523799216,,,,,,1205.778600000024,86.0,2.0,1205.7787000000478,86.0,,,,1209.3294000000358,1209.8294000000358,1208.815100000024,1209.329200000048,1206.775400000036,1208.815,1209.8295,1210.330200000048,1210.330200000048,1212.705100000024,1837.0,1212.705200000048,5.0,1212.7054000000358,2.0,13.0,73.0,6.0,1.0,1.0,0.7,Time
,,S48,1,女,22,anonymized,Serial_Dependence_U,2023.2.3,Win32,59.523809523799216,,,,,,1212.705900000036,143.0,2.0,1212.706100000024,143.0,,,,1216.860800000012,1217.356900000036,1216.343800000012,1216.8607000000477,1213.705600000024,1216.343800000012,1217.357,1217.8577000000478,1217.857800000012,1220.0817000000477,1765.0,1220.0817000000477,4.0,1220.082100000024,2.0,14.0,74.0,19.0,1.0,1.6,0.7,Time
,,S48,1,女,22,anonymized,Serial_Dependence_U,2023.2.3,Win32,59.523809523799216,,,,,,1220.0825,83.0,2.0,1220.0826000000238,83.0,,,,1223.666800000012,1224.1674000000355,1223.1525,1223.666600000024,1221.079300000012,1223.1525,1224.1675,1224.6675,1224.667600000024,1226.3091000000238,1202.0,1226.3092000000477,4.0,1226.3095,2.0,15.0,75.0,21.0,1.0,1.0,0.3,Time
,,S48,1,女,22,anonymized,Serial_Dependence_U,2023.2.3,Win32,59.523809523799216,,,,,,1226.309800000012,199.0,2.0,1226.309900000036,199.0,,,,1229.6945,1230.1922000000477,1229.177800000012,1229.694300000012,1227.305400000036,1229.177600000024,1230.1922000000477,1230.693,1230.6931000000238,1232.3172000000477,1086.0,1232.3172000000477,5.0,1232.3177000000478,2.0,16.0,76.0,20.0,1.0,0.8,0.3,Time
,,S48,1,女,22,anonymized,Serial_Dependence_U,2023.2.3,Win32,59.523809523799216,,,,,,1232.318,302.0,2.0,1232.3182000000477,302.0,,,,1236.271600000024,1236.768400000036,1235.7549000000358,1236.2715,1233.313800000012,1235.754800000012,1236.7685,1237.2692000000477,1237.269300000012,1239.6435,1952.0,1239.643600000024,5.0,1239.643900000036,2.0,17.0,77.0,28.0,1.0,1.4,0.7,Time
,,S48,1,女,22,anonymized,Serial_Dependence_U,2023.2.3,Win32,59.523809523799216,,,,,,1239.6442000000477,262.0,2.0,1239.6444000000358,262.0,,,,1243.383100000024,1243.878900000036,1242.8807000000477,1243.382800000012,1240.641300000012,1242.8806000000238,1243.878900000036,1244.3795,1244.3795,1246.670100000024,1701.0,1246.6702000000478,5.0,1246.6705000000002,2.0,18.0,78.0,17.0,1.0,1.2,0.7,Time
,,S48,1,女,22,anonymized,Serial_Dependence_U,2023.2.3,Win32,59.523809523799216,,,,,,1246.6709000000358,214.0,2.0,1246.671,214.0,,,,1250.021800000012,1250.5220000000002,1249.507400000036,1250.021600000024,1247.6685,1249.507300000012,1250.5220000000002,1251.0227000000475,1251.0227000000475,1252.2127000000478,803.0,1252.212800000012,3.0,1252.2132000000477,2.0,19.0,79.0,15.0,1.0,0.8,0.7,Time
,,S48,1,女,22,anonymized,Serial_Dependence_U,2023.2.3,Win32,59.523809523799216,,,,,,1252.213600000024,289.0,2.0,1252.213800000012,289.0,,,,1255.5627000000477,1256.063,1255.050100000024,1255.5627000000477,1253.212800000012,1255.0500000000002,1256.063100000024,1256.5636000000238,1256.5637000000477,1258.4895,1249.0,1258.4895,5.0,1258.489800000012,2.0,20.0,80.0,25.0,1.0,0.8,0.7,Time
,,S48,1,女,22,anonymized,Serial_Dependence_U,2023.2.3,Win32,59.523809523799216,,,,,,1258.490100000024,50.0,2.0,1258.4904000000358,50.0,,,,1262.673300000012,1263.173300000012,1262.159,1262.6732000000477,1259.485600000024,1262.1589000000358,1263.1734000000358,1263.674,1263.6741000000238,1269.6702000000478,1166.0,1269.6702000000478,2.0,1269.6705000000002,2.0,21.0,81.0,4.0,1.0,1.6,0.3,Time
,,S48,1,女,22,anonymized,Serial_Dependence_U,2023.2.3,Win32,59.523809523799216,,,,,,1269.6709000000358,284.0,2.0,1269.6712000000475,284.0,,,,1273.0239000000358,1273.521800000012,1272.5072000000478,1273.023800000012,1270.668100000024,1272.5072000000478,1273.521800000012,1274.0227000000475,1274.022800000012,1275.6625,801.0,1275.662600000024,3.0,1275.6629000000355,2.0,22.0,82.0,5.0,1.0,0.8,0.7,Time
,,S48,1,女,22,anonymized,Serial_Dependence_U,2023.2.3,Win32,59.523809523799216,,,,,,1275.663300000012,125.0,2.0,1275.6635,125.0,,,,1279.4344000000358,1279.931,1278.9334000000358,1279.4344000000358,1276.6655,1278.9332000000477,1279.931100000024,1280.4341000000238,1280.4342000000477,1282.518300000012,1588.0,1282.518400000036,5.0,1282.518800000012,2.0,23.0,83.0,2.0,1.0,1.2,0.3,Time
,,S48,1,女,22,anonymized,Serial_Dependence_U,2023.2.3,Win32,59.523809523799216,,,,,,1282.5192000000477,270.0,2.0,1282.5194000000358,270.0,,,,1286.6765,1287.1750000000002,1286.160300000012,1286.6764000000358,1283.520300000012,1286.1602000000478,1287.1750000000002,1287.6757000000478,1287.675800000012,1289.850100000024,1803.0,1289.850100000024,4.0,1289.8505,2.0,24.0,84.0,29.0,1.0,1.6,0.7,Time
,,S48,1,女,22,anonymized,Serial_Dependence_U,2023.2.3,Win32,59.523809523799216,,,,,,1289.850800000012,201.0,2.0,1289.851,201.0,,,,1293.4215000000002,1293.9177000000475,1292.92,1293.421400000036,1290.852400000036,1292.9199000000358,1293.917800000012,1294.418400000036,1294.4185,1296.676200000048,1729.0,1296.676300000012,5.0,1296.676600000024,2.0,25.0,85.0,1.0,1.0,1.0,0.3,Time
,,S48,1,女,22,anonymized,Serial_Dependence_U,2023.2.3,Win32,59.523809523799216,,,,,,1296.677,137.0,2.0,1296.6772000000478,137.0,,,,1300.464800000012,1300.965100000024,1299.9469000000358,1300.464800000012,1297.677600000024,1299.946800000012,1300.965100000024,1301.462,1301.462,1304.022100000024,2052.0,1304.022200000048,5.0,1304.0224000000358,2.0,26.0,86.0,22.0,1.0,1.2,0.3,Time
,,S48,1,女,22,anonymized,Serial_Dependence_U,2023.2.3,Win32,59.523809523799216,,,,,,1304.022800000012,149.0,2.0,1304.022900000036,149.0,,,,1307.5715,1308.071600000024,1307.0574000000358,1307.571300000012,1305.017700000048,1307.057300000012,1308.0717000000477,1308.572400000036,1308.5725,1309.796100000024,651.0,1309.7962000000475,1.0,1309.796600000024,2.0,27.0,87.0,16.0,1.0,1.0,0.7,Time
,,S48,1,女,22,anonymized,Serial_Dependence_U,2023.2.3,Win32,59.523809523799216,,,,,,1309.7969000000355,83.0,2.0,1309.797,83.0,,,,1313.5672000000477,1314.064300000012,1313.0632000000478,1313.567100000024,1310.792800000012,1313.063,1314.064300000012,1314.5652000000478,1314.565300000012,1316.5890000000002,1620.0,1316.5890000000002,5.0,1316.5894000000358,2.0,28.0,88.0,12.0,1.0,1.2,0.3,Time
,,S48,1,女,22,anonymized,Serial_Dependence_U,2023.2.3,Win32,59.523809523799216,,,,,,1316.589800000012,354.0,2.0,1316.59,354.0,,,,1320.5285,1321.0235,1320.0257000000477,1320.5285,1317.586300000012,1320.0257000000477,1321.023600000024,1321.524400000036,1321.5245,1323.7502000000477,1788.0,1323.7502000000477,4.0,1323.750600000024,2.0,29.0,89.0,8.0,1.0,1.4,0.7,Time
,,S48,1,女,22,anonymized,Serial_Dependence_U,2023.2.3,Win32,59.523809523799216,,,,,,1323.750900000036,4.0,3.0,1354.9899000000355,4.0,s,31.214399999976195,,1358.5655000000002,1359.062,1358.064100000024,1358.565400000036,1355.994600000024,1358.064,1359.062100000024,1359.562800000012,1359.5629000000358,1362.422300000012,2354.0,1362.422400000036,5.0,1362.4227000000478,3.0,0.0,90.0,1.0,1.0,1.0,0.3,Time
,,S48,1,女,22,anonymized,Serial_Dependence_U,2023.2.3,Win32,59.523809523799216,,,,,,1362.423100000024,328.0,3.0,1362.4244000000358,328.0,,,,1365.7742000000478,1366.2727000000475,1365.26,1365.774100000024,1363.4222000000475,1365.26,1366.2727000000475,1366.7755000000002,1366.7755000000002,1369.0771000000238,1744.0,1369.0774000000358,5.0,1369.077900000036,3.0,1.0,91.0,25.0,1.0,0.8,0.7,Time
,,S48,1,女,22,anonymized,Serial_Dependence_U,2023.2.3,Win32,59.523809523799216,,,,,,1369.0782000000477,264.0,3.0,1369.078300000012,264.0,,,,1373.020900000036,1373.516400000036,1372.5159000000358,1373.020900000036,1370.0787000000478,1372.5157000000477,1373.516400000036,1374.018,1374.018100000024,1376.9097000000477,2476.0,1376.909800000012,5.0,1376.9102000000478,3.0,2.0,92.0,8.0,1.0,1.4,0.7,Time
,,S48,1,女,22,anonymized,Serial_Dependence_U,2023.2.3,Win32,59.523809523799216,,,,,,1376.9105000000002,311.0,3.0,1376.910600000024,311.0,,,,1381.094600000024,1381.594700000048,1380.5790000000002,1381.0945000000002,1377.909800000012,1380.5790000000002,1381.594800000012,1382.0955,1382.095600000024,1384.536600000024,1953.0,1384.536700000048,4.0,1384.537,3.0,3.0,93.0,14.0,1.0,1.6,0.3,Time
,,S48,1,女,22,anonymized,Serial_Dependence_U,2023.2.3,Win32,59.523809523799216,,,,,,1384.5372000000475,37.0,3.0,1384.537400000036,37.0,,,,1388.321600000024,1388.821800000012,1387.8091000000238,1388.3215,1385.5347000000477,1387.809,1388.821800000012,1389.3226000000238,1389.3226000000238,1391.6262000000477,1688.0,1391.6264000000358,5.0,1391.6270000000002,3.0,4.0,94.0,22.0,1.0,1.2,0.3,Time
,,S48,1,女,22,anonymized,Serial_Dependence_U,2023.2.3,Win32,59.523809523799216,,,,,,1391.627300000012,209.0,3.0,1391.6275,209.0,,,,1395.182,1395.682,1394.667300000012,1395.181800000012,1392.627900000036,1394.667100000024,1395.682,1396.1825,1396.1825,1398.224300000012,1586.0,1398.224300000012,5.0,1398.224600000024,3.0,5.0,95.0,6.0,1.0,1.0,0.7,Time
,,S48,1,女,22,anonymized,Serial_Dependence_U,2023.2.3,Win32,59.523809523799216,,,,,,1398.225,216.0,3.0,1398.2252000000478,216.0,,,,1401.594100000024,1402.094,1401.0932000000478,1401.594,1399.221,1401.093100000024,1402.094,1402.592,1402.592,1404.516700000048,1502.0,1404.516800000012,5.0,1404.517,3.0,6.0,96.0,0.0,1.0,0.8,0.3,Time
,,S48,1,女,22,anonymized,Serial_Dependence_U,2023.2.3,Win32,59.523809523799216,,,,,,1404.517400000036,0.0,3.0,1404.5175000000002,0.0,,,,1408.654900000036,1409.151300000012,1408.1534000000358,1408.654800000012,1405.517100000024,1408.153300000012,1409.151400000036,1409.652300000012,1409.652300000012,1412.5952000000475,2536.0,1412.595300000012,5.0,1412.595800000012,3.0,7.0,97.0,9.0,1.0,1.6,0.7,Time
,,S48,1,女,22,anonymized,Serial_Dependence_U,2023.2.3,Win32,59.523809523799216,,,,,,1412.596,160.0,3.0,1412.5962000000477,160.0,,,,1415.932600000024,1416.4286000000238,1415.4305000000002,1415.9324000000358,1413.5915,1415.430300000012,1416.4286000000238,1416.929400000036,1416.929400000036,1418.515,1186.0,1418.5152000000478,5.0,1418.5157000000477,3.0,8.0,98.0,5.0,1.0,0.8,0.7,Time
,,S48,1,女,22,anonymized,Serial_Dependence_U,2023.2.3,Win32,59.523809523799216,,,,,,1418.516100000024,292.0,3.0,1418.516300000012,292.0,,,,1422.7087000000477,1423.205300000012,1422.1905000000002,1422.708600000024,1419.5202000000477,1422.190400000036,1423.2054000000358,1423.7057000000475,1423.705800000012,1426.1967000000477,2116.0,1426.196800000012,5.0,1426.197,3.0,9.0,99.0,4.0,1.0,1.6,0.3,Time
,,S48,1,女,22,anonymized,Serial_Dependence_U,2023.2.3,Win32,59.523809523799216,,,,,,1426.197400000036,18.0,3.0,1426.1977000000477,18.0,,,,1429.739300000012,1430.2317000000478,1429.2340000000002,1429.7392000000475,1427.1995000000002,1429.233900000036,1430.231800000012,1430.7325,1430.732600000024,1432.641100000024,1307.0,1432.6412000000478,5.0,1432.6415000000002,3.0,10.0,100.0,16.0,1.0,1.0,0.7,Time
,,S48,1,女,22,anonymized,Serial_Dependence_U,2023.2.3,Win32,59.523809523799216,,,,,,1432.6419000000358,41.0,3.0,1432.6422000000478,41.0,,,,1435.978300000012,1436.474100000024,1435.477300000012,1435.9782000000478,1433.6375,1435.4772000000478,1436.474100000024,1436.974900000036,1436.975,1439.031600000024,1611.0,1439.0317000000475,5.0,1439.0320000000002,3.0,11.0,101.0,15.0,1.0,0.8,0.7,Time
,,S48,1,女,22,anonymized,Serial_Dependence_U,2023.2.3,Win32,59.523809523799216,,,,,,1439.032300000012,237.0,3.0,1439.032600000024,237.0,,,,1442.8042000000478,1443.3007000000478,1442.302,1442.804100000024,1440.03,1442.301900000036,1443.300800000012,1443.8014000000358,1443.8014000000358,1446.443,2203.0,1446.443,5.0,1446.443300000012,3.0,12.0,102.0,12.0,1.0,1.2,0.3,Time
,,S48,1,女,22,anonymized,Serial_Dependence_U,2023.2.3,Win32,59.523809523799216,,,,,,1446.443600000024,323.0,3.0,1446.4437000000478,323.0,,,,1450.429,1450.9285,1449.916100000024,1450.428800000012,1447.4419000000355,1449.9160000000002,1450.9285,1451.429100000024,1451.4292000000478,1453.970600000024,2068.0,1453.970600000024,5.0,1453.970900000036,3.0,13.0,103.0,23.0,1.0,1.4,0.3,Time
,,S48,1,女,22,anonymized,Serial_Dependence_U,2023.2.3,Win32,59.523809523799216,,,,,,1453.971300000012,166.0,3.0,1453.9714000000358,166.0,,,,1458.156200000048,1458.6567000000475,1457.6432000000475,1458.1560000000002,1454.968100000024,1457.643100000024,1458.6567000000475,1459.157100000024,1459.157100000024,1462.2487000000478,2618.0,1462.2489000000355,5.0,1462.2492000000475,3.0,14.0,104.0,24.0,1.0,1.6,0.3,Time
,,S48,1,女,22,anonymized,Serial_Dependence_U,2023.2.3,Win32,59.523809523799216,,,,,,1462.2497000000478,205.0,3.0,1462.249800000012,205.0,,,,1466.001300000012,1466.5011000000238,1465.487,1466.0011000000238,1463.250800000012,1465.4869000000358,1466.5011000000238,1467.001800000012,1467.001900000036,1469.427300000012,1988.0,1469.427300000012,5.0,1469.427600000024,3.0,15.0,105.0,27.0,1.0,1.2,0.7,Time
,,S48,1,女,22,anonymized,Serial_Dependence_U,2023.2.3,Win32,59.523809523799216,,,,,,1469.428,330.0,3.0,1469.4282000000478,330.0,,,,1472.8107000000475,1473.3107000000475,1472.2969000000355,1472.8105,1470.427100000024,1472.2969000000355,1473.3107000000475,1473.8114000000355,1473.8115,1475.3522000000478,1152.0,1475.352400000036,5.0,1475.3527000000477,3.0,16.0,106.0,10.0,1.0,0.8,0.3,Time
,,S48,1,女,22,anonymized,Serial_Dependence_U,2023.2.3,Win32,59.523809523799216,,,,,,1475.353,194.0,3.0,1475.353300000012,194.0,,,,1478.739300000012,1479.2362000000478,1478.219100000024,1478.7392000000475,1476.349200000048,1478.218800000012,1479.236300000012,1479.7369000000358,1479.737,1481.2611000000238,1120.0,1481.2612000000477,5.0,1481.261600000024,3.0,17.0,107.0,20.0,1.0,0.8,0.3,Time
,,S48,1,女,22,anonymized,Serial_Dependence_U,2023.2.3,Win32,59.523809523799216,,,,,,1481.2620000000002,78.0,3.0,1481.262100000024,78.0,,,,1485.015300000012,1485.5117000000478,1484.4975000000002,1485.0152000000478,1482.260600000024,1484.497400000036,1485.5117000000478,1486.0124000000358,1486.0125,1488.2707000000478,1753.0,1488.2707000000478,5.0,1488.2710000000002,3.0,18.0,108.0,7.0,1.0,1.2,0.7,Time
,,S48,1,女,22,anonymized,Serial_Dependence_U,2023.2.3,Win32,59.523809523799216,,,,,,1488.271300000012,272.0,3.0,1488.2715,272.0,,,,1491.8584000000358,1492.355,1491.3404000000355,1491.858300000012,1489.2717000000478,1491.340300000012,1492.355100000024,1492.855900000036,1492.856,1494.780800000012,1469.0,1494.780900000036,5.0,1494.781300000012,3.0,19.0,109.0,21.0,1.0,1.0,0.3,Time
,,S48,1,女,22,anonymized,Serial_Dependence_U,2023.2.3,Win32,59.523809523799216,,,,,,1494.781600000024,162.0,3.0,1494.781800000012,162.0,,,,1498.736400000036,1499.2322000000477,1498.2182000000478,1498.736400000036,1495.777800000012,1498.218100000024,1499.232300000012,1499.7324000000358,1499.732600000024,1501.789600000024,1584.0,1501.789800000012,4.0,1501.7900000000002,3.0,20.0,110.0,18.0,1.0,1.4,0.7,Time
,,S48,1,女,22,anonymized,Serial_Dependence_U,2023.2.3,Win32,59.523809523799216,,,,,,1501.790300000012,171.0,3.0,1501.7904000000358,171.0,,,,1505.341400000036,1505.841300000012,1504.828,1505.341300000012,1502.7877000000478,1504.827900000036,1505.841300000012,1506.342,1506.342100000024,1508.850300000012,2019.0,1508.8504000000355,5.0,1508.850800000012,3.0,21.0,111.0,26.0,1.0,1.0,0.7,Time
,,S48,1,女,22,anonymized,Serial_Dependence_U,2023.2.3,Win32,59.523809523799216,,,,,,1508.8512000000478,37.0,3.0,1508.8512000000478,37.0,,,,1512.6222000000478,1513.1184000000358,1512.117900000036,1512.622,1509.8525000000002,1512.117800000012,1513.1184000000358,1513.6192000000478,1513.6192000000478,1515.028100000024,979.0,1515.028300000012,2.0,1515.028600000024,3.0,22.0,112.0,2.0,1.0,1.2,0.3,Time
,,S48,1,女,22,anonymized,Serial_Dependence_U,2023.2.3,Win32,59.523809523799216,,,,,,1515.028900000036,194.0,3.0,1515.029,194.0,,,,1518.6122000000478,1519.110400000036,1518.096900000036,1518.612100000024,1516.0235,1518.096800000012,1519.110400000036,1519.614100000024,1519.614100000024,1522.303,2219.0,1522.303100000024,5.0,1522.303400000036,3.0,23.0,113.0,11.0,1.0,1.0,0.3,Time
,,S48,1,女,22,anonymized,Serial_Dependence_U,2023.2.3,Win32,59.523809523799216,,,,,,1522.3039000000358,212.0,3.0,1522.304,212.0,,,,1526.4572000000478,1526.955100000024,1525.9409000000358,1526.457,1523.300600000024,1525.940800000012,1526.955200000048,1527.455900000036,1527.456,1528.863,1046.0,1528.863100000024,1.0,1528.863300000012,3.0,24.0,114.0,19.0,1.0,1.6,0.7,Time
,,S48,1,女,22,anonymized,Serial_Dependence_U,2023.2.3,Win32,59.523809523799216,,,,,,1528.863800000012,241.0,3.0,1528.8639000000358,241.0,,,,1532.850600000024,1533.3477000000478,1532.335,1532.8505,1529.8635000000002,1532.3349000000358,1533.3477000000478,1533.8484000000358,1533.8485,1536.022100000024,1764.0,1536.022100000024,4.0,1536.022300000012,3.0,25.0,115.0,13.0,1.0,1.4,0.3,Time
,,S48,1,女,22,anonymized,Serial_Dependence_U,2023.2.3,Win32,59.523809523799216,,,,,,1536.022800000012,20.0,3.0,1536.022900000036,20.0,,,,1539.7749000000358,1540.274300000012,1539.2620000000002,1539.7747000000477,1537.0239000000358,1539.261900000036,1540.274300000012,1540.775100000024,1540.775100000024,1542.327600000024,1145.0,1542.327800000012,3.0,1542.328300000012,3.0,26.0,116.0,17.0,1.0,1.2,0.7,Time
,,S48,1,女,22,anonymized,Serial_Dependence_U,2023.2.3,Win32,59.523809523799216,,,,,,1542.3287000000478,273.0,3.0,1542.328900000036,273.0,,,,1546.3207000000475,1546.8174000000358,1545.804300000012,1546.320600000024,1543.3332000000478,1545.8042000000478,1546.8174000000358,1547.3181000000238,1547.3181000000238,1549.141300000012,1398.0,1549.1415000000002,3.0,1549.141800000012,3.0,27.0,117.0,3.0,1.0,1.4,0.3,Time
,,S48,1,女,22,anonymized,Serial_Dependence_U,2023.2.3,Win32,59.523809523799216,,,,,,1549.1422000000478,261.0,3.0,1549.142300000012,261.0,,,,1553.297,1553.794,1552.7795,1553.297,1550.1395,1552.7795,1553.794,1554.281600000024,1554.2817000000475,1556.819900000036,2119.0,1556.8200000000002,5.0,1556.820300000012,3.0,28.0,118.0,29.0,1.0,1.6,0.7,Time
,,S48,1,女,22,anonymized,Serial_Dependence_U,2023.2.3,Win32,59.523809523799216,,,,,,1556.820800000012,145.0,3.0,1556.821,145.0,,,,1560.7749000000358,1561.2715,1560.258600000024,1560.774800000012,1557.8172000000477,1560.2585,1561.271600000024,1561.772200000048,1561.772300000012,1563.929300000012,1743.0,1563.929300000012,4.0,1563.9296000000238,3.0,29.0,119.0,28.0,1.0,1.4,0.7,Time
,,S48,1,女,22,anonymized,Serial_Dependence_U,2023.2.3,Win32,59.523809523799216,,,,,,1563.93,25.0,4.0,1567.401700000048,25.0,s,3.45619999998803,,1571.353800000012,1571.853600000024,1570.839100000024,1571.353600000024,1568.401800000012,1570.8390000000002,1571.853700000048,1572.3542000000475,1572.354300000012,1574.8965,2134.0,1574.8965,5.0,1574.896900000036,4.0,0.0,120.0,28.0,1.0,1.4,0.7,Time
,,S48,1,女,22,anonymized,Serial_Dependence_U,2023.2.3,Win32,59.523809523799216,,,,,,1574.897200000048,88.0,4.0,1574.8984000000355,88.0,,,,1578.6477000000475,1579.147300000012,1578.1337000000478,1578.6477000000475,1575.893400000036,1578.1337000000478,1579.1474000000358,1579.648600000024,1579.6487000000477,1582.1061000000238,1938.0,1582.1062000000477,5.0,1582.1065,4.0,1.0,121.0,7.0,1.0,1.2,0.7,Time
,,S48,1,女,22,anonymized,Serial_Dependence_U,2023.2.3,Win32,59.523809523799216,,,,,,1582.106900000036,41.0,4.0,1582.107,41.0,,,,1585.4904000000358,1585.990600000024,1584.977100000024,1585.4902000000477,1583.1077000000478,1584.977,1585.990600000024,1586.4914000000358,1586.4914000000358,1588.7655,1948.0,1588.7656000000238,5.0,1588.7659000000358,4.0,2.0,122.0,10.0,1.0,0.8,0.3,Time
,,S48,1,女,22,anonymized,Serial_Dependence_U,2023.2.3,Win32,59.523809523799216,,,,,,1588.766300000012,287.0,4.0,1588.7665000000002,287.0,,,,1592.5514000000358,1593.050800000012,1592.037100000024,1592.551200000048,1589.7675000000002,1592.037,1593.050800000012,1593.5515,1593.551600000024,1595.944300000012,2021.0,1595.9444000000358,5.0,1595.944600000024,4.0,3.0,123.0,12.0,1.0,1.2,0.3,Time
,,S48,1,女,22,anonymized,Serial_Dependence_U,2023.2.3,Win32,59.523809523799216,,,,,,1595.944900000036,98.0,4.0,1595.9450000000002,98.0,,,,1599.696800000012,1600.194600000024,1599.1812000000475,1599.6967000000477,1596.9405000000002,1599.181,1600.1947000000478,1600.6955,1600.695600000024,1603.1205,2053.0,1603.1206000000238,5.0,1603.1209000000358,4.0,4.0,124.0,27.0,1.0,1.2,0.7,Time
,,S48,1,女,22,anonymized,Serial_Dependence_U,2023.2.3,Win32,59.523809523799216,,,,,,1603.121300000012,258.0,4.0,1603.1215,258.0,,,,1606.709300000012,1607.2047000000478,1606.19,1606.7092000000478,1604.122300000012,1606.1899000000358,1607.204800000012,1607.705300000012,1607.705300000012,1610.397900000036,2287.0,1610.398,5.0,1610.398300000012,4.0,5.0,125.0,11.0,1.0,1.0,0.3,Time
,,S48,1,女,22,anonymized,Serial_Dependence_U,2023.2.3,Win32,59.523809523799216,,,,,,1610.398600000024,80.0,4.0,1610.398800000012,80.0,,,,1614.5852000000475,1615.0827000000477,1614.0691000000238,1614.585100000024,1611.395300000012,1614.0690000000002,1615.0827000000477,1615.583400000036,1615.583400000036,1617.390100000024,1309.0,1617.3902000000478,2.0,1617.390400000036,4.0,6.0,126.0,24.0,1.0,1.6,0.3,Time
,,S48,1,女,22,anonymized,Serial_Dependence_U,2023.2.3,Win32,59.523809523799216,,,,,,1617.390800000012,159.0,4.0,1617.391,159.0,,,,1620.9454000000358,1621.4419000000355,1620.4277000000477,1620.9454000000358,1618.3885,1620.427600000024,1621.442,1621.9427000000478,1621.9427000000478,1624.1497000000477,1852.0,1624.149800000012,5.0,1624.150100000024,4.0,7.0,127.0,6.0,1.0,1.0,0.7,Time
,,S48,1,女,22,anonymized,Serial_Dependence_U,2023.2.3,Win32,59.523809523799216,,,,,,1624.1505000000002,4.0,4.0,1624.1506000000238,4.0,,,,1628.3067000000478,1628.802600000024,1627.7897000000478,1628.3067000000478,1625.152100000024,1627.789600000024,1628.802600000024,1629.3032000000478,1629.303300000012,1632.195200000048,2303.0,1632.195300000012,5.0,1632.1957000000475,4.0,8.0,128.0,29.0,1.0,1.6,0.7,Time
,,S48,1,女,22,anonymized,Serial_Dependence_U,2023.2.3,Win32,59.523809523799216,,,,,,1632.196100000024,147.0,4.0,1632.196100000024,147.0,,,,1635.796800000012,1636.300800000012,1635.282900000036,1635.7965000000002,1633.2131000000238,1635.282800000012,1636.300800000012,1636.797400000036,1636.7975,1639.8227000000477,2603.0,1639.822800000012,5.0,1639.823100000024,4.0,9.0,129.0,21.0,1.0,1.0,0.3,Time
,,S48,1,女,22,anonymized,Serial_Dependence_U,2023.2.3,Win32,59.523809523799216,,,,,,1639.8235,143.0,4.0,1639.8235,143.0,,,,1643.1602000000478,1643.6574000000358,1642.6570000000002,1643.160100000024,1640.821,1642.656800000012,1643.6575,1644.1582000000478,1644.1582000000478,1646.517100000024,1951.0,1646.5172000000478,5.0,1646.5175000000002,4.0,10.0,130.0,25.0,1.0,0.8,0.7,Time
,,S48,1,女,22,anonymized,Serial_Dependence_U,2023.2.3,Win32,59.523809523799216,,,,,,1646.5179000000358,7.0,4.0,1646.518100000024,7.0,,,,1650.267600000024,1650.768100000024,1649.755,1650.267300000012,1647.5134000000355,1649.7549000000358,1650.7682000000475,1651.268300000012,1651.268400000036,1653.327,1670.0,1653.327,5.0,1653.3274000000358,4.0,11.0,131.0,17.0,1.0,1.2,0.7,Time
,,S48,1,女,22,anonymized,Serial_Dependence_U,2023.2.3,Win32,59.523809523799216,,,,,,1653.327800000012,224.0,4.0,1653.328,224.0,,,,1656.8770000000002,1657.3772000000477,1656.3647000000478,1656.876900000036,1654.327300000012,1656.364600000024,1657.3774000000358,1657.878100000024,1657.878100000024,1660.103300000012,1877.0,1660.103400000036,5.0,1660.103700000048,4.0,12.0,132.0,26.0,1.0,1.0,0.7,Time
,,S48,1,女,22,anonymized,Serial_Dependence_U,2023.2.3,Win32,59.523809523799216,,,,,,1660.104,45.0,4.0,1660.1042000000475,45.0,,,,1663.8744000000358,1664.370800000012,1663.3729000000358,1663.874300000012,1661.1039000000358,1663.372800000012,1664.370800000012,1664.8715,1664.8715,1667.5422000000478,2281.0,1667.5424000000355,5.0,1667.5429000000358,4.0,13.0,133.0,2.0,1.0,1.2,0.3,Time
,,S48,1,女,22,anonymized,Serial_Dependence_U,2023.2.3,Win32,59.523809523799216,,,,,,1667.543300000012,7.0,4.0,1667.5435,7.0,,,,1671.0982000000477,1671.597800000012,1670.585300000012,1671.098100000024,1668.547600000024,1670.5852000000475,1671.5980000000002,1672.099600000024,1672.099600000024,1675.1570000000002,2603.0,1675.157100000024,5.0,1675.1574000000358,4.0,14.0,134.0,16.0,1.0,1.0,0.7,Time
,,S48,1,女,22,anonymized,Serial_Dependence_U,2023.2.3,Win32,59.523809523799216,,,,,,1675.1577000000475,216.0,4.0,1675.158,216.0,,,,1679.1452000000477,1679.642800000012,1678.6302000000478,1679.145,1676.159300000012,1678.630100000024,1679.6429000000358,1680.143600000024,1680.1437000000478,1682.5522000000478,2020.0,1682.552300000012,5.0,1682.5525,4.0,15.0,135.0,13.0,1.0,1.4,0.3,Time
,,S48,1,女,22,anonymized,Serial_Dependence_U,2023.2.3,Win32,59.523809523799216,,,,,,1682.552800000012,161.0,4.0,1682.5529000000358,161.0,,,,1686.324800000012,1686.8200000000002,1685.8195,1686.324700000048,1683.554400000036,1685.819300000012,1686.820100000024,1687.320600000024,1687.320600000024,1690.1622000000475,2202.0,1690.1622000000475,5.0,1690.162600000024,4.0,16.0,136.0,22.0,1.0,1.2,0.3,Time
,,S48,1,女,22,anonymized,Serial_Dependence_U,2023.2.3,Win32,59.523809523799216,,,,,,1690.163,42.0,4.0,1690.1632000000477,42.0,,,,1694.335600000024,1694.831400000036,1693.833300000012,1694.3352000000475,1691.16,1693.8332000000478,1694.8315,1695.333300000012,1695.333400000036,1696.904800000012,1017.0,1696.905,1.0,1696.905300000012,4.0,17.0,137.0,14.0,1.0,1.6,0.3,Time
,,S48,1,女,22,anonymized,Serial_Dependence_U,2023.2.3,Win32,59.523809523799216,,,,,,1696.905600000024,239.0,4.0,1696.905800000012,239.0,,,,1701.0585,1701.557900000036,1700.540800000012,1701.0584000000358,1697.906300000012,1700.5405,1701.558,1702.0587000000478,1702.0587000000478,1706.202300000012,3513.0,1706.2024000000358,5.0,1706.2027000000478,4.0,18.0,138.0,9.0,1.0,1.6,0.7,Time
,,S48,1,女,22,anonymized,Serial_Dependence_U,2023.2.3,Win32,59.523809523799216,,,,,,1706.2031000000238,45.0,4.0,1706.203300000012,45.0,,,,1709.590800000012,1710.086900000036,1709.0737000000477,1709.5907000000475,1707.2005,1709.0736000000238,1710.087,1710.587600000024,1710.5877000000478,1716.9676000000238,2101.0,1716.9677000000477,5.0,1716.968,4.0,19.0,139.0,20.0,1.0,0.8,0.3,Time
,,S48,1,女,22,anonymized,Serial_Dependence_U,2023.2.3,Win32,59.523809523799216,,,,,,1716.968400000036,145.0,4.0,1716.9685000000002,145.0,,,,1721.1199000000358,1721.620300000012,1720.6072000000477,1721.1197000000475,1717.9654000000355,1720.6071000000238,1721.620400000036,1722.1209000000358,1722.121,1724.680100000024,1920.0,1724.680100000024,4.0,1724.680400000036,4.0,20.0,140.0,19.0,1.0,1.6,0.7,Time
,,S48,1,女,22,anonymized,Serial_Dependence_U,2023.2.3,Win32,59.523809523799216,,,,,,1724.680800000012,137.0,4.0,1724.6809000000358,137.0,,,,1728.6312000000478,1729.131100000024,1728.1174000000358,1728.631100000024,1725.6795000000002,1728.117300000012,1729.1312000000478,1729.631800000012,1729.6319000000358,1731.4350000000002,1282.0,1731.435100000024,2.0,1731.4355,4.0,21.0,141.0,18.0,1.0,1.4,0.7,Time
,,S48,1,女,22,anonymized,Serial_Dependence_U,2023.2.3,Win32,59.523809523799216,,,,,,1731.436300000012,210.0,4.0,1731.4365,210.0,,,,1735.627100000024,1736.1245,1735.110400000036,1735.6270000000002,1732.4367000000475,1735.110400000036,1736.1245,1736.6257000000478,1736.6257000000478,1738.700400000036,1385.0,1738.700400000036,2.0,1738.7007000000478,4.0,22.0,142.0,4.0,1.0,1.6,0.3,Time
,,S48,1,女,22,anonymized,Serial_Dependence_U,2023.2.3,Win32,59.523809523799216,,,,,,1738.701,200.0,4.0,1738.7012000000475,200.0,,,,1742.0704000000358,1742.567600000024,1741.569600000024,1742.070300000012,1739.697100000024,1741.5694000000358,1742.567600000024,1743.0715,1743.0715,1747.4302000000478,704.0,1747.4302000000478,2.0,1747.430400000036,4.0,23.0,143.0,0.0,1.0,0.8,0.3,Time
,,S48,1,女,22,anonymized,Serial_Dependence_U,2023.2.3,Win32,59.523809523799216,,,,,,1747.430800000012,286.0,4.0,1747.4309000000358,286.0,,,,1751.413800000012,1751.9141000000238,1750.899800000012,1751.4137000000478,1748.426300000012,1750.8997000000477,1751.9142000000477,1752.414800000012,1752.4150000000002,1754.9857000000477,1547.0,1754.9857000000477,4.0,1754.986300000012,4.0,24.0,144.0,23.0,1.0,1.4,0.3,Time
,,S48,1,女,22,anonymized,Serial_Dependence_U,2023.2.3,Win32,59.523809523799216,,,,,,1754.987,139.0,4.0,1754.987100000024,139.0,,,,1758.978800000012,1759.475300000012,1758.458,1758.9785000000002,1755.991,1758.4576000000238,1759.475300000012,1759.9757000000477,1759.975800000012,1762.6002000000478,2085.0,1762.600300000012,5.0,1762.6007000000477,4.0,25.0,145.0,3.0,1.0,1.4,0.3,Time
,,S48,1,女,22,anonymized,Serial_Dependence_U,2023.2.3,Win32,59.523809523799216,,,,,,1762.601100000024,159.0,4.0,1762.601300000012,159.0,,,,1765.955200000048,1766.451800000012,1765.4377000000477,1765.955100000024,1763.598600000024,1765.4376000000238,1766.451900000036,1766.9527000000478,1766.9527000000478,1769.122600000024,1727.0,1769.122700000048,5.0,1769.123100000024,4.0,26.0,146.0,5.0,1.0,0.8,0.7,Time
,,S48,1,女,22,anonymized,Serial_Dependence_U,2023.2.3,Win32,59.523809523799216,,,,,,1769.123800000012,323.0,4.0,1769.124,323.0,,,,1772.481900000036,1772.9779000000358,1771.9644000000358,1772.4817000000478,1770.1247000000478,1771.964300000012,1772.9779000000358,1773.478800000012,1773.4789000000358,1774.6312000000478,735.0,1774.631300000012,2.0,1774.632,4.0,27.0,147.0,15.0,1.0,0.8,0.7,Time
,,S48,1,女,22,anonymized,Serial_Dependence_U,2023.2.3,Win32,59.523809523799216,,,,,,1774.6325000000002,47.0,4.0,1774.632800000012,47.0,,,,1778.220300000012,1778.719800000012,1777.705300000012,1778.220100000024,1775.632300000012,1777.705100000024,1778.7199000000358,1779.220300000012,1779.2205,1781.4440000000002,1702.0,1781.4441000000238,5.0,1781.444300000012,4.0,28.0,148.0,1.0,1.0,1.0,0.3,Time
,,S48,1,女,22,anonymized,Serial_Dependence_U,2023.2.3,Win32,59.523809523799216,,,,,,1781.4445,160.0,4.0,1781.4447000000478,160.0,,,,1785.400800000012,1785.896800000012,1784.882700000048,1785.400800000012,1782.445900000036,1784.8825000000002,1785.896800000012,1786.397300000012,1786.3974000000358,1788.254100000024,1452.0,1788.254100000024,3.0,1788.2545,4.0,29.0,149.0,8.0,1.0,1.4,0.7,Time
,,S48,1,女,22,anonymized,Serial_Dependence_U,2023.2.3,Win32,59.523809523799216,,,,,,1788.2549000000358,319.0,5.0,1791.955600000024,319.0,s,3.6756999999879554,,1795.9454000000358,1796.445100000024,1795.4319000000355,1795.945200000048,1792.9631000000238,1795.431800000012,1796.445200000048,1796.945900000036,1796.946,1799.401,1965.0,1799.4012000000478,5.0,1799.4015000000002,5.0,0.0,150.0,23.0,1.0,1.4,0.3,Time
,,S48,1,女,22,anonymized,Serial_Dependence_U,2023.2.3,Win32,59.523809523799216,,,,,,1799.4019000000358,128.0,5.0,1799.4032000000475,128.0,,,,1803.343100000024,1803.839700000048,1802.8415,1803.343100000024,1800.406300000012,1802.841400000036,1803.839700000048,1804.339900000036,1804.340100000024,1806.698800000012,1903.0,1806.698800000012,5.0,1806.699200000048,5.0,1.0,151.0,28.0,1.0,1.4,0.7,Time
,,S48,1,女,22,anonymized,Serial_Dependence_U,2023.2.3,Win32,59.523809523799216,,,,,,1806.699600000024,167.0,5.0,1806.699800000012,167.0,,,,1810.286300000012,1810.782600000024,1809.769200000048,1810.286200000048,1807.695700000048,1809.769,1810.782700000048,1811.283400000036,1811.2835,1813.825,2090.0,1813.825,5.0,1813.825300000012,5.0,2.0,152.0,1.0,1.0,1.0,0.3,Time
,,S48,1,女,22,anonymized,Serial_Dependence_U,2023.2.3,Win32,59.523809523799216,,,,,,1813.825700000048,71.0,5.0,1813.825800000012,71.0,,,,1817.579200000048,1818.0765,1817.061800000012,1817.579100000024,1814.826,1817.061800000012,1818.0765,1818.577300000012,1818.577400000036,1820.435,1337.0,1820.435100000024,4.0,1820.435300000012,5.0,3.0,153.0,27.0,1.0,1.2,0.7,Time
,,S48,1,女,22,anonymized,Serial_Dependence_U,2023.2.3,Win32,59.523809523799216,,,,,,1820.435700000048,70.0,5.0,1820.435900000036,70.0,,,,1824.220400000036,1824.721700000048,1823.7075,1824.220100000024,1821.435,1823.707400000036,1824.721700000048,1825.220400000036,1825.2205,1827.879800000012,2251.0,1827.879900000036,5.0,1827.880200000048,5.0,4.0,154.0,12.0,1.0,1.2,0.3,Time
,,S48,1,女,22,anonymized,Serial_Dependence_U,2023.2.3,Win32,59.523809523799216,,,,,,1827.880600000024,171.0,5.0,1827.880800000012,171.0,,,,1831.430200000048,1831.930100000024,1830.917100000024,1831.430100000024,1828.877300000012,1830.917,1831.930100000024,1832.430700000048,1832.430800000012,1835.323300000012,2520.0,1835.323300000012,5.0,1835.323600000024,5.0,5.0,155.0,6.0,1.0,1.0,0.7,Time
,,S48,1,女,22,anonymized,Serial_Dependence_U,2023.2.3,Win32,59.523809523799216,,,,,,1835.323900000036,6.0,5.0,1835.324,6.0,,,,1839.462100000024,1839.958300000012,1838.959200000048,1839.462,1836.320200000048,1838.959100000024,1839.958400000036,1840.459,1840.459,1843.063,2089.0,1843.063100000024,5.0,1843.063600000024,5.0,6.0,156.0,9.0,1.0,1.6,0.7,Time
,,S48,1,女,22,anonymized,Serial_Dependence_U,2023.2.3,Win32,59.523809523799216,,,,,,1843.064400000036,259.0,5.0,1843.064600000024,259.0,,,,1847.207600000024,1847.702800000012,1846.706300000012,1847.2075,1844.068600000024,1846.706200000048,1847.702800000012,1848.203600000024,1848.203700000048,1850.577700000048,1903.0,1850.577800000012,4.0,1850.578,5.0,7.0,157.0,19.0,1.0,1.6,0.7,Time
,,S48,1,女,22,anonymized,Serial_Dependence_U,2023.2.3,Win32,59.523809523799216,,,,,,1850.5785,159.0,5.0,1850.578600000024,159.0,,,,1854.166600000024,1854.663100000024,1853.649400000036,1854.1665,1851.5785,1853.649200000048,1854.663200000048,1855.163800000012,1855.163800000012,1857.905900000036,2271.0,1857.906100000024,5.0,1857.906300000012,5.0,8.0,158.0,21.0,1.0,1.0,0.3,Time
,,S48,1,女,22,anonymized,Serial_Dependence_U,2023.2.3,Win32,59.523809523799216,,,,,,1857.906700000048,281.0,5.0,1857.906900000036,281.0,,,,1861.243600000024,1861.74,1860.742700000048,1861.2435,1858.907,1860.742600000024,1861.740100000024,1862.240800000012,1862.240900000036,1865.032800000012,2270.0,1865.032800000012,5.0,1865.033100000024,5.0,9.0,159.0,5.0,1.0,0.8,0.7,Time
,,S48,1,女,22,anonymized,Serial_Dependence_U,2023.2.3,Win32,59.523809523799216,,,,,,1865.033400000036,310.0,5.0,1865.033600000024,310.0,,,,1869.218600000024,1869.717900000036,1868.703700000048,1869.218400000036,1866.030300000012,1868.7035,1869.718,1870.218700000048,1870.218800000012,1873.695900000036,3057.0,1873.696,5.0,1873.696300000012,5.0,10.0,160.0,4.0,1.0,1.6,0.3,Time
,,S48,1,女,22,anonymized,Serial_Dependence_U,2023.2.3,Win32,59.523809523799216,,,,,,1873.696700000048,260.0,5.0,1873.696800000012,260.0,,,,1877.046300000012,1877.546,1876.531300000012,1877.046,1874.696400000036,1876.531200000048,1877.546100000024,1878.046800000012,1878.046800000012,1880.872900000036,2358.0,1880.872900000036,5.0,1880.873200000048,5.0,11.0,161.0,25.0,1.0,0.8,0.7,Time
,,S48,1,女,22,anonymized,Serial_Dependence_U,2023.2.3,Win32,59.523809523799216,,,,,,1880.873600000024,187.0,5.0,1880.873800000012,187.0,,,,1885.011300000012,1885.507700000048,1884.5105,1885.011300000012,1881.873300000012,1884.510400000036,1885.507800000012,1886.008200000048,1886.008300000012,1889.3845,2953.0,1889.3845,5.0,1889.384900000036,5.0,12.0,162.0,29.0,1.0,1.6,0.7,Time
,,S48,1,女,22,anonymized,Serial_Dependence_U,2023.2.3,Win32,59.523809523799216,,,,,,1889.385300000012,161.0,5.0,1889.385400000036,161.0,,,,1892.922900000036,1893.418900000036,1892.422300000012,1892.922800000012,1890.381700000048,1892.422200000048,1893.418900000036,1893.919700000048,1893.919800000012,1896.979400000036,2572.0,1896.979400000036,5.0,1896.979800000012,5.0,13.0,163.0,16.0,1.0,1.0,0.7,Time
,,S48,1,女,22,anonymized,Serial_Dependence_U,2023.2.3,Win32,59.523809523799216,,,,,,1896.980200000048,10.0,5.0,1896.980300000012,10.0,,,,1900.7675,1901.263600000024,1900.250200000048,1900.7675,1897.976400000036,1900.25,1901.263700000048,1901.764300000012,1901.764400000036,1903.0705,884.0,1903.070600000024,2.0,1903.070800000012,5.0,14.0,164.0,2.0,1.0,1.2,0.3,Time
,,S48,1,女,22,anonymized,Serial_Dependence_U,2023.2.3,Win32,59.523809523799216,,,,,,1903.071200000048,142.0,5.0,1903.071300000012,142.0,,,,1906.409900000036,1906.905200000048,1905.907600000024,1906.409900000036,1904.071300000012,1905.907400000036,1906.905200000048,1907.405900000036,1907.406,1909.147900000036,1380.0,1909.147900000036,5.0,1909.148700000048,5.0,15.0,165.0,15.0,1.0,0.8,0.7,Time
,,S48,1,女,22,anonymized,Serial_Dependence_U,2023.2.3,Win32,59.523809523799216,,,,,,1909.149,18.0,5.0,1909.149200000048,18.0,,,,1912.530800000012,1913.031,1912.016100000024,1912.530600000024,1910.148,1912.016,1913.031,1913.531300000012,1913.531400000036,1915.523,1403.0,1915.523,5.0,1915.523400000036,5.0,16.0,166.0,0.0,1.0,0.8,0.3,Time
,,S48,1,女,22,anonymized,Serial_Dependence_U,2023.2.3,Win32,59.523809523799216,,,,,,1915.523800000012,93.0,5.0,1915.524,93.0,,,,1919.494300000012,1919.990700000048,1918.993700000048,1919.494200000048,1916.523,1918.993600000024,1919.990700000048,1920.491400000036,1920.4915,1922.332,1418.0,1922.332200000048,3.0,1922.3325,5.0,17.0,167.0,13.0,1.0,1.4,0.3,Time
,,S48,1,女,22,anonymized,Serial_Dependence_U,2023.2.3,Win32,59.523809523799216,,,,,,1922.332900000036,73.0,5.0,1922.333100000024,73.0,,,,1926.321700000048,1926.817300000012,1925.803,1926.3215,1923.329700000048,1925.802900000036,1926.817300000012,1927.318,1927.318100000024,1930.239100000024,2130.0,1930.239100000024,5.0,1930.239600000024,5.0,18.0,168.0,3.0,1.0,1.4,0.3,Time
,,S48,1,女,22,anonymized,Serial_Dependence_U,2023.2.3,Win32,59.523809523799216,,,,,,1930.240100000024,94.0,5.0,1930.240200000048,94.0,,,,1933.994700000048,1934.495100000024,1933.480600000024,1933.994600000024,1931.243800000012,1933.4805,1934.495200000048,1934.995800000012,1934.995900000036,1937.288600000024,1800.0,1937.288600000024,5.0,1937.288800000012,5.0,19.0,169.0,17.0,1.0,1.2,0.7,Time
,,S48,1,女,22,anonymized,Serial_Dependence_U,2023.2.3,Win32,59.523809523799216,,,,,,1937.289300000012,115.0,5.0,1937.289400000036,115.0,,,,1940.858300000012,1941.355200000048,1940.357700000048,1940.858200000048,1938.285600000024,1940.357600000024,1941.355300000012,1941.855800000012,1941.855900000036,1943.6134000000357,1249.0,1943.6134000000357,4.0,1943.6137000000476,5.0,20.0,170.0,11.0,1.0,1.0,0.3,Time
,,S48,1,女,22,anonymized,Serial_Dependence_U,2023.2.3,Win32,59.523809523799216,,,,,,1943.614100000024,20.0,5.0,1943.6142000000475,20.0,,,,1947.569300000012,1948.0647000000477,1947.0512000000476,1947.5692000000477,1944.61,1947.0512000000476,1948.0647000000477,1948.565800000012,1948.565900000036,1951.774800000012,2754.0,1951.774900000036,5.0,1951.775200000048,5.0,21.0,171.0,18.0,1.0,1.4,0.7,Time
,,S48,1,女,22,anonymized,Serial_Dependence_U,2023.2.3,Win32,59.523809523799216,,,,,,1951.775600000024,100.0,5.0,1951.775800000012,100.0,,,,1955.513,1956.0095,1955.012,1955.513,1952.7764000000357,1955.012,1956.009600000024,1956.510100000024,1956.510200000048,1959.269300000012,2343.0,1959.269400000036,5.0,1959.269800000012,5.0,22.0,172.0,7.0,1.0,1.2,0.7,Time
,,S48,1,女,22,anonymized,Serial_Dependence_U,2023.2.3,Win32,59.523809523799216,,,,,,1959.2702000000477,188.0,5.0,1959.270300000012,188.0,,,,1962.823300000012,1963.320300000012,1962.306300000012,1962.8231000000235,1960.268100000024,1962.3062000000475,1963.320400000036,1963.8209000000356,1963.821,1966.908900000036,2525.0,1966.909100000024,5.0,1966.909600000024,5.0,23.0,173.0,26.0,1.0,1.0,0.7,Time
,,S48,1,女,22,anonymized,Serial_Dependence_U,2023.2.3,Win32,59.523809523799216,,,,,,1966.909900000036,47.0,5.0,1966.9104000000357,47.0,,,,1970.300800000012,1970.797800000012,1969.783,1970.300600000024,1967.910800000012,1969.7829000000356,1970.797800000012,1971.298300000012,1971.298300000012,1974.056600000024,2303.0,1974.056600000024,5.0,1974.057,5.0,24.0,174.0,20.0,1.0,0.8,0.3,Time
,,S48,1,女,22,anonymized,Serial_Dependence_U,2023.2.3,Win32,59.523809523799216,,,,,,1974.057400000036,19.0,5.0,1974.0575,19.0,,,,1978.245600000024,1978.742600000024,1977.728,1978.2455,1975.054400000036,1977.727900000036,1978.742600000024,1979.2432000000476,1979.2432000000476,1982.8212000000476,3150.0,1982.8214000000355,5.0,1982.821600000024,5.0,25.0,175.0,24.0,1.0,1.6,0.3,Time
,,S48,1,女,22,anonymized,Serial_Dependence_U,2023.2.3,Win32,59.523809523799216,,,,,,1982.822,42.0,5.0,1982.822200000048,42.0,,,,1986.608300000012,1987.1044000000356,1986.090700000048,1986.608200000048,1983.8217000000477,1986.090600000024,1987.1044000000356,1987.605300000012,1987.605300000012,1991.0979000000357,3071.0,1991.098,5.0,1991.0982000000477,5.0,26.0,176.0,22.0,1.0,1.2,0.3,Time
,,S48,1,女,22,anonymized,Serial_Dependence_U,2023.2.3,Win32,59.523809523799216,,,,,,1991.098600000024,278.0,5.0,1991.098800000012,278.0,,,,1995.050400000036,1995.550200000048,1994.5332000000476,1995.050200000048,1992.0954000000356,1994.5329000000356,1995.550200000048,1996.050800000012,1996.0509000000357,1999.343800000012,2904.0,1999.3439000000355,5.0,1999.3442000000475,5.0,27.0,177.0,8.0,1.0,1.4,0.7,Time
,,S48,1,女,22,anonymized,Serial_Dependence_U,2023.2.3,Win32,59.523809523799216,,,,,,1999.3445,277.0,5.0,1999.344700000048,277.0,,,,2003.532700000048,2004.029,2003.0154000000357,2003.5325,2000.344400000036,2003.015300000012,2004.029,2004.529800000012,2004.529900000036,2007.9715,3070.0,2007.971600000024,5.0,2007.971800000012,5.0,28.0,178.0,14.0,1.0,1.6,0.3,Time
,,S48,1,女,22,anonymized,Serial_Dependence_U,2023.2.3,Win32,59.523809523799216,,,,,,2007.972200000048,185.0,5.0,2007.972400000036,185.0,,,,2011.361300000012,2011.857,2010.8425,2011.3612000000476,2008.975600000024,2010.842400000036,2011.857100000024,2012.358300000012,2012.358300000012,2014.8172000000477,2054.0,2014.8172000000477,5.0,2014.817600000024,5.0,29.0,179.0,10.0,1.0,0.8,0.3,Time
,,S48,1,女,22,anonymized,Serial_Dependence_U,2023.2.3,Win32,59.523809523799216,,,,,,2014.818100000024,136.0,6.0,2016.964600000024,136.0,s,2.120600000023842,,2020.523600000024,2021.021400000036,2020.0075,2020.5235,2017.966900000036,2020.007400000036,2021.0215,2021.521,2021.521100000024,2023.896700000048,1703.0,2023.896800000012,5.0,2023.897100000024,6.0,0.0,180.0,26.0,1.0,1.0,0.7,Time
,,S48,1,女,22,anonymized,Serial_Dependence_U,2023.2.3,Win32,59.523809523799216,,,,,,2023.8975,230.0,6.0,2023.898600000024,230.0,,,,2027.635200000048,2028.130600000024,2027.1325,2027.635100000024,2024.893,2027.132400000036,2028.130700000048,2028.6314000000357,2028.6315,2030.523300000012,1470.0,2030.523300000012,4.0,2030.523700000048,6.0,1.0,181.0,7.0,1.0,1.2,0.7,Time
,,S48,1,女,22,anonymized,Serial_Dependence_U,2023.2.3,Win32,59.523809523799216,,,,,,2030.523900000036,286.0,6.0,2030.524,286.0,,,,2034.677200000048,2035.174100000024,2034.160300000012,2034.677200000048,2031.5197000000476,2034.1602000000476,2035.1742000000477,2035.674900000036,2035.675,2037.9504000000356,1821.0,2037.9506000000235,4.0,2037.950800000012,6.0,2.0,182.0,9.0,1.0,1.6,0.7,Time
,,S48,1,女,22,anonymized,Serial_Dependence_U,2023.2.3,Win32,59.523809523799216,,,,,,2037.951100000024,158.0,6.0,2037.951300000012,158.0,,,,2041.5005,2042.000800000012,2040.987700000048,2041.500400000036,2038.951,2040.987600000024,2042.000800000012,2042.5015,2042.5016000000237,2044.2252000000476,1201.0,2044.225300000012,4.0,2044.225600000024,6.0,3.0,183.0,6.0,1.0,1.0,0.7,Time
,,S48,1,女,22,anonymized,Serial_Dependence_U,2023.2.3,Win32,59.523809523799216,,,,,,2044.226,309.0,6.0,2044.226100000024,309.0,,,,2048.4148000000114,2048.910700000048,2047.896100000024,2048.414700000048,2045.226200000048,2047.896,2048.910700000048,2049.411600000024,2049.411600000024,2051.969300000012,2036.0,2051.969300000012,4.0,2051.969600000024,6.0,4.0,184.0,14.0,1.0,1.6,0.3,Time
,,S48,1,女,22,anonymized,Serial_Dependence_U,2023.2.3,Win32,59.523809523799216,,,,,,2051.9699000000355,274.0,6.0,2051.970200000048,274.0,,,,2055.958200000048,2056.455,2055.439800000012,2055.9581000000235,2052.967200000048,2055.439700000047,2056.455100000024,2056.955600000024,2056.955700000048,2058.6304000000355,1269.0,2058.6305,2.0,2058.630800000012,6.0,5.0,185.0,13.0,1.0,1.4,0.3,Time
,,S48,1,女,22,anonymized,Serial_Dependence_U,2023.2.3,Win32,59.523809523799216,,,,,,2058.6311000000237,169.0,6.0,2058.631200000047,169.0,,,,2062.414100000024,2062.914700000048,2061.901600000024,2062.413900000036,2059.6276000000234,2061.901400000035,2062.914700000048,2063.415100000024,2063.415200000048,2065.355,1534.0,2065.3551000000234,4.0,2065.355400000036,6.0,6.0,186.0,2.0,1.0,1.2,0.3,Time
,,S48,1,女,22,anonymized,Serial_Dependence_U,2023.2.3,Win32,59.523809523799216,,,,,,2065.355800000012,133.0,6.0,2065.356,133.0,,,,2068.943700000047,2069.440300000012,2068.426900000036,2068.9436000000237,2066.3534000000354,2068.426800000012,2069.440300000012,2069.9436000000237,2069.9436000000237,2071.764300000012,1289.0,2071.764300000012,4.0,2071.764800000012,6.0,7.0,187.0,1.0,1.0,1.0,0.3,Time
,,S48,1,女,22,anonymized,Serial_Dependence_U,2023.2.3,Win32,59.523809523799216,,,,,,2071.765300000012,330.0,6.0,2071.765400000036,330.0,,,,2075.1025,2075.5994000000355,2074.598700000048,2075.1025,2072.762800000012,2074.5985,2075.5995000000003,2076.100200000047,2076.100200000047,2078.491800000012,2003.0,2078.4919000000355,5.0,2078.492200000048,6.0,8.0,188.0,5.0,1.0,0.8,0.7,Time
,,S48,1,女,22,anonymized,Serial_Dependence_U,2023.2.3,Win32,59.523809523799216,,,,,,2078.492600000024,181.0,6.0,2078.492900000036,181.0,,,,2082.6772000000474,2083.177,2082.1626000000238,2082.676900000036,2079.489400000036,2082.1624999999995,2083.177,2083.6777000000475,2083.677800000012,2086.403100000024,2331.0,2086.403200000048,5.0,2086.4034999999994,6.0,9.0,189.0,24.0,1.0,1.6,0.3,Time
,,S48,1,女,22,anonymized,Serial_Dependence_U,2023.2.3,Win32,59.523809523799216,,,,,,2086.403800000012,319.0,6.0,2086.403900000036,319.0,,,,2089.974900000036,2090.470900000036,2089.473,2089.974800000012,2087.400300000012,2089.473,2090.4709999999995,2090.9716000000235,2090.9716000000235,2093.562700000048,2154.0,2093.562700000048,5.0,2093.563,6.0,10.0,190.0,11.0,1.0,1.0,0.3,Time
,,S48,1,女,22,anonymized,Serial_Dependence_U,2023.2.3,Win32,59.523809523799216,,,,,,2093.563300000012,5.0,6.0,2093.5635,5.0,,,,2097.535,2098.031700000048,2097.033900000036,2097.534900000036,2094.5611000000235,2097.033900000036,2098.031700000048,2098.532700000048,2098.532700000048,2100.7572000000478,1821.0,2100.757300000012,5.0,2100.757600000024,6.0,11.0,191.0,23.0,1.0,1.4,0.3,Time
,,S48,1,女,22,anonymized,Serial_Dependence_U,2023.2.3,Win32,59.523809523799216,,,,,,2100.757900000036,312.0,6.0,2100.758100000024,312.0,,,,2104.542400000036,2105.041900000036,2104.0286000000237,2104.542300000012,2101.7545,2104.0284999999994,2105.0419999999995,2105.5427000000477,2105.542900000036,2109.2874999999995,3389.0,2109.2876000000238,5.0,2109.288,6.0,12.0,192.0,22.0,1.0,1.2,0.3,Time
,,S48,1,女,22,anonymized,Serial_Dependence_U,2023.2.3,Win32,59.523809523799216,,,,,,2109.288300000012,2.0,6.0,2109.2886000000235,2.0,,,,2112.670300000012,2113.1704000000354,2112.156800000012,2112.670100000024,2110.286300000012,2112.156600000024,2113.1704000000354,2113.6710000000003,2113.671100000024,2115.6783000000114,1634.0,2115.6784000000357,5.0,2115.678600000024,6.0,13.0,193.0,20.0,1.0,0.8,0.3,Time
,,S48,1,女,22,anonymized,Serial_Dependence_U,2023.2.3,Win32,59.523809523799216,,,,,,2115.679,40.0,6.0,2115.679200000048,40.0,,,,2119.2633000000114,2119.763200000048,2118.750100000024,2119.263100000024,2116.6788000000115,2118.75,2119.7633000000114,2120.264,2120.264100000024,2122.6377000000475,1901.0,2122.6377000000475,5.0,2122.638,6.0,14.0,194.0,21.0,1.0,1.0,0.3,Time
,,S48,1,女,22,anonymized,Serial_Dependence_U,2023.2.3,Win32,59.523809523799216,,,,,,2122.6384000000357,342.0,6.0,2122.638600000024,342.0,,,,2125.991800000012,2126.4897000000474,2125.475800000012,2125.991700000048,2123.636400000036,2125.4757000000477,2126.489800000012,2126.990400000036,2126.990400000036,2130.445600000024,3059.0,2130.4457000000475,5.0,2130.4463000000114,6.0,15.0,195.0,25.0,1.0,0.8,0.7,Time
,,S48,1,女,22,anonymized,Serial_Dependence_U,2023.2.3,Win32,59.523809523799216,,,,,,2130.4469000000354,177.0,6.0,2130.447200000048,177.0,,,,2134.3884000000357,2134.885100000024,2133.8877000000475,2134.3883000000114,2131.451,2133.887600000024,2134.885200000048,2135.385900000036,2135.3859999999995,2137.277600000024,1501.0,2137.277700000048,4.0,2137.278,6.0,16.0,196.0,18.0,1.0,1.4,0.7,Time
,,S48,1,女,22,anonymized,Serial_Dependence_U,2023.2.3,Win32,59.523809523799216,,,,,,2137.278400000036,154.0,6.0,2137.278800000012,154.0,,,,2141.4159000000354,2141.9120000000003,2140.914600000024,2141.415800000012,2138.2739999999994,2140.9145,2141.912100000024,2142.412800000012,2142.412900000036,2144.6377000000475,1878.0,2144.637800000012,4.0,2144.638100000024,6.0,17.0,197.0,29.0,1.0,1.6,0.7,Time
,,S48,1,女,22,anonymized,Serial_Dependence_U,2023.2.3,Win32,59.523809523799216,,,,,,2144.6385,329.0,6.0,2144.638700000048,329.0,,,,2148.3765000000003,2148.872200000047,2147.875600000024,2148.376400000036,2145.639,2147.8755,2148.872200000047,2149.373400000036,2149.3735,2151.4316000000235,1721.0,2151.4317000000474,5.0,2151.432,6.0,18.0,198.0,17.0,1.0,1.2,0.7,Time
,,S48,1,女,22,anonymized,Serial_Dependence_U,2023.2.3,Win32,59.523809523799216,,,,,,2151.432400000036,78.0,6.0,2151.432600000024,78.0,,,,2155.568900000036,2156.065800000012,2155.0679000000355,2155.568800000012,2152.4283000000114,2155.067800000012,2156.065800000012,2156.5665,2156.566600000024,2159.459400000035,2420.0,2159.4595,5.0,2159.459700000048,6.0,19.0,199.0,19.0,1.0,1.6,0.7,Time
,,S48,1,女,22,anonymized,Serial_Dependence_U,2023.2.3,Win32,59.523809523799216,,,,,,2159.460100000024,178.0,6.0,2159.460300000012,178.0,,,,2163.2121000000234,2163.710200000048,2162.697,2163.2119999999995,2160.456100000024,2162.6968000000115,2163.710200000048,2164.2109000000355,2164.211,2165.903100000024,1270.0,2165.903100000024,4.0,2165.9041000000234,6.0,20.0,200.0,27.0,1.0,1.2,0.7,Time
,,S48,1,女,22,anonymized,Serial_Dependence_U,2023.2.3,Win32,59.523809523799216,,,,,,2165.9045,42.0,6.0,2165.904700000048,42.0,,,,2169.2723000000115,2169.769300000012,2168.770400000036,2169.272200000048,2166.8989999999994,2168.770300000012,2169.769300000012,2170.269800000012,2170.269900000036,2173.1626000000238,2554.0,2173.162700000047,5.0,2173.163,6.0,21.0,201.0,10.0,1.0,0.8,0.3,Time
,,S48,1,女,22,anonymized,Serial_Dependence_U,2023.2.3,Win32,59.523809523799216,,,,,,2173.163400000036,23.0,6.0,2173.1636000000235,23.0,,,,2177.1494999999995,2177.647200000048,2176.632600000024,2177.1494999999995,2174.159300000012,2176.632600000024,2177.6473000000115,2178.1479000000354,2178.1479000000354,2180.872700000047,2366.0,2180.872800000012,5.0,2180.873,6.0,22.0,202.0,3.0,1.0,1.4,0.3,Time
,,S48,1,女,22,anonymized,Serial_Dependence_U,2023.2.3,Win32,59.523809523799216,,,,,,2180.8735,10.0,6.0,2180.873800000012,10.0,,,,2184.26,2184.757400000036,2183.7436000000234,2184.2599000000355,2181.870700000048,2183.7435,2184.7575,2185.2582000000475,2185.258300000012,2186.698700000047,1063.0,2186.698700000047,5.0,2186.699,6.0,23.0,203.0,0.0,1.0,0.8,0.3,Time
,,S48,1,女,22,anonymized,Serial_Dependence_U,2023.2.3,Win32,59.523809523799216,,,,,,2186.699300000012,80.0,6.0,2186.699600000024,80.0,,,,2190.6497000000472,2191.149800000012,2190.135400000036,2190.6496000000234,2187.697600000024,2190.135300000012,2191.149800000012,2191.6505,2191.650600000024,2193.574300000012,1568.0,2193.574300000012,4.0,2193.5745,6.0,24.0,204.0,8.0,1.0,1.4,0.7,Time
,,S48,1,女,22,anonymized,Serial_Dependence_U,2023.2.3,Win32,59.523809523799216,,,,,,2193.574900000036,183.0,6.0,2193.5752000000475,183.0,,,,2197.362,2197.8597000000477,2196.845300000012,2197.361900000036,2194.572100000024,2196.845200000048,2197.859800000012,2198.360400000036,2198.3605,2200.752400000036,2020.0,2200.752400000036,5.0,2200.7527000000478,6.0,25.0,205.0,12.0,1.0,1.2,0.3,Time
,,S48,1,女,22,anonymized,Serial_Dependence_U,2023.2.3,Win32,59.523809523799216,,,,,,2200.753,245.0,6.0,2200.7532000000474,245.0,,,,2204.2864000000354,2204.786300000012,2203.785400000035,2204.286300000012,2201.7526000000234,2203.785200000048,2204.7864000000354,2205.287100000024,2205.287100000024,2208.392,2232.0,2208.392100000024,5.0,2208.392300000012,6.0,26.0,206.0,16.0,1.0,1.0,0.7,Time
,,S48,1,女,22,anonymized,Serial_Dependence_U,2023.2.3,Win32,59.523809523799216,,,,,,2208.392700000048,161.0,6.0,2208.3929000000358,161.0,,,,2212.5814000000355,2213.081700000048,2212.064200000047,2212.581300000012,2209.3934000000354,2212.0641000000232,2213.081700000048,2213.582400000036,2213.582400000036,2217.071200000048,3215.0,2217.0713000000114,5.0,2217.0719000000354,6.0,27.0,207.0,4.0,1.0,1.6,0.3,Time
,,S48,1,女,22,anonymized,Serial_Dependence_U,2023.2.3,Win32,59.523809523799216,,,,,,2217.072300000012,288.0,6.0,2217.0725,288.0,,,,2221.0104999999994,2221.5104999999994,2220.509700000048,2221.010400000036,2218.072800000012,2220.509600000024,2221.5106000000237,2222.011300000012,2222.011400000036,2225.116200000048,2813.0,2225.116200000048,5.0,2225.1165,6.0,28.0,208.0,28.0,1.0,1.4,0.7,Time
,,S48,1,女,22,anonymized,Serial_Dependence_U,2023.2.3,Win32,59.523809523799216,,,,,,2225.1169000000355,108.0,6.0,2225.117,108.0,,,,2228.471300000012,2228.9716000000235,2227.970400000036,2228.4712000000472,2226.1344000000354,2227.970200000048,2228.9716000000235,2229.472100000024,2229.4722000000475,2231.3416000000234,1235.0,2231.341800000012,5.0,2231.3421000000235,6.0,29.0,209.0,15.0,1.0,0.8,0.7,Time
,,S48,1,女,22,anonymized,Serial_Dependence_U,2023.2.3,Win32,59.523809523799216,,,,,,2231.3425,322.0,7.0,2264.9905,322.0,s,33.635800000012296,,2269.130100000024,2269.630100000024,2268.629,2269.13,2265.991800000012,2268.628900000035,2269.630200000048,2270.130700000048,2270.130800000012,2273.152300000012,2622.0,2273.1524000000354,5.0,2273.152700000048,7.0,0.0,210.0,19.0,1.0,1.6,0.7,Time
,,S48,1,女,22,anonymized,Serial_Dependence_U,2023.2.3,Win32,59.523809523799216,,,,,,2273.153100000024,165.0,7.0,2273.154700000048,165.0,,,,2276.690900000036,2277.1912000000475,2276.190300000012,2276.690800000012,2274.1539999999995,2276.1902000000478,2277.1912000000475,2277.6918000000114,2277.6918000000114,2281.3974000000358,3279.0,2281.397600000024,5.0,2281.398,7.0,1.0,211.0,6.0,1.0,1.0,0.7,Time
,,S48,1,女,22,anonymized,Serial_Dependence_U,2023.2.3,Win32,59.523809523799216,,,,,,2281.398300000012,311.0,7.0,2281.3985,311.0,,,,2284.786600000024,2285.286300000012,2284.268700000048,2284.7865,2282.3989999999994,2284.268600000024,2285.286300000012,2285.7869000000355,2285.7869000000355,2289.242300000012,3002.0,2289.242400000036,5.0,2289.242800000012,7.0,2.0,212.0,10.0,1.0,0.8,0.3,Time
,,S48,1,女,22,anonymized,Serial_Dependence_U,2023.2.3,Win32,59.523809523799216,,,,,,2289.243200000047,120.0,7.0,2289.2435,120.0,,,,2293.014700000048,2293.514900000036,2292.514,2293.0145,2290.243800000012,2292.5139000000354,2293.514900000036,2294.015800000012,2294.015800000012,2297.621100000024,3152.0,2297.621200000048,5.0,2297.6215,7.0,3.0,213.0,22.0,1.0,1.2,0.3,Time
,,S48,1,女,22,anonymized,Serial_Dependence_U,2023.2.3,Win32,59.523809523799216,,,,,,2297.621800000012,290.0,7.0,2297.6220000000003,290.0,,,,2301.7604999999994,2302.261200000047,2301.2595,2301.7604999999994,2298.622700000047,2301.2595,2302.261200000047,2302.7615,2302.7616000000235,2305.899400000036,2812.0,2305.8994999999995,5.0,2305.899800000012,7.0,4.0,214.0,29.0,1.0,1.6,0.7,Time
,,S48,1,女,22,anonymized,Serial_Dependence_U,2023.2.3,Win32,59.523809523799216,,,,,,2305.900300000012,8.0,7.0,2305.9005,8.0,,,,2309.488800000012,2309.989400000036,2308.970900000036,2309.488600000024,2306.901300000012,2308.970800000012,2309.989400000036,2310.489400000036,2310.4896000000235,2313.176900000036,2290.0,2313.177,5.0,2313.177400000036,7.0,5.0,215.0,1.0,1.0,1.0,0.3,Time
,,S48,1,女,22,anonymized,Serial_Dependence_U,2023.2.3,Win32,59.523809523799216,,,,,,2313.177800000012,185.0,7.0,2313.177900000036,185.0,,,,2317.149900000036,2317.6497000000472,2316.6489999999994,2317.149800000012,2314.1784000000357,2316.648900000036,2317.649800000012,2318.150800000012,2318.150800000012,2320.5707000000475,2123.0,2320.570800000012,5.0,2320.571100000024,7.0,6.0,216.0,3.0,1.0,1.4,0.3,Time
,,S48,1,女,22,anonymized,Serial_Dependence_U,2023.2.3,Win32,59.523809523799216,,,,,,2320.571600000024,244.0,7.0,2320.5719000000354,244.0,,,,2324.5269000000358,2325.027600000024,2324.0095,2324.5268000000115,2321.5725,2324.0094000000354,2325.027600000024,2325.527800000012,2325.5279000000355,2328.1322000000478,2056.0,2328.132300000012,5.0,2328.1325,7.0,7.0,217.0,28.0,1.0,1.4,0.7,Time
,,S48,1,女,22,anonymized,Serial_Dependence_U,2023.2.3,Win32,59.523809523799216,,,,,,2328.132900000036,267.0,7.0,2328.133100000024,267.0,,,,2331.920800000012,2332.421100000024,2331.4034999999994,2331.920800000012,2329.133400000035,2331.403400000036,2332.421100000024,2332.921800000012,2332.921900000036,2336.794100000024,3379.0,2336.794200000048,5.0,2336.7945,7.0,8.0,218.0,2.0,1.0,1.2,0.3,Time
,,S48,1,女,22,anonymized,Serial_Dependence_U,2023.2.3,Win32,59.523809523799216,,,,,,2336.795,247.0,7.0,2336.795200000048,247.0,,,,2340.1829000000357,2340.683,2339.665600000024,2340.182700000048,2337.7960000000003,2339.6655,2340.683100000024,2341.183700000048,2341.183700000048,2344.522200000048,2938.0,2344.5224000000358,5.0,2344.522600000024,7.0,9.0,219.0,0.0,1.0,0.8,0.3,Time
,,S48,1,女,22,anonymized,Serial_Dependence_U,2023.2.3,Win32,59.523809523799216,,,,,,2344.5229000000354,84.0,7.0,2344.523200000048,84.0,,,,2348.261200000047,2348.761800000012,2347.760400000036,2348.261100000024,2345.523800000012,2347.760400000036,2348.761800000012,2349.262100000024,2349.262100000024,2352.917400000036,2842.0,2352.9176000000234,5.0,2352.917900000036,7.0,10.0,220.0,17.0,1.0,1.2,0.7,Time
,,S48,1,女,22,anonymized,Serial_Dependence_U,2023.2.3,Win32,59.523809523799216,,,,,,2352.9181000000235,35.0,7.0,2352.9185,35.0,,,,2356.472900000035,2356.973200000048,2355.955700000048,2356.472700000048,2353.9194000000352,2355.955600000024,2356.9733000000115,2357.474300000012,2357.474300000012,2360.463300000012,2691.0,2360.463300000012,5.0,2360.4635,7.0,11.0,221.0,26.0,1.0,1.0,0.7,Time
,,S48,1,女,22,anonymized,Serial_Dependence_U,2023.2.3,Win32,59.523809523799216,,,,,,2360.464,166.0,7.0,2360.464200000048,166.0,,,,2364.651600000024,2365.1518000000115,2364.1343000000115,2364.6515,2361.463600000024,2364.134200000048,2365.1518000000115,2365.6524000000354,2365.6525,2369.392,3150.0,2369.392100000024,5.0,2369.392400000035,7.0,12.0,222.0,4.0,1.0,1.6,0.3,Time
,,S48,1,女,22,anonymized,Serial_Dependence_U,2023.2.3,Win32,59.523809523799216,,,,,,2369.3929000000358,7.0,7.0,2369.393100000024,7.0,,,,2372.947100000024,2373.447100000024,2372.429900000036,2372.947,2370.3933000000115,2372.429800000012,2373.447200000048,2373.9479999999994,2373.9481000000237,2376.8523000000114,2537.0,2376.8524000000352,5.0,2376.852900000036,7.0,13.0,223.0,16.0,1.0,1.0,0.7,Time
,,S48,1,女,22,anonymized,Serial_Dependence_U,2023.2.3,Win32,59.523809523799216,,,,,,2376.853300000012,206.0,7.0,2376.8535,206.0,,,,2380.808200000048,2381.3085,2380.291100000024,2380.808,2377.854100000024,2380.291,2381.3085,2381.809800000012,2381.809900000036,2384.7807000000475,2663.0,2384.7807000000475,5.0,2384.781,7.0,14.0,224.0,8.0,1.0,1.4,0.7,Time
,,S48,1,女,22,anonymized,Serial_Dependence_U,2023.2.3,Win32,59.523809523799216,,,,,,2384.7813000000115,190.0,7.0,2384.781700000048,190.0,,,,2388.1191000000235,2388.619400000036,2387.618200000047,2388.119,2385.782200000048,2387.618200000047,2388.6195,2389.1203000000114,2389.1204000000357,2390.9896000000235,1481.0,2390.9897000000474,5.0,2390.990100000024,7.0,15.0,225.0,25.0,1.0,0.8,0.7,Time
,,S48,1,女,22,anonymized,Serial_Dependence_U,2023.2.3,Win32,59.523809523799216,,,,,,2390.9905,303.0,7.0,2390.990700000048,303.0,,,,2395.145900000036,2395.645800000012,2394.6285,2395.145800000012,2391.991,2394.628300000012,2395.645800000012,2396.1467000000475,2396.1467000000475,2398.768,2153.0,2398.768100000024,5.0,2398.7685,7.0,16.0,226.0,9.0,1.0,1.6,0.7,Time
,,S48,1,女,22,anonymized,Serial_Dependence_U,2023.2.3,Win32,59.523809523799216,,,,,,2398.768800000012,65.0,7.0,2398.769,65.0,,,,2402.523200000048,2403.023300000012,2402.0055,2402.523200000048,2399.769300000012,2402.0055,2403.0234000000355,2403.5239999999994,2403.5239999999994,2405.7290000000003,1800.0,2405.729100000024,5.0,2405.729400000036,7.0,17.0,227.0,27.0,1.0,1.2,0.7,Time
,,S48,1,女,22,anonymized,Serial_Dependence_U,2023.2.3,Win32,59.523809523799216,,,,,,2405.729800000012,154.0,7.0,2405.7301000000234,154.0,,,,2409.065800000012,2409.566,2408.565,2409.0657000000474,2406.729300000012,2408.565,2409.566,2410.0669000000357,2410.0669000000357,2412.871100000024,2466.0,2412.871200000048,5.0,2412.871600000024,7.0,18.0,228.0,5.0,1.0,0.8,0.7,Time
,,S48,1,女,22,anonymized,Serial_Dependence_U,2023.2.3,Win32,59.523809523799216,,,,,,2412.872100000024,295.0,7.0,2412.872300000012,295.0,,,,2416.860400000036,2417.3607000000475,2416.343300000012,2416.860200000048,2413.873,2416.3432000000475,2417.3607000000475,2417.8614000000352,2417.8615,2420.5989000000354,2405.0,2420.5989000000354,5.0,2420.599300000012,7.0,19.0,229.0,13.0,1.0,1.4,0.3,Time
,,S48,1,女,22,anonymized,Serial_Dependence_U,2023.2.3,Win32,59.523809523799216,,,,,,2420.599700000048,155.0,7.0,2420.5999999999995,155.0,,,,2424.5718000000115,2425.072300000012,2424.071100000024,2424.571600000024,2421.600400000036,2424.070900000035,2425.072300000012,2425.572600000024,2425.572600000024,2428.076800000012,2203.0,2428.0769000000355,5.0,2428.077200000048,7.0,20.0,230.0,23.0,1.0,1.4,0.3,Time
,,S48,1,女,22,anonymized,Serial_Dependence_U,2023.2.3,Win32,59.523809523799216,,,,,,2428.077700000047,156.0,7.0,2428.0779999999995,156.0,,,,2432.0165,2432.516,2431.5151000000237,2432.016400000036,2429.078200000047,2431.5151000000237,2432.5161000000235,2433.0167000000474,2433.0167000000474,2435.170200000048,532.0,2435.170300000012,1.0,2435.170600000024,7.0,21.0,231.0,18.0,1.0,1.4,0.7,Time
,,S48,1,女,22,anonymized,Serial_Dependence_U,2023.2.3,Win32,59.523809523799216,,,,,,2435.1709000000355,293.0,7.0,2435.171100000024,293.0,,,,2439.359900000036,2439.861600000024,2438.842600000024,2439.359900000036,2436.171600000024,2438.842400000036,2439.861700000048,2440.360800000012,2440.360800000012,2444.934300000012,3176.0,2444.934400000036,5.0,2444.934700000047,7.0,22.0,232.0,14.0,1.0,1.6,0.3,Time
,,S48,1,女,22,anonymized,Serial_Dependence_U,2023.2.3,Win32,59.523809523799216,,,,,,2444.9349999999995,163.0,7.0,2444.935300000012,163.0,,,,2448.2892000000475,2448.789600000024,2447.772100000024,2448.2892000000475,2445.9356000000234,2447.772,2448.789600000024,2449.2903000000115,2449.290400000036,2452.6456000000235,2937.0,2452.6456000000235,5.0,2452.646100000024,7.0,23.0,233.0,15.0,1.0,0.8,0.7,Time
,,S48,1,女,22,anonymized,Serial_Dependence_U,2023.2.3,Win32,59.523809523799216,,,,,,2452.646600000024,19.0,7.0,2452.646800000012,19.0,,,,2456.234100000024,2456.734400000036,2455.716900000036,2456.2339999999995,2453.647200000048,2455.7167000000472,2456.7345,2457.235200000048,2457.235200000048,2460.289600000024,2693.0,2460.289700000048,5.0,2460.29,7.0,24.0,234.0,11.0,1.0,1.0,0.3,Time
,,S48,1,女,22,anonymized,Serial_Dependence_U,2023.2.3,Win32,59.523809523799216,,,,,,2460.290400000036,352.0,7.0,2460.290700000048,352.0,,,,2464.462900000036,2464.963100000024,2463.961900000036,2464.462800000012,2461.2915000000003,2463.961800000012,2464.9632000000474,2465.4637000000475,2465.463800000012,2468.2347000000477,2294.0,2468.234800000012,5.0,2468.2351000000235,7.0,25.0,235.0,24.0,1.0,1.6,0.3,Time
,,S48,1,女,22,anonymized,Serial_Dependence_U,2023.2.3,Win32,59.523809523799216,,,,,,2468.235600000024,196.0,7.0,2468.235800000012,196.0,,,,2471.990700000048,2472.4908000000114,2471.473100000024,2471.990600000024,2469.236200000048,2471.473100000024,2472.4909000000357,2472.9913000000115,2472.991400000036,2476.579800000012,2912.0,2476.579900000035,5.0,2476.580200000048,7.0,26.0,236.0,7.0,1.0,1.2,0.7,Time
,,S48,1,女,22,anonymized,Serial_Dependence_U,2023.2.3,Win32,59.523809523799216,,,,,,2476.5805,60.0,7.0,2476.5808000000115,60.0,,,,2479.9519000000355,2480.452200000048,2479.451,2479.951800000012,2477.5815,2479.4509000000357,2480.452300000012,2480.9526000000237,2480.9526000000237,2483.556900000036,2105.0,2483.557,5.0,2483.557400000036,7.0,27.0,237.0,20.0,1.0,0.8,0.3,Time
,,S48,1,女,22,anonymized,Serial_Dependence_U,2023.2.3,Win32,59.523809523799216,,,,,,2483.5578000000114,14.0,7.0,2483.558100000024,14.0,,,,2487.329400000036,2487.829400000036,2486.828700000048,2487.3292000000474,2484.558400000036,2486.8285,2487.829400000036,2488.330100000024,2488.330200000048,2491.134700000048,2404.0,2491.134800000012,5.0,2491.135100000024,7.0,28.0,238.0,12.0,1.0,1.2,0.3,Time
,,S48,1,女,22,anonymized,Serial_Dependence_U,2023.2.3,Win32,59.523809523799216,,,,,,2491.135400000036,253.0,7.0,2491.135700000047,253.0,,,,2494.706900000036,2495.206700000048,2494.206100000024,2494.706800000012,2492.136300000012,2494.206,2495.206700000048,2495.7074999999995,2495.7074999999995,2498.512600000024,2474.0,2498.512600000024,5.0,2498.512900000035,7.0,29.0,239.0,21.0,1.0,1.0,0.3,Time
,,S48,1,女,22,anonymized,Serial_Dependence_U,2023.2.3,Win32,59.523809523799216,,,,,,2498.513200000048,42.0,8.0,2515.8703000000114,42.0,s,17.33910000002379,,2519.843100000024,2520.3435,2519.342200000048,2519.843,2516.872100000024,2519.342,2520.3435,2520.843900000036,2520.844,2524.098800000012,1834.0,2524.0989000000354,5.0,2524.099200000048,8.0,0.0,240.0,23.0,1.0,1.4,0.3,Time
,,S48,1,女,22,anonymized,Serial_Dependence_U,2023.2.3,Win32,59.523809523799216,,,,,,2524.099600000024,242.0,8.0,2524.101,242.0,,,,2527.4874000000354,2527.987300000012,2526.9700000000003,2527.487300000012,2525.101,2526.9699000000355,2527.9874000000354,2528.488200000048,2528.488300000012,2531.393,2610.0,2531.393,5.0,2531.3935,8.0,1.0,241.0,20.0,1.0,0.8,0.3,Time
,,S48,1,女,22,anonymized,Serial_Dependence_U,2023.2.3,Win32,59.523809523799216,,,,,,2531.3939000000355,90.0,8.0,2531.394300000012,90.0,,,,2534.7312000000475,2535.231300000012,2534.230300000012,2534.731100000024,2532.3944999999994,2534.2302000000477,2535.231400000036,2535.732,2535.732100000024,2538.653100000024,2554.0,2538.653100000024,5.0,2538.6534999999994,8.0,2.0,242.0,15.0,1.0,0.8,0.7,Time
,,S48,1,女,22,anonymized,Serial_Dependence_U,2023.2.3,Win32,59.523809523799216,,,,,,2538.6539999999995,345.0,8.0,2538.654300000012,345.0,,,,2542.459,2542.959100000024,2541.941700000048,2542.459,2539.671300000012,2541.941600000024,2542.9592000000475,2543.46,2543.46,2546.414600000024,2546.0,2546.414700000048,5.0,2546.415,8.0,3.0,243.0,12.0,1.0,1.2,0.3,Time
,,S48,1,女,22,anonymized,Serial_Dependence_U,2023.2.3,Win32,59.523809523799216,,,,,,2546.415400000036,164.0,8.0,2546.4155,164.0,,,,2550.1885,2550.687,2549.686,2550.1884000000355,2547.415800000012,2549.685900000036,2550.687100000024,2551.1878000000115,2551.1878000000115,2554.1923000000115,2527.0,2554.1924000000354,5.0,2554.192800000012,8.0,4.0,244.0,2.0,1.0,1.2,0.3,Time
,,S48,1,女,22,anonymized,Serial_Dependence_U,2023.2.3,Win32,59.523809523799216,,,,,,2554.193,37.0,8.0,2554.193300000012,37.0,,,,2558.348800000012,2558.849300000012,2557.8314000000355,2558.348800000012,2555.193800000012,2557.8314000000355,2558.8494000000355,2559.349700000048,2559.349700000048,2562.771300000012,2905.0,2562.771400000036,5.0,2562.7717000000475,8.0,5.0,245.0,9.0,1.0,1.6,0.7,Time
,,S48,1,女,22,anonymized,Serial_Dependence_U,2023.2.3,Win32,59.523809523799216,,,,,,2562.772100000024,213.0,8.0,2562.7724000000358,213.0,,,,2566.360200000048,2566.8605,2565.8435,2566.3601000000235,2563.773300000012,2565.8435,2566.8605,2567.361200000048,2567.361200000048,2570.516,2715.0,2570.516200000048,5.0,2570.516400000036,8.0,6.0,246.0,21.0,1.0,1.0,0.3,Time
,,S48,1,女,22,anonymized,Serial_Dependence_U,2023.2.3,Win32,59.523809523799216,,,,,,2570.516800000012,19.0,8.0,2570.516900000036,19.0,,,,2574.255100000024,2574.755200000048,2573.754200000048,2574.2549000000354,2571.5175,2573.754100000024,2574.755200000048,2575.2559999999994,2575.2559999999994,2578.8613000000114,2963.0,2578.8614000000352,5.0,2578.861600000024,8.0,7.0,247.0,27.0,1.0,1.2,0.7,Time
,,S48,1,女,22,anonymized,Serial_Dependence_U,2023.2.3,Win32,59.523809523799216,,,,,,2578.862,33.0,8.0,2578.862100000024,33.0,,,,2583.050800000012,2583.5517000000477,2582.533800000012,2583.050700000048,2579.863300000012,2582.533800000012,2583.5517000000477,2584.0521000000235,2584.0521000000235,2587.7076000000234,3269.0,2587.707700000047,5.0,2587.707900000036,8.0,8.0,248.0,14.0,1.0,1.6,0.3,Time
,,S48,1,女,22,anonymized,Serial_Dependence_U,2023.2.3,Win32,59.523809523799216,,,,,,2587.7085,75.0,8.0,2587.7087000000474,75.0,,,,2591.680300000012,2592.180600000024,2591.179300000012,2591.680100000024,2588.709300000012,2591.179200000048,2592.180700000047,2592.6812000000477,2592.681300000012,2596.219700000048,2796.0,2596.219800000012,5.0,2596.2200000000003,8.0,9.0,249.0,13.0,1.0,1.4,0.3,Time
,,S48,1,女,22,anonymized,Serial_Dependence_U,2023.2.3,Win32,59.523809523799216,,,,,,2596.220400000036,258.0,8.0,2596.220700000047,258.0,,,,2599.992300000012,2600.492400000036,2599.491700000048,2599.992300000012,2597.221300000012,2599.491600000024,2600.4925000000003,2600.993200000047,2600.993300000012,2604.4153000000115,3046.0,2604.415400000036,5.0,2604.415700000048,8.0,10.0,250.0,22.0,1.0,1.2,0.3,Time
,,S48,1,女,22,anonymized,Serial_Dependence_U,2023.2.3,Win32,59.523809523799216,,,,,,2604.416100000024,289.0,8.0,2604.4164000000355,289.0,,,,2607.753600000024,2608.2537000000475,2607.252800000012,2607.7535,2605.416900000036,2607.2527000000478,2608.253800000012,2608.7545,2608.7545,2611.658800000012,2492.0,2611.659,5.0,2611.659400000036,8.0,11.0,251.0,25.0,1.0,0.8,0.7,Time
,,S48,1,女,22,anonymized,Serial_Dependence_U,2023.2.3,Win32,59.523809523799216,,,,,,2611.66,14.0,8.0,2611.660400000035,14.0,,,,2615.014,2615.5145,2614.496600000024,2615.0139000000354,2612.660400000035,2614.4965,2615.514600000024,2616.014900000036,2616.0149999999994,2619.0364000000354,2640.0,2619.0365,5.0,2619.036800000012,8.0,12.0,252.0,5.0,1.0,0.8,0.7,Time
,,S48,1,女,22,anonymized,Serial_Dependence_U,2023.2.3,Win32,59.523809523799216,,,,,,2619.0370000000003,172.0,8.0,2619.037300000012,172.0,,,,2622.441400000035,2622.941600000024,2621.924100000024,2622.441300000012,2620.054600000024,2621.924,2622.941700000048,2623.4423000000115,2623.4423000000115,2627.849700000048,2591.0,2627.849700000048,5.0,2627.850200000047,8.0,13.0,253.0,10.0,1.0,0.8,0.3,Time
,,S48,1,女,22,anonymized,Serial_Dependence_U,2023.2.3,Win32,59.523809523799216,,,,,,2627.8505,111.0,8.0,2627.8507000000477,111.0,,,,2632.0386000000235,2632.538900000036,2631.5215,2632.0386000000235,2628.850800000012,2631.521300000012,2632.538900000036,2633.0395,2633.0395,2636.3444000000354,2939.0,2636.3444000000354,5.0,2636.344800000012,8.0,14.0,254.0,4.0,1.0,1.6,0.3,Time
,,S48,1,女,22,anonymized,Serial_Dependence_U,2023.2.3,Win32,59.523809523799216,,,,,,2636.345400000036,272.0,8.0,2636.3456000000238,272.0,,,,2639.716400000036,2640.2164999999995,2639.2155,2639.716300000012,2637.346300000012,2639.2154000000355,2640.2164999999995,2640.717400000036,2640.717400000036,2642.820600000024,1386.0,2642.8207000000475,5.0,2642.821,8.0,15.0,255.0,0.0,1.0,0.8,0.3,Time
,,S48,1,女,22,anonymized,Serial_Dependence_U,2023.2.3,Win32,59.523809523799216,,,,,,2642.821600000024,44.0,8.0,2642.8218000000115,44.0,,,,2646.3597000000477,2646.8596000000234,2645.858600000024,2646.3596000000234,2643.822300000012,2645.8585000000003,2646.8596000000234,2647.360200000048,2647.360300000012,2649.7145,1632.0,2649.714700000048,5.0,2649.715200000048,8.0,16.0,256.0,26.0,1.0,1.0,0.7,Time
