Scale_setup.started,Scale_setup.stopped,participant,session,sex,age,date,expName,psychopyVersion,OS,frameRate,Intro.started,Intro.stopped,key_resp_2.keys,key_resp_2.rt,key_resp_2.duration,block.started,direction,Block_id,block.stopped,trial_direction,Block_resp_2.keys,Block_resp_2.rt,Block_resp_2.duration,ITI.started,ITI.stopped,Mask_2.started,Mask_2.stopped,encoding.started,encoding.stopped,Cue.started,Cue.stopped,Response.started,Response.stopped,keyDuration,Feedback_Time.started,FeedbackID_T,Feedback_Time.stopped,trials.thisRepN,trials.thisTrialN,trials.thisN,trials.thisIndex,trials.ran,TimeDur,Coherence1,TrialType,exit_routine.started
0.0006,0.0013,S49,1,女,22,anonymized,Serial_Dependence_U,2023.2.3,Win32,60.24096386,,,,,,,,,,,,,,,,,,,,,,,,,,,,,,,,,,,,
,,S49,1,女,22,anonymized,Serial_Dependence_U,2023.2.3,Win32,60.24096386,48.6091,63.9868,space,15.3057,,,,,,,,,,,,,,,,,,,,,,,,,,,,,,,,
,,S49,1,女,22,anonymized,Serial_Dependence_U,2023.2.3,Win32,60.24096386,,,,,,63.9976,159.0,0.0,65.7021,159.0,s,1.6777,,69.894,70.3838,69.3761,69.8938,66.7088,69.376,70.3841,70.885,70.8856,78.3149,2550.0,78.3155,5.0,79.3144,0.0,0.0,0.0,24.0,1.0,1.6,0.3,Time,
,,S49,1,女,22,anonymized,Serial_Dependence_U,2023.2.3,Win32,60.24096386,,,,,,79.3165,352.0,0.0,79.3203,352.0,,,,82.6803,83.1814,82.1639,82.6802,80.3219,82.1638,83.1817,83.6791,83.6792,86.9698,3258.0,86.9699,5.0,87.9611,0.0,1.0,1.0,25.0,1.0,0.8,0.7,Time,
,,S49,1,女,22,anonymized,Serial_Dependence_U,2023.2.3,Win32,60.24096386,,,,,,87.9624,146.0,0.0,87.9628,146.0,,,,92.1347,92.6299,91.618,92.1346,88.986,91.6177,92.6299,93.1295,93.1296,97.4578,3972.0,97.4579,5.0,98.4579,0.0,2.0,2.0,19.0,1.0,1.6,0.7,Time,
,,S49,1,女,22,anonymized,Serial_Dependence_U,2023.2.3,Win32,60.24096386,,,,,,98.4586,309.0,0.0,98.4589,309.0,,,,101.8565,102.3565,101.3426,101.8564,99.4761,101.3426,102.3566,102.8562,102.8562,106.3798,3460.0,106.3798,5.0,107.3709,0.0,3.0,3.0,0.0,1.0,0.8,0.3,Time,
,,S49,1,女,22,anonymized,Serial_Dependence_U,2023.2.3,Win32,60.24096386,,,,,,107.3714,183.0,0.0,107.3716,183.0,,,,111.5579,112.0528,111.0451,111.5578,108.3796,111.045,112.0529,112.5526,112.5526,116.8347,3867.0,116.8347,5.0,117.8344,0.0,4.0,4.0,29.0,1.0,1.6,0.7,Time,
,,S49,1,女,22,anonymized,Serial_Dependence_U,2023.2.3,Win32,60.24096386,,,,,,117.8351,175.0,0.0,117.8355,175.0,,,,121.8154,122.3172,121.3079,121.8136,118.8357,121.3079,122.3172,122.8166,122.8168,126.4236,3547.0,126.4237,5.0,127.4221,0.0,5.0,5.0,3.0,1.0,1.4,0.3,Time,
,,S49,1,女,22,anonymized,Serial_Dependence_U,2023.2.3,Win32,60.24096386,,,,,,127.4229,200.0,0.0,127.4232,200.0,,,,130.7726,131.2633,130.2555,130.7724,128.4231,130.2554,131.2634,131.7627,131.7627,134.9618,3101.0,134.9618,5.0,135.9617,0.0,6.0,6.0,5.0,1.0,0.8,0.7,Time,
,,S49,1,女,22,anonymized,Serial_Dependence_U,2023.2.3,Win32,60.24096386,,,,,,135.9629,92.0,0.0,135.9632,92.0,,,,139.5618,140.0597,139.0527,139.5616,136.9858,139.0524,140.0598,140.5632,140.5634,144.4261,3505.0,144.4262,5.0,145.4252,0.0,7.0,7.0,1.0,1.0,1.0,0.3,Time,
,,S49,1,女,22,anonymized,Serial_Dependence_U,2023.2.3,Win32,60.24096386,,,,,,145.4258,157.0,0.0,145.4261,157.0,,,,149.1912,149.69,148.6749,149.191,146.4416,148.6747,149.6901,150.1897,150.1898,153.6141,3377.0,153.6142,5.0,154.6049,0.0,8.0,8.0,27.0,1.0,1.2,0.7,Time,
,,S49,1,女,22,anonymized,Serial_Dependence_U,2023.2.3,Win32,60.24096386,,,,,,154.6056,248.0,0.0,154.6059,248.0,,,,158.389,158.8868,157.8793,158.3888,155.6149,157.8791,158.887,159.3866,159.3867,163.5522,3774.0,163.5524,5.0,164.5519,0.0,9.0,9.0,2.0,1.0,1.2,0.3,Time,
,,S49,1,女,22,anonymized,Serial_Dependence_U,2023.2.3,Win32,60.24096386,,,,,,164.5527,308.0,0.0,164.553,308.0,,,,168.1598,168.6569,167.6435,168.1596,165.5682,167.6433,168.6569,169.1569,169.1569,173.7236,4080.0,173.7236,5.0,174.7151,0.0,10.0,10.0,21.0,1.0,1.0,0.3,Time,
,,S49,1,女,22,anonymized,Serial_Dependence_U,2023.2.3,Win32,60.24096386,,,,,,174.7159,278.0,0.0,174.7161,278.0,,,,178.3142,178.8134,177.8059,178.3141,175.7231,177.8058,178.8135,179.303,179.303,183.0969,3466.0,183.0971,5.0,184.0947,0.0,11.0,11.0,11.0,1.0,1.0,0.3,Time,
,,S49,1,女,22,anonymized,Serial_Dependence_U,2023.2.3,Win32,60.24096386,,,,,,184.0951,24.0,0.0,184.0953,24.0,,,,187.6778,188.1767,187.1607,187.6776,185.1191,187.1607,188.1769,188.6768,188.6768,192.4088,3616.0,192.409,5.0,193.4086,0.0,12.0,12.0,6.0,1.0,1.0,0.7,Time,
,,S49,1,女,22,anonymized,Serial_Dependence_U,2023.2.3,Win32,60.24096386,,,,,,193.4092,240.0,0.0,193.4094,240.0,,,,196.7834,197.2811,196.2745,196.7833,194.4088,196.2745,197.2812,197.7799,197.7801,201.523,3684.0,201.5231,5.0,202.522,0.0,13.0,13.0,10.0,1.0,0.8,0.3,Time,
,,S49,1,女,22,anonymized,Serial_Dependence_U,2023.2.3,Win32,60.24096386,,,,,,202.5226,120.0,0.0,202.523,120.0,,,,206.4799,206.9767,205.9732,206.4798,203.5394,205.9731,206.9768,207.4769,207.477,210.9955,3165.0,210.9955,5.0,211.9855,0.0,14.0,14.0,28.0,1.0,1.4,0.7,Time,
,,S49,1,女,22,anonymized,Serial_Dependence_U,2023.2.3,Win32,60.24096386,,,,,,211.986,202.0,0.0,211.9864,202.0,,,,216.1603,216.6506,215.659,216.1603,212.9932,215.6589,216.6507,217.1511,217.1511,220.5913,3216.0,220.5913,5.0,221.5835,0.0,15.0,15.0,14.0,1.0,1.6,0.3,Time,
,,S49,1,女,22,anonymized,Serial_Dependence_U,2023.2.3,Win32,60.24096386,,,,,,221.5841,154.0,0.0,221.5844,154.0,,,,225.5818,226.0817,225.0653,225.5817,222.5996,225.0653,226.0818,226.5703,226.5704,230.9551,3999.0,230.9552,5.0,231.9533,0.0,16.0,16.0,13.0,1.0,1.4,0.3,Time,
,,S49,1,女,22,anonymized,Serial_Dependence_U,2023.2.3,Win32,60.24096386,,,,,,231.9539,151.0,0.0,231.9542,151.0,,,,235.9048,236.4004,235.4028,235.9046,232.971,235.4027,236.4005,236.9,236.9002,240.8522,3899.0,240.8523,5.0,241.8417,0.0,17.0,17.0,8.0,1.0,1.4,0.7,Time,
,,S49,1,女,22,anonymized,Serial_Dependence_U,2023.2.3,Win32,60.24096386,,,,,,241.842,273.0,0.0,241.8422,273.0,,,,245.6409,246.1405,245.1246,245.6408,242.8583,245.1246,246.1406,246.6411,246.6412,250.5139,3694.0,250.5141,5.0,251.5133,0.0,18.0,18.0,22.0,1.0,1.2,0.3,Time,
,,S49,1,女,22,anonymized,Serial_Dependence_U,2023.2.3,Win32,60.24096386,,,,,,251.5136,182.0,0.0,251.5138,182.0,,,,254.8977,255.3936,254.3808,254.8976,252.5149,254.3806,255.3937,255.8944,255.8945,259.7524,3405.0,259.7524,5.0,260.7598,0.0,19.0,19.0,20.0,1.0,0.8,0.3,Time,
,,S49,1,女,22,anonymized,Serial_Dependence_U,2023.2.3,Win32,60.24096386,,,,,,260.7602,241.0,0.0,260.7605,241.0,,,,264.3181,264.8173,263.802,264.3181,261.769,263.8019,264.8174,265.3171,265.3171,269.2016,3521.0,269.2019,5.0,270.2,0.0,20.0,20.0,26.0,1.0,1.0,0.7,Time,
,,S49,1,女,22,anonymized,Serial_Dependence_U,2023.2.3,Win32,60.24096386,,,,,,270.2023,42.0,0.0,270.2027,42.0,,,,274.1976,274.6988,273.6824,274.1976,271.2164,273.6823,274.6988,275.197,275.1971,279.4892,4046.0,279.4892,5.0,280.4864,0.0,21.0,21.0,23.0,1.0,1.4,0.3,Time,
,,S49,1,女,22,anonymized,Serial_Dependence_U,2023.2.3,Win32,60.24096386,,,,,,280.487,192.0,0.0,280.4872,192.0,,,,284.2445,284.745,283.7313,284.2444,281.4958,283.7312,284.7451,285.2455,285.2455,289.2196,3714.0,289.2196,5.0,290.2163,0.0,22.0,22.0,17.0,1.0,1.2,0.7,Time,
,,S49,1,女,22,anonymized,Serial_Dependence_U,2023.2.3,Win32,60.24096386,,,,,,290.2169,293.0,0.0,290.2172,293.0,,,,293.7748,294.2758,293.2584,293.7746,291.2256,293.2583,294.2759,294.7738,294.7739,298.8492,3926.0,298.8492,5.0,299.847,0.0,23.0,23.0,16.0,1.0,1.0,0.7,Time,
,,S49,1,女,22,anonymized,Serial_Dependence_U,2023.2.3,Win32,60.24096386,,,,,,299.8475,314.0,0.0,299.8477,314.0,,,,303.7809,304.2706,303.2797,303.7808,300.8477,303.2796,304.2707,304.7776,304.7777,308.5195,3220.0,308.5195,5.0,309.5188,0.0,24.0,24.0,18.0,1.0,1.4,0.7,Time,
,,S49,1,女,22,anonymized,Serial_Dependence_U,2023.2.3,Win32,60.24096386,,,,,,309.52,329.0,0.0,309.5204,329.0,,,,313.2862,313.7843,312.7764,313.2861,310.5356,312.7764,313.7844,314.2838,314.2839,317.9745,3515.0,317.9746,5.0,318.9659,0.0,25.0,25.0,7.0,1.0,1.2,0.7,Time,
,,S49,1,女,22,anonymized,Serial_Dependence_U,2023.2.3,Win32,60.24096386,,,,,,318.9667,87.0,0.0,318.967,87.0,,,,322.7534,323.2475,322.2395,322.753,319.9741,322.2394,323.2476,323.7486,323.7487,328.0378,3925.0,328.0378,5.0,329.029,0.0,26.0,26.0,12.0,1.0,1.2,0.3,Time,
,,S49,1,女,22,anonymized,Serial_Dependence_U,2023.2.3,Win32,60.24096386,,,,,,329.0297,187.0,0.0,329.03,187.0,,,,332.3789,332.8773,331.8703,332.3787,330.037,331.8702,332.8773,333.3773,333.3775,336.2598,2623.0,336.2599,5.0,337.2592,0.0,27.0,27.0,15.0,1.0,0.8,0.7,Time,
,,S49,1,女,22,anonymized,Serial_Dependence_U,2023.2.3,Win32,60.24096386,,,,,,337.2597,353.0,0.0,337.2598,353.0,,,,341.4085,341.9078,340.9012,341.4084,338.2656,340.9011,341.9078,342.4088,342.4089,346.6991,4076.0,346.6992,5.0,347.6983,0.0,28.0,28.0,9.0,1.0,1.6,0.7,Time,
,,S49,1,女,22,anonymized,Serial_Dependence_U,2023.2.3,Win32,60.24096386,,,,,,347.6988,10.0,0.0,347.699,10.0,,,,351.873,352.3708,351.3719,351.8729,348.6995,351.3719,352.3709,352.8706,352.8707,356.6785,3760.0,356.6786,5.0,357.6695,0.0,29.0,29.0,4.0,1.0,1.6,0.3,Time,
,,S49,1,女,22,anonymized,Serial_Dependence_U,2023.2.3,Win32,60.24096386,,,,,,357.6701,46.0,1.0,362.3588,46.0,s,4.6659,,365.9418,366.4394,365.4251,365.9417,363.3594,365.4251,366.4394,366.9328,366.933,370.1576,3116.0,370.1577,5.0,370.1583,1.0,0.0,30.0,11.0,1.0,1.0,0.3,Time,
,,S49,1,女,22,anonymized,Serial_Dependence_U,2023.2.3,Win32,60.24096386,,,,,,370.1589,65.0,1.0,370.162,65.0,,,,373.5341,374.0304,373.0329,373.5338,371.1684,373.0326,374.0304,374.5301,374.5302,378.0897,3508.0,378.0899,5.0,378.0907,1.0,1.0,31.0,0.0,1.0,0.8,0.3,Time,
,,S49,1,女,22,anonymized,Serial_Dependence_U,2023.2.3,Win32,60.24096386,,,,,,378.0912,78.0,1.0,378.0914,78.0,,,,381.4444,381.9439,380.9358,381.4443,379.1012,380.9357,381.944,382.4437,382.4438,385.4435,2613.0,385.4436,5.0,385.4443,1.0,2.0,32.0,25.0,1.0,0.8,0.7,Time,
,,S49,1,女,22,anonymized,Serial_Dependence_U,2023.2.3,Win32,60.24096386,,,,,,385.4448,45.0,1.0,385.4451,45.0,,,,388.8014,389.2915,388.2938,388.8012,386.4595,388.2936,389.2917,389.7947,389.7947,392.9826,3033.0,392.9826,5.0,392.9829,1.0,3.0,33.0,5.0,1.0,0.8,0.7,Time,
,,S49,1,女,22,anonymized,Serial_Dependence_U,2023.2.3,Win32,60.24096386,,,,,,392.9831,317.0,1.0,392.9833,317.0,,,,396.5321,397.022,396.031,396.5318,393.9984,396.0309,397.022,397.5222,397.5222,400.7715,3002.0,400.7716,5.0,400.7719,1.0,4.0,34.0,26.0,1.0,1.0,0.7,Time,
,,S49,1,女,22,anonymized,Serial_Dependence_U,2023.2.3,Win32,60.24096386,,,,,,400.7723,99.0,1.0,400.7725,99.0,,,,404.9613,405.4526,404.4454,404.9613,401.7788,404.4453,405.4526,405.941,405.9411,409.8348,3805.0,409.835,5.0,409.8356,1.0,5.0,35.0,24.0,1.0,1.6,0.3,Time,
,,S49,1,女,22,anonymized,Serial_Dependence_U,2023.2.3,Win32,60.24096386,,,,,,409.8358,171.0,1.0,409.8361,171.0,,,,413.2421,413.7334,412.7256,413.242,410.8529,412.7254,413.7335,414.233,414.2331,418.1073,3715.0,418.1073,5.0,418.1077,1.0,6.0,36.0,20.0,1.0,0.8,0.3,Time,
,,S49,1,女,22,anonymized,Serial_Dependence_U,2023.2.3,Win32,60.24096386,,,,,,418.1082,16.0,1.0,418.1085,16.0,,,,422.0554,422.5528,421.5391,422.0553,419.1037,421.539,422.5528,423.0531,423.0532,427.171,3866.0,427.1712,5.0,427.1716,1.0,7.0,37.0,18.0,1.0,1.4,0.7,Time,
,,S49,1,女,22,anonymized,Serial_Dependence_U,2023.2.3,Win32,60.24096386,,,,,,427.172,201.0,1.0,427.1721,201.0,,,,430.5191,431.0109,430.0031,430.519,428.17,430.0029,431.0109,431.5105,431.5105,434.5938,2900.0,434.594,5.0,434.5946,1.0,8.0,38.0,15.0,1.0,0.8,0.7,Time,
,,S49,1,女,22,anonymized,Serial_Dependence_U,2023.2.3,Win32,60.24096386,,,,,,434.5951,101.0,1.0,434.5954,101.0,,,,438.3674,438.8647,437.8512,438.3674,435.6095,437.8511,438.8648,439.3649,439.365,443.3399,3786.0,443.3401,5.0,443.3406,1.0,9.0,39.0,27.0,1.0,1.2,0.7,Time,
,,S49,1,女,22,anonymized,Serial_Dependence_U,2023.2.3,Win32,60.24096386,,,,,,443.341,225.0,1.0,443.3411,225.0,,,,447.1136,447.6116,446.6029,447.1136,444.3562,446.6028,447.6116,448.1117,448.1118,451.2972,3057.0,451.2973,5.0,451.2984,1.0,10.0,40.0,17.0,1.0,1.2,0.7,Time,
,,S49,1,女,22,anonymized,Serial_Dependence_U,2023.2.3,Win32,60.24096386,,,,,,451.2995,298.0,1.0,451.2997,298.0,,,,455.2946,455.7859,454.779,455.2945,452.3098,454.7789,455.786,456.2753,456.2753,460.6088,4124.0,460.6089,5.0,460.6091,1.0,11.0,41.0,13.0,1.0,1.4,0.3,Time,
,,S49,1,女,22,anonymized,Serial_Dependence_U,2023.2.3,Win32,60.24096386,,,,,,460.6094,104.0,1.0,460.6096,104.0,,,,464.3662,464.8658,463.8593,464.3662,461.6256,463.8592,464.8659,465.3553,465.3554,468.7823,3357.0,468.7824,5.0,468.7829,1.0,12.0,42.0,7.0,1.0,1.2,0.7,Time,
,,S49,1,女,22,anonymized,Serial_Dependence_U,2023.2.3,Win32,60.24096386,,,,,,468.7834,327.0,1.0,468.7836,327.0,,,,472.5884,473.0809,472.0731,472.5883,469.798,472.073,473.0811,473.5821,473.5822,477.1784,3376.0,477.1785,5.0,477.179,1.0,13.0,43.0,22.0,1.0,1.2,0.3,Time,
,,S49,1,女,22,anonymized,Serial_Dependence_U,2023.2.3,Win32,60.24096386,,,,,,477.1793,358.0,1.0,477.1796,358.0,,,,481.1202,481.6168,480.6121,481.1201,478.1788,480.6121,481.6168,482.1166,482.1166,485.8687,3416.0,485.8694,5.0,485.8708,1.0,14.0,44.0,8.0,1.0,1.4,0.7,Time,
,,S49,1,女,22,anonymized,Serial_Dependence_U,2023.2.3,Win32,60.24096386,,,,,,485.8713,322.0,1.0,485.8715,322.0,,,,489.43,489.9238,488.9157,489.4299,486.883,488.9156,489.9238,490.4239,490.4239,493.5731,3035.0,493.5732,5.0,493.5739,1.0,15.0,45.0,16.0,1.0,1.0,0.7,Time,
,,S49,1,女,22,anonymized,Serial_Dependence_U,2023.2.3,Win32,60.24096386,,,,,,493.5743,43.0,1.0,493.5747,43.0,,,,497.7791,498.2726,497.2628,497.779,494.5911,497.2628,498.2726,498.7708,498.7709,501.9452,3130.0,501.9453,5.0,501.9457,1.0,16.0,46.0,4.0,1.0,1.6,0.3,Time,
,,S49,1,女,22,anonymized,Serial_Dependence_U,2023.2.3,Win32,60.24096386,,,,,,501.946,68.0,1.0,501.9463,68.0,,,,505.3192,505.8081,504.8105,505.3192,502.9372,504.8104,505.8081,506.3015,506.3016,509.4595,2966.0,509.4595,5.0,509.4599,1.0,17.0,47.0,10.0,1.0,0.8,0.3,Time,
,,S49,1,女,22,anonymized,Serial_Dependence_U,2023.2.3,Win32,60.24096386,,,,,,509.4603,18.0,1.0,509.4605,18.0,,,,513.0505,513.5502,512.5331,513.0504,510.4583,512.533,513.5503,514.049,514.0491,517.4905,3297.0,517.4905,5.0,517.491,1.0,18.0,48.0,21.0,1.0,1.0,0.3,Time,
,,S49,1,女,22,anonymized,Serial_Dependence_U,2023.2.3,Win32,60.24096386,,,,,,517.4914,5.0,1.0,517.4916,5.0,,,,521.6483,522.147,521.132,521.6481,518.4903,521.1318,522.147,522.6469,522.647,525.6455,2950.0,525.6456,5.0,525.6464,1.0,19.0,49.0,19.0,1.0,1.6,0.7,Time,
,,S49,1,女,22,anonymized,Serial_Dependence_U,2023.2.3,Win32,60.24096386,,,,,,525.6469,321.0,1.0,525.6472,321.0,,,,529.6522,530.1505,529.136,529.6521,526.6626,529.1359,530.1505,530.6435,530.6435,533.0843,2416.0,533.0845,5.0,533.0846,1.0,20.0,50.0,3.0,1.0,1.4,0.3,Time,
,,S49,1,女,22,anonymized,Serial_Dependence_U,2023.2.3,Win32,60.24096386,,,,,,533.085,259.0,1.0,533.0851,259.0,,,,537.243,537.7406,536.7252,537.2429,534.084,536.7251,537.7406,538.2406,538.2407,541.1814,2549.0,541.1815,5.0,541.1818,1.0,21.0,51.0,29.0,1.0,1.6,0.7,Time,
,,S49,1,女,22,anonymized,Serial_Dependence_U,2023.2.3,Win32,60.24096386,,,,,,541.1821,216.0,1.0,541.1823,216.0,,,,545.3305,545.8213,544.8155,545.3305,542.1745,544.8154,545.8213,546.321,546.3211,548.9797,2632.0,548.9797,5.0,548.9801,1.0,22.0,52.0,9.0,1.0,1.6,0.7,Time,
,,S49,1,女,22,anonymized,Serial_Dependence_U,2023.2.3,Win32,60.24096386,,,,,,548.9806,281.0,1.0,548.9809,281.0,,,,552.5367,553.0355,552.0203,552.5366,549.9805,552.0201,553.0356,553.5359,553.536,556.468,2913.0,556.468,5.0,556.4685,1.0,23.0,53.0,6.0,1.0,1.0,0.7,Time,
,,S49,1,女,22,anonymized,Serial_Dependence_U,2023.2.3,Win32,60.24096386,,,,,,556.4688,117.0,1.0,556.469,117.0,,,,560.6587,561.15,560.1448,560.6586,557.4763,560.1447,561.1501,561.6536,561.6536,564.5745,2895.0,564.5746,5.0,564.5749,1.0,24.0,54.0,14.0,1.0,1.6,0.3,Time,
,,S49,1,女,22,anonymized,Serial_Dependence_U,2023.2.3,Win32,60.24096386,,,,,,564.5754,280.0,1.0,564.5757,280.0,,,,568.1646,568.6638,567.6479,568.1646,565.5729,567.6477,568.6638,569.1636,569.1636,572.6628,3212.0,572.6629,5.0,572.6634,1.0,25.0,55.0,1.0,1.0,1.0,0.3,Time,
,,S49,1,女,22,anonymized,Serial_Dependence_U,2023.2.3,Win32,60.24096386,,,,,,572.6638,119.0,1.0,572.6641,119.0,,,,576.4448,576.9345,575.9289,576.4446,573.6628,575.9287,576.9345,577.4337,577.4338,580.254,2649.0,580.2541,5.0,580.2549,1.0,26.0,56.0,2.0,1.0,1.2,0.3,Time,
,,S49,1,女,22,anonymized,Serial_Dependence_U,2023.2.3,Win32,60.24096386,,,,,,580.2555,283.0,1.0,580.2558,283.0,,,,584.0435,584.5415,583.5282,584.0434,581.2611,583.5274,584.5416,585.0419,585.0419,588.4832,3389.0,588.4833,5.0,588.4838,1.0,27.0,57.0,12.0,1.0,1.2,0.3,Time,
,,S49,1,女,22,anonymized,Serial_Dependence_U,2023.2.3,Win32,60.24096386,,,,,,588.4842,151.0,1.0,588.4845,151.0,,,,592.473,592.9719,591.9561,592.4729,589.4835,591.956,592.9719,593.4721,593.4723,597.1298,3575.0,597.1298,5.0,597.1301,1.0,28.0,58.0,23.0,1.0,1.4,0.3,Time,
,,S49,1,女,22,anonymized,Serial_Dependence_U,2023.2.3,Win32,60.24096386,,,,,,597.1304,290.0,1.0,597.1306,290.0,,,,601.0654,601.5693,600.5618,601.0652,598.1294,600.5617,601.5693,602.0688,602.0689,605.7698,3591.0,605.7699,5.0,605.7706,1.0,29.0,59.0,28.0,1.0,1.4,0.7,Time,
,,S49,1,女,22,anonymized,Serial_Dependence_U,2023.2.3,Win32,60.24096386,,,,,,605.7712,312.0,2.0,607.8756,312.0,s,2.0814,,612.0496,612.5488,611.5404,612.0496,608.8759,611.5403,612.5489,613.0483,613.0483,616.7825,3659.0,616.7825,5.0,616.7827,2.0,0.0,60.0,24.0,1.0,1.6,0.3,Time,
,,S49,1,女,22,anonymized,Serial_Dependence_U,2023.2.3,Win32,60.24096386,,,,,,616.783,127.0,2.0,616.7845,127.0,,,,620.58,621.0695,620.0636,620.5799,617.7973,620.0635,621.0696,621.569,621.569,625.0381,3349.0,625.0382,5.0,625.0385,2.0,1.0,61.0,22.0,1.0,1.2,0.3,Time,
,,S49,1,女,22,anonymized,Serial_Dependence_U,2023.2.3,Win32,60.24096386,,,,,,625.0389,236.0,2.0,625.0391,236.0,,,,628.3957,628.8931,627.8847,628.3955,626.036,627.8845,628.8931,629.3928,629.3929,631.8588,2321.0,631.8588,5.0,631.8591,2.0,2.0,62.0,5.0,1.0,0.8,0.7,Time,
,,S49,1,女,22,anonymized,Serial_Dependence_U,2023.2.3,Win32,60.24096386,,,,,,631.8594,6.0,2.0,631.8595,6.0,,,,635.2247,635.724,634.7084,635.2246,632.8755,634.7083,635.724,636.2243,636.2244,639.1736,2872.0,639.1738,5.0,639.1743,2.0,3.0,63.0,15.0,1.0,0.8,0.7,Time,
,,S49,1,女,22,anonymized,Serial_Dependence_U,2023.2.3,Win32,60.24096386,,,,,,639.1746,35.0,2.0,639.175,35.0,,,,642.739,643.2386,642.2228,642.739,640.1901,642.2228,643.2386,643.738,643.7381,647.1788,3175.0,647.1788,5.0,647.1791,2.0,4.0,64.0,16.0,1.0,1.0,0.7,Time,
,,S49,1,女,22,anonymized,Serial_Dependence_U,2023.2.3,Win32,60.24096386,,,,,,647.1794,5.0,2.0,647.1796,5.0,,,,650.777,651.2687,650.2615,650.777,648.1946,650.2614,651.2687,651.7686,651.7686,655.2436,3199.0,655.2437,5.0,655.2442,2.0,5.0,65.0,1.0,1.0,1.0,0.3,Time,
,,S49,1,女,22,anonymized,Serial_Dependence_U,2023.2.3,Win32,60.24096386,,,,,,655.245,252.0,2.0,655.2454,252.0,,,,659.0177,659.5161,658.5016,659.0176,656.2388,658.5014,659.5162,660.0157,660.0158,663.3749,3349.0,663.375,5.0,663.3754,2.0,6.0,66.0,12.0,1.0,1.2,0.3,Time,
,,S49,1,女,22,anonymized,Serial_Dependence_U,2023.2.3,Win32,60.24096386,,,,,,663.3761,298.0,2.0,663.3765,298.0,,,,666.7648,667.2637,666.2553,666.7647,664.3889,666.2551,667.2638,667.763,667.7631,670.1715,2383.0,670.1715,5.0,670.1717,2.0,7.0,67.0,10.0,1.0,0.8,0.3,Time,
,,S49,1,女,22,anonymized,Serial_Dependence_U,2023.2.3,Win32,60.24096386,,,,,,670.172,303.0,2.0,670.1721,303.0,,,,673.7285,674.2277,673.212,673.7283,671.1643,673.2119,674.2277,674.7276,674.7277,677.9033,3143.0,677.9033,5.0,677.9036,2.0,8.0,68.0,6.0,1.0,1.0,0.7,Time,
,,S49,1,女,22,anonymized,Serial_Dependence_U,2023.2.3,Win32,60.24096386,,,,,,677.904,85.0,2.0,677.904,85.0,,,,682.0668,682.5582,681.5508,682.0667,678.9031,681.5508,682.5582,683.0579,683.0581,686.3663,3282.0,686.3665,5.0,686.3668,2.0,9.0,69.0,19.0,1.0,1.6,0.7,Time,
,,S49,1,女,22,anonymized,Serial_Dependence_U,2023.2.3,Win32,60.24096386,,,,,,686.3673,104.0,2.0,686.3676,104.0,,,,690.1308,690.6223,689.6149,690.1307,687.3818,689.6149,690.6223,691.1254,691.1256,693.5965,2448.0,693.5965,5.0,693.5968,2.0,10.0,70.0,27.0,1.0,1.2,0.7,Time,
,,S49,1,女,22,anonymized,Serial_Dependence_U,2023.2.3,Win32,60.24096386,,,,,,693.5972,147.0,2.0,693.5975,147.0,,,,697.7366,698.2362,697.2279,697.7365,694.5923,697.2278,698.2362,698.7358,698.7358,701.322,2558.0,701.3221,5.0,701.3228,2.0,11.0,71.0,9.0,1.0,1.6,0.7,Time,
,,S49,1,女,22,anonymized,Serial_Dependence_U,2023.2.3,Win32,60.24096386,,,,,,701.3234,262.0,2.0,701.3237,262.0,,,,704.9198,705.4171,704.409,704.9195,702.3395,704.409,705.4171,705.9169,705.9169,708.4162,2466.0,708.4163,5.0,708.4167,2.0,12.0,72.0,21.0,1.0,1.0,0.3,Time,
,,S49,1,女,22,anonymized,Serial_Dependence_U,2023.2.3,Win32,60.24096386,,,,,,708.4169,180.0,2.0,708.4171,180.0,,,,712.5898,713.0811,712.0731,712.5897,709.4329,712.0731,713.0812,713.5808,713.581,715.856,1911.0,715.8561,4.0,715.8566,2.0,13.0,73.0,29.0,1.0,1.6,0.7,Time,
,,S49,1,女,22,anonymized,Serial_Dependence_U,2023.2.3,Win32,60.24096386,,,,,,715.857,98.0,2.0,715.8572,98.0,,,,719.8132,720.3123,719.297,719.8131,716.8636,719.2969,720.3123,720.8116,720.8116,723.5776,2717.0,723.5777,5.0,723.5782,2.0,14.0,74.0,18.0,1.0,1.4,0.7,Time,
,,S49,1,女,22,anonymized,Serial_Dependence_U,2023.2.3,Win32,60.24096386,,,,,,723.5785,47.0,2.0,723.5787,47.0,,,,727.185,727.6765,726.6685,727.1849,724.594,726.6684,727.6766,728.1648,728.1648,731.8254,3593.0,731.8254,5.0,731.8258,2.0,15.0,75.0,11.0,1.0,1.0,0.3,Time,
,,S49,1,女,22,anonymized,Serial_Dependence_U,2023.2.3,Win32,60.24096386,,,,,,731.8261,187.0,2.0,731.8262,187.0,,,,735.8151,736.3127,735.305,735.815,732.8264,735.3047,736.3127,736.8068,736.8076,740.7805,3932.0,740.7805,5.0,740.7816,2.0,16.0,76.0,13.0,1.0,1.4,0.3,Time,
,,S49,1,女,22,anonymized,Serial_Dependence_U,2023.2.3,Win32,60.24096386,,,,,,740.7818,138.0,2.0,740.782,138.0,,,,744.1788,744.671,743.6626,744.1787,741.7962,743.6624,744.6712,745.1755,745.1756,749.1464,3850.0,749.1465,5.0,749.147,2.0,17.0,77.0,20.0,1.0,0.8,0.3,Time,
,,S49,1,女,22,anonymized,Serial_Dependence_U,2023.2.3,Win32,60.24096386,,,,,,749.1477,322.0,2.0,749.1479,322.0,,,,753.0928,753.5837,752.5852,753.0926,750.144,752.5851,753.5837,754.0837,754.0837,756.8916,2600.0,756.8917,5.0,756.8919,2.0,18.0,78.0,28.0,1.0,1.4,0.7,Time,
,,S49,1,女,22,anonymized,Serial_Dependence_U,2023.2.3,Win32,60.24096386,,,,,,756.8922,93.0,2.0,756.8924,93.0,,,,760.2502,760.748,759.7411,760.2501,757.9075,759.7409,760.748,761.2487,761.2488,764.3239,2909.0,764.3239,5.0,764.3244,2.0,19.0,79.0,25.0,1.0,0.8,0.7,Time,
,,S49,1,女,22,anonymized,Serial_Dependence_U,2023.2.3,Win32,60.24096386,,,,,,764.3247,77.0,2.0,764.3249,77.0,,,,767.8706,768.3655,767.3539,767.8705,765.3217,767.3538,768.3656,768.8625,768.8626,771.6945,2793.0,771.6945,5.0,771.6948,2.0,20.0,80.0,26.0,1.0,1.0,0.7,Time,
,,S49,1,女,22,anonymized,Serial_Dependence_U,2023.2.3,Win32,60.24096386,,,,,,771.695,257.0,2.0,771.6951,257.0,,,,775.4857,775.9762,774.9772,775.4856,772.7112,774.9771,775.9762,776.4766,776.4766,780.4683,3665.0,780.4684,5.0,780.469,2.0,21.0,81.0,2.0,1.0,1.2,0.3,Time,
,,S49,1,女,22,anonymized,Serial_Dependence_U,2023.2.3,Win32,60.24096386,,,,,,780.4695,262.0,2.0,780.4696,262.0,,,,784.4244,784.9232,783.9142,784.4242,781.4662,783.9141,784.9232,785.4231,785.4231,789.2327,3582.0,789.2328,5.0,789.2333,2.0,22.0,82.0,8.0,1.0,1.4,0.7,Time,
,,S49,1,女,22,anonymized,Serial_Dependence_U,2023.2.3,Win32,60.24096386,,,,,,789.2339,5.0,2.0,789.2343,5.0,,,,793.2292,793.7201,792.714,793.2291,790.2494,792.7138,793.7201,794.2202,794.2203,797.5363,3286.0,797.5364,5.0,797.5369,2.0,23.0,83.0,3.0,1.0,1.4,0.3,Time,
,,S49,1,女,22,anonymized,Serial_Dependence_U,2023.2.3,Win32,60.24096386,,,,,,797.5374,233.0,2.0,797.5382,233.0,,,,800.9259,801.4176,800.402,800.9258,798.536,800.4019,801.4176,801.9173,801.9173,804.427,2466.0,804.4272,5.0,804.4277,2.0,24.0,84.0,0.0,1.0,0.8,0.3,Time,
,,S49,1,女,22,anonymized,Serial_Dependence_U,2023.2.3,Win32,60.24096386,,,,,,804.4282,217.0,2.0,804.4284,217.0,,,,808.6076,809.0983,808.0911,808.6074,805.4254,808.091,809.0983,809.599,809.5992,813.1142,3465.0,813.1144,5.0,813.1147,2.0,25.0,85.0,14.0,1.0,1.6,0.3,Time,
,,S49,1,女,22,anonymized,Serial_Dependence_U,2023.2.3,Win32,60.24096386,,,,,,813.1152,190.0,2.0,813.1155,190.0,,,,816.8869,817.3789,816.3718,816.8867,814.1392,816.3717,817.3789,817.8785,817.8785,821.0285,3025.0,821.0285,5.0,821.0288,2.0,26.0,86.0,17.0,1.0,1.2,0.7,Time,
,,S49,1,女,22,anonymized,Serial_Dependence_U,2023.2.3,Win32,60.24096386,,,,,,821.0291,275.0,2.0,821.0292,275.0,,,,825.0353,825.5258,824.5178,825.0351,822.0488,824.5178,825.5259,826.0258,826.0259,828.7011,2632.0,828.7013,5.0,828.7016,2.0,27.0,87.0,23.0,1.0,1.4,0.3,Time,
,,S49,1,女,22,anonymized,Serial_Dependence_U,2023.2.3,Win32,60.24096386,,,,,,828.702,94.0,2.0,828.7022,94.0,,,,832.883,833.3799,832.3665,832.8829,829.6999,832.3663,833.3799,833.8798,833.8799,836.1161,2199.0,836.1162,5.0,836.1166,2.0,28.0,88.0,4.0,1.0,1.6,0.3,Time,
,,S49,1,女,22,anonymized,Serial_Dependence_U,2023.2.3,Win32,60.24096386,,,,,,836.1172,82.0,2.0,836.1175,82.0,,,,839.8798,840.3763,839.3644,839.8798,837.1302,839.3643,840.3763,840.8715,840.8718,843.7043,2686.0,843.7045,5.0,843.7052,2.0,29.0,89.0,7.0,1.0,1.2,0.7,Time,
,,S49,1,女,22,anonymized,Serial_Dependence_U,2023.2.3,Win32,60.24096386,,,,,,843.7057,318.0,3.0,847.7773,318.0,s,4.0447,,851.1588,851.6506,850.6434,851.1587,848.7799,850.6433,851.6507,852.1502,852.1503,854.3917,2215.0,854.3918,5.0,854.3921,3.0,0.0,90.0,10.0,1.0,0.8,0.3,Time,
,,S49,1,女,22,anonymized,Serial_Dependence_U,2023.2.3,Win32,60.24096386,,,,,,854.3923,359.0,3.0,854.3938,359.0,,,,857.774,858.2654,857.2575,857.774,855.3881,857.2575,858.2655,858.7647,858.7648,861.5641,2726.0,861.5643,5.0,861.5651,3.0,1.0,91.0,0.0,1.0,0.8,0.3,Time,
,,S49,1,女,22,anonymized,Serial_Dependence_U,2023.2.3,Win32,60.24096386,,,,,,861.5657,132.0,3.0,861.566,132.0,,,,865.3301,865.8291,864.8134,865.33,862.5811,864.8133,865.8292,866.3299,866.33,869.2375,2674.0,869.2376,5.0,869.238,3.0,2.0,92.0,27.0,1.0,1.2,0.7,Time,
,,S49,1,女,22,anonymized,Serial_Dependence_U,2023.2.3,Win32,60.24096386,,,,,,869.2386,37.0,3.0,869.2387,37.0,,,,872.602,873.0934,872.0849,872.6019,870.2374,872.0848,873.0934,873.5928,873.5928,875.6185,1982.0,875.6186,5.0,875.619,3.0,3.0,93.0,15.0,1.0,0.8,0.7,Time,
,,S49,1,女,22,anonymized,Serial_Dependence_U,2023.2.3,Win32,60.24096386,,,,,,875.6194,183.0,3.0,875.6198,183.0,,,,879.2086,879.7075,878.6921,879.2085,876.6166,878.6919,879.7076,880.2073,880.2073,882.8825,2661.0,882.8825,5.0,882.8832,3.0,4.0,94.0,1.0,1.0,1.0,0.3,Time,
,,S49,1,女,22,anonymized,Serial_Dependence_U,2023.2.3,Win32,60.24096386,,,,,,882.8836,264.0,3.0,882.884,264.0,,,,886.8633,887.3548,886.3488,886.8633,883.8812,886.3487,887.3549,887.8548,887.8548,890.5632,2677.0,890.5633,5.0,890.5636,3.0,5.0,95.0,3.0,1.0,1.4,0.3,Time,
,,S49,1,女,22,anonymized,Serial_Dependence_U,2023.2.3,Win32,60.24096386,,,,,,890.564,149.0,3.0,890.5641,149.0,,,,894.3031,894.7918,893.7947,894.3029,891.5619,893.7946,894.7918,895.2858,895.2859,898.7027,3236.0,898.7028,5.0,898.7032,3.0,6.0,96.0,7.0,1.0,1.2,0.7,Time,
,,S49,1,女,22,anonymized,Serial_Dependence_U,2023.2.3,Win32,60.24096386,,,,,,898.7041,280.0,3.0,898.7054,280.0,,,,902.8668,903.3659,902.35,902.8667,899.7177,902.35,903.366,903.8662,903.8662,906.7568,2859.0,906.7569,5.0,906.7573,3.0,7.0,97.0,19.0,1.0,1.6,0.7,Time,
,,S49,1,女,22,anonymized,Serial_Dependence_U,2023.2.3,Win32,60.24096386,,,,,,906.758,199.0,3.0,906.7585,199.0,,,,910.3567,910.8467,909.8399,910.3561,907.7727,909.8397,910.8467,911.3467,911.3468,914.8555,3266.0,914.8556,5.0,914.8561,3.0,8.0,98.0,11.0,1.0,1.0,0.3,Time,
,,S49,1,女,22,anonymized,Serial_Dependence_U,2023.2.3,Win32,60.24096386,,,,,,914.8564,290.0,3.0,914.8566,290.0,,,,918.1954,918.6945,917.6861,918.1954,915.8536,917.6861,918.6947,919.1944,919.1945,921.2201,1757.0,921.2202,5.0,921.2206,3.0,9.0,99.0,25.0,1.0,0.8,0.7,Time,
,,S49,1,女,22,anonymized,Serial_Dependence_U,2023.2.3,Win32,60.24096386,,,,,,921.2213,171.0,3.0,921.2217,171.0,,,,925.2243,925.7253,924.7005,925.2242,922.2285,924.7004,925.7253,926.2151,926.2154,929.6912,3454.0,929.6913,5.0,929.6916,3.0,10.0,100.0,23.0,1.0,1.4,0.3,Time,
,,S49,1,女,22,anonymized,Serial_Dependence_U,2023.2.3,Win32,60.24096386,,,,,,929.6921,167.0,3.0,929.6923,167.0,,,,933.4898,933.9892,932.9739,933.4897,930.7074,932.9736,933.9893,934.4888,934.4889,938.1309,3415.0,938.131,5.0,938.1317,3.0,11.0,101.0,2.0,1.0,1.2,0.3,Time,
,,S49,1,女,22,anonymized,Serial_Dependence_U,2023.2.3,Win32,60.24096386,,,,,,938.1321,114.0,3.0,938.1323,114.0,,,,942.2775,942.7695,941.7618,942.2775,939.1304,941.7616,942.7695,943.2691,943.2692,946.8937,3482.0,946.8938,5.0,946.8942,3.0,12.0,102.0,9.0,1.0,1.6,0.7,Time,
,,S49,1,女,22,anonymized,Serial_Dependence_U,2023.2.3,Win32,60.24096386,,,,,,946.8947,30.0,3.0,946.8949,30.0,,,,950.4721,950.97,949.9591,950.472,947.8929,949.959,950.97,951.4664,951.4665,954.6351,2892.0,954.6352,5.0,954.6369,3.0,13.0,103.0,21.0,1.0,1.0,0.3,Time,
,,S49,1,女,22,anonymized,Serial_Dependence_U,2023.2.3,Win32,60.24096386,,,,,,954.6386,161.0,3.0,954.639,161.0,,,,958.1977,958.6978,957.6813,958.1976,955.6402,957.6813,958.6978,959.1974,959.1975,962.141,2911.0,962.1412,5.0,962.1416,3.0,14.0,104.0,6.0,1.0,1.0,0.7,Time,
,,S49,1,女,22,anonymized,Serial_Dependence_U,2023.2.3,Win32,60.24096386,,,,,,962.1423,359.0,3.0,962.1425,359.0,,,,965.933,966.4332,965.4218,965.9329,963.1469,965.4216,966.4332,966.9276,966.9277,970.0106,2952.0,970.0107,5.0,970.0112,3.0,15.0,105.0,22.0,1.0,1.2,0.3,Time,
,,S49,1,女,22,anonymized,Serial_Dependence_U,2023.2.3,Win32,60.24096386,,,,,,970.0117,232.0,3.0,970.0121,232.0,,,,973.4172,973.9087,972.9029,973.4172,971.0404,972.9028,973.9088,974.4085,974.4086,977.6997,3032.0,977.6998,5.0,977.7005,3.0,16.0,106.0,20.0,1.0,0.8,0.3,Time,
,,S49,1,女,22,anonymized,Serial_Dependence_U,2023.2.3,Win32,60.24096386,,,,,,977.7008,263.0,3.0,977.701,263.0,,,,981.8906,982.389,981.3733,981.8905,978.6996,981.3732,982.3891,982.8894,982.8895,987.0544,3970.0,987.0545,5.0,987.0549,3.0,17.0,107.0,24.0,1.0,1.6,0.3,Time,
,,S49,1,女,22,anonymized,Serial_Dependence_U,2023.2.3,Win32,60.24096386,,,,,,987.0553,273.0,3.0,987.0554,273.0,,,,990.8126,991.3094,990.2956,990.8125,988.0626,990.2955,991.3095,991.8099,991.81,995.0107,2998.0,995.0107,5.0,995.0111,3.0,18.0,108.0,17.0,1.0,1.2,0.7,Time,
,,S49,1,女,22,anonymized,Serial_Dependence_U,2023.2.3,Win32,60.24096386,,,,,,995.0114,286.0,3.0,995.0115,286.0,,,,998.576,999.0669,998.0585,998.5758,996.0265,998.0584,999.067,999.5674,999.5674,1002.667,3057.0,1002.6673,5.0,1002.6678,3.0,19.0,109.0,16.0,1.0,1.0,0.7,Time,
,,S49,1,女,22,anonymized,Serial_Dependence_U,2023.2.3,Win32,60.24096386,,,,,,1002.6688,318.0,3.0,1002.6697,318.0,,,,1006.6326,1007.1307,1006.1152,1006.6325,1003.6824,1006.1151,1007.1309,1007.631,1007.6311,1010.9545,3066.0,1010.9545,5.0,1010.9547,3.0,20.0,110.0,28.0,1.0,1.4,0.7,Time,
,,S49,1,女,22,anonymized,Serial_Dependence_U,2023.2.3,Win32,60.24096386,,,,,,1010.9549,290.0,3.0,1010.9551,290.0,,,,1014.5122,1015.0113,1013.9972,1014.5121,1011.9538,1013.997,1015.0113,1015.5111,1015.5113,1019.1699,3264.0,1019.17,5.0,1019.1706,3.0,21.0,111.0,26.0,1.0,1.0,0.7,Time,
,,S49,1,女,22,anonymized,Serial_Dependence_U,2023.2.3,Win32,60.24096386,,,,,,1019.171,39.0,3.0,1019.1712,39.0,,,,1023.3501,1023.8418,1022.8339,1023.3501,1020.165,1022.8337,1023.8418,1024.3488,1024.3488,1028.4849,4100.0,1028.4849,5.0,1028.4855,3.0,22.0,112.0,14.0,1.0,1.6,0.3,Time,
,,S49,1,女,22,anonymized,Serial_Dependence_U,2023.2.3,Win32,60.24096386,,,,,,1028.4859,159.0,3.0,1028.4861,159.0,,,,1032.4442,1032.939,1031.9314,1032.4441,1029.4987,1031.9314,1032.939,1033.4285,1033.4286,1037.1302,3684.0,1037.1303,5.0,1037.1308,3.0,23.0,113.0,18.0,1.0,1.4,0.7,Time,
,,S49,1,女,22,anonymized,Serial_Dependence_U,2023.2.3,Win32,60.24096386,,,,,,1037.1312,73.0,3.0,1037.1315,73.0,,,,1040.9213,1041.4195,1040.4042,1040.9212,1038.137,1040.4041,1041.4195,1041.9188,1041.9188,1045.0685,2867.0,1045.069,5.0,1045.0706,3.0,24.0,114.0,12.0,1.0,1.2,0.3,Time,
,,S49,1,女,22,anonymized,Serial_Dependence_U,2023.2.3,Win32,60.24096386,,,,,,1045.0713,322.0,3.0,1045.0716,322.0,,,,1049.2786,1049.7727,1048.7598,1049.2785,1046.0843,1048.7597,1049.7728,1050.2728,1050.2728,1053.6649,3250.0,1053.665,5.0,1053.6652,3.0,25.0,115.0,4.0,1.0,1.6,0.3,Time,
,,S49,1,女,22,anonymized,Serial_Dependence_U,2023.2.3,Win32,60.24096386,,,,,,1053.6654,81.0,3.0,1053.6656,81.0,,,,1057.8307,1058.3297,1057.3218,1057.8306,1054.6814,1057.3217,1058.3297,1058.8365,1058.8366,1062.6723,3816.0,1062.6725,5.0,1062.673,3.0,26.0,116.0,29.0,1.0,1.6,0.7,Time,
,,S49,1,女,22,anonymized,Serial_Dependence_U,2023.2.3,Win32,60.24096386,,,,,,1062.6737,290.0,3.0,1062.674,290.0,,,,1066.0155,1066.5105,1065.503,1066.0154,1063.6713,1065.5029,1066.5105,1067.0103,1067.0103,1070.3024,2886.0,1070.3026,5.0,1070.3038,3.0,27.0,117.0,5.0,1.0,0.8,0.7,Time,
,,S49,1,女,22,anonymized,Serial_Dependence_U,2023.2.3,Win32,60.24096386,,,,,,1070.3048,347.0,3.0,1070.3053,347.0,,,,1074.3012,1074.7909,1073.7833,1074.3011,1071.3143,1073.7832,1074.7909,1075.2912,1075.2913,1079.0162,3433.0,1079.0162,5.0,1079.0167,3.0,28.0,118.0,13.0,1.0,1.4,0.3,Time,
,,S49,1,女,22,anonymized,Serial_Dependence_U,2023.2.3,Win32,60.24096386,,,,,,1079.0172,72.0,3.0,1079.0175,72.0,,,,1082.9738,1083.4722,1082.4583,1082.9737,1080.0144,1082.4583,1083.4723,1083.9712,1083.9713,1087.3959,3231.0,1087.396,5.0,1087.3963,3.0,29.0,119.0,8.0,1.0,1.4,0.7,Time,
,,S49,1,女,22,anonymized,Serial_Dependence_U,2023.2.3,Win32,60.24096386,,,,,,1087.3966,241.0,4.0,1089.3617,241.0,s,1.9483,,1093.3599,1093.8511,1092.8434,1093.3598,1090.378,1092.8433,1093.8512,1094.3512,1094.3513,1097.8,3279.0,1097.8,5.0,1097.8003,4.0,0.0,120.0,13.0,1.0,1.4,0.3,Time,
,,S49,1,女,22,anonymized,Serial_Dependence_U,2023.2.3,Win32,60.24096386,,,,,,1097.8007,22.0,4.0,1097.8023,22.0,,,,1101.5578,1102.0483,1101.0568,1101.5577,1098.8169,1101.0567,1102.0483,1102.5481,1102.5481,1106.5242,3666.0,1106.5243,5.0,1106.5248,4.0,1.0,121.0,17.0,1.0,1.2,0.7,Time,
,,S49,1,女,22,anonymized,Serial_Dependence_U,2023.2.3,Win32,60.24096386,,,,,,1106.5254,228.0,4.0,1106.5258,228.0,,,,1110.6705,1111.162,1110.1548,1110.6705,1107.5207,1110.1547,1111.1621,1111.6618,1111.6619,1115.7546,3778.0,1115.7551,5.0,1115.7559,4.0,2.0,122.0,29.0,1.0,1.6,0.7,Time,
,,S49,1,女,22,anonymized,Serial_Dependence_U,2023.2.3,Win32,60.24096386,,,,,,1115.7567,86.0,4.0,1115.757,86.0,,,,1119.3099,1119.8088,1118.8011,1119.3098,1116.769,1118.801,1119.8088,1120.3121,1120.3121,1123.6579,3286.0,1123.6579,5.0,1123.6583,4.0,3.0,123.0,16.0,1.0,1.0,0.7,Time,
,,S49,1,女,22,anonymized,Serial_Dependence_U,2023.2.3,Win32,60.24096386,,,,,,1123.6588,252.0,4.0,1123.659,252.0,,,,1127.8233,1128.3285,1127.317,1127.8232,1124.6754,1127.3169,1128.3285,1128.8233,1128.8233,1133.2137,4121.0,1133.2138,5.0,1133.2143,4.0,4.0,124.0,19.0,1.0,1.6,0.7,Time,
,,S49,1,女,22,anonymized,Serial_Dependence_U,2023.2.3,Win32,60.24096386,,,,,,1133.2151,211.0,4.0,1133.2156,211.0,,,,1136.9802,1137.4695,1136.4789,1136.9801,1134.2128,1136.4788,1137.4695,1137.9693,1137.9693,1141.8683,3456.0,1141.8684,5.0,1141.8688,4.0,5.0,125.0,12.0,1.0,1.2,0.3,Time,
,,S49,1,女,22,anonymized,Serial_Dependence_U,2023.2.3,Win32,60.24096386,,,,,,1141.8694,113.0,4.0,1141.8699,113.0,,,,1145.2344,1145.734,1144.7178,1145.2342,1142.8852,1144.7177,1145.734,1146.2335,1146.2336,1149.3918,2910.0,1149.3919,5.0,1149.3923,4.0,6.0,126.0,25.0,1.0,0.8,0.7,Time,
,,S49,1,女,22,anonymized,Serial_Dependence_U,2023.2.3,Win32,60.24096386,,,,,,1149.3928,300.0,4.0,1149.3931,300.0,,,,1152.9815,1153.4806,1152.4659,1152.9814,1150.3884,1152.4658,1153.4806,1153.9805,1153.9806,1157.3466,3069.0,1157.3467,5.0,1157.347,4.0,7.0,127.0,21.0,1.0,1.0,0.3,Time,
,,S49,1,女,22,anonymized,Serial_Dependence_U,2023.2.3,Win32,60.24096386,,,,,,1157.3473,272.0,4.0,1157.3475,272.0,,,,1160.8953,1161.3949,1160.3884,1160.8952,1158.3507,1160.3883,1161.3949,1161.8847,1161.8848,1165.3212,3366.0,1165.3213,5.0,1165.322,4.0,8.0,128.0,6.0,1.0,1.0,0.7,Time,
,,S49,1,女,22,anonymized,Serial_Dependence_U,2023.2.3,Win32,60.24096386,,,,,,1165.3232,359.0,4.0,1165.3236,359.0,,,,1169.2928,1169.7918,1168.7764,1169.2927,1166.3334,1168.7763,1169.7919,1170.2918,1170.2919,1174.0578,3481.0,1174.0579,5.0,1174.0582,4.0,9.0,129.0,18.0,1.0,1.4,0.7,Time,
,,S49,1,女,22,anonymized,Serial_Dependence_U,2023.2.3,Win32,60.24096386,,,,,,1174.0587,104.0,4.0,1174.0589,104.0,,,,1177.8279,1178.3221,1177.3241,1177.8279,1175.0589,1177.324,1178.3221,1178.8223,1178.8223,1182.5716,3385.0,1182.5716,5.0,1182.5722,4.0,10.0,130.0,22.0,1.0,1.2,0.3,Time,
,,S49,1,女,22,anonymized,Serial_Dependence_U,2023.2.3,Win32,60.24096386,,,,,,1182.5726,211.0,4.0,1182.5728,211.0,,,,1186.1701,1186.6694,1185.6543,1186.1699,1183.5876,1185.6542,1186.6695,1187.1695,1187.1695,1191.1267,3648.0,1191.1269,5.0,1191.1271,4.0,11.0,131.0,11.0,1.0,1.0,0.3,Time,
,,S49,1,女,22,anonymized,Serial_Dependence_U,2023.2.3,Win32,60.24096386,,,,,,1191.1276,288.0,4.0,1191.1279,288.0,,,,1195.2939,1195.7897,1194.7923,1195.2937,1192.126,1194.7923,1195.7898,1196.2895,1196.2896,1200.0745,3564.0,1200.0745,5.0,1200.075,4.0,12.0,132.0,14.0,1.0,1.6,0.3,Time,
,,S49,1,女,22,anonymized,Serial_Dependence_U,2023.2.3,Win32,60.24096386,,,,,,1200.0754,211.0,4.0,1200.0756,211.0,,,,1204.2487,1204.7481,1203.7473,1204.2487,1201.0815,1203.7472,1204.7481,1205.2467,1205.2468,1209.1881,3681.0,1209.1881,5.0,1209.1885,4.0,13.0,133.0,4.0,1.0,1.6,0.3,Time,
,,S49,1,女,22,anonymized,Serial_Dependence_U,2023.2.3,Win32,60.24096386,,,,,,1209.1889,355.0,4.0,1209.1891,355.0,,,,1212.5446,1213.0439,1212.0286,1212.5445,1210.1878,1212.0285,1213.0439,1213.5436,1213.5436,1216.2432,2644.0,1216.2434,5.0,1216.2439,4.0,14.0,134.0,15.0,1.0,0.8,0.7,Time,
,,S49,1,女,22,anonymized,Serial_Dependence_U,2023.2.3,Win32,60.24096386,,,,,,1216.2444,162.0,4.0,1216.2446,162.0,,,,1219.6421,1220.1414,1219.1261,1219.6419,1217.2594,1219.126,1220.1415,1220.6413,1220.6414,1223.9331,3131.0,1223.9331,5.0,1223.9336,4.0,15.0,135.0,10.0,1.0,0.8,0.3,Time,
,,S49,1,女,22,anonymized,Serial_Dependence_U,2023.2.3,Win32,60.24096386,,,,,,1223.9339,124.0,4.0,1223.9342,124.0,,,,1227.8968,1228.3893,1227.3806,1227.8968,1224.9479,1227.3804,1228.3894,1228.8885,1228.8885,1232.5798,3651.0,1232.5798,5.0,1232.5802,4.0,16.0,136.0,8.0,1.0,1.4,0.7,Time,
,,S49,1,女,22,anonymized,Serial_Dependence_U,2023.2.3,Win32,60.24096386,,,,,,1232.5808,329.0,4.0,1232.5811,329.0,,,,1236.144,1236.6425,1235.6298,1236.1439,1233.5873,1235.6297,1236.6426,1237.1425,1237.1426,1240.635,3236.0,1240.6351,5.0,1240.6358,4.0,17.0,137.0,26.0,1.0,1.0,0.7,Time,
,,S49,1,女,22,anonymized,Serial_Dependence_U,2023.2.3,Win32,60.24096386,,,,,,1240.6361,163.0,4.0,1240.6364,163.0,,,,1244.6245,1245.1165,1244.1087,1244.6244,1241.6443,1244.1085,1245.1165,1245.617,1245.6172,1249.0653,3089.0,1249.0654,5.0,1249.0659,4.0,18.0,138.0,3.0,1.0,1.4,0.3,Time,
,,S49,1,女,22,anonymized,Serial_Dependence_U,2023.2.3,Win32,60.24096386,,,,,,1249.0664,94.0,4.0,1249.0667,94.0,,,,1253.0647,1253.5632,1252.5481,1253.0645,1250.0816,1252.5478,1253.5632,1254.0642,1254.0642,1256.8457,2758.0,1256.8458,5.0,1256.8461,4.0,19.0,139.0,23.0,1.0,1.4,0.3,Time,
,,S49,1,女,22,anonymized,Serial_Dependence_U,2023.2.3,Win32,60.24096386,,,,,,1256.8466,120.0,4.0,1256.8467,120.0,,,,1261.0031,1261.4937,1260.4876,1261.003,1257.8538,1260.4875,1261.4937,1261.9844,1261.9844,1264.5495,2545.0,1264.5496,5.0,1264.55,4.0,20.0,140.0,9.0,1.0,1.6,0.7,Time,
,,S49,1,女,22,anonymized,Serial_Dependence_U,2023.2.3,Win32,60.24096386,,,,,,1264.5509,25.0,4.0,1264.5512,25.0,,,,1268.3253,1268.825,1267.8168,1268.3252,1265.5512,1267.8168,1268.825,1269.3247,1269.3248,1272.457,2851.0,1272.457,5.0,1272.4574,4.0,21.0,141.0,2.0,1.0,1.2,0.3,Time,
,,S49,1,女,22,anonymized,Serial_Dependence_U,2023.2.3,Win32,60.24096386,,,,,,1272.4577,20.0,4.0,1272.4579,20.0,,,,1276.2227,1276.7222,1275.7071,1276.2227,1273.4736,1275.707,1276.7222,1277.2219,1277.2219,1280.6047,3253.0,1280.6047,5.0,1280.6054,4.0,22.0,142.0,27.0,1.0,1.2,0.7,Time,
,,S49,1,女,22,anonymized,Serial_Dependence_U,2023.2.3,Win32,60.24096386,,,,,,1280.606,243.0,4.0,1280.6064,243.0,,,,1283.9924,1284.4864,1283.4788,1283.9923,1281.6048,1283.4787,1284.4865,1284.9859,1284.986,1287.9936,2981.0,1287.9937,5.0,1287.9941,4.0,23.0,143.0,0.0,1.0,0.8,0.3,Time,
,,S49,1,女,22,anonymized,Serial_Dependence_U,2023.2.3,Win32,60.24096386,,,,,,1287.9944,98.0,4.0,1287.9947,98.0,,,,1291.9279,1292.4167,1291.4264,1291.9278,1288.9936,1291.4264,1292.4167,1292.9166,1292.9167,1296.3745,3356.0,1296.3745,5.0,1296.3748,4.0,24.0,144.0,28.0,1.0,1.4,0.7,Time,
,,S49,1,女,22,anonymized,Serial_Dependence_U,2023.2.3,Win32,60.24096386,,,,,,1296.3752,251.0,4.0,1296.3754,251.0,,,,1299.7321,1300.2309,1299.2171,1299.7319,1297.3733,1299.2169,1300.2309,1300.7304,1300.7306,1303.9464,2921.0,1303.9466,5.0,1303.9471,4.0,25.0,145.0,5.0,1.0,0.8,0.7,Time,
,,S49,1,女,22,anonymized,Serial_Dependence_U,2023.2.3,Win32,60.24096386,,,,,,1303.9475,31.0,4.0,1303.9478,31.0,,,,1307.5332,1308.0286,1307.0295,1307.5331,1304.9632,1307.0294,1308.0286,1308.5277,1308.5278,1311.822,2917.0,1311.8222,5.0,1311.8227,4.0,26.0,146.0,1.0,1.0,1.0,0.3,Time,
,,S49,1,女,22,anonymized,Serial_Dependence_U,2023.2.3,Win32,60.24096386,,,,,,1311.8232,14.0,4.0,1311.8234,14.0,,,,1315.2178,1315.7088,1314.7005,1315.2177,1312.8348,1314.7005,1315.7088,1316.2085,1316.2086,1319.2168,2632.0,1319.2169,5.0,1319.2178,4.0,27.0,147.0,20.0,1.0,0.8,0.3,Time,
,,S49,1,女,22,anonymized,Serial_Dependence_U,2023.2.3,Win32,60.24096386,,,,,,1319.2188,239.0,4.0,1319.2191,239.0,,,,1322.9505,1323.4397,1322.4479,1322.9503,1320.2104,1322.4478,1323.4399,1323.9391,1323.9391,1327.3975,3132.0,1327.3976,5.0,1327.3979,4.0,28.0,148.0,7.0,1.0,1.2,0.7,Time,
,,S49,1,女,22,anonymized,Serial_Dependence_U,2023.2.3,Win32,60.24096386,,,,,,1327.3982,31.0,4.0,1327.3985,31.0,,,,1331.604,1332.1032,1331.0873,1331.604,1328.4129,1331.0873,1332.1033,1332.6031,1332.6031,1336.1687,3250.0,1336.1689,5.0,1336.1693,4.0,29.0,149.0,24.0,1.0,1.6,0.3,Time,
,,S49,1,女,22,anonymized,Serial_Dependence_U,2023.2.3,Win32,60.24096386,,,,,,1336.1697,282.0,5.0,1338.0012,282.0,s,1.8059,,1341.3671,1341.8665,1340.8593,1341.3669,1339.0101,1340.8592,1341.8666,1342.3662,1342.3663,1345.2175,2549.0,1345.2175,5.0,1345.2181,5.0,0.0,150.0,25.0,1.0,0.8,0.7,Time,
,,S49,1,女,22,anonymized,Serial_Dependence_U,2023.2.3,Win32,60.24096386,,,,,,1345.2187,208.0,5.0,1345.2209,208.0,,,,1349.4231,1349.9206,1348.9074,1349.4231,1346.2328,1348.9072,1349.9207,1350.4204,1350.4205,1354.272,3598.0,1354.2721,5.0,1354.2726,5.0,1.0,151.0,4.0,1.0,1.6,0.3,Time,
,,S49,1,女,22,anonymized,Serial_Dependence_U,2023.2.3,Win32,60.24096386,,,,,,1354.2733,153.0,5.0,1354.2737,153.0,,,,1357.8294,1358.3274,1357.3198,1357.8293,1355.2793,1357.3197,1358.3274,1358.8274,1358.8276,1361.997,2672.0,1361.997,5.0,1361.9975,5.0,2.0,152.0,6.0,1.0,1.0,0.7,Time,
,,S49,1,女,22,anonymized,Serial_Dependence_U,2023.2.3,Win32,60.24096386,,,,,,1361.9981,257.0,5.0,1361.9983,257.0,,,,1365.5434,1366.0418,1365.0265,1365.5432,1362.9939,1365.0264,1366.042,1366.5418,1366.5418,1369.8746,2955.0,1369.8747,5.0,1369.8755,5.0,3.0,153.0,16.0,1.0,1.0,0.7,Time,
,,S49,1,女,22,anonymized,Serial_Dependence_U,2023.2.3,Win32,60.24096386,,,,,,1369.8763,38.0,5.0,1369.8768,38.0,,,,1373.248,1373.7389,1372.7322,1373.2479,1370.8914,1372.7321,1373.739,1374.2395,1374.2396,1377.5605,3213.0,1377.5606,5.0,1377.5611,5.0,4.0,154.0,5.0,1.0,0.8,0.7,Time,
,,S49,1,女,22,anonymized,Serial_Dependence_U,2023.2.3,Win32,60.24096386,,,,,,1377.5614,197.0,5.0,1377.5617,197.0,,,,1381.3443,1381.8362,1380.8287,1381.3442,1378.5622,1380.8287,1381.8362,1382.3359,1382.336,1385.7962,3270.0,1385.7964,5.0,1385.797,5.0,5.0,155.0,2.0,1.0,1.2,0.3,Time,
,,S49,1,女,22,anonymized,Serial_Dependence_U,2023.2.3,Win32,60.24096386,,,,,,1385.7977,331.0,5.0,1385.7979,331.0,,,,1389.5864,1390.0833,1389.0682,1389.5863,1386.8263,1389.0681,1390.0834,1390.5833,1390.5834,1393.9421,3176.0,1393.9422,5.0,1393.9429,5.0,6.0,156.0,7.0,1.0,1.2,0.7,Time,
,,S49,1,女,22,anonymized,Serial_Dependence_U,2023.2.3,Win32,60.24096386,,,,,,1393.9441,110.0,5.0,1393.9445,110.0,,,,1397.3228,1397.8145,1396.8066,1397.3226,1394.9402,1396.8065,1397.8146,1398.3034,1398.3034,1401.0601,2419.0,1401.0602,5.0,1401.0609,5.0,7.0,157.0,10.0,1.0,0.8,0.3,Time,
,,S49,1,女,22,anonymized,Serial_Dependence_U,2023.2.3,Win32,60.24096386,,,,,,1401.0614,327.0,5.0,1401.0615,327.0,,,,1404.4465,1404.9452,1403.9375,1404.4463,1402.0714,1403.9374,1404.9453,1405.4449,1405.445,1408.2607,2785.0,1408.2608,5.0,1408.2612,5.0,8.0,158.0,20.0,1.0,0.8,0.3,Time,
,,S49,1,女,22,anonymized,Serial_Dependence_U,2023.2.3,Win32,60.24096386,,,,,,1408.2616,32.0,5.0,1408.2618,32.0,,,,1412.2438,1412.7423,1411.7294,1412.2437,1409.2802,1411.7293,1412.7424,1413.2426,1413.2426,1416.5443,3085.0,1416.5443,5.0,1416.5448,5.0,9.0,159.0,8.0,1.0,1.4,0.7,Time,
,,S49,1,女,22,anonymized,Serial_Dependence_U,2023.2.3,Win32,60.24096386,,,,,,1416.5454,177.0,5.0,1416.5456,177.0,,,,1420.1494,1420.6468,1419.6331,1420.1494,1417.5578,1419.6331,1420.6469,1421.1395,1421.1395,1424.3903,3185.0,1424.3904,5.0,1424.3909,5.0,10.0,160.0,11.0,1.0,1.0,0.3,Time,
,,S49,1,女,22,anonymized,Serial_Dependence_U,2023.2.3,Win32,60.24096386,,,,,,1424.3915,88.0,5.0,1424.3918,88.0,,,,1428.1636,1428.6602,1427.646,1428.1636,1425.4049,1427.646,1428.6603,1429.1602,1429.1603,1432.3454,2982.0,1432.3454,5.0,1432.3459,5.0,11.0,161.0,17.0,1.0,1.2,0.7,Time,
,,S49,1,女,22,anonymized,Serial_Dependence_U,2023.2.3,Win32,60.24096386,,,,,,1432.3464,241.0,5.0,1432.3468,241.0,,,,1435.9404,1436.4378,1435.4265,1435.9403,1433.3607,1435.4264,1436.4379,1436.9342,1436.9343,1439.8683,2836.0,1439.8684,5.0,1439.8691,5.0,12.0,162.0,21.0,1.0,1.0,0.3,Time,
,,S49,1,女,22,anonymized,Serial_Dependence_U,2023.2.3,Win32,60.24096386,,,,,,1439.8698,135.0,5.0,1439.8705,135.0,,,,1443.8655,1444.3651,1443.3497,1443.8654,1440.8834,1443.3497,1444.3651,1444.8649,1444.8649,1448.2578,3148.0,1448.2579,5.0,1448.2584,5.0,13.0,163.0,3.0,1.0,1.4,0.3,Time,
,,S49,1,女,22,anonymized,Serial_Dependence_U,2023.2.3,Win32,60.24096386,,,,,,1448.2589,182.0,5.0,1448.259,182.0,,,,1451.639,1452.1293,1451.1375,1451.6389,1449.2729,1451.1374,1452.1294,1452.6286,1452.6287,1456.0714,3166.0,1456.0715,5.0,1456.0721,5.0,14.0,164.0,0.0,1.0,0.8,0.3,Time,
,,S49,1,女,22,anonymized,Serial_Dependence_U,2023.2.3,Win32,60.24096386,,,,,,1456.0724,347.0,5.0,1456.0726,347.0,,,,1460.0521,1460.5436,1459.5353,1460.052,1457.0707,1459.5351,1460.5436,1461.0554,1461.0554,1464.1838,3112.0,1464.1839,5.0,1464.1843,5.0,15.0,165.0,23.0,1.0,1.4,0.3,Time,
,,S49,1,女,22,anonymized,Serial_Dependence_U,2023.2.3,Win32,60.24096386,,,,,,1464.1848,2.0,5.0,1464.1851,2.0,,,,1467.9247,1468.4232,1467.4152,1467.9245,1465.1791,1467.4151,1468.4232,1468.9231,1468.9232,1472.3148,3357.0,1472.3149,5.0,1472.3152,5.0,16.0,166.0,27.0,1.0,1.2,0.7,Time,
,,S49,1,女,22,anonymized,Serial_Dependence_U,2023.2.3,Win32,60.24096386,,,,,,1472.3157,139.0,5.0,1472.316,139.0,,,,1476.2555,1476.7538,1475.7466,1476.2554,1473.3147,1475.7466,1476.7539,1477.2537,1477.2538,1480.2798,2933.0,1480.2799,5.0,1480.2818,5.0,17.0,167.0,18.0,1.0,1.4,0.7,Time,
,,S49,1,女,22,anonymized,Serial_Dependence_U,2023.2.3,Win32,60.24096386,,,,,,1480.283,267.0,5.0,1480.2834,267.0,,,,1484.2597,1484.7577,1483.7434,1484.2596,1481.3105,1483.7433,1484.7577,1485.2508,1485.2508,1488.1168,2824.0,1488.1169,5.0,1488.1171,5.0,18.0,168.0,28.0,1.0,1.4,0.7,Time,
,,S49,1,女,22,anonymized,Serial_Dependence_U,2023.2.3,Win32,60.24096386,,,,,,1488.1175,169.0,5.0,1488.1176,169.0,,,,1492.2734,1492.7648,1491.7585,1492.2733,1489.1255,1491.7584,1492.7649,1493.2564,1493.2565,1496.6415,3350.0,1496.6417,5.0,1496.6425,5.0,19.0,169.0,19.0,1.0,1.6,0.7,Time,
,,S49,1,女,22,anonymized,Serial_Dependence_U,2023.2.3,Win32,60.24096386,,,,,,1496.643,199.0,5.0,1496.6433,199.0,,,,1500.8356,1501.3292,1500.3212,1500.8354,1497.6547,1500.3212,1501.3293,1501.8288,1501.8289,1505.4547,3597.0,1505.4549,5.0,1505.4553,5.0,20.0,170.0,14.0,1.0,1.6,0.3,Time,
,,S49,1,女,22,anonymized,Serial_Dependence_U,2023.2.3,Win32,60.24096386,,,,,,1505.456,189.0,5.0,1505.4562,189.0,,,,1509.2348,1509.7322,1508.7185,1509.2347,1506.4452,1508.7184,1509.7323,1510.2326,1510.2327,1513.1514,2897.0,1513.1514,5.0,1513.1517,5.0,21.0,171.0,12.0,1.0,1.2,0.3,Time,
,,S49,1,女,22,anonymized,Serial_Dependence_U,2023.2.3,Win32,60.24096386,,,,,,1513.1519,12.0,5.0,1513.152,12.0,,,,1516.729,1517.2232,1516.2159,1516.7287,1514.1497,1516.2159,1517.2232,1517.723,1517.7231,1520.998,3049.0,1520.998,5.0,1520.9984,5.0,22.0,172.0,1.0,1.0,1.0,0.3,Time,
,,S49,1,女,22,anonymized,Serial_Dependence_U,2023.2.3,Win32,60.24096386,,,,,,1520.9986,65.0,5.0,1520.999,65.0,,,,1524.3546,1524.8543,1523.8381,1524.3544,1522.0052,1523.838,1524.8543,1525.3546,1525.3547,1528.3127,2749.0,1528.3128,5.0,1528.313,5.0,23.0,173.0,15.0,1.0,0.8,0.7,Time,
,,S49,1,女,22,anonymized,Serial_Dependence_U,2023.2.3,Win32,60.24096386,,,,,,1528.3134,44.0,5.0,1528.3137,44.0,,,,1532.0852,1532.5847,1531.5772,1532.0851,1529.312,1531.5771,1532.5848,1533.0845,1533.0845,1535.9589,2796.0,1535.9589,5.0,1535.9593,5.0,24.0,174.0,22.0,1.0,1.2,0.3,Time,
,,S49,1,女,22,anonymized,Serial_Dependence_U,2023.2.3,Win32,60.24096386,,,,,,1535.9596,43.0,5.0,1535.9599,43.0,,,,1540.1158,1540.6152,1539.5994,1540.1158,1536.9669,1539.5994,1540.6152,1541.0985,1541.0986,1544.6904,3266.0,1544.6905,5.0,1544.6907,5.0,25.0,175.0,29.0,1.0,1.6,0.7,Time,
,,S49,1,女,22,anonymized,Serial_Dependence_U,2023.2.3,Win32,60.24096386,,,,,,1544.6911,188.0,5.0,1544.6913,188.0,,,,1548.8463,1549.3462,1548.3299,1548.8463,1545.6886,1548.3298,1549.3462,1549.8471,1549.8472,1553.2113,3338.0,1553.2114,5.0,1553.2118,5.0,26.0,176.0,9.0,1.0,1.6,0.7,Time,
,,S49,1,女,22,anonymized,Serial_Dependence_U,2023.2.3,Win32,60.24096386,,,,,,1553.2123,190.0,5.0,1553.2124,190.0,,,,1556.7774,1557.2764,1556.2608,1556.7772,1554.2278,1556.2607,1557.2765,1557.7675,1557.7683,1560.8348,2649.0,1560.8349,5.0,1560.835,5.0,27.0,177.0,26.0,1.0,1.0,0.7,Time,
,,S49,1,女,22,anonymized,Serial_Dependence_U,2023.2.3,Win32,60.24096386,,,,,,1560.8355,188.0,5.0,1560.8356,188.0,,,,1565.0162,1565.5132,1564.5005,1565.016,1561.834,1564.5005,1565.5133,1566.0137,1566.0137,1569.9808,3514.0,1569.9809,5.0,1569.9812,5.0,28.0,178.0,24.0,1.0,1.6,0.3,Time,
,,S49,1,女,22,anonymized,Serial_Dependence_U,2023.2.3,Win32,60.24096386,,,,,,1569.9817,156.0,5.0,1569.9819,156.0,,,,1573.9549,1574.4593,1573.447,1573.9548,1570.98,1573.447,1574.4594,1574.9537,1574.9537,1578.4226,3254.0,1578.4227,5.0,1578.4234,5.0,29.0,179.0,13.0,1.0,1.4,0.3,Time,
,,S49,1,女,22,anonymized,Serial_Dependence_U,2023.2.3,Win32,60.24096386,,,,,,1578.4239,35.0,6.0,1580.5686,35.0,s,2.1193,,1584.5085,1585.0003,1583.9928,1584.5084,1581.5604,1583.9928,1585.0003,1585.5001,1585.5001,1588.8745,3249.0,1588.8745,5.0,1588.8748,6.0,0.0,180.0,18.0,1.0,1.4,0.7,Time,
,,S49,1,女,22,anonymized,Serial_Dependence_U,2023.2.3,Win32,60.24096386,,,,,,1588.8753,22.0,6.0,1588.8766,22.0,,,,1592.4147,1592.9143,1591.9064,1592.4146,1589.8739,1591.9063,1592.9144,1593.413,1593.4131,1596.5221,2852.0,1596.5221,5.0,1596.5224,6.0,1.0,181.0,6.0,1.0,1.0,0.7,Time,
,,S49,1,女,22,anonymized,Serial_Dependence_U,2023.2.3,Win32,60.24096386,,,,,,1596.5229,268.0,6.0,1596.5231,268.0,,,,1600.1016,1600.5949,1599.5873,1600.1015,1597.5209,1599.5872,1600.5949,1601.0947,1601.0948,1604.4772,3051.0,1604.4773,5.0,1604.4778,6.0,2.0,182.0,1.0,1.0,1.0,0.3,Time,
,,S49,1,女,22,anonymized,Serial_Dependence_U,2023.2.3,Win32,60.24096386,,,,,,1604.4785,143.0,6.0,1604.4787,143.0,,,,1608.4844,1608.9817,1607.9691,1608.4843,1605.4936,1607.9691,1608.9817,1609.4817,1609.4817,1613.0746,3384.0,1613.0747,5.0,1613.0754,6.0,3.0,183.0,3.0,1.0,1.4,0.3,Time,
,,S49,1,女,22,anonymized,Serial_Dependence_U,2023.2.3,Win32,60.24096386,,,,,,1613.0758,307.0,6.0,1613.0761,307.0,,,,1617.0597,1617.5559,1616.5569,1617.0596,1614.0929,1616.5567,1617.556,1618.0465,1618.0465,1621.3159,3233.0,1621.316,5.0,1621.3163,6.0,4.0,184.0,13.0,1.0,1.4,0.3,Time,
,,S49,1,女,22,anonymized,Serial_Dependence_U,2023.2.3,Win32,60.24096386,,,,,,1621.3166,223.0,6.0,1621.3168,223.0,,,,1625.0782,1625.5707,1624.5666,1625.0781,1622.3308,1624.5665,1625.5708,1626.0699,1626.07,1629.5297,3183.0,1629.5298,5.0,1629.5302,6.0,5.0,185.0,27.0,1.0,1.2,0.7,Time,
,,S49,1,女,22,anonymized,Serial_Dependence_U,2023.2.3,Win32,60.24096386,,,,,,1629.5308,217.0,6.0,1629.531,217.0,,,,1633.3027,1633.8019,1632.8011,1633.3024,1630.5276,1632.801,1633.8019,1634.3014,1634.3014,1637.3159,2648.0,1637.316,5.0,1637.3165,6.0,6.0,186.0,12.0,1.0,1.2,0.3,Time,
,,S49,1,女,22,anonymized,Serial_Dependence_U,2023.2.3,Win32,60.24096386,,,,,,1637.3168,222.0,6.0,1637.317,222.0,,,,1641.4987,1641.9976,1640.9909,1641.4987,1638.324,1640.9909,1641.9976,1642.4978,1642.4979,1645.8464,3247.0,1645.8466,5.0,1645.847,6.0,7.0,187.0,4.0,1.0,1.6,0.3,Time,
,,S49,1,女,22,anonymized,Serial_Dependence_U,2023.2.3,Win32,60.24096386,,,,,,1645.8474,234.0,6.0,1645.8476,234.0,,,,1650.0198,1650.5121,1649.5034,1650.0197,1646.8632,1649.5032,1650.5122,1651.0118,1651.0119,1654.5935,3335.0,1654.5936,5.0,1654.5942,6.0,8.0,188.0,9.0,1.0,1.6,0.7,Time,
,,S49,1,女,22,anonymized,Serial_Dependence_U,2023.2.3,Win32,60.24096386,,,,,,1654.5946,139.0,6.0,1654.5948,139.0,,,,1658.3924,1658.893,1657.8756,1658.3923,1655.595,1657.8755,1658.893,1659.3916,1659.3917,1662.4021,2743.0,1662.4023,5.0,1662.4034,6.0,9.0,189.0,22.0,1.0,1.2,0.3,Time,
,,S49,1,女,22,anonymized,Serial_Dependence_U,2023.2.3,Win32,60.24096386,,,,,,1662.4046,136.0,6.0,1662.405,136.0,,,,1666.3639,1666.8556,1665.8475,1666.3638,1663.4153,1665.8475,1666.8556,1667.3553,1667.3554,1670.6713,3033.0,1670.6715,5.0,1670.6719,6.0,10.0,190.0,8.0,1.0,1.4,0.7,Time,
,,S49,1,女,22,anonymized,Serial_Dependence_U,2023.2.3,Win32,60.24096386,,,,,,1670.6722,66.0,6.0,1670.6724,66.0,,,,1674.0701,1674.5698,1673.5544,1674.07,1671.6877,1673.5542,1674.5699,1675.0699,1675.07,1677.6699,2583.0,1677.67,5.0,1677.6703,6.0,11.0,191.0,20.0,1.0,0.8,0.3,Time,
,,S49,1,女,22,anonymized,Serial_Dependence_U,2023.2.3,Win32,60.24096386,,,,,,1677.6708,300.0,6.0,1677.6709,300.0,,,,1681.6182,1682.1171,1681.1021,1681.6181,1678.6626,1681.102,1682.1171,1682.6169,1682.617,1685.3166,2686.0,1685.3166,5.0,1685.3169,6.0,12.0,192.0,28.0,1.0,1.4,0.7,Time,
,,S49,1,女,22,anonymized,Serial_Dependence_U,2023.2.3,Win32,60.24096386,,,,,,1685.3171,267.0,6.0,1685.3173,267.0,,,,1689.4819,1689.9812,1688.974,1689.4817,1686.3333,1688.974,1689.9813,1690.4886,1690.4887,1693.1303,2595.0,1693.1304,5.0,1693.1308,6.0,13.0,193.0,19.0,1.0,1.6,0.7,Time,
,,S49,1,女,22,anonymized,Serial_Dependence_U,2023.2.3,Win32,60.24096386,,,,,,1693.1312,13.0,6.0,1693.1315,13.0,,,,1696.8962,1697.3953,1696.3799,1696.8961,1694.1467,1696.3798,1697.3953,1697.8949,1697.8949,1700.7717,2749.0,1700.7718,5.0,1700.7725,6.0,14.0,194.0,17.0,1.0,1.2,0.7,Time,
,,S49,1,女,22,anonymized,Serial_Dependence_U,2023.2.3,Win32,60.24096386,,,,,,1700.773,8.0,6.0,1700.7736,8.0,,,,1704.3431,1704.8429,1703.8271,1704.343,1701.7953,1703.827,1704.8431,1705.3425,1705.3425,1708.4175,2961.0,1708.4176,5.0,1708.4178,6.0,15.0,195.0,16.0,1.0,1.0,0.7,Time,
,,S49,1,女,22,anonymized,Serial_Dependence_U,2023.2.3,Win32,60.24096386,,,,,,1708.4182,166.0,6.0,1708.4184,166.0,,,,1711.7905,1712.2901,1711.2743,1711.7905,1709.4333,1711.2742,1712.2902,1712.79,1712.79,1715.5062,2499.0,1715.5064,5.0,1715.5068,6.0,16.0,196.0,5.0,1.0,0.8,0.7,Time,
,,S49,1,女,22,anonymized,Serial_Dependence_U,2023.2.3,Win32,60.24096386,,,,,,1715.5072,147.0,6.0,1715.5075,147.0,,,,1718.9055,1719.4059,1718.3968,1718.9054,1716.5222,1718.3967,1719.4059,1719.8962,1719.8963,1722.987,3069.0,1722.987,5.0,1722.9878,6.0,17.0,197.0,0.0,1.0,0.8,0.3,Time,
,,S49,1,女,22,anonymized,Serial_Dependence_U,2023.2.3,Win32,60.24096386,,,,,,1722.9881,193.0,6.0,1722.9884,193.0,,,,1727.1942,1727.685,1726.6786,1727.1941,1724.0033,1726.6785,1727.685,1728.1846,1728.1846,1731.0729,2859.0,1731.0732,5.0,1731.0739,6.0,18.0,198.0,14.0,1.0,1.6,0.3,Time,
,,S49,1,女,22,anonymized,Serial_Dependence_U,2023.2.3,Win32,60.24096386,,,,,,1731.0762,44.0,6.0,1731.0766,44.0,,,,1734.4209,1734.9169,1733.9165,1734.4208,1732.0839,1733.9164,1734.917,1735.4166,1735.4166,1738.7737,3096.0,1738.7738,5.0,1738.7741,6.0,19.0,199.0,25.0,1.0,0.8,0.7,Time,
,,S49,1,女,22,anonymized,Serial_Dependence_U,2023.2.3,Win32,60.24096386,,,,,,1738.7745,160.0,6.0,1738.7747,160.0,,,,1742.5724,1743.0694,1742.0553,1742.5723,1739.7899,1742.0553,1743.0695,1743.5702,1743.5702,1746.3056,2715.0,1746.3058,5.0,1746.3062,6.0,20.0,200.0,2.0,1.0,1.2,0.3,Time,
,,S49,1,女,22,anonymized,Serial_Dependence_U,2023.2.3,Win32,60.24096386,,,,,,1746.3064,176.0,6.0,1746.3068,176.0,,,,1749.6687,1750.1606,1749.153,1749.6687,1747.3203,1749.153,1750.1606,1750.6604,1750.6605,1753.2768,2539.0,1753.2769,5.0,1753.2773,6.0,21.0,201.0,15.0,1.0,0.8,0.7,Time,
,,S49,1,女,22,anonymized,Serial_Dependence_U,2023.2.3,Win32,60.24096386,,,,,,1753.278,135.0,6.0,1753.2783,135.0,,,,1757.4588,1757.9578,1756.9498,1757.4587,1754.2771,1756.9498,1757.9578,1758.4481,1758.4481,1761.2246,2750.0,1761.2248,5.0,1761.225,6.0,22.0,202.0,24.0,1.0,1.6,0.3,Time,
,,S49,1,女,22,anonymized,Serial_Dependence_U,2023.2.3,Win32,60.24096386,,,,,,1761.2255,340.0,6.0,1761.2258,340.0,,,,1764.8231,1765.322,1764.3067,1764.8229,1762.2404,1764.3067,1765.322,1765.8223,1765.8223,1768.6815,2665.0,1768.6815,5.0,1768.6819,6.0,23.0,203.0,21.0,1.0,1.0,0.3,Time,
,,S49,1,女,22,anonymized,Serial_Dependence_U,2023.2.3,Win32,60.24096386,,,,,,1768.6824,116.0,6.0,1768.6828,116.0,,,,1772.6708,1773.1695,1772.1612,1772.6707,1769.6967,1772.1605,1773.1695,1773.6605,1773.6605,1776.2609,2566.0,1776.261,5.0,1776.2613,6.0,24.0,204.0,23.0,1.0,1.4,0.3,Time,
,,S49,1,女,22,anonymized,Serial_Dependence_U,2023.2.3,Win32,60.24096386,,,,,,1776.2618,347.0,6.0,1776.2619,347.0,,,,1779.6429,1780.1337,1779.1265,1779.6428,1777.2594,1779.1264,1780.1337,1780.6338,1780.6339,1783.2162,2552.0,1783.2164,5.0,1783.2167,6.0,25.0,205.0,10.0,1.0,0.8,0.3,Time,
,,S49,1,女,22,anonymized,Serial_Dependence_U,2023.2.3,Win32,60.24096386,,,,,,1783.217,22.0,6.0,1783.2174,22.0,,,,1786.8068,1787.3048,1786.2993,1786.8067,1784.2327,1786.2991,1787.3048,1787.805,1787.8051,1790.2898,2450.0,1790.2899,5.0,1790.2905,6.0,26.0,206.0,11.0,1.0,1.0,0.3,Time,
,,S49,1,女,22,anonymized,Serial_Dependence_U,2023.2.3,Win32,60.24096386,,,,,,1790.2909,71.0,6.0,1790.2914,71.0,,,,1793.8372,1794.3289,1793.3309,1793.8371,1791.2983,1793.3308,1794.3289,1794.8286,1794.8287,1797.4533,2599.0,1797.4534,5.0,1797.4537,6.0,27.0,207.0,26.0,1.0,1.0,0.7,Time,
,,S49,1,女,22,anonymized,Serial_Dependence_U,2023.2.3,Win32,60.24096386,,,,,,1797.454,271.0,6.0,1797.4543,271.0,,,,1801.6019,1802.0993,1801.085,1801.6017,1798.445,1801.085,1802.0993,1802.5927,1802.5928,1805.5685,2949.0,1805.5685,5.0,1805.5691,6.0,28.0,208.0,29.0,1.0,1.6,0.7,Time,
,,S49,1,女,22,anonymized,Serial_Dependence_U,2023.2.3,Win32,60.24096386,,,,,,1805.5695,206.0,6.0,1805.57,206.0,,,,1809.3409,1809.8402,1808.8241,1809.3408,1806.5827,1808.8241,1809.8403,1810.3402,1810.3402,1813.7225,3342.0,1813.7226,5.0,1813.7229,6.0,29.0,209.0,7.0,1.0,1.2,0.7,Time,
,,S49,1,女,22,anonymized,Serial_Dependence_U,2023.2.3,Win32,60.24096386,,,,,,1813.7231,91.0,7.0,1817.5045,91.0,s,3.7608,,1821.3035,1821.8027,1820.7955,1821.3033,1818.5296,1820.7954,1821.8027,1822.3026,1822.3026,1825.2688,2685.0,1825.2688,5.0,1825.2693,7.0,0.0,210.0,2.0,1.0,1.2,0.3,Time,
,,S49,1,女,22,anonymized,Serial_Dependence_U,2023.2.3,Win32,60.24096386,,,,,,1825.2697,148.0,7.0,1825.2718,148.0,,,,1829.0759,1829.5733,1828.5591,1829.0758,1826.2856,1828.559,1829.5733,1830.0734,1830.0734,1833.393,3298.0,1833.3931,5.0,1833.3938,7.0,1.0,211.0,12.0,1.0,1.2,0.3,Time,
,,S49,1,女,22,anonymized,Serial_Dependence_U,2023.2.3,Win32,60.24096386,,,,,,1833.3945,58.0,7.0,1833.3948,58.0,,,,1837.1572,1837.6474,1836.6393,1837.1572,1834.4045,1836.6393,1837.6474,1838.1475,1838.1475,1841.2132,2621.0,1841.2134,5.0,1841.2138,7.0,2.0,212.0,7.0,1.0,1.2,0.7,Time,
,,S49,1,女,22,anonymized,Serial_Dependence_U,2023.2.3,Win32,60.24096386,,,,,,1841.2141,49.0,7.0,1841.2144,49.0,,,,1845.1964,1845.6948,1844.6794,1845.1963,1842.2146,1844.6792,1845.6948,1846.1945,1846.1946,1848.9529,2544.0,1848.9529,5.0,1848.9533,7.0,3.0,213.0,13.0,1.0,1.4,0.3,Time,
,,S49,1,女,22,anonymized,Serial_Dependence_U,2023.2.3,Win32,60.24096386,,,,,,1848.9535,339.0,7.0,1848.9537,339.0,,,,1853.1257,1853.6256,1852.6094,1853.1256,1849.9714,1852.6094,1853.6256,1854.1249,1854.125,1857.5408,3184.0,1857.5408,5.0,1857.5411,7.0,4.0,214.0,19.0,1.0,1.6,0.7,Time,
,,S49,1,女,22,anonymized,Serial_Dependence_U,2023.2.3,Win32,60.24096386,,,,,,1857.5414,249.0,7.0,1857.5417,249.0,,,,1861.5111,1862.0056,1860.9979,1861.511,1858.5586,1860.9978,1862.0056,1862.5058,1862.5058,1865.5478,2583.0,1865.5478,5.0,1865.5484,7.0,5.0,215.0,28.0,1.0,1.4,0.7,Time,
,,S49,1,女,22,anonymized,Serial_Dependence_U,2023.2.3,Win32,60.24096386,,,,,,1865.5493,290.0,7.0,1865.55,290.0,,,,1869.0951,1869.5866,1868.5872,1869.0949,1866.5467,1868.5871,1869.5866,1870.0767,1870.0767,1873.3866,2822.0,1873.3867,5.0,1873.3871,7.0,6.0,216.0,16.0,1.0,1.0,0.7,Time,
,,S49,1,女,22,anonymized,Serial_Dependence_U,2023.2.3,Win32,60.24096386,,,,,,1873.3874,242.0,7.0,1873.3877,242.0,,,,1876.7509,1877.2513,1876.235,1876.7508,1874.402,1876.2349,1877.2513,1877.7504,1877.7504,1880.8933,2683.0,1880.8934,5.0,1880.8938,7.0,7.0,217.0,25.0,1.0,0.8,0.7,Time,
,,S49,1,女,22,anonymized,Serial_Dependence_U,2023.2.3,Win32,60.24096386,,,,,,1880.8943,323.0,7.0,1880.8948,323.0,,,,1884.8612,1885.3644,1884.3487,1884.861,1881.9165,1884.3486,1885.3644,1885.8643,1885.8644,1888.3056,2414.0,1888.3056,5.0,1888.3059,7.0,8.0,218.0,8.0,1.0,1.4,0.7,Time,
,,S49,1,女,22,anonymized,Serial_Dependence_U,2023.2.3,Win32,60.24096386,,,,,,1888.3062,105.0,7.0,1888.3065,105.0,,,,1892.2387,1892.7286,1891.738,1892.2387,1889.3049,1891.7379,1892.7286,1893.2284,1893.2284,1896.3215,2953.0,1896.3216,5.0,1896.3227,7.0,9.0,219.0,18.0,1.0,1.4,0.7,Time,
,,S49,1,女,22,anonymized,Serial_Dependence_U,2023.2.3,Win32,60.24096386,,,,,,1896.3232,282.0,7.0,1896.3235,282.0,,,,1900.3182,1900.813,1899.8022,1900.3181,1897.3337,1899.802,1900.8131,1901.3091,1901.3092,1904.0083,2673.0,1904.0084,5.0,1904.0091,7.0,10.0,220.0,3.0,1.0,1.4,0.3,Time,
,,S49,1,女,22,anonymized,Serial_Dependence_U,2023.2.3,Win32,60.24096386,,,,,,1904.0095,173.0,7.0,1904.0098,173.0,,,,1907.5576,1908.0567,1907.0414,1907.5574,1905.0085,1907.0413,1908.0567,1908.5463,1908.5463,1911.8487,2982.0,1911.8488,5.0,1911.8498,7.0,11.0,221.0,6.0,1.0,1.0,0.7,Time,
,,S49,1,女,22,anonymized,Serial_Dependence_U,2023.2.3,Win32,60.24096386,,,,,,1911.8506,312.0,7.0,1911.8509,312.0,,,,1915.6125,1916.1048,1915.0982,1915.6124,1912.8559,1915.0979,1916.1048,1916.6073,1916.6073,1920.0201,3020.0,1920.0203,5.0,1920.0207,7.0,12.0,222.0,17.0,1.0,1.2,0.7,Time,
,,S49,1,女,22,anonymized,Serial_Dependence_U,2023.2.3,Win32,60.24096386,,,,,,1920.0211,122.0,7.0,1920.0214,122.0,,,,1924.2265,1924.7179,1923.7117,1924.2264,1921.0367,1923.7115,1924.718,1925.2176,1925.2176,1927.3442,1979.0,1927.3443,4.0,1927.3452,7.0,13.0,223.0,4.0,1.0,1.6,0.3,Time,
,,S49,1,女,22,anonymized,Serial_Dependence_U,2023.2.3,Win32,60.24096386,,,,,,1927.3456,252.0,7.0,1927.3461,252.0,,,,1930.9081,1931.3989,1930.3997,1930.908,1928.3668,1930.3997,1931.3992,1931.8988,1931.8988,1934.4356,2389.0,1934.4358,5.0,1934.4365,7.0,14.0,224.0,26.0,1.0,1.0,0.7,Time,
,,S49,1,女,22,anonymized,Serial_Dependence_U,2023.2.3,Win32,60.24096386,,,,,,1934.4372,139.0,7.0,1934.4377,139.0,,,,1938.5881,1939.086,1938.0802,1938.588,1935.4475,1938.0801,1939.086,1939.5857,1939.5858,1942.5582,2818.0,1942.5583,5.0,1942.5587,7.0,15.0,225.0,29.0,1.0,1.6,0.7,Time,
,,S49,1,女,22,anonymized,Serial_Dependence_U,2023.2.3,Win32,60.24096386,,,,,,1942.559,2.0,7.0,1942.5593,2.0,,,,1945.9203,1946.4165,1945.4024,1945.9202,1943.5619,1945.4023,1946.4167,1946.9101,1946.9102,1948.7103,1703.0,1948.7104,5.0,1948.7108,7.0,16.0,226.0,15.0,1.0,0.8,0.7,Time,
,,S49,1,女,22,anonymized,Serial_Dependence_U,2023.2.3,Win32,60.24096386,,,,,,1948.7112,242.0,7.0,1948.7114,242.0,,,,1952.5165,1953.0081,1952.0007,1952.5164,1949.7263,1952.0006,1953.0081,1953.5123,1953.5123,1955.5502,2017.0,1955.5502,5.0,1955.5509,7.0,17.0,227.0,22.0,1.0,1.2,0.3,Time,
,,S49,1,女,22,anonymized,Serial_Dependence_U,2023.2.3,Win32,60.24096386,,,,,,1955.5512,39.0,7.0,1955.5514,39.0,,,,1959.14,1959.6392,1958.6237,1959.1399,1956.5486,1958.6237,1959.6393,1960.1389,1960.139,1963.0634,2873.0,1963.0634,5.0,1963.0636,7.0,18.0,228.0,21.0,1.0,1.0,0.3,Time,
,,S49,1,女,22,anonymized,Serial_Dependence_U,2023.2.3,Win32,60.24096386,,,,,,1963.064,121.0,7.0,1963.0642,121.0,,,,1967.2066,1967.7038,1966.7043,1967.2065,1964.0626,1966.7042,1967.7038,1968.193,1968.193,1971.4621,2999.0,1971.4622,5.0,1971.4629,7.0,19.0,229.0,9.0,1.0,1.6,0.7,Time,
,,S49,1,女,22,anonymized,Serial_Dependence_U,2023.2.3,Win32,60.24096386,,,,,,1971.4634,260.0,7.0,1971.4636,260.0,,,,1975.0433,1975.5405,1974.5262,1975.0431,1972.4626,1974.5261,1975.5405,1976.0336,1976.0337,1979.3994,2956.0,1979.3996,5.0,1979.4,7.0,20.0,230.0,1.0,1.0,1.0,0.3,Time,
,,S49,1,女,22,anonymized,Serial_Dependence_U,2023.2.3,Win32,60.24096386,,,,,,1979.4003,185.0,7.0,1979.4006,185.0,,,,1983.6073,1984.0976,1983.0902,1983.6072,1980.4175,1983.0901,1984.0976,1984.5973,1984.5973,1987.8048,3065.0,1987.8048,5.0,1987.8051,7.0,21.0,231.0,24.0,1.0,1.6,0.3,Time,
,,S49,1,女,22,anonymized,Serial_Dependence_U,2023.2.3,Win32,60.24096386,,,,,,1987.8055,132.0,7.0,1987.8057,132.0,,,,1991.1466,1991.6451,1990.638,1991.1466,1988.8037,1990.6379,1991.6451,1992.145,1992.1452,1994.8627,2399.0,1994.8628,5.0,1994.8633,7.0,22.0,232.0,5.0,1.0,0.8,0.7,Time,
,,S49,1,女,22,anonymized,Serial_Dependence_U,2023.2.3,Win32,60.24096386,,,,,,1994.864,272.0,7.0,1994.8643,272.0,,,,1998.8681,1999.366,1998.352,1998.868,1995.8775,1998.352,1999.366,1999.8667,1999.8668,2003.3765,3469.0,2003.3767,5.0,2003.3774,7.0,23.0,233.0,23.0,1.0,1.4,0.3,Time,
,,S49,1,女,22,anonymized,Serial_Dependence_U,2023.2.3,Win32,60.24096386,,,,,,2003.3783,288.0,7.0,2003.3789,288.0,,,,2006.7735,2007.2728,2006.2572,2006.7735,2004.3916,2006.2572,2007.2729,2007.7725,2007.7726,2010.8811,2750.0,2010.8812,5.0,2010.8817,7.0,24.0,234.0,10.0,1.0,0.8,0.3,Time,
,,S49,1,女,22,anonymized,Serial_Dependence_U,2023.2.3,Win32,60.24096386,,,,,,2010.8821,37.0,7.0,2010.8824,37.0,,,,2014.2715,2014.7708,2013.7565,2014.2714,2011.8883,2013.7563,2014.7709,2015.2706,2015.2706,2017.9863,2660.0,2017.9863,5.0,2017.9867,7.0,25.0,235.0,0.0,1.0,0.8,0.3,Time,
,,S49,1,女,22,anonymized,Serial_Dependence_U,2023.2.3,Win32,60.24096386,,,,,,2017.987,179.0,7.0,2017.9871,179.0,,,,2022.1534,2022.6512,2021.652,2022.1533,2018.9781,2021.6518,2022.6512,2023.1506,2023.1507,2026.8752,3498.0,2026.8752,5.0,2026.8754,7.0,26.0,236.0,14.0,1.0,1.6,0.3,Time,
,,S49,1,女,22,anonymized,Serial_Dependence_U,2023.2.3,Win32,60.24096386,,,,,,2026.8757,230.0,7.0,2026.876,230.0,,,,2030.2661,2030.7655,2029.7497,2030.266,2027.874,2029.7496,2030.7656,2031.2653,2031.2654,2034.1143,2717.0,2034.1145,5.0,2034.115,7.0,27.0,237.0,20.0,1.0,0.8,0.3,Time,
,,S49,1,女,22,anonymized,Serial_Dependence_U,2023.2.3,Win32,60.24096386,,,,,,2034.1153,261.0,7.0,2034.1155,261.0,,,,2037.8724,2038.3624,2037.3635,2037.8723,2035.1308,2037.3635,2038.3624,2038.862,2038.862,2041.8784,2924.0,2041.8785,5.0,2041.8787,7.0,28.0,238.0,27.0,1.0,1.2,0.7,Time,
,,S49,1,女,22,anonymized,Serial_Dependence_U,2023.2.3,Win32,60.24096386,,,,,,2041.8791,176.0,7.0,2041.8794,176.0,,,,2045.4941,2045.9938,2044.9855,2045.4939,2042.9028,2044.9853,2045.9938,2046.4928,2046.4928,2049.5841,2832.0,2049.5841,5.0,2049.5844,7.0,29.0,239.0,11.0,1.0,1.0,0.3,Time,
,,S49,1,女,22,anonymized,Serial_Dependence_U,2023.2.3,Win32,60.24096386,,,,,,2049.5848,288.0,8.0,2051.8911,288.0,s,2.2869,,2055.2578,2055.7563,2054.7412,2055.2577,2052.9075,2054.741,2055.7563,2056.2566,2056.2567,2058.7654,2415.0,2058.7655,5.0,2058.7657,8.0,0.0,240.0,25.0,1.0,0.8,0.7,Time,
,,S49,1,女,22,anonymized,Serial_Dependence_U,2023.2.3,Win32,60.24096386,,,,,,2058.7659,20.0,8.0,2058.7675,20.0,,,,2062.9065,2063.4035,2062.4046,2062.9065,2059.7643,2062.4045,2063.4036,2063.9044,2063.9045,2066.9376,3016.0,2066.9376,5.0,2066.9384,8.0,1.0,241.0,19.0,1.0,1.6,0.7,Time,
,,S49,1,女,22,anonymized,Serial_Dependence_U,2023.2.3,Win32,60.24096386,,,,,,2066.9391,52.0,8.0,2066.9396,52.0,,,,2070.7445,2071.2343,2070.2274,2070.7445,2067.9524,2070.2273,2071.2345,2071.7341,2071.7341,2074.8333,2982.0,2074.8333,5.0,2074.8337,8.0,2.0,242.0,2.0,1.0,1.2,0.3,Time,
,,S49,1,女,22,anonymized,Serial_Dependence_U,2023.2.3,Win32,60.24096386,,,,,,2074.834,147.0,8.0,2074.8343,147.0,,,,2078.2322,2078.7317,2077.7174,2078.2322,2075.8501,2077.7172,2078.7317,2079.2317,2079.2317,2082.4899,3095.0,2082.49,5.0,2082.4904,8.0,3.0,243.0,20.0,1.0,0.8,0.3,Time,
,,S49,1,女,22,anonymized,Serial_Dependence_U,2023.2.3,Win32,60.24096386,,,,,,2082.4911,131.0,8.0,2082.4915,131.0,,,,2086.0391,2086.5291,2085.5214,2086.039,2083.482,2085.5213,2086.5291,2087.0289,2087.029,2090.4048,3282.0,2090.4048,5.0,2090.4052,8.0,4.0,244.0,26.0,1.0,1.0,0.7,Time,
,,S49,1,女,22,anonymized,Serial_Dependence_U,2023.2.3,Win32,60.24096386,,,,,,2090.4057,42.0,8.0,2090.406,42.0,,,,2094.3479,2094.8436,2093.8352,2094.3479,2091.4022,2093.8351,2094.8436,2095.3337,2095.3337,2099.1674,3798.0,2099.1675,5.0,2099.168,8.0,5.0,245.0,28.0,1.0,1.4,0.7,Time,
,,S49,1,女,22,anonymized,Serial_Dependence_U,2023.2.3,Win32,60.24096386,,,,,,2099.1688,295.0,8.0,2099.1692,295.0,,,,2103.1238,2103.6235,2102.6089,2103.1237,2100.1663,2102.6088,2103.6236,2104.1235,2104.1236,2107.9555,3480.0,2107.9556,5.0,2107.9562,8.0,6.0,246.0,18.0,1.0,1.4,0.7,Time,
,,S49,1,女,22,anonymized,Serial_Dependence_U,2023.2.3,Win32,60.24096386,,,,,,2107.9567,256.0,8.0,2107.9569,256.0,,,,2111.3244,2111.8205,2110.8061,2111.3243,2108.9719,2110.8057,2111.8205,2112.3205,2112.3206,2116.1713,3564.0,2116.1714,5.0,2116.1717,8.0,7.0,247.0,5.0,1.0,0.8,0.7,Time,
,,S49,1,女,22,anonymized,Serial_Dependence_U,2023.2.3,Win32,60.24096386,,,,,,2116.1722,79.0,8.0,2116.1726,79.0,,,,2120.3359,2120.8343,2119.8187,2120.3359,2117.1861,2119.8186,2120.8343,2121.3342,2121.3343,2124.9205,3576.0,2124.9206,5.0,2124.9214,8.0,8.0,248.0,29.0,1.0,1.6,0.7,Time,
,,S49,1,女,22,anonymized,Serial_Dependence_U,2023.2.3,Win32,60.24096386,,,,,,2124.9222,22.0,8.0,2124.9227,22.0,,,,2128.4509,2128.9494,2127.9492,2128.4509,2125.9175,2127.949,2128.9494,2129.4498,2129.45,2133.0387,3580.0,2133.0387,5.0,2133.039,8.0,9.0,249.0,6.0,1.0,1.0,0.7,Time,
,,S49,1,女,22,anonymized,Serial_Dependence_U,2023.2.3,Win32,60.24096386,,,,,,2133.0398,346.0,8.0,2133.0402,346.0,,,,2136.7868,2137.2823,2136.271,2136.7867,2134.0382,2136.2709,2137.2823,2137.78,2137.7801,2140.5792,2767.0,2140.5793,5.0,2140.58,8.0,10.0,250.0,7.0,1.0,1.2,0.7,Time,
,,S49,1,女,22,anonymized,Serial_Dependence_U,2023.2.3,Win32,60.24096386,,,,,,2140.5805,289.0,8.0,2140.5808,289.0,,,,2144.7598,2145.2595,2144.2445,2144.7598,2141.5777,2144.2444,2145.2596,2145.7592,2145.7592,2149.0756,3293.0,2149.0757,5.0,2149.0761,8.0,11.0,251.0,4.0,1.0,1.6,0.3,Time,
,,S49,1,女,22,anonymized,Serial_Dependence_U,2023.2.3,Win32,60.24096386,,,,,,2149.0764,85.0,8.0,2149.0767,85.0,,,,2152.6484,2153.1397,2152.1321,2152.6483,2150.0922,2152.132,2153.1397,2153.6404,2153.6405,2156.582,2916.0,2156.5821,5.0,2156.5826,8.0,12.0,252.0,16.0,1.0,1.0,0.7,Time,
,,S49,1,女,22,anonymized,Serial_Dependence_U,2023.2.3,Win32,60.24096386,,,,,,2156.5832,337.0,8.0,2156.584,337.0,,,,2160.1809,2160.6706,2159.6632,2160.1808,2157.5904,2159.663,2160.6706,2161.1715,2161.1716,2164.5694,3101.0,2164.5695,5.0,2164.5701,8.0,13.0,253.0,1.0,1.0,1.0,0.3,Time,
,,S49,1,女,22,anonymized,Serial_Dependence_U,2023.2.3,Win32,60.24096386,,,,,,2164.5707,102.0,8.0,2164.571,102.0,,,,2168.7681,2169.268,2168.2518,2168.7681,2165.5859,2168.2515,2169.2681,2169.7675,2169.7676,2173.2768,3380.0,2173.2769,5.0,2173.2781,8.0,14.0,254.0,14.0,1.0,1.6,0.3,Time,
,,S49,1,女,22,anonymized,Serial_Dependence_U,2023.2.3,Win32,60.24096386,,,,,,2173.2787,55.0,8.0,2173.279,55.0,,,,2176.6405,2177.1315,2176.1249,2176.6404,2174.2909,2176.1249,2177.1315,2177.6317,2177.6317,2181.0076,3049.0,2181.0077,5.0,2181.0083,8.0,15.0,255.0,15.0,1.0,0.8,0.7,Time,
,,S49,1,女,22,anonymized,Serial_Dependence_U,2023.2.3,Win32,60.24096386,,,,,,2181.0088,156.0,8.0,2181.009,156.0,,,,2184.796,2185.2957,2184.2803,2184.7959,2182.0136,2184.2801,2185.2957,2185.796,2185.7961,2188.9943,2949.0,2188.9944,5.0,2188.9949,8.0,16.0,256.0,22.0,1.0,1.2,0.3,Time,
,,S49,1,女,22,anonymized,Serial_Dependence_U,2023.2.3,Win32,60.24096386,,,,,,2188.9953,53.0,8.0,2188.9956,53.0,,,,2192.9765,2193.4766,2192.4619,2192.9764,2189.9943,2192.4618,2193.4766,2193.976,2193.976,2197.5419,3532.0,2197.542,5.0,2197.543,8.0,17.0,257.0,23.0,1.0,1.4,0.3,Time,
,,S49,1,女,22,anonymized,Serial_Dependence_U,2023.2.3,Win32,60.24096386,,,,,,2197.5436,116.0,8.0,2197.5439,116.0,,,,2201.7084,2202.2066,2201.1911,2201.7083,2198.558,2201.191,2202.2066,2202.7067,2202.7068,2206.5396,3573.0,2206.5397,5.0,2206.54,8.0,18.0,258.0,9.0,1.0,1.6,0.7,Time,
,,S49,1,女,22,anonymized,Serial_Dependence_U,2023.2.3,Win32,60.24096386,,,,,,2206.5403,342.0,8.0,2206.5406,342.0,,,,2210.1229,2210.6207,2209.6214,2210.1228,2207.5565,2209.6212,2210.6207,2211.1201,2211.1202,2214.4615,2932.0,2214.4616,5.0,2214.4621,8.0,19.0,259.0,21.0,1.0,1.0,0.3,Time,
,,S49,1,女,22,anonymized,Serial_Dependence_U,2023.2.3,Win32,60.24096386,,,,,,2214.4624,189.0,8.0,2214.4626,189.0,,,,2217.8438,2218.3346,2217.3277,2217.8436,2215.461,2217.3276,2218.3346,2218.8249,2218.825,2222.2008,2975.0,2222.2008,5.0,2222.2011,8.0,20.0,260.0,10.0,1.0,0.8,0.3,Time,
,,S49,1,女,22,anonymized,Serial_Dependence_U,2023.2.3,Win32,60.24096386,,,,,,2222.2014,199.0,8.0,2222.2016,199.0,,,,2226.1488,2226.6486,2225.6335,2226.1488,2223.2002,2225.6333,2226.6486,2227.1486,2227.1486,2230.8636,3398.0,2230.8636,5.0,2230.8642,8.0,21.0,261.0,8.0,1.0,1.4,0.7,Time,
,,S49,1,女,22,anonymized,Serial_Dependence_U,2023.2.3,Win32,60.24096386,,,,,,2230.8645,191.0,8.0,2230.8648,191.0,,,,2234.8473,2235.345,2234.3459,2234.8472,2231.8801,2234.3458,2235.3451,2235.8455,2235.8456,2239.7107,3662.0,2239.7108,5.0,2239.7113,8.0,22.0,262.0,13.0,1.0,1.4,0.3,Time,
,,S49,1,女,22,anonymized,Serial_Dependence_U,2023.2.3,Win32,60.24096386,,,,,,2239.7119,240.0,8.0,2239.7123,240.0,,,,2243.3093,2243.809,2242.7933,2243.3092,2240.727,2242.7931,2243.8091,2244.3086,2244.3086,2247.4935,2897.0,2247.4937,5.0,2247.4944,8.0,23.0,263.0,11.0,1.0,1.0,0.3,Time,
,,S49,1,女,22,anonymized,Serial_Dependence_U,2023.2.3,Win32,60.24096386,,,,,,2247.4953,248.0,8.0,2247.4958,248.0,,,,2250.8904,2251.3902,2250.3739,2250.8904,2248.5074,2250.3738,2251.3903,2251.8895,2251.8895,2255.2406,3056.0,2255.2408,5.0,2255.242,8.0,24.0,264.0,0.0,1.0,0.8,0.3,Time,
,,S49,1,女,22,anonymized,Serial_Dependence_U,2023.2.3,Win32,60.24096386,,,,,,2255.2431,108.0,8.0,2255.2437,108.0,,,,2259.0374,2259.537,2258.521,2259.0373,2256.255,2258.5208,2259.537,2260.0372,2260.0373,2263.3023,3048.0,2263.3024,5.0,2263.3028,8.0,25.0,265.0,12.0,1.0,1.2,0.3,Time,
,,S49,1,女,22,anonymized,Serial_Dependence_U,2023.2.3,Win32,60.24096386,,,,,,2263.3032,194.0,8.0,2263.3034,194.0,,,,2267.0684,2267.5674,2266.5538,2267.0683,2264.3209,2266.5536,2267.5674,2268.0671,2268.0672,2270.9834,2879.0,2270.9835,5.0,2270.9843,8.0,26.0,266.0,17.0,1.0,1.2,0.7,Time,
,,S49,1,女,22,anonymized,Serial_Dependence_U,2023.2.3,Win32,60.24096386,,,,,,2270.9849,16.0,8.0,2270.9853,16.0,,,,2274.7411,2275.2378,2274.2252,2274.741,2271.991,2274.2252,2275.2379,2275.738,2275.738,2278.6734,2699.0,2278.6734,5.0,2278.6738,8.0,27.0,267.0,27.0,1.0,1.2,0.7,Time,
,,S49,1,女,22,anonymized,Serial_Dependence_U,2023.2.3,Win32,60.24096386,,,,,,2278.6741,173.0,8.0,2278.6743,173.0,,,,2282.8382,2283.329,2282.337,2282.8381,2279.6725,2282.337,2283.3291,2283.8285,2283.8285,2286.9545,2766.0,2286.9546,5.0,2286.9551,8.0,28.0,268.0,24.0,1.0,1.6,0.3,Time,
,,S49,1,女,22,anonymized,Serial_Dependence_U,2023.2.3,Win32,60.24096386,,,,,,2286.9556,244.0,8.0,2286.9559,244.0,,,,2290.9526,2291.4426,2290.4362,2290.9525,2287.9628,2290.4362,2291.4427,2291.943,2291.943,2295.2088,3222.0,2295.2088,5.0,2295.2095,8.0,29.0,269.0,3.0,1.0,1.4,0.3,Time,
,,S49,1,女,22,anonymized,Serial_Dependence_U,2023.2.3,Win32,60.24096386,,,,,,,,,,,,,,,,,,,,,,,,,,,,,,,,,,,,2295.2106
