Scale_setup.started,Scale_setup.stopped,participant,session,sex,age,date,expName,psychopyVersion,OS,frameRate,Intro.started,Intro.stopped,key_resp_2.keys,key_resp_2.rt,key_resp_2.duration,block.started,direction,Block_id,block.stopped,trial_direction,Block_resp_2.keys,Block_resp_2.rt,Block_resp_2.duration,ITI.started,ITI.stopped,Mask_2.started,Mask_2.stopped,encoding.started,encoding.stopped,Cue.started,Cue.stopped,Response.started,Response.stopped,keyDuration,Feedback_Time.started,FeedbackID_T,Feedback_Time.stopped,trials.thisRepN,trials.thisTrialN,trials.thisN,trials.thisIndex,trials.ran,TimeDur,Coherence1,TrialType
0.0003000000119186,0.0005000000000165,S53,1,男,21,anonymized,Serial_Dependence_U,2023.2.3,Win32,60.60606060606061,,,,,,,,,,,,,,,,,,,,,,,,,,,,,,,,,,,
,,S53,1,男,21,anonymized,Serial_Dependence_U,2023.2.3,Win32,60.60606060606061,9.177600000023858,10.327300000011917,space,1.1154000000357769,,,,,,,,,,,,,,,,,,,,,,,,,,,,,,,
,,S53,1,男,21,anonymized,Serial_Dependence_U,2023.2.3,Win32,60.60606060606061,,,,,,10.332100000023845,205.0,0.0,12.640699999988072,205.0,s,2.2776999999881014,,16.61289999997615,17.10499999999999,16.10489999997617,16.61280000001193,13.642800000011931,16.10480000001192,17.10510000002384,17.597199999988078,17.597499999999997,19.23819999998807,1198.0,19.238500000000016,2.0,20.24000000000001,0.0,0.0,0.0,23.0,1.0,1.4,0.3,Time
,,S53,1,男,21,anonymized,Serial_Dependence_U,2023.2.3,Win32,60.60606060606061,,,,,,20.24069999998809,59.0,0.0,20.24210000002384,59.0,,,,24.424800000011917,24.916699999988083,23.91619999998809,24.424800000011917,21.240899999976165,23.91619999998809,24.916699999988083,25.40889999997617,25.40889999997617,26.985399999976156,1160.0,26.9855,2.0,27.98569999998807,0.0,1.0,1.0,14.0,1.0,1.6,0.3,Time
,,S53,1,男,21,anonymized,Serial_Dependence_U,2023.2.3,Win32,60.60606060606061,,,,,,27.98610000002384,72.0,0.0,27.98610000002384,72.0,,,,31.56430000001191,32.05589999997616,31.055800000011917,31.56410000002384,28.986999999999995,31.055800000011917,32.05589999997616,32.54810000002385,32.54819999998807,33.882199999988075,1019.0,33.882199999988075,3.0,34.87880000001192,0.0,2.0,2.0,21.0,1.0,1.0,0.3,Time
,,S53,1,男,21,anonymized,Serial_Dependence_U,2023.2.3,Win32,60.60606060606061,,,,,,34.87930000001191,319.0,0.0,34.87939999997616,319.0,,,,38.62100000000001,39.113699999988086,38.11519999998808,38.62080000001191,35.880100000023845,38.11519999998808,39.113699999988086,39.60539999997616,39.60539999997616,41.82469999998807,1576.0,41.82469999998807,5.0,42.82269999998809,0.0,3.0,3.0,27.0,1.0,1.2,0.7,Time
,,S53,1,男,21,anonymized,Serial_Dependence_U,2023.2.3,Win32,60.60606060606061,,,,,,42.82300000000001,272.0,0.0,42.82319999998808,272.0,,,,46.76189999997615,47.25330000001193,46.25569999998808,46.76180000001193,43.8245,46.25560000002383,47.25330000001193,47.74580000001191,47.74580000001191,49.46930000001191,1265.0,49.46930000001191,2.0,50.47019999998807,0.0,4.0,4.0,28.0,1.0,1.4,0.7,Time
,,S53,1,男,21,anonymized,Serial_Dependence_U,2023.2.3,Win32,60.60606060606061,,,,,,50.470699999988085,209.0,0.0,50.470800000011934,209.0,,,,54.66039999997616,55.16710000002385,54.14989999997616,54.66039999997616,51.47189999997616,54.14969999998809,55.16710000002385,55.65899999999999,55.65899999999999,57.33080000001192,1167.0,57.33080000001192,2.0,58.331500000000005,0.0,5.0,5.0,4.0,1.0,1.6,0.3,Time
,,S53,1,男,21,anonymized,Serial_Dependence_U,2023.2.3,Win32,60.60606060606061,,,,,,58.33180000001192,275.0,0.0,58.332,275.0,,,,61.87680000001191,62.36960000002384,61.37069999998809,61.87669999998809,59.33319999998807,61.37069999998809,62.369699999988086,62.86119999998809,62.86130000001194,64.588,1251.0,64.588,4.0,65.58560000002385,0.0,6.0,6.0,6.0,1.0,1.0,0.7,Time
,,S53,1,男,21,anonymized,Serial_Dependence_U,2023.2.3,Win32,60.60606060606061,,,,,,65.58600000000001,86.0,0.0,65.58630000001193,86.0,,,,68.97,69.45880000001193,68.458,68.96989999997615,66.58689999997617,68.45789999997615,69.45880000001193,69.95130000001191,69.95150000000001,71.21830000001194,856.0,71.21839999997616,4.0,72.21619999998808,0.0,7.0,7.0,10.0,1.0,0.8,0.3,Time
,,S53,1,男,21,anonymized,Serial_Dependence_U,2023.2.3,Win32,60.60606060606061,,,,,,72.2165,119.0,0.0,72.21660000002385,119.0,,,,76.40430000001192,76.89360000002384,75.89330000001192,76.40430000001192,73.22189999997616,75.89330000001192,76.89360000002384,77.38580000001193,77.38589999997615,78.87939999997616,1054.0,78.87950000000001,1.0,79.88069999998808,0.0,8.0,8.0,24.0,1.0,1.6,0.3,Time
,,S53,1,男,21,anonymized,Serial_Dependence_U,2023.2.3,Win32,60.60606060606061,,,,,,79.88110000002385,20.0,0.0,79.88119999998807,20.0,,,,83.459,83.95130000001191,82.95360000002384,83.45889999997615,80.88499999999999,82.95349999999999,83.95130000001191,84.44319999998808,84.44339999997615,86.03510000002385,1245.0,86.03519999998807,4.0,87.0361999999881,0.0,9.0,9.0,11.0,1.0,1.0,0.3,Time
,,S53,1,男,21,anonymized,Serial_Dependence_U,2023.2.3,Win32,60.60606060606061,,,,,,87.03680000001194,153.0,0.0,87.03689999997616,153.0,,,,90.992,91.48380000001194,90.4831999999881,90.99189999997614,88.0395,90.48310000002382,91.48380000001194,91.9761999999881,91.9761999999881,93.7685,1360.0,93.76860000002384,3.0,94.76610000002384,0.0,10.0,10.0,18.0,1.0,1.4,0.7,Time
,,S53,1,男,21,anonymized,Serial_Dependence_U,2023.2.3,Win32,60.60606060606061,,,,,,94.7663999999762,116.0,0.0,94.76649999999998,116.0,,,,98.7551999999881,99.24689999997614,98.24839999997616,98.7551999999881,95.77030000001191,98.24830000001194,99.24689999997614,99.73910000002384,99.73919999998807,101.20039999997616,1109.0,101.20039999997616,2.0,102.19560000002386,0.0,11.0,11.0,13.0,1.0,1.4,0.3,Time
,,S53,1,男,21,anonymized,Serial_Dependence_U,2023.2.3,Win32,60.60606060606061,,,,,,102.196,340.0,0.0,102.19610000002385,340.0,,,,105.5495,106.042,105.04419999998808,105.54939999997616,103.20360000002384,105.04410000002386,106.042,106.5336999999881,106.5336999999881,108.01119999998808,1005.0,108.01119999998808,4.0,109.01210000002382,0.0,12.0,12.0,5.0,1.0,0.8,0.7,Time
,,S53,1,男,21,anonymized,Serial_Dependence_U,2023.2.3,Win32,60.60606060606061,,,,,,109.01260000002388,32.0,0.0,109.01280000001194,32.0,,,,112.557,113.04969999998806,112.05119999998809,112.55689999997614,110.0163999999762,112.05110000002388,113.04969999998806,113.54160000002386,113.54169999998808,115.13769999998809,1136.0,115.13769999998809,4.0,116.13449999999996,0.0,13.0,13.0,26.0,1.0,1.0,0.7,Time
,,S53,1,男,21,anonymized,Serial_Dependence_U,2023.2.3,Win32,60.60606060606061,,,,,,116.13480000001196,38.0,0.0,116.13500000000002,38.0,,,,119.90989999997616,120.40310000002384,119.4041999999881,119.90989999997616,117.13630000001191,119.40410000002382,120.40310000002384,120.8941999999881,120.8941999999881,122.3715,978.0,122.37160000002385,2.0,123.3723000000119,0.0,14.0,14.0,2.0,1.0,1.2,0.3,Time
,,S53,1,男,21,anonymized,Serial_Dependence_U,2023.2.3,Win32,60.60606060606061,,,,,,123.3726999999881,318.0,0.0,123.37280000001196,318.0,,,,127.52530000001192,128.01700000000002,127.01889999997618,127.52530000001192,124.37380000001193,127.01889999997618,128.01700000000002,128.5093000000119,128.50939999997618,130.64319999998807,1479.0,130.64319999998807,2.0,131.6443000000119,0.0,15.0,15.0,9.0,1.0,1.6,0.7,Time
,,S53,1,男,21,anonymized,Serial_Dependence_U,2023.2.3,Win32,60.60606060606061,,,,,,131.64450000000002,92.0,0.0,131.6446999999881,92.0,,,,134.99289999997615,135.48710000002384,134.4845,134.99289999997615,132.64589999997614,134.48439999997615,135.48710000002384,135.977,135.977,137.60210000002385,1205.0,137.60210000002385,5.0,138.60310000002383,0.0,16.0,16.0,25.0,1.0,0.8,0.7,Time
,,S53,1,男,21,anonymized,Serial_Dependence_U,2023.2.3,Win32,60.60606060606061,,,,,,138.60380000001194,178.0,0.0,138.604,178.0,,,,141.984,142.47610000002382,141.4753000000119,141.98389999997616,139.60410000002386,141.4753000000119,142.4761999999881,142.96860000002383,142.96860000002383,144.00739999997617,604.0,144.00739999997617,2.0,145.00339999997615,0.0,17.0,17.0,20.0,1.0,0.8,0.3,Time
,,S53,1,男,21,anonymized,Serial_Dependence_U,2023.2.3,Win32,60.60606060606061,,,,,,145.004,281.0,0.0,145.00410000002384,281.0,,,,148.74560000002387,149.23789999997618,148.23719999998806,148.74560000002387,146.0055,148.23710000002384,149.23789999997618,149.73010000002384,149.73010000002384,151.11210000002384,902.0,151.11219999998806,2.0,152.10989999997614,0.0,18.0,18.0,7.0,1.0,1.2,0.7,Time
,,S53,1,男,21,anonymized,Serial_Dependence_U,2023.2.3,Win32,60.60606060606061,,,,,,152.1103000000119,12.0,0.0,152.11050000000003,12.0,,,,155.45839999997614,155.9501999999881,154.9496999999881,155.45839999997614,153.11430000001192,154.9496999999881,155.9501999999881,156.44289999997616,156.443,157.77280000001193,870.0,157.77280000001193,4.0,158.77339999997614,0.0,19.0,19.0,15.0,1.0,0.8,0.7,Time
,,S53,1,男,21,anonymized,Serial_Dependence_U,2023.2.3,Win32,60.60606060606061,,,,,,158.7738000000119,51.0,0.0,158.77400000000003,51.0,,,,162.54850000000002,163.0403000000119,162.0428999999762,162.54839999997617,159.77710000002386,162.04269999998806,163.0403000000119,163.53360000002382,163.5336999999881,164.833,857.0,164.83310000002385,2.0,165.83060000002385,0.0,20.0,20.0,22.0,1.0,1.2,0.3,Time
,,S53,1,男,21,anonymized,Serial_Dependence_U,2023.2.3,Win32,60.60606060606061,,,,,,165.831,212.0,0.0,165.83119999998806,212.0,,,,169.77239999997616,170.2613999999761,169.2638000000119,169.77239999997616,166.83160000002383,169.26369999998806,170.2613999999761,170.754,170.75410000002384,172.39900000000003,1285.0,172.39900000000003,2.0,173.39619999998806,0.0,21.0,21.0,8.0,1.0,1.4,0.7,Time
,,S53,1,男,21,anonymized,Serial_Dependence_U,2023.2.3,Win32,60.60606060606061,,,,,,173.39660000002382,193.0,0.0,173.3966999999881,193.0,,,,177.17419999998808,177.66360000002382,176.66310000002383,177.17419999998808,174.39789999997615,176.66299999999998,177.66360000002382,178.1558999999762,178.1558999999762,179.47230000001193,932.0,179.47230000001193,2.0,180.47,0.0,22.0,22.0,12.0,1.0,1.2,0.3,Time
,,S53,1,男,21,anonymized,Serial_Dependence_U,2023.2.3,Win32,60.60606060606061,,,,,,180.4705,91.0,0.0,180.47069999998808,91.0,,,,184.4426999999881,184.934,183.933,184.4426999999881,181.47189999997616,183.933,184.934,185.42619999998809,185.42630000001196,187.00510000002384,1140.0,187.0051999999881,2.0,188.00319999998808,0.0,23.0,23.0,3.0,1.0,1.4,0.3,Time
,,S53,1,男,21,anonymized,Serial_Dependence_U,2023.2.3,Win32,60.60606060606061,,,,,,188.00360000002385,141.0,0.0,188.00380000001192,141.0,,,,191.74869999998808,192.23760000002383,191.23960000002384,191.74869999998808,189.00489999997615,191.23960000002384,192.2376999999881,192.72969999998807,192.72980000001192,194.0623000000119,1033.0,194.0623000000119,2.0,195.06030000001195,0.0,24.0,24.0,17.0,1.0,1.2,0.7,Time
,,S53,1,男,21,anonymized,Serial_Dependence_U,2023.2.3,Win32,60.60606060606061,,,,,,195.06080000001197,91.0,0.0,195.061,91.0,,,,199.1965,199.68869999998807,198.68750000000003,199.1965,196.05580000001197,198.68750000000003,199.68880000001192,200.18089999997616,200.181,201.7406999999881,1202.0,201.7406999999881,2.0,202.74110000002383,0.0,25.0,25.0,19.0,1.0,1.6,0.7,Time
,,S53,1,男,21,anonymized,Serial_Dependence_U,2023.2.3,Win32,60.60606060606061,,,,,,202.74130000001196,3.0,0.0,202.7415,3.0,,,,206.12219999998808,206.61419999998807,205.61660000002385,206.12219999998808,203.7425,205.61660000002385,206.61419999998807,207.10680000001196,207.10689999997612,208.32119999998807,882.0,208.32119999998807,4.0,209.32230000001195,0.0,26.0,26.0,0.0,1.0,0.8,0.3,Time
,,S53,1,男,21,anonymized,Serial_Dependence_U,2023.2.3,Win32,60.60606060606061,,,,,,209.32260000002387,243.0,0.0,209.3226999999881,243.0,,,,212.9031999999881,213.393,212.39730000001197,212.90310000002384,210.32380000001191,212.39730000001197,213.393,213.8851999999881,213.88530000001197,214.8893000000119,720.0,214.8893000000119,2.0,215.88710000002385,0.0,27.0,27.0,1.0,1.0,1.0,0.3,Time
,,S53,1,男,21,anonymized,Serial_Dependence_U,2023.2.3,Win32,60.60606060606061,,,,,,215.88760000002387,150.0,0.0,215.8876999999881,150.0,,,,220.04060000002383,220.53239999997612,219.5308000000119,220.04060000002383,216.88860000002384,219.5308000000119,220.53239999997612,221.02410000002385,221.02410000002385,222.48510000002383,1130.0,222.48510000002383,2.0,223.48639999997616,0.0,28.0,28.0,29.0,1.0,1.6,0.7,Time
,,S53,1,男,21,anonymized,Serial_Dependence_U,2023.2.3,Win32,60.60606060606061,,,,,,223.48669999998808,180.0,0.0,223.48689999997612,180.0,,,,227.03110000002383,227.5238000000119,226.52519999998808,227.03110000002383,224.4875,226.52510000002383,227.5238000000119,228.01569999998807,228.01569999998807,229.44380000001192,1055.0,229.4438999999761,4.0,230.4445,0.0,29.0,29.0,16.0,1.0,1.0,0.7,Time
,,S53,1,男,21,anonymized,Serial_Dependence_U,2023.2.3,Win32,60.60606060606061,,,,,,230.4448000000119,236.0,1.0,292.05550000000005,236.0,s,61.59919999998806,,296.241,296.7328999999762,295.73489999997616,296.241,293.058800000012,295.73489999997616,296.7328999999762,297.2253000000119,297.2253000000119,298.63989999997614,1048.0,298.64,1.0,298.6401999999881,1.0,0.0,30.0,24.0,1.0,1.6,0.3,Time
,,S53,1,男,21,anonymized,Serial_Dependence_U,2023.2.3,Win32,60.60606060606061,,,,,,298.6403999999761,255.0,1.0,298.6411000000238,255.0,,,,302.03439999997613,302.526300000012,301.5258999999761,302.034300000012,299.654300000012,301.5258999999761,302.526300000012,303.01860000002387,303.01869999998803,304.32210000002385,923.0,304.32219999998813,4.0,304.32239999997614,1.0,1.0,31.0,0.0,1.0,0.8,0.3,Time
,,S53,1,男,21,anonymized,Serial_Dependence_U,2023.2.3,Win32,60.60606060606061,,,,,,304.32260000002384,102.0,1.0,304.3226999999881,102.0,,,,308.07610000002387,308.56730000001187,307.567800000012,308.07610000002387,305.3328999999761,307.567800000012,308.56730000001187,309.05839999997613,309.05839999997613,310.4536000000238,1042.0,310.4536999999881,2.0,310.4538999999762,1.0,2.0,32.0,27.0,1.0,1.2,0.7,Time
,,S53,1,男,21,anonymized,Serial_Dependence_U,2023.2.3,Win32,60.60606060606061,,,,,,310.4541000000238,312.0,1.0,310.4541999999881,312.0,,,,314.2311999999881,314.72039999997617,313.7226999999881,314.2311999999881,311.4585,313.7226999999881,314.72039999997617,315.2128999999761,315.2128999999761,316.64369999998803,1017.0,316.64369999998803,2.0,316.64389999997616,1.0,3.0,33.0,22.0,1.0,1.2,0.3,Time
,,S53,1,男,21,anonymized,Serial_Dependence_U,2023.2.3,Win32,60.60606060606061,,,,,,316.64410000002385,269.0,1.0,316.64419999998813,269.0,,,,320.418800000012,320.9076000000239,319.9098999999761,320.4186999999881,317.6423000000119,319.9098999999761,320.90769999998804,321.4011000000238,321.4011000000238,322.7493000000119,1036.0,322.74939999997616,2.0,322.7495,1.0,4.0,34.0,12.0,1.0,1.2,0.3,Time
,,S53,1,男,21,anonymized,Serial_Dependence_U,2023.2.3,Win32,60.60606060606061,,,,,,322.7498000000119,341.0,1.0,322.7498000000119,341.0,,,,326.68500000000006,327.1773000000119,326.1803000000119,326.6848999999762,323.74919999998804,326.1803000000119,327.1773000000119,327.6695,327.6695,329.2811000000238,1308.0,329.2811000000238,2.0,329.2813000000119,1.0,5.0,35.0,28.0,1.0,1.4,0.7,Time
,,S53,1,男,21,anonymized,Serial_Dependence_U,2023.2.3,Win32,60.60606060606061,,,,,,329.28150000000005,311.0,1.0,329.2816000000239,311.0,,,,333.250300000012,333.7433999999762,332.74369999998805,333.2501999999881,330.2796999999881,332.7436000000239,333.7433999999762,334.2345,334.2345,335.5311000000238,977.0,335.5311999999881,1.0,335.53150000000005,1.0,6.0,36.0,23.0,1.0,1.4,0.3,Time
,,S53,1,男,21,anonymized,Serial_Dependence_U,2023.2.3,Win32,60.60606060606061,,,,,,335.5318000000119,86.0,1.0,335.5318000000119,86.0,,,,339.1121000000238,339.6033999999762,338.6031999999881,339.1121000000238,336.5325,338.6031000000238,339.60350000000005,340.0933999999762,340.09349999999995,341.4258999999762,902.0,341.4258999999762,2.0,341.42619999998806,1.0,7.0,37.0,21.0,1.0,1.0,0.3,Time
,,S53,1,男,21,anonymized,Serial_Dependence_U,2023.2.3,Win32,60.60606060606061,,,,,,341.4263999999762,264.0,1.0,341.42650000000003,264.0,,,,345.6081999999881,346.1001000000239,345.1025000000001,345.6081000000239,342.4241999999881,345.1023999999762,346.1001999999881,346.5926000000238,346.5926000000238,347.663300000012,755.0,347.663300000012,1.0,347.6633999999761,1.0,8.0,38.0,14.0,1.0,1.6,0.3,Time
,,S53,1,男,21,anonymized,Serial_Dependence_U,2023.2.3,Win32,60.60606060606061,,,,,,347.6636999999881,134.0,1.0,347.663800000012,134.0,,,,351.61519999998814,352.10689999997624,351.1065,351.61510000002386,348.66410000002384,351.10639999997613,352.1070000000001,352.5993999999762,352.59950000000003,353.8960000000001,1013.0,353.8961000000239,2.0,353.89630000001193,1.0,9.0,39.0,18.0,1.0,1.4,0.7,Time
,,S53,1,男,21,anonymized,Serial_Dependence_U,2023.2.3,Win32,60.60606060606061,,,,,,353.8963999999762,103.0,1.0,353.8963999999762,103.0,,,,357.6406000000238,358.1301999999881,357.1306999999881,357.6406000000238,354.8978999999762,357.1306999999881,358.1301999999881,358.6236000000239,358.6236000000239,360.0345,1005.0,360.0345,2.0,360.034800000012,1.0,10.0,40.0,17.0,1.0,1.2,0.7,Time
,,S53,1,男,21,anonymized,Serial_Dependence_U,2023.2.3,Win32,60.60606060606061,,,,,,360.0351999999881,342.0,1.0,360.03530000001194,342.0,,,,363.57950000000005,364.0715,363.07639999997616,363.5793999999762,361.0385,363.07639999997616,364.0715,364.564300000012,364.5643999999762,365.8636000000239,986.0,365.8636000000239,3.0,365.8638000000119,1.0,11.0,41.0,6.0,1.0,1.0,0.7,Time
,,S53,1,男,21,anonymized,Serial_Dependence_U,2023.2.3,Win32,60.60606060606061,,,,,,365.8638999999762,249.0,1.0,365.864,249.0,,,,369.2086999999881,369.7008000000119,368.7031000000238,369.2086999999881,366.8621999999881,368.703,369.7008000000119,370.193300000012,370.193300000012,371.4311000000239,975.0,371.4311000000239,4.0,371.4313999999762,1.0,12.0,42.0,25.0,1.0,0.8,0.7,Time
,,S53,1,男,21,anonymized,Serial_Dependence_U,2023.2.3,Win32,60.60606060606061,,,,,,371.4315,156.0,1.0,371.43169999998815,156.0,,,,374.78889999997614,375.280800000012,374.28289999997617,374.78889999997614,372.4448999999762,374.282800000012,375.2808999999762,375.773300000012,375.77339999997616,377.0373000000119,892.0,377.0373999999762,4.0,377.03769999998815,1.0,13.0,43.0,5.0,1.0,0.8,0.7,Time
,,S53,1,男,21,anonymized,Serial_Dependence_U,2023.2.3,Win32,60.60606060606061,,,,,,377.03789999997616,342.0,1.0,377.038,342.0,,,,380.615300000012,381.1071000000238,380.10869999998806,380.6151000000239,378.0396000000238,380.10869999998806,381.1071999999881,381.5996000000239,381.59969999998816,382.716,839.0,382.7161000000239,2.0,382.71639999997615,1.0,14.0,44.0,11.0,1.0,1.0,0.3,Time
,,S53,1,男,21,anonymized,Serial_Dependence_U,2023.2.3,Win32,60.60606060606061,,,,,,382.7166000000239,249.0,1.0,382.7166000000239,249.0,,,,386.0968999999762,386.5893999999762,385.587800000012,386.096800000012,383.7173999999762,385.587800000012,386.5893999999762,387.081300000012,387.08139999997616,388.0331000000239,608.0,388.0331000000239,2.0,388.033300000012,1.0,15.0,45.0,10.0,1.0,0.8,0.3,Time
,,S53,1,男,21,anonymized,Serial_Dependence_U,2023.2.3,Win32,60.60606060606061,,,,,,388.0336999999881,131.0,1.0,388.033800000012,131.0,,,,392.005300000012,392.49700000000007,391.4965000000001,392.0051999999881,389.0346999999881,391.4963999999762,392.4971999999881,392.9896000000239,392.98969999998815,394.5816000000239,1188.0,394.5816999999881,2.0,394.5821999999881,1.0,16.0,46.0,13.0,1.0,1.4,0.3,Time
,,S53,1,男,21,anonymized,Serial_Dependence_U,2023.2.3,Win32,60.60606060606061,,,,,,394.5825,85.0,1.0,394.5825,85.0,,,,398.7338000000119,399.2271999999881,398.22569999998814,398.7338000000119,395.5828999999762,398.22569999998814,399.2271999999881,399.71850000000006,399.71850000000006,401.212300000012,1168.0,401.2123999999762,2.0,401.2126000000238,1.0,17.0,47.0,29.0,1.0,1.6,0.7,Time
,,S53,1,男,21,anonymized,Serial_Dependence_U,2023.2.3,Win32,60.60606060606061,,,,,,401.212800000012,292.0,1.0,401.2128999999762,292.0,,,,404.76,405.2518999999762,404.251,404.76,402.2165,404.251,405.2518999999762,405.7441000000239,405.7441000000239,407.28769999998815,1264.0,407.28769999998815,4.0,407.287800000012,1.0,18.0,48.0,16.0,1.0,1.0,0.7,Time
,,S53,1,男,21,anonymized,Serial_Dependence_U,2023.2.3,Win32,60.60606060606061,,,,,,407.288,207.0,1.0,407.288,207.0,,,,410.6356000000238,411.1268999999762,410.1268999999762,410.6355,408.28839999997615,410.1268999999762,411.1268999999762,411.6196000000239,411.6196000000239,412.9498000000119,1067.0,412.9498999999762,5.0,412.9498999999762,1.0,19.0,49.0,15.0,1.0,0.8,0.7,Time
,,S53,1,男,21,anonymized,Serial_Dependence_U,2023.2.3,Win32,60.60606060606061,,,,,,412.95019999998806,151.0,1.0,412.9503000000119,151.0,,,,417.135,417.626,416.6261000000238,417.13489999997614,413.9516000000239,416.6261000000238,417.6261000000238,418.1185,418.1186000000239,419.1698999999762,771.0,419.1700000000001,1.0,419.1701000000239,1.0,20.0,50.0,4.0,1.0,1.6,0.3,Time
,,S53,1,男,21,anonymized,Serial_Dependence_U,2023.2.3,Win32,60.60606060606061,,,,,,419.1701999999881,112.0,1.0,419.1701999999881,112.0,,,,422.7476000000239,423.24019999998814,422.2393999999762,422.7476000000239,420.1708999999762,422.2393999999762,423.24019999998814,423.7313999999761,423.7315,425.062,1000.0,425.062,3.0,425.06219999998814,1.0,21.0,51.0,1.0,1.0,1.0,0.3,Time
,,S53,1,男,21,anonymized,Serial_Dependence_U,2023.2.3,Win32,60.60606060606061,,,,,,425.062300000012,102.0,1.0,425.06239999997615,102.0,,,,428.836800000012,429.327800000012,428.32760000002384,428.8366000000239,426.063,428.32760000002384,429.327800000012,429.8203000000119,429.8203000000119,430.9701000000239,869.0,430.97019999998815,2.0,430.970300000012,1.0,22.0,52.0,2.0,1.0,1.2,0.3,Time
,,S53,1,男,21,anonymized,Serial_Dependence_U,2023.2.3,Win32,60.60606060606061,,,,,,430.9705,98.0,1.0,430.9705,98.0,,,,435.1226000000239,435.6138999999762,434.6135,435.12250000000006,431.971,434.6135,435.614,436.105800000012,436.105800000012,437.5841000000239,1182.0,437.5841000000239,2.0,437.5843000000119,1.0,23.0,53.0,19.0,1.0,1.6,0.7,Time
,,S53,1,男,21,anonymized,Serial_Dependence_U,2023.2.3,Win32,60.60606060606061,,,,,,437.5845000000001,156.0,1.0,437.5845000000001,156.0,,,,440.9648999999762,441.45639999997616,440.457800000012,440.9648999999762,438.58519999998816,440.4576999999881,441.45639999997616,441.948800000012,441.948800000012,443.1313999999762,870.0,443.1313999999762,4.0,443.1316000000239,1.0,24.0,54.0,20.0,1.0,0.8,0.3,Time
,,S53,1,男,21,anonymized,Serial_Dependence_U,2023.2.3,Win32,60.60606060606061,,,,,,443.131800000012,247.0,1.0,443.1318999999762,247.0,,,,446.8733000000119,447.36469999998815,446.36489999997616,446.87319999998806,444.13269999998806,446.364800000012,447.36469999998815,447.8571999999881,447.857300000012,449.4666000000239,1248.0,449.4666000000239,3.0,449.466800000012,1.0,25.0,55.0,7.0,1.0,1.2,0.7,Time
,,S53,1,男,21,anonymized,Serial_Dependence_U,2023.2.3,Win32,60.60606060606061,,,,,,449.467,179.0,1.0,449.46710000002383,179.0,,,,453.4221000000239,453.91319999998814,452.912800000012,453.4221000000239,450.4676999999881,452.912800000012,453.913300000012,454.4053999999762,454.4053999999762,455.965800000012,1215.0,455.965800000012,2.0,455.966,1.0,26.0,56.0,8.0,1.0,1.4,0.7,Time
,,S53,1,男,21,anonymized,Serial_Dependence_U,2023.2.3,Win32,60.60606060606061,,,,,,455.9661000000239,141.0,1.0,455.9661000000239,141.0,,,,460.1183999999762,460.6093999999762,459.6091000000239,460.1183999999762,456.9671999999881,459.609,460.6093999999762,461.10160000002384,461.10160000002384,462.8588999999762,1376.0,462.8588999999762,2.0,462.8591000000239,1.0,27.0,57.0,9.0,1.0,1.6,0.7,Time
,,S53,1,男,21,anonymized,Serial_Dependence_U,2023.2.3,Win32,60.60606060606061,,,,,,462.85919999998816,69.0,1.0,462.8593000000119,69.0,,,,466.4036999999881,466.895300000012,465.8948999999761,466.4036000000239,463.8620000000001,465.894800000012,466.895300000012,467.3873000000119,467.3873000000119,468.8166000000239,1132.0,468.8166000000239,4.0,468.816800000012,1.0,28.0,58.0,26.0,1.0,1.0,0.7,Time
,,S53,1,男,21,anonymized,Serial_Dependence_U,2023.2.3,Win32,60.60606060606061,,,,,,468.817,216.0,1.0,468.817,216.0,,,,472.78789999997616,473.2795,472.280800000012,472.78789999997616,469.817300000012,472.280800000012,473.2795,473.7718000000119,473.7718999999762,475.1383999999762,1037.0,475.1385,2.0,475.1385,1.0,29.0,59.0,3.0,1.0,1.4,0.3,Time
,,S53,1,男,21,anonymized,Serial_Dependence_U,2023.2.3,Win32,60.60606060606061,,,,,,475.138800000012,338.0,2.0,506.0546999999881,338.0,s,30.903600000023857,,509.4011999999881,509.8926000000239,508.8918000000119,509.4011000000239,507.05360000002383,508.8918000000119,509.89269999998805,510.3846999999881,510.384800000012,511.8486000000239,1018.0,511.8486000000239,4.0,511.8488000000119,2.0,0.0,60.0,15.0,1.0,0.8,0.7,Time
,,S53,1,男,21,anonymized,Serial_Dependence_U,2023.2.3,Win32,60.60606060606061,,,,,,511.8490000000001,139.0,2.0,511.8498000000119,139.0,,,,515.423800000012,515.9156999999881,514.9175,515.4236999999881,512.8471999999881,514.9175,515.9158000000119,516.4083999999762,516.4083999999762,518.6271000000239,867.0,518.6271000000239,2.0,518.6273000000119,2.0,1.0,61.0,1.0,1.0,1.0,0.3,Time
,,S53,1,男,21,anonymized,Serial_Dependence_U,2023.2.3,Win32,60.60606060606061,,,,,,518.6275,332.0,2.0,518.6276000000239,332.0,,,,522.3986999999881,522.8908999999762,521.8928000000119,522.3986999999881,519.6278000000119,521.8928000000119,522.8910000000001,523.3831000000239,523.3831999999882,524.7985,962.0,524.7985,2.0,524.7986999999881,2.0,2.0,62.0,2.0,1.0,1.2,0.3,Time
,,S53,1,男,21,anonymized,Serial_Dependence_U,2023.2.3,Win32,60.60606060606061,,,,,,524.799,117.0,2.0,524.799,117.0,,,,528.1766999999882,528.668,527.6695000000001,528.1766000000239,525.7958000000119,527.6695000000001,528.6681000000239,529.160300000012,529.1603999999762,530.3453999999762,860.0,530.3455,4.0,530.3456000000239,2.0,3.0,63.0,20.0,1.0,0.8,0.3,Time
,,S53,1,男,21,anonymized,Serial_Dependence_U,2023.2.3,Win32,60.60606060606061,,,,,,530.3461000000239,201.0,2.0,530.3461999999881,201.0,,,,534.1036999999881,534.5925000000001,533.5948000000119,534.1036000000239,531.3463999999761,533.5946999999882,534.5925000000001,535.0846999999881,535.0848000000119,536.3518999999762,969.0,536.3518999999762,2.0,536.3521000000238,2.0,4.0,64.0,7.0,1.0,1.2,0.7,Time
,,S53,1,男,21,anonymized,Serial_Dependence_U,2023.2.3,Win32,60.60606060606061,,,,,,536.3521999999881,344.0,2.0,536.352300000012,344.0,,,,540.5345,541.0261000000239,540.0285,540.5343999999762,537.3533999999762,540.0285,541.0261000000239,541.5185,541.5185,542.9355,1026.0,542.9355,1.0,542.9356999999881,2.0,5.0,65.0,24.0,1.0,1.6,0.3,Time
,,S53,1,男,21,anonymized,Serial_Dependence_U,2023.2.3,Win32,60.60606060606061,,,,,,542.9358000000119,13.0,2.0,542.9358999999762,13.0,,,,547.0986999999881,547.591,546.590300000012,547.0986999999881,543.9485000000001,546.590300000012,547.591,548.083300000012,548.0833999999762,549.5275,1108.0,549.5275,1.0,549.5276999999882,2.0,6.0,66.0,19.0,1.0,1.6,0.7,Time
,,S53,1,男,21,anonymized,Serial_Dependence_U,2023.2.3,Win32,60.60606060606061,,,,,,549.5278999999762,126.0,2.0,549.528,126.0,,,,552.9091000000238,553.4013999999762,552.4005000000001,552.909,550.5296999999881,552.4003999999762,553.4013999999762,553.8931999999882,553.893300000012,555.2728999999762,970.0,555.2728999999762,4.0,555.2731000000239,2.0,7.0,67.0,0.0,1.0,0.8,0.3,Time
,,S53,1,男,21,anonymized,Serial_Dependence_U,2023.2.3,Win32,60.60606060606061,,,,,,555.273300000012,17.0,2.0,555.2733999999762,17.0,,,,559.457300000012,559.95,558.9486000000238,559.4571999999881,556.273300000012,558.9485000000001,559.95,560.4416999999881,560.4416999999881,561.7710000000001,996.0,561.7710000000001,1.0,561.7711999999881,2.0,8.0,68.0,4.0,1.0,1.6,0.3,Time
,,S53,1,男,21,anonymized,Serial_Dependence_U,2023.2.3,Win32,60.60606060606061,,,,,,561.7713999999762,255.0,2.0,561.7715000000001,255.0,,,,565.7266000000238,566.2186000000239,565.2178999999762,565.7266000000238,562.7721999999881,565.217800000012,566.2186000000239,566.7111999999881,566.711300000012,568.4181000000239,1339.0,568.4181000000239,3.0,568.4185,2.0,9.0,69.0,18.0,1.0,1.4,0.7,Time
,,S53,1,男,21,anonymized,Serial_Dependence_U,2023.2.3,Win32,60.60606060606061,,,,,,568.419,185.0,2.0,568.4191000000238,185.0,,,,571.7668000000119,572.2581000000239,571.2576000000239,571.7666999999881,569.4231000000239,571.2575,572.2581000000239,572.7508999999762,572.751,574.0308000000119,1002.0,574.0308000000119,4.0,574.0310000000001,2.0,10.0,70.0,25.0,1.0,0.8,0.7,Time
,,S53,1,男,21,anonymized,Serial_Dependence_U,2023.2.3,Win32,60.60606060606061,,,,,,574.0311999999881,294.0,2.0,574.0313000000119,294.0,,,,577.7728000000119,578.264800000012,577.2646000000238,577.7726999999882,575.0323000000119,577.2645,578.264800000012,578.7573000000119,578.7573000000119,580.12,1066.0,580.12,2.0,580.120300000012,2.0,11.0,71.0,27.0,1.0,1.2,0.7,Time
,,S53,1,男,21,anonymized,Serial_Dependence_U,2023.2.3,Win32,60.60606060606061,,,,,,580.1203999999761,180.0,2.0,580.1206000000238,180.0,,,,584.0916000000238,584.5838000000119,583.5830000000001,584.0915,581.120800000012,583.5830000000001,584.5838000000119,585.0758999999762,585.0758999999762,586.1921000000239,820.0,586.1921000000239,1.0,586.192300000012,2.0,12.0,72.0,23.0,1.0,1.4,0.3,Time
,,S53,1,男,21,anonymized,Serial_Dependence_U,2023.2.3,Win32,60.60606060606061,,,,,,586.1925,280.0,2.0,586.1926000000238,280.0,,,,589.967300000012,590.4598000000119,589.4583999999762,589.9671999999881,587.1935000000001,589.458300000012,590.4598000000119,590.951800000012,590.951800000012,592.2656000000238,1015.0,592.2656000000238,2.0,592.2658999999762,2.0,13.0,73.0,12.0,1.0,1.2,0.3,Time
,,S53,1,男,21,anonymized,Serial_Dependence_U,2023.2.3,Win32,60.60606060606061,,,,,,592.2661999999881,28.0,2.0,592.2663000000119,28.0,,,,596.220300000012,596.7126999999881,595.712,596.2201999999882,593.2665000000001,595.712,596.712800000012,597.2045,597.2045,599.092300000012,1581.0,599.0923999999762,4.0,599.0926999999881,2.0,14.0,74.0,28.0,1.0,1.4,0.7,Time
,,S53,1,男,21,anonymized,Serial_Dependence_U,2023.2.3,Win32,60.60606060606061,,,,,,599.0930000000001,193.0,2.0,599.0931999999881,193.0,,,,602.4411999999882,602.9328999999761,601.9321000000239,602.4411000000239,600.0938000000119,601.9321000000239,602.9328999999761,603.4246999999881,603.4246999999881,604.7868999999762,1068.0,604.7868999999762,5.0,604.7871000000239,2.0,15.0,75.0,5.0,1.0,0.8,0.7,Time
,,S53,1,男,21,anonymized,Serial_Dependence_U,2023.2.3,Win32,60.60606060606061,,,,,,604.7873000000119,89.0,2.0,604.7873999999762,89.0,,,,608.332300000012,608.8246000000239,607.8243999999762,608.332300000012,605.7883999999761,607.8241999999881,608.8246000000239,609.3165,609.3166000000239,610.679300000012,1115.0,610.679300000012,4.0,610.6795000000001,2.0,16.0,76.0,26.0,1.0,1.0,0.7,Time
,,S53,1,男,21,anonymized,Serial_Dependence_U,2023.2.3,Win32,60.60606060606061,,,,,,610.6796999999881,28.0,2.0,610.6798000000119,28.0,,,,614.456800000012,614.946,613.948300000012,614.456800000012,611.6801000000239,613.9481999999881,614.9461000000239,615.4386000000238,615.4386000000238,616.6078000000119,886.0,616.6078000000119,2.0,616.6078999999762,2.0,17.0,77.0,22.0,1.0,1.2,0.3,Time
,,S53,1,男,21,anonymized,Serial_Dependence_U,2023.2.3,Win32,60.60606060606061,,,,,,616.6081000000239,96.0,2.0,616.6081999999881,96.0,,,,619.9958999999762,620.4938000000119,619.476800000012,619.995800000012,617.6076000000239,619.4766999999881,620.4938000000119,620.9856000000239,620.9856000000239,622.0066000000239,671.0,622.0066000000239,2.0,622.0068000000119,2.0,18.0,78.0,10.0,1.0,0.8,0.3,Time
,,S53,1,男,21,anonymized,Serial_Dependence_U,2023.2.3,Win32,60.60606060606061,,,,,,622.0071000000239,80.0,2.0,622.0071000000239,80.0,,,,625.5821000000238,626.073300000012,625.0756999999882,625.5821000000238,623.0046999999881,625.0756000000239,626.073300000012,626.5656000000239,626.5656000000239,627.8826000000239,1009.0,627.8826000000239,3.0,627.8828000000119,2.0,19.0,79.0,21.0,1.0,1.0,0.3,Time
,,S53,1,男,21,anonymized,Serial_Dependence_U,2023.2.3,Win32,60.60606060606061,,,,,,627.883,145.0,2.0,627.8831000000239,145.0,,,,631.8536999999881,632.3433999999762,631.3448000000119,631.8536000000239,628.8801999999881,631.3446999999882,632.3433999999762,632.8351999999882,632.8351999999882,634.3015,1117.0,634.3015,2.0,634.3016999999882,2.0,20.0,80.0,3.0,1.0,1.4,0.3,Time
,,S53,1,男,21,anonymized,Serial_Dependence_U,2023.2.3,Win32,60.60606060606061,,,,,,634.3018999999762,327.0,2.0,634.302,327.0,,,,638.4978000000119,638.9895,637.9888000000119,638.4976000000239,635.3148999999762,637.9886999999881,638.9895,639.4818999999762,639.4818999999762,640.9983000000119,1194.0,640.9983000000119,2.0,640.9986000000239,2.0,21.0,81.0,14.0,1.0,1.6,0.3,Time
,,S53,1,男,21,anonymized,Serial_Dependence_U,2023.2.3,Win32,60.60606060606061,,,,,,640.9986999999882,110.0,2.0,640.9988000000119,110.0,,,,644.559300000012,645.061800000012,644.0481000000239,644.559300000012,642.0103999999762,644.048,645.0618999999762,645.5546000000239,645.5546999999881,646.9993999999762,1106.0,646.9996000000239,4.0,646.9998999999762,2.0,22.0,82.0,16.0,1.0,1.0,0.7,Time
,,S53,1,男,21,anonymized,Serial_Dependence_U,2023.2.3,Win32,60.60606060606061,,,,,,647.0001999999881,242.0,2.0,647.000300000012,242.0,,,,650.7606000000238,651.249300000012,650.2521000000239,650.7606000000238,648.003,650.2520000000001,651.249300000012,651.741800000012,651.741800000012,653.1563999999762,1144.0,653.1563999999762,3.0,653.1566999999881,2.0,23.0,83.0,17.0,1.0,1.2,0.7,Time
,,S53,1,男,21,anonymized,Serial_Dependence_U,2023.2.3,Win32,60.60606060606061,,,,,,653.1568999999762,88.0,2.0,653.1571000000239,88.0,,,,657.1285,657.6171999999881,656.6165000000001,657.1283999999762,654.1555000000001,656.6165000000001,657.6171999999881,658.109800000012,658.1098999999762,659.4783000000119,1094.0,659.4783000000119,2.0,659.4783999999762,2.0,24.0,84.0,13.0,1.0,1.4,0.3,Time
,,S53,1,男,21,anonymized,Serial_Dependence_U,2023.2.3,Win32,60.60606060606061,,,,,,659.4786000000239,23.0,2.0,659.4786999999881,23.0,,,,663.428300000012,663.9193999999762,662.9215,663.428300000012,660.4905,662.9215,663.9193999999762,664.412,664.4121000000239,666.1191999999882,1402.0,666.1191999999882,3.0,666.1196000000239,2.0,25.0,85.0,8.0,1.0,1.4,0.7,Time
,,S53,1,男,21,anonymized,Serial_Dependence_U,2023.2.3,Win32,60.60606060606061,,,,,,666.1198999999762,246.0,2.0,666.12,246.0,,,,669.6668000000119,670.1561000000239,669.1583999999762,669.666699999988,667.1201999999881,669.1583999999762,670.1561999999881,670.6486000000239,670.6486000000239,672.1771999999881,1312.0,672.1771999999881,5.0,672.1773999999762,2.0,26.0,86.0,6.0,1.0,1.0,0.7,Time
,,S53,1,男,21,anonymized,Serial_Dependence_U,2023.2.3,Win32,60.60606060606061,,,,,,672.1776000000239,2.0,2.0,672.1776999999881,2.0,,,,675.756300000012,676.2448999999762,675.2468999999762,675.7561999999881,673.1765,675.246800000012,676.2448999999762,676.7373000000119,676.7373000000119,678.0863999999762,1065.0,678.0863999999762,4.0,678.0866000000239,2.0,27.0,87.0,11.0,1.0,1.0,0.3,Time
,,S53,1,男,21,anonymized,Serial_Dependence_U,2023.2.3,Win32,60.60606060606061,,,,,,678.0866999999881,102.0,2.0,678.0868999999761,102.0,,,,682.235300000012,682.7276999999881,681.7271000000238,682.2351999999881,679.085800000012,681.7271000000238,682.7276999999881,683.2201000000239,683.2201999999882,685.0111000000238,1483.0,685.0111999999881,2.0,685.0113000000119,2.0,28.0,88.0,9.0,1.0,1.6,0.7,Time
,,S53,1,男,21,anonymized,Serial_Dependence_U,2023.2.3,Win32,60.60606060606061,,,,,,685.0115000000001,125.0,2.0,685.0116000000239,125.0,,,,689.1451000000238,689.6371999999881,688.6415000000001,689.145,686.0105,688.6415000000001,689.6371999999881,690.1295,690.1295,691.9216999999882,1396.0,691.9218000000119,2.0,691.9218999999762,2.0,29.0,89.0,29.0,1.0,1.6,0.7,Time
,,S53,1,男,21,anonymized,Serial_Dependence_U,2023.2.3,Win32,60.60606060606061,,,,,,691.922,309.0,3.0,714.9781999999881,309.0,s,23.02680000001192,,718.753800000012,719.244300000012,718.2465000000001,718.753800000012,715.9816000000238,718.2463999999762,719.244300000012,719.7368999999762,719.7368999999762,721.0341000000238,968.0,721.0341000000238,2.0,721.0343999999762,3.0,0.0,90.0,12.0,1.0,1.2,0.3,Time
,,S53,1,男,21,anonymized,Serial_Dependence_U,2023.2.3,Win32,60.60606060606061,,,,,,721.0345,335.0,3.0,721.0353999999762,335.0,,,,725.1721999999882,725.662,724.6656999999881,725.1721000000239,722.0351000000238,724.6655000000001,725.662,726.1543999999761,726.1545,727.7006000000239,1215.0,727.7006999999882,2.0,727.7008000000119,3.0,1.0,91.0,29.0,1.0,1.6,0.7,Time
,,S53,1,男,21,anonymized,Serial_Dependence_U,2023.2.3,Win32,60.60606060606061,,,,,,727.7011000000239,286.0,3.0,727.7011999999881,286.0,,,,731.4886000000239,731.980300000012,730.9788999999762,731.4885,728.7145,730.9788999999762,731.9803999999762,732.4725000000001,732.4726000000238,733.7556000000238,968.0,733.7556999999881,2.0,733.755800000012,3.0,2.0,92.0,2.0,1.0,1.2,0.3,Time
,,S53,1,男,21,anonymized,Serial_Dependence_U,2023.2.3,Win32,60.60606060606061,,,,,,733.7560000000001,203.0,3.0,733.7560000000001,203.0,,,,737.1036999999881,737.5931000000239,736.5923999999762,737.1036999999881,734.7573000000119,736.5923999999762,737.5931000000239,738.085800000012,738.0858999999762,739.4511000000239,1026.0,739.4511000000239,4.0,739.4513999999762,3.0,3.0,93.0,15.0,1.0,0.8,0.7,Time
,,S53,1,男,21,anonymized,Serial_Dependence_U,2023.2.3,Win32,60.60606060606061,,,,,,739.4515,262.0,3.0,739.4516999999881,262.0,,,,743.193,743.6838999999762,742.6845000000001,743.193,740.4508999999762,742.6843999999762,743.6838999999762,744.178800000012,744.1788999999762,745.7860000000001,1182.0,745.7861000000239,3.0,745.7863000000119,3.0,4.0,94.0,17.0,1.0,1.2,0.7,Time
,,S53,1,男,21,anonymized,Serial_Dependence_U,2023.2.3,Win32,60.60606060606061,,,,,,745.7863999999762,3.0,3.0,745.7865,3.0,,,,749.7573999999762,750.249,749.2488000000119,749.7573000000119,746.7871999999882,749.2486999999882,750.249,750.7416999999881,750.7416999999881,752.1708000000119,1084.0,752.1708999999762,2.0,752.1711000000239,3.0,5.0,95.0,23.0,1.0,1.4,0.3,Time
,,S53,1,男,21,anonymized,Serial_Dependence_U,2023.2.3,Win32,60.60606060606061,,,,,,752.1711999999881,316.0,3.0,752.1711999999881,316.0,,,,756.1226000000239,756.6156000000238,755.6141000000239,756.1225000000001,753.171,755.6138999999762,756.6156000000238,757.1093999999762,757.1093999999762,758.8141999999881,1398.0,758.8143000000119,3.0,758.8146999999881,3.0,6.0,96.0,18.0,1.0,1.4,0.7,Time
,,S53,1,男,21,anonymized,Serial_Dependence_U,2023.2.3,Win32,60.60606060606061,,,,,,758.815,41.0,3.0,758.8151999999881,41.0,,,,762.5563999999762,763.0483999999761,762.0503999999762,762.5563000000119,759.8151000000239,762.0503999999762,763.0483999999761,763.5408000000119,763.5408000000119,765.1363000000119,1304.0,765.1363000000119,4.0,765.1365000000001,3.0,7.0,97.0,7.0,1.0,1.2,0.7,Time
,,S53,1,男,21,anonymized,Serial_Dependence_U,2023.2.3,Win32,60.60606060606061,,,,,,765.1366000000239,82.0,3.0,765.1366999999881,82.0,,,,768.6778999999761,769.169800000012,768.1713999999762,768.677800000012,766.134300000012,768.1713000000119,769.169800000012,769.6626000000239,769.6626000000239,770.9096000000238,1011.0,770.9096000000238,3.0,770.909800000012,3.0,8.0,98.0,16.0,1.0,1.0,0.7,Time
,,S53,1,男,21,anonymized,Serial_Dependence_U,2023.2.3,Win32,60.60606060606061,,,,,,770.9100000000001,317.0,3.0,770.9101000000238,317.0,,,,774.849,775.340800000012,774.3455,774.849,771.9118000000119,774.3453999999762,775.3408999999762,775.833300000012,775.833300000012,777.3593999999762,1247.0,777.3593999999762,2.0,777.3596000000239,3.0,9.0,99.0,8.0,1.0,1.4,0.7,Time
,,S53,1,男,21,anonymized,Serial_Dependence_U,2023.2.3,Win32,60.60606060606061,,,,,,777.359800000012,112.0,3.0,777.36,112.0,,,,780.9416999999881,781.4295000000001,780.4290000000001,780.9416000000239,778.3606999999881,780.4288999999762,781.4295000000001,781.922,781.922,783.1246999999881,892.0,783.124800000012,2.0,783.1248999999762,3.0,10.0,100.0,1.0,1.0,1.0,0.3,Time
,,S53,1,男,21,anonymized,Serial_Dependence_U,2023.2.3,Win32,60.60606060606061,,,,,,783.1251000000238,353.0,3.0,783.1251000000238,353.0,,,,787.0935000000001,787.5843000000119,786.583300000012,787.0935000000001,784.1445,786.5831999999881,787.5843000000119,788.0771000000238,788.0771999999881,789.7541999999881,1395.0,789.7541999999881,3.0,789.754300000012,3.0,11.0,101.0,28.0,1.0,1.4,0.7,Time
,,S53,1,男,21,anonymized,Serial_Dependence_U,2023.2.3,Win32,60.60606060606061,,,,,,789.7546000000239,298.0,3.0,789.7546000000239,298.0,,,,793.3291000000239,793.8206999999882,792.8231000000238,793.3290000000001,790.7523000000119,792.823,793.8208000000119,794.3143000000119,794.3143999999762,795.6953000000119,944.0,795.6953999999762,2.0,795.6955,3.0,12.0,102.0,11.0,1.0,1.0,0.3,Time
,,S53,1,男,21,anonymized,Serial_Dependence_U,2023.2.3,Win32,60.60606060606061,,,,,,795.6956999999882,159.0,3.0,795.6958999999762,159.0,,,,799.861300000012,800.3526999999881,799.3546000000239,799.8611999999881,796.693,799.3545,800.3528000000119,800.845300000012,800.8453999999762,802.3568999999762,1177.0,802.3568999999762,2.0,802.3571000000238,3.0,13.0,103.0,4.0,1.0,1.6,0.3,Time
,,S53,1,男,21,anonymized,Serial_Dependence_U,2023.2.3,Win32,60.60606060606061,,,,,,802.357300000012,122.0,3.0,802.3573999999762,122.0,,,,805.9333999999762,806.4251999999881,805.427300000012,805.933300000012,803.3585,805.427300000012,806.4251999999881,806.9173999999762,806.9173999999762,808.2178999999762,921.0,808.2180000000001,2.0,808.2180000000001,3.0,14.0,104.0,21.0,1.0,1.0,0.3,Time
,,S53,1,男,21,anonymized,Serial_Dependence_U,2023.2.3,Win32,60.60606060606061,,,,,,808.2183000000119,84.0,3.0,808.2183999999762,84.0,,,,812.3665000000001,812.8593999999762,811.8631999999881,812.3663999999762,809.217300000012,811.8631999999881,812.8593999999762,813.3508999999761,813.351,815.1631000000239,1528.0,815.1631000000239,3.0,815.163300000012,3.0,15.0,105.0,9.0,1.0,1.6,0.7,Time
,,S53,1,男,21,anonymized,Serial_Dependence_U,2023.2.3,Win32,60.60606060606061,,,,,,815.1635,44.0,3.0,815.1636000000238,44.0,,,,819.3651999999881,819.8666999999881,818.8546999999882,819.3651999999881,816.1745000000001,818.8546999999882,819.8666999999881,820.3591000000239,820.3591999999882,821.8068999999762,1103.0,821.807,1.0,821.8071000000239,3.0,16.0,106.0,14.0,1.0,1.6,0.3,Time
,,S53,1,男,21,anonymized,Serial_Dependence_U,2023.2.3,Win32,60.60606060606061,,,,,,821.807300000012,314.0,3.0,821.8073999999762,314.0,,,,825.7756999999881,826.268300000012,825.2693999999761,825.7756999999881,822.8081999999881,825.2693999999761,826.268300000012,826.759800000012,826.759800000012,828.0111999999881,900.0,828.0113000000119,1.0,828.0113999999762,3.0,17.0,107.0,13.0,1.0,1.4,0.3,Time
,,S53,1,男,21,anonymized,Serial_Dependence_U,2023.2.3,Win32,60.60606060606061,,,,,,828.0116999999881,310.0,3.0,828.0116999999881,310.0,,,,831.5525,832.0441999999881,831.0441000000238,831.5525,829.0118999999762,831.044,832.044300000012,832.5371999999882,832.5371999999882,833.8530000000001,1094.0,833.8530000000001,4.0,833.8531999999881,3.0,18.0,108.0,6.0,1.0,1.0,0.7,Time
,,S53,1,男,21,anonymized,Serial_Dependence_U,2023.2.3,Win32,60.60606060606061,,,,,,833.8533000000119,168.0,3.0,833.8535,168.0,,,,838.0381000000239,838.527,837.529300000012,838.038,834.8516999999881,837.529300000012,838.5271000000239,839.0193999999761,839.0193999999761,840.480300000012,1190.0,840.480300000012,2.0,840.4806000000239,3.0,19.0,109.0,24.0,1.0,1.6,0.3,Time
,,S53,1,男,21,anonymized,Serial_Dependence_U,2023.2.3,Win32,60.60606060606061,,,,,,840.480800000012,329.0,3.0,840.480800000012,329.0,,,,844.0281999999881,844.5175,843.5168999999762,844.0281000000239,841.482300000012,843.5168999999762,844.5175,845.009800000012,845.0098999999761,846.259300000012,1014.0,846.259300000012,3.0,846.2595,3.0,20.0,110.0,26.0,1.0,1.0,0.7,Time
,,S53,1,男,21,anonymized,Serial_Dependence_U,2023.2.3,Win32,60.60606060606061,,,,,,846.2596999999881,193.0,3.0,846.259800000012,193.0,,,,849.639800000012,850.1301999999881,849.129800000012,849.6396999999881,847.2593999999762,849.1296999999881,850.130300000012,850.6228999999762,850.6228999999762,851.6078000000119,635.0,851.6078999999762,2.0,851.6081999999881,3.0,21.0,111.0,10.0,1.0,0.8,0.3,Time
,,S53,1,男,21,anonymized,Serial_Dependence_U,2023.2.3,Win32,60.60606060606061,,,,,,851.6083999999762,223.0,3.0,851.6085,223.0,,,,854.9563999999762,855.4480000000001,854.4496999999881,854.9563999999762,852.609,854.4496000000238,855.4480000000001,855.940300000012,855.940300000012,857.2081000000239,912.0,857.2081999999882,4.0,857.2083000000121,3.0,22.0,112.0,25.0,1.0,0.8,0.7,Time
,,S53,1,男,21,anonymized,Serial_Dependence_U,2023.2.3,Win32,60.60606060606061,,,,,,857.2086000000238,16.0,3.0,857.2086000000238,16.0,,,,861.3566999999882,861.8493000000119,860.8491999999881,861.356600000024,858.2083000000121,860.8491000000238,861.8493000000119,862.341199999988,862.3413000000119,863.8048000000119,1181.0,863.8048000000119,2.0,863.8051000000239,3.0,23.0,113.0,19.0,1.0,1.6,0.7,Time
,,S53,1,男,21,anonymized,Serial_Dependence_U,2023.2.3,Win32,60.60606060606061,,,,,,863.8051999999882,20.0,3.0,863.805300000012,20.0,,,,867.5796000000239,868.0691000000238,867.0681999999881,867.5795,864.8030000000001,867.0681000000238,868.0691000000238,868.561199999988,868.561199999988,869.9105,1073.0,869.9105,2.0,869.9106000000238,3.0,24.0,114.0,22.0,1.0,1.2,0.3,Time
,,S53,1,男,21,anonymized,Serial_Dependence_U,2023.2.3,Win32,60.60606060606061,,,,,,869.9108999999762,45.0,3.0,869.9108999999762,45.0,,,,873.255199999988,873.7478000000119,872.746800000012,873.255199999988,870.9085,872.7466999999881,873.7478999999762,874.2398000000119,874.2398000000119,875.4056000000239,866.0,875.4056999999882,4.0,875.406,3.0,25.0,115.0,5.0,1.0,0.8,0.7,Time
,,S53,1,男,21,anonymized,Serial_Dependence_U,2023.2.3,Win32,60.60606060606061,,,,,,875.4063000000119,104.0,3.0,875.4063000000119,104.0,,,,879.3771999999881,879.8696999999881,878.8693999999762,879.3771000000238,876.4066999999882,878.8693000000119,879.8696999999881,880.3613000000119,880.3613000000119,882.1506999999881,1535.0,882.1506999999881,4.0,882.1508000000119,3.0,26.0,116.0,3.0,1.0,1.4,0.3,Time
,,S53,1,男,21,anonymized,Serial_Dependence_U,2023.2.3,Win32,60.60606060606061,,,,,,882.1511000000239,274.0,3.0,882.1511999999882,274.0,,,,885.532199999988,886.0243000000119,885.0233000000119,885.532199999988,883.152,885.0233000000119,886.0243000000119,886.5158999999762,886.5158999999762,887.7141999999881,804.0,887.7143000000119,3.0,887.7146000000239,3.0,27.0,117.0,0.0,1.0,0.8,0.3,Time
,,S53,1,男,21,anonymized,Serial_Dependence_U,2023.2.3,Win32,60.60606060606061,,,,,,887.7148999999763,205.0,3.0,887.7149999999999,205.0,,,,891.456800000012,891.9486999999881,890.9476999999881,891.4566999999881,888.7156000000239,890.9476000000238,891.9486999999881,892.4404999999999,892.4404999999999,893.967100000024,1217.0,893.967100000024,3.0,893.9673000000118,3.0,28.0,118.0,27.0,1.0,1.2,0.7,Time
,,S53,1,男,21,anonymized,Serial_Dependence_U,2023.2.3,Win32,60.60606060606061,,,,,,893.9676000000238,83.0,3.0,893.9676999999881,83.0,,,,897.3483999999763,897.8403999999761,896.8398000000121,897.3481999999882,894.9688000000119,896.8398000000121,897.8404999999999,898.332600000024,898.3326999999882,899.448800000012,760.0,899.448800000012,2.0,899.4488999999763,3.0,29.0,119.0,20.0,1.0,0.8,0.3,Time
,,S53,1,男,21,anonymized,Serial_Dependence_U,2023.2.3,Win32,60.60606060606061,,,,,,899.4491999999883,241.0,4.0,944.5326000000238,241.0,s,45.07040000003599,,948.274600000024,948.7671000000238,947.766699999988,948.2745,945.534399999976,947.7666000000236,948.7671000000238,949.259100000024,949.259100000024,950.8348999999764,1160.0,950.8348999999764,3.0,950.835100000024,4.0,0.0,120.0,27.0,1.0,1.2,0.7,Time
,,S53,1,男,21,anonymized,Serial_Dependence_U,2023.2.3,Win32,60.60606060606061,,,,,,950.8353999999764,110.0,4.0,950.836199999988,110.0,,,,955.02,955.5126000000238,954.5125,955.0198999999762,951.8365,954.512399999976,955.5126000000238,956.0045,956.0045,957.4494999999998,1084.0,957.4496000000236,1.0,957.4498000000118,4.0,1.0,121.0,14.0,1.0,1.6,0.3,Time
,,S53,1,男,21,anonymized,Serial_Dependence_U,2023.2.3,Win32,60.60606060606061,,,,,,957.45,82.0,4.0,957.45,82.0,,,,960.995100000024,961.4861000000238,960.485199999988,960.995,958.451100000024,960.485100000024,961.4861000000238,961.9786000000236,961.9786000000236,963.2946999999882,942.0,963.2946999999882,2.0,963.294800000012,4.0,2.0,122.0,16.0,1.0,1.0,0.7,Time
,,S53,1,男,21,anonymized,Serial_Dependence_U,2023.2.3,Win32,60.60606060606061,,,,,,963.2950000000002,124.0,4.0,963.2951999999884,124.0,,,,967.460300000012,967.953100000024,966.956800000012,967.4601999999884,964.293399999976,966.956699999988,967.953100000024,968.444899999976,968.444899999976,969.827199999988,1095.0,969.827199999988,1.0,969.827300000012,4.0,3.0,123.0,24.0,1.0,1.6,0.3,Time
,,S53,1,男,21,anonymized,Serial_Dependence_U,2023.2.3,Win32,60.60606060606061,,,,,,969.8276000000238,248.0,4.0,969.827699999988,248.0,,,,973.2051999999882,973.697100000024,972.6961999999882,973.205100000024,970.825300000012,972.6961999999882,973.697100000024,974.1891000000238,974.189199999988,975.161300000012,657.0,975.161399999976,2.0,975.1614999999998,4.0,4.0,124.0,20.0,1.0,0.8,0.3,Time
,,S53,1,男,21,anonymized,Serial_Dependence_U,2023.2.3,Win32,60.60606060606061,,,,,,975.161699999988,82.0,4.0,975.161699999988,82.0,,,,978.506600000024,978.997800000012,977.998899999976,978.5065,976.1590000000002,977.9988000000118,978.997800000012,979.49,979.49,980.7703999999763,947.0,980.7703999999763,4.0,980.7706999999884,4.0,5.0,125.0,15.0,1.0,0.8,0.7,Time
,,S53,1,男,21,anonymized,Serial_Dependence_U,2023.2.3,Win32,60.60606060606061,,,,,,980.770899999976,153.0,4.0,980.7709999999998,153.0,,,,984.513,985.0046999999882,984.010199999988,984.513,981.7718999999762,984.010199999988,985.0046999999882,985.497,985.497,987.072699999988,1226.0,987.072699999988,3.0,987.0731000000238,4.0,6.0,126.0,7.0,1.0,1.2,0.7,Time
,,S53,1,男,21,anonymized,Serial_Dependence_U,2023.2.3,Win32,60.60606060606061,,,,,,987.0733999999762,250.0,4.0,987.073600000024,250.0,,,,991.028800000012,991.520100000024,990.5163000000122,991.028800000012,988.076899999976,990.5161999999884,991.520100000024,992.013,992.013100000024,993.4905,1197.0,993.4905,2.0,993.490800000012,4.0,7.0,127.0,28.0,1.0,1.4,0.7,Time
,,S53,1,男,21,anonymized,Serial_Dependence_U,2023.2.3,Win32,60.60606060606061,,,,,,993.491,187.0,4.0,993.491,187.0,,,,997.034699999988,997.5270000000002,996.526300000012,997.0346000000236,994.494399999976,996.526300000012,997.5270000000002,998.019699999988,998.019800000012,999.449399999976,1160.0,999.4494999999998,4.0,999.4496000000236,4.0,8.0,128.0,26.0,1.0,1.0,0.7,Time
,,S53,1,男,21,anonymized,Serial_Dependence_U,2023.2.3,Win32,60.60606060606061,,,,,,999.449699999988,258.0,4.0,999.4498000000118,258.0,,,,1003.419,1003.9116000000236,1002.9135000000002,1003.419,1000.4490000000002,1002.9135000000002,1003.911699999988,1004.403600000024,1004.403600000024,1005.7368999999763,1092.0,1005.7368999999763,2.0,1005.7370000000002,4.0,9.0,129.0,13.0,1.0,1.4,0.3,Time
,,S53,1,男,21,anonymized,Serial_Dependence_U,2023.2.3,Win32,60.60606060606061,,,,,,1005.7371999999884,259.0,4.0,1005.7373000000122,259.0,,,,1009.5111999999882,1010.000699999988,1008.999300000012,1009.511100000024,1006.7350000000002,1008.999300000012,1010.0008000000116,1010.492399999976,1010.492399999976,1011.973100000024,1198.0,1011.9731999999882,3.0,1011.9733999999764,4.0,10.0,130.0,22.0,1.0,1.2,0.3,Time
,,S53,1,男,21,anonymized,Serial_Dependence_U,2023.2.3,Win32,60.60606060606061,,,,,,1011.973600000024,50.0,4.0,1011.973600000024,50.0,,,,1015.7448999999762,1016.2370000000002,1015.2361000000238,1015.7448999999762,1012.971300000012,1015.236,1016.2370000000002,1016.729199999988,1016.729199999988,1018.128800000012,1093.0,1018.1288999999762,2.0,1018.129100000024,4.0,11.0,131.0,2.0,1.0,1.2,0.3,Time
,,S53,1,男,21,anonymized,Serial_Dependence_U,2023.2.3,Win32,60.60606060606061,,,,,,1018.129300000012,269.0,4.0,1018.129300000012,269.0,,,,1021.5053000000116,1021.9973999999762,1020.999300000012,1021.5053000000116,1019.1258000000116,1020.999199999988,1021.9973999999762,1022.489899999976,1022.489899999976,1023.6880000000002,882.0,1023.6880000000002,4.0,1023.688100000024,4.0,12.0,132.0,10.0,1.0,0.8,0.3,Time
,,S53,1,男,21,anonymized,Serial_Dependence_U,2023.2.3,Win32,60.60606060606061,,,,,,1023.6883000000116,256.0,4.0,1023.688399999976,256.0,,,,1027.843399999976,1028.332300000012,1027.331899999976,1027.8433000000118,1024.6918999999762,1027.3318000000118,1028.332399999976,1028.8246999999878,1028.8248000000117,1030.4041000000238,1275.0,1030.404199999988,2.0,1030.404300000012,4.0,13.0,133.0,19.0,1.0,1.6,0.7,Time
,,S53,1,男,21,anonymized,Serial_Dependence_U,2023.2.3,Win32,60.60606060606061,,,,,,1030.4045,82.0,4.0,1030.404600000024,82.0,,,,1034.372800000012,1034.864600000024,1033.8646999999878,1034.372699999988,1031.4036000000235,1033.8646999999878,1034.864600000024,1035.3568000000118,1035.356899999976,1036.6701999999882,1023.0,1036.670300000012,2.0,1036.670399999976,4.0,14.0,134.0,3.0,1.0,1.4,0.3,Time
,,S53,1,男,21,anonymized,Serial_Dependence_U,2023.2.3,Win32,60.60606060606061,,,,,,1036.6706000000236,255.0,4.0,1036.6706000000236,255.0,,,,1040.8555,1041.3471000000236,1040.349399999976,1040.8555,1037.672,1040.349399999976,1041.347199999988,1041.839800000012,1041.8398999999763,1043.468199999988,1260.0,1043.4683000000118,2.0,1043.468399999976,4.0,15.0,135.0,4.0,1.0,1.6,0.3,Time
,,S53,1,男,21,anonymized,Serial_Dependence_U,2023.2.3,Win32,60.60606060606061,,,,,,1043.4686000000238,331.0,4.0,1043.468699999988,331.0,,,,1047.6166999999882,1048.109300000012,1047.108399999976,1047.6166999999882,1044.4658000000118,1047.1083000000117,1048.109300000012,1048.601399999976,1048.6014999999998,1050.340899999976,1522.0,1050.340899999976,3.0,1050.3411000000235,4.0,16.0,136.0,29.0,1.0,1.6,0.7,Time
,,S53,1,男,21,anonymized,Serial_Dependence_U,2023.2.3,Win32,60.60606060606061,,,,,,1050.341199999988,354.0,4.0,1050.341300000012,354.0,,,,1053.8869999999995,1054.3786000000237,1053.3776999999882,1053.886899999976,1051.3423000000116,1053.3776999999882,1054.3786000000237,1054.870800000012,1054.870800000012,1056.2338000000118,1100.0,1056.233899999976,4.0,1056.234199999988,4.0,17.0,137.0,6.0,1.0,1.0,0.7,Time
,,S53,1,男,21,anonymized,Serial_Dependence_U,2023.2.3,Win32,60.60606060606061,,,,,,1056.2345,168.0,4.0,1056.234600000024,168.0,,,,1059.975300000012,1060.4671999999878,1059.4665,1059.975199999988,1057.2345,1059.466399999976,1060.4671999999878,1060.9601999999882,1060.9601999999882,1062.5026999999882,1312.0,1062.5026999999882,4.0,1062.5029999999997,4.0,18.0,138.0,17.0,1.0,1.2,0.7,Time
,,S53,1,男,21,anonymized,Serial_Dependence_U,2023.2.3,Win32,60.60606060606061,,,,,,1062.5033000000117,100.0,4.0,1062.503399999976,100.0,,,,1066.458100000024,1066.9499999999998,1065.949300000012,1066.458,1063.503899999976,1065.949300000012,1066.9501000000237,1067.4425,1067.4425,1069.1331000000237,1412.0,1069.1331000000237,3.0,1069.133399999976,4.0,19.0,139.0,8.0,1.0,1.4,0.7,Time
,,S53,1,男,21,anonymized,Serial_Dependence_U,2023.2.3,Win32,60.60606060606061,,,,,,1069.133699999988,259.0,4.0,1069.133800000012,259.0,,,,1072.907699999988,1073.3998999999762,1072.399699999988,1072.9076000000236,1070.134300000012,1072.399699999988,1073.3998999999762,1073.8925,1073.8925,1075.287800000012,1130.0,1075.287800000012,2.0,1075.288,4.0,20.0,140.0,12.0,1.0,1.2,0.3,Time
,,S53,1,男,21,anonymized,Serial_Dependence_U,2023.2.3,Win32,60.60606060606061,,,,,,1075.288199999988,42.0,4.0,1075.288300000012,42.0,,,,1078.865699999988,1079.357600000024,1078.357300000012,1078.8656000000235,1076.288600000024,1078.3571000000238,1079.357600000024,1079.849699999988,1079.849699999988,1080.8676000000237,743.0,1080.867699999988,2.0,1080.8678000000118,4.0,21.0,141.0,11.0,1.0,1.0,0.3,Time
,,S53,1,男,21,anonymized,Serial_Dependence_U,2023.2.3,Win32,60.60606060606061,,,,,,1080.868,143.0,4.0,1080.868,143.0,,,,1084.4456000000237,1084.938,1083.9373999999762,1084.4456000000237,1081.8688999999763,1083.937300000012,1084.938100000024,1085.4303000000118,1085.4303000000118,1086.5166000000236,833.0,1086.5166000000236,2.0,1086.5168000000117,4.0,22.0,142.0,21.0,1.0,1.0,0.3,Time
,,S53,1,男,21,anonymized,Serial_Dependence_U,2023.2.3,Win32,60.60606060606061,,,,,,1086.5169999999998,118.0,4.0,1086.5171000000237,118.0,,,,1089.8781999999878,1090.369899999976,1089.3755,1089.8781999999878,1087.5148000000115,1089.3753999999765,1090.369899999976,1090.862100000024,1090.8621999999882,1091.9654999999998,845.0,1091.9654999999998,4.0,1091.9656000000236,4.0,23.0,143.0,0.0,1.0,0.8,0.3,Time
,,S53,1,男,21,anonymized,Serial_Dependence_U,2023.2.3,Win32,60.60606060606061,,,,,,1091.9658000000118,348.0,4.0,1091.966,348.0,,,,1095.5433000000116,1096.0326000000236,1095.031600000024,1095.5431999999878,1092.9634999999998,1095.0315,1096.032699999988,1096.529899999976,1096.5299999999995,1097.758800000012,931.0,1097.758800000012,2.0,1097.759,4.0,24.0,144.0,1.0,1.0,1.0,0.3,Time
,,S53,1,男,21,anonymized,Serial_Dependence_U,2023.2.3,Win32,60.60606060606061,,,,,,1097.759199999988,250.0,4.0,1097.759300000012,250.0,,,,1101.1041000000237,1101.5958999999762,1100.598,1101.1039999999998,1098.758399999976,1100.598,1101.596,1102.088399999976,1102.088399999976,1103.2046000000237,877.0,1103.204699999988,4.0,1103.205,4.0,25.0,145.0,5.0,1.0,0.8,0.7,Time
,,S53,1,男,21,anonymized,Serial_Dependence_U,2023.2.3,Win32,60.60606060606061,,,,,,1103.205199999988,283.0,4.0,1103.2053999999762,283.0,,,,1107.196300000012,1107.6844999999998,1106.687300000012,1107.1961000000238,1104.2084999999995,1106.687300000012,1107.6844999999998,1108.1774999999998,1108.1776000000236,1109.362399999976,886.0,1109.3624999999995,1.0,1109.362699999988,4.0,26.0,146.0,23.0,1.0,1.4,0.3,Time
,,S53,1,男,21,anonymized,Serial_Dependence_U,2023.2.3,Win32,60.60606060606061,,,,,,1109.362899999976,341.0,4.0,1109.3629999999998,341.0,,,,1112.707300000012,1113.199100000024,1112.201600000024,1112.707199999988,1110.362699999988,1112.2015,1113.1991999999882,1113.691800000012,1113.6918999999762,1115.090399999976,1133.0,1115.0904999999998,5.0,1115.0906000000236,4.0,27.0,147.0,25.0,1.0,0.8,0.7,Time
,,S53,1,男,21,anonymized,Serial_Dependence_U,2023.2.3,Win32,60.60606060606061,,,,,,1115.0908000000118,113.0,4.0,1115.090899999976,113.0,,,,1119.239300000012,1119.7311000000236,1118.7329999999995,1119.239300000012,1116.0895,1118.732899999976,1119.7311000000236,1120.2248000000118,1120.2248000000118,1121.868,1326.0,1121.8681000000238,2.0,1121.868300000012,4.0,28.0,148.0,9.0,1.0,1.6,0.7,Time
,,S53,1,男,21,anonymized,Serial_Dependence_U,2023.2.3,Win32,60.60606060606061,,,,,,1121.8685,345.0,4.0,1121.8685,345.0,,,,1125.804,1126.2961000000237,1125.297899999976,1125.804,1122.865899999976,1125.2978000000116,1126.2961000000237,1126.788899999976,1126.788899999976,1128.463199999988,1363.0,1128.4633000000117,3.0,1128.4636000000237,4.0,29.0,149.0,18.0,1.0,1.4,0.7,Time
,,S53,1,男,21,anonymized,Serial_Dependence_U,2023.2.3,Win32,60.60606060606061,,,,,,1128.463899999976,203.0,5.0,1297.9003000000116,203.0,s,169.40599999999995,,1301.839199999988,1302.3313000000117,1301.333300000012,1301.839199999988,1298.901699999988,1301.3331999999882,1302.3313000000117,1302.8238999999762,1302.8238999999762,1304.2721000000238,1163.0,1304.272199999988,2.0,1304.272300000012,5.0,0.0,150.0,8.0,1.0,1.4,0.7,Time
,,S53,1,男,21,anonymized,Serial_Dependence_U,2023.2.3,Win32,60.60606060606061,,,,,,1304.272600000024,14.0,5.0,1304.2734999999998,14.0,,,,1308.2399999999998,1308.732199999988,1307.7316000000235,1308.239899999976,1305.288899999976,1307.7315,1308.732300000012,1309.224399999976,1309.224399999976,1310.8663999999762,1315.0,1310.8663999999762,2.0,1310.866600000024,5.0,1.0,151.0,28.0,1.0,1.4,0.7,Time
,,S53,1,男,21,anonymized,Serial_Dependence_U,2023.2.3,Win32,60.60606060606061,,,,,,1310.866899999976,29.0,5.0,1310.866899999976,29.0,,,,1315.0353000000118,1315.5266000000238,1314.528800000012,1315.0351000000237,1311.8669999999995,1314.528699999988,1315.526699999988,1316.0191000000236,1316.0191000000236,1317.4346000000237,1154.0,1317.434699999988,2.0,1317.434899999976,5.0,2.0,152.0,14.0,1.0,1.6,0.3,Time
,,S53,1,男,21,anonymized,Serial_Dependence_U,2023.2.3,Win32,60.60606060606061,,,,,,1317.4351000000238,70.0,5.0,1317.435199999988,70.0,,,,1320.781800000012,1321.2713000000117,1320.272800000012,1320.781800000012,1318.4336999999882,1320.2726999999882,1321.271399999976,1321.763300000012,1321.763300000012,1323.081699999988,1052.0,1323.081699999988,5.0,1323.081899999976,5.0,3.0,153.0,25.0,1.0,0.8,0.7,Time
,,S53,1,男,21,anonymized,Serial_Dependence_U,2023.2.3,Win32,60.60606060606061,,,,,,1323.0821000000235,359.0,5.0,1323.0821000000235,359.0,,,,1326.6381000000238,1327.1304999999998,1326.131800000012,1326.6381000000238,1324.0998000000118,1326.131800000012,1327.1304999999998,1327.6223000000118,1327.622399999976,1329.0701000000236,1154.0,1329.0701999999878,4.0,1329.0703000000117,5.0,4.0,154.0,16.0,1.0,1.0,0.7,Time
,,S53,1,男,21,anonymized,Serial_Dependence_U,2023.2.3,Win32,60.60606060606061,,,,,,1329.0706000000237,327.0,5.0,1329.070699999988,327.0,,,,1333.222399999976,1333.7115,1332.7145,1333.222399999976,1330.0685,1332.7143999999762,1333.7115,1334.2039999999995,1334.2039999999995,1336.1111000000235,1563.0,1336.111199999988,3.0,1336.111300000012,5.0,5.0,155.0,19.0,1.0,1.6,0.7,Time
,,S53,1,男,21,anonymized,Serial_Dependence_U,2023.2.3,Win32,60.60606060606061,,,,,,1336.1115,209.0,5.0,1336.1116000000238,209.0,,,,1339.899199999988,1340.3908999999762,1339.393600000024,1339.8991000000235,1337.1263000000115,1339.393600000024,1340.391,1340.883399999976,1340.8835,1342.3801999999878,1224.0,1342.3803000000116,3.0,1342.3804999999998,5.0,6.0,156.0,2.0,1.0,1.2,0.3,Time
,,S53,1,男,21,anonymized,Serial_Dependence_U,2023.2.3,Win32,60.60606060606061,,,,,,1342.3808000000115,344.0,5.0,1342.380899999976,344.0,,,,1346.1191999999878,1346.611,1345.6136000000238,1346.1191000000235,1343.381699999988,1345.6135,1346.611,1347.1036999999878,1347.1036999999878,1348.5478000000116,1159.0,1348.547899999976,3.0,1348.5481000000236,5.0,7.0,157.0,27.0,1.0,1.2,0.7,Time
,,S53,1,男,21,anonymized,Serial_Dependence_U,2023.2.3,Win32,60.60606060606061,,,,,,1348.5483000000115,88.0,5.0,1348.5483000000115,88.0,,,,1352.1266000000237,1352.6183999999762,1351.62,1352.1265,1349.549,1351.62,1352.6183999999762,1353.1103000000116,1353.1103000000116,1354.3281000000238,866.0,1354.3281000000238,2.0,1354.328300000012,5.0,8.0,158.0,11.0,1.0,1.0,0.3,Time
,,S53,1,男,21,anonymized,Serial_Dependence_U,2023.2.3,Win32,60.60606060606061,,,,,,1354.3285,276.0,5.0,1354.3285,276.0,,,,1357.9031000000236,1358.395300000012,1357.397800000012,1357.9029999999998,1355.3291000000236,1357.397800000012,1358.395300000012,1358.8873000000117,1358.8873000000117,1360.1396000000236,969.0,1360.1396000000236,3.0,1360.1398000000115,5.0,9.0,159.0,1.0,1.0,1.0,0.3,Time
,,S53,1,男,21,anonymized,Serial_Dependence_U,2023.2.3,Win32,60.60606060606061,,,,,,1360.1401000000235,191.0,5.0,1360.1401000000235,191.0,,,,1364.108699999988,1364.5986999999882,1363.5991999999878,1364.1086000000237,1361.158600000024,1363.5991999999878,1364.5986999999882,1365.0911000000235,1365.0911000000235,1366.6839999999995,1348.0,1366.6839999999995,3.0,1366.684199999988,5.0,10.0,160.0,18.0,1.0,1.4,0.7,Time
,,S53,1,男,21,anonymized,Serial_Dependence_U,2023.2.3,Win32,60.60606060606061,,,,,,1366.6843000000115,118.0,5.0,1366.684399999976,118.0,,,,1370.067600000024,1370.5563999999763,1369.5583999999762,1370.0675,1367.6844999999998,1369.5583999999762,1370.5565,1371.048800000012,1371.048800000012,1372.234300000012,883.0,1372.234300000012,4.0,1372.2345,5.0,11.0,161.0,20.0,1.0,0.8,0.3,Time
,,S53,1,男,21,anonymized,Serial_Dependence_U,2023.2.3,Win32,60.60606060606061,,,,,,1372.234800000012,118.0,5.0,1372.2348999999765,118.0,,,,1375.6279999999997,1376.119899999976,1375.1221000000237,1375.627899999976,1373.2483999999763,1375.1221000000237,1376.1201000000235,1376.6124999999995,1376.6124999999995,1377.732199999988,887.0,1377.732199999988,4.0,1377.7323999999762,5.0,12.0,162.0,0.0,1.0,0.8,0.3,Time
,,S53,1,男,21,anonymized,Serial_Dependence_U,2023.2.3,Win32,60.60606060606061,,,,,,1377.732600000024,354.0,5.0,1377.7326999999882,354.0,,,,1381.9136999999878,1382.4056000000237,1381.4085,1381.9136999999878,1378.7298999999762,1381.4083999999762,1382.405699999988,1382.8981000000235,1382.8981000000235,1384.2828000000118,1115.0,1384.282899999976,1.0,1384.283,5.0,13.0,163.0,4.0,1.0,1.6,0.3,Time
,,S53,1,男,21,anonymized,Serial_Dependence_U,2023.2.3,Win32,60.60606060606061,,,,,,1384.283199999988,56.0,5.0,1384.283300000012,56.0,,,,1387.6414999999995,1388.133699999988,1387.1336000000238,1387.641399999976,1385.294399999976,1387.1335,1388.133699999988,1388.6258000000116,1388.6258000000116,1389.939800000012,1004.0,1389.939800000012,4.0,1389.94,5.0,14.0,164.0,5.0,1.0,0.8,0.7,Time
,,S53,1,男,21,anonymized,Serial_Dependence_U,2023.2.3,Win32,60.60606060606061,,,,,,1389.9401999999882,79.0,5.0,1389.940300000012,79.0,,,,1393.929100000024,1394.419699999988,1393.4186000000236,1393.929100000024,1390.942100000024,1393.4186000000236,1394.419699999988,1394.9116000000236,1394.9116999999878,1396.310300000012,1141.0,1396.310300000012,2.0,1396.3105,5.0,15.0,165.0,13.0,1.0,1.4,0.3,Time
,,S53,1,男,21,anonymized,Serial_Dependence_U,2023.2.3,Win32,60.60606060606061,,,,,,1396.3106999999882,274.0,5.0,1396.3106999999882,274.0,,,,1400.049899999976,1400.5411999999878,1399.5433000000116,1400.049800000012,1397.3081000000238,1399.5431999999878,1400.5411999999878,1401.0333999999762,1401.0335,1402.4975,1213.0,1402.4976000000238,3.0,1402.497699999988,5.0,16.0,166.0,7.0,1.0,1.2,0.7,Time
,,S53,1,男,21,anonymized,Serial_Dependence_U,2023.2.3,Win32,60.60606060606061,,,,,,1402.4978999999762,216.0,5.0,1402.498,216.0,,,,1406.6636999999878,1407.1554999999998,1406.157399999976,1406.6636999999878,1403.512399999976,1406.1573000000117,1407.1554999999998,1407.6473999999762,1407.6475,1409.292199999988,1392.0,1409.292199999988,2.0,1409.2923999999762,5.0,17.0,167.0,29.0,1.0,1.6,0.7,Time
,,S53,1,男,21,anonymized,Serial_Dependence_U,2023.2.3,Win32,60.60606060606061,,,,,,1409.292600000024,24.0,5.0,1409.292600000024,24.0,,,,1413.063699999988,1413.555800000012,1412.557899999976,1413.0636000000236,1410.292800000012,1412.557800000012,1413.5558999999762,1414.048399999976,1414.048399999976,1415.3286999999882,1023.0,1415.328899999976,2.0,1415.328899999976,5.0,18.0,168.0,12.0,1.0,1.2,0.3,Time
,,S53,1,男,21,anonymized,Serial_Dependence_U,2023.2.3,Win32,60.60606060606061,,,,,,1415.3291999999878,109.0,5.0,1415.3291999999878,109.0,,,,1419.070699999988,1419.5626000000238,1418.5621000000235,1419.0706000000237,1416.3298000000118,1418.562,1419.5626000000238,1420.0551000000237,1420.0551000000237,1421.598,1285.0,1421.598,4.0,1421.5983999999762,5.0,19.0,169.0,17.0,1.0,1.2,0.7,Time
,,S53,1,男,21,anonymized,Serial_Dependence_U,2023.2.3,Win32,60.60606060606061,,,,,,1421.5986999999882,196.0,5.0,1421.598899999976,196.0,,,,1425.3728999999762,1425.864899999976,1424.864300000012,1425.372800000012,1422.5989999999997,1424.8641999999882,1425.864899999976,1426.357199999988,1426.357199999988,1427.7358000000115,985.0,1427.735899999976,2.0,1427.7361000000235,5.0,20.0,170.0,22.0,1.0,1.2,0.3,Time
,,S53,1,男,21,anonymized,Serial_Dependence_U,2023.2.3,Win32,60.60606060606061,,,,,,1427.736300000012,260.0,5.0,1427.736399999976,260.0,,,,1431.281199999988,1431.7733000000117,1430.7721000000238,1431.281199999988,1428.737399999976,1430.7721000000238,1431.7733000000117,1432.2655,1432.2656000000238,1433.6445,1163.0,1433.6446000000235,4.0,1433.644800000012,5.0,21.0,171.0,6.0,1.0,1.0,0.7,Time
,,S53,1,男,21,anonymized,Serial_Dependence_U,2023.2.3,Win32,60.60606060606061,,,,,,1433.6451000000238,143.0,5.0,1433.645199999988,143.0,,,,1437.6161000000238,1438.108399999976,1437.107800000012,1437.616,1434.645899999976,1437.107600000024,1438.108399999976,1438.6003999999762,1438.6005,1439.980199999988,1179.0,1439.980199999988,2.0,1439.9805,5.0,22.0,172.0,3.0,1.0,1.4,0.3,Time
,,S53,1,男,21,anonymized,Serial_Dependence_U,2023.2.3,Win32,60.60606060606061,,,,,,1439.9806999999878,226.0,5.0,1439.9808000000116,226.0,,,,1443.360699999988,1443.852800000012,1442.8521000000237,1443.360699999988,1440.980899999976,1442.852,1443.852800000012,1444.344899999976,1444.3449999999998,1445.297100000024,823.0,1445.2971999999882,3.0,1445.2973999999765,5.0,23.0,173.0,10.0,1.0,0.8,0.3,Time
,,S53,1,男,21,anonymized,Serial_Dependence_U,2023.2.3,Win32,60.60606060606061,,,,,,1445.297600000024,90.0,5.0,1445.2976999999878,90.0,,,,1449.2695,1449.7613999999762,1448.760199999988,1449.269399999976,1446.2983000000115,1448.7601000000236,1449.7613999999762,1450.2533000000117,1450.2533000000117,1451.6646000000237,1159.0,1451.664699999988,2.0,1451.6648000000118,5.0,24.0,174.0,23.0,1.0,1.4,0.3,Time
,,S53,1,男,21,anonymized,Serial_Dependence_U,2023.2.3,Win32,60.60606060606061,,,,,,1451.665,322.0,5.0,1451.6651000000238,322.0,,,,1455.209800000012,1455.7028000000118,1454.701899999976,1455.209800000012,1452.6661999999878,1454.7018000000116,1455.7028000000118,1456.194199999988,1456.194300000012,1457.770199999988,1320.0,1457.770300000012,5.0,1457.7705,5.0,25.0,175.0,26.0,1.0,1.0,0.7,Time
,,S53,1,男,21,anonymized,Serial_Dependence_U,2023.2.3,Win32,60.60606060606061,,,,,,1457.7706999999882,78.0,5.0,1457.770800000012,78.0,,,,1461.9555,1462.447899999976,1461.446800000012,1461.9553999999762,1458.7714999999998,1461.446800000012,1462.447899999976,1462.939699999988,1462.939699999988,1464.4496999999878,1214.0,1464.4496999999878,2.0,1464.4499999999998,5.0,26.0,176.0,24.0,1.0,1.6,0.3,Time
,,S53,1,男,21,anonymized,Serial_Dependence_U,2023.2.3,Win32,60.60606060606061,,,,,,1464.450199999988,306.0,5.0,1464.4503000000118,306.0,,,,1468.0278000000117,1468.519899999976,1467.5189999999998,1468.0276999999878,1465.4515,1467.518899999976,1468.519899999976,1469.0124999999998,1469.0124999999998,1470.440300000012,1029.0,1470.440300000012,3.0,1470.4406999999878,5.0,27.0,177.0,21.0,1.0,1.0,0.3,Time
,,S53,1,男,21,anonymized,Serial_Dependence_U,2023.2.3,Win32,60.60606060606061,,,,,,1470.440899999976,293.0,5.0,1470.4409999999998,293.0,,,,1473.7888000000116,1474.281300000012,1473.2795,1473.7886999999878,1471.4418999999762,1473.2793999999762,1474.281300000012,1474.7733000000117,1474.7733000000117,1476.1191000000235,1053.0,1476.1191000000235,5.0,1476.1193000000117,5.0,28.0,178.0,15.0,1.0,0.8,0.7,Time
,,S53,1,男,21,anonymized,Serial_Dependence_U,2023.2.3,Win32,60.60606060606061,,,,,,1476.1194999999998,38.0,5.0,1476.1196000000236,38.0,,,,1480.2711000000236,1480.7635,1479.763,1480.2709999999995,1477.1201000000235,1479.762899999976,1480.763600000024,1481.2554999999998,1481.2554999999998,1482.798800000012,1186.0,1482.798800000012,2.0,1482.799,5.0,29.0,179.0,9.0,1.0,1.6,0.7,Time
,,S53,1,男,21,anonymized,Serial_Dependence_U,2023.2.3,Win32,60.60606060606061,,,,,,1482.799199999988,51.0,6.0,1534.8736000000235,51.0,s,52.0652000000473,,1539.0605,1539.5513999999762,1538.5503000000117,1539.0603999999762,1535.879800000012,1538.5503000000117,1539.5515,1540.043399999976,1540.0434999999998,1541.589800000012,1158.0,1541.589800000012,2.0,1541.5899999999997,6.0,0.0,180.0,4.0,1.0,1.6,0.3,Time
,,S53,1,男,21,anonymized,Serial_Dependence_U,2023.2.3,Win32,60.60606060606061,,,,,,1541.5901999999878,195.0,6.0,1541.590899999976,195.0,,,,1545.5581000000238,1546.0503000000117,1545.052399999976,1545.558,1542.587600000024,1545.0523000000117,1546.050399999976,1546.542600000024,1546.542600000024,1547.8918000000117,1083.0,1547.8918000000117,2.0,1547.8919999999998,6.0,1.0,181.0,3.0,1.0,1.4,0.3,Time
,,S53,1,男,21,anonymized,Serial_Dependence_U,2023.2.3,Win32,60.60606060606061,,,,,,1547.8921000000237,127.0,6.0,1547.892199999988,127.0,,,,1551.273,1551.761600000024,1550.763,1551.273,1548.8919999999998,1550.762899999976,1551.761600000024,1552.2548999999765,1552.255,1553.5841000000237,851.0,1553.584199999988,4.0,1553.5845,6.0,2.0,182.0,20.0,1.0,0.8,0.3,Time
,,S53,1,男,21,anonymized,Serial_Dependence_U,2023.2.3,Win32,60.60606060606061,,,,,,1553.584699999988,309.0,6.0,1553.584699999988,309.0,,,,1556.9318000000117,1557.424300000012,1556.4231000000236,1556.9316000000235,1554.585,1556.4231000000236,1557.424300000012,1557.9163000000117,1557.9163000000117,1559.278699999988,1016.0,1559.278800000012,4.0,1559.279199999988,6.0,3.0,183.0,25.0,1.0,0.8,0.7,Time
,,S53,1,男,21,anonymized,Serial_Dependence_U,2023.2.3,Win32,60.60606060606061,,,,,,1559.2795,146.0,6.0,1559.279600000024,146.0,,,,1563.2345,1563.726100000024,1562.725300000012,1563.2343999999762,1560.2796999999878,1562.725199999988,1563.7261999999878,1564.218699999988,1564.218699999988,1565.745,1214.0,1565.7451000000235,2.0,1565.7455,6.0,4.0,184.0,18.0,1.0,1.4,0.7,Time
,,S53,1,男,21,anonymized,Serial_Dependence_U,2023.2.3,Win32,60.60606060606061,,,,,,1565.7456000000238,53.0,6.0,1565.745699999988,53.0,,,,1569.3235,1569.815,1568.8143000000118,1569.323399999976,1566.746,1568.8143000000118,1569.815,1570.307199999988,1570.3073000000118,1571.538300000012,988.0,1571.5383999999765,3.0,1571.538600000024,6.0,5.0,185.0,1.0,1.0,1.0,0.3,Time
,,S53,1,男,21,anonymized,Serial_Dependence_U,2023.2.3,Win32,60.60606060606061,,,,,,1571.538899999976,240.0,6.0,1571.5389999999998,240.0,,,,1575.494699999988,1575.9858000000115,1574.9851999999878,1575.4946000000236,1572.5396000000237,1574.9851999999878,1575.9858000000115,1576.478399999976,1576.4784999999997,1578.1523999999763,1385.0,1578.1523999999763,3.0,1578.1526000000235,6.0,6.0,186.0,8.0,1.0,1.4,0.7,Time
,,S53,1,男,21,anonymized,Serial_Dependence_U,2023.2.3,Win32,60.60606060606061,,,,,,1578.1528000000117,184.0,6.0,1578.152899999976,184.0,,,,1582.304699999988,1582.7971999999882,1581.796199999988,1582.3046000000236,1579.1549999999995,1581.7961000000237,1582.7971999999882,1583.289699999988,1583.289699999988,1584.996399999976,1391.0,1584.9964999999995,2.0,1584.996699999988,6.0,7.0,187.0,29.0,1.0,1.6,0.7,Time
,,S53,1,男,21,anonymized,Serial_Dependence_U,2023.2.3,Win32,60.60606060606061,,,,,,1584.9971000000237,91.0,6.0,1584.9971000000237,91.0,,,,1588.5414999999998,1589.0333999999762,1588.032699999988,1588.541399999976,1585.998,1588.0326000000236,1589.0335,1589.525899999976,1589.5259999999998,1591.036,1165.0,1591.036,4.0,1591.036300000012,6.0,8.0,188.0,6.0,1.0,1.0,0.7,Time
,,S53,1,男,21,anonymized,Serial_Dependence_U,2023.2.3,Win32,60.60606060606061,,,,,,1591.0364999999997,284.0,6.0,1591.0364999999997,284.0,,,,1594.6138999999762,1595.1058000000116,1594.105199999988,1594.613699999988,1592.037199999988,1594.105100000024,1595.105899999976,1595.598199999988,1595.598300000012,1596.763800000012,851.0,1596.7638999999765,2.0,1596.7641999999878,6.0,9.0,189.0,11.0,1.0,1.0,0.3,Time
,,S53,1,男,21,anonymized,Serial_Dependence_U,2023.2.3,Win32,60.60606060606061,,,,,,1596.764399999976,251.0,6.0,1596.764399999976,251.0,,,,1600.1121999999882,1600.6046000000238,1599.6034999999997,1600.1121999999882,1597.765699999988,1599.603399999976,1600.6046000000238,1601.0963999999765,1601.0965,1602.409399999976,1043.0,1602.4094999999998,5.0,1602.4096000000236,6.0,10.0,190.0,15.0,1.0,0.8,0.7,Time
,,S53,1,男,21,anonymized,Serial_Dependence_U,2023.2.3,Win32,60.60606060606061,,,,,,1602.4098000000115,267.0,6.0,1602.41,267.0,,,,1606.562199999988,1607.0538999999762,1606.053199999988,1606.5621000000235,1603.4106000000238,1606.0531000000235,1607.0538999999762,1607.5466000000238,1607.5466000000238,1609.269699999988,1351.0,1609.269800000012,2.0,1609.27,6.0,11.0,191.0,9.0,1.0,1.6,0.7,Time
,,S53,1,男,21,anonymized,Serial_Dependence_U,2023.2.3,Win32,60.60606060606061,,,,,,1609.270199999988,161.0,6.0,1609.2703999999762,161.0,,,,1613.422,1613.9141000000236,1612.913300000012,1613.422,1610.271199999988,1612.913300000012,1613.9141000000236,1614.4063999999762,1614.4065,1615.9333999999762,1316.0,1615.9333999999762,2.0,1615.933600000024,6.0,12.0,192.0,19.0,1.0,1.6,0.7,Time
,,S53,1,男,21,anonymized,Serial_Dependence_U,2023.2.3,Win32,60.60606060606061,,,,,,1615.9338000000116,333.0,6.0,1615.933899999976,333.0,,,,1619.707699999988,1620.199899999976,1619.1988999999762,1619.7076000000238,1616.934399999976,1619.1988999999762,1620.1999999999998,1620.692199999988,1620.692199999988,1622.071,1107.0,1622.0711000000238,2.0,1622.071300000012,6.0,13.0,193.0,2.0,1.0,1.2,0.3,Time
,,S53,1,男,21,anonymized,Serial_Dependence_U,2023.2.3,Win32,60.60606060606061,,,,,,1622.0715,130.0,6.0,1622.071600000024,130.0,,,,1625.6491000000235,1626.1411999999882,1625.140199999988,1625.649,1623.0721999999878,1625.140199999988,1626.1411999999882,1626.633399999976,1626.633399999976,1627.683899999976,820.0,1627.6839999999995,2.0,1627.684199999988,6.0,14.0,194.0,21.0,1.0,1.0,0.3,Time
,,S53,1,男,21,anonymized,Serial_Dependence_U,2023.2.3,Win32,60.60606060606061,,,,,,1627.6843000000115,222.0,6.0,1627.6844999999998,222.0,,,,1631.4589999999998,1631.9508999999762,1630.950399999976,1631.458899999976,1628.685300000012,1630.950199999988,1631.951,1632.443399999976,1632.443399999976,1633.6741000000238,1004.0,1633.674199999988,2.0,1633.674300000012,6.0,15.0,195.0,12.0,1.0,1.2,0.3,Time
,,S53,1,男,21,anonymized,Serial_Dependence_U,2023.2.3,Win32,60.60606060606061,,,,,,1633.6745,277.0,6.0,1633.6746999999882,277.0,,,,1637.646699999988,1638.138300000012,1637.1378000000118,1637.646699999988,1634.675699999988,1637.137699999988,1638.138300000012,1638.6304999999998,1638.6304999999998,1640.009300000012,1090.0,1640.009300000012,2.0,1640.0095,6.0,16.0,196.0,13.0,1.0,1.4,0.3,Time
,,S53,1,男,21,anonymized,Serial_Dependence_U,2023.2.3,Win32,60.60606060606061,,,,,,1640.0096999999878,171.0,6.0,1640.009899999976,171.0,,,,1643.3906000000238,1643.8828000000117,1642.8816000000238,1643.3905,1641.011,1642.8815,1643.8828000000117,1644.375,1644.375,1645.540800000012,922.0,1645.540899999976,4.0,1645.5409999999997,6.0,17.0,197.0,0.0,1.0,0.8,0.3,Time
,,S53,1,男,21,anonymized,Serial_Dependence_U,2023.2.3,Win32,60.60606060606061,,,,,,1645.5411999999878,328.0,6.0,1645.541399999976,328.0,,,,1649.282699999988,1649.774300000012,1648.7734999999998,1649.282699999988,1646.541699999988,1648.773399999976,1649.774399999976,1650.267199999988,1650.2673000000118,1651.564,1051.0,1651.564,2.0,1651.564199999988,6.0,18.0,198.0,7.0,1.0,1.2,0.7,Time
,,S53,1,男,21,anonymized,Serial_Dependence_U,2023.2.3,Win32,60.60606060606061,,,,,,1651.564399999976,38.0,6.0,1651.5645,38.0,,,,1655.305699999988,1655.7983000000115,1654.797,1655.3056000000238,1652.564699999988,1654.797,1655.7983000000115,1656.2901000000238,1656.2901000000238,1657.898399999976,1191.0,1657.898399999976,3.0,1657.8986000000236,6.0,19.0,199.0,27.0,1.0,1.2,0.7,Time
,,S53,1,男,21,anonymized,Serial_Dependence_U,2023.2.3,Win32,60.60606060606061,,,,,,1657.8988000000118,33.0,6.0,1657.899,33.0,,,,1662.083899999976,1662.5768000000116,1661.5749999999998,1662.0838000000117,1658.900100000024,1661.5748000000117,1662.5768000000116,1663.0681000000236,1663.068199999988,1664.5456000000236,1147.0,1664.5456000000236,2.0,1664.545899999976,6.0,20.0,200.0,24.0,1.0,1.6,0.3,Time
,,S53,1,男,21,anonymized,Serial_Dependence_U,2023.2.3,Win32,60.60606060606061,,,,,,1664.5461000000237,32.0,6.0,1664.5463000000118,32.0,,,,1667.8936999999878,1668.386,1667.384899999976,1667.893600000024,1665.546800000012,1667.3848000000116,1668.386,1668.877899999976,1668.8779999999997,1670.174899999976,1107.0,1670.1749999999995,5.0,1670.1753000000117,6.0,21.0,201.0,5.0,1.0,0.8,0.7,Time
,,S53,1,男,21,anonymized,Serial_Dependence_U,2023.2.3,Win32,60.60606060606061,,,,,,1670.1754999999998,173.0,6.0,1670.1756000000237,173.0,,,,1673.916899999976,1674.408699999988,1673.408,1673.9168000000118,1671.1763999999762,1673.408,1674.408699999988,1674.901399999976,1674.901399999976,1676.3291999999878,1089.0,1676.3291999999878,2.0,1676.3293000000117,6.0,22.0,202.0,17.0,1.0,1.2,0.7,Time
,,S53,1,男,21,anonymized,Serial_Dependence_U,2023.2.3,Win32,60.60606060606061,,,,,,1676.3296000000237,262.0,6.0,1676.3298000000118,262.0,,,,1679.7101999999882,1680.2028000000118,1679.2018000000116,1679.710100000024,1677.330600000024,1679.2018000000116,1680.202899999976,1680.6946999999882,1680.694800000012,1681.8111000000235,866.0,1681.8111000000235,4.0,1681.811399999976,6.0,23.0,203.0,10.0,1.0,0.8,0.3,Time
,,S53,1,男,21,anonymized,Serial_Dependence_U,2023.2.3,Win32,60.60606060606061,,,,,,1681.811899999976,309.0,6.0,1681.8121000000235,309.0,,,,1685.3561000000236,1685.848,1684.8476000000237,1685.3559999999998,1682.8123999999762,1684.8475,1685.848,1686.3406000000236,1686.3406000000236,1687.784699999988,1306.0,1687.784699999988,5.0,1687.784899999976,6.0,24.0,204.0,26.0,1.0,1.0,0.7,Time
,,S53,1,男,21,anonymized,Serial_Dependence_U,2023.2.3,Win32,60.60606060606061,,,,,,1687.785199999988,235.0,6.0,1687.7853000000118,235.0,,,,1691.7405,1692.232800000012,1691.232300000012,1691.7403000000118,1688.7861999999882,1691.232300000012,1692.232800000012,1692.7246000000237,1692.724699999988,1694.0214999999998,1024.0,1694.0214999999998,2.0,1694.021899999976,6.0,25.0,205.0,28.0,1.0,1.4,0.7,Time
,,S53,1,男,21,anonymized,Serial_Dependence_U,2023.2.3,Win32,60.60606060606061,,,,,,1694.022199999988,45.0,6.0,1694.0225,45.0,,,,1697.567300000012,1698.0586999999882,1697.0581000000238,1697.567199999988,1695.0226999999882,1697.058,1698.0586999999882,1698.551,1698.551,1699.864600000024,1024.0,1699.864600000024,3.0,1699.8648000000117,6.0,26.0,206.0,16.0,1.0,1.0,0.7,Time
,,S53,1,男,21,anonymized,Serial_Dependence_U,2023.2.3,Win32,60.60606060606061,,,,,,1699.8649999999998,49.0,6.0,1699.8651000000236,49.0,,,,1703.836199999988,1704.328199999988,1703.327399999976,1703.836199999988,1700.8656000000235,1703.327399999976,1704.328300000012,1704.820399999976,1704.820399999976,1706.100600000024,1004.0,1706.100699999988,2.0,1706.1008999999765,6.0,27.0,207.0,23.0,1.0,1.4,0.3,Time
,,S53,1,男,21,anonymized,Serial_Dependence_U,2023.2.3,Win32,60.60606060606061,,,,,,1706.1011999999878,85.0,6.0,1706.101399999976,85.0,,,,1709.878699999988,1710.369899999976,1709.3694999999998,1709.878699999988,1707.1026000000238,1709.369399999976,1710.369899999976,1710.8624999999995,1710.8624999999995,1712.274800000012,1097.0,1712.274800000012,2.0,1712.2748999999762,6.0,28.0,208.0,22.0,1.0,1.2,0.3,Time
,,S53,1,男,21,anonymized,Serial_Dependence_U,2023.2.3,Win32,60.60606060606061,,,,,,1712.275100000024,232.0,6.0,1712.2751999999882,232.0,,,,1716.457399999976,1716.948800000012,1715.9513999999765,1716.457300000012,1713.2759999999998,1715.951300000012,1716.948800000012,1717.441399999976,1717.4415,1718.8203000000117,1106.0,1718.8203000000117,1.0,1718.8204999999998,6.0,29.0,209.0,14.0,1.0,1.6,0.3,Time
,,S53,1,男,21,anonymized,Serial_Dependence_U,2023.2.3,Win32,60.60606060606061,,,,,,1718.820699999988,195.0,7.0,1770.9773000000118,195.0,s,52.136599999964346,,1774.952399999976,1775.4413000000118,1774.4436000000237,1774.9523000000115,1771.978899999976,1774.4436000000237,1775.4413000000118,1775.9341000000236,1775.9341000000236,1777.463399999976,1129.0,1777.463399999976,2.0,1777.4634999999998,7.0,0.0,210.0,23.0,1.0,1.4,0.3,Time
,,S53,1,男,21,anonymized,Serial_Dependence_U,2023.2.3,Win32,60.60606060606061,,,,,,1777.463699999988,57.0,7.0,1777.464600000024,57.0,,,,1781.0056000000236,1781.497399999976,1780.4968000000115,1781.005399999976,1778.461699999988,1780.4968000000115,1781.497399999976,1781.990699999988,1781.990699999988,1783.188,926.0,1783.188100000024,2.0,1783.1886000000236,7.0,1.0,211.0,16.0,1.0,1.0,0.7,Time
,,S53,1,男,21,anonymized,Serial_Dependence_U,2023.2.3,Win32,60.60606060606061,,,,,,1783.1891000000237,240.0,7.0,1783.1893000000118,240.0,,,,1786.930199999988,1787.422100000024,1786.4213000000118,1786.930199999988,1784.1896000000238,1786.4213000000118,1787.422100000024,1787.914699999988,1787.914699999988,1789.145800000012,1012.0,1789.145800000012,2.0,1789.1461000000236,7.0,2.0,212.0,7.0,1.0,1.2,0.7,Time
,,S53,1,男,21,anonymized,Serial_Dependence_U,2023.2.3,Win32,60.60606060606061,,,,,,1789.1464999999998,143.0,7.0,1789.1464999999998,143.0,,,,1793.101,1793.5929999999998,1792.5921999999878,1793.1008999999765,1790.1468000000118,1792.592100000024,1793.593199999988,1794.0853999999763,1794.0853999999763,1795.5459999999998,1241.0,1795.5461000000237,2.0,1795.5463000000118,7.0,3.0,213.0,28.0,1.0,1.4,0.7,Time
,,S53,1,男,21,anonymized,Serial_Dependence_U,2023.2.3,Win32,60.60606060606061,,,,,,1795.5465,248.0,7.0,1795.5466000000238,248.0,,,,1799.092,1799.583699999988,1798.584800000012,1799.092,1796.5506000000237,1798.584800000012,1799.583699999988,1800.075800000012,1800.075800000012,1801.520800000012,1152.0,1801.520899999976,4.0,1801.521199999988,7.0,4.0,214.0,26.0,1.0,1.0,0.7,Time
,,S53,1,男,21,anonymized,Serial_Dependence_U,2023.2.3,Win32,60.60606060606061,,,,,,1801.521399999976,250.0,7.0,1801.5215,250.0,,,,1805.492199999988,1805.984600000024,1804.984,1805.492199999988,1802.522399999976,1804.983899999976,1805.984600000024,1806.4765,1806.476600000024,1807.888100000024,1183.0,1807.888199999988,2.0,1807.888300000012,7.0,5.0,215.0,3.0,1.0,1.4,0.3,Time
,,S53,1,男,21,anonymized,Serial_Dependence_U,2023.2.3,Win32,60.60606060606061,,,,,,1807.888600000024,69.0,7.0,1807.888699999988,69.0,,,,1811.236699999988,1811.728899999976,1810.727899999976,1811.2365,1808.889399999976,1810.727899999976,1811.728899999976,1812.220899999976,1812.221,1813.471600000024,972.0,1813.471600000024,4.0,1813.471800000012,7.0,6.0,216.0,5.0,1.0,0.8,0.7,Time
,,S53,1,男,21,anonymized,Serial_Dependence_U,2023.2.3,Win32,60.60606060606061,,,,,,1813.471899999976,2.0,7.0,1813.472,2.0,,,,1817.226899999976,1817.718699999988,1816.718100000024,1817.226899999976,1814.470399999976,1816.718,1817.718800000012,1818.210899999976,1818.210899999976,1819.770600000024,1300.0,1819.770600000024,4.0,1819.770899999976,7.0,7.0,217.0,27.0,1.0,1.2,0.7,Time
,,S53,1,男,21,anonymized,Serial_Dependence_U,2023.2.3,Win32,60.60606060606061,,,,,,1819.7715,157.0,7.0,1819.771600000024,157.0,,,,1823.151300000012,1823.6435,1822.642899999976,1823.151100000024,1820.772800000012,1822.642800000012,1823.6435,1824.135899999976,1824.135899999976,1825.301100000024,876.0,1825.301100000024,4.0,1825.301300000012,7.0,8.0,218.0,10.0,1.0,0.8,0.3,Time
,,S53,1,男,21,anonymized,Serial_Dependence_U,2023.2.3,Win32,60.60606060606061,,,,,,1825.3015,185.0,7.0,1825.301600000024,185.0,,,,1829.486399999976,1829.9785,1828.9805,1829.486300000012,1826.305199999988,1828.9805,1829.9785,1830.471800000012,1830.471800000012,1832.083,1280.0,1832.083,2.0,1832.083199999988,7.0,9.0,219.0,4.0,1.0,1.6,0.3,Time
,,S53,1,男,21,anonymized,Serial_Dependence_U,2023.2.3,Win32,60.60606060606061,,,,,,1832.083399999976,207.0,7.0,1832.0835,207.0,,,,1836.232,1836.723800000012,1835.726,1836.231899999976,1833.083699999988,1835.7258999999765,1836.723800000012,1837.2165,1837.2165,1839.172899999976,1437.0,1839.172899999976,2.0,1839.173100000024,7.0,10.0,220.0,9.0,1.0,1.6,0.7,Time
,,S53,1,男,21,anonymized,Serial_Dependence_U,2023.2.3,Win32,60.60606060606061,,,,,,1839.173300000012,204.0,7.0,1839.1735,204.0,,,,1843.338399999976,1843.830399999976,1842.832399999976,1843.338199999988,1840.170600000024,1842.832300000012,1843.830399999976,1844.323300000012,1844.323300000012,1845.738,1230.0,1845.738100000024,2.0,1845.738199999988,7.0,11.0,221.0,14.0,1.0,1.6,0.3,Time
,,S53,1,男,21,anonymized,Serial_Dependence_U,2023.2.3,Win32,60.60606060606061,,,,,,1845.738399999976,268.0,7.0,1845.7385,268.0,,,,1849.312100000024,1849.804399999976,1848.8066000000235,1849.312,1846.737399999976,1848.8065,1849.804399999976,1850.296800000012,1850.296800000012,1851.4995,1000.0,1851.4995,3.0,1851.499699999988,7.0,12.0,222.0,1.0,1.0,1.0,0.3,Time
,,S53,1,男,21,anonymized,Serial_Dependence_U,2023.2.3,Win32,60.60606060606061,,,,,,1851.499899999976,330.0,7.0,1851.499899999976,330.0,,,,1855.040600000024,1855.532300000012,1854.531699999988,1855.040399999976,1852.496399999976,1854.531600000024,1855.532300000012,1856.024699999988,1856.024699999988,1857.321399999976,1142.0,1857.3215,4.0,1857.321800000012,7.0,13.0,223.0,6.0,1.0,1.0,0.7,Time
,,S53,1,男,21,anonymized,Serial_Dependence_U,2023.2.3,Win32,60.60606060606061,,,,,,1857.322,66.0,7.0,1857.322199999988,66.0,,,,1860.8995,1861.391399999976,1860.391199999988,1860.899399999976,1858.3225,1860.391,1861.391399999976,1861.8835,1861.8835,1863.296100000024,1123.0,1863.296100000024,4.0,1863.2965,7.0,14.0,224.0,11.0,1.0,1.0,0.3,Time
,,S53,1,男,21,anonymized,Serial_Dependence_U,2023.2.3,Win32,60.60606060606061,,,,,,1863.296800000012,93.0,7.0,1863.297,93.0,,,,1866.873300000012,1867.365300000012,1866.364800000012,1866.873300000012,1864.2965,1866.364699999988,1867.365300000012,1867.857399999976,1867.857399999976,1869.187399999976,972.0,1869.1875,3.0,1869.187699999988,7.0,15.0,225.0,21.0,1.0,1.0,0.3,Time
,,S53,1,男,21,anonymized,Serial_Dependence_U,2023.2.3,Win32,60.60606060606061,,,,,,1869.1878999999765,177.0,7.0,1869.188100000024,177.0,,,,1872.964600000024,1873.454,1872.453199999988,1872.9645,1870.188699999988,1872.453199999988,1873.454,1873.946600000024,1873.946600000024,1875.771600000024,1067.0,1875.771600000024,2.0,1875.771699999988,7.0,16.0,226.0,12.0,1.0,1.2,0.3,Time
,,S53,1,男,21,anonymized,Serial_Dependence_U,2023.2.3,Win32,60.60606060606061,,,,,,1875.771899999976,164.0,7.0,1875.772,164.0,,,,1879.920800000012,1880.413100000024,1879.414800000012,1879.920800000012,1876.771800000012,1879.414800000012,1880.413100000024,1880.905399999976,1880.905399999976,1882.5825,1444.0,1882.5825,2.0,1882.582600000024,7.0,17.0,227.0,19.0,1.0,1.6,0.7,Time
,,S53,1,男,21,anonymized,Serial_Dependence_U,2023.2.3,Win32,60.60606060606061,,,,,,1882.5828000000115,290.0,7.0,1882.582899999976,290.0,,,,1886.731600000024,1887.224699999988,1886.225600000024,1886.7315,1883.582199999988,1886.2255,1887.224699999988,1887.717199999988,1887.717300000012,1889.3446000000235,1385.0,1889.344699999988,2.0,1889.344800000012,7.0,18.0,228.0,29.0,1.0,1.6,0.7,Time
,,S53,1,男,21,anonymized,Serial_Dependence_U,2023.2.3,Win32,60.60606060606061,,,,,,1889.345100000024,222.0,7.0,1889.345199999988,222.0,,,,1893.527,1894.0183000000115,1893.022,1893.526800000012,1890.342600000024,1893.022,1894.0183000000115,1894.510899999976,1894.510899999976,1896.286899999976,1461.0,1896.286899999976,2.0,1896.287100000024,7.0,19.0,229.0,24.0,1.0,1.6,0.3,Time
,,S53,1,男,21,anonymized,Serial_Dependence_U,2023.2.3,Win32,60.60606060606061,,,,,,1896.287399999976,225.0,7.0,1896.2875,225.0,,,,1900.025399999976,1900.517300000012,1899.520100000024,1900.025399999976,1897.287600000024,1899.52,1900.517300000012,1901.010399999976,1901.0105,1902.5565,1309.0,1902.5565,4.0,1902.5566000000235,7.0,20.0,230.0,17.0,1.0,1.2,0.7,Time
,,S53,1,男,21,anonymized,Serial_Dependence_U,2023.2.3,Win32,60.60606060606061,,,,,,1902.556899999976,190.0,7.0,1902.556899999976,190.0,,,,1905.901,1906.3931000000237,1905.3953000000115,1905.900899999976,1903.554300000012,1905.3953000000115,1906.3931000000237,1906.885699999988,1906.885699999988,1908.185899999976,1006.0,1908.186,4.0,1908.1861000000235,7.0,21.0,231.0,25.0,1.0,0.8,0.7,Time
,,S53,1,男,21,anonymized,Serial_Dependence_U,2023.2.3,Win32,60.60606060606061,,,,,,1908.186199999988,318.0,7.0,1908.186399999976,318.0,,,,1911.563699999988,1912.056199999988,1911.057100000024,1911.5635,1909.183399999976,1911.057100000024,1912.056300000012,1912.5476000000235,1912.5476000000235,1913.746199999988,933.0,1913.746399999976,4.0,1913.746699999988,7.0,22.0,232.0,0.0,1.0,0.8,0.3,Time
,,S53,1,男,21,anonymized,Serial_Dependence_U,2023.2.3,Win32,60.60606060606061,,,,,,1913.746899999976,37.0,7.0,1913.747,37.0,,,,1917.718100000024,1918.209800000012,1917.211600000024,1917.718100000024,1914.749300000012,1917.2115,1918.209899999976,1918.702300000012,1918.702300000012,1920.051399999976,1114.0,1920.051399999976,2.0,1920.0515,7.0,23.0,233.0,13.0,1.0,1.4,0.3,Time
,,S53,1,男,21,anonymized,Serial_Dependence_U,2023.2.3,Win32,60.60606060606061,,,,,,1920.051699999988,121.0,7.0,1920.051800000012,121.0,,,,1923.396399999976,1923.888300000012,1922.892800000012,1923.396300000012,1921.052300000012,1922.892800000012,1923.888300000012,1924.381300000012,1924.381300000012,1925.779199999988,1100.0,1925.7793000000115,5.0,1925.779399999976,7.0,24.0,234.0,15.0,1.0,0.8,0.7,Time
,,S53,1,男,21,anonymized,Serial_Dependence_U,2023.2.3,Win32,60.60606060606061,,,,,,1925.7795,54.0,7.0,1925.779800000012,54.0,,,,1929.731100000024,1930.223800000012,1929.2281000000237,1929.731,1926.780300000012,1929.2281000000237,1930.223899999976,1930.715600000024,1930.715600000024,1932.278899999976,1281.0,1932.278899999976,2.0,1932.279100000024,7.0,25.0,235.0,18.0,1.0,1.4,0.7,Time
,,S53,1,男,21,anonymized,Serial_Dependence_U,2023.2.3,Win32,60.60606060606061,,,,,,1932.2793000000115,189.0,7.0,1932.2795,189.0,,,,1936.050100000024,1936.5428000000115,1935.541699999988,1936.049899999976,1933.276100000024,1935.541699999988,1936.5428000000115,1937.034600000024,1937.034600000024,1938.531699999988,1261.0,1938.531699999988,4.0,1938.531800000012,7.0,26.0,236.0,22.0,1.0,1.2,0.3,Time
,,S53,1,男,21,anonymized,Serial_Dependence_U,2023.2.3,Win32,60.60606060606061,,,,,,1938.532,317.0,7.0,1938.532199999988,317.0,,,,1942.303,1942.795,1941.797,1942.303,1939.532300000012,1941.796899999976,1942.7951000000237,1943.287199999988,1943.287300000012,1944.637199999988,1120.0,1944.637199999988,2.0,1944.637399999976,7.0,27.0,237.0,2.0,1.0,1.2,0.3,Time
,,S53,1,男,21,anonymized,Serial_Dependence_U,2023.2.3,Win32,60.60606060606061,,,,,,1944.637600000024,329.0,7.0,1944.637699999988,329.0,,,,1948.588699999988,1949.0806000000237,1948.083300000012,1948.588600000024,1945.6375,1948.083300000012,1949.080699999988,1949.573100000024,1949.573100000024,1951.099899999976,1269.0,1951.099899999976,2.0,1951.100199999988,7.0,28.0,238.0,8.0,1.0,1.4,0.7,Time
,,S53,1,男,21,anonymized,Serial_Dependence_U,2023.2.3,Win32,60.60606060606061,,,,,,1951.100399999976,244.0,7.0,1951.1005,244.0,,,,1954.4806000000235,1954.972800000012,1953.972,1954.4806000000235,1952.101300000012,1953.972,1954.972800000012,1955.465199999988,1955.465300000012,1956.762699999988,974.0,1956.762800000012,4.0,1956.763100000024,7.0,29.0,239.0,20.0,1.0,0.8,0.3,Time
,,S53,1,男,21,anonymized,Serial_Dependence_U,2023.2.3,Win32,60.60606060606061,,,,,,1956.763399999976,313.0,8.0,1961.488199999988,313.0,s,4.708300000011604,,1965.2635,1965.755399999976,1964.755,1965.263399999976,1962.4895,1964.754899999976,1965.755399999976,1966.247899999976,1966.247899999976,1967.560699999988,986.0,1967.560800000012,2.0,1967.561,8.0,0.0,240.0,2.0,1.0,1.2,0.3,Time
,,S53,1,男,21,anonymized,Serial_Dependence_U,2023.2.3,Win32,60.60606060606061,,,,,,1967.561199999988,38.0,8.0,1967.562100000024,38.0,,,,1971.533399999976,1972.024699999988,1971.024300000012,1971.533300000012,1968.562,1971.024300000012,1972.024699999988,1972.517399999976,1972.517399999976,1973.896100000024,1123.0,1973.896199999988,2.0,1973.896399999976,8.0,1.0,241.0,23.0,1.0,1.4,0.3,Time
,,S53,1,男,21,anonymized,Serial_Dependence_U,2023.2.3,Win32,60.60606060606061,,,,,,1973.8965,354.0,8.0,1973.896800000012,354.0,,,,1978.081300000012,1978.573199999988,1977.572699999988,1978.081199999988,1974.897399999976,1977.572600000024,1978.573199999988,1979.065399999976,1979.0655,1980.509899999976,1188.0,1980.509899999976,2.0,1980.510100000024,8.0,2.0,242.0,14.0,1.0,1.6,0.3,Time
,,S53,1,男,21,anonymized,Serial_Dependence_U,2023.2.3,Win32,60.60606060606061,,,,,,1980.510199999988,225.0,8.0,1980.510399999976,225.0,,,,1984.252699999988,1984.744399999976,1983.743699999988,1984.2526000000237,1981.511199999988,1983.7435,1984.7445,1985.236300000012,1985.236300000012,1986.992899999976,1142.0,1986.992899999976,3.0,1986.993300000012,8.0,3.0,243.0,17.0,1.0,1.2,0.7,Time
,,S53,1,男,21,anonymized,Serial_Dependence_U,2023.2.3,Win32,60.60606060606061,,,,,,1986.9936000000237,281.0,8.0,1986.993800000012,281.0,,,,1990.375100000024,1990.866,1989.865100000024,1990.375100000024,1987.994,1989.865100000024,1990.866,1991.358699999988,1991.358699999988,1992.6391000000235,859.0,1992.6391000000235,4.0,1992.6395,8.0,4.0,244.0,20.0,1.0,0.8,0.3,Time
,,S53,1,男,21,anonymized,Serial_Dependence_U,2023.2.3,Win32,60.60606060606061,,,,,,1992.639800000012,285.0,8.0,1992.639800000012,285.0,,,,1996.380899999976,1996.8725,1995.871800000012,1996.380899999976,1993.640300000012,1995.871699999988,1996.872600000024,1997.365100000024,1997.365100000024,1998.8915,1255.0,1998.891600000024,3.0,1998.891800000012,8.0,5.0,245.0,7.0,1.0,1.2,0.7,Time
,,S53,1,男,21,anonymized,Serial_Dependence_U,2023.2.3,Win32,60.60606060606061,,,,,,1998.892,308.0,8.0,1998.892199999988,308.0,,,,2003.044,2003.535899999976,2002.535199999988,2003.044,1999.892899999976,2002.535100000024,2003.535899999976,2004.028300000012,2004.028300000012,2005.735199999988,1491.0,2005.735199999988,2.0,2005.7355,8.0,6.0,246.0,9.0,1.0,1.6,0.7,Time
,,S53,1,男,21,anonymized,Serial_Dependence_U,2023.2.3,Win32,60.60606060606061,,,,,,2005.735699999988,350.0,8.0,2005.735800000012,350.0,,,,2009.083699999988,2009.5755,2008.575,2009.083699999988,2006.7365,2008.575,2009.5755,2010.067800000012,2010.067899999976,2011.315199999988,916.0,2011.315199999988,4.0,2011.3155,8.0,7.0,247.0,25.0,1.0,0.8,0.7,Time
,,S53,1,男,21,anonymized,Serial_Dependence_U,2023.2.3,Win32,60.60606060606061,,,,,,2011.315699999988,216.0,8.0,2011.315800000012,216.0,,,,2014.663699999988,2015.155600000024,2014.155800000012,2014.663699999988,2012.316899999976,2014.155699999988,2015.155600000024,2015.648300000012,2015.648300000012,2016.830899999976,950.0,2016.831,4.0,2016.831300000012,8.0,8.0,248.0,15.0,1.0,0.8,0.7,Time
,,S53,1,男,21,anonymized,Serial_Dependence_U,2023.2.3,Win32,60.60606060606061,,,,,,2016.8315,280.0,8.0,2016.831600000024,280.0,,,,2020.785300000012,2021.278100000024,2020.2765,2020.785199999988,2017.831800000012,2020.276399999976,2021.278100000024,2021.769699999988,2021.769699999988,2023.345300000012,1343.0,2023.345300000012,3.0,2023.3455,8.0,9.0,249.0,28.0,1.0,1.4,0.7,Time
,,S53,1,男,21,anonymized,Serial_Dependence_U,2023.2.3,Win32,60.60606060606061,,,,,,2023.345800000012,103.0,8.0,2023.346,103.0,,,,2026.694,2027.1861000000235,2026.185199999988,2026.693899999976,2024.346899999976,2026.185,2027.1861000000235,2027.678899999976,2027.678899999976,2029.122699999988,1127.0,2029.122800000012,5.0,2029.1231000000237,8.0,10.0,250.0,5.0,1.0,0.8,0.7,Time
,,S53,1,男,21,anonymized,Serial_Dependence_U,2023.2.3,Win32,60.60606060606061,,,,,,2029.1235,149.0,8.0,2029.1236000000235,149.0,,,,2033.307399999976,2033.799699999988,2032.799100000024,2033.307399999976,2030.124,2032.799,2033.799699999988,2034.292699999988,2034.2928000000115,2035.982899999976,1399.0,2035.982899999976,2.0,2035.983199999988,8.0,11.0,251.0,4.0,1.0,1.6,0.3,Time
,,S53,1,男,21,anonymized,Serial_Dependence_U,2023.2.3,Win32,60.60606060606061,,,,,,2035.983600000024,209.0,8.0,2035.983800000012,209.0,,,,2039.938399999976,2040.430399999976,2039.430199999988,2039.938300000012,2036.984699999988,2039.430199999988,2040.430399999976,2040.922899999976,2040.922899999976,2042.646,1436.0,2042.646,3.0,2042.646300000012,8.0,12.0,252.0,8.0,1.0,1.4,0.7,Time
,,S53,1,男,21,anonymized,Serial_Dependence_U,2023.2.3,Win32,60.60606060606061,,,,,,2042.646699999988,317.0,8.0,2042.646800000012,317.0,,,,2046.223800000012,2046.716199999988,2045.715699999988,2046.223699999988,2043.647199999988,2045.715600000024,2046.716199999988,2047.208199999988,2047.208199999988,2048.686300000012,1195.0,2048.686399999976,4.0,2048.686600000024,8.0,13.0,253.0,11.0,1.0,1.0,0.3,Time
,,S53,1,男,21,anonymized,Serial_Dependence_U,2023.2.3,Win32,60.60606060606061,,,,,,2048.686899999976,201.0,8.0,2048.687,201.0,,,,2052.066600000024,2052.558899999976,2051.558100000024,2052.0665,2049.687100000024,2051.558100000024,2052.558899999976,2053.051,2053.051199999988,2054.3151000000234,971.0,2054.3151000000234,4.0,2054.315399999976,8.0,14.0,254.0,0.0,1.0,0.8,0.3,Time
,,S53,1,男,21,anonymized,Serial_Dependence_U,2023.2.3,Win32,60.60606060606061,,,,,,2054.315800000012,226.0,8.0,2054.315800000012,226.0,,,,2057.860300000012,2058.352399999976,2057.352199999988,2057.860199999988,2055.3165,2057.352199999988,2058.352399999976,2058.8445,2058.8445,2060.3218000000115,1149.0,2060.322,4.0,2060.3221000000235,8.0,15.0,255.0,16.0,1.0,1.0,0.7,Time
,,S53,1,男,21,anonymized,Serial_Dependence_U,2023.2.3,Win32,60.60606060606061,,,,,,2060.322399999976,337.0,8.0,2060.3225,337.0,,,,2064.096800000012,2064.589,2063.588600000024,2064.096699999988,2061.323,2063.588600000024,2064.589,2065.081199999988,2065.081199999988,2066.427,1077.0,2066.4271000000235,2.0,2066.427199999988,8.0,16.0,256.0,22.0,1.0,1.2,0.3,Time
