Scale_setup.started,Scale_setup.stopped,participant,session,sex,age,date,expName,psychopyVersion,OS,frameRate,Intro.started,Intro.stopped,key_resp_2.keys,key_resp_2.rt,key_resp_2.duration,block.started,direction,Block_id,block.stopped,trial_direction,Block_resp_2.keys,Block_resp_2.rt,Block_resp_2.duration,ITI.started,ITI.stopped,Mask_2.started,Mask_2.stopped,encoding.started,encoding.stopped,Cue.started,Cue.stopped,Response.started,Response.stopped,keyDuration,Feedback_Time.started,FeedbackID_T,Feedback_Time.stopped,trials.thisRepN,trials.thisTrialN,trials.thisN,trials.thisIndex,trials.ran,TimeDur,Coherence1,TrialType
0.0002000000030193,0.000400000002287,S56,1,男,23,anonymized,Serial_Dependence_U,2023.2.3,Win32,60.97560975622741,,,,,,,,,,,,,,,,,,,,,,,,,,,,,,,,,,,
,,S56,1,男,23,anonymized,Serial_Dependence_U,2023.2.3,Win32,60.97560975622741,144.93840000000228,484.6496000000016,space,339.6801000000014,,,,,,,,,,,,,,,,,,,,,,,,,,,,,,,
,,S56,1,男,23,anonymized,Serial_Dependence_U,2023.2.3,Win32,60.97560975622741,,,,,,484.6549000000023,106.0,0.0,700.4661000000016,106.0,s,215.77700000000004,,703.8370000000001,704.3360000000001,703.3204000000022,703.8369000000024,701.4830000000001,703.3203000000009,704.3360000000001,704.8316000000015,704.8318000000007,708.735700000003,2716.0,708.7359000000023,5.0,709.7298000000009,0.0,0.0,0.0,5.0,1.0,0.8,0.7,Time
,,S56,1,男,23,anonymized,Serial_Dependence_U,2023.2.3,Win32,60.97560975622741,,,,,,709.7303000000007,205.0,0.0,709.7310000000001,205.0,,,,713.5005,713.995,712.984,713.5004000000023,710.7348000000007,712.984,713.995,714.4949000000023,714.4949000000023,715.3501000000016,383.0,715.3501000000016,1.0,716.3445,0.0,1.0,1.0,27.0,1.0,1.2,0.7,Time
,,S56,1,男,23,anonymized,Serial_Dependence_U,2023.2.3,Win32,60.97560975622741,,,,,,716.3449000000022,288.0,0.0,716.3450000000001,288.0,,,,719.9155,720.4096000000017,719.413200000003,719.9155,717.3493000000009,719.4131000000015,720.409700000003,720.897700000003,720.897700000003,721.6315000000001,567.0,721.6315000000001,1.0,722.6305000000001,0.0,2.0,2.0,11.0,1.0,1.0,0.3,Time
,,S56,1,男,23,anonymized,Serial_Dependence_U,2023.2.3,Win32,60.97560975622741,,,,,,722.6308000000007,23.0,0.0,722.6308000000007,23.0,,,,726.4133000000007,726.9123000000008,725.8968000000008,726.413200000003,723.6306000000014,725.8968000000008,726.9124000000023,727.4074000000022,727.4074000000022,727.5961000000015,17.0,727.5961000000015,1.0,728.5903000000009,0.0,3.0,3.0,22.0,1.0,1.2,0.3,Time
,,S56,1,男,23,anonymized,Serial_Dependence_U,2023.2.3,Win32,60.97560975622741,,,,,,728.5906000000015,162.0,0.0,728.590700000003,162.0,,,,732.5728000000007,733.0723000000008,732.0614000000022,732.572700000003,729.5955,732.0614000000022,733.0724000000024,733.5784000000023,733.5785,734.2609000000024,333.0,734.2609000000024,1.0,735.2551000000016,0.0,4.0,4.0,23.0,1.0,1.4,0.3,Time
,,S56,1,男,23,anonymized,Serial_Dependence_U,2023.2.3,Win32,60.97560975622741,,,,,,735.2554000000024,306.0,0.0,735.2555000000001,306.0,,,,739.0092000000029,739.5084999999999,738.492700000003,739.0092000000029,736.2600000000001,738.4926000000014,739.5086000000015,740.0036000000014,740.0036000000014,740.5754000000022,133.0,740.5754999999999,1.0,741.5699999999999,0.0,5.0,5.0,17.0,1.0,1.2,0.7,Time
,,S56,1,男,23,anonymized,Serial_Dependence_U,2023.2.3,Win32,60.97560975622741,,,,,,741.5704000000021,29.0,0.0,741.5706000000014,29.0,,,,744.9574000000023,745.4546000000014,744.4552000000028,744.9574000000023,742.5862000000029,744.4552000000028,745.454700000003,745.951700000003,745.951700000003,746.423700000003,117.0,746.4238000000007,1.0,747.4179999999999,0.0,6.0,6.0,20.0,1.0,0.8,0.3,Time
,,S56,1,男,23,anonymized,Serial_Dependence_U,2023.2.3,Win32,60.97560975622741,,,,,,747.418200000003,352.0,0.0,747.4183000000007,352.0,,,,751.617,752.1049000000021,751.1058000000007,751.6169000000023,748.4396000000015,751.105700000003,752.1049000000021,752.5999000000022,752.5999999999999,753.0216000000014,46.0,753.021700000003,1.0,754.0161000000014,0.0,7.0,7.0,24.0,1.0,1.6,0.3,Time
,,S56,1,男,23,anonymized,Serial_Dependence_U,2023.2.3,Win32,60.97560975622741,,,,,,754.0165,50.0,0.0,754.0166000000015,50.0,,,,757.586700000003,758.0811000000015,757.0682000000029,757.5866000000015,755.0377000000028,757.0682000000029,758.0811000000015,758.5811000000015,758.5811000000015,758.9364000000021,0.0,758.9364000000021,1.0,759.9356000000014,0.0,8.0,8.0,6.0,1.0,1.0,0.7,Time
,,S56,1,男,23,anonymized,Serial_Dependence_U,2023.2.3,Win32,60.97560975622741,,,,,,759.9359000000022,181.0,0.0,759.9359999999999,181.0,,,,763.6864000000021,764.1793000000007,763.1684000000023,763.6863000000008,760.9358000000007,763.1684000000023,764.1794000000023,764.679200000003,764.679200000003,765.6344999999999,600.0,765.634700000003,1.0,766.6289999999999,0.0,9.0,9.0,7.0,1.0,1.2,0.7,Time
,,S56,1,男,23,anonymized,Serial_Dependence_U,2023.2.3,Win32,60.97560975622741,,,,,,766.6293000000007,140.0,0.0,766.6293000000007,140.0,,,,770.6162000000029,771.1152000000029,770.0944999999999,770.6161000000013,767.6338000000007,770.0944000000022,771.1152000000029,771.6105,771.6105,783.9786000000015,1966.0,783.9786000000015,5.0,784.9758000000006,0.0,10.0,10.0,13.0,1.0,1.4,0.3,Time
,,S56,1,男,23,anonymized,Serial_Dependence_U,2023.2.3,Win32,60.97560975622741,,,,,,784.9761000000015,81.0,0.0,784.9761000000015,81.0,,,,789.1219000000021,789.6217000000029,788.6105,789.1219000000021,785.9779999999998,788.6105,789.6218000000008,790.1216000000015,790.1217000000029,792.5762000000029,1400.0,792.5762000000029,2.0,793.5702000000028,0.0,11.0,11.0,29.0,1.0,1.6,0.7,Time
,,S56,1,男,23,anonymized,Serial_Dependence_U,2023.2.3,Win32,60.97560975622741,,,,,,793.5705,66.0,0.0,793.570700000003,66.0,,,,796.9413000000006,797.4364000000021,796.4248000000007,796.9412000000029,794.5753000000007,796.424700000003,797.4364000000021,797.9358000000007,797.9358000000007,800.085,1390.0,800.085,5.0,801.0846000000015,0.0,12.0,12.0,15.0,1.0,0.8,0.7,Time
,,S56,1,男,23,anonymized,Serial_Dependence_U,2023.2.3,Win32,60.97560975622741,,,,,,801.0849000000021,83.0,0.0,801.085,83.0,,,,805.2866000000015,805.7834000000021,804.7722000000028,805.2864999999999,802.1066000000014,804.7721000000015,805.7834000000021,806.2833000000007,806.2834000000021,807.3215,590.0,807.3216000000014,1.0,808.3157000000028,0.0,13.0,13.0,4.0,1.0,1.6,0.3,Time
,,S56,1,男,23,anonymized,Serial_Dependence_U,2023.2.3,Win32,60.97560975622741,,,,,,808.316,186.0,0.0,808.3161000000014,186.0,,,,811.8649000000021,812.3525,811.3541000000014,811.8648000000007,809.3208000000006,811.354,812.3526000000015,812.847700000003,812.847700000003,815.1859000000022,1433.0,815.1859000000022,5.0,816.1799999999998,0.0,14.0,14.0,26.0,1.0,1.0,0.7,Time
,,S56,1,男,23,anonymized,Serial_Dependence_U,2023.2.3,Win32,60.97560975622741,,,,,,816.1803000000007,257.0,0.0,816.1804000000022,257.0,,,,819.9789000000021,820.4786000000015,819.4675,819.9788000000008,817.2016000000015,819.4675,820.4786000000015,820.9789000000021,820.9789000000021,822.0003000000006,994.0,822.0004000000022,2.0,822.9945,0.0,15.0,15.0,2.0,1.0,1.2,0.3,Time
,,S56,1,男,23,anonymized,Serial_Dependence_U,2023.2.3,Win32,60.97560975622741,,,,,,822.9947000000029,220.0,0.0,822.9948000000006,220.0,,,,826.5821000000014,827.0769000000021,826.0604000000021,826.5821000000014,823.9994999999999,826.0603000000008,827.077,827.5645,827.5645,829.3481000000015,1000.0,829.3481000000015,3.0,830.3423000000007,0.0,16.0,16.0,1.0,1.0,1.0,0.3,Time
,,S56,1,男,23,anonymized,Serial_Dependence_U,2023.2.3,Win32,60.97560975622741,,,,,,830.3426000000015,129.0,0.0,830.3427000000029,129.0,,,,833.6914000000022,834.1791000000014,833.1801000000014,833.6914000000022,831.3474000000022,833.1799999999998,834.179200000003,834.6789000000022,834.6789000000022,836.3958000000007,1129.0,836.3958000000007,5.0,837.390200000003,0.0,17.0,17.0,25.0,1.0,0.8,0.7,Time
,,S56,1,男,23,anonymized,Serial_Dependence_U,2023.2.3,Win32,60.97560975622741,,,,,,837.3906000000015,212.0,0.0,837.3907000000029,212.0,,,,840.9422000000029,841.4439000000023,840.4277000000029,840.9422000000029,838.3928000000008,840.4276000000013,841.4439000000023,841.9385,841.9385,843.660200000003,852.0,843.6603000000007,2.0,844.6551000000015,0.0,18.0,18.0,16.0,1.0,1.0,0.7,Time
,,S56,1,男,23,anonymized,Serial_Dependence_U,2023.2.3,Win32,60.97560975622741,,,,,,844.6554999999998,259.0,0.0,844.6556000000014,259.0,,,,848.4534999999998,848.9531000000015,847.9423000000006,848.4534000000021,845.6762000000028,847.9422000000029,848.9531000000015,849.4529000000023,849.4529000000023,851.0913000000007,933.0,851.0913000000007,2.0,852.0857000000028,0.0,19.0,19.0,12.0,1.0,1.2,0.3,Time
,,S56,1,男,23,anonymized,Serial_Dependence_U,2023.2.3,Win32,60.97560975622741,,,,,,852.086,133.0,0.0,852.0862000000029,133.0,,,,856.0731000000014,856.5674000000022,855.5558000000008,856.0729999999999,853.0904000000021,855.5557000000028,856.5674000000022,857.0673000000006,857.0674000000022,859.0056000000013,1233.0,859.0056000000013,2.0,860.0,0.0,20.0,20.0,3.0,1.0,1.4,0.3,Time
,,S56,1,男,23,anonymized,Serial_Dependence_U,2023.2.3,Win32,60.97560975622741,,,,,,860.0004000000022,258.0,0.0,860.0004999999999,258.0,,,,863.9538000000007,864.4531000000015,863.4378000000006,863.953700000003,861.0049000000022,863.4377000000029,864.4531000000015,864.9479999999999,864.9481000000014,866.5698000000007,1083.0,866.5698000000007,2.0,867.5639999999999,0.0,21.0,21.0,18.0,1.0,1.4,0.7,Time
,,S56,1,男,23,anonymized,Serial_Dependence_U,2023.2.3,Win32,60.97560975622741,,,,,,867.564200000003,264.0,0.0,867.5643000000007,264.0,,,,871.5464000000022,872.046200000003,871.035200000003,871.5463000000007,868.5856000000015,871.0351000000014,872.046200000003,872.546200000003,872.5463000000007,874.4506000000015,1466.0,874.4506000000015,3.0,875.4449000000022,0.0,22.0,22.0,8.0,1.0,1.4,0.7,Time
,,S56,1,男,23,anonymized,Serial_Dependence_U,2023.2.3,Win32,60.97560975622741,,,,,,875.4452000000028,247.0,0.0,875.4453000000008,247.0,,,,878.8325,879.3299999999999,878.3276000000014,878.8325,876.4666000000013,878.3274999999999,879.3299999999999,879.8269000000021,879.8269000000021,881.8817000000029,1450.0,881.8817000000029,5.0,882.8764999999999,0.0,23.0,23.0,0.0,1.0,0.8,0.3,Time
,,S56,1,男,23,anonymized,Serial_Dependence_U,2023.2.3,Win32,60.97560975622741,,,,,,882.876700000003,296.0,0.0,882.8768000000007,296.0,,,,886.4634000000021,886.9579999999999,885.9614000000022,886.4634000000021,883.8977000000029,885.9614000000022,886.9579999999999,887.4579000000022,887.4579000000022,889.0294999999999,1096.0,889.0294999999999,4.0,890.0239999999999,0.0,24.0,24.0,21.0,1.0,1.0,0.3,Time
,,S56,1,男,23,anonymized,Serial_Dependence_U,2023.2.3,Win32,60.97560975622741,,,,,,890.0243000000007,260.0,0.0,890.0244000000023,260.0,,,,893.4231000000013,893.9224000000022,892.9114999999999,893.423,891.0454000000022,892.9114999999999,893.9224000000022,894.422700000003,894.422700000003,895.4276000000013,666.0,895.4276000000013,2.0,896.4217000000028,0.0,25.0,25.0,10.0,1.0,0.8,0.3,Time
,,S56,1,男,23,anonymized,Serial_Dependence_U,2023.2.3,Win32,60.97560975622741,,,,,,896.422,351.0,0.0,896.4221000000014,351.0,,,,900.5925,901.0873000000006,900.0906000000014,900.5924000000023,897.443700000003,900.0906000000014,901.0873000000006,901.586700000003,901.586700000003,903.325,1416.0,903.325,2.0,904.319400000002,0.0,26.0,26.0,9.0,1.0,1.6,0.7,Time
,,S56,1,男,23,anonymized,Serial_Dependence_U,2023.2.3,Win32,60.97560975622741,,,,,,904.319700000003,183.0,0.0,904.3199000000022,183.0,,,,908.2682000000028,908.767900000002,907.757200000003,908.2681000000014,905.324200000003,907.7569999999998,908.767900000002,909.272400000002,909.272400000002,911.3224000000024,1649.0,911.3224000000024,4.0,912.3168000000009,0.0,27.0,27.0,28.0,1.0,1.4,0.7,Time
,,S56,1,男,23,anonymized,Serial_Dependence_U,2023.2.3,Win32,60.97560975622741,,,,,,912.3171000000012,248.0,0.0,912.3172000000028,248.0,,,,916.5209000000024,917.0155,916.004400000002,916.5208000000008,913.3384999999998,916.0043000000009,917.0155,917.5151000000014,917.515200000003,920.019700000003,1899.0,920.019700000003,4.0,921.014,0.0,28.0,28.0,14.0,1.0,1.6,0.3,Time
,,S56,1,男,23,anonymized,Serial_Dependence_U,2023.2.3,Win32,60.97560975622741,,,,,,921.0143000000008,7.0,0.0,921.014400000002,7.0,,,,925.1681000000016,925.6673000000008,924.6679000000022,925.1681000000016,922.036,924.6678000000006,925.6673000000008,926.1628000000007,926.1628000000007,928.7005,1966.0,928.7005,4.0,929.6948000000008,0.0,29.0,29.0,19.0,1.0,1.6,0.7,Time
,,S56,1,男,23,anonymized,Serial_Dependence_U,2023.2.3,Win32,60.97560975622741,,,,,,929.6952000000028,115.0,1.0,957.8574999999998,115.0,s,28.14009999999757,,961.2185,961.7181000000014,960.707200000003,961.2184000000022,958.8744000000022,960.707200000003,961.7181000000014,962.217900000002,962.217900000002,964.0895,1276.0,964.0895,5.0,964.089700000003,1.0,0.0,30.0,15.0,1.0,0.8,0.7,Time
,,S56,1,男,23,anonymized,Serial_Dependence_U,2023.2.3,Win32,60.97560975622741,,,,,,964.0899000000022,192.0,1.0,964.090400000002,192.0,,,,968.2716000000014,968.765900000002,967.7556000000012,968.2714999999998,965.089,967.7555,968.765900000002,969.270700000003,969.270700000003,972.070400000002,2299.0,972.0705,5.0,972.0706000000014,1.0,1.0,31.0,24.0,1.0,1.6,0.3,Time
,,S56,1,男,23,anonymized,Serial_Dependence_U,2023.2.3,Win32,60.97560975622741,,,,,,972.070700000003,172.0,1.0,972.0708000000006,172.0,,,,975.8472000000028,976.3516000000012,975.336,975.8472000000028,973.0702000000028,975.336,976.3517000000028,976.846700000003,976.846700000003,978.9683000000008,1683.0,978.9684000000022,5.0,978.9686000000016,1.0,2.0,32.0,2.0,1.0,1.2,0.3,Time
,,S56,1,男,23,anonymized,Serial_Dependence_U,2023.2.3,Win32,60.97560975622741,,,,,,978.9688000000008,200.0,1.0,978.9688000000008,200.0,,,,982.3785,982.8821000000014,981.8673000000008,982.3785,979.9857000000028,981.8672000000028,982.882200000003,983.378,983.378,985.4993000000006,1633.0,985.4994000000022,5.0,985.4995,1.0,3.0,33.0,10.0,1.0,0.8,0.3,Time
,,S56,1,男,23,anonymized,Serial_Dependence_U,2023.2.3,Win32,60.97560975622741,,,,,,985.499700000003,73.0,1.0,985.4998000000008,73.0,,,,989.482400000002,989.976,988.981700000003,989.4823000000006,986.5158000000006,988.981700000003,989.976,990.4761000000016,990.476200000003,993.0472000000028,2016.0,993.0472000000028,5.0,993.0474000000022,1.0,4.0,34.0,23.0,1.0,1.4,0.3,Time
,,S56,1,男,23,anonymized,Serial_Dependence_U,2023.2.3,Win32,60.97560975622741,,,,,,993.0476000000016,49.0,1.0,993.0476000000016,49.0,,,,997.240700000003,997.7402000000028,996.7293000000006,997.2406000000016,994.0634000000024,996.7293000000006,997.7402000000028,998.2403000000006,998.2404000000022,1000.8282000000028,2189.0,1000.8282000000028,5.0,1000.828400000002,1.0,5.0,35.0,4.0,1.0,1.6,0.3,Time
,,S56,1,男,23,anonymized,Serial_Dependence_U,2023.2.3,Win32,60.97560975622741,,,,,,1000.8284999999998,216.0,1.0,1000.8286000000014,216.0,,,,1004.177,1004.6715,1003.6605,1004.1769000000022,1001.8256000000016,1003.6605,1004.6715,1005.1594000000024,1005.1594000000024,1006.4931000000016,950.0,1006.4932000000028,4.0,1006.4933000000008,1.0,6.0,36.0,5.0,1.0,0.8,0.7,Time
,,S56,1,男,23,anonymized,Serial_Dependence_U,2023.2.3,Win32,60.97560975622741,,,,,,1006.493400000002,40.0,1.0,1006.4935,40.0,,,,1010.2251000000016,1010.7196000000016,1009.7231000000016,1010.2251000000016,1007.492700000003,1009.7231000000016,1010.7197000000028,1011.2194000000022,1011.2194000000022,1013.3909999999998,1816.0,1013.3911000000014,5.0,1013.3913000000008,1.0,7.0,37.0,7.0,1.0,1.2,0.7,Time
,,S56,1,男,23,anonymized,Serial_Dependence_U,2023.2.3,Win32,60.97560975622741,,,,,,1013.3915,189.0,1.0,1013.3916000000016,189.0,,,,1017.3728000000008,1017.8673000000008,1016.851200000003,1017.3728000000008,1014.3904000000024,1016.8511000000016,1017.8673000000008,1018.3672000000028,1018.3672000000028,1020.422,1699.0,1020.4221000000014,4.0,1020.4222000000028,1.0,8.0,38.0,3.0,1.0,1.4,0.3,Time
,,S56,1,男,23,anonymized,Serial_Dependence_U,2023.2.3,Win32,60.97560975622741,,,,,,1020.4224000000022,47.0,1.0,1020.4225,47.0,,,,1024.1823000000006,1024.6821000000014,1023.670900000002,1024.1823000000006,1021.4216000000016,1023.6708000000008,1024.6821000000014,1025.1821000000014,1025.1821000000014,1027.0365,1525.0,1027.0366000000015,4.0,1027.0367000000028,1.0,9.0,39.0,17.0,1.0,1.2,0.7,Time
,,S56,1,男,23,anonymized,Serial_Dependence_U,2023.2.3,Win32,60.97560975622741,,,,,,1027.0368000000008,243.0,1.0,1027.037,243.0,,,,1031.0354000000025,1031.5298000000007,1030.5188000000007,1031.0353000000007,1028.0529000000022,1030.5188000000007,1031.5298000000007,1032.0178000000008,1032.0178000000008,1034.3843000000006,1933.0,1034.3844000000022,5.0,1034.3846000000017,1.0,10.0,40.0,13.0,1.0,1.4,0.3,Time
,,S56,1,男,23,anonymized,Serial_Dependence_U,2023.2.3,Win32,60.97560975622741,,,,,,1034.384700000003,18.0,1.0,1034.384700000003,18.0,,,,1038.361200000003,1038.861200000003,1037.85,1038.3611000000014,1035.4007000000029,1037.85,1038.861200000003,1039.3489000000022,1039.3489000000022,1041.6319999999998,1899.0,1041.6319999999998,5.0,1041.6321000000014,1.0,11.0,41.0,18.0,1.0,1.4,0.7,Time
,,S56,1,男,23,anonymized,Serial_Dependence_U,2023.2.3,Win32,60.97560975622741,,,,,,1041.632300000001,129.0,1.0,1041.632300000001,129.0,,,,1045.7973000000006,1046.2919000000022,1045.2813000000008,1045.7973000000006,1042.6316000000015,1045.2812000000029,1046.2919000000022,1046.7796000000014,1046.7796000000014,1049.2966000000015,2149.0,1049.2966000000015,5.0,1049.2968000000008,1.0,12.0,42.0,19.0,1.0,1.6,0.7,Time
,,S56,1,男,23,anonymized,Serial_Dependence_U,2023.2.3,Win32,60.97560975622741,,,,,,1049.297,97.0,1.0,1049.297,97.0,,,,1052.895200000003,1053.3898000000006,1052.378700000003,1052.8951000000015,1050.3128000000006,1052.3786000000014,1053.3898000000006,1053.8941000000011,1053.8941000000011,1055.9611000000014,1729.0,1055.9611000000014,5.0,1055.961200000003,1.0,13.0,43.0,11.0,1.0,1.0,0.3,Time
,,S56,1,男,23,anonymized,Serial_Dependence_U,2023.2.3,Win32,60.97560975622741,,,,,,1055.9614000000022,54.0,1.0,1055.9614000000022,54.0,,,,1059.5265,1060.021,1059.0245,1059.5265,1056.9605,1059.0245,1060.021,1060.521,1060.521,1061.9759000000022,1176.0,1061.976,4.0,1061.9761000000017,1.0,14.0,44.0,21.0,1.0,1.0,0.3,Time
,,S56,1,男,23,anonymized,Serial_Dependence_U,2023.2.3,Win32,60.97560975622741,,,,,,1061.976200000003,190.0,1.0,1061.9763000000007,190.0,,,,1065.936,1066.4356000000014,1065.4248000000007,1065.936,1062.9755,1065.424700000003,1066.4356000000014,1066.9234000000022,1066.9234000000022,1069.307,2066.0,1069.307,5.0,1069.3071000000014,1.0,15.0,45.0,8.0,1.0,1.4,0.7,Time
,,S56,1,男,23,anonymized,Serial_Dependence_U,2023.2.3,Win32,60.97560975622741,,,,,,1069.3073000000006,228.0,1.0,1069.3073000000006,228.0,,,,1073.0724000000023,1073.5713000000007,1072.5535,1073.0723000000007,1070.3231000000014,1072.5535,1073.5713000000007,1074.066900000002,1074.066900000002,1075.8882000000028,1402.0,1075.8883000000008,4.0,1075.888400000002,1.0,16.0,46.0,27.0,1.0,1.2,0.7,Time
,,S56,1,男,23,anonymized,Serial_Dependence_U,2023.2.3,Win32,60.97560975622741,,,,,,1075.8885,44.0,1.0,1075.8886000000014,44.0,,,,1079.470200000003,1079.9652000000028,1078.951700000003,1079.470200000003,1076.8878000000009,1078.9516000000017,1079.9652000000028,1080.4646000000014,1080.4646000000014,1082.6695,1633.0,1082.6696000000015,5.0,1082.6696000000015,1.0,17.0,47.0,1.0,1.0,1.0,0.3,Time
,,S56,1,男,23,anonymized,Serial_Dependence_U,2023.2.3,Win32,60.97560975622741,,,,,,1082.669900000002,328.0,1.0,1082.669900000002,328.0,,,,1086.2349000000022,1086.7296000000017,1085.7184000000022,1086.2349000000022,1083.669,1085.718300000001,1086.7296000000017,1087.2291000000014,1087.229200000003,1089.4006000000015,1863.0,1089.4006000000015,5.0,1089.4008000000008,1.0,18.0,48.0,16.0,1.0,1.0,0.7,Time
,,S56,1,男,23,anonymized,Serial_Dependence_U,2023.2.3,Win32,60.97560975622741,,,,,,1089.4009999999998,230.0,1.0,1089.4009999999998,230.0,,,,1093.1828000000007,1093.6818000000007,1092.6662000000028,1093.1828000000007,1090.4001000000014,1092.6661000000015,1093.681900000002,1094.177,1094.177,1096.5983000000008,2083.0,1096.5983000000008,5.0,1096.5985,1.0,19.0,49.0,22.0,1.0,1.2,0.3,Time
,,S56,1,男,23,anonymized,Serial_Dependence_U,2023.2.3,Win32,60.97560975622741,,,,,,1096.598700000003,27.0,1.0,1096.598700000003,27.0,,,,1099.958900000002,1100.4584000000025,1099.4474000000023,1099.9588000000008,1097.6146000000017,1099.4474000000023,1100.4584000000025,1100.9583000000007,1100.9583000000007,1103.1797000000029,1749.0,1103.1797000000029,5.0,1103.1798000000008,1.0,20.0,50.0,25.0,1.0,0.8,0.7,Time
,,S56,1,男,23,anonymized,Serial_Dependence_U,2023.2.3,Win32,60.97560975622741,,,,,,1103.1799999999998,117.0,1.0,1103.1799999999998,117.0,,,,1107.145,1107.6404000000025,1106.628700000003,1107.1449000000025,1104.1965,1106.6286000000014,1107.6404000000025,1108.1399000000022,1108.14,1110.9107000000029,2357.0,1110.9107000000029,5.0,1110.910900000002,1.0,21.0,51.0,28.0,1.0,1.4,0.7,Time
,,S56,1,男,23,anonymized,Serial_Dependence_U,2023.2.3,Win32,60.97560975622741,,,,,,1110.9111000000014,358.0,1.0,1110.9111000000014,358.0,,,,1114.4543000000008,1114.9542000000029,1113.943200000003,1114.4542000000029,1111.910200000003,1113.943200000003,1114.9542000000029,1115.453800000001,1115.453800000001,1117.791400000002,1882.0,1117.791400000002,5.0,1117.7916000000014,1.0,22.0,52.0,6.0,1.0,1.0,0.7,Time
,,S56,1,男,23,anonymized,Serial_Dependence_U,2023.2.3,Win32,60.97560975622741,,,,,,1117.7918000000006,34.0,1.0,1117.7918000000006,34.0,,,,1121.9404000000022,1122.4349000000022,1121.424,1121.940300000001,1118.791400000002,1121.424,1122.4349000000022,1122.9394000000025,1122.9394000000025,1125.8728000000008,2516.0,1125.8728000000008,5.0,1125.872900000002,1.0,23.0,53.0,29.0,1.0,1.6,0.7,Time
,,S56,1,男,23,anonymized,Serial_Dependence_U,2023.2.3,Win32,60.97560975622741,,,,,,1125.8731000000014,185.0,1.0,1125.873200000003,185.0,,,,1129.238200000003,1129.7329000000022,1128.7331000000015,1129.238200000003,1126.8721000000014,1128.7331000000015,1129.733,1130.2206000000017,1130.2206000000017,1132.2153000000008,1655.0,1132.2153000000008,5.0,1132.2155,1.0,24.0,54.0,20.0,1.0,0.8,0.3,Time
,,S56,1,男,23,anonymized,Serial_Dependence_U,2023.2.3,Win32,60.97560975622741,,,,,,1132.215700000003,269.0,1.0,1132.2158000000006,269.0,,,,1136.397400000002,1136.897,1135.8862000000029,1136.397400000002,1133.2203000000006,1135.8861000000015,1136.897,1137.3969000000022,1137.3969000000022,1140.2015,2376.0,1140.2016000000017,5.0,1140.201700000003,1.0,25.0,55.0,14.0,1.0,1.6,0.3,Time
,,S56,1,男,23,anonymized,Serial_Dependence_U,2023.2.3,Win32,60.97560975622741,,,,,,1140.201900000002,123.0,1.0,1140.201900000002,123.0,,,,1143.5784999999998,1144.0663000000006,1143.0675,1143.5784999999998,1141.2011000000014,1143.0675,1144.0663000000006,1144.5613000000008,1144.5613000000008,1146.9163000000008,1579.0,1146.916400000002,5.0,1146.916400000002,1.0,26.0,56.0,0.0,1.0,0.8,0.3,Time
,,S56,1,男,23,anonymized,Serial_Dependence_U,2023.2.3,Win32,60.97560975622741,,,,,,1146.9166000000014,5.0,1.0,1146.916700000003,5.0,,,,1151.098800000001,1151.5928000000006,1150.581700000003,1151.098700000003,1147.9324000000022,1150.581700000003,1151.5928000000006,1152.0924000000025,1152.0924000000025,1154.8804000000025,2316.0,1154.8804000000025,5.0,1154.8805,1.0,27.0,57.0,9.0,1.0,1.6,0.7,Time
,,S56,1,男,23,anonymized,Serial_Dependence_U,2023.2.3,Win32,60.97560975622741,,,,,,1154.880600000001,139.0,1.0,1154.880700000003,139.0,,,,1158.4124000000022,1158.9069000000022,1157.9121000000014,1158.4124000000022,1155.8799000000022,1157.9121000000014,1158.9069000000022,1159.4115,1159.4115,1161.3783000000008,1591.0,1161.3783000000008,5.0,1161.3785,1.0,28.0,58.0,26.0,1.0,1.0,0.7,Time
,,S56,1,男,23,anonymized,Serial_Dependence_U,2023.2.3,Win32,60.97560975622741,,,,,,1161.3786000000014,66.0,1.0,1161.3786000000014,66.0,,,,1165.1603000000007,1165.6548000000007,1164.6441000000011,1165.160200000003,1162.377800000001,1164.644,1165.6549000000025,1166.1588000000006,1166.1588000000006,1168.342900000002,1757.0,1168.342900000002,5.0,1168.3431000000014,1.0,29.0,59.0,12.0,1.0,1.2,0.3,Time
,,S56,1,男,23,anonymized,Serial_Dependence_U,2023.2.3,Win32,60.97560975622741,,,,,,1168.343200000003,344.0,2.0,1192.8798000000006,344.0,s,24.516199999999344,,1197.045200000003,1197.5495,1196.5343000000007,1197.045200000003,1193.9014000000022,1196.5343000000007,1197.5496000000014,1198.0451000000014,1198.0451000000014,1200.1997000000028,1693.0,1200.1997000000028,4.0,1200.199900000002,2.0,0.0,60.0,19.0,1.0,1.6,0.7,Time
,,S56,1,男,23,anonymized,Serial_Dependence_U,2023.2.3,Win32,60.97560975622741,,,,,,1200.2,312.0,2.0,1200.2006000000015,312.0,,,,1204.3429999999998,1204.8427000000029,1203.831700000003,1204.342900000002,1201.199300000001,1203.831700000003,1204.8427000000029,1205.330700000003,1205.330700000003,1208.225,2138.0,1208.2251000000017,5.0,1208.2252000000028,2.0,1.0,61.0,29.0,1.0,1.6,0.7,Time
,,S56,1,男,23,anonymized,Serial_Dependence_U,2023.2.3,Win32,60.97560975622741,,,,,,1208.2253000000007,190.0,2.0,1208.2255,190.0,,,,1211.8293000000008,1212.3239999999998,1211.3129000000022,1211.8293000000008,1209.2467000000029,1211.3128000000006,1212.3239999999998,1212.823900000002,1212.823900000002,1214.8119000000022,1593.0,1214.8119000000022,5.0,1214.812,2.0,2.0,62.0,21.0,1.0,1.0,0.3,Time
,,S56,1,男,23,anonymized,Serial_Dependence_U,2023.2.3,Win32,60.97560975622741,,,,,,1214.812200000003,312.0,2.0,1214.8123000000007,312.0,,,,1218.1887000000029,1218.6883000000007,1217.677400000002,1218.1887000000029,1215.8282000000029,1217.677400000002,1218.6883000000007,1219.1883000000007,1219.1883000000007,1221.4263000000008,1766.0,1221.426400000002,5.0,1221.4265,2.0,3.0,63.0,15.0,1.0,0.8,0.7,Time
,,S56,1,男,23,anonymized,Serial_Dependence_U,2023.2.3,Win32,60.97560975622741,,,,,,1221.426700000003,291.0,2.0,1221.4268000000006,291.0,,,,1224.9752000000028,1225.4743000000008,1224.4585,1224.9752000000028,1222.4259000000022,1224.4585,1225.4743000000008,1225.9694000000022,1225.9695,1228.3743000000006,1949.0,1228.3744000000022,5.0,1228.3745,2.0,4.0,64.0,16.0,1.0,1.0,0.7,Time
,,S56,1,男,23,anonymized,Serial_Dependence_U,2023.2.3,Win32,60.97560975622741,,,,,,1228.3746000000017,77.0,2.0,1228.3748000000007,77.0,,,,1232.167700000003,1232.672,1231.656400000002,1232.167700000003,1229.385200000003,1231.6563000000008,1232.6721000000014,1233.1671000000017,1233.1671000000017,1235.771800000001,2066.0,1235.7719000000022,5.0,1235.7719000000022,2.0,5.0,65.0,2.0,1.0,1.2,0.3,Time
,,S56,1,男,23,anonymized,Serial_Dependence_U,2023.2.3,Win32,60.97560975622741,,,,,,1235.7721000000015,178.0,2.0,1235.7722000000028,178.0,,,,1239.9486000000015,1240.4483000000007,1239.437400000002,1239.9485,1236.771400000002,1239.4373000000007,1240.4483000000007,1240.948200000003,1240.948200000003,1244.052700000003,2632.0,1244.052700000003,5.0,1244.0528000000006,2.0,6.0,66.0,14.0,1.0,1.6,0.3,Time
,,S56,1,男,23,anonymized,Serial_Dependence_U,2023.2.3,Win32,60.97560975622741,,,,,,1244.0529000000022,138.0,2.0,1244.053,138.0,,,,1247.651300000001,1248.1459000000025,1247.1298000000006,1247.651300000001,1245.0689000000025,1247.129700000003,1248.1459000000025,1248.6504000000025,1248.6504000000025,1251.6003000000007,2083.0,1251.6003000000007,5.0,1251.600400000002,2.0,7.0,67.0,11.0,1.0,1.0,0.3,Time
,,S56,1,男,23,anonymized,Serial_Dependence_U,2023.2.3,Win32,60.97560975622741,,,,,,1251.6006000000014,359.0,2.0,1251.6006000000014,359.0,,,,1254.982400000002,1255.477,1254.466,1254.982400000002,1252.5998000000006,1254.466,1255.477,1255.9795,1255.9795,1258.4649000000022,2049.0,1258.4649000000022,5.0,1258.465,2.0,8.0,68.0,0.0,1.0,0.8,0.3,Time
,,S56,1,男,23,anonymized,Serial_Dependence_U,2023.2.3,Win32,60.97560975622741,,,,,,1258.4652000000028,277.0,2.0,1258.4652000000028,277.0,,,,1262.0251000000014,1262.5248000000006,1261.5139000000022,1262.025,1259.481200000003,1261.5139000000022,1262.5248000000006,1263.0132000000028,1263.0132000000028,1265.1795,1750.0,1265.1795,5.0,1265.1797000000029,2.0,9.0,69.0,6.0,1.0,1.0,0.7,Time
,,S56,1,男,23,anonymized,Serial_Dependence_U,2023.2.3,Win32,60.97560975622741,,,,,,1265.1798000000008,296.0,2.0,1265.179900000002,296.0,,,,1268.9618000000007,1269.4559000000022,1268.4611000000014,1268.961700000003,1266.1958000000006,1268.461,1269.4559000000022,1269.956200000003,1269.956200000003,1272.5105,2049.0,1272.5105,5.0,1272.5106000000014,2.0,10.0,70.0,22.0,1.0,1.2,0.3,Time
,,S56,1,男,23,anonymized,Serial_Dependence_U,2023.2.3,Win32,60.97560975622741,,,,,,1272.5108000000007,160.0,2.0,1272.5108000000007,160.0,,,,1276.1093000000008,1276.6038000000008,1275.5906000000014,1276.1092000000028,1273.5267000000028,1275.5905,1276.6038000000008,1277.1041000000014,1277.1041000000014,1279.958200000003,2199.0,1279.9583000000007,5.0,1279.9583000000007,2.0,11.0,71.0,1.0,1.0,1.0,0.3,Time
,,S56,1,男,23,anonymized,Serial_Dependence_U,2023.2.3,Win32,60.97560975622741,,,,,,1279.9585,91.0,2.0,1279.9585,91.0,,,,1283.938,1284.4346000000014,1283.4352000000029,1283.938,1280.974400000002,1283.4352000000029,1284.4346000000014,1284.9344999999998,1284.9344999999998,1288.089,2482.0,1288.089,5.0,1288.0892000000028,2.0,12.0,72.0,3.0,1.0,1.4,0.3,Time
,,S56,1,男,23,anonymized,Serial_Dependence_U,2023.2.3,Win32,60.97560975622741,,,,,,1288.089400000002,212.0,2.0,1288.089400000002,212.0,,,,1291.8543000000006,1292.3492000000028,1291.349400000002,1291.8543000000006,1289.0886000000014,1291.3493000000008,1292.3492000000028,1292.8368000000007,1292.8368000000007,1295.32,2011.0,1295.32,5.0,1295.3201000000015,2.0,13.0,73.0,12.0,1.0,1.2,0.3,Time
,,S56,1,男,23,anonymized,Serial_Dependence_U,2023.2.3,Win32,60.97560975622741,,,,,,1295.3203000000008,243.0,2.0,1295.320400000002,243.0,,,,1298.685700000003,1299.180200000003,1298.169,1298.6856000000014,1296.3363000000006,1298.169,1299.180200000003,1299.684700000003,1299.684700000003,1302.0848000000008,1933.0,1302.0848000000008,5.0,1302.084900000002,2.0,14.0,74.0,25.0,1.0,0.8,0.7,Time
,,S56,1,男,23,anonymized,Serial_Dependence_U,2023.2.3,Win32,60.97560975622741,,,,,,1302.0851000000014,5.0,2.0,1302.0851000000014,5.0,,,,1306.264600000001,1306.7613000000008,1305.750100000001,1306.2645,1303.084300000001,1305.75,1306.7613000000008,1307.2609000000025,1307.2609000000025,1310.4149000000025,2699.0,1310.4149000000025,5.0,1310.4151000000015,2.0,15.0,75.0,4.0,1.0,1.6,0.3,Time
,,S56,1,男,23,anonymized,Serial_Dependence_U,2023.2.3,Win32,60.97560975622741,,,,,,1310.4152000000029,240.0,2.0,1310.415400000002,240.0,,,,1314.1756000000014,1314.6753000000008,1313.6643000000006,1314.1756000000014,1311.4316000000017,1313.6643000000006,1314.675400000002,1315.175400000002,1315.1755,1317.63,1933.0,1317.63,5.0,1317.6301000000014,2.0,16.0,76.0,17.0,1.0,1.2,0.7,Time
,,S56,1,男,23,anonymized,Serial_Dependence_U,2023.2.3,Win32,60.97560975622741,,,,,,1317.630200000003,311.0,2.0,1317.6303000000007,311.0,,,,1321.5734000000025,1322.0729000000022,1321.062,1321.5733000000007,1318.629400000002,1321.062,1322.073,1322.5728000000006,1322.5729000000022,1325.927400000002,2863.0,1325.927400000002,5.0,1325.9276000000011,2.0,17.0,77.0,8.0,1.0,1.4,0.7,Time
,,S56,1,男,23,anonymized,Serial_Dependence_U,2023.2.3,Win32,60.97560975622741,,,,,,1325.927700000003,340.0,2.0,1325.9278000000006,340.0,,,,1329.3094999999998,1329.8085,1328.7929000000022,1329.3094999999998,1326.9269000000022,1328.7929000000022,1329.8085,1330.3038000000006,1330.3038000000006,1332.741700000003,2062.0,1332.7418000000007,5.0,1332.7419000000025,2.0,18.0,78.0,20.0,1.0,0.8,0.3,Time
,,S56,1,男,23,anonymized,Serial_Dependence_U,2023.2.3,Win32,60.97560975622741,,,,,,1332.7421000000015,297.0,2.0,1332.7422000000029,297.0,,,,1336.6907000000028,1337.185,1336.174,1336.6905,1333.7414000000022,1336.174,1337.185,1337.6849000000022,1337.685,1340.7561000000014,2499.0,1340.7561000000014,5.0,1340.7563000000007,2.0,19.0,79.0,18.0,1.0,1.4,0.7,Time
,,S56,1,男,23,anonymized,Serial_Dependence_U,2023.2.3,Win32,60.97560975622741,,,,,,1340.7564000000025,149.0,2.0,1340.7565,149.0,,,,1344.754700000003,1345.249200000003,1344.2377000000029,1344.754700000003,1341.7722000000028,1344.2376000000015,1345.249200000003,1345.7495,1345.7495,1348.687,2483.0,1348.687,5.0,1348.687200000003,2.0,20.0,80.0,23.0,1.0,1.4,0.3,Time
,,S56,1,男,23,anonymized,Serial_Dependence_U,2023.2.3,Win32,60.97560975622741,,,,,,1348.6873000000007,202.0,2.0,1348.687400000002,202.0,,,,1352.8526000000015,1353.3466000000014,1352.3356000000017,1352.8526000000015,1349.686400000002,1352.3356000000017,1353.3466000000014,1353.846700000003,1353.846700000003,1357.7339000000022,3216.0,1357.734,5.0,1357.7341000000015,2.0,21.0,81.0,9.0,1.0,1.6,0.7,Time
,,S56,1,男,23,anonymized,Serial_Dependence_U,2023.2.3,Win32,60.97560975622741,,,,,,1357.7342000000028,21.0,2.0,1357.7343000000008,21.0,,,,1361.4943000000007,1361.9941000000017,1360.983,1361.4942000000028,1358.745200000003,1360.9829000000022,1361.9942000000028,1362.4984000000022,1362.4985,1365.7816000000014,2699.0,1365.7816000000014,5.0,1365.7818000000009,2.0,22.0,82.0,27.0,1.0,1.2,0.7,Time
,,S56,1,男,23,anonymized,Serial_Dependence_U,2023.2.3,Win32,60.97560975622741,,,,,,1365.7819000000022,220.0,2.0,1365.782,220.0,,,,1369.5303000000006,1370.0248000000006,1369.013700000003,1369.5302000000029,1366.781,1369.0136000000014,1370.0248000000006,1370.5251000000014,1370.5251000000014,1373.379400000002,2349.0,1373.379400000002,5.0,1373.3796000000011,2.0,23.0,83.0,7.0,1.0,1.2,0.7,Time
,,S56,1,男,23,anonymized,Serial_Dependence_U,2023.2.3,Win32,60.97560975622741,,,,,,1373.379700000003,335.0,2.0,1373.379700000003,335.0,,,,1376.756200000003,1377.2558000000006,1376.2448000000006,1376.7561000000014,1374.3788000000006,1376.244700000003,1377.2558000000006,1377.755600000001,1377.755600000001,1380.093900000002,1833.0,1380.093900000002,5.0,1380.0941000000014,2.0,24.0,84.0,10.0,1.0,0.8,0.3,Time
,,S56,1,男,23,anonymized,Serial_Dependence_U,2023.2.3,Win32,60.97560975622741,,,,,,1380.0943000000009,282.0,2.0,1380.0943000000009,282.0,,,,1384.0758000000008,1384.5702000000028,1383.559400000002,1384.0757000000028,1381.0935,1383.559400000002,1384.5703000000008,1385.058200000003,1385.058200000003,1388.4746000000014,2939.0,1388.474700000003,5.0,1388.4748000000006,2.0,25.0,85.0,13.0,1.0,1.4,0.3,Time
,,S56,1,男,23,anonymized,Serial_Dependence_U,2023.2.3,Win32,60.97560975622741,,,,,,1388.4749000000022,28.0,2.0,1388.475,28.0,,,,1392.023400000002,1392.5177000000028,1391.5068000000008,1392.023400000002,1389.4743000000008,1391.5067000000029,1392.5177000000028,1393.0223000000008,1393.0223000000008,1395.7223000000006,2099.0,1395.7224000000022,5.0,1395.7225,2.0,26.0,86.0,26.0,1.0,1.0,0.7,Time
,,S56,1,男,23,anonymized,Serial_Dependence_U,2023.2.3,Win32,60.97560975622741,,,,,,1395.722700000003,284.0,2.0,1395.722700000003,284.0,,,,1399.687600000001,1400.1881000000014,1399.1711000000014,1399.687600000001,1396.7385,1399.1711000000014,1400.1881000000014,1400.682,1400.6821000000014,1403.7198000000008,2566.0,1403.7198000000008,5.0,1403.72,2.0,27.0,87.0,28.0,1.0,1.4,0.7,Time
,,S56,1,男,23,anonymized,Serial_Dependence_U,2023.2.3,Win32,60.97560975622741,,,,,,1403.7201000000014,336.0,2.0,1403.720200000003,336.0,,,,1407.9016000000015,1408.3962000000029,1407.396700000003,1407.9015,1404.736,1407.396700000003,1408.3962000000029,1408.8963000000008,1408.8963000000008,1412.1838000000007,2829.0,1412.1838000000007,5.0,1412.1841000000015,2.0,28.0,88.0,24.0,1.0,1.6,0.3,Time
,,S56,1,男,23,anonymized,Serial_Dependence_U,2023.2.3,Win32,60.97560975622741,,,,,,1412.1843000000008,326.0,2.0,1412.1843000000008,326.0,,,,1415.544,1416.0319000000022,1415.032700000003,1415.544,1413.1979000000022,1415.032700000003,1416.0319000000022,1416.531700000003,1416.531700000003,1419.098700000003,2100.0,1419.098700000003,5.0,1419.0989000000022,2.0,29.0,89.0,5.0,1.0,0.8,0.7,Time
,,S56,1,男,23,anonymized,Serial_Dependence_U,2023.2.3,Win32,60.97560975622741,,,,,,1419.0991000000015,322.0,3.0,1687.1098000000006,322.0,s,267.9883999999986,,1691.075400000002,1691.5751000000014,1690.5641000000014,1691.0753000000009,1688.1315,1690.5641000000014,1691.5751000000014,1692.0753000000009,1692.0753000000009,1695.412700000003,2633.0,1695.4128000000003,5.0,1695.412900000002,3.0,0.0,90.0,18.0,1.0,1.4,0.7,Time
,,S56,1,男,23,anonymized,Serial_Dependence_U,2023.2.3,Win32,60.97560975622741,,,,,,1695.413,287.0,3.0,1695.4136000000012,287.0,,,,1699.361400000002,1699.856100000001,1698.8448000000008,1699.361400000002,1696.412200000003,1698.8448000000008,1699.856100000001,1700.3584999999998,1700.3584999999998,1703.0769999999998,2230.0,1703.0769999999998,5.0,1703.077100000001,3.0,1.0,91.0,28.0,1.0,1.4,0.7,Time
,,S56,1,男,23,anonymized,Serial_Dependence_U,2023.2.3,Win32,60.97560975622741,,,,,,1703.0773000000008,56.0,3.0,1703.0775,56.0,,,,1706.6425,1707.1371000000013,1706.1258000000007,1706.642400000002,1704.093200000003,1706.1258000000007,1707.1371000000013,1707.6414000000022,1707.6414999999995,1709.724900000002,1666.0,1709.724900000002,5.0,1709.725,3.0,2.0,92.0,26.0,1.0,1.0,0.7,Time
,,S56,1,男,23,anonymized,Serial_Dependence_U,2023.2.3,Win32,60.97560975622741,,,,,,1709.725200000003,237.0,3.0,1709.725200000003,237.0,,,,1713.719,1714.2181000000014,1713.207200000003,1713.718900000002,1710.7413000000006,1713.207200000003,1714.2181000000014,1714.7179999999998,1714.7179999999998,1717.372700000003,2146.0,1717.372700000003,5.0,1717.372900000002,3.0,3.0,93.0,23.0,1.0,1.4,0.3,Time
,,S56,1,男,23,anonymized,Serial_Dependence_U,2023.2.3,Win32,60.97560975622741,,,,,,1717.3731000000016,4.0,3.0,1717.3732000000027,4.0,,,,1721.571200000003,1722.0655000000002,1721.0547000000029,1721.571200000003,1718.3888000000006,1721.0547000000029,1722.0655000000002,1722.5654000000022,1722.5655000000002,1725.3203000000008,2329.0,1725.3203000000008,5.0,1725.3204999999998,3.0,4.0,94.0,24.0,1.0,1.6,0.3,Time
,,S56,1,男,23,anonymized,Serial_Dependence_U,2023.2.3,Win32,60.97560975622741,,,,,,1725.3206000000014,292.0,3.0,1725.3206000000014,292.0,,,,1728.6858000000009,1729.1799999999998,1728.1689000000024,1728.6857000000027,1726.3197000000027,1728.1689000000024,1729.1799999999998,1729.668,1729.668,1732.2458000000006,2237.0,1732.2459000000022,5.0,1732.246,3.0,5.0,95.0,25.0,1.0,0.8,0.7,Time
,,S56,1,男,23,anonymized,Serial_Dependence_U,2023.2.3,Win32,60.97560975622741,,,,,,1732.2463000000007,14.0,3.0,1732.2463000000007,14.0,,,,1736.031,1736.5324999999998,1735.5169999999998,1736.031,1733.2507000000028,1735.5169000000024,1736.5326000000014,1737.0283000000009,1737.028400000002,1739.2158000000009,1849.0,1739.2158000000009,5.0,1739.215900000002,3.0,6.0,96.0,2.0,1.0,1.2,0.3,Time
,,S56,1,男,23,anonymized,Serial_Dependence_U,2023.2.3,Win32,60.97560975622741,,,,,,1739.2161000000017,83.0,3.0,1739.2161000000017,83.0,,,,1743.2145,1743.7089000000024,1742.6979000000024,1743.2145,1740.232,1742.6979000000024,1743.7089000000024,1744.2087000000029,1744.2087000000029,1746.8469000000025,2175.0,1746.8469000000025,5.0,1746.847100000001,3.0,7.0,97.0,13.0,1.0,1.4,0.3,Time
,,S56,1,男,23,anonymized,Serial_Dependence_U,2023.2.3,Win32,60.97560975622741,,,,,,1746.8473000000008,225.0,3.0,1746.8474000000024,225.0,,,,1750.2289999999998,1750.723400000002,1749.7241000000013,1750.2289999999998,1747.8629999999998,1749.7241000000013,1750.723400000002,1751.2113000000008,1751.2113000000008,1753.9447000000027,2192.0,1753.9447000000027,5.0,1753.944800000001,3.0,8.0,98.0,0.0,1.0,0.8,0.3,Time
,,S56,1,男,23,anonymized,Serial_Dependence_U,2023.2.3,Win32,60.97560975622741,,,,,,1753.9449000000022,214.0,3.0,1753.9451000000013,214.0,,,,1758.1213000000007,1758.6212000000028,1757.6099000000022,1758.1213000000007,1754.944200000003,1757.6099000000022,1758.6212000000028,1759.125,1759.125,1762.4418000000005,2882.0,1762.441900000002,5.0,1762.442,3.0,9.0,99.0,14.0,1.0,1.6,0.3,Time
,,S56,1,男,23,anonymized,Serial_Dependence_U,2023.2.3,Win32,60.97560975622741,,,,,,1762.4422000000031,196.0,3.0,1762.4422000000031,196.0,,,,1766.0074000000022,1766.501700000003,1765.4908000000005,1766.007300000001,1763.4415,1765.4908000000005,1766.501700000003,1767.001900000002,1767.001900000002,1769.6565,2183.0,1769.6565,5.0,1769.6566000000016,3.0,10.0,100.0,6.0,1.0,1.0,0.7,Time
,,S56,1,男,23,anonymized,Serial_Dependence_U,2023.2.3,Win32,60.97560975622741,,,,,,1769.6567000000027,172.0,3.0,1769.6568000000009,172.0,,,,1773.4218000000003,1773.9162000000028,1772.916700000003,1773.4218000000003,1770.655800000001,1772.916700000003,1773.9162000000028,1774.4188000000008,1774.4188000000008,1777.1541000000016,2312.0,1777.1541000000016,5.0,1777.1542000000031,3.0,11.0,101.0,22.0,1.0,1.2,0.3,Time
,,S56,1,男,23,anonymized,Serial_Dependence_U,2023.2.3,Win32,60.97560975622741,,,,,,1777.1544000000022,269.0,3.0,1777.1545,269.0,,,,1781.3309000000022,1781.8185,1780.8195,1781.3308000000006,1778.1535,1780.8195,1781.8185,1782.316200000003,1782.3163000000009,1785.867900000002,2859.0,1785.867900000002,5.0,1785.8681000000015,3.0,12.0,102.0,4.0,1.0,1.6,0.3,Time
,,S56,1,男,23,anonymized,Serial_Dependence_U,2023.2.3,Win32,60.97560975622741,,,,,,1785.868200000003,332.0,3.0,1785.8683000000003,332.0,,,,1790.011400000002,1790.5111000000015,1789.499900000002,1790.0113000000006,1786.8673000000008,1789.499900000002,1790.5111000000015,1791.0113000000006,1791.0113000000006,1794.6155,2733.0,1794.6155,5.0,1794.6156000000017,3.0,13.0,103.0,9.0,1.0,1.6,0.7,Time
,,S56,1,男,23,anonymized,Serial_Dependence_U,2023.2.3,Win32,60.97560975622741,,,,,,1794.615900000002,252.0,3.0,1794.616,252.0,,,,1798.2141000000015,1798.7088000000008,1797.6974000000023,1798.2141000000015,1795.631400000002,1797.6974000000023,1798.7089000000024,1799.2082000000028,1799.2082000000028,1801.7298000000003,2083.0,1801.7298000000003,5.0,1801.729900000002,3.0,14.0,104.0,21.0,1.0,1.0,0.3,Time
,,S56,1,男,23,anonymized,Serial_Dependence_U,2023.2.3,Win32,60.97560975622741,,,,,,1801.73,266.0,3.0,1801.7301000000016,266.0,,,,1805.7065,1806.2064000000023,1805.1952000000028,1805.7064000000023,1802.7269000000024,1805.1952000000028,1806.2065,1806.7107000000028,1806.7108000000007,1810.0106000000012,2716.0,1810.0106000000012,5.0,1810.010700000003,3.0,15.0,105.0,3.0,1.0,1.4,0.3,Time
,,S56,1,男,23,anonymized,Serial_Dependence_U,2023.2.3,Win32,60.97560975622741,,,,,,1810.011,4.0,3.0,1810.011,4.0,,,,1813.7759000000024,1814.2731000000013,1813.2708000000007,1813.7758000000008,1811.01,1813.2708000000007,1814.2731000000013,1814.7705,1814.7705,1817.4416000000012,2283.0,1817.4416000000012,5.0,1817.4418000000005,3.0,16.0,106.0,12.0,1.0,1.2,0.3,Time
,,S56,1,男,23,anonymized,Serial_Dependence_U,2023.2.3,Win32,60.97560975622741,,,,,,1817.441900000002,325.0,3.0,1817.442,325.0,,,,1821.59,1822.084400000002,1821.0736000000013,1821.59,1818.441,1821.0735,1822.084400000002,1822.573400000002,1822.573400000002,1825.222700000003,2349.0,1825.222700000003,5.0,1825.222900000002,3.0,17.0,107.0,19.0,1.0,1.6,0.7,Time
,,S56,1,男,23,anonymized,Serial_Dependence_U,2023.2.3,Win32,60.97560975622741,,,,,,1825.223200000003,118.0,3.0,1825.223200000003,118.0,,,,1828.6046000000013,1829.099,1828.0881000000013,1828.6046000000013,1826.222100000001,1828.088,1829.099,1829.5992000000028,1829.5993000000008,1832.2149000000024,2296.0,1832.2149000000024,5.0,1832.2151000000013,3.0,18.0,108.0,10.0,1.0,0.8,0.3,Time
,,S56,1,男,23,anonymized,Serial_Dependence_U,2023.2.3,Win32,60.97560975622741,,,,,,1832.2153000000008,30.0,3.0,1832.2153000000008,30.0,,,,1835.7805,1836.2801000000013,1835.269200000003,1835.7804000000024,1833.236600000001,1835.2691000000011,1836.2801000000013,1836.7799000000025,1836.78,1839.434700000003,2299.0,1839.434700000003,5.0,1839.434700000003,3.0,19.0,109.0,16.0,1.0,1.0,0.7,Time
,,S56,1,男,23,anonymized,Serial_Dependence_U,2023.2.3,Win32,60.97560975622741,,,,,,1839.434900000002,310.0,3.0,1839.435,310.0,,,,1843.3782000000028,1843.877800000001,1842.8668000000007,1843.3781000000013,1840.4342000000029,1842.8668000000007,1843.877800000001,1844.3656000000012,1844.365700000003,1847.0324000000023,2266.0,1847.0324000000023,5.0,1847.0325,3.0,20.0,110.0,8.0,1.0,1.4,0.7,Time
,,S56,1,男,23,anonymized,Serial_Dependence_U,2023.2.3,Win32,60.97560975622741,,,,,,1847.032700000003,89.0,3.0,1847.032700000003,89.0,,,,1850.7759000000024,1851.2757000000029,1850.264600000001,1850.7758000000008,1848.0317000000027,1850.264600000001,1851.2758000000008,1851.7754000000025,1851.7754000000025,1854.313600000001,2166.0,1854.3137000000029,5.0,1854.3138000000008,3.0,21.0,111.0,27.0,1.0,1.2,0.7,Time
,,S56,1,男,23,anonymized,Serial_Dependence_U,2023.2.3,Win32,60.97560975622741,,,,,,1854.3139000000024,209.0,3.0,1854.3139000000024,209.0,,,,1857.6791000000017,1858.173700000003,1857.1738000000005,1857.6791000000017,1855.313,1857.173700000003,1858.173700000003,1858.673200000003,1858.673200000003,1861.6444000000024,2499.0,1861.6445,5.0,1861.6446000000012,3.0,22.0,112.0,20.0,1.0,0.8,0.3,Time
,,S56,1,男,23,anonymized,Serial_Dependence_U,2023.2.3,Win32,60.97560975622741,,,,,,1861.6448000000005,111.0,3.0,1861.6448000000005,111.0,,,,1865.3932000000027,1865.892300000001,1864.8766000000012,1865.3932000000027,1862.6436000000008,1864.8765,1865.892400000002,1866.3876000000012,1866.3876000000012,1869.059,2299.0,1869.059,5.0,1869.0592000000029,3.0,23.0,113.0,17.0,1.0,1.2,0.7,Time
,,S56,1,男,23,anonymized,Serial_Dependence_U,2023.2.3,Win32,60.97560975622741,,,,,,1869.0594000000024,342.0,3.0,1869.0594000000024,342.0,,,,1872.4191000000012,1872.9215,1871.9078000000009,1872.4191000000012,1870.0751000000012,1871.9078000000009,1872.9216000000013,1873.4233000000008,1873.4233000000008,1876.173200000003,2299.0,1876.1733000000008,5.0,1876.1733000000008,3.0,24.0,114.0,15.0,1.0,0.8,0.7,Time
,,S56,1,男,23,anonymized,Serial_Dependence_U,2023.2.3,Win32,60.97560975622741,,,,,,1876.1735,169.0,3.0,1876.1735,169.0,,,,1879.9363000000008,1880.4378000000008,1879.4221000000016,1879.9363000000008,1877.1895,1879.4221000000016,1880.4378000000008,1880.933,1880.933,1883.7713000000008,2366.0,1883.7714000000024,5.0,1883.7715,3.0,25.0,115.0,7.0,1.0,1.2,0.7,Time
,,S56,1,男,23,anonymized,Serial_Dependence_U,2023.2.3,Win32,60.97560975622741,,,,,,1883.771700000003,220.0,3.0,1883.771900000002,220.0,,,,1887.930900000002,1888.4306000000013,1887.4196000000013,1887.930900000002,1884.7871000000011,1887.4196000000013,1888.430700000003,1888.9184000000023,1888.9184000000023,1892.435,2976.0,1892.4351000000013,5.0,1892.435200000003,3.0,26.0,116.0,29.0,1.0,1.6,0.7,Time
,,S56,1,男,23,anonymized,Serial_Dependence_U,2023.2.3,Win32,60.97560975622741,,,,,,1892.435400000002,263.0,3.0,1892.4355,263.0,,,,1896.028400000002,1896.528200000003,1895.517300000001,1896.0283000000009,1893.4511000000016,1895.517300000001,1896.528200000003,1897.0285,1897.0286000000012,1899.899400000002,2446.0,1899.899400000002,5.0,1899.8995,3.0,27.0,117.0,1.0,1.0,1.0,0.3,Time
,,S56,1,男,23,anonymized,Serial_Dependence_U,2023.2.3,Win32,60.97560975622741,,,,,,1899.8997000000031,174.0,3.0,1899.8997000000031,174.0,,,,1903.492800000001,1903.9805,1902.9809000000023,1903.492700000003,1900.9155,1902.9809000000023,1903.9805,1904.4756000000016,1904.4757000000031,1907.2971000000016,2216.0,1907.2971000000016,5.0,1907.2971000000016,3.0,28.0,118.0,11.0,1.0,1.0,0.3,Time
,,S56,1,男,23,anonymized,Serial_Dependence_U,2023.2.3,Win32,60.97560975622741,,,,,,1907.2973000000009,152.0,3.0,1907.2974000000024,152.0,,,,1910.6405,1911.1403000000005,1910.1293000000005,1910.640400000002,1908.2966000000013,1910.1293000000005,1911.1403000000005,1911.640400000002,1911.640400000002,1914.545,2566.0,1914.545,5.0,1914.5452000000028,3.0,29.0,119.0,5.0,1.0,0.8,0.7,Time
,,S56,1,男,23,anonymized,Serial_Dependence_U,2023.2.3,Win32,60.97560975622741,,,,,,1914.545300000001,273.0,4.0,2132.655,273.0,s,218.0815999999977,,2136.254100000001,2136.753800000001,2135.7375,2136.254100000001,2133.671900000002,2135.7374000000023,2136.753800000001,2137.253800000001,2137.253800000001,2140.191600000001,2511.0,2140.191700000003,5.0,2140.1918000000005,4.0,0.0,120.0,1.0,1.0,1.0,0.3,Time
,,S56,1,男,23,anonymized,Serial_Dependence_U,2023.2.3,Win32,60.97560975622741,,,,,,2140.192,206.0,4.0,2140.192600000001,206.0,,,,2143.985200000003,2144.4847000000027,2143.468700000003,2143.985200000003,2141.2028000000005,2143.468700000003,2144.4848000000006,2144.9845,2144.9845,2147.7559000000024,2362.0,2147.7559000000024,5.0,2147.756,4.0,1.0,121.0,22.0,1.0,1.2,0.3,Time
,,S56,1,男,23,anonymized,Serial_Dependence_U,2023.2.3,Win32,60.97560975622741,,,,,,2147.7561000000014,49.0,4.0,2147.7561000000014,49.0,,,,2151.1161000000016,2151.615900000002,2150.6025,2151.1161000000016,2148.766800000001,2150.602400000002,2151.615900000002,2152.115600000001,2152.115600000001,2154.837200000003,2332.0,2154.837200000003,5.0,2154.837400000002,4.0,2.0,122.0,15.0,1.0,0.8,0.7,Time
,,S56,1,男,23,anonymized,Serial_Dependence_U,2023.2.3,Win32,60.97560975622741,,,,,,2154.8375,356.0,4.0,2154.8376000000017,356.0,,,,2158.630700000003,2159.130200000003,2158.1143000000006,2158.630700000003,2155.848100000001,2158.1143000000006,2159.1303000000007,2159.629900000002,2159.629900000002,2162.6458000000007,2566.0,2162.6458000000007,5.0,2162.646,4.0,3.0,123.0,2.0,1.0,1.2,0.3,Time
,,S56,1,男,23,anonymized,Serial_Dependence_U,2023.2.3,Win32,60.97560975622741,,,,,,2162.646200000003,233.0,4.0,2162.646200000003,233.0,,,,2166.245100000001,2166.7443000000007,2165.7335,2166.245,2163.662600000001,2165.7334000000023,2166.7444000000023,2167.2445,2167.2445,2169.6938000000005,2264.0,2169.693900000002,5.0,2169.694300000001,4.0,4.0,124.0,11.0,1.0,1.0,0.3,Time
,,S56,1,男,23,anonymized,Serial_Dependence_U,2023.2.3,Win32,60.97560975622741,,,,,,2169.694400000002,248.0,4.0,2169.6945,248.0,,,,2173.4926000000014,2173.9921000000013,2172.976,2173.4925,2170.71,2172.976,2173.9921000000013,2174.4919000000023,2174.492,2177.4111000000016,2577.0,2177.4111000000016,5.0,2177.4112000000027,4.0,5.0,125.0,12.0,1.0,1.2,0.3,Time
,,S56,1,男,23,anonymized,Serial_Dependence_U,2023.2.3,Win32,60.97560975622741,,,,,,2177.4114000000022,171.0,4.0,2177.4115,171.0,,,,2180.9736000000016,2181.473100000001,2180.457,2180.9736000000016,2178.4243000000006,2180.4569000000024,2181.473100000001,2181.9735,2181.9735,2184.5278000000008,2205.0,2184.5278000000008,5.0,2184.5279000000023,4.0,6.0,126.0,26.0,1.0,1.0,0.7,Time
,,S56,1,男,23,anonymized,Serial_Dependence_U,2023.2.3,Win32,60.97560975622741,,,,,,2184.5281000000014,98.0,4.0,2184.5281000000014,98.0,,,,2188.687900000002,2189.187400000002,2188.171300000001,2188.6878000000006,2185.539,2188.171300000001,2189.1875,2189.687200000003,2189.6873000000005,2193.2529000000022,2958.0,2193.2529000000022,5.0,2193.2531000000013,4.0,7.0,127.0,9.0,1.0,1.6,0.7,Time
,,S56,1,男,23,anonymized,Serial_Dependence_U,2023.2.3,Win32,60.97560975622741,,,,,,2193.253200000003,141.0,4.0,2193.2534000000023,141.0,,,,2196.635600000001,2197.135200000003,2196.1239000000023,2196.6355,2194.253,2196.1239000000023,2197.135200000003,2197.635,2197.6351000000013,2201.250600000001,2996.0,2201.250600000001,5.0,2201.2508000000007,4.0,8.0,128.0,0.0,1.0,0.8,0.3,Time
,,S56,1,男,23,anonymized,Serial_Dependence_U,2023.2.3,Win32,60.97560975622741,,,,,,2201.251,245.0,4.0,2201.2511000000013,245.0,,,,2205.216,2205.7156000000014,2204.6994000000022,2205.215800000001,2202.2669000000024,2204.6993000000007,2205.715700000003,2206.215700000003,2206.215700000003,2209.6145,2920.0,2209.6145,5.0,2209.614600000001,4.0,9.0,129.0,8.0,1.0,1.4,0.7,Time
,,S56,1,男,23,anonymized,Serial_Dependence_U,2023.2.3,Win32,60.97560975622741,,,,,,2209.6149000000023,3.0,4.0,2209.6149000000023,3.0,,,,2213.8133000000007,2214.312900000002,2213.2968000000005,2213.813200000003,2210.6309000000024,2213.2968000000005,2214.312900000002,2214.8128000000006,2214.812900000002,2218.483900000002,3113.0,2218.483900000002,5.0,2218.484100000001,4.0,10.0,130.0,24.0,1.0,1.6,0.3,Time
,,S56,1,男,23,anonymized,Serial_Dependence_U,2023.2.3,Win32,60.97560975622741,,,,,,2218.4843000000005,97.0,4.0,2218.484400000002,97.0,,,,2221.844400000002,2222.3441000000016,2221.3278000000005,2221.844400000002,2219.495200000003,2221.327600000001,2222.3441000000016,2222.843600000001,2222.843600000001,2225.7595,2399.0,2225.7595,5.0,2225.759700000003,4.0,11.0,131.0,5.0,1.0,0.8,0.7,Time
,,S56,1,男,23,anonymized,Serial_Dependence_U,2023.2.3,Win32,60.97560975622741,,,,,,2225.76,41.0,4.0,2225.76,41.0,,,,2229.925,2230.4251000000013,2229.408700000003,2229.925,2226.7759000000024,2229.4086000000016,2230.4251000000013,2230.9248000000007,2230.9249000000023,2234.1619000000023,2871.0,2234.1619000000023,5.0,2234.1621000000014,4.0,12.0,132.0,29.0,1.0,1.6,0.7,Time
,,S56,1,男,23,anonymized,Serial_Dependence_U,2023.2.3,Win32,60.97560975622741,,,,,,2234.162200000003,96.0,4.0,2234.162300000001,96.0,,,,2237.506,2238.0061000000014,2236.9895,2237.5059000000024,2235.156900000002,2236.989400000002,2238.0061000000014,2238.506,2238.506,2241.671200000003,2455.0,2241.671200000003,5.0,2241.671400000002,4.0,13.0,133.0,25.0,1.0,0.8,0.7,Time
,,S56,1,男,23,anonymized,Serial_Dependence_U,2023.2.3,Win32,60.97560975622741,,,,,,2241.6715,215.0,4.0,2241.671700000003,215.0,,,,2245.436800000001,2245.9365,2244.920700000003,2245.436800000001,2242.687900000002,2244.920700000003,2245.9365,2246.4365,2246.4366000000014,2249.718900000002,2840.0,2249.718900000002,5.0,2249.7192000000027,4.0,14.0,134.0,7.0,1.0,1.2,0.7,Time
,,S56,1,男,23,anonymized,Serial_Dependence_U,2023.2.3,Win32,60.97560975622741,,,,,,2249.7193000000007,326.0,4.0,2249.719400000002,326.0,,,,2253.317700000003,2253.817600000001,2252.8015,2253.317700000003,2250.735100000001,2252.801400000002,2253.817600000001,2254.317200000003,2254.317200000003,2257.0165,2133.0,2257.0166000000013,5.0,2257.016700000003,4.0,15.0,135.0,21.0,1.0,1.0,0.3,Time
,,S56,1,男,23,anonymized,Serial_Dependence_U,2023.2.3,Win32,60.97560975622741,,,,,,2257.0169000000024,119.0,4.0,2257.017,119.0,,,,2260.7823000000008,2261.2817000000027,2260.2658000000006,2260.7823000000008,2258.033,2260.2658000000006,2261.2817000000027,2261.7816000000016,2261.7816000000016,2265.069400000002,2705.0,2265.069400000002,5.0,2265.0695,4.0,16.0,136.0,27.0,1.0,1.2,0.7,Time
,,S56,1,男,23,anonymized,Serial_Dependence_U,2023.2.3,Win32,60.97560975622741,,,,,,2265.0697000000027,276.0,4.0,2265.0698000000007,276.0,,,,2268.629900000002,2269.1295,2268.1131000000014,2268.629900000002,2266.0806000000016,2268.1131000000014,2269.1295,2269.6293000000005,2269.6293000000005,2272.3451000000014,2312.0,2272.3451000000014,5.0,2272.345200000003,4.0,17.0,137.0,6.0,1.0,1.0,0.7,Time
,,S56,1,男,23,anonymized,Serial_Dependence_U,2023.2.3,Win32,60.97560975622741,,,,,,2272.3455,293.0,4.0,2272.345600000001,293.0,,,,2276.4945,2276.9938000000006,2275.994,2276.4945,2273.361400000002,2275.994,2276.9938000000006,2277.4933000000005,2277.493400000002,2280.8091000000013,2839.0,2280.8091000000013,5.0,2280.8094000000024,4.0,18.0,138.0,19.0,1.0,1.6,0.7,Time
,,S56,1,男,23,anonymized,Serial_Dependence_U,2023.2.3,Win32,60.97560975622741,,,,,,2280.8095,179.0,4.0,2280.8095,179.0,,,,2284.758,2285.2579000000023,2284.2415,2284.7579000000023,2281.8094000000024,2284.241400000002,2285.258,2285.757700000003,2285.757700000003,2289.290100000001,2705.0,2289.290200000003,5.0,2289.290300000001,4.0,19.0,139.0,28.0,1.0,1.4,0.7,Time
,,S56,1,男,23,anonymized,Serial_Dependence_U,2023.2.3,Win32,60.97560975622741,,,,,,2289.2906000000016,238.0,4.0,2289.2906000000016,238.0,,,,2293.255200000003,2293.755,2292.744,2293.255200000003,2290.306400000002,2292.744,2293.755,2294.2548000000006,2294.254900000002,2297.573700000003,2769.0,2297.5738000000006,5.0,2297.573900000002,4.0,20.0,140.0,18.0,1.0,1.4,0.7,Time
,,S56,1,男,23,anonymized,Serial_Dependence_U,2023.2.3,Win32,60.97560975622741,,,,,,2297.5741000000016,165.0,4.0,2297.5741000000016,165.0,,,,2301.5695,2302.0695,2301.0535,2301.569400000002,2298.586900000002,2301.053400000002,2302.0695,2302.569,2302.569,2306.1014000000023,2603.0,2306.1014000000023,5.0,2306.1016000000013,4.0,21.0,141.0,3.0,1.0,1.4,0.3,Time
,,S56,1,男,23,anonymized,Serial_Dependence_U,2023.2.3,Win32,60.97560975622741,,,,,,2306.1019000000024,317.0,4.0,2306.1019000000024,317.0,,,,2309.5003000000006,2310.0,2308.989,2309.500200000003,2307.1176000000014,2308.988900000002,2310.0,2310.5,2310.500200000003,2315.848200000003,2088.0,2315.848200000003,5.0,2315.848400000002,4.0,22.0,142.0,20.0,1.0,0.8,0.3,Time
,,S56,1,男,23,anonymized,Serial_Dependence_U,2023.2.3,Win32,60.97560975622741,,,,,,2315.8486000000016,290.0,4.0,2315.8487000000027,290.0,,,,2320.047,2320.5471000000016,2319.5306000000014,2320.046900000002,2316.8651000000013,2319.5306000000014,2320.5471000000016,2321.0465,2321.0465,2324.8013000000005,2675.0,2324.8013000000005,5.0,2324.801400000002,4.0,23.0,143.0,14.0,1.0,1.6,0.3,Time
,,S56,1,男,23,anonymized,Serial_Dependence_U,2023.2.3,Win32,60.97560975622741,,,,,,2324.8016000000016,19.0,4.0,2324.8017000000027,19.0,,,,2328.794400000002,2329.294200000003,2328.283,2328.794400000002,2325.812200000003,2328.283,2329.294200000003,2329.793800000001,2329.793800000001,2339.979900000002,2867.0,2339.98,5.0,2339.9801000000016,4.0,24.0,144.0,13.0,1.0,1.4,0.3,Time
,,S56,1,男,23,anonymized,Serial_Dependence_U,2023.2.3,Win32,60.97560975622741,,,,,,2339.9803000000006,55.0,4.0,2339.9803000000006,55.0,,,,2343.973300000001,2344.4725,2343.4564000000023,2343.973200000003,2340.990900000002,2343.4563000000007,2344.4725,2344.9726000000014,2344.9726000000014,2348.426400000002,2964.0,2348.4265,5.0,2348.4266000000016,4.0,25.0,145.0,23.0,1.0,1.4,0.3,Time
,,S56,1,男,23,anonymized,Serial_Dependence_U,2023.2.3,Win32,60.97560975622741,,,,,,2348.4267000000027,12.0,4.0,2348.4268000000006,12.0,,,,2351.971200000003,2352.4705,2351.470600000001,2351.9711000000016,2349.4378000000006,2351.470600000001,2352.470600000001,2352.9699000000023,2352.9699000000023,2355.8916000000013,2467.0,2355.8916000000013,5.0,2355.891700000003,4.0,26.0,146.0,16.0,1.0,1.0,0.7,Time
,,S56,1,男,23,anonymized,Serial_Dependence_U,2023.2.3,Win32,60.97560975622741,,,,,,2355.8919000000024,44.0,4.0,2355.8921000000014,44.0,,,,2359.6518000000005,2360.151400000002,2359.1396000000013,2359.6518000000005,2356.9025,2359.1395,2360.151400000002,2360.651200000003,2360.651200000003,2363.450400000002,2311.0,2363.450400000002,5.0,2363.450600000001,4.0,27.0,147.0,17.0,1.0,1.2,0.7,Time
,,S56,1,男,23,anonymized,Serial_Dependence_U,2023.2.3,Win32,60.97560975622741,,,,,,2363.450900000002,130.0,4.0,2363.451,130.0,,,,2366.8493000000008,2367.3488000000007,2366.332600000001,2366.8491000000013,2364.4668000000006,2366.332600000001,2367.3488000000007,2367.8486000000016,2367.8487000000027,2371.047700000003,2408.0,2371.047700000003,5.0,2371.0478000000007,4.0,28.0,148.0,10.0,1.0,0.8,0.3,Time
,,S56,1,男,23,anonymized,Serial_Dependence_U,2023.2.3,Win32,60.97560975622741,,,,,,2371.048,55.0,4.0,2371.048,55.0,,,,2375.247200000003,2375.746200000003,2374.734900000002,2375.2471000000014,2372.064300000001,2374.7348000000006,2375.746200000003,2376.2461000000017,2376.2461000000017,2379.8285,3032.0,2379.8285,5.0,2379.8287000000028,4.0,29.0,149.0,4.0,1.0,1.6,0.3,Time
,,S56,1,男,23,anonymized,Serial_Dependence_U,2023.2.3,Win32,60.97560975622741,,,,,,2379.8289000000022,166.0,5.0,2436.611,166.0,s,56.74989999999843,,2440.010600000001,2440.509600000001,2439.4943000000007,2440.0105,2437.627400000002,2439.494200000003,2440.509600000001,2441.0093000000006,2441.0093000000006,2443.7086000000013,2168.0,2443.7086000000013,5.0,2443.708800000001,5.0,0.0,150.0,0.0,1.0,0.8,0.3,Time
,,S56,1,男,23,anonymized,Serial_Dependence_U,2023.2.3,Win32,60.97560975622741,,,,,,2443.709,192.0,5.0,2443.7098000000005,192.0,,,,2447.2743000000005,2447.774,2446.7579000000023,2447.2743000000005,2444.724900000002,2446.7579000000023,2447.774,2448.273700000003,2448.273700000003,2453.722200000003,2568.0,2453.722200000003,5.0,2453.7224000000024,5.0,1.0,151.0,16.0,1.0,1.0,0.7,Time
,,S56,1,男,23,anonymized,Serial_Dependence_U,2023.2.3,Win32,60.97560975622741,,,,,,2453.7226000000014,328.0,5.0,2453.722700000003,328.0,,,,2457.0879000000023,2457.5877000000028,2456.5765,2457.0878000000007,2454.738900000002,2456.5765,2457.5877000000028,2458.0873000000006,2458.087400000002,2460.903300000001,2312.0,2460.903400000002,5.0,2460.903600000001,5.0,2.0,152.0,5.0,1.0,0.8,0.7,Time
,,S56,1,男,23,anonymized,Serial_Dependence_U,2023.2.3,Win32,60.97560975622741,,,,,,2460.903700000003,7.0,5.0,2460.9038000000005,7.0,,,,2464.702300000001,2465.2018000000007,2464.1857000000027,2464.702200000003,2461.919700000003,2464.1857000000027,2465.2018000000007,2465.701700000003,2465.701700000003,2469.0391000000013,2846.0,2469.0391000000013,5.0,2469.039200000003,5.0,3.0,153.0,12.0,1.0,1.2,0.3,Time
,,S56,1,男,23,anonymized,Serial_Dependence_U,2023.2.3,Win32,60.97560975622741,,,,,,2469.0395,346.0,5.0,2469.0395,346.0,,,,2472.8,2473.2993000000006,2472.2833000000005,2472.7999000000023,2470.0505,2472.2833000000005,2473.2993000000006,2473.799100000001,2473.799100000001,2476.748400000002,2097.0,2476.748400000002,5.0,2476.7486000000013,5.0,4.0,154.0,7.0,1.0,1.2,0.7,Time
,,S56,1,男,23,anonymized,Serial_Dependence_U,2023.2.3,Win32,60.97560975622741,,,,,,2476.7488000000008,145.0,5.0,2476.7489000000023,145.0,,,,2480.147400000002,2480.647,2479.631,2480.147400000002,2477.764700000003,2479.6309000000024,2480.647,2481.1473000000005,2481.147400000002,2491.2773000000007,2340.0,2491.277400000002,5.0,2491.2775,5.0,5.0,155.0,10.0,1.0,0.8,0.3,Time
,,S56,1,男,23,anonymized,Serial_Dependence_U,2023.2.3,Win32,60.97560975622741,,,,,,2491.2779000000023,195.0,5.0,2491.2779000000023,195.0,,,,2494.6265,2495.1259000000023,2494.1098000000006,2494.6265,2492.2773000000007,2494.1097000000027,2495.1259000000023,2495.625700000003,2495.625700000003,2498.3474000000024,2134.0,2498.3475,5.0,2498.347700000003,5.0,6.0,156.0,25.0,1.0,0.8,0.7,Time
,,S56,1,男,23,anonymized,Serial_Dependence_U,2023.2.3,Win32,60.97560975622741,,,,,,2498.347800000001,309.0,5.0,2498.347900000002,309.0,,,,2501.9408000000008,2502.4403000000007,2501.424400000002,2501.940700000003,2499.358200000003,2501.424400000002,2502.4403000000007,2502.9405,2502.9405,2505.777700000003,2360.0,2505.777700000003,5.0,2505.7778000000008,5.0,7.0,157.0,21.0,1.0,1.0,0.3,Time
,,S56,1,男,23,anonymized,Serial_Dependence_U,2023.2.3,Win32,60.97560975622741,,,,,,2505.7779000000023,134.0,5.0,2505.7779000000023,134.0,,,,2509.355200000003,2509.854700000003,2508.843700000003,2509.355200000003,2506.7727000000027,2508.843600000001,2509.854700000003,2510.354600000001,2510.354600000001,2512.992700000003,2215.0,2512.992700000003,5.0,2512.992800000001,5.0,8.0,158.0,1.0,1.0,1.0,0.3,Time
,,S56,1,男,23,anonymized,Serial_Dependence_U,2023.2.3,Win32,60.97560975622741,,,,,,2512.993,29.0,5.0,2512.993100000001,29.0,,,,2516.3365,2516.836,2515.82,2516.3365,2513.9873000000007,2515.8199000000022,2516.836,2517.335700000003,2517.3358000000007,2519.990700000003,2229.0,2519.9908000000005,5.0,2519.990900000002,5.0,9.0,159.0,15.0,1.0,0.8,0.7,Time
,,S56,1,男,23,anonymized,Serial_Dependence_U,2023.2.3,Win32,60.97560975622741,,,,,,2519.991,331.0,5.0,2519.9911000000016,331.0,,,,2524.1505,2524.6501000000017,2523.634,2524.1504000000023,2521.0014000000024,2523.634,2524.6501000000017,2525.1501000000017,2525.1502000000028,2528.732200000003,2917.0,2528.732200000003,5.0,2528.732400000002,5.0,10.0,160.0,9.0,1.0,1.6,0.7,Time
,,S56,1,男,23,anonymized,Serial_Dependence_U,2023.2.3,Win32,60.97560975622741,,,,,,2528.7325,92.0,5.0,2528.7326000000016,92.0,,,,2532.8977000000027,2533.3973000000005,2532.3868000000007,2532.8977000000027,2529.7486000000013,2532.3868000000007,2533.3973000000005,2533.8973000000005,2533.8973000000005,2537.551900000002,3189.0,2537.551900000002,5.0,2537.552100000001,5.0,11.0,161.0,29.0,1.0,1.6,0.7,Time
,,S56,1,男,23,anonymized,Serial_Dependence_U,2023.2.3,Win32,60.97560975622741,,,,,,2537.552200000003,92.0,5.0,2537.5523000000007,92.0,,,,2541.5501000000013,2542.044700000003,2541.028600000001,2541.5501000000013,2538.562700000003,2541.0285,2542.0448000000006,2542.545,2542.545,2546.0268000000005,3094.0,2546.0268000000005,5.0,2546.027,5.0,12.0,162.0,23.0,1.0,1.4,0.3,Time
,,S56,1,男,23,anonymized,Serial_Dependence_U,2023.2.3,Win32,60.97560975622741,,,,,,2546.0272000000027,193.0,5.0,2546.0273000000007,193.0,,,,2549.9925,2550.492300000001,2549.4789000000023,2549.9924000000024,2547.0436000000013,2549.4789000000023,2550.492300000001,2550.992,2550.9921000000013,2554.6077000000028,2936.0,2554.6078000000007,5.0,2554.608,5.0,13.0,163.0,8.0,1.0,1.4,0.7,Time
,,S56,1,男,23,anonymized,Serial_Dependence_U,2023.2.3,Win32,60.97560975622741,,,,,,2554.608200000003,292.0,5.0,2554.608300000001,292.0,,,,2558.5733000000005,2559.072800000001,2558.0569000000023,2558.5733000000005,2555.6239000000023,2558.0569000000023,2559.072800000001,2559.573100000001,2559.573100000001,2563.088300000001,3050.0,2563.0884000000024,5.0,2563.0885,5.0,14.0,164.0,28.0,1.0,1.4,0.7,Time
,,S56,1,男,23,anonymized,Serial_Dependence_U,2023.2.3,Win32,60.97560975622741,,,,,,2563.088800000001,318.0,5.0,2563.088800000001,318.0,,,,2566.853800000001,2567.3534000000022,2566.337400000002,2566.853700000003,2564.104900000002,2566.3373000000006,2567.3534000000022,2567.853700000003,2567.853700000003,2570.6751000000013,2431.0,2570.6751000000013,5.0,2570.675300000001,5.0,15.0,165.0,27.0,1.0,1.2,0.7,Time
,,S56,1,男,23,anonymized,Serial_Dependence_U,2023.2.3,Win32,60.97560975622741,,,,,,2570.6754000000024,136.0,5.0,2570.6755,136.0,,,,2574.235,2574.734900000002,2573.7235,2574.235,2571.685900000002,2573.723400000002,2574.734900000002,2575.2347000000027,2575.2347000000027,2578.0836000000013,2376.0,2578.083700000003,5.0,2578.083800000001,5.0,16.0,166.0,26.0,1.0,1.0,0.7,Time
,,S56,1,男,23,anonymized,Serial_Dependence_U,2023.2.3,Win32,60.97560975622741,,,,,,2578.084,312.0,5.0,2578.084,312.0,,,,2581.8826000000013,2582.3824000000022,2581.3661000000016,2581.8825,2579.100100000001,2581.366,2582.3824000000022,2582.882,2582.882,2585.848300000001,2513.0,2585.8485,5.0,2585.8486000000016,5.0,17.0,167.0,22.0,1.0,1.2,0.3,Time
,,S56,1,男,23,anonymized,Serial_Dependence_U,2023.2.3,Win32,60.97560975622741,,,,,,2585.8488000000007,10.0,5.0,2585.8489000000022,10.0,,,,2590.013400000002,2590.513,2589.4969000000024,2590.0133000000005,2586.864700000003,2589.496800000001,2590.513,2591.012800000001,2591.012800000001,2594.3175,2929.0,2594.3175,5.0,2594.317600000001,5.0,18.0,168.0,19.0,1.0,1.6,0.7,Time
,,S56,1,男,23,anonymized,Serial_Dependence_U,2023.2.3,Win32,60.97560975622741,,,,,,2594.3178000000007,177.0,5.0,2594.3179000000023,177.0,,,,2598.511,2599.0104000000024,2597.9943000000007,2598.511,2595.3283000000006,2597.994200000003,2599.0104000000024,2599.510600000001,2599.510600000001,2603.06,2972.0,2603.060100000001,5.0,2603.060300000001,5.0,19.0,169.0,24.0,1.0,1.6,0.3,Time
,,S56,1,男,23,anonymized,Serial_Dependence_U,2023.2.3,Win32,60.97560975622741,,,,,,2603.060400000002,349.0,5.0,2603.0605,349.0,,,,2606.608800000001,2607.108200000003,2606.1084000000023,2606.608800000001,2604.075600000001,2606.1084000000023,2607.108200000003,2607.6076000000016,2607.6076000000016,2610.357,2365.0,2610.357,5.0,2610.357200000003,5.0,20.0,170.0,6.0,1.0,1.0,0.7,Time
,,S56,1,男,23,anonymized,Serial_Dependence_U,2023.2.3,Win32,60.97560975622741,,,,,,2610.357400000002,57.0,5.0,2610.3575,57.0,,,,2614.3559000000023,2614.8553000000006,2613.839400000002,2614.3558000000007,2611.373400000002,2613.8393000000005,2614.855400000002,2615.355700000003,2615.355700000003,2618.2078000000006,2416.0,2618.2078000000006,5.0,2618.207900000002,5.0,21.0,171.0,13.0,1.0,1.4,0.3,Time
,,S56,1,男,23,anonymized,Serial_Dependence_U,2023.2.3,Win32,60.97560975622741,,,,,,2618.2081000000017,324.0,5.0,2618.2081000000017,324.0,,,,2621.970200000003,2622.4698000000008,2621.458700000003,2621.970200000003,2619.2208000000005,2621.458700000003,2622.4698000000008,2622.9696000000013,2622.9696000000013,2625.702300000001,2240.0,2625.702300000001,5.0,2625.702600000001,5.0,22.0,172.0,17.0,1.0,1.2,0.7,Time
,,S56,1,男,23,anonymized,Serial_Dependence_U,2023.2.3,Win32,60.97560975622741,,,,,,2625.7028000000005,339.0,5.0,2625.702900000002,339.0,,,,2629.6875,2630.1841000000013,2629.184800000001,2629.6875,2626.718600000001,2629.184800000001,2630.1841000000013,2630.6839000000023,2630.6839000000023,2634.3385,3278.0,2634.3385,5.0,2634.3386000000014,5.0,23.0,173.0,3.0,1.0,1.4,0.3,Time
,,S56,1,男,23,anonymized,Serial_Dependence_U,2023.2.3,Win32,60.97560975622741,,,,,,2634.338800000001,96.0,5.0,2634.338900000002,96.0,,,,2638.531900000002,2639.0315,2638.0182000000027,2638.5318000000007,2635.3493000000008,2638.0181000000016,2639.0315,2639.531200000003,2639.531200000003,2643.363400000002,3322.0,2643.3635,5.0,2643.363700000003,5.0,24.0,174.0,14.0,1.0,1.6,0.3,Time
,,S56,1,男,23,anonymized,Serial_Dependence_U,2023.2.3,Win32,60.97560975622741,,,,,,2643.363900000002,253.0,5.0,2643.364,253.0,,,,2647.329300000001,2647.8286000000016,2646.8126000000016,2647.329200000003,2644.3798000000006,2646.8125,2647.8286000000016,2648.328400000002,2648.328400000002,2651.3475,2542.0,2651.3475,5.0,2651.347700000003,5.0,25.0,175.0,18.0,1.0,1.4,0.7,Time
,,S56,1,男,23,anonymized,Serial_Dependence_U,2023.2.3,Win32,60.97560975622741,,,,,,2651.347700000003,91.0,5.0,2651.347800000001,91.0,,,,2655.1432000000027,2655.643,2654.626700000003,2655.1432000000027,2652.3606000000013,2654.626700000003,2655.643,2656.143,2656.143,2658.9808000000007,2375.0,2658.9808000000007,5.0,2658.9809000000023,5.0,26.0,176.0,2.0,1.0,1.2,0.3,Time
,,S56,1,男,23,anonymized,Serial_Dependence_U,2023.2.3,Win32,60.97560975622741,,,,,,2658.9811000000013,315.0,5.0,2658.981200000003,315.0,,,,2663.1743000000006,2663.673700000003,2662.6575,2663.1743000000006,2659.9918000000007,2662.6575,2663.673700000003,2664.173900000002,2664.173900000002,2667.0394000000024,2440.0,2667.0395,5.0,2667.039600000001,5.0,27.0,177.0,4.0,1.0,1.6,0.3,Time
,,S56,1,男,23,anonymized,Serial_Dependence_U,2023.2.3,Win32,60.97560975622741,,,,,,2667.0398000000005,242.0,5.0,2667.04,242.0,,,,2670.6285,2671.1213000000007,2670.1104000000023,2670.6284000000023,2668.0394000000024,2670.1104000000023,2671.1213000000007,2671.6214000000023,2671.6214000000023,2674.603700000003,2588.0,2674.603800000001,5.0,2674.604,5.0,28.0,178.0,11.0,1.0,1.0,0.3,Time
,,S56,1,男,23,anonymized,Serial_Dependence_U,2023.2.3,Win32,60.97560975622741,,,,,,2674.604300000001,350.0,5.0,2674.604400000002,350.0,,,,2678.0027000000027,2678.502300000001,2677.486600000001,2678.0027000000027,2675.620400000002,2677.4865,2678.502300000001,2679.002300000001,2679.002300000001,2681.840200000003,2459.0,2681.8403000000008,5.0,2681.8404000000023,5.0,29.0,179.0,20.0,1.0,0.8,0.3,Time
,,S56,1,男,23,anonymized,Serial_Dependence_U,2023.2.3,Win32,60.97560975622741,,,,,,2681.8406000000014,335.0,6.0,3008.0673000000006,335.0,s,326.2054000000021,,3012.265900000002,3012.765400000002,3011.7545,3012.265900000002,3009.0836000000013,3011.7545,3012.7655,3013.2658000000006,3013.2658000000006,3016.998,3082.0,3016.9981000000016,5.0,3016.9982000000027,6.0,0.0,180.0,4.0,1.0,1.6,0.3,Time
,,S56,1,男,23,anonymized,Serial_Dependence_U,2023.2.3,Win32,60.97560975622741,,,,,,3016.998400000002,329.0,6.0,3016.999200000003,329.0,,,,3020.963200000003,3021.4631000000013,3020.446700000003,3020.9631000000013,3018.014200000003,3020.4466000000016,3021.4631000000013,3021.9629000000023,3021.963,3024.961900000002,2423.0,3024.961900000002,5.0,3024.9621000000016,6.0,1.0,181.0,28.0,1.0,1.4,0.7,Time
,,S56,1,男,23,anonymized,Serial_Dependence_U,2023.2.3,Win32,60.97560975622741,,,,,,3024.9623000000006,156.0,6.0,3024.9625,156.0,,,,3029.127300000001,3029.627,3028.611,3029.127200000003,3025.9784000000022,3028.6109000000024,3029.627,3030.127100000001,3030.127100000001,3033.9623000000006,3092.0,3033.9623000000006,5.0,3033.962400000002,6.0,2.0,182.0,9.0,1.0,1.6,0.7,Time
,,S56,1,男,23,anonymized,Serial_Dependence_U,2023.2.3,Win32,60.97560975622741,,,,,,3033.9626000000017,280.0,6.0,3033.9627000000028,280.0,,,,3037.958,3038.4575,3037.442,3037.957900000002,3034.975900000002,3037.442,3038.4575,3038.9575,3038.9575,3042.2453000000005,2823.0,3042.2453000000005,5.0,3042.245400000002,6.0,3.0,183.0,3.0,1.0,1.4,0.3,Time
,,S56,1,男,23,anonymized,Serial_Dependence_U,2023.2.3,Win32,60.97560975622741,,,,,,3042.2455,292.0,6.0,3042.2456000000016,292.0,,,,3046.4386000000013,3046.9385,3045.9221000000016,3046.4386000000013,3043.2565,3045.9221000000016,3046.9385,3047.4384000000023,3047.4384000000023,3051.209200000003,3131.0,3051.209300000001,5.0,3051.209400000002,6.0,4.0,184.0,24.0,1.0,1.6,0.3,Time
,,S56,1,男,23,anonymized,Serial_Dependence_U,2023.2.3,Win32,60.97560975622741,,,,,,3051.209600000001,85.0,6.0,3051.209600000001,85.0,,,,3054.9525,3055.452200000003,3054.4365,3054.9525,3052.2038000000007,3054.4364000000023,3055.452200000003,3055.9525,3055.9525,3059.0346000000013,2520.0,3059.034700000003,5.0,3059.0349000000024,6.0,5.0,185.0,17.0,1.0,1.2,0.7,Time
,,S56,1,男,23,anonymized,Serial_Dependence_U,2023.2.3,Win32,60.97560975622741,,,,,,3059.0351000000014,133.0,6.0,3059.035200000003,133.0,,,,3062.600700000003,3063.099900000002,3062.089,3062.6006000000016,3060.051,3062.089,3063.099900000002,3063.599700000003,3063.599700000003,3066.832200000003,2693.0,3066.832200000003,5.0,3066.832400000002,6.0,6.0,186.0,26.0,1.0,1.0,0.7,Time
,,S56,1,男,23,anonymized,Serial_Dependence_U,2023.2.3,Win32,60.97560975622741,,,,,,3066.8325,218.0,6.0,3066.832600000001,218.0,,,,3070.9809000000023,3071.480700000003,3070.4645,3070.9808000000007,3067.8323000000005,3070.4645,3071.480700000003,3071.980700000003,3071.980700000003,3075.2466000000013,2866.0,3075.2466000000013,5.0,3075.246800000001,6.0,7.0,187.0,19.0,1.0,1.6,0.7,Time
,,S56,1,男,23,anonymized,Serial_Dependence_U,2023.2.3,Win32,60.97560975622741,,,,,,3075.247,198.0,6.0,3075.2471000000014,198.0,,,,3078.6456000000017,3079.145400000002,3078.128800000001,3078.6455,3076.262700000003,3078.128700000003,3079.145400000002,3079.6448000000005,3079.6448000000005,3082.033200000003,2058.0,3082.0333000000005,5.0,3082.033400000002,6.0,8.0,188.0,0.0,1.0,0.8,0.3,Time
,,S56,1,男,23,anonymized,Serial_Dependence_U,2023.2.3,Win32,60.97560975622741,,,,,,3082.0336000000016,358.0,6.0,3082.0336000000016,358.0,,,,3085.3933000000006,3085.892900000002,3084.877,3085.3932000000027,3083.044100000001,3084.876900000002,3085.892900000002,3086.3931000000016,3086.3931000000016,3089.162,2386.0,3089.162,5.0,3089.1621000000014,6.0,9.0,189.0,15.0,1.0,0.8,0.7,Time
,,S56,1,男,23,anonymized,Serial_Dependence_U,2023.2.3,Win32,60.97560975622741,,,,,,3089.162400000002,121.0,6.0,3089.162400000002,121.0,,,,3092.9575,3093.457600000001,3092.441400000002,3092.9575,3090.1751000000013,3092.441300000001,3093.457700000003,3093.9569000000024,3093.957,3101.643400000002,2276.0,3101.643400000002,5.0,3101.643600000001,6.0,10.0,190.0,22.0,1.0,1.2,0.3,Time
,,S56,1,男,23,anonymized,Serial_Dependence_U,2023.2.3,Win32,60.97560975622741,,,,,,3101.6438000000007,49.0,6.0,3101.6439000000023,49.0,,,,3105.8376000000017,3106.336400000002,3105.325,3105.8375,3102.654700000003,3105.325,3106.3365,3106.836700000003,3106.836700000003,3110.2908000000007,2906.0,3110.2908000000007,5.0,3110.2909000000022,6.0,11.0,191.0,14.0,1.0,1.6,0.3,Time
,,S56,1,男,23,anonymized,Serial_Dependence_U,2023.2.3,Win32,60.97560975622741,,,,,,3110.291,256.0,6.0,3110.291200000003,256.0,,,,3113.8513000000007,3114.351,3113.335,3113.8513000000007,3111.288200000003,3113.334900000002,3114.351,3114.8506000000016,3114.8506000000016,3118.354900000002,2699.0,3118.354900000002,5.0,3118.355,6.0,12.0,192.0,6.0,1.0,1.0,0.7,Time
,,S56,1,男,23,anonymized,Serial_Dependence_U,2023.2.3,Win32,60.97560975622741,,,,,,3118.355200000003,80.0,6.0,3118.3553000000006,80.0,,,,3122.1486000000014,3122.6484000000023,3121.6323000000007,3122.1486000000014,3119.366200000003,3121.6322000000027,3122.6485,3123.147900000002,3123.147900000002,3125.9691000000016,2457.0,3125.9691000000016,5.0,3125.9693000000007,6.0,13.0,193.0,12.0,1.0,1.2,0.3,Time
,,S56,1,男,23,anonymized,Serial_Dependence_U,2023.2.3,Win32,60.97560975622741,,,,,,3125.9695,330.0,6.0,3125.9695,330.0,,,,3129.562900000002,3130.0626000000016,3129.047,3129.5628000000006,3126.980400000002,3129.047,3130.0626000000016,3130.562400000002,3130.562400000002,3133.761400000002,2783.0,3133.761400000002,5.0,3133.7617000000027,6.0,14.0,194.0,11.0,1.0,1.0,0.3,Time
,,S56,1,男,23,anonymized,Serial_Dependence_U,2023.2.3,Win32,60.97560975622741,,,,,,3133.7618000000007,160.0,6.0,3133.7619000000022,160.0,,,,3137.127300000001,3137.626900000002,3136.610800000001,3137.127200000003,3134.7781000000014,3136.610700000003,3137.626900000002,3138.1266000000014,3138.126700000003,3141.198100000001,2693.0,3141.198100000001,5.0,3141.198200000003,6.0,15.0,195.0,5.0,1.0,0.8,0.7,Time
,,S56,1,男,23,anonymized,Serial_Dependence_U,2023.2.3,Win32,60.97560975622741,,,,,,3141.198400000002,120.0,6.0,3141.1985,120.0,,,,3144.7914000000023,3145.291200000003,3144.2778000000008,3144.7914000000023,3142.209200000003,3144.277700000003,3145.291200000003,3145.7908000000007,3145.7909000000022,3148.6458000000007,2549.0,3148.6458000000007,5.0,3148.6459000000023,6.0,16.0,196.0,21.0,1.0,1.0,0.3,Time
,,S56,1,男,23,anonymized,Serial_Dependence_U,2023.2.3,Win32,60.97560975622741,,,,,,3148.6461000000013,269.0,6.0,3148.646200000003,269.0,,,,3152.605700000003,3153.1058000000007,3152.0893000000005,3152.605700000003,3149.657,3152.0893000000005,3153.1058000000007,3153.605200000003,3153.6053000000006,3156.8043000000007,2751.0,3156.8044000000023,5.0,3156.8045,6.0,17.0,197.0,18.0,1.0,1.4,0.7,Time
,,S56,1,男,23,anonymized,Serial_Dependence_U,2023.2.3,Win32,60.97560975622741,,,,,,3156.804800000001,43.0,6.0,3156.8049000000024,43.0,,,,3160.2033000000006,3160.703,3159.6873000000005,3160.2033000000006,3157.821100000001,3159.6873000000005,3160.703,3161.2028000000005,3161.2028000000005,3164.1073000000006,2346.0,3164.1073000000006,5.0,3164.1075,6.0,18.0,198.0,20.0,1.0,0.8,0.3,Time
,,S56,1,男,23,anonymized,Serial_Dependence_U,2023.2.3,Win32,60.97560975622741,,,,,,3164.1077000000028,191.0,6.0,3164.1078000000007,191.0,,,,3168.068200000003,3168.5671000000016,3167.551200000003,3168.068200000003,3165.1185,3167.551200000003,3168.5671000000016,3169.067200000003,3169.067200000003,3172.6993000000007,2864.0,3172.6994000000022,5.0,3172.6995,6.0,19.0,199.0,8.0,1.0,1.4,0.7,Time
,,S56,1,男,23,anonymized,Serial_Dependence_U,2023.2.3,Win32,60.97560975622741,,,,,,3172.699800000001,25.0,6.0,3172.6999000000023,25.0,,,,3176.6988000000006,3177.1979000000024,3176.186900000002,3176.6988000000006,3173.716,3176.186800000001,3177.1979000000024,3177.697700000003,3177.697800000001,3181.180200000003,2714.0,3181.180300000001,5.0,3181.180400000002,6.0,20.0,200.0,23.0,1.0,1.4,0.3,Time
,,S56,1,男,23,anonymized,Serial_Dependence_U,2023.2.3,Win32,60.97560975622741,,,,,,3181.180600000001,238.0,6.0,3181.1808000000005,238.0,,,,3184.9293000000007,3185.428900000002,3184.4173000000005,3184.9292000000028,3182.180400000002,3184.417200000003,3185.428900000002,3185.9291000000017,3185.9292000000028,3189.144300000001,2616.0,3189.144300000001,5.0,3189.1445,6.0,21.0,201.0,7.0,1.0,1.2,0.7,Time
,,S56,1,男,23,anonymized,Serial_Dependence_U,2023.2.3,Win32,60.97560975622741,,,,,,3189.144700000003,296.0,6.0,3189.1448000000005,296.0,,,,3192.5105,3193.0095,3191.998700000003,3192.5105,3190.160700000003,3191.998700000003,3193.009600000001,3193.5095,3193.5095,3196.8088000000007,2842.0,3196.8089000000023,5.0,3196.809,6.0,22.0,202.0,25.0,1.0,0.8,0.7,Time
,,S56,1,男,23,anonymized,Serial_Dependence_U,2023.2.3,Win32,60.97560975622741,,,,,,3196.809200000003,349.0,6.0,3196.8094000000024,349.0,,,,3200.8075,3201.3071000000014,3200.2909000000022,3200.8075,3197.825,3200.2909000000022,3201.3071000000014,3201.8071000000014,3201.8071000000014,3242.077900000002,2767.0,3242.078,5.0,3242.078100000001,6.0,23.0,203.0,13.0,1.0,1.4,0.3,Time
,,S56,1,男,23,anonymized,Serial_Dependence_U,2023.2.3,Win32,60.97560975622741,,,,,,3242.0783000000006,135.0,6.0,3242.0785,135.0,,,,3245.4769000000024,3245.977100000001,3244.9609000000023,3245.4769000000024,3243.0996000000014,3244.9608000000007,3245.977200000003,3246.476700000003,3246.476700000003,3249.792100000001,2400.0,3249.792100000001,5.0,3249.7923000000005,6.0,24.0,204.0,10.0,1.0,0.8,0.3,Time
,,S56,1,男,23,anonymized,Serial_Dependence_U,2023.2.3,Win32,60.97560975622741,,,,,,3249.7925,43.0,6.0,3249.792700000003,43.0,,,,3253.3579000000022,3253.8575,3252.8415,3253.3579000000022,3250.8086000000017,3252.8415,3253.8575,3254.3573000000006,3254.3573000000006,3257.673,2506.0,3257.6731000000013,5.0,3257.673300000001,6.0,25.0,205.0,16.0,1.0,1.0,0.7,Time
,,S56,1,男,23,anonymized,Serial_Dependence_U,2023.2.3,Win32,60.97560975622741,,,,,,3257.6735,26.0,6.0,3257.673600000001,26.0,,,,3261.4719000000023,3261.971600000001,3260.9555,3261.4719000000023,3258.689800000001,3260.955400000002,3261.971600000001,3262.471400000002,3262.471400000002,3265.5206000000017,2320.0,3265.5206000000017,5.0,3265.5209000000023,6.0,26.0,206.0,2.0,1.0,1.2,0.3,Time
,,S56,1,男,23,anonymized,Serial_Dependence_U,2023.2.3,Win32,60.97560975622741,,,,,,3265.521,76.0,6.0,3265.5211000000013,76.0,,,,3269.669700000003,3270.169100000001,3269.153200000003,3269.669700000003,3266.5209000000023,3269.153200000003,3270.169100000001,3270.6689000000024,3270.669,3274.6511000000014,3263.0,3274.651200000003,5.0,3274.651400000002,6.0,27.0,207.0,29.0,1.0,1.6,0.7,Time
,,S56,1,男,23,anonymized,Serial_Dependence_U,2023.2.3,Win32,60.97560975622741,,,,,,3274.651600000001,99.0,6.0,3274.6518000000005,99.0,,,,3278.2505,3278.749700000003,3277.7336000000014,3278.250400000002,3275.6678000000006,3277.7335,3278.749700000003,3279.249600000001,3279.249600000001,3282.0658000000008,2210.0,3282.0659000000023,5.0,3282.0661000000014,6.0,28.0,208.0,1.0,1.0,1.0,0.3,Time
,,S56,1,男,23,anonymized,Serial_Dependence_U,2023.2.3,Win32,60.97560975622741,,,,,,3282.066300000001,278.0,6.0,3282.066400000002,278.0,,,,3285.831200000003,3286.3308000000006,3285.314700000003,3285.831100000001,3283.081800000001,3285.314600000001,3286.3308000000006,3286.830900000002,3286.830900000002,3290.263100000001,2664.0,3290.263200000003,5.0,3290.2633000000005,6.0,29.0,209.0,27.0,1.0,1.2,0.7,Time
,,S56,1,男,23,anonymized,Serial_Dependence_U,2023.2.3,Win32,60.97560975622741,,,,,,3290.2636000000016,156.0,7.0,3361.6575,156.0,s,71.37020000000302,,3365.223,3365.722800000001,3364.707200000003,3365.223,3362.674100000001,3364.707200000003,3365.722900000002,3366.222900000002,3366.222900000002,3369.3445,2530.0,3369.3445,5.0,3369.3446000000013,7.0,0.0,210.0,16.0,1.0,1.0,0.7,Time
,,S56,1,男,23,anonymized,Serial_Dependence_U,2023.2.3,Win32,60.97560975622741,,,,,,3369.3448000000008,258.0,7.0,3369.345300000001,258.0,,,,3373.1403000000005,3373.6371000000013,3372.621200000003,3373.140200000003,3370.354900000002,3372.621200000003,3373.6371000000013,3374.137,3374.1371000000013,3377.306,2648.0,3377.3061000000016,5.0,3377.3062000000027,7.0,1.0,211.0,12.0,1.0,1.2,0.3,Time
,,S56,1,男,23,anonymized,Serial_Dependence_U,2023.2.3,Win32,60.97560975622741,,,,,,3377.3063000000006,85.0,7.0,3377.306400000002,85.0,,,,3380.901700000003,3381.401300000001,3380.3903000000005,3380.901700000003,3378.3196000000016,3380.3903000000005,3381.401300000001,3381.9015,3381.9015,3385.2335,2583.0,3385.2335,5.0,3385.233700000003,7.0,2.0,212.0,11.0,1.0,1.0,0.3,Time
,,S56,1,男,23,anonymized,Serial_Dependence_U,2023.2.3,Win32,60.97560975622741,,,,,,3385.234,173.0,7.0,3385.234,173.0,,,,3389.216,3389.7155,3388.702200000003,3389.216,3386.233800000001,3388.7021000000013,3389.7155,3390.215200000003,3390.2153000000008,3395.750400000002,2792.0,3395.750400000002,5.0,3395.7505,7.0,3.0,213.0,13.0,1.0,1.4,0.3,Time
,,S56,1,男,23,anonymized,Serial_Dependence_U,2023.2.3,Win32,60.97560975622741,,,,,,3395.750700000003,237.0,7.0,3395.7508000000007,237.0,,,,3399.096200000003,3399.5961000000016,3398.5795,3399.0961000000016,3396.747300000001,3398.5795,3399.5961000000016,3400.0955,3400.0955,3403.1501000000017,2615.0,3403.1501000000017,5.0,3403.1503000000007,7.0,4.0,214.0,5.0,1.0,0.8,0.7,Time
,,S56,1,男,23,anonymized,Serial_Dependence_U,2023.2.3,Win32,60.97560975622741,,,,,,3403.1504000000023,60.0,7.0,3403.150700000003,60.0,,,,3407.343700000003,3407.8431000000014,3406.827200000003,3407.343700000003,3404.1611000000016,3406.827200000003,3407.8431000000014,3408.3431000000014,3408.343200000003,3411.8086000000017,2991.0,3411.8086000000017,5.0,3411.8088000000007,7.0,5.0,215.0,4.0,1.0,1.6,0.3,Time
,,S56,1,男,23,anonymized,Serial_Dependence_U,2023.2.3,Win32,60.97560975622741,,,,,,3411.8089000000023,304.0,7.0,3411.8091000000013,304.0,,,,3415.4076000000014,3415.907200000003,3414.8957000000028,3415.4076000000014,3412.8251000000014,3414.8957000000028,3415.9073000000008,3416.4076000000014,3416.4076000000014,3419.472900000002,2593.0,3419.472900000002,5.0,3419.473,7.0,6.0,216.0,21.0,1.0,1.0,0.3,Time
,,S56,1,男,23,anonymized,Serial_Dependence_U,2023.2.3,Win32,60.97560975622741,,,,,,3419.473300000001,325.0,7.0,3419.473400000002,325.0,,,,3423.0389000000023,3423.5381000000016,3422.522100000001,3423.0388000000007,3420.489400000002,3422.522100000001,3423.538200000003,3424.038,3424.038,3432.541300000001,2381.0,3432.541300000001,5.0,3432.5414000000023,7.0,7.0,217.0,26.0,1.0,1.0,0.7,Time
,,S56,1,男,23,anonymized,Serial_Dependence_U,2023.2.3,Win32,60.97560975622741,,,,,,3432.5415,269.0,7.0,3432.541700000003,269.0,,,,3436.734400000002,3437.234200000003,3436.217700000003,3436.7343000000005,3433.552,3436.217700000003,3437.234200000003,3437.7345,3437.7345,3440.8216000000016,2732.0,3440.8216000000016,5.0,3440.8218000000006,7.0,8.0,218.0,24.0,1.0,1.6,0.3,Time
,,S56,1,男,23,anonymized,Serial_Dependence_U,2023.2.3,Win32,60.97560975622741,,,,,,3440.821900000002,101.0,7.0,3440.822100000001,101.0,,,,3444.7823000000008,3445.2815,3444.265400000002,3444.782200000003,3441.832700000003,3444.2653000000005,3445.2815,3445.781200000003,3445.781300000001,3449.386100000001,3233.0,3449.386200000003,5.0,3449.3863000000006,7.0,9.0,219.0,8.0,1.0,1.4,0.7,Time
,,S56,1,男,23,anonymized,Serial_Dependence_U,2023.2.3,Win32,60.97560975622741,,,,,,3449.3866000000016,357.0,7.0,3449.3867000000027,357.0,,,,3453.379200000003,3453.878800000001,3452.862700000003,3453.379100000001,3450.396700000003,3452.862700000003,3453.878800000001,3454.378700000003,3454.378700000003,3460.4937000000027,3127.0,3460.4937000000027,5.0,3460.494,7.0,10.0,220.0,23.0,1.0,1.4,0.3,Time
,,S56,1,男,23,anonymized,Serial_Dependence_U,2023.2.3,Win32,60.97560975622741,,,,,,3460.494200000003,32.0,7.0,3460.4943000000007,32.0,,,,3464.075900000002,3464.5758000000005,3463.5594000000024,3464.075900000002,3461.4936000000016,3463.559300000001,3464.5758000000005,3465.075700000003,3465.0758000000005,3468.2746000000016,2696.0,3468.274700000003,5.0,3468.2748000000006,7.0,11.0,221.0,1.0,1.0,1.0,0.3,Time
,,S56,1,男,23,anonymized,Serial_Dependence_U,2023.2.3,Win32,60.97560975622741,,,,,,3468.275,104.0,7.0,3468.2751000000017,104.0,,,,3472.040200000003,3472.539900000002,3471.5243000000005,3472.040100000001,3469.291300000001,3471.5243000000005,3472.539900000002,3473.039600000001,3473.039700000003,3476.322,2617.0,3476.322,5.0,3476.322100000001,7.0,12.0,222.0,17.0,1.0,1.2,0.7,Time
,,S56,1,男,23,anonymized,Serial_Dependence_U,2023.2.3,Win32,60.97560975622741,,,,,,3476.3223000000007,6.0,7.0,3476.3224000000023,6.0,,,,3479.671,3480.1709000000023,3479.155200000003,3479.671,3477.322100000001,3479.155200000003,3480.1709000000023,3480.6706000000013,3480.6706000000013,3484.041700000003,2873.0,3484.041700000003,5.0,3484.041800000001,7.0,13.0,223.0,25.0,1.0,0.8,0.7,Time
,,S56,1,男,23,anonymized,Serial_Dependence_U,2023.2.3,Win32,60.97560975622741,,,,,,3484.041900000002,30.0,7.0,3484.042100000001,30.0,,,,3487.801900000002,3488.3018000000006,3487.285700000003,3487.8018000000006,3485.053100000001,3487.285700000003,3488.3018000000006,3488.8017000000027,3488.8017000000027,3491.756,2499.0,3491.756,5.0,3491.756200000003,7.0,14.0,224.0,7.0,1.0,1.2,0.7,Time
,,S56,1,男,23,anonymized,Serial_Dependence_U,2023.2.3,Win32,60.97560975622741,,,,,,3491.7563000000005,316.0,7.0,3491.7565,316.0,,,,3495.499400000002,3495.999300000001,3494.986,3495.499400000002,3492.7511000000013,3494.9859000000024,3495.999400000002,3496.499400000002,3496.4995,3499.6203000000005,2566.0,3499.6203000000005,5.0,3499.6203000000005,7.0,15.0,225.0,27.0,1.0,1.2,0.7,Time
,,S56,1,男,23,anonymized,Serial_Dependence_U,2023.2.3,Win32,60.97560975622741,,,,,,3499.6205,191.0,7.0,3499.620700000003,191.0,,,,3503.414200000003,3503.913400000002,3502.8973000000005,3503.414200000003,3500.6311000000014,3502.897100000001,3503.913400000002,3504.4139000000023,3504.414,3510.5169000000024,2828.0,3510.517,5.0,3510.5171000000014,7.0,16.0,226.0,22.0,1.0,1.2,0.3,Time
,,S56,1,男,23,anonymized,Serial_Dependence_U,2023.2.3,Win32,60.97560975622741,,,,,,3510.517300000001,298.0,7.0,3510.517400000002,298.0,,,,3514.4775,3514.977200000003,3513.960400000002,3514.4775,3511.5278000000008,3513.9603000000006,3514.977200000003,3515.4766000000013,3515.4766000000013,3518.3649000000023,2579.0,3518.3649000000023,5.0,3518.365,7.0,17.0,227.0,18.0,1.0,1.4,0.7,Time
,,S56,1,男,23,anonymized,Serial_Dependence_U,2023.2.3,Win32,60.97560975622741,,,,,,3518.3651000000013,50.0,7.0,3518.365300000001,50.0,,,,3522.5078000000008,3523.008,3521.9913000000006,3522.507700000003,3519.359200000003,3521.9913000000006,3523.0081000000014,3523.5073000000007,3523.5073000000007,3527.5119000000022,3230.0,3527.5119000000022,5.0,3527.512,7.0,18.0,228.0,9.0,1.0,1.6,0.7,Time
,,S56,1,男,23,anonymized,Serial_Dependence_U,2023.2.3,Win32,60.97560975622741,,,,,,3527.512200000003,66.0,7.0,3527.512300000001,66.0,,,,3531.471600000001,3531.971600000001,3530.959900000002,3531.471600000001,3528.5227000000027,3530.9598000000005,3531.971600000001,3532.471200000003,3532.4713000000006,3535.403600000001,2576.0,3535.403700000003,5.0,3535.403900000002,7.0,19.0,229.0,28.0,1.0,1.4,0.7,Time
,,S56,1,男,23,anonymized,Serial_Dependence_U,2023.2.3,Win32,60.97560975622741,,,,,,3535.4041000000016,246.0,7.0,3535.404200000003,246.0,,,,3538.7694000000024,3539.269200000003,3538.2528000000007,3538.769300000001,3536.4204000000022,3538.2528000000007,3539.269200000003,3539.7689000000023,3539.7689000000023,3542.818,2661.0,3542.8181000000013,5.0,3542.818300000001,7.0,20.0,230.0,15.0,1.0,0.8,0.7,Time
,,S56,1,男,23,anonymized,Serial_Dependence_U,2023.2.3,Win32,60.97560975622741,,,,,,3542.8185,290.0,7.0,3542.8186000000014,290.0,,,,3546.200900000002,3546.700300000001,3545.6839000000023,3546.200900000002,3543.8185,3545.6839000000023,3546.700300000001,3547.1999000000023,3547.1999000000023,3550.3823000000007,2704.0,3550.3823000000007,5.0,3550.3825,7.0,21.0,231.0,0.0,1.0,0.8,0.3,Time
,,S56,1,男,23,anonymized,Serial_Dependence_U,2023.2.3,Win32,60.97560975622741,,,,,,3550.382700000003,316.0,7.0,3550.3828000000008,316.0,,,,3554.531100000001,3555.030800000001,3554.014800000001,3554.531100000001,3551.3824000000022,3554.014700000003,3555.030800000001,3555.5306000000014,3555.530700000003,3558.7134000000024,2783.0,3558.7134000000024,5.0,3558.7136000000014,7.0,22.0,232.0,29.0,1.0,1.6,0.7,Time
,,S56,1,男,23,anonymized,Serial_Dependence_U,2023.2.3,Win32,60.97560975622741,,,,,,3558.713900000002,91.0,7.0,3558.7143000000005,91.0,,,,3562.9119000000023,3563.4119000000023,3562.3957000000028,3562.9119000000023,3559.7298000000005,3562.3957000000028,3563.4119000000023,3563.9114000000022,3563.9114000000022,3569.01,2392.0,3569.01,5.0,3569.010300000001,7.0,23.0,233.0,14.0,1.0,1.6,0.3,Time
,,S56,1,男,23,anonymized,Serial_Dependence_U,2023.2.3,Win32,60.97560975622741,,,,,,3569.0104000000024,346.0,7.0,3569.010600000001,346.0,,,,3572.8088000000007,3573.3085,3572.292400000002,3572.8088000000007,3570.026300000001,3572.2923000000005,3573.3085,3573.808400000002,3573.808400000002,3577.274100000001,2952.0,3577.274100000001,5.0,3577.2743000000005,7.0,24.0,234.0,2.0,1.0,1.2,0.3,Time
,,S56,1,男,23,anonymized,Serial_Dependence_U,2023.2.3,Win32,60.97560975622741,,,,,,3577.2746000000016,107.0,7.0,3577.274700000003,107.0,,,,3580.8398000000007,3581.3393000000005,3580.3285,3580.8398000000007,3578.2907000000027,3580.328400000002,3581.3393000000005,3581.8396000000016,3581.8396000000016,3584.538400000002,2216.0,3584.538400000002,5.0,3584.538600000001,7.0,25.0,235.0,6.0,1.0,1.0,0.7,Time
,,S56,1,男,23,anonymized,Serial_Dependence_U,2023.2.3,Win32,60.97560975622741,,,,,,3584.5388000000007,88.0,7.0,3584.5389000000023,88.0,,,,3587.920700000003,3588.4205,3587.4095,3587.920700000003,3585.538600000001,3587.4094000000023,3588.4205,3588.9206000000013,3588.9206000000013,3591.952900000002,2366.0,3591.952900000002,5.0,3591.953100000001,7.0,26.0,236.0,10.0,1.0,0.8,0.3,Time
,,S56,1,男,23,anonymized,Serial_Dependence_U,2023.2.3,Win32,60.97560975622741,,,,,,3591.9533000000006,6.0,7.0,3591.953400000002,6.0,,,,3595.951600000001,3596.451600000001,3595.435400000002,3595.951600000001,3592.9695,3595.435400000002,3596.451600000001,3596.951400000002,3596.9515,3599.883600000001,2592.0,3599.883600000001,5.0,3599.8838000000005,7.0,27.0,237.0,3.0,1.0,1.4,0.3,Time
,,S56,1,男,23,anonymized,Serial_Dependence_U,2023.2.3,Win32,60.97560975622741,,,,,,3599.884,222.0,7.0,3599.8841000000016,222.0,,,,3604.049200000003,3604.549200000003,3603.532800000001,3604.049200000003,3600.9003000000007,3603.532700000003,3604.549200000003,3605.049,3605.049,3614.7348000000006,2594.0,3614.7348000000006,5.0,3614.735,7.0,28.0,238.0,19.0,1.0,1.6,0.7,Time
,,S56,1,男,23,anonymized,Serial_Dependence_U,2023.2.3,Win32,60.97560975622741,,,,,,3614.735100000001,122.0,7.0,3614.735200000003,122.0,,,,3618.128700000003,3618.628200000003,3617.6122000000023,3618.128700000003,3615.745700000003,3617.6122000000023,3618.628200000003,3619.1276000000016,3619.1276000000016,3623.9485,2361.0,3623.9485,5.0,3623.948700000003,7.0,29.0,239.0,20.0,1.0,0.8,0.3,Time
,,S56,1,男,23,anonymized,Serial_Dependence_U,2023.2.3,Win32,60.97560975622741,,,,,,3623.948900000002,238.0,8.0,3684.174200000002,238.0,s,60.20060000000103,,3687.956700000003,3688.456200000003,3687.4453000000008,3687.956600000002,3685.174200000002,3687.4452000000033,3688.456200000003,3688.955900000002,3688.955900000002,3692.9215,2357.0,3692.9215,5.0,3692.921800000001,8.0,0.0,240.0,12.0,1.0,1.2,0.3,Time
,,S56,1,男,23,anonymized,Serial_Dependence_U,2023.2.3,Win32,60.97560975622741,,,,,,3692.922,75.0,8.0,3692.923,75.0,,,,3696.504300000001,3697.003900000002,3695.987400000002,3696.504300000001,3693.921600000001,3695.987300000001,3697.003900000002,3697.5033000000008,3697.5033000000008,3700.558,2716.0,3700.558,5.0,3700.5581000000016,8.0,1.0,241.0,11.0,1.0,1.0,0.3,Time
,,S56,1,男,23,anonymized,Serial_Dependence_U,2023.2.3,Win32,60.97560975622741,,,,,,3700.558300000001,160.0,8.0,3700.558400000002,160.0,,,,3704.5515,3705.051,3704.0351000000014,3704.5514000000026,3701.569200000003,3704.035,3705.051,3705.551600000001,3705.551600000001,3709.1166000000017,3271.0,3709.1166000000017,5.0,3709.1167000000023,8.0,2.0,242.0,13.0,1.0,1.4,0.3,Time
,,S56,1,男,23,anonymized,Serial_Dependence_U,2023.2.3,Win32,60.97560975622741,,,,,,3709.116900000002,31.0,8.0,3709.1171000000018,31.0,,,,3712.4825,3712.981800000001,3711.9705,3712.4825,3710.132900000002,3711.9704000000015,3712.981900000002,3713.482200000002,3713.482200000002,3812.251300000001,2135.0,3812.251300000001,5.0,3812.251400000003,8.0,3.0,243.0,15.0,1.0,0.8,0.7,Time
,,S56,1,男,23,anonymized,Serial_Dependence_U,2023.2.3,Win32,60.97560975622741,,,,,,3812.2516000000014,337.0,8.0,3812.251800000001,337.0,,,,3816.217000000001,3816.716700000004,3815.700500000001,3816.216900000003,3813.267700000003,3815.7004000000015,3816.716800000001,3817.216200000004,3817.216200000004,3820.615300000001,3020.0,3820.615300000001,5.0,3820.6154000000015,8.0,4.0,244.0,18.0,1.0,1.4,0.7,Time
,,S56,1,男,23,anonymized,Serial_Dependence_U,2023.2.3,Win32,60.97560975622741,,,,,,3820.615700000003,200.0,8.0,3820.6158000000014,200.0,,,,3824.797400000002,3825.2971000000016,3824.286100000002,3824.797400000002,3821.6154000000015,3824.286,3825.297200000004,3825.796900000003,3825.796900000003,3829.151600000002,2927.0,3829.151600000002,5.0,3829.151700000003,8.0,5.0,245.0,24.0,1.0,1.6,0.3,Time
,,S56,1,男,23,anonymized,Serial_Dependence_U,2023.2.3,Win32,60.97560975622741,,,,,,3829.1519000000026,141.0,8.0,3829.152,141.0,,,,3832.745000000001,3833.244800000001,3832.2314000000015,3832.745000000001,3830.162400000003,3832.231300000001,3833.244800000001,3833.7445000000007,3833.7445000000007,3836.5992000000033,2494.0,3836.5992000000033,5.0,3836.599400000003,8.0,6.0,246.0,1.0,1.0,1.0,0.3,Time
,,S56,1,男,23,anonymized,Serial_Dependence_U,2023.2.3,Win32,60.97560975622741,,,,,,3836.5995,256.0,8.0,3836.5996000000014,256.0,,,,3840.7759000000015,3841.275700000004,3840.259400000002,3840.775800000001,3837.5939000000026,3840.2593000000015,3841.275700000004,3841.775400000002,3841.775400000002,3845.024400000003,2959.0,3845.0245,5.0,3845.024700000004,8.0,7.0,247.0,4.0,1.0,1.6,0.3,Time
,,S56,1,男,23,anonymized,Serial_Dependence_U,2023.2.3,Win32,60.97560975622741,,,,,,3845.025000000001,152.0,8.0,3845.025200000004,152.0,,,,3849.223200000003,3849.7229000000025,3848.7067000000034,3849.223200000003,3846.0412000000033,3848.7067000000034,3849.7229000000025,3850.223100000002,3850.223200000003,3853.6051000000016,3080.0,3853.6051000000016,5.0,3853.605200000004,8.0,8.0,248.0,14.0,1.0,1.6,0.3,Time
,,S56,1,男,23,anonymized,Serial_Dependence_U,2023.2.3,Win32,60.97560975622741,,,,,,3853.605400000002,55.0,8.0,3853.6056000000017,55.0,,,,3857.3709000000026,3857.870600000002,3856.8545,3857.3708000000015,3854.6215,3856.8545,3857.870700000003,3858.3704000000025,3858.3705,3860.958300000001,2283.0,3860.958300000001,5.0,3860.958400000002,8.0,9.0,249.0,27.0,1.0,1.2,0.7,Time
,,S56,1,男,23,anonymized,Serial_Dependence_U,2023.2.3,Win32,60.97560975622741,,,,,,3860.9586000000018,77.0,8.0,3860.9586000000018,77.0,,,,3865.1186000000016,3865.617900000003,3864.602200000003,3865.118500000001,3861.9693000000016,3864.602200000003,3865.617900000003,3866.117900000003,3866.118,3869.489200000004,2959.0,3869.489300000001,5.0,3869.489400000002,8.0,10.0,250.0,9.0,1.0,1.6,0.7,Time
,,S56,1,男,23,anonymized,Serial_Dependence_U,2023.2.3,Win32,60.97560975622741,,,,,,3869.4896000000017,318.0,8.0,3869.4896000000017,318.0,,,,3873.282800000001,3873.782400000003,3872.7710000000006,3873.2827000000034,3870.5,3872.7710000000006,3873.782400000003,3874.282100000002,3874.2822000000033,3877.231200000004,2617.0,3877.231200000004,5.0,3877.2314000000015,8.0,11.0,251.0,2.0,1.0,1.2,0.3,Time
,,S56,1,男,23,anonymized,Serial_Dependence_U,2023.2.3,Win32,60.97560975622741,,,,,,3877.231600000002,311.0,8.0,3877.231700000003,311.0,,,,3881.0300000000007,3881.529700000004,3880.513600000002,3881.0300000000007,3878.2475,3880.5135,3881.529700000004,3882.029500000001,3882.029500000001,3884.345800000001,2265.0,3884.345800000001,5.0,3884.346000000001,8.0,12.0,252.0,22.0,1.0,1.2,0.3,Time
,,S56,1,男,23,anonymized,Serial_Dependence_U,2023.2.3,Win32,60.97560975622741,,,,,,3884.346200000004,21.0,8.0,3884.346300000001,21.0,,,,3888.511400000003,3889.010700000004,3887.9994000000015,3888.511400000003,3885.362100000002,3887.9994000000015,3889.010700000004,3889.510800000001,3889.510800000001,3892.143100000002,2248.0,3892.143200000003,5.0,3892.1433000000015,8.0,13.0,253.0,29.0,1.0,1.6,0.7,Time
,,S56,1,男,23,anonymized,Serial_Dependence_U,2023.2.3,Win32,60.97560975622741,,,,,,3892.1435,76.0,8.0,3892.1437000000033,76.0,,,,3895.725500000001,3896.225400000003,3895.2090000000007,3895.725500000001,3893.1433000000015,3895.2090000000007,3896.225400000003,3896.7251000000015,3896.725200000004,3899.611100000002,2544.0,3899.611100000002,5.0,3899.611200000003,8.0,14.0,254.0,21.0,1.0,1.0,0.3,Time
,,S56,1,男,23,anonymized,Serial_Dependence_U,2023.2.3,Win32,60.97560975622741,,,,,,3899.6113000000014,282.0,8.0,3899.6114000000025,282.0,,,,3902.973600000002,3903.4729000000025,3902.456800000001,3902.973600000002,3900.6239000000014,3902.456800000001,3903.4729000000025,3903.972700000003,3903.972800000002,3906.872,2399.0,3906.872,5.0,3906.8721000000014,8.0,15.0,255.0,5.0,1.0,0.8,0.7,Time
,,S56,1,男,23,anonymized,Serial_Dependence_U,2023.2.3,Win32,60.97560975622741,,,,,,3906.872400000003,210.0,8.0,3906.8725,210.0,,,,3910.637600000002,3911.137200000004,3910.1215,3910.6375000000007,3907.8884000000025,3910.1214000000023,3911.137200000004,3911.637300000001,3911.6374000000014,3914.5865,2539.0,3914.5865,5.0,3914.5866000000015,8.0,16.0,256.0,7.0,1.0,1.2,0.7,Time
