Scale_setup.started,Scale_setup.stopped,participant,session,sex,age,date,expName,psychopyVersion,OS,frameRate,Intro.started,Intro.stopped,key_resp_2.keys,key_resp_2.rt,key_resp_2.duration,block.started,direction,Block_id,block.stopped,trial_direction,Block_resp_2.keys,Block_resp_2.rt,Block_resp_2.duration,ITI.started,ITI.stopped,Mask_2.started,Mask_2.stopped,encoding.started,encoding.stopped,Cue.started,Cue.stopped,Response.started,Response.stopped,keyDuration,Feedback_Time.started,FeedbackID_T,Feedback_Time.stopped,trials.thisRepN,trials.thisTrialN,trials.thisN,trials.thisIndex,trials.ran,TimeDur,Coherence1,TrialType
0.0001999999880792,0.0001999999880792,S57,1,m,20,anonymized,Serial_Dependence_U,2023.2.3,Win32,243.9024390243686,,,,,,,,,,,,,,,,,,,,,,,,,,,,,,,,,,,
,,S57,1,m,20,anonymized,Serial_Dependence_U,2023.2.3,Win32,243.9024390243686,22.16040000000596,95.48859999999404,space,73.30770000001787,,,,,,,,,,,,,,,,,,,,,,,,,,,,,,,
,,S57,1,m,20,anonymized,Serial_Dependence_U,2023.2.3,Win32,243.9024390243686,,,,,,95.491,304.0,0.0,97.03279999998212,304.0,s,1.5326999999880826,,100.99969999998808,101.50029999998212,100.49740000000595,100.99959999999405,98.03440000000596,100.49729999998212,101.50029999998212,101.99940000000596,101.99940000000596,103.86219999998808,1393.0,103.86219999998808,3.0,104.862,0.0,0.0,0.0,23.0,1.0,1.4,0.3,Time
,,S57,1,m,20,anonymized,Serial_Dependence_U,2023.2.3,Win32,243.9024390243686,,,,,,104.86219999998808,171.0,0.0,104.86269999998808,171.0,,,,108.59959999999404,109.09929999998212,108.09719999998808,108.59940000000596,105.86640000000595,108.09709999999404,109.09929999998212,109.59669999998808,109.59669999998808,111.45969999998808,1575.0,111.45979999998212,5.0,112.45759999999404,0.0,1.0,1.0,27.0,1.0,1.2,0.7,Time
,,S57,1,m,20,anonymized,Serial_Dependence_U,2023.2.3,Win32,243.9024390243686,,,,,,112.45779999998211,196.0,0.0,112.45779999998211,196.0,,,,116.19740000000596,116.695,115.69590000000596,116.19719999998809,113.46379999998211,115.69579999998211,116.695,117.19509999999404,117.19509999999404,118.76759999999403,1121.0,118.76759999999403,2.0,119.76579999998212,0.0,2.0,2.0,17.0,1.0,1.2,0.7,Time
,,S57,1,m,20,anonymized,Serial_Dependence_U,2023.2.3,Win32,243.9024390243686,,,,,,119.766,105.0,0.0,119.766,105.0,,,,123.30869999998808,123.80640000000597,122.80419999998809,123.3085,120.76690000000596,122.804,123.80640000000597,124.30729999998212,124.30740000000596,125.88229999998212,1085.0,125.88229999998212,4.0,126.88240000000596,0.0,3.0,3.0,26.0,1.0,1.0,0.7,Time
,,S57,1,m,20,anonymized,Serial_Dependence_U,2023.2.3,Win32,243.9024390243686,,,,,,126.8825,70.0,0.0,126.88259999999404,70.0,,,,130.651,131.14869999998808,130.14690000000596,130.65079999998213,127.88440000000595,130.1467999999821,131.14879999998212,131.64879999998212,131.64879999998212,133.055,992.0,133.055,2.0,134.05290000000596,0.0,4.0,4.0,12.0,1.0,1.2,0.3,Time
,,S57,1,m,20,anonymized,Serial_Dependence_U,2023.2.3,Win32,243.9024390243686,,,,,,134.053,139.0,0.0,134.05309999999403,139.0,,,,137.9955,138.49559999999403,137.49259999999404,137.9952999999821,135.05709999999405,137.49240000000597,138.49559999999403,138.9945,138.9945,140.696,1349.0,140.696,3.0,141.6941999999881,0.0,5.0,5.0,28.0,1.0,1.4,0.7,Time
,,S57,1,m,20,anonymized,Serial_Dependence_U,2023.2.3,Win32,243.9024390243686,,,,,,141.6945,328.0,0.0,141.69459999999404,328.0,,,,145.26290000000597,145.76090000000596,144.75909999999405,145.26259999999405,142.6965,144.75879999998213,145.76090000000596,146.261,146.26109999999403,147.91509999999403,1185.0,147.9151999999881,4.0,148.915,0.0,6.0,6.0,11.0,1.0,1.0,0.3,Time
,,S57,1,m,20,anonymized,Serial_Dependence_U,2023.2.3,Win32,243.9024390243686,,,,,,148.9151999999881,331.0,0.0,148.9151999999881,331.0,,,,152.2481999999881,152.74840000000597,151.74429999998213,152.24809999999405,149.913,151.74419999998807,152.74840000000597,153.24829999998212,153.24829999998212,154.91069999998808,1412.0,154.91069999998808,5.0,155.9105,0.0,7.0,7.0,5.0,1.0,0.8,0.7,Time
,,S57,1,m,20,anonymized,Serial_Dependence_U,2023.2.3,Win32,243.9024390243686,,,,,,155.91069999998808,97.0,0.0,155.91079999998212,97.0,,,,159.88279999998213,160.38129999998213,159.37740000000596,159.88259999999403,156.91469999998807,159.3772999999821,160.38129999998213,160.88119999998807,160.88119999998807,162.86269999998808,1658.0,162.86269999998808,4.0,163.86029999998212,0.0,8.0,8.0,13.0,1.0,1.4,0.3,Time
,,S57,1,m,20,anonymized,Serial_Dependence_U,2023.2.3,Win32,243.9024390243686,,,,,,163.8605,59.0,0.0,163.8605,59.0,,,,167.80440000000596,168.30329999998213,167.30079999998213,167.80419999998807,164.86629999998212,167.30069999998807,168.30340000000595,168.80369999998808,168.80369999998808,171.00819999998808,1838.0,171.0082999999821,5.0,172.00609999999403,0.0,9.0,9.0,8.0,1.0,1.4,0.7,Time
,,S57,1,m,20,anonymized,Serial_Dependence_U,2023.2.3,Win32,243.9024390243686,,,,,,172.00619999998807,38.0,0.0,172.00629999998213,38.0,,,,175.57040000000595,176.06819999998808,175.06869999998807,175.57029999998213,173.00819999998808,175.0685,176.06819999998808,176.56990000000596,176.56990000000596,177.77009999999404,904.0,177.77019999998808,2.0,178.7682999999821,0.0,10.0,10.0,1.0,1.0,1.0,0.3,Time
,,S57,1,m,20,anonymized,Serial_Dependence_U,2023.2.3,Win32,243.9024390243686,,,,,,178.7685,198.0,0.0,178.76859999999405,198.0,,,,182.106,182.60569999998808,181.60159999999405,182.1057999999821,179.76859999999405,181.6015,182.60569999998808,183.10559999999404,183.10569999998808,184.7857999999821,1237.0,184.7857999999821,5.0,185.78469999998808,0.0,11.0,11.0,15.0,1.0,0.8,0.7,Time
,,S57,1,m,20,anonymized,Serial_Dependence_U,2023.2.3,Win32,243.9024390243686,,,,,,185.7847999999821,57.0,0.0,185.785,57.0,,,,189.92219999998807,190.42219999998807,189.41990000000595,189.922,186.78919999998809,189.41979999998213,190.42219999998807,190.92219999998807,190.92219999998807,192.66569999998808,1387.0,192.6657999999821,2.0,193.66379999998213,0.0,12.0,12.0,9.0,1.0,1.6,0.7,Time
,,S57,1,m,20,anonymized,Serial_Dependence_U,2023.2.3,Win32,243.9024390243686,,,,,,193.66390000000595,306.0,0.0,193.664,306.0,,,,197.03369999998807,197.53159999999403,196.532400000006,197.03369999998807,194.6692999999821,196.5322999999821,197.53159999999403,198.03179999998213,198.03179999998213,199.38659999999405,971.0,199.38659999999405,4.0,200.3845,0.0,13.0,13.0,0.0,1.0,0.8,0.3,Time
,,S57,1,m,20,anonymized,Serial_Dependence_U,2023.2.3,Win32,243.9024390243686,,,,,,200.38459999999404,61.0,0.0,200.38469999998807,61.0,,,,203.91979999998213,204.419,203.417900000006,203.91969999998807,201.3865,203.4177999999821,204.419,204.9172999999821,204.9172999999821,206.97369999998807,1475.0,206.97369999998807,5.0,207.9716999999881,0.0,14.0,14.0,16.0,1.0,1.0,0.7,Time
,,S57,1,m,20,anonymized,Serial_Dependence_U,2023.2.3,Win32,243.9024390243686,,,,,,207.971900000006,166.0,0.0,207.971900000006,166.0,,,,211.340400000006,211.838,210.83619999998808,211.34019999998807,208.97359999999404,210.83609999999405,211.838,212.335400000006,212.335400000006,213.7276999999881,858.0,213.7276999999881,4.0,214.72569999998808,0.0,15.0,15.0,20.0,1.0,0.8,0.3,Time
,,S57,1,m,20,anonymized,Serial_Dependence_U,2023.2.3,Win32,243.9024390243686,,,,,,214.7257999999821,13.0,0.0,214.725900000006,13.0,,,,218.8981999999881,219.39609999999405,218.394400000006,218.898,215.729900000006,218.39419999998807,219.39609999999405,219.8962999999821,219.8962999999821,221.40259999999404,1116.0,221.40259999999404,1.0,222.402400000006,0.0,16.0,16.0,4.0,1.0,1.6,0.3,Time
,,S57,1,m,20,anonymized,Serial_Dependence_U,2023.2.3,Win32,243.9024390243686,,,,,,222.40259999999404,62.0,0.0,222.40269999998807,62.0,,,,226.5692999999821,227.06759999999403,226.067400000006,226.5691999999881,223.4062999999821,226.06719999998808,227.06759999999403,227.56459999999404,227.56459999999404,228.99369999998808,1091.0,228.9937999999821,1.0,229.991900000006,0.0,17.0,17.0,24.0,1.0,1.6,0.3,Time
,,S57,1,m,20,anonymized,Serial_Dependence_U,2023.2.3,Win32,243.9024390243686,,,,,,229.992,187.0,0.0,229.99209999999405,187.0,,,,233.3356999999881,233.835,232.8311999999881,233.3355,230.99929999998213,232.83109999999405,233.835,234.3317999999821,234.331900000006,235.93329999998213,1202.0,235.933400000006,5.0,236.93109999999405,0.0,18.0,18.0,25.0,1.0,0.8,0.7,Time
,,S57,1,m,20,anonymized,Serial_Dependence_U,2023.2.3,Win32,243.9024390243686,,,,,,236.9312999999821,217.0,0.0,236.931400000006,217.0,,,,240.4707999999821,240.9722999999821,239.968400000006,240.47059999999405,237.935400000006,239.9682999999821,240.9722999999821,241.47059999999405,241.47059999999405,243.35409999999405,1455.0,243.35409999999405,5.0,244.35159999999405,0.0,19.0,19.0,6.0,1.0,1.0,0.7,Time
,,S57,1,m,20,anonymized,Serial_Dependence_U,2023.2.3,Win32,243.9024390243686,,,,,,244.3517999999821,153.0,0.0,244.3517999999821,153.0,,,,248.5227999999821,249.020400000006,248.0187999999821,248.522400000006,245.35629999998213,248.0186999999881,249.020400000006,249.5202999999821,249.5202999999821,251.2995999999941,1368.0,251.2996999999881,2.0,252.2995999999941,0.0,20.0,20.0,14.0,1.0,1.6,0.3,Time
,,S57,1,m,20,anonymized,Serial_Dependence_U,2023.2.3,Win32,243.9024390243686,,,,,,252.29979999998216,357.0,0.0,252.29979999998216,357.0,,,,255.66619999998807,256.16329999998214,255.163900000006,255.6660999999941,253.3012999999821,255.16379999998213,256.16329999998214,256.66350000000006,256.66350000000006,257.688900000006,650.0,257.688900000006,2.0,258.68850000000003,0.0,21.0,21.0,10.0,1.0,0.8,0.3,Time
,,S57,1,m,20,anonymized,Serial_Dependence_U,2023.2.3,Win32,243.9024390243686,,,,,,258.6886999999881,113.0,0.0,258.6886999999881,113.0,,,,262.6260999999941,263.1241999999881,262.1220999999941,262.62600000000003,259.6890999999941,262.122,263.1241999999881,263.6215,263.6215,265.1991999999881,1251.0,265.1991999999881,2.0,266.19929999998214,0.0,22.0,22.0,18.0,1.0,1.4,0.7,Time
,,S57,1,m,20,anonymized,Serial_Dependence_U,2023.2.3,Win32,243.9024390243686,,,,,,266.1995,286.0,0.0,266.19959999999406,286.0,,,,269.9407999999822,270.44059999999405,269.4366999999881,269.9406999999881,267.2035,269.436400000006,270.4406999999881,270.94050000000004,270.94050000000004,272.58659999999406,963.0,272.58659999999406,2.0,273.586400000006,0.0,23.0,23.0,7.0,1.0,1.2,0.7,Time
,,S57,1,m,20,anonymized,Serial_Dependence_U,2023.2.3,Win32,243.9024390243686,,,,,,273.5865,192.0,0.0,273.58659999999406,192.0,,,,277.353,277.852900000006,276.8525999999941,277.353,274.5866999999881,276.8525,277.852900000006,278.353,278.353,279.77700000000004,1072.0,279.77700000000004,2.0,280.778,0.0,24.0,24.0,22.0,1.0,1.2,0.3,Time
,,S57,1,m,20,anonymized,Serial_Dependence_U,2023.2.3,Win32,243.9024390243686,,,,,,280.7780999999941,245.0,0.0,280.7781999999881,245.0,,,,284.9131999999881,285.4111999999881,284.408900000006,284.9130999999941,281.775900000006,284.40879999998214,285.4111999999881,285.91109999999406,285.91109999999406,287.6141999999881,1316.0,287.6141999999881,2.0,288.61519999998814,0.0,25.0,25.0,19.0,1.0,1.6,0.7,Time
,,S57,1,m,20,anonymized,Serial_Dependence_U,2023.2.3,Win32,243.9024390243686,,,,,,288.615400000006,24.0,0.0,288.61550000000005,24.0,,,,292.586,293.086,292.08209999999406,292.585900000006,289.619400000006,292.081900000006,293.086,293.5856999999881,293.5856999999881,295.316900000006,1408.0,295.316900000006,3.0,296.31500000000005,0.0,26.0,26.0,3.0,1.0,1.4,0.3,Time
,,S57,1,m,20,anonymized,Serial_Dependence_U,2023.2.3,Win32,243.9024390243686,,,,,,296.3151999999881,183.0,0.0,296.3151999999881,183.0,,,,300.45229999998213,300.954,299.9502999999821,300.4521999999881,297.317,299.95009999999405,300.954,301.45229999998213,301.45229999998213,303.35,1380.0,303.35,2.0,304.34879999998213,0.0,27.0,27.0,29.0,1.0,1.6,0.7,Time
,,S57,1,m,20,anonymized,Serial_Dependence_U,2023.2.3,Win32,243.9024390243686,,,,,,304.34909999999405,235.0,0.0,304.34909999999405,235.0,,,,307.91650000000004,308.4161999999881,307.4126999999881,307.916400000006,305.3485,307.4125999999941,308.4161999999881,308.91329999998214,308.91329999998214,310.1876999999881,909.0,310.1876999999881,2.0,311.1871999999881,0.0,28.0,28.0,21.0,1.0,1.0,0.3,Time
,,S57,1,m,20,anonymized,Serial_Dependence_U,2023.2.3,Win32,243.9024390243686,,,,,,311.18729999998214,16.0,0.0,311.187400000006,16.0,,,,314.953900000006,315.45179999998214,314.45000000000005,314.9537999999821,312.18729999998214,314.449900000006,315.45179999998214,315.94500000000005,315.94509999999406,317.3915,1080.0,317.3915,2.0,318.3890999999941,0.0,29.0,29.0,2.0,1.0,1.2,0.3,Time
,,S57,1,m,20,anonymized,Serial_Dependence_U,2023.2.3,Win32,243.9024390243686,,,,,,318.38929999998214,217.0,1.0,323.8600999999941,217.0,s,5.462900000005959,,327.2320999999941,327.73079999998214,326.72859999999406,327.231900000006,324.866400000006,326.72859999999406,327.73079999998214,328.2326999999881,328.2326999999881,329.2056999999881,626.0,329.2056999999881,2.0,329.20579999998216,1.0,0.0,30.0,20.0,1.0,0.8,0.3,Time
,,S57,1,m,20,anonymized,Serial_Dependence_U,2023.2.3,Win32,243.9024390243686,,,,,,329.206,109.0,1.0,329.2065,109.0,,,,333.369900000006,333.86800000000005,332.8681999999881,333.3695999999941,330.20759999999404,332.86800000000005,333.86800000000005,334.3681999999881,334.3681999999881,335.65959999999404,496.0,335.65959999999404,1.0,335.6596999999881,1.0,1.0,31.0,14.0,1.0,1.6,0.3,Time
,,S57,1,m,20,anonymized,Serial_Dependence_U,2023.2.3,Win32,243.9024390243686,,,,,,335.65979999998217,311.0,1.0,335.66,311.0,,,,339.42650000000003,339.9262999999821,338.92429999998217,339.4262999999821,336.661900000006,338.9241999999881,339.9262999999821,340.427400000006,340.427400000006,341.82219999998813,963.0,341.82229999998214,2.0,341.82229999998214,1.0,2.0,32.0,12.0,1.0,1.2,0.3,Time
,,S57,1,m,20,anonymized,Serial_Dependence_U,2023.2.3,Win32,243.9024390243686,,,,,,341.82250000000005,30.0,1.0,341.82250000000005,30.0,,,,345.3886999999881,345.8886999999881,344.886400000006,345.3885,342.8231999999881,344.8860999999941,345.8887999999821,346.390400000006,346.390400000006,347.7677999999822,1010.0,347.7677999999822,3.0,347.767900000006,1.0,3.0,33.0,1.0,1.0,1.0,0.3,Time
,,S57,1,m,20,anonymized,Serial_Dependence_U,2023.2.3,Win32,243.9024390243686,,,,,,347.7680999999941,2.0,1.0,347.7681999999881,2.0,,,,351.7345999999941,352.2341999999881,351.23229999998216,351.734400000006,348.771900000006,351.2321999999881,352.2341999999881,352.7270999999941,352.7271999999881,354.386400000006,1188.0,354.386400000006,2.0,354.3865999999941,1.0,4.0,34.0,13.0,1.0,1.4,0.3,Time
,,S57,1,m,20,anonymized,Serial_Dependence_U,2023.2.3,Win32,243.9024390243686,,,,,,354.3866999999881,210.0,1.0,354.3866999999881,210.0,,,,358.52169999998813,359.021400000006,358.01759999999405,358.52159999999407,355.38550000000004,358.017400000006,359.021400000006,359.52159999999407,359.52159999999407,361.1547999999822,1284.0,361.1547999999822,2.0,361.154900000006,1.0,5.0,35.0,29.0,1.0,1.6,0.7,Time
,,S57,1,m,20,anonymized,Serial_Dependence_U,2023.2.3,Win32,243.9024390243686,,,,,,361.155,174.0,1.0,361.1550999999941,174.0,,,,364.4927999999821,364.99229999998215,363.9881999999881,364.4925,362.1550999999941,363.98809999999406,364.99229999998215,365.49229999998215,365.49229999998215,366.550400000006,763.0,366.550400000006,3.0,366.55059999999406,1.0,6.0,36.0,5.0,1.0,0.8,0.7,Time
,,S57,1,m,20,anonymized,Serial_Dependence_U,2023.2.3,Win32,243.9024390243686,,,,,,366.5506999999881,88.0,1.0,366.5507999999821,88.0,,,,370.1171999999881,370.6171999999881,369.6132999999821,370.1170999999941,367.5525,369.61309999999406,370.6171999999881,371.1170999999941,371.1170999999941,372.57950000000005,1036.0,372.57950000000005,3.0,372.5796999999881,1.0,7.0,37.0,21.0,1.0,1.0,0.3,Time
,,S57,1,m,20,anonymized,Serial_Dependence_U,2023.2.3,Win32,243.9024390243686,,,,,,372.5797999999821,53.0,1.0,372.579900000006,53.0,,,,375.946400000006,376.446,375.44209999999407,375.9461999999881,373.58159999999407,375.442,376.446,376.9435,376.9435,377.97729999998216,721.0,377.97729999998216,2.0,377.977400000006,1.0,8.0,38.0,0.0,1.0,0.8,0.3,Time
,,S57,1,m,20,anonymized,Serial_Dependence_U,2023.2.3,Win32,243.9024390243686,,,,,,377.9776999999881,217.0,1.0,377.9776999999881,217.0,,,,381.5462999999821,382.045900000006,381.042,381.54609999999406,378.979400000006,381.041900000006,382.045900000006,382.5456999999881,382.5456999999881,384.8645,883.0,384.8645,2.0,384.8645999999941,1.0,9.0,39.0,11.0,1.0,1.0,0.3,Time
,,S57,1,m,20,anonymized,Serial_Dependence_U,2023.2.3,Win32,243.9024390243686,,,,,,384.8646999999881,224.0,1.0,384.86479999998215,224.0,,,,388.1977999999821,388.6955999999941,387.69579999998217,388.1976999999881,385.86479999998215,387.6956999999881,388.6955999999941,389.1956999999881,389.1956999999881,391.162400000006,1130.0,391.162400000006,5.0,391.1625,1.0,10.0,40.0,15.0,1.0,0.8,0.7,Time
,,S57,1,m,20,anonymized,Serial_Dependence_U,2023.2.3,Win32,243.9024390243686,,,,,,391.1625999999941,351.0,1.0,391.16279999998216,351.0,,,,394.501400000006,394.9996999999881,393.996900000006,394.5010999999941,392.1645999999941,393.9966999999881,394.9996999999881,395.4996999999881,395.4996999999881,396.8351999999881,937.0,396.8351999999881,4.0,396.83529999998217,1.0,11.0,41.0,25.0,1.0,0.8,0.7,Time
,,S57,1,m,20,anonymized,Serial_Dependence_U,2023.2.3,Win32,243.9024390243686,,,,,,396.835400000006,45.0,1.0,396.8355999999941,45.0,,,,400.5747999999821,401.07459999999406,400.0706999999881,400.57459999999406,397.8375,400.0705999999941,401.0746999999881,401.57459999999406,401.57459999999406,403.9390999999941,1255.0,403.9390999999941,3.0,403.93929999998215,1.0,12.0,42.0,17.0,1.0,1.2,0.7,Time
,,S57,1,m,20,anonymized,Serial_Dependence_U,2023.2.3,Win32,243.9024390243686,,,,,,403.93929999998215,241.0,1.0,403.9395,241.0,,,,408.1076999999881,408.6091999999881,407.6056999999881,408.1075999999941,404.9432999999822,407.60559999999407,408.6091999999881,409.1075999999941,409.1075999999941,411.66729999998216,1420.0,411.66729999998216,2.0,411.667400000006,1.0,13.0,43.0,4.0,1.0,1.6,0.3,Time
,,S57,1,m,20,anonymized,Serial_Dependence_U,2023.2.3,Win32,243.9024390243686,,,,,,411.6675,45.0,1.0,411.6675999999941,45.0,,,,415.4051999999881,415.9045999999941,414.90400000000005,415.405,412.6662999999821,414.903900000006,415.9045999999941,416.4050999999941,416.4050999999941,418.24229999998215,1316.0,418.24229999998215,4.0,418.242400000006,1.0,14.0,44.0,27.0,1.0,1.2,0.7,Time
,,S57,1,m,20,anonymized,Serial_Dependence_U,2023.2.3,Win32,243.9024390243686,,,,,,418.2425,227.0,1.0,418.24259999999407,227.0,,,,422.004900000006,422.5030999999941,421.50250000000005,422.0046999999881,419.2407999999821,421.5022999999821,422.5031999999881,423.003,423.0030999999941,424.021,719.0,424.0210999999941,1.0,424.0211999999881,1.0,15.0,45.0,22.0,1.0,1.2,0.3,Time
,,S57,1,m,20,anonymized,Serial_Dependence_U,2023.2.3,Win32,243.9024390243686,,,,,,424.02129999998215,347.0,1.0,424.021400000006,347.0,,,,427.5571999999881,428.0571999999881,427.0562999999822,427.557,425.0220000000001,427.0560999999941,428.0571999999881,428.5571999999881,428.5571999999881,430.5320999999941,892.0,430.5320999999941,2.0,430.5321999999881,1.0,16.0,46.0,26.0,1.0,1.0,0.7,Time
,,S57,1,m,20,anonymized,Serial_Dependence_U,2023.2.3,Win32,243.9024390243686,,,,,,430.5322999999822,150.0,1.0,430.532400000006,150.0,,,,434.4695999999941,434.971,433.9672999999822,434.469400000006,431.53359999999407,433.9670999999941,434.97109999999407,435.4692999999821,435.4692999999821,437.3985,1508.0,437.3985,4.0,437.3985999999941,1.0,17.0,47.0,18.0,1.0,1.4,0.7,Time
,,S57,1,m,20,anonymized,Serial_Dependence_U,2023.2.3,Win32,243.9024390243686,,,,,,437.3986999999881,142.0,1.0,437.39879999998215,142.0,,,,441.5345,442.0330999999941,441.0335,441.534400000006,438.402900000006,441.03329999998215,442.0330999999941,442.53159999999406,442.5316999999881,444.0702999999821,1311.0,444.0702999999821,2.0,444.070400000006,1.0,18.0,48.0,9.0,1.0,1.6,0.7,Time
,,S57,1,m,20,anonymized,Serial_Dependence_U,2023.2.3,Win32,243.9024390243686,,,,,,444.0705,58.0,1.0,444.0705999999941,58.0,,,,448.010900000006,448.51079999998217,447.5066999999881,448.01079999998217,445.0755999999941,447.5065999999941,448.51079999998217,449.0105999999941,449.0106999999881,450.764900000006,1214.0,450.765,2.0,450.765,1.0,19.0,49.0,8.0,1.0,1.4,0.7,Time
,,S57,1,m,20,anonymized,Serial_Dependence_U,2023.2.3,Win32,243.9024390243686,,,,,,450.7650999999941,254.0,1.0,450.7651999999881,254.0,,,,454.9316999999881,455.4315999999941,454.4275,454.9315999999941,451.7660999999941,454.427400000006,455.4316999999881,455.9315,455.9315999999941,458.312400000006,1666.0,458.312400000006,3.0,458.31250000000006,1.0,20.0,50.0,24.0,1.0,1.6,0.3,Time
,,S57,1,m,20,anonymized,Serial_Dependence_U,2023.2.3,Win32,243.9024390243686,,,,,,458.31250000000006,1.0,1.0,458.31259999999406,1.0,,,,462.249900000006,462.7496999999881,461.7465999999941,462.2496999999881,459.31259999999406,461.7465,462.7496999999881,463.249400000006,463.2495,465.57909999999407,1754.0,465.5791999999881,4.0,465.5791999999881,1.0,21.0,51.0,28.0,1.0,1.4,0.7,Time
,,S57,1,m,20,anonymized,Serial_Dependence_U,2023.2.3,Win32,243.9024390243686,,,,,,465.5792999999821,258.0,1.0,465.579400000006,258.0,,,,469.5437999999821,470.040900000006,469.0395999999941,469.5436999999881,466.579,469.039400000006,470.040900000006,470.5392999999821,470.5392999999821,472.599900000006,1296.0,472.599900000006,2.0,472.6,1.0,22.0,52.0,3.0,1.0,1.4,0.3,Time
,,S57,1,m,20,anonymized,Serial_Dependence_U,2023.2.3,Win32,243.9024390243686,,,,,,472.6000999999941,288.0,1.0,472.60029999998216,288.0,,,,475.971400000006,476.4697999999822,475.4662999999821,475.9711999999881,473.6036999999881,475.46609999999407,476.4697999999822,476.97,476.97,478.4807999999821,917.0,478.4807999999821,4.0,478.4807999999821,1.0,23.0,53.0,10.0,1.0,0.8,0.3,Time
,,S57,1,m,20,anonymized,Serial_Dependence_U,2023.2.3,Win32,243.9024390243686,,,,,,478.480900000006,25.0,1.0,478.48109999999406,25.0,,,,482.0197999999821,482.5181999999881,481.5161999999881,482.0196999999881,479.482900000006,481.516,482.5181999999881,483.017400000006,483.017400000006,484.991900000006,1134.0,484.991900000006,4.0,484.992,1.0,24.0,54.0,6.0,1.0,1.0,0.7,Time
,,S57,1,m,20,anonymized,Serial_Dependence_U,2023.2.3,Win32,243.9024390243686,,,,,,484.9920999999941,175.0,1.0,484.99229999998215,175.0,,,,489.13259999999406,489.630400000006,488.6265,489.1325000000001,485.9946999999881,488.626400000006,489.630400000006,490.130400000006,490.130400000006,492.4956999999881,1715.0,492.4957999999821,4.0,492.495900000006,1.0,25.0,55.0,19.0,1.0,1.6,0.7,Time
,,S57,1,m,20,anonymized,Serial_Dependence_U,2023.2.3,Win32,243.9024390243686,,,,,,492.496,63.0,1.0,492.4961999999881,63.0,,,,496.238900000006,496.7385999999941,495.7346999999881,496.2386999999881,493.5010999999941,495.7345,496.7385999999941,497.238400000006,497.238400000006,499.8861999999881,1856.0,499.8861999999881,5.0,499.88629999998216,1.0,26.0,56.0,7.0,1.0,1.2,0.7,Time
,,S57,1,m,20,anonymized,Serial_Dependence_U,2023.2.3,Win32,243.9024390243686,,,,,,499.886400000006,249.0,1.0,499.8865999999941,249.0,,,,503.855400000006,504.35479999998216,503.35279999998215,503.85529999998215,500.8905,503.3526999999881,504.35479999998216,504.8550999999941,504.8550999999941,505.765400000006,567.0,505.7655,1.0,505.7655,1.0,27.0,57.0,23.0,1.0,1.4,0.3,Time
,,S57,1,m,20,anonymized,Serial_Dependence_U,2023.2.3,Win32,243.9024390243686,,,,,,505.7655999999941,245.0,1.0,505.7656999999881,245.0,,,,509.531599999994,510.0299000000059,509.028,509.5315,506.7650999999941,509.0277999999821,510.0299000000059,510.531400000006,510.531400000006,512.523599999994,1496.0,512.523599999994,4.0,512.523699999988,1.0,28.0,58.0,2.0,1.0,1.2,0.3,Time
,,S57,1,m,20,anonymized,Serial_Dependence_U,2023.2.3,Win32,243.9024390243686,,,,,,512.5239000000059,212.0,1.0,512.524,212.0,,,,516.071400000006,516.569599999994,515.5609999999999,516.071099999994,513.527599999994,515.560900000006,516.569599999994,517.068799999982,517.0689000000059,518.931900000006,1558.0,518.931900000006,5.0,518.932,1.0,29.0,59.0,16.0,1.0,1.0,0.7,Time
,,S57,1,m,20,anonymized,Serial_Dependence_U,2023.2.3,Win32,243.9024390243686,,,,,,518.932199999988,161.0,2.0,531.806099999994,161.0,s,12.868900000005963,,535.7727999999821,536.270599999994,535.268599999994,535.7727999999821,532.8075,535.2685,536.270599999994,536.770599999994,536.770599999994,538.5541999999881,1484.0,538.5541999999881,4.0,538.5541999999881,2.0,0.0,60.0,3.0,1.0,1.4,0.3,Time
,,S57,1,m,20,anonymized,Serial_Dependence_U,2023.2.3,Win32,243.9024390243686,,,,,,538.5544000000059,247.0,2.0,538.5549000000059,247.0,,,,542.691699999988,543.1915,542.1875999999941,542.691599999994,539.554299999982,542.1875,543.1915,543.6915,543.6915,545.8747999999821,1379.0,545.8749000000059,2.0,545.8749000000059,2.0,1.0,61.0,29.0,1.0,1.6,0.7,Time
,,S57,1,m,20,anonymized,Serial_Dependence_U,2023.2.3,Win32,243.9024390243686,,,,,,545.8750999999941,34.0,2.0,545.8750999999941,34.0,,,,549.2434999999999,549.741099999994,548.7412999999821,549.243400000006,546.878900000006,548.741199999988,549.741099999994,550.2429999999999,550.2429999999999,551.2537999999821,589.0,551.253900000006,2.0,551.253900000006,2.0,2.0,62.0,20.0,1.0,0.8,0.3,Time
,,S57,1,m,20,anonymized,Serial_Dependence_U,2023.2.3,Win32,243.9024390243686,,,,,,551.254,267.0,2.0,551.254099999994,267.0,,,,554.8245,555.322,554.322199999988,554.8244000000059,552.2597999999821,554.3220999999941,555.322,555.8217999999821,555.8217999999821,557.1514000000059,976.0,557.1514000000059,3.0,557.151599999994,2.0,3.0,63.0,11.0,1.0,1.0,0.3,Time
,,S57,1,m,20,anonymized,Serial_Dependence_U,2023.2.3,Win32,243.9024390243686,,,,,,557.1516999999881,210.0,2.0,557.1517999999821,210.0,,,,560.9204000000059,561.42,560.418099999994,560.920299999982,558.1556999999881,560.417900000006,561.42,561.917699999988,561.917699999988,563.4035,1025.0,563.4035,2.0,563.403599999994,2.0,4.0,64.0,22.0,1.0,1.2,0.3,Time
,,S57,1,m,20,anonymized,Serial_Dependence_U,2023.2.3,Win32,243.9024390243686,,,,,,563.403699999988,2.0,2.0,563.4037999999821,2.0,,,,567.5699999999999,568.0696999999881,567.068,567.569900000006,564.4035,567.0679000000059,568.0696999999881,568.570099999994,568.570099999994,570.778,1678.0,570.778,3.0,570.778099999994,2.0,5.0,65.0,24.0,1.0,1.6,0.3,Time
,,S57,1,m,20,anonymized,Serial_Dependence_U,2023.2.3,Win32,243.9024390243686,,,,,,570.778199999988,292.0,2.0,570.778400000006,292.0,,,,574.748900000006,575.248699999988,574.2449000000059,574.748900000006,571.7804000000059,574.2447999999821,575.2487999999821,575.749099999994,575.749199999988,577.684099999994,1462.0,577.684099999994,3.0,577.6841999999881,2.0,6.0,66.0,13.0,1.0,1.4,0.3,Time
,,S57,1,m,20,anonymized,Serial_Dependence_U,2023.2.3,Win32,243.9024390243686,,,,,,577.684299999982,204.0,2.0,577.6844000000059,204.0,,,,581.8196999999881,582.3194000000059,581.315400000006,581.8196999999881,578.6844000000059,581.3152999999821,582.3194000000059,582.819599999994,582.819599999994,584.990199999988,1695.0,584.990199999988,4.0,584.9902999999821,2.0,7.0,67.0,19.0,1.0,1.6,0.7,Time
,,S57,1,m,20,anonymized,Serial_Dependence_U,2023.2.3,Win32,243.9024390243686,,,,,,584.9904000000059,259.0,2.0,584.9905,259.0,,,,588.7276999999881,589.2232999999821,588.223599999994,588.7275,585.9905999999941,588.2235,589.2232999999821,589.721,589.721,591.3485,1350.0,591.3485,4.0,591.3486999999881,2.0,8.0,68.0,27.0,1.0,1.2,0.7,Time
,,S57,1,m,20,anonymized,Serial_Dependence_U,2023.2.3,Win32,243.9024390243686,,,,,,591.3486999999881,216.0,2.0,591.3487999999821,216.0,,,,594.915099999994,595.415099999994,594.411099999994,594.915,592.346699999988,594.411,595.415099999994,595.914799999982,595.914799999982,597.1482999999821,869.0,597.1482999999821,2.0,597.148400000006,2.0,9.0,69.0,21.0,1.0,1.0,0.3,Time
,,S57,1,m,20,anonymized,Serial_Dependence_U,2023.2.3,Win32,243.9024390243686,,,,,,597.148599999994,233.0,2.0,597.148599999994,233.0,,,,601.3149999999999,601.8147999999821,600.810900000006,601.3149000000059,598.148699999988,600.810900000006,601.8147999999821,602.3145,602.314599999994,603.8731999999881,1413.0,603.8731999999881,2.0,603.873400000006,2.0,10.0,70.0,14.0,1.0,1.6,0.3,Time
,,S57,1,m,20,anonymized,Serial_Dependence_U,2023.2.3,Win32,243.9024390243686,,,,,,603.8734999999999,292.0,2.0,603.873599999994,292.0,,,,607.2064000000059,607.7064000000059,606.704099999994,607.2062999999821,604.873400000006,606.7039000000059,607.7064000000059,608.2064000000059,608.2064000000059,609.279199999988,665.0,609.279199999988,2.0,609.2792999999821,2.0,11.0,71.0,5.0,1.0,0.8,0.7,Time
,,S57,1,m,20,anonymized,Serial_Dependence_U,2023.2.3,Win32,243.9024390243686,,,,,,609.2794000000059,179.0,2.0,609.2795,179.0,,,,612.8162999999821,613.3159999999999,612.3122999999821,612.816199999988,610.2814999999999,612.312099999994,613.3159999999999,613.815900000006,613.815900000006,615.265799999982,1316.0,615.2659000000059,5.0,615.266,2.0,12.0,72.0,6.0,1.0,1.0,0.7,Time
,,S57,1,m,20,anonymized,Serial_Dependence_U,2023.2.3,Win32,243.9024390243686,,,,,,615.266,176.0,2.0,615.266099999994,176.0,,,,619.032900000006,619.532599999994,618.5289000000059,619.0327999999821,616.266299999982,618.528699999988,619.532599999994,620.0306999999881,620.0306999999881,621.312099999994,990.0,621.312099999994,2.0,621.312099999994,2.0,13.0,73.0,2.0,1.0,1.2,0.3,Time
,,S57,1,m,20,anonymized,Serial_Dependence_U,2023.2.3,Win32,243.9024390243686,,,,,,621.3122999999821,67.0,2.0,621.3124000000059,67.0,,,,624.6757999999821,625.174099999994,624.174599999994,624.6756999999881,622.311900000006,624.1744000000059,625.174099999994,625.672400000006,625.672400000006,627.058199999988,1141.0,627.058199999988,5.0,627.058199999988,2.0,14.0,74.0,10.0,1.0,0.8,0.3,Time
,,S57,1,m,20,anonymized,Serial_Dependence_U,2023.2.3,Win32,243.9024390243686,,,,,,627.0584000000059,324.0,2.0,627.0585,324.0,,,,631.2255,631.726199999988,630.720199999988,631.225400000006,628.057699999988,630.720099999994,631.7262999999821,632.226599999994,632.226599999994,633.8887999999821,1423.0,633.888900000006,2.0,633.889099999994,2.0,15.0,75.0,4.0,1.0,1.6,0.3,Time
,,S57,1,m,20,anonymized,Serial_Dependence_U,2023.2.3,Win32,243.9024390243686,,,,,,633.889199999988,273.0,2.0,633.8892999999821,273.0,,,,637.2324000000059,637.730599999994,636.7286999999881,637.232299999982,634.895099999994,636.728599999994,637.730599999994,638.230400000006,638.230400000006,639.961699999988,1400.0,639.961699999988,5.0,639.961699999988,2.0,16.0,76.0,15.0,1.0,0.8,0.7,Time
,,S57,1,m,20,anonymized,Serial_Dependence_U,2023.2.3,Win32,243.9024390243686,,,,,,639.9617999999821,245.0,2.0,639.9619000000059,245.0,,,,643.3269000000059,643.8270999999941,642.824599999994,643.3267999999821,640.9615,642.8245,643.8270999999941,644.3265,644.3265,645.9469000000059,1321.0,645.9469000000059,5.0,645.947,2.0,17.0,77.0,0.0,1.0,0.8,0.3,Time
,,S57,1,m,20,anonymized,Serial_Dependence_U,2023.2.3,Win32,243.9024390243686,,,,,,645.9470999999941,224.0,2.0,645.9472999999821,224.0,,,,649.920900000006,650.4217999999821,649.4159000000059,649.9206999999881,646.951099999994,649.4156999999881,650.4217999999821,650.921599999994,650.921599999994,652.9465,1813.0,652.9465,4.0,652.946599999994,2.0,18.0,78.0,23.0,1.0,1.4,0.3,Time
,,S57,1,m,20,anonymized,Serial_Dependence_U,2023.2.3,Win32,243.9024390243686,,,,,,652.946699999988,36.0,2.0,652.9467999999821,36.0,,,,656.481699999988,656.981199999988,655.9776999999881,656.481599999994,653.946699999988,655.977599999994,656.981199999988,657.4814000000059,657.4814000000059,659.3529000000059,1662.0,659.3529000000059,5.0,659.353,2.0,19.0,79.0,26.0,1.0,1.0,0.7,Time
,,S57,1,m,20,anonymized,Serial_Dependence_U,2023.2.3,Win32,243.9024390243686,,,,,,659.353099999994,314.0,2.0,659.3531999999881,314.0,,,,662.9164999999999,663.4187999999821,662.4151999999881,662.916400000006,660.3537999999821,662.415099999994,663.4187999999821,663.9172999999821,663.9172999999821,665.627099999994,1461.0,665.627099999994,5.0,665.6271999999881,2.0,20.0,80.0,1.0,1.0,1.0,0.3,Time
,,S57,1,m,20,anonymized,Serial_Dependence_U,2023.2.3,Win32,243.9024390243686,,,,,,665.6274000000059,315.0,2.0,665.6274999999999,315.0,,,,669.5644000000059,670.0627999999821,669.061900000006,669.564299999982,666.6274999999999,669.061699999988,670.0627999999821,670.560099999994,670.560099999994,672.632900000006,1767.0,672.6329999999999,4.0,672.6329999999999,2.0,21.0,81.0,8.0,1.0,1.4,0.7,Time
,,S57,1,m,20,anonymized,Serial_Dependence_U,2023.2.3,Win32,243.9024390243686,,,,,,672.633199999988,193.0,2.0,672.6332999999821,193.0,,,,676.5724000000059,677.070900000006,676.069,676.5722999999821,673.6377999999821,676.0689000000059,677.070900000006,677.571400000006,677.571400000006,679.5974000000059,1760.0,679.5975,4.0,679.597599999994,2.0,22.0,82.0,28.0,1.0,1.4,0.7,Time
,,S57,1,m,20,anonymized,Serial_Dependence_U,2023.2.3,Win32,243.9024390243686,,,,,,679.5976999999881,339.0,2.0,679.597799999982,339.0,,,,683.334900000006,683.833299999982,682.829599999994,683.334599999994,680.597599999994,682.8294000000059,683.833299999982,684.3334000000059,684.3334000000059,686.3999000000059,1537.0,686.3999000000059,4.0,686.4,2.0,23.0,83.0,7.0,1.0,1.2,0.7,Time
,,S57,1,m,20,anonymized,Serial_Dependence_U,2023.2.3,Win32,243.9024390243686,,,,,,686.4,134.0,2.0,686.400099999994,134.0,,,,689.937699999988,690.437199999988,689.4352999999821,689.9375,687.404199999988,689.4351999999881,690.437199999988,690.9372999999821,690.9374000000059,692.9639000000059,1691.0,692.9639000000059,5.0,692.9639000000059,2.0,24.0,84.0,16.0,1.0,1.0,0.7,Time
,,S57,1,m,20,anonymized,Serial_Dependence_U,2023.2.3,Win32,243.9024390243686,,,,,,692.964099999994,82.0,2.0,692.9641999999881,82.0,,,,696.6954999999999,697.1951999999881,696.193199999988,696.695400000006,693.962599999994,696.193199999988,697.1951999999881,697.6970999999941,697.6970999999941,699.6472999999821,1566.0,699.6472999999821,5.0,699.647400000006,2.0,25.0,85.0,17.0,1.0,1.2,0.7,Time
,,S57,1,m,20,anonymized,Serial_Dependence_U,2023.2.3,Win32,243.9024390243686,,,,,,699.6474999999999,173.0,2.0,699.647599999994,173.0,,,,703.4185,703.917900000006,702.914199999988,703.4184000000059,700.651599999994,702.914,703.917900000006,704.4159999999999,704.416099999994,706.2474000000059,1438.0,706.2474000000059,4.0,706.2474000000059,2.0,26.0,86.0,12.0,1.0,1.2,0.3,Time
,,S57,1,m,20,anonymized,Serial_Dependence_U,2023.2.3,Win32,243.9024390243686,,,,,,706.247599999994,347.0,2.0,706.247599999994,347.0,,,,709.5765,710.0741999999881,709.0762999999821,709.576400000006,707.245599999994,709.076099999994,710.0741999999881,710.571699999988,710.571699999988,712.0595,1098.0,712.059599999994,5.0,712.0596999999881,2.0,27.0,87.0,25.0,1.0,0.8,0.7,Time
,,S57,1,m,20,anonymized,Serial_Dependence_U,2023.2.3,Win32,243.9024390243686,,,,,,712.0597999999821,240.0,2.0,712.0599000000059,240.0,,,,716.193099999994,716.6922999999821,715.690900000006,716.1929000000059,713.0577999999821,715.6907999999821,716.6922999999821,717.1924000000059,717.1924000000059,718.879,1398.0,718.879,2.0,718.879199999988,2.0,28.0,88.0,9.0,1.0,1.6,0.7,Time
,,S57,1,m,20,anonymized,Serial_Dependence_U,2023.2.3,Win32,243.9024390243686,,,,,,718.8792999999821,139.0,2.0,718.8792999999821,139.0,,,,722.8175,723.3167999999821,722.3135,722.8172999999821,719.8799000000059,722.3132999999821,723.316900000006,723.8151999999881,723.8151999999881,725.526,1387.0,725.526,3.0,725.526099999994,2.0,29.0,89.0,18.0,1.0,1.4,0.7,Time
,,S57,1,m,20,anonymized,Serial_Dependence_U,2023.2.3,Win32,243.9024390243686,,,,,,725.5261999999881,32.0,3.0,841.166699999988,32.0,s,115.63429999998208,,844.937199999988,845.434599999994,844.433199999988,844.937099999994,842.172699999988,844.433099999994,845.434599999994,845.932699999988,845.9327999999821,847.3224000000059,1089.0,847.3225,2.0,847.3225,3.0,0.0,90.0,2.0,1.0,1.2,0.3,Time
,,S57,1,m,20,anonymized,Serial_Dependence_U,2023.2.3,Win32,243.9024390243686,,,,,,847.322599999994,110.0,3.0,847.3234000000059,110.0,,,,851.458099999994,851.957699999988,850.953799999982,851.458,848.320900000006,850.9536999999881,851.957699999988,852.458,852.458,854.255699999988,1450.0,854.255699999988,2.0,854.2557999999821,3.0,1.0,91.0,29.0,1.0,1.6,0.7,Time
,,S57,1,m,20,anonymized,Serial_Dependence_U,2023.2.3,Win32,243.9024390243686,,,,,,854.2559000000059,267.0,3.0,854.256,267.0,,,,857.818,858.3159999999999,857.316199999988,857.8179000000059,855.255699999988,857.316099999994,858.3159999999999,858.815900000006,858.815900000006,860.3051999999881,1079.0,860.3051999999881,4.0,860.3052999999821,3.0,2.0,92.0,11.0,1.0,1.0,0.3,Time
,,S57,1,m,20,anonymized,Serial_Dependence_U,2023.2.3,Win32,243.9024390243686,,,,,,860.305400000006,292.0,3.0,860.3054999999999,292.0,,,,863.840900000006,864.3407999999821,863.3365999999941,863.8407999999821,861.305099999994,863.3365,864.3407999999821,864.840699999988,864.8407999999821,866.7742999999821,1563.0,866.7744000000059,5.0,866.7745,3.0,3.0,93.0,6.0,1.0,1.0,0.7,Time
,,S57,1,m,20,anonymized,Serial_Dependence_U,2023.2.3,Win32,243.9024390243686,,,,,,866.774599999994,150.0,3.0,866.774699999988,150.0,,,,870.513199999988,871.0114000000059,870.0097999999821,870.513199999988,867.776,870.009699999988,871.0114000000059,871.5115,871.5115,873.3467999999821,1318.0,873.3467999999821,4.0,873.3467999999821,3.0,4.0,94.0,17.0,1.0,1.2,0.7,Time
,,S57,1,m,20,anonymized,Serial_Dependence_U,2023.2.3,Win32,243.9024390243686,,,,,,873.347,160.0,3.0,873.347099999994,160.0,,,,877.0799999999999,877.5797999999821,876.578299999982,877.0797999999821,874.3467999999821,876.5781999999881,877.5797999999821,878.0797999999821,878.079900000006,878.526,103.0,878.526,1.0,878.526099999994,3.0,5.0,95.0,27.0,1.0,1.2,0.7,Time
,,S57,1,m,20,anonymized,Serial_Dependence_U,2023.2.3,Win32,243.9024390243686,,,,,,878.5261999999881,343.0,3.0,878.5262999999821,343.0,,,,882.6925999999941,883.190400000006,882.1885,882.6925999999941,879.526099999994,882.1882999999821,883.190400000006,883.6877999999821,883.6877999999821,885.509,1295.0,885.509,2.0,885.509099999994,3.0,6.0,96.0,14.0,1.0,1.6,0.3,Time
,,S57,1,m,20,anonymized,Serial_Dependence_U,2023.2.3,Win32,243.9024390243686,,,,,,885.509199999988,274.0,3.0,885.509199999988,274.0,,,,888.873900000006,889.373400000006,888.3692999999821,888.873699999988,886.509,888.369199999988,889.3734999999999,889.875,889.875,891.240099999994,876.0,891.240099999994,4.0,891.240199999988,3.0,7.0,97.0,10.0,1.0,0.8,0.3,Time
,,S57,1,m,20,anonymized,Serial_Dependence_U,2023.2.3,Win32,243.9024390243686,,,,,,891.2404000000059,331.0,3.0,891.2405,331.0,,,,895.412699999988,895.9109000000059,894.9089000000059,895.4125,892.2445,894.9087999999821,895.9109000000059,896.4107999999821,896.4107999999821,898.3107999999821,1472.0,898.3107999999821,2.0,898.310900000006,3.0,8.0,98.0,4.0,1.0,1.6,0.3,Time
,,S57,1,m,20,anonymized,Serial_Dependence_U,2023.2.3,Win32,243.9024390243686,,,,,,898.311099999994,232.0,3.0,898.311099999994,232.0,,,,902.045900000006,902.544,901.544299999982,902.045799999982,899.312699999988,901.544099999994,902.544,903.042199999988,903.042199999988,904.677400000006,1293.0,904.677400000006,4.0,904.677400000006,3.0,9.0,99.0,7.0,1.0,1.2,0.7,Time
,,S57,1,m,20,anonymized,Serial_Dependence_U,2023.2.3,Win32,243.9024390243686,,,,,,904.6775,268.0,3.0,904.677599999994,268.0,,,,908.017699999988,908.516299999982,907.512699999988,908.0175,905.6815,907.512400000006,908.516299999982,909.016299999982,909.016299999982,910.503799999982,1213.0,910.503799999982,5.0,910.503900000006,3.0,10.0,100.0,25.0,1.0,0.8,0.7,Time
,,S57,1,m,20,anonymized,Serial_Dependence_U,2023.2.3,Win32,243.9024390243686,,,,,,910.504,334.0,3.0,910.504099999994,334.0,,,,914.069,914.568599999994,913.5665,914.068900000006,911.503599999994,913.5665,914.568599999994,915.068599999994,915.068699999988,916.468599999994,1180.0,916.468599999994,4.0,916.468699999988,3.0,11.0,101.0,1.0,1.0,1.0,0.3,Time
,,S57,1,m,20,anonymized,Serial_Dependence_U,2023.2.3,Win32,243.9024390243686,,,,,,916.468799999982,212.0,3.0,916.469,212.0,,,,920.407799999982,920.907599999994,919.906199999988,920.407699999988,917.473,919.906199999988,920.907599999994,921.407299999982,921.407299999982,923.282299999982,1595.0,923.282299999982,4.0,923.2825,3.0,12.0,102.0,18.0,1.0,1.4,0.7,Time
,,S57,1,m,20,anonymized,Serial_Dependence_U,2023.2.3,Win32,243.9024390243686,,,,,,923.282599999994,76.0,3.0,923.282699999988,76.0,,,,926.624400000006,927.118199999988,926.118400000006,926.624299999982,924.287099999994,926.118199999988,927.118299999982,927.616199999988,927.616199999988,929.2005,1210.0,929.2005,5.0,929.200599999994,3.0,13.0,103.0,5.0,1.0,0.8,0.7,Time
,,S57,1,m,20,anonymized,Serial_Dependence_U,2023.2.3,Win32,243.9024390243686,,,,,,929.200699999988,226.0,3.0,929.200900000006,226.0,,,,933.372299999982,933.872099999994,932.870299999982,933.372199999988,930.207699999988,932.870199999988,933.872199999988,934.372099999994,934.372099999994,936.549400000006,1831.0,936.549400000006,4.0,936.5495,3.0,14.0,104.0,24.0,1.0,1.6,0.3,Time
,,S57,1,m,20,anonymized,Serial_Dependence_U,2023.2.3,Win32,243.9024390243686,,,,,,936.549699999988,129.0,3.0,936.549699999988,129.0,,,,940.0865,940.584699999988,939.582699999988,940.086400000006,937.549099999994,939.5825,940.584699999988,941.084400000006,941.084400000006,942.986699999988,1604.0,942.986699999988,5.0,942.986799999982,3.0,15.0,105.0,26.0,1.0,1.0,0.7,Time
,,S57,1,m,20,anonymized,Serial_Dependence_U,2023.2.3,Win32,243.9024390243686,,,,,,942.986900000006,328.0,3.0,942.987,328.0,,,,946.323599999994,946.821799999982,945.820599999994,946.3235,943.986199999988,945.8205,946.821799999982,947.323099999994,947.323099999994,948.913599999994,1292.0,948.913799999982,5.0,948.913900000006,3.0,16.0,106.0,15.0,1.0,0.8,0.7,Time
,,S57,1,m,20,anonymized,Serial_Dependence_U,2023.2.3,Win32,243.9024390243686,,,,,,948.914,251.0,3.0,948.914199999988,251.0,,,,952.684299999982,953.184299999982,952.182400000006,952.684099999994,949.919599999994,952.182199999988,953.184299999982,953.685799999982,953.685900000006,955.417400000006,1560.0,955.417400000006,5.0,955.4175,3.0,17.0,107.0,12.0,1.0,1.2,0.3,Time
,,S57,1,m,20,anonymized,Serial_Dependence_U,2023.2.3,Win32,243.9024390243686,,,,,,955.417599999994,74.0,3.0,955.417699999988,74.0,,,,959.352099999994,959.8505,958.848599999994,959.352099999994,956.415599999994,958.8485,959.8505,960.350599999994,960.350599999994,962.152799999982,1480.0,962.152799999982,4.0,962.152900000006,3.0,18.0,108.0,8.0,1.0,1.4,0.7,Time
,,S57,1,m,20,anonymized,Serial_Dependence_U,2023.2.3,Win32,243.9024390243686,,,,,,962.153099999994,13.0,3.0,962.153199999988,13.0,,,,966.288299999982,966.788,965.784,966.288199999988,963.152699999988,965.783900000006,966.788,967.287900000006,967.287900000006,969.246299999982,1623.0,969.246299999982,3.0,969.246400000006,3.0,19.0,109.0,9.0,1.0,1.6,0.7,Time
,,S57,1,m,20,anonymized,Serial_Dependence_U,2023.2.3,Win32,243.9024390243686,,,,,,969.246599999994,277.0,3.0,969.246599999994,277.0,,,,973.213299999982,973.712799999982,972.7115,973.213,970.248199999988,972.711400000006,973.712799999982,974.212900000006,974.212900000006,976.069099999994,1575.0,976.069099999994,4.0,976.069199999988,3.0,20.0,110.0,23.0,1.0,1.4,0.3,Time
,,S57,1,m,20,anonymized,Serial_Dependence_U,2023.2.3,Win32,243.9024390243686,,,,,,976.069299999982,89.0,3.0,976.069299999982,89.0,,,,980.030199999988,980.529099999994,979.5295,980.03,977.068299999982,979.529400000006,980.529199999988,981.029299999982,981.029299999982,982.597900000006,1324.0,982.598,2.0,982.598,3.0,21.0,111.0,13.0,1.0,1.4,0.3,Time
,,S57,1,m,20,anonymized,Serial_Dependence_U,2023.2.3,Win32,243.9024390243686,,,,,,982.598199999988,178.0,3.0,982.598299999982,178.0,,,,986.129400000006,986.629,985.627099999994,986.129199999988,983.596199999988,985.627,986.629,987.128900000006,987.128900000006,988.870699999988,1392.0,988.870699999988,5.0,988.870900000006,3.0,22.0,112.0,16.0,1.0,1.0,0.7,Time
,,S57,1,m,20,anonymized,Serial_Dependence_U,2023.2.3,Win32,243.9024390243686,,,,,,988.871,257.0,3.0,988.871099999994,257.0,,,,992.836299999982,993.333199999988,992.335099999994,992.836199999988,989.870900000006,992.335,993.333199999988,993.834900000006,993.834900000006,995.730799999982,1408.0,995.730799999982,3.0,995.730900000006,3.0,23.0,113.0,3.0,1.0,1.4,0.3,Time
,,S57,1,m,20,anonymized,Serial_Dependence_U,2023.2.3,Win32,243.9024390243686,,,,,,995.731,190.0,3.0,995.731099999994,190.0,,,,999.673599999994,1000.173299999982,999.168400000006,999.673400000006,996.734900000006,999.168199999988,1000.173299999982,1000.671900000006,1000.671900000006,1002.780699999988,1808.0,1002.780699999988,4.0,1002.780900000006,3.0,24.0,114.0,28.0,1.0,1.4,0.7,Time
,,S57,1,m,20,anonymized,Serial_Dependence_U,2023.2.3,Win32,243.9024390243686,,,,,,1002.780900000006,143.0,3.0,1002.781,143.0,,,,1006.347299999982,1006.850599999994,1005.843199999988,1006.347199999988,1003.780400000006,1005.843099999994,1006.850599999994,1007.351699999988,1007.351699999988,1008.380400000006,741.0,1008.380400000006,2.0,1008.380400000006,3.0,25.0,115.0,21.0,1.0,1.0,0.3,Time
,,S57,1,m,20,anonymized,Serial_Dependence_U,2023.2.3,Win32,243.9024390243686,,,,,,1008.380599999994,284.0,3.0,1008.380699999988,284.0,,,,1012.516,1013.016099999994,1012.011799999982,1012.515900000006,1009.3805,1012.011699999988,1013.016099999994,1013.515699999988,1013.515799999982,1015.547400000006,1746.0,1015.5475,4.0,1015.547599999994,3.0,26.0,116.0,19.0,1.0,1.6,0.7,Time
,,S57,1,m,20,anonymized,Serial_Dependence_U,2023.2.3,Win32,243.9024390243686,,,,,,1015.547599999994,160.0,3.0,1015.547699999988,160.0,,,,1018.911699999988,1019.408799999982,1018.4095,1018.911599999994,1016.547400000006,1018.4092999999822,1019.408799999982,1019.908900000006,1019.908900000006,1020.7845,554.0,1020.784599999994,1.0,1020.784699999988,3.0,27.0,117.0,0.0,1.0,0.8,0.3,Time
,,S57,1,m,20,anonymized,Serial_Dependence_U,2023.2.3,Win32,243.9024390243686,,,,,,1020.7847999999822,210.0,3.0,1020.784900000006,210.0,,,,1024.553400000006,1025.0530999999942,1024.049099999994,1024.5532999999823,1021.786699999988,1024.049,1025.0530999999942,1025.5530999999942,1025.5530999999942,1026.893,1146.0,1026.893,3.0,1026.893099999994,3.0,28.0,118.0,22.0,1.0,1.2,0.3,Time
,,S57,1,m,20,anonymized,Serial_Dependence_U,2023.2.3,Win32,243.9024390243686,,,,,,1026.8931999999882,224.0,3.0,1026.8932999999822,224.0,,,,1030.2631999999885,1030.7625,1029.7592999999822,1030.2630999999942,1027.896900000006,1029.759199999988,1030.7625,1031.2610000000002,1031.2610000000002,1032.0922999999823,511.0,1032.0922999999823,1.0,1032.092400000006,3.0,29.0,119.0,20.0,1.0,0.8,0.3,Time
,,S57,1,m,20,anonymized,Serial_Dependence_U,2023.2.3,Win32,243.9024390243686,,,,,,1032.0925,168.0,4.0,1317.4257999999822,168.0,s,285.327,,1321.5617999999822,1322.058900000006,1321.0615,1321.5616999999882,1318.4302999999825,1321.061400000006,1322.058900000006,1322.558900000006,1322.558900000006,1324.686299999982,1838.0,1324.686299999982,4.0,1324.6865,4.0,0.0,120.0,19.0,1.0,1.6,0.7,Time
,,S57,1,m,20,anonymized,Serial_Dependence_U,2023.2.3,Win32,243.9024390243686,,,,,,1324.686599999994,170.0,4.0,1324.6872999999823,170.0,,,,1328.2255,1328.7255,1327.724199999988,1328.2255,1325.6905000000002,1327.7240000000002,1328.7255,1329.2236999999882,1329.2236999999882,1331.017099999994,1371.0,1331.0171999999882,5.0,1331.0172999999822,4.0,1.0,121.0,16.0,1.0,1.0,0.7,Time
,,S57,1,m,20,anonymized,Serial_Dependence_U,2023.2.3,Win32,243.9024390243686,,,,,,1331.017400000006,208.0,4.0,1331.0175000000002,208.0,,,,1334.382099999994,1334.881799999982,1333.8780000000002,1334.382,1332.0155,1333.877900000006,1334.881799999982,1335.381699999988,1335.381699999988,1336.323699999988,629.0,1336.323699999988,2.0,1336.3237999999822,4.0,2.0,122.0,20.0,1.0,0.8,0.3,Time
,,S57,1,m,20,anonymized,Serial_Dependence_U,2023.2.3,Win32,243.9024390243686,,,,,,1336.324,27.0,4.0,1336.324099999994,27.0,,,,1339.6585,1340.158400000006,1339.156900000006,1339.658400000006,1337.3255999999942,1339.156900000006,1340.158400000006,1340.657900000006,1340.658,1342.469099999994,1402.0,1342.469099999994,5.0,1342.469099999994,4.0,3.0,123.0,5.0,1.0,0.8,0.7,Time
,,S57,1,m,20,anonymized,Serial_Dependence_U,2023.2.3,Win32,243.9024390243686,,,,,,1342.4692999999822,166.0,4.0,1342.4692999999822,166.0,,,,1346.437900000006,1346.935599999994,1345.9335,1346.437699999988,1343.4692999999822,1345.933400000006,1346.935599999994,1347.437400000006,1347.437400000006,1349.177299999982,1251.0,1349.177299999982,2.0,1349.177400000006,4.0,4.0,124.0,23.0,1.0,1.4,0.3,Time
,,S57,1,m,20,anonymized,Serial_Dependence_U,2023.2.3,Win32,243.9024390243686,,,,,,1349.1775,221.0,4.0,1349.177599999994,221.0,,,,1352.712900000006,1353.213199999988,1352.2126999999882,1352.7127999999825,1350.1791999999882,1352.2125999999942,1353.213199999988,1353.712199999988,1353.712199999988,1355.5835000000002,1525.0,1355.5835000000002,5.0,1355.5835000000002,4.0,5.0,125.0,26.0,1.0,1.0,0.7,Time
,,S57,1,m,20,anonymized,Serial_Dependence_U,2023.2.3,Win32,243.9024390243686,,,,,,1355.583699999988,173.0,4.0,1355.583799999982,173.0,,,,1358.944099999994,1359.445199999988,1358.4437999999825,1358.9440000000002,1356.581599999994,1358.443599999994,1359.445199999988,1359.945299999982,1359.945299999982,1360.933199999988,695.0,1360.933199999988,2.0,1360.933400000006,4.0,6.0,126.0,0.0,1.0,0.8,0.3,Time
,,S57,1,m,20,anonymized,Serial_Dependence_U,2023.2.3,Win32,243.9024390243686,,,,,,1360.933400000006,62.0,4.0,1360.9335,62.0,,,,1365.070199999988,1365.568400000006,1364.5665999999942,1365.0700000000002,1361.9335,1364.566400000006,1365.568400000006,1366.0685,1366.0685,1367.9405999999942,1762.0,1367.940699999988,4.0,1367.940699999988,4.0,7.0,127.0,29.0,1.0,1.6,0.7,Time
,,S57,1,m,20,anonymized,Serial_Dependence_U,2023.2.3,Win32,243.9024390243686,,,,,,1367.940799999982,233.0,4.0,1367.940900000006,233.0,,,,1371.511900000006,1372.010099999994,1371.008,1371.5117999999825,1368.9437999999825,1371.007799999982,1372.010099999994,1372.5115,1372.5115,1374.183099999994,1229.0,1374.183099999994,4.0,1374.183099999994,4.0,8.0,128.0,11.0,1.0,1.0,0.3,Time
,,S57,1,m,20,anonymized,Serial_Dependence_U,2023.2.3,Win32,243.9024390243686,,,,,,1374.183199999988,193.0,4.0,1374.183400000006,193.0,,,,1378.1536999999882,1378.6512999999825,1377.649599999994,1378.1535,1375.1870999999942,1377.649599999994,1378.6512999999825,1379.153,1379.153,1380.7367999999822,1244.0,1380.736900000006,2.0,1380.736900000006,4.0,9.0,129.0,13.0,1.0,1.4,0.3,Time
,,S57,1,m,20,anonymized,Serial_Dependence_U,2023.2.3,Win32,243.9024390243686,,,,,,1380.737,169.0,4.0,1380.7371999999882,169.0,,,,1384.8741999999882,1385.3736999999885,1384.369900000006,1384.874,1381.736699999988,1384.369900000006,1385.3736999999885,1385.8736999999885,1385.873799999982,1388.103400000006,1778.0,1388.103400000006,4.0,1388.1035999999942,4.0,10.0,130.0,9.0,1.0,1.6,0.7,Time
,,S57,1,m,20,anonymized,Serial_Dependence_U,2023.2.3,Win32,243.9024390243686,,,,,,1388.1035999999942,46.0,4.0,1388.103799999982,46.0,,,,1391.6697999999822,1392.167599999994,1391.1667999999822,1391.669699999988,1389.104099999994,1391.1666999999882,1392.167599999994,1392.668,1392.668,1393.949,936.0,1393.949,2.0,1393.949099999994,4.0,11.0,131.0,1.0,1.0,1.0,0.3,Time
,,S57,1,m,20,anonymized,Serial_Dependence_U,2023.2.3,Win32,243.9024390243686,,,,,,1393.9491999999882,274.0,4.0,1393.9491999999882,274.0,,,,1397.716599999994,1398.213599999994,1397.2115,1397.7165,1394.9487999999822,1397.2112999999822,1398.213599999994,1398.7106999999885,1398.7106999999885,1400.4135,1504.0,1400.4135,4.0,1400.4135999999942,4.0,12.0,132.0,12.0,1.0,1.2,0.3,Time
,,S57,1,m,20,anonymized,Serial_Dependence_U,2023.2.3,Win32,243.9024390243686,,,,,,1400.4136999999882,116.0,4.0,1400.4137999999823,116.0,,,,1404.3467999999823,1404.843799999982,1403.8445000000002,1404.3466999999882,1401.4135,1403.844400000006,1404.843799999982,1405.3422999999823,1405.3422999999823,1406.9619000000062,1307.0,1406.9619000000062,2.0,1406.962,4.0,13.0,133.0,18.0,1.0,1.4,0.7,Time
,,S57,1,m,20,anonymized,Serial_Dependence_U,2023.2.3,Win32,243.9024390243686,,,,,,1406.962099999994,305.0,4.0,1406.962199999988,305.0,,,,1410.8990999999942,1411.399,1410.3965,1410.898900000006,1407.9647999999822,1410.396400000006,1411.399,1411.8977999999822,1411.897900000006,1413.935900000006,1783.0,1413.935900000006,4.0,1413.936,4.0,14.0,134.0,28.0,1.0,1.4,0.7,Time
,,S57,1,m,20,anonymized,Serial_Dependence_U,2023.2.3,Win32,243.9024390243686,,,,,,1413.9360999999942,2.0,4.0,1413.9361999999885,2.0,,,,1417.3066999999885,1417.804599999994,1416.802299999982,1417.3065999999942,1414.94,1416.8020999999942,1417.804599999994,1418.3045000000002,1418.3045000000002,1419.6836999999882,1183.0,1419.6836999999882,5.0,1419.6836999999882,4.0,15.0,135.0,10.0,1.0,0.8,0.3,Time
,,S57,1,m,20,anonymized,Serial_Dependence_U,2023.2.3,Win32,243.9024390243686,,,,,,1419.6837999999825,46.0,4.0,1419.683900000006,46.0,,,,1423.023,1423.522599999994,1422.519400000006,1423.023,1420.6880999999942,1422.5192999999822,1423.5226999999882,1424.023699999988,1424.023699999988,1425.6835,1300.0,1425.6835999999942,5.0,1425.6836999999882,4.0,16.0,136.0,15.0,1.0,0.8,0.7,Time
,,S57,1,m,20,anonymized,Serial_Dependence_U,2023.2.3,Win32,243.9024390243686,,,,,,1425.6837999999825,177.0,4.0,1425.683900000006,177.0,,,,1429.423,1429.9225,1428.9187999999822,1429.422900000006,1426.687699999988,1428.918599999994,1429.9225,1430.420799999982,1430.420900000006,1432.7606999999882,1958.0,1432.7606999999882,5.0,1432.7607999999825,4.0,17.0,137.0,27.0,1.0,1.2,0.7,Time
,,S57,1,m,20,anonymized,Serial_Dependence_U,2023.2.3,Win32,243.9024390243686,,,,,,1432.760900000006,260.0,4.0,1432.7610000000002,260.0,,,,1436.9267999999822,1437.424900000006,1436.422900000006,1436.9267999999822,1433.7605,1436.4226999999885,1437.424900000006,1437.9227999999823,1437.9227999999823,1440.4540000000002,2138.0,1440.4540000000002,5.0,1440.454099999994,4.0,18.0,138.0,24.0,1.0,1.6,0.3,Time
,,S57,1,m,20,anonymized,Serial_Dependence_U,2023.2.3,Win32,243.9024390243686,,,,,,1440.454199999988,138.0,4.0,1440.454299999982,138.0,,,,1443.9915999999942,1444.491400000006,1443.4891999999882,1443.9915,1441.4581999999882,1443.489099999994,1444.491400000006,1444.991400000006,1444.991400000006,1446.766400000006,1543.0,1446.766400000006,5.0,1446.766400000006,4.0,19.0,139.0,6.0,1.0,1.0,0.7,Time
,,S57,1,m,20,anonymized,Serial_Dependence_U,2023.2.3,Win32,243.9024390243686,,,,,,1446.766599999994,63.0,4.0,1446.766699999988,63.0,,,,1450.330599999994,1450.8286999999882,1449.8290000000002,1450.3305,1447.766599999994,1449.828900000006,1450.8286999999882,1451.328599999994,1451.328599999994,1453.070299999982,1312.0,1453.070299999982,5.0,1453.070400000006,4.0,20.0,140.0,21.0,1.0,1.0,0.3,Time
,,S57,1,m,20,anonymized,Serial_Dependence_U,2023.2.3,Win32,243.9024390243686,,,,,,1453.0705,169.0,4.0,1453.070599999994,169.0,,,,1456.837,1457.3369000000062,1456.332900000006,1456.8367999999823,1454.071900000006,1456.332699999988,1457.3369000000062,1457.8369000000062,1457.8369000000062,1459.9115999999942,1851.0,1459.9115999999942,5.0,1459.911799999982,4.0,21.0,141.0,2.0,1.0,1.2,0.3,Time
,,S57,1,m,20,anonymized,Serial_Dependence_U,2023.2.3,Win32,243.9024390243686,,,,,,1459.911900000006,58.0,4.0,1459.912,58.0,,,,1463.8742999999822,1464.374099999994,1463.372099999994,1463.8741999999882,1460.909699999988,1463.372,1464.374099999994,1464.8742999999822,1464.8742999999822,1466.5572999999822,1551.0,1466.557400000006,4.0,1466.5575,4.0,22.0,142.0,3.0,1.0,1.4,0.3,Time
,,S57,1,m,20,anonymized,Serial_Dependence_U,2023.2.3,Win32,243.9024390243686,,,,,,1466.5575999999942,282.0,4.0,1466.5576999999882,282.0,,,,1470.2932999999823,1470.790599999994,1469.7886999999882,1470.2930999999942,1467.555400000006,1469.7885999999942,1470.790599999994,1471.292,1471.292,1473.069599999994,1652.0,1473.069599999994,5.0,1473.0696999999882,4.0,23.0,143.0,7.0,1.0,1.2,0.7,Time
,,S57,1,m,20,anonymized,Serial_Dependence_U,2023.2.3,Win32,243.9024390243686,,,,,,1473.0697999999825,50.0,4.0,1473.069900000006,50.0,,,,1477.238400000006,1477.737900000006,1476.7340000000002,1477.2381999999882,1474.072599999994,1476.7340000000002,1477.737900000006,1478.237699999988,1478.237699999988,1479.958900000006,1471.0,1479.958900000006,2.0,1479.959,4.0,24.0,144.0,4.0,1.0,1.6,0.3,Time
,,S57,1,m,20,anonymized,Serial_Dependence_U,2023.2.3,Win32,243.9024390243686,,,,,,1479.959099999994,236.0,4.0,1479.9591999999882,236.0,,,,1483.8945999999942,1484.3945,1483.390400000006,1483.8945,1480.958900000006,1483.3902999999823,1484.3945,1484.8945,1484.8945,1486.944400000006,1786.0,1486.944400000006,4.0,1486.944599999994,4.0,25.0,145.0,8.0,1.0,1.4,0.7,Time
,,S57,1,m,20,anonymized,Serial_Dependence_U,2023.2.3,Win32,243.9024390243686,,,,,,1486.9446999999882,99.0,4.0,1486.9447999999825,99.0,,,,1490.6837999999825,1491.181799999982,1490.1835999999942,1490.6836999999882,1487.9505,1490.1835999999942,1491.181900000006,1491.6816999999885,1491.6816999999885,1493.7171999999882,1726.0,1493.7171999999882,5.0,1493.7171999999882,4.0,26.0,146.0,17.0,1.0,1.2,0.7,Time
,,S57,1,m,20,anonymized,Serial_Dependence_U,2023.2.3,Win32,243.9024390243686,,,,,,1493.717400000006,281.0,4.0,1493.7175,281.0,,,,1497.4815,1497.98,1496.9796999999885,1497.481400000006,1494.7170999999942,1496.9795999999942,1497.98,1498.479,1498.479,1500.379299999982,1529.0,1500.379400000006,4.0,1500.379400000006,4.0,27.0,147.0,22.0,1.0,1.2,0.3,Time
,,S57,1,m,20,anonymized,Serial_Dependence_U,2023.2.3,Win32,243.9024390243686,,,,,,1500.379599999994,23.0,4.0,1500.379599999994,23.0,,,,1503.713199999988,1504.210400000006,1503.2125,1503.713099999994,1501.379699999988,1503.2125,1504.210400000006,1504.7105,1504.7105,1506.243599999994,1391.0,1506.243599999994,5.0,1506.2437999999822,4.0,28.0,148.0,25.0,1.0,0.8,0.7,Time
,,S57,1,m,20,anonymized,Serial_Dependence_U,2023.2.3,Win32,243.9024390243686,,,,,,1506.243900000006,85.0,4.0,1506.244,85.0,,,,1510.4121999999882,1510.912099999994,1509.910599999994,1510.412099999994,1507.2481999999882,1509.910400000006,1510.912099999994,1511.411699999988,1511.411699999988,1512.970799999982,1317.0,1512.970799999982,2.0,1512.970799999982,4.0,29.0,149.0,14.0,1.0,1.6,0.3,Time
,,S57,1,m,20,anonymized,Serial_Dependence_U,2023.2.3,Win32,243.9024390243686,,,,,,1512.971,34.0,5.0,1522.9517999999823,34.0,s,9.973399999976207,,1526.287099999994,1526.786400000006,1525.783299999982,1526.286799999982,1523.949400000006,1525.7830999999942,1526.786400000006,1527.2865999999942,1527.2865999999942,1528.9515,1553.0,1528.9515,5.0,1528.9515999999942,5.0,0.0,150.0,15.0,1.0,0.8,0.7,Time
,,S57,1,m,20,anonymized,Serial_Dependence_U,2023.2.3,Win32,243.9024390243686,,,,,,1528.9516999999885,189.0,5.0,1528.953099999994,189.0,,,,1533.1180999999942,1533.617900000006,1532.616199999988,1533.1180000000002,1529.951900000006,1532.616099999994,1533.6180000000002,1534.1180000000002,1534.1180000000002,1535.928400000006,1633.0,1535.928400000006,3.0,1535.9285,5.0,1.0,151.0,24.0,1.0,1.6,0.3,Time
,,S57,1,m,20,anonymized,Serial_Dependence_U,2023.2.3,Win32,243.9024390243686,,,,,,1535.928699999988,171.0,5.0,1535.9287999999822,171.0,,,,1539.695400000006,1540.192900000006,1539.191099999994,1539.695199999988,1536.928400000006,1539.190900000006,1540.192900000006,1540.69,1540.69,1542.398900000006,1526.0,1542.398900000006,4.0,1542.399,5.0,2.0,152.0,2.0,1.0,1.2,0.3,Time
,,S57,1,m,20,anonymized,Serial_Dependence_U,2023.2.3,Win32,243.9024390243686,,,,,,1542.3991999999882,48.0,5.0,1542.3992999999823,48.0,,,,1545.7655,1546.263599999994,1545.2612999999822,1545.7652999999823,1543.3990999999942,1545.261199999988,1546.263599999994,1546.763400000006,1546.763400000006,1547.830299999982,581.0,1547.830299999982,2.0,1547.830400000006,5.0,3.0,153.0,0.0,1.0,0.8,0.3,Time
,,S57,1,m,20,anonymized,Serial_Dependence_U,2023.2.3,Win32,243.9024390243686,,,,,,1547.830599999994,68.0,5.0,1547.830599999994,68.0,,,,1551.8020999999942,1552.3006999999882,1551.2987999999823,1551.801900000006,1548.8331999999882,1551.2986999999882,1552.3006999999882,1552.8006999999882,1552.8006999999882,1554.598599999994,1542.0,1554.598599999994,4.0,1554.5987999999822,5.0,4.0,154.0,23.0,1.0,1.4,0.3,Time
,,S57,1,m,20,anonymized,Serial_Dependence_U,2023.2.3,Win32,243.9024390243686,,,,,,1554.598900000006,56.0,5.0,1554.598900000006,56.0,,,,1558.1632999999822,1558.663199999988,1557.661,1558.163199999988,1555.598599999994,1557.661,1558.663199999988,1559.163,1559.163,1560.390400000006,796.0,1560.390400000006,2.0,1560.390400000006,5.0,5.0,155.0,21.0,1.0,1.0,0.3,Time
,,S57,1,m,20,anonymized,Serial_Dependence_U,2023.2.3,Win32,243.9024390243686,,,,,,1560.390599999994,42.0,5.0,1560.390699999988,42.0,,,,1563.929900000006,1564.4297999999822,1563.427699999988,1563.929699999988,1561.394900000006,1563.427699999988,1564.4297999999822,1564.927299999982,1564.927400000006,1566.444299999982,1263.0,1566.444299999982,4.0,1566.444400000006,5.0,6.0,156.0,16.0,1.0,1.0,0.7,Time
,,S57,1,m,20,anonymized,Serial_Dependence_U,2023.2.3,Win32,243.9024390243686,,,,,,1566.4445,163.0,5.0,1566.444599999994,163.0,,,,1569.810599999994,1570.310400000006,1569.308900000006,1569.8105,1567.4465,1569.3087999999825,1570.3105,1570.810299999982,1570.810299999982,1571.6815999999942,525.0,1571.6815999999942,1.0,1571.6816999999885,5.0,7.0,157.0,20.0,1.0,0.8,0.3,Time
,,S57,1,m,20,anonymized,Serial_Dependence_U,2023.2.3,Win32,243.9024390243686,,,,,,1571.681799999982,9.0,5.0,1571.681900000006,9.0,,,,1575.643799999982,1576.1435,1575.1421999999882,1575.643799999982,1572.6815,1575.142099999994,1576.1435,1576.6435999999942,1576.6435999999942,1578.206299999982,1154.0,1578.206299999982,2.0,1578.206299999982,5.0,8.0,158.0,13.0,1.0,1.4,0.3,Time
,,S57,1,m,20,anonymized,Serial_Dependence_U,2023.2.3,Win32,243.9024390243686,,,,,,1578.206400000006,112.0,5.0,1578.2065,112.0,,,,1582.1476999999882,1582.645900000006,1581.643900000006,1582.1476999999882,1579.2106999999885,1581.643799999982,1582.645900000006,1583.145900000006,1583.145900000006,1585.197900000006,1704.0,1585.197900000006,4.0,1585.198,5.0,9.0,159.0,18.0,1.0,1.4,0.7,Time
,,S57,1,m,20,anonymized,Serial_Dependence_U,2023.2.3,Win32,243.9024390243686,,,,,,1585.1980999999942,245.0,5.0,1585.1981999999882,245.0,,,,1588.5375999999942,1589.0371999999882,1588.033599999994,1588.537400000006,1586.2,1588.0335,1589.0371999999882,1589.5375,1589.5375,1591.2122999999822,1425.0,1591.2122999999822,5.0,1591.2125,5.0,10.0,160.0,25.0,1.0,0.8,0.7,Time
,,S57,1,m,20,anonymized,Serial_Dependence_U,2023.2.3,Win32,243.9024390243686,,,,,,1591.2125999999942,300.0,5.0,1591.2125999999942,300.0,,,,1595.348400000006,1595.8496999999882,1594.843400000006,1595.348299999982,1592.2125999999942,1594.8431999999882,1595.8496999999882,1596.3495,1596.3495,1598.353699999988,1719.0,1598.353699999988,4.0,1598.353799999982,5.0,11.0,161.0,29.0,1.0,1.6,0.7,Time
,,S57,1,m,20,anonymized,Serial_Dependence_U,2023.2.3,Win32,243.9024390243686,,,,,,1598.353799999982,296.0,5.0,1598.353900000006,296.0,,,,1602.093099999994,1602.5912999999823,1601.5890999999942,1602.092900000006,1599.355099999994,1601.5890000000002,1602.5912999999823,1603.0910999999942,1603.0910999999942,1604.8785,1540.0,1604.8785,4.0,1604.8785,5.0,12.0,162.0,7.0,1.0,1.2,0.7,Time
,,S57,1,m,20,anonymized,Serial_Dependence_U,2023.2.3,Win32,243.9024390243686,,,,,,1604.878599999994,158.0,5.0,1604.8786999999882,158.0,,,,1608.418699999988,1608.9175,1607.9137999999823,1608.418599999994,1605.883099999994,1607.9136999999882,1608.9175,1609.417400000006,1609.417400000006,1611.1570000000002,1502.0,1611.1570000000002,5.0,1611.157400000006,5.0,13.0,163.0,26.0,1.0,1.0,0.7,Time
,,S57,1,m,20,anonymized,Serial_Dependence_U,2023.2.3,Win32,243.9024390243686,,,,,,1611.1575,245.0,5.0,1611.1575,245.0,,,,1615.2935,1615.792900000006,1614.790900000006,1615.2932999999823,1612.158599999994,1614.7907999999825,1615.792900000006,1616.292900000006,1616.292900000006,1618.4405999999942,1777.0,1618.4405999999942,4.0,1618.440699999988,5.0,14.0,164.0,19.0,1.0,1.6,0.7,Time
,,S57,1,m,20,anonymized,Serial_Dependence_U,2023.2.3,Win32,243.9024390243686,,,,,,1618.440900000006,310.0,5.0,1618.440900000006,310.0,,,,1622.2061999999885,1622.704400000006,1621.7055,1622.2060999999942,1619.4422999999822,1621.705199999988,1622.704400000006,1623.203099999994,1623.203099999994,1624.9365,1582.0,1624.9365,5.0,1624.936599999994,5.0,15.0,165.0,22.0,1.0,1.2,0.3,Time
,,S57,1,m,20,anonymized,Serial_Dependence_U,2023.2.3,Win32,243.9024390243686,,,,,,1624.9366999999882,347.0,5.0,1624.9367999999822,347.0,,,,1628.674199999988,1629.1737999999823,1628.1737999999823,1628.674,1625.940699999988,1628.1736999999882,1629.1737999999823,1629.6735999999942,1629.6735999999942,1631.402799999982,1329.0,1631.402799999982,4.0,1631.403,5.0,16.0,166.0,27.0,1.0,1.2,0.7,Time
,,S57,1,m,20,anonymized,Serial_Dependence_U,2023.2.3,Win32,243.9024390243686,,,,,,1631.403099999994,106.0,5.0,1631.403099999994,106.0,,,,1634.969400000006,1635.4665,1634.467400000006,1634.9692999999822,1632.403199999988,1634.4671999999882,1635.466599999994,1635.966699999988,1635.9667999999822,1637.042299999982,871.0,1637.042400000006,2.0,1637.042400000006,5.0,17.0,167.0,1.0,1.0,1.0,0.3,Time
,,S57,1,m,20,anonymized,Serial_Dependence_U,2023.2.3,Win32,243.9024390243686,,,,,,1637.0425,142.0,5.0,1637.042599999994,142.0,,,,1641.004400000006,1641.503900000006,1640.5025,1641.004299999982,1638.0402999999822,1640.5025,1641.504,1642.0041999999885,1642.0041999999885,1643.539900000006,1370.0,1643.539900000006,3.0,1643.540099999994,5.0,18.0,168.0,3.0,1.0,1.4,0.3,Time
,,S57,1,m,20,anonymized,Serial_Dependence_U,2023.2.3,Win32,243.9024390243686,,,,,,1643.540199999988,245.0,5.0,1643.540199999988,245.0,,,,1647.310900000006,1647.810599999994,1646.8066999999885,1647.3107999999822,1644.5442999999825,1646.8065999999942,1647.810599999994,1648.3105,1648.310599999994,1649.4646999999882,935.0,1649.4646999999882,2.0,1649.4647999999822,5.0,19.0,169.0,12.0,1.0,1.2,0.3,Time
,,S57,1,m,20,anonymized,Serial_Dependence_U,2023.2.3,Win32,243.9024390243686,,,,,,1649.464900000006,73.0,5.0,1649.465,73.0,,,,1652.829199999988,1653.328900000006,1652.325,1652.8290000000002,1650.462400000006,1652.325,1653.3290000000002,1653.829099999994,1653.829099999994,1654.9582999999825,912.0,1654.9582999999825,4.0,1654.9585000000002,5.0,20.0,170.0,10.0,1.0,0.8,0.3,Time
,,S57,1,m,20,anonymized,Serial_Dependence_U,2023.2.3,Win32,243.9024390243686,,,,,,1654.958599999994,333.0,5.0,1654.958699999988,333.0,,,,1659.1247999999823,1659.6242999999822,1658.6231999999882,1659.1245999999942,1655.9626999999882,1658.623099999994,1659.6242999999822,1660.1242999999822,1660.1242999999822,1662.012599999994,1634.0,1662.012599999994,3.0,1662.0126999999882,5.0,21.0,171.0,4.0,1.0,1.6,0.3,Time
,,S57,1,m,20,anonymized,Serial_Dependence_U,2023.2.3,Win32,243.9024390243686,,,,,,1662.0127999999822,344.0,5.0,1662.012900000006,344.0,,,,1665.7481999999882,1666.2475999999942,1665.2437999999822,1665.748,1663.012299999982,1665.2436999999882,1666.2475999999942,1666.7475000000002,1666.7475999999942,1669.0766999999885,1485.0,1669.0766999999885,4.0,1669.0767999999823,5.0,22.0,172.0,17.0,1.0,1.2,0.7,Time
,,S57,1,m,20,anonymized,Serial_Dependence_U,2023.2.3,Win32,243.9024390243686,,,,,,1669.076900000006,272.0,5.0,1669.077099999994,272.0,,,,1673.247900000006,1673.7475000000002,1672.7436999999882,1673.247799999982,1670.081400000006,1672.743599999994,1673.7475000000002,1674.2445,1674.244599999994,1675.9457999999822,1495.0,1675.9457999999822,2.0,1675.946,5.0,23.0,173.0,14.0,1.0,1.6,0.3,Time
,,S57,1,m,20,anonymized,Serial_Dependence_U,2023.2.3,Win32,243.9024390243686,,,,,,1675.9460999999942,250.0,5.0,1675.9460999999942,250.0,,,,1679.2825,1679.780599999994,1678.7785999999942,1679.282400000006,1676.9450000000002,1678.7785,1679.780599999994,1680.282400000006,1680.282400000006,1681.382699999988,938.0,1681.382699999988,4.0,1681.382699999988,5.0,24.0,174.0,5.0,1.0,0.8,0.7,Time
,,S57,1,m,20,anonymized,Serial_Dependence_U,2023.2.3,Win32,243.9024390243686,,,,,,1681.382900000006,91.0,5.0,1681.382900000006,91.0,,,,1685.5245,1686.0220000000002,1685.020199999988,1685.5244000000062,1682.3867999999825,1685.020099999994,1686.0220000000002,1686.5220999999942,1686.522199999988,1688.3721999999882,1769.0,1688.3721999999882,4.0,1688.3722999999825,5.0,25.0,175.0,9.0,1.0,1.6,0.7,Time
,,S57,1,m,20,anonymized,Serial_Dependence_U,2023.2.3,Win32,243.9024390243686,,,,,,1688.372400000006,149.0,5.0,1688.372400000006,149.0,,,,1691.940400000006,1692.4402999999822,1691.4365,1691.940400000006,1689.373400000006,1691.436400000006,1692.4402999999822,1692.9401999999882,1692.9401999999882,1694.369699999988,1166.0,1694.3697999999822,4.0,1694.3697999999822,5.0,26.0,176.0,11.0,1.0,1.0,0.3,Time
,,S57,1,m,20,anonymized,Serial_Dependence_U,2023.2.3,Win32,243.9024390243686,,,,,,1694.369900000006,194.0,5.0,1694.37,194.0,,,,1698.3055000000002,1698.804900000006,1697.801199999988,1698.305400000006,1695.369299999982,1697.8010999999942,1698.804900000006,1699.305099999994,1699.305099999994,1700.9881999999882,1455.0,1700.9882999999822,3.0,1700.988400000006,5.0,27.0,177.0,8.0,1.0,1.4,0.7,Time
,,S57,1,m,20,anonymized,Serial_Dependence_U,2023.2.3,Win32,243.9024390243686,,,,,,1700.9885000000002,109.0,5.0,1700.9885000000002,109.0,,,,1704.927900000006,1705.4257999999822,1704.4235999999942,1704.9277999999822,1701.989900000006,1704.423400000006,1705.4257999999822,1705.927400000006,1705.927400000006,1707.5215,1366.0,1707.5215,3.0,1707.5216999999882,5.0,28.0,178.0,28.0,1.0,1.4,0.7,Time
,,S57,1,m,20,anonymized,Serial_Dependence_U,2023.2.3,Win32,243.9024390243686,,,,,,1707.5217999999822,167.0,5.0,1707.521900000006,167.0,,,,1711.053699999988,1711.551900000006,1710.552599999994,1711.053599999994,1708.519400000006,1710.5525,1711.551900000006,1712.050599999994,1712.050599999994,1713.631599999994,1346.0,1713.631599999994,5.0,1713.631699999988,5.0,29.0,179.0,6.0,1.0,1.0,0.7,Time
,,S57,1,m,20,anonymized,Serial_Dependence_U,2023.2.3,Win32,243.9024390243686,,,,,,1713.631799999982,21.0,6.0,1886.291699999988,21.0,s,172.65300000000002,,1890.46,1890.9595999999945,1889.9560999999944,1890.459799999982,1887.293199999988,1889.956,1890.9595999999945,1891.459900000006,1891.459900000006,1892.9392999999825,1204.0,1892.9392999999825,2.0,1892.939400000006,6.0,0.0,180.0,24.0,1.0,1.6,0.3,Time
,,S57,1,m,20,anonymized,Serial_Dependence_U,2023.2.3,Win32,243.9024390243686,,,,,,1892.9395,349.0,6.0,1892.940099999994,349.0,,,,1896.905699999988,1897.403699999988,1896.4015999999945,1896.9055,1893.939400000006,1896.4015,1897.403699999988,1897.9037999999823,1897.9037999999823,1899.4035999999944,1253.0,1899.4035999999944,2.0,1899.403699999988,6.0,1.0,181.0,3.0,1.0,1.4,0.3,Time
,,S57,1,m,20,anonymized,Serial_Dependence_U,2023.2.3,Win32,243.9024390243686,,,,,,1899.4037999999823,305.0,6.0,1899.403900000006,305.0,,,,1903.341400000006,1903.838599999994,1902.839,1903.341199999988,1900.4080999999944,1902.8387999999825,1903.838599999994,1904.3369000000064,1904.3369000000064,1905.8932999999824,1325.0,1905.8932999999824,2.0,1905.893400000006,6.0,2.0,182.0,8.0,1.0,1.4,0.7,Time
,,S57,1,m,20,anonymized,Serial_Dependence_U,2023.2.3,Win32,243.9024390243686,,,,,,1905.8935,323.0,6.0,1905.8935999999944,323.0,,,,1909.2260999999944,1909.725900000006,1908.724599999994,1909.226,1906.891099999994,1908.7245,1909.725900000006,1910.2257999999824,1910.2257999999824,1911.647199999988,1079.0,1911.647199999988,5.0,1911.647199999988,6.0,3.0,183.0,5.0,1.0,0.8,0.7,Time
,,S57,1,m,20,anonymized,Serial_Dependence_U,2023.2.3,Win32,243.9024390243686,,,,,,1911.647400000006,14.0,6.0,1911.647400000006,14.0,,,,1915.3870999999945,1915.886699999988,1914.882699999988,1915.387,1912.6515999999945,1914.8825999999945,1915.886699999988,1916.386699999988,1916.386699999988,1917.7615,1192.0,1917.761599999994,3.0,1917.761599999994,6.0,4.0,184.0,17.0,1.0,1.2,0.7,Time
,,S57,1,m,20,anonymized,Serial_Dependence_U,2023.2.3,Win32,243.9024390243686,,,,,,1917.7617999999825,236.0,6.0,1917.761900000006,236.0,,,,1921.329900000006,1921.829599999994,1920.8282999999824,1921.3297999999825,1918.7657999999824,1920.828199999988,1921.829599999994,1922.328099999994,1922.328099999994,1923.6010999999944,1125.0,1923.6010999999944,4.0,1923.601199999988,6.0,5.0,185.0,11.0,1.0,1.0,0.3,Time
,,S57,1,m,20,anonymized,Serial_Dependence_U,2023.2.3,Win32,243.9024390243686,,,,,,1923.6012999999823,136.0,6.0,1923.6014000000064,136.0,,,,1926.9715,1927.4695,1926.4675,1926.971400000006,1924.6042999999825,1926.467400000006,1927.4695,1927.969699999988,1927.969699999988,1928.865400000006,621.0,1928.8655,2.0,1928.865699999988,6.0,6.0,186.0,0.0,1.0,0.8,0.3,Time
,,S57,1,m,20,anonymized,Serial_Dependence_U,2023.2.3,Win32,243.9024390243686,,,,,,1928.8657999999823,139.0,6.0,1928.8657999999823,139.0,,,,1932.802900000006,1933.302699999988,1932.298900000006,1932.802699999988,1929.8655,1932.2987999999823,1933.302699999988,1933.802900000006,1933.802900000006,1935.900599999994,1715.0,1935.900599999994,4.0,1935.900699999988,6.0,7.0,187.0,18.0,1.0,1.4,0.7,Time
,,S57,1,m,20,anonymized,Serial_Dependence_U,2023.2.3,Win32,243.9024390243686,,,,,,1935.9007999999824,335.0,6.0,1935.900900000006,335.0,,,,1940.036099999994,1940.535900000006,1939.531900000006,1940.035900000006,1936.9015,1939.5317999999825,1940.535900000006,1941.035900000006,1941.035900000006,1942.4327999999823,1116.0,1942.4329000000064,1.0,1942.433,6.0,8.0,188.0,9.0,1.0,1.6,0.7,Time
,,S57,1,m,20,anonymized,Serial_Dependence_U,2023.2.3,Win32,243.9024390243686,,,,,,1942.433,313.0,6.0,1942.433099999994,313.0,,,,1945.9692999999825,1946.469199999988,1945.4670999999944,1945.969199999988,1943.436,1945.467,1946.469199999988,1946.969099999994,1946.969199999988,1948.253299999982,1036.0,1948.253299999982,3.0,1948.2535,6.0,9.0,189.0,6.0,1.0,1.0,0.7,Time
,,S57,1,m,20,anonymized,Serial_Dependence_U,2023.2.3,Win32,243.9024390243686,,,,,,1948.253599999994,254.0,6.0,1948.253599999994,254.0,,,,1951.5877999999825,1952.088,1951.083599999994,1951.5875999999944,1949.252599999994,1951.083400000006,1952.088,1952.587099999994,1952.587099999994,1953.621,730.0,1953.6210999999944,2.0,1953.6210999999944,6.0,10.0,190.0,25.0,1.0,0.8,0.7,Time
,,S57,1,m,20,anonymized,Serial_Dependence_U,2023.2.3,Win32,243.9024390243686,,,,,,1953.621199999988,17.0,6.0,1953.621199999988,17.0,,,,1957.3855999999944,1957.8855,1956.881400000006,1957.3855,1954.6207999999824,1956.8812999999825,1957.8855,1958.388699999988,1958.388699999988,1959.4841999999885,813.0,1959.4841999999885,1.0,1959.484299999982,6.0,11.0,191.0,2.0,1.0,1.2,0.3,Time
,,S57,1,m,20,anonymized,Serial_Dependence_U,2023.2.3,Win32,243.9024390243686,,,,,,1959.484400000006,83.0,6.0,1959.4845,83.0,,,,1962.856199999988,1963.3562999999824,1962.3522999999825,1962.856199999988,1960.488199999988,1962.352199999988,1963.3562999999824,1963.856099999994,1963.856099999994,1965.2372999999825,833.0,1965.2372999999825,3.0,1965.2372999999825,6.0,12.0,192.0,20.0,1.0,0.8,0.3,Time
,,S57,1,m,20,anonymized,Serial_Dependence_U,2023.2.3,Win32,243.9024390243686,,,,,,1965.2375,82.0,6.0,1965.237599999994,82.0,,,,1969.172900000006,1969.6725999999944,1968.668699999988,1969.1727999999823,1966.2375,1968.6685,1969.6725999999944,1970.1725999999944,1970.1725999999944,1972.299199999988,1498.0,1972.299199999988,4.0,1972.299199999988,6.0,13.0,193.0,28.0,1.0,1.4,0.7,Time
,,S57,1,m,20,anonymized,Serial_Dependence_U,2023.2.3,Win32,243.9024390243686,,,,,,1972.299400000006,160.0,6.0,1972.2995,160.0,,,,1975.865400000006,1976.363799999982,1975.364199999988,1975.8652999999824,1973.3030999999944,1975.364099999994,1976.363799999982,1976.864099999994,1976.864099999994,1978.095400000006,819.0,1978.095400000006,2.0,1978.0955,6.0,14.0,194.0,21.0,1.0,1.0,0.3,Time
,,S57,1,m,20,anonymized,Serial_Dependence_U,2023.2.3,Win32,243.9024390243686,,,,,,1978.0956999999885,253.0,6.0,1978.0956999999885,253.0,,,,1981.435199999988,1981.936400000006,1980.9327999999823,1981.434900000006,1979.099199999988,1980.9325999999944,1981.936400000006,1982.434699999988,1982.434699999988,1983.8097999999825,1084.0,1983.8097999999825,5.0,1983.8097999999825,6.0,15.0,195.0,15.0,1.0,0.8,0.7,Time
,,S57,1,m,20,anonymized,Serial_Dependence_U,2023.2.3,Win32,243.9024390243686,,,,,,1983.81,112.0,6.0,1983.8100999999945,112.0,,,,1987.5472999999824,1988.047,1987.045,1987.547199999988,1984.811699999988,1987.044900000006,1988.047,1988.546900000006,1988.546900000006,1990.063599999994,1333.0,1990.063599999994,4.0,1990.063699999988,6.0,16.0,196.0,7.0,1.0,1.2,0.7,Time
,,S57,1,m,20,anonymized,Serial_Dependence_U,2023.2.3,Win32,243.9024390243686,,,,,,1990.063699999988,126.0,6.0,1990.063900000006,126.0,,,,1994.196900000006,1994.696699999988,1993.694699999988,1994.1967999999824,1991.063900000006,1993.6945,1994.696699999988,1995.196699999988,1995.196699999988,1997.040900000006,1487.0,1997.040900000006,2.0,1997.041,6.0,17.0,197.0,29.0,1.0,1.6,0.7,Time
,,S57,1,m,20,anonymized,Serial_Dependence_U,2023.2.3,Win32,243.9024390243686,,,,,,1997.041,143.0,6.0,1997.0410999999945,143.0,,,,2000.6110999999944,2001.109299999982,2000.107099999994,2000.611,1998.042900000006,2000.107,2001.109299999982,2001.6090999999944,2001.6090999999944,2003.434,1477.0,2003.434,5.0,2003.434099999994,6.0,18.0,198.0,1.0,1.0,1.0,0.3,Time
,,S57,1,m,20,anonymized,Serial_Dependence_U,2023.2.3,Win32,243.9024390243686,,,,,,2003.434199999988,245.0,6.0,2003.4342999999824,245.0,,,,2007.598400000006,2008.098099999994,2007.096699999988,2007.598299999982,2004.436299999982,2007.0965999999944,2008.098199999988,2008.596400000006,2008.596400000006,2010.4305999999945,1634.0,2010.4305999999945,3.0,2010.430699999988,6.0,19.0,199.0,14.0,1.0,1.6,0.3,Time
,,S57,1,m,20,anonymized,Serial_Dependence_U,2023.2.3,Win32,243.9024390243686,,,,,,2010.430699999988,154.0,6.0,2010.430900000006,154.0,,,,2014.4007999999824,2014.900400000006,2013.899599999994,2014.400599999994,2011.4357999999825,2013.8995,2014.900400000006,2015.4002999999825,2015.400400000006,2017.333599999994,1668.0,2017.333599999994,4.0,2017.333699999988,6.0,20.0,200.0,13.0,1.0,1.4,0.3,Time
,,S57,1,m,20,anonymized,Serial_Dependence_U,2023.2.3,Win32,243.9024390243686,,,,,,2017.333799999982,70.0,6.0,2017.333900000006,70.0,,,,2020.873099999994,2021.3725999999945,2020.369599999994,2020.873,2018.335400000006,2020.3695,2021.3725999999945,2021.8725999999945,2021.872699999988,2024.021199999988,1872.0,2024.021299999982,5.0,2024.021299999982,6.0,21.0,201.0,16.0,1.0,1.0,0.7,Time
,,S57,1,m,20,anonymized,Serial_Dependence_U,2023.2.3,Win32,243.9024390243686,,,,,,2024.021400000006,300.0,6.0,2024.0215,300.0,,,,2027.787799999982,2028.287799999982,2027.2835,2027.7876999999885,2025.0230999999944,2027.283400000006,2028.287799999982,2028.7875,2028.7875,2031.0895,1708.0,2031.0895,5.0,2031.089599999994,6.0,22.0,202.0,22.0,1.0,1.2,0.3,Time
,,S57,1,m,20,anonymized,Serial_Dependence_U,2023.2.3,Win32,243.9024390243686,,,,,,2031.0897999999825,279.0,6.0,2031.0897999999825,279.0,,,,2034.451900000006,2034.951400000006,2033.950099999994,2034.4517999999823,2032.0895,2033.95,2034.951400000006,2035.4515,2035.4515,2036.556199999988,838.0,2036.556199999988,3.0,2036.5562999999825,6.0,23.0,203.0,10.0,1.0,0.8,0.3,Time
,,S57,1,m,20,anonymized,Serial_Dependence_U,2023.2.3,Win32,243.9024390243686,,,,,,2036.556400000006,16.0,6.0,2036.5565,16.0,,,,2040.6915999999944,2041.1915999999944,2040.1872999999823,2040.6915,2037.556900000006,2040.1870999999944,2041.1915999999944,2041.691400000006,2041.691400000006,2043.8287999999825,1951.0,2043.8287999999825,4.0,2043.8287999999825,6.0,24.0,204.0,19.0,1.0,1.6,0.7,Time
,,S57,1,m,20,anonymized,Serial_Dependence_U,2023.2.3,Win32,243.9024390243686,,,,,,2043.828900000006,163.0,6.0,2043.829,163.0,,,,2047.364099999994,2047.862099999994,2046.86,2047.3640000000005,2044.826699999988,2046.8597999999824,2047.862099999994,2048.362799999982,2048.362900000006,2050.199400000006,1636.0,2050.199400000006,5.0,2050.199400000006,6.0,25.0,205.0,26.0,1.0,1.0,0.7,Time
,,S57,1,m,20,anonymized,Serial_Dependence_U,2023.2.3,Win32,243.9024390243686,,,,,,2050.199599999994,313.0,6.0,2050.199699999988,313.0,,,,2053.9705,2054.47,2053.466199999988,2053.9704000000056,2051.202299999982,2053.466,2054.47,2054.970199999988,2054.970199999988,2056.9035999999937,1561.0,2056.9035999999937,5.0,2056.903699999988,6.0,26.0,206.0,12.0,1.0,1.2,0.3,Time
,,S57,1,m,20,anonymized,Serial_Dependence_U,2023.2.3,Win32,243.9024390243686,,,,,,2056.903799999982,78.0,6.0,2056.903799999982,78.0,,,,2060.8745,2061.374,2060.370199999988,2060.8744000000056,2057.907599999994,2060.3700999999937,2061.374099999994,2061.874099999994,2061.874099999994,2063.8385999999937,1778.0,2063.8385999999937,4.0,2063.838699999988,6.0,27.0,207.0,23.0,1.0,1.4,0.3,Time
,,S57,1,m,20,anonymized,Serial_Dependence_U,2023.2.3,Win32,243.9024390243686,,,,,,2063.838699999988,188.0,6.0,2063.8389000000057,188.0,,,,2068.003699999988,2068.504699999988,2067.499199999988,2068.0035,2064.8385,2067.499,2068.504699999988,2069.004900000006,2069.004900000006,2070.984199999988,1713.0,2070.984199999988,4.0,2070.9844000000057,6.0,28.0,208.0,4.0,1.0,1.6,0.3,Time
,,S57,1,m,20,anonymized,Serial_Dependence_U,2023.2.3,Win32,243.9024390243686,,,,,,2070.9845,234.0,6.0,2070.984599999994,234.0,,,,2074.724299999982,2075.223799999982,2074.22,2074.724,2071.989199999988,2074.219799999982,2075.223799999982,2075.724,2075.724,2077.657199999988,1721.0,2077.657199999988,5.0,2077.657299999982,6.0,29.0,209.0,27.0,1.0,1.2,0.7,Time
,,S57,1,m,20,anonymized,Serial_Dependence_U,2023.2.3,Win32,243.9024390243686,,,,,,2077.657400000006,352.0,7.0,2181.416599999994,352.0,s,103.75370000001794,,2184.987699999988,2185.4875,2184.485299999982,2184.987599999994,2182.421099999994,2184.485099999994,2185.4875,2185.987299999982,2185.987299999982,2187.458,1264.0,2187.458,4.0,2187.458099999994,7.0,0.0,210.0,11.0,1.0,1.0,0.3,Time
,,S57,1,m,20,anonymized,Serial_Dependence_U,2023.2.3,Win32,243.9024390243686,,,,,,2187.458199999988,187.0,7.0,2187.459299999982,187.0,,,,2191.601900000006,2192.099699999988,2191.0985,2191.601699999988,2188.464299999982,2191.0984000000058,2192.0997999999818,2192.5995,2192.5995,2194.485099999994,1667.0,2194.485099999994,3.0,2194.485199999988,7.0,1.0,211.0,19.0,1.0,1.6,0.7,Time
,,S57,1,m,20,anonymized,Serial_Dependence_U,2023.2.3,Win32,243.9024390243686,,,,,,2194.485299999982,35.0,7.0,2194.485400000006,35.0,,,,2197.824599999994,2198.324699999988,2197.322599999994,2197.8245,2195.4885,2197.3225,2198.324799999982,2198.822,2198.822,2200.2809000000057,1283.0,2200.2809000000057,5.0,2200.281,7.0,2.0,212.0,5.0,1.0,0.8,0.7,Time
,,S57,1,m,20,anonymized,Serial_Dependence_U,2023.2.3,Win32,243.9024390243686,,,,,,2200.281099999994,219.0,7.0,2200.281199999988,219.0,,,,2204.020599999994,2204.520199999988,2203.518199999988,2204.0205,2201.285,2203.5179000000057,2204.520199999988,2205.020299999982,2205.020299999982,2206.6005,1556.0,2206.6005,4.0,2206.600599999994,7.0,3.0,213.0,27.0,1.0,1.2,0.7,Time
,,S57,1,m,20,anonymized,Serial_Dependence_U,2023.2.3,Win32,243.9024390243686,,,,,,2206.600799999982,267.0,7.0,2206.600799999982,267.0,,,,2210.366,2210.8659000000057,2209.8634000000056,2210.365799999982,2207.601400000006,2209.863199999988,2210.8659000000057,2211.366,2211.366,2212.4260999999938,902.0,2212.4260999999938,2.0,2212.426299999982,7.0,4.0,214.0,12.0,1.0,1.2,0.3,Time
,,S57,1,m,20,anonymized,Serial_Dependence_U,2023.2.3,Win32,243.9024390243686,,,,,,2212.426299999982,319.0,7.0,2212.4264000000057,319.0,,,,2216.587900000006,2217.089099999994,2216.0869000000057,2216.587799999982,2213.424199999988,2216.086799999982,2217.089099999994,2217.5865,2217.5865,2219.325299999982,1472.0,2219.325299999982,2.0,2219.325299999982,7.0,5.0,215.0,4.0,1.0,1.6,0.3,Time
,,S57,1,m,20,anonymized,Serial_Dependence_U,2023.2.3,Win32,243.9024390243686,,,,,,2219.3255,4.0,7.0,2219.3255,4.0,,,,2222.661400000006,2223.1615,2222.159,2222.661299999982,2220.326400000006,2222.158799999982,2223.1615,2223.661400000006,2223.661400000006,2224.5820999999937,892.0,2224.5820999999937,4.0,2224.582299999982,7.0,6.0,216.0,15.0,1.0,0.8,0.7,Time
,,S57,1,m,20,anonymized,Serial_Dependence_U,2023.2.3,Win32,243.9024390243686,,,,,,2224.5825,85.0,7.0,2224.582599999994,85.0,,,,2228.352900000006,2228.852900000006,2227.848900000006,2228.352799999982,2225.5865,2227.848799999982,2228.852900000006,2229.3505,2229.3505,2230.935299999982,1222.0,2230.935299999982,3.0,2230.9354000000058,7.0,7.0,217.0,22.0,1.0,1.2,0.3,Time
,,S57,1,m,20,anonymized,Serial_Dependence_U,2023.2.3,Win32,243.9024390243686,,,,,,2230.9354000000058,186.0,7.0,2230.9355,186.0,,,,2234.4755,2234.973599999994,2233.971400000006,2234.475299999982,2231.936699999988,2233.971299999982,2234.973599999994,2235.4705,2235.4705,2236.813199999988,1057.0,2236.813199999988,4.0,2236.813299999982,7.0,8.0,218.0,26.0,1.0,1.0,0.7,Time
,,S57,1,m,20,anonymized,Serial_Dependence_U,2023.2.3,Win32,243.9024390243686,,,,,,2236.813400000006,213.0,7.0,2236.8135,213.0,,,,2240.775900000006,2241.273400000006,2240.273699999988,2240.775699999988,2237.813199999988,2240.2735,2241.273400000006,2241.773299999982,2241.773299999982,2243.365699999988,1231.0,2243.365799999982,2.0,2243.3659000000057,7.0,9.0,219.0,3.0,1.0,1.4,0.3,Time
,,S57,1,m,20,anonymized,Serial_Dependence_U,2023.2.3,Win32,243.9024390243686,,,,,,2243.366099999994,295.0,7.0,2243.366099999994,295.0,,,,2247.530400000006,2248.028799999982,2247.029699999988,2247.530299999982,2244.365299999982,2247.0295,2248.0289000000057,2248.528799999982,2248.528799999982,2250.404599999994,1475.0,2250.404599999994,2.0,2250.404699999988,7.0,10.0,220.0,24.0,1.0,1.6,0.3,Time
,,S57,1,m,20,anonymized,Serial_Dependence_U,2023.2.3,Win32,243.9024390243686,,,,,,2250.404799999982,93.0,7.0,2250.404799999982,93.0,,,,2254.540299999982,2255.039400000006,2254.037699999988,2254.5399000000057,2251.4064000000058,2254.0375,2255.0395,2255.539699999988,2255.539699999988,2257.362199999988,1486.0,2257.362199999988,2.0,2257.362299999982,7.0,11.0,221.0,9.0,1.0,1.6,0.7,Time
,,S57,1,m,20,anonymized,Serial_Dependence_U,2023.2.3,Win32,243.9024390243686,,,,,,2257.362400000006,255.0,7.0,2257.362400000006,255.0,,,,2260.898099999994,2261.397699999988,2260.393900000006,2260.898,2258.3625,2260.393799999982,2261.397699999988,2261.8995,2261.8995,2263.574900000006,1454.0,2263.574900000006,5.0,2263.575,7.0,12.0,222.0,6.0,1.0,1.0,0.7,Time
,,S57,1,m,20,anonymized,Serial_Dependence_U,2023.2.3,Win32,243.9024390243686,,,,,,2263.575099999994,338.0,7.0,2263.575199999988,338.0,,,,2267.5395,2268.039199999988,2267.037199999988,2267.539299999982,2264.577,2267.037199999988,2268.039199999988,2268.5395,2268.5395,2270.145599999994,1265.0,2270.145599999994,2.0,2270.145699999988,7.0,13.0,223.0,23.0,1.0,1.4,0.3,Time
,,S57,1,m,20,anonymized,Serial_Dependence_U,2023.2.3,Win32,243.9024390243686,,,,,,2270.145699999988,264.0,7.0,2270.145799999982,264.0,,,,2273.7119000000057,2274.21,2273.207900000006,2273.7119000000057,2271.145699999988,2273.207699999988,2274.21,2274.7099000000057,2274.7099000000057,2275.7015,756.0,2275.7015,2.0,2275.701699999988,7.0,14.0,224.0,21.0,1.0,1.0,0.3,Time
,,S57,1,m,20,anonymized,Serial_Dependence_U,2023.2.3,Win32,243.9024390243686,,,,,,2275.701799999982,301.0,7.0,2275.701900000006,301.0,,,,2279.674699999988,2280.173699999988,2279.170199999988,2279.674400000006,2276.707199999988,2279.17,2280.173699999988,2280.672199999988,2280.672199999988,2282.259799999982,1310.0,2282.259799999982,2.0,2282.259900000006,7.0,15.0,225.0,13.0,1.0,1.4,0.3,Time
,,S57,1,m,20,anonymized,Serial_Dependence_U,2023.2.3,Win32,243.9024390243686,,,,,,2282.26,42.0,7.0,2282.260099999994,42.0,,,,2286.203299999982,2286.701199999988,2285.697299999982,2286.203199999988,2283.264,2285.697099999994,2286.701199999988,2287.201199999988,2287.201199999988,2289.0885999999937,1631.0,2289.0885999999937,4.0,2289.088699999988,7.0,16.0,226.0,18.0,1.0,1.4,0.7,Time
,,S57,1,m,20,anonymized,Serial_Dependence_U,2023.2.3,Win32,243.9024390243686,,,,,,2289.088799999982,190.0,7.0,2289.088799999982,190.0,,,,2292.827,2293.3259000000057,2292.323900000006,2292.826799999982,2290.0915,2292.323799999982,2293.3259000000057,2293.826099999994,2293.826099999994,2295.4135,1327.0,2295.4135,4.0,2295.413599999994,7.0,17.0,227.0,7.0,1.0,1.2,0.7,Time
,,S57,1,m,20,anonymized,Serial_Dependence_U,2023.2.3,Win32,243.9024390243686,,,,,,2295.413699999988,170.0,7.0,2295.413900000006,170.0,,,,2298.785599999994,2299.284400000006,2298.282299999982,2298.7854000000057,2296.419,2298.282199999988,2299.284400000006,2299.784099999994,2299.784099999994,2300.686299999982,642.0,2300.686299999982,2.0,2300.6865,7.0,18.0,228.0,10.0,1.0,0.8,0.3,Time
,,S57,1,m,20,anonymized,Serial_Dependence_U,2023.2.3,Win32,243.9024390243686,,,,,,2300.686599999994,141.0,7.0,2300.686699999988,141.0,,,,2304.252699999988,2304.7505,2303.749099999994,2304.252599999994,2301.684400000006,2303.749,2304.7505,2305.250599999994,2305.250599999994,2306.406900000006,900.0,2306.407,2.0,2306.407,7.0,19.0,229.0,1.0,1.0,1.0,0.3,Time
,,S57,1,m,20,anonymized,Serial_Dependence_U,2023.2.3,Win32,243.9024390243686,,,,,,2306.407099999994,270.0,7.0,2306.407199999988,270.0,,,,2310.148299999982,2310.646299999982,2309.6445,2310.148199999988,2307.411299999982,2309.644299999982,2310.646299999982,2311.146299999982,2311.146299999982,2312.7920999999938,1379.0,2312.792199999988,4.0,2312.792199999988,7.0,20.0,230.0,17.0,1.0,1.2,0.7,Time
,,S57,1,m,20,anonymized,Serial_Dependence_U,2023.2.3,Win32,243.9024390243686,,,,,,2312.792299999982,143.0,7.0,2312.7924000000057,143.0,,,,2316.931400000006,2317.4295,2316.4279000000056,2316.931299999982,2313.7965,2316.4279000000056,2317.4295,2317.9295,2317.9295,2320.1295,1801.0,2320.1295,4.0,2320.129599999994,7.0,21.0,231.0,29.0,1.0,1.6,0.7,Time
,,S57,1,m,20,anonymized,Serial_Dependence_U,2023.2.3,Win32,243.9024390243686,,,,,,2320.129799999982,327.0,7.0,2320.129799999982,327.0,,,,2324.064799999982,2324.562599999994,2323.560900000006,2324.064599999994,2321.127299999982,2323.560799999982,2324.562599999994,2325.060099999994,2325.060199999988,2327.1980999999937,1916.0,2327.1980999999937,5.0,2327.198199999988,7.0,22.0,232.0,28.0,1.0,1.4,0.7,Time
,,S57,1,m,20,anonymized,Serial_Dependence_U,2023.2.3,Win32,243.9024390243686,,,,,,2327.198299999982,331.0,7.0,2327.1984000000057,331.0,,,,2331.363699999988,2331.862400000006,2330.8605,2331.363699999988,2328.198,2330.860400000006,2331.8625,2332.36,2332.36,2334.677299999982,1967.0,2334.677299999982,4.0,2334.677400000006,7.0,23.0,233.0,14.0,1.0,1.6,0.3,Time
,,S57,1,m,20,anonymized,Serial_Dependence_U,2023.2.3,Win32,243.9024390243686,,,,,,2334.6775,257.0,7.0,2334.677599999994,257.0,,,,2338.016900000006,2338.516199999988,2337.5145,2338.016699999988,2335.681199999988,2337.514400000006,2338.516299999982,2339.016400000006,2339.016400000006,2340.089199999988,837.0,2340.089199999988,3.0,2340.089299999982,7.0,24.0,234.0,25.0,1.0,0.8,0.7,Time
,,S57,1,m,20,anonymized,Serial_Dependence_U,2023.2.3,Win32,243.9024390243686,,,,,,2340.0895,311.0,7.0,2340.0895,311.0,,,,2343.454,2343.951400000006,2342.951900000006,2343.453900000006,2341.0894000000058,2342.951799999982,2343.9515,2344.4495,2344.4495,2345.672900000006,903.0,2345.673,4.0,2345.673,7.0,25.0,235.0,0.0,1.0,0.8,0.3,Time
,,S57,1,m,20,anonymized,Serial_Dependence_U,2023.2.3,Win32,243.9024390243686,,,,,,2345.673099999994,238.0,7.0,2345.673099999994,238.0,,,,2349.212299999982,2349.711799999982,2348.71,2349.212199999988,2346.677699999988,2348.7099000000057,2349.711799999982,2350.212,2350.212,2352.047400000006,1550.0,2352.047400000006,5.0,2352.047599999994,7.0,26.0,236.0,16.0,1.0,1.0,0.7,Time
,,S57,1,m,20,anonymized,Serial_Dependence_U,2023.2.3,Win32,243.9024390243686,,,,,,2352.047699999988,227.0,7.0,2352.047699999988,227.0,,,,2355.813400000006,2356.313400000006,2355.310199999988,2355.813400000006,2353.047599999994,2355.31,2356.313400000006,2356.8117999999818,2356.8117999999818,2358.1045999999938,1071.0,2358.1045999999938,2.0,2358.104699999988,7.0,27.0,237.0,2.0,1.0,1.2,0.3,Time
,,S57,1,m,20,anonymized,Serial_Dependence_U,2023.2.3,Win32,243.9024390243686,,,,,,2358.104799999982,327.0,7.0,2358.104799999982,327.0,,,,2362.041,2362.540699999988,2361.536900000006,2362.040900000006,2359.105699999988,2361.536799999982,2362.540699999988,2363.040900000006,2363.040900000006,2364.935,1679.0,2364.935,4.0,2364.935099999994,7.0,28.0,238.0,8.0,1.0,1.4,0.7,Time
,,S57,1,m,20,anonymized,Serial_Dependence_U,2023.2.3,Win32,243.9024390243686,,,,,,2364.935199999988,172.0,7.0,2364.935299999982,172.0,,,,2368.3010999999938,2368.7989000000057,2367.7969000000057,2368.3009000000056,2365.9345,2367.7969000000057,2368.7989000000057,2369.2989000000057,2369.2989000000057,2369.996699999988,600.0,2369.996699999988,2.0,2369.996699999988,7.0,29.0,239.0,20.0,1.0,0.8,0.3,Time
,,S57,1,m,20,anonymized,Serial_Dependence_U,2023.2.3,Win32,243.9024390243686,,,,,,2369.996900000006,142.0,8.0,2582.111799999982,142.0,s,212.1103000000121,,2586.247299999982,2586.753199999988,2585.745,2586.2470999999937,2583.114,2585.7447999999818,2586.753199999988,2587.2535,2587.2535,2589.442699999988,2025.0,2589.442699999988,4.0,2589.442799999982,8.0,0.0,240.0,19.0,1.0,1.6,0.7,Time
,,S57,1,m,20,anonymized,Serial_Dependence_U,2023.2.3,Win32,243.9024390243686,,,,,,2589.443,276.0,8.0,2589.4435,276.0,,,,2593.186699999988,2593.684199999988,2592.682199999988,2593.186400000006,2590.447400000006,2592.682099999994,2593.684199999988,2594.181900000006,2594.181900000006,2595.898699999988,1707.0,2595.898699999988,5.0,2595.898799999982,8.0,1.0,241.0,7.0,1.0,1.2,0.7,Time
,,S57,1,m,20,anonymized,Serial_Dependence_U,2023.2.3,Win32,243.9024390243686,,,,,,2595.8989000000056,59.0,8.0,2595.899,59.0,,,,2599.239799999982,2599.740099999994,2598.7364000000057,2599.239599999994,2596.903199999988,2598.7360999999937,2599.740199999988,2600.239900000006,2600.239900000006,2601.411400000006,946.0,2601.411400000006,4.0,2601.411599999994,8.0,2.0,242.0,25.0,1.0,0.8,0.7,Time
,,S57,1,m,20,anonymized,Serial_Dependence_U,2023.2.3,Win32,243.9024390243686,,,,,,2601.411699999988,320.0,8.0,2601.411699999988,320.0,,,,2605.5485999999937,2606.0464000000056,2605.044699999988,2605.5485,2602.411400000006,2605.0445,2606.0464000000056,2606.546299999982,2606.546299999982,2608.358,1488.0,2608.358,2.0,2608.358199999988,8.0,3.0,243.0,29.0,1.0,1.6,0.7,Time
,,S57,1,m,20,anonymized,Serial_Dependence_U,2023.2.3,Win32,243.9024390243686,,,,,,2608.358299999982,326.0,8.0,2608.358400000006,326.0,,,,2612.127299999982,2612.625599999994,2611.6245999999937,2612.127299999982,2609.363199999988,2611.6245,2612.625599999994,2613.125400000006,2613.125400000006,2614.677400000006,1321.0,2614.6775,4.0,2614.677599999994,8.0,4.0,244.0,2.0,1.0,1.2,0.3,Time
,,S57,1,m,20,anonymized,Serial_Dependence_U,2023.2.3,Win32,243.9024390243686,,,,,,2614.677699999988,70.0,8.0,2614.677699999988,70.0,,,,2618.2159000000056,2618.710199999988,2617.710799999982,2618.2157999999818,2615.677299999982,2617.710699999988,2618.710299999982,2619.210199999988,2619.210299999982,2620.644199999988,1091.0,2620.644199999988,4.0,2620.644299999982,8.0,5.0,245.0,16.0,1.0,1.0,0.7,Time
,,S57,1,m,20,anonymized,Serial_Dependence_U,2023.2.3,Win32,243.9024390243686,,,,,,2620.6445,307.0,8.0,2620.6445,307.0,,,,2624.5815,2625.079299999982,2624.0795,2624.581400000006,2621.647599999994,2624.079299999982,2625.079400000006,2625.579400000006,2625.579400000006,2627.348099999994,1552.0,2627.348099999994,4.0,2627.348199999988,8.0,6.0,246.0,28.0,1.0,1.4,0.7,Time
,,S57,1,m,20,anonymized,Serial_Dependence_U,2023.2.3,Win32,243.9024390243686,,,,,,2627.348299999982,157.0,8.0,2627.348299999982,157.0,,,,2630.688199999988,2631.1875,2630.1855,2630.687900000006,2628.351699999988,2630.185299999982,2631.1875,2631.6875,2631.6875,2633.444299999982,1363.0,2633.444299999982,5.0,2633.444299999982,8.0,7.0,247.0,15.0,1.0,0.8,0.7,Time
,,S57,1,m,20,anonymized,Serial_Dependence_U,2023.2.3,Win32,243.9024390243686,,,,,,2633.4445,186.0,8.0,2633.444599999994,186.0,,,,2636.783299999982,2637.283199999988,2636.279099999994,2636.783199999988,2634.446799999982,2636.279,2637.283199999988,2637.783199999988,2637.783199999988,2639.151799999982,1245.0,2639.1519000000058,5.0,2639.1519000000058,8.0,8.0,248.0,5.0,1.0,0.8,0.7,Time
,,S57,1,m,20,anonymized,Serial_Dependence_U,2023.2.3,Win32,243.9024390243686,,,,,,2639.152099999994,176.0,8.0,2639.152099999994,176.0,,,,2642.5225,2643.020299999982,2642.018599999994,2642.5224000000057,2640.1559000000057,2642.018400000006,2643.020400000006,2643.520299999982,2643.520299999982,2644.814299999982,1049.0,2644.8144000000057,5.0,2644.8145,8.0,9.0,249.0,10.0,1.0,0.8,0.3,Time
,,S57,1,m,20,anonymized,Serial_Dependence_U,2023.2.3,Win32,243.9024390243686,,,,,,2644.814599999994,211.0,8.0,2644.814599999994,211.0,,,,2648.949699999988,2649.452,2648.446699999988,2648.949699999988,2645.8164000000056,2648.446599999994,2649.452,2649.952799999982,2649.952799999982,2652.103699999988,1954.0,2652.103699999988,4.0,2652.103799999982,8.0,10.0,250.0,9.0,1.0,1.6,0.7,Time
,,S57,1,m,20,anonymized,Serial_Dependence_U,2023.2.3,Win32,243.9024390243686,,,,,,2652.104,297.0,8.0,2652.104,297.0,,,,2656.071799999982,2656.5715,2655.569099999994,2656.071699999988,2653.107799999982,2655.569,2656.5715,2657.071599999994,2657.071599999994,2659.4129000000057,1968.0,2659.413,5.0,2659.413099999994,8.0,11.0,251.0,23.0,1.0,1.4,0.3,Time
,,S57,1,m,20,anonymized,Serial_Dependence_U,2023.2.3,Win32,243.9024390243686,,,,,,2659.413099999994,58.0,8.0,2659.413199999988,58.0,,,,2663.5805,2664.078,2663.077,2663.580299999982,2660.413699999988,2663.076900000006,2664.078,2664.575799999982,2664.5759000000057,2666.476599999994,1567.0,2666.476599999994,3.0,2666.476699999988,8.0,12.0,252.0,24.0,1.0,1.6,0.3,Time
,,S57,1,m,20,anonymized,Serial_Dependence_U,2023.2.3,Win32,243.9024390243686,,,,,,2666.476900000006,137.0,8.0,2666.476900000006,137.0,,,,2670.241699999988,2670.742099999994,2669.7385,2670.241599999994,2667.474299999982,2669.7384000000056,2670.742099999994,2671.240299999982,2671.2404000000056,2673.1515,1538.0,2673.1515,4.0,2673.151599999994,8.0,13.0,253.0,12.0,1.0,1.2,0.3,Time
,,S57,1,m,20,anonymized,Serial_Dependence_U,2023.2.3,Win32,243.9024390243686,,,,,,2673.151699999988,203.0,8.0,2673.151799999982,203.0,,,,2676.7155,2677.215299999982,2676.213299999982,2676.715299999982,2674.1514000000057,2676.213199999988,2677.215299999982,2677.715199999988,2677.715299999982,2679.130099999994,1154.0,2679.130099999994,4.0,2679.130199999988,8.0,14.0,254.0,21.0,1.0,1.0,0.3,Time
,,S57,1,m,20,anonymized,Serial_Dependence_U,2023.2.3,Win32,243.9024390243686,,,,,,2679.130299999982,224.0,8.0,2679.130400000006,224.0,,,,2682.663,2683.1622999999818,2682.158900000006,2682.6629000000057,2680.128199999988,2682.158799999982,2683.1622999999818,2683.662099999994,2683.662199999988,2685.4419000000057,1449.0,2685.4419000000057,5.0,2685.442,8.0,15.0,255.0,6.0,1.0,1.0,0.7,Time
,,S57,1,m,20,anonymized,Serial_Dependence_U,2023.2.3,Win32,243.9024390243686,,,,,,2685.442099999994,49.0,8.0,2685.442199999988,49.0,,,,2688.805599999994,2689.304099999994,2688.304900000006,2688.8055,2686.4412999999818,2688.304699999988,2689.304199999988,2689.804299999982,2689.804299999982,2690.644099999994,752.0,2690.644199999988,2.0,2690.644299999982,8.0,16.0,256.0,0.0,1.0,0.8,0.3,Time
,,S57,1,m,20,anonymized,Serial_Dependence_U,2023.2.3,Win32,243.9024390243686,,,,,,2690.644299999982,278.0,8.0,2690.644400000006,278.0,,,,2694.181799999982,2694.679900000006,2693.679699999988,2694.181699999988,2691.649299999982,2693.6795,2694.679900000006,2695.177199999988,2695.177400000006,2696.852299999982,1551.0,2696.852299999982,5.0,2696.8524000000057,8.0,17.0,257.0,26.0,1.0,1.0,0.7,Time
,,S57,1,m,20,anonymized,Serial_Dependence_U,2023.2.3,Win32,243.9024390243686,,,,,,2696.8525,22.0,8.0,2696.852699999988,22.0,,,,2700.419,2700.919,2699.915,2700.419,2697.852599999994,2699.915,2700.919,2701.419,2701.4190999999937,2702.5375999999937,783.0,2702.5375999999937,2.0,2702.537799999982,8.0,18.0,258.0,11.0,1.0,1.0,0.3,Time
,,S57,1,m,20,anonymized,Serial_Dependence_U,2023.2.3,Win32,243.9024390243686,,,,,,2702.5379000000057,181.0,8.0,2702.538,181.0,,,,2706.270799999982,2706.769,2705.768,2706.270799999982,2703.5372999999818,2705.7679000000057,2706.769,2707.268699999988,2707.268699999988,2708.948,1579.0,2708.948,5.0,2708.9480999999937,8.0,19.0,259.0,17.0,1.0,1.2,0.7,Time
,,S57,1,m,20,anonymized,Serial_Dependence_U,2023.2.3,Win32,243.9024390243686,,,,,,2708.948199999988,312.0,8.0,2708.948299999982,312.0,,,,2712.3205,2712.8209000000056,2711.8165999999937,2712.320400000006,2709.952199999988,2711.8164000000056,2712.8209000000056,2713.318400000006,2713.3185,2714.683400000006,1217.0,2714.683400000006,5.0,2714.6835,8.0,20.0,260.0,20.0,1.0,0.8,0.3,Time
