Scale_setup.started,Scale_setup.stopped,participant,session,sex,age,date,expName,psychopyVersion,OS,frameRate,Intro.started,Intro.stopped,key_resp_2.keys,key_resp_2.rt,key_resp_2.duration,block.started,direction,Block_id,block.stopped,trial_direction,Block_resp_2.keys,Block_resp_2.rt,Block_resp_2.duration,ITI.started,ITI.stopped,Mask_2.started,Mask_2.stopped,encoding.started,encoding.stopped,Cue.started,Cue.stopped,Response.started,Response.stopped,keyDuration,Feedback_Time.started,FeedbackID_T,Feedback_Time.stopped,trials.thisRepN,trials.thisTrialN,trials.thisN,trials.thisIndex,trials.ran,TimeDur,Coherence1,TrialType
0.0004000000952828,0.0006000001429811,S58,1,F,24,anonymized,Serial_Dependence_U,2023.2.3,Win32,60.24096385550618,,,,,,,,,,,,,,,,,,,,,,,,,,,,,,,,,,,
,,S58,1,F,24,anonymized,Serial_Dependence_U,2023.2.3,Win32,60.24096385550618,281.8106000001431,382.7184000000954,space,100.86309999990463,,,,,,,,,,,,,,,,,,,,,,,,,,,,,,,
,,S58,1,F,24,anonymized,Serial_Dependence_U,2023.2.3,Win32,60.24096385550618,,,,,,382.7322999999523,141.0,0.0,385.1742999999523,141.0,s,2.4103999998569634,,389.3626000001431,389.86579999995234,388.8526000001431,389.3622999999523,386.2037000000477,388.8525,389.86579999995234,390.358,390.3582999999523,392.438600000143,1469.0,392.4391000001431,2.0,393.441,0.0,0.0,0.0,29.0,1.0,1.6,0.7,Time
,,S58,1,F,24,anonymized,Serial_Dependence_U,2023.2.3,Win32,60.24096385550618,,,,,,393.4416000001431,100.0,0.0,393.4437999999523,100.0,,,,396.8255,397.3247000000477,396.3189000000954,396.8254000000954,394.4455,396.3187999999523,397.3247000000477,397.83279999995233,397.8329000000954,399.4359000000954,516.0,399.4361000001431,1.0,400.4242999999523,0.0,1.0,1.0,0.0,1.0,0.8,0.3,Time
,,S58,1,F,24,anonymized,Serial_Dependence_U,2023.2.3,Win32,60.24096385550618,,,,,,400.4247999999523,91.0,0.0,400.425,91.0,,,,404.2027000000477,404.69170000004766,403.6917999999524,404.20260000014304,401.4529000000954,403.6916000001431,404.6917999999524,405.19760000014304,405.19760000014304,407.57720000004775,1524.0,407.57729999995234,4.0,408.56740000009535,0.0,2.0,2.0,17.0,1.0,1.2,0.7,Time
,,S58,1,F,24,anonymized,Serial_Dependence_U,2023.2.3,Win32,60.24096385550618,,,,,,408.56770000004775,220.0,0.0,408.56779999995234,220.0,,,,411.92460000014313,412.4154000000954,411.41890000009545,411.9245,409.5685,411.41870000004775,412.4155,412.915,412.915,414.67840000009545,1125.0,414.6785,5.0,415.6672999999524,0.0,3.0,3.0,15.0,1.0,0.8,0.7,Time
,,S58,1,F,24,anonymized,Serial_Dependence_U,2023.2.3,Win32,60.24096385550618,,,,,,415.66820000004776,83.0,0.0,415.6685000000001,83.0,,,,419.6267000000477,420.1240000000001,419.12490000009535,419.6265,416.6857000000477,419.12490000009535,420.1240000000001,420.62420000004767,420.6242999999524,422.7531000001431,1602.0,422.7532999999524,4.0,423.75890000009537,0.0,4.0,4.0,8.0,1.0,1.4,0.7,Time
,,S58,1,F,24,anonymized,Serial_Dependence_U,2023.2.3,Win32,60.24096385550618,,,,,,423.75920000004766,33.0,0.0,423.75940000009535,33.0,,,,427.568600000143,428.05750000000006,427.0482999999524,427.5685,424.7852999999523,427.04820000004776,428.0576000001431,428.5657000000477,428.5657000000477,430.34,1117.0,430.3401000001431,2.0,431.3342000000477,0.0,5.0,5.0,12.0,1.0,1.2,0.3,Time
,,S58,1,F,24,anonymized,Serial_Dependence_U,2023.2.3,Win32,60.24096385550618,,,,,,431.3345,160.0,0.0,431.3346000001431,160.0,,,,434.91840000009535,435.41,434.4080000000001,434.9182999999524,432.3352000000477,434.4077999999524,435.41010000014313,435.89890000009535,435.89900000000006,437.6409000000954,1079.0,437.641,4.0,438.652,0.0,6.0,6.0,11.0,1.0,1.0,0.3,Time
,,S58,1,F,24,anonymized,Serial_Dependence_U,2023.2.3,Win32,60.24096385550618,,,,,,438.6525,209.0,0.0,438.6527000000477,209.0,,,,442.801,443.2902999999523,442.29240000009537,442.8009000000954,439.65910000014304,442.2922999999524,443.2902999999523,443.7817000000477,443.7817999999524,446.0097999999524,1740.0,446.00990000009534,4.0,446.99940000009536,0.0,7.0,7.0,19.0,1.0,1.6,0.7,Time
,,S58,1,F,24,anonymized,Serial_Dependence_U,2023.2.3,Win32,60.24096385550618,,,,,,447.00000000000006,21.0,0.0,447.00020000004776,21.0,,,,450.5642000000477,451.05770000004776,450.0580000000001,450.564,448.0177999999524,450.05790000009534,451.0577999999524,451.5630000000001,451.56310000014304,453.6842999999523,1116.0,453.6844000000954,4.0,454.6732999999524,0.0,8.0,8.0,6.0,1.0,1.0,0.7,Time
,,S58,1,F,24,anonymized,Serial_Dependence_U,2023.2.3,Win32,60.24096385550618,,,,,,454.67379999995234,139.0,0.0,454.674100000143,139.0,,,,458.666,459.1572999999524,458.1522000000477,458.6659000000954,455.6742000000477,458.1521000001431,459.1572999999524,459.6667999999524,459.6669000000954,461.5175,1257.0,461.5176000001431,2.0,462.5076000001431,0.0,9.0,9.0,13.0,1.0,1.4,0.3,Time
,,S58,1,F,24,anonymized,Serial_Dependence_U,2023.2.3,Win32,60.24096385550618,,,,,,462.5082000000477,120.0,0.0,462.5085000000001,120.0,,,,466.2675,466.7642999999524,465.74990000009535,466.2674000000954,463.5117000000477,465.74990000009535,466.7642999999524,467.26440000009535,467.26450000000006,469.2112999999524,1222.0,469.21140000009535,3.0,470.2,0.0,10.0,10.0,27.0,1.0,1.2,0.7,Time
,,S58,1,F,24,anonymized,Serial_Dependence_U,2023.2.3,Win32,60.24096385550618,,,,,,470.2006000001431,171.0,0.0,470.2009000000954,171.0,,,,473.75040000009534,474.23979999995225,473.2432999999524,473.7502999999524,471.2070000000001,473.2431000001431,474.23979999995225,474.7329000000954,474.7329000000954,476.7562000000477,1169.0,476.7562999999524,4.0,477.7567999999523,0.0,11.0,11.0,16.0,1.0,1.0,0.7,Time
,,S58,1,F,24,anonymized,Serial_Dependence_U,2023.2.3,Win32,60.24096385550618,,,,,,477.7572999999524,254.0,0.0,477.7575000000001,254.0,,,,481.5179000000955,482.0066000001431,481.0075000000001,481.5176000001431,478.77440000009545,481.0072999999524,482.0066000001431,482.4979000000953,482.4979000000953,484.3242000000477,1367.0,484.3242000000477,4.0,485.3232999999525,0.0,12.0,12.0,7.0,1.0,1.2,0.7,Time
,,S58,1,F,24,anonymized,Serial_Dependence_U,2023.2.3,Win32,60.24096385550618,,,,,,485.3237999999523,94.0,0.0,485.3239000000953,94.0,,,,488.9009000000953,489.39,488.3852000000476,488.9007999999523,486.3342999999524,488.3851000001432,489.39,489.8981000001431,489.8981000001431,491.6234000000954,1204.0,491.6235000000001,4.0,492.6172000000476,0.0,13.0,13.0,26.0,1.0,1.0,0.7,Time
,,S58,1,F,24,anonymized,Serial_Dependence_U,2023.2.3,Win32,60.24096385550618,,,,,,492.6177000000477,277.0,0.0,492.6179000000954,277.0,,,,496.8005,497.2892000000476,496.2902999999523,496.8004000000953,493.616600000143,496.2902000000476,497.2892000000476,497.7971000001432,497.79720000004767,499.8339000000953,1283.0,499.834100000143,2.0,500.8232000000477,0.0,14.0,14.0,14.0,1.0,1.6,0.3,Time
,,S58,1,F,24,anonymized,Serial_Dependence_U,2023.2.3,Win32,60.24096385550618,,,,,,500.82360000014313,213.0,0.0,500.8237999999523,213.0,,,,504.8165000000001,505.306100000143,504.300600000143,504.8165000000001,501.8169000000955,504.3005,505.306100000143,505.797,505.7971000001432,508.3669000000954,1833.0,508.3670000000001,5.0,509.3562000000477,0.0,15.0,15.0,3.0,1.0,1.4,0.3,Time
,,S58,1,F,24,anonymized,Serial_Dependence_U,2023.2.3,Win32,60.24096385550618,,,,,,509.35660000014303,200.0,0.0,509.3567000000477,200.0,,,,512.9565,513.4652999999523,512.4397999999524,512.9565,510.3669000000954,512.4397000000479,513.4654000000955,513.9637999999525,513.9637999999525,516.5895,1729.0,516.589600000143,5.0,517.5835000000002,0.0,16.0,16.0,1.0,1.0,1.0,0.3,Time
,,S58,1,F,24,anonymized,Serial_Dependence_U,2023.2.3,Win32,60.24096385550618,,,,,,517.5842000000478,218.0,0.0,517.5844000000955,218.0,,,,521.1667000000477,521.6637000000478,520.6564000000953,521.1667000000477,518.5834000000955,520.6562999999524,521.6637999999523,522.1556000001431,522.1557000000478,523.626,974.0,523.6261000001432,3.0,524.6225000000002,0.0,17.0,17.0,21.0,1.0,1.0,0.3,Time
,,S58,1,F,24,anonymized,Serial_Dependence_U,2023.2.3,Win32,60.24096385550618,,,,,,524.6229000000953,89.0,0.0,524.623,89.0,,,,528.022600000143,528.5230000000001,527.517,528.0225,525.6491000001431,527.5169000000953,528.5231000001431,529.0140000000001,529.0141000001431,530.4674000000955,978.0,530.4675,4.0,531.4557999999524,0.0,18.0,18.0,20.0,1.0,0.8,0.3,Time
,,S58,1,F,24,anonymized,Serial_Dependence_U,2023.2.3,Win32,60.24096385550618,,,,,,531.4562999999523,303.0,0.0,531.4564000000955,303.0,,,,535.2674000000954,535.7557000000477,534.7487999999523,535.2672999999525,532.4676000001432,534.7487000000478,535.7557000000477,536.2471000001431,536.2472000000478,538.2552000000478,1697.0,538.2552999999525,5.0,539.2672999999525,0.0,19.0,19.0,22.0,1.0,1.2,0.3,Time
,,S58,1,F,24,anonymized,Serial_Dependence_U,2023.2.3,Win32,60.24096385550618,,,,,,539.2679000000956,347.0,0.0,539.2682999999524,347.0,,,,543.4567999999524,543.9470000000001,542.9492000000478,543.4567000000477,540.2836000001432,542.9491000001431,543.9470000000001,544.4467000000477,544.4467000000477,546.1007000000477,1067.0,546.1009000000954,1.0,547.0890000000002,0.0,20.0,20.0,24.0,1.0,1.6,0.3,Time
,,S58,1,F,24,anonymized,Serial_Dependence_U,2023.2.3,Win32,60.24096385550618,,,,,,547.0894000000953,232.0,0.0,547.0897000000477,232.0,,,,551.0887999999525,551.5805,550.5842000000478,551.0887999999525,548.1061000001432,550.584100000143,551.5807000000477,552.0726000001432,552.0726000001432,553.9665,1275.0,553.9665,2.0,554.9555,0.0,21.0,21.0,23.0,1.0,1.4,0.3,Time
,,S58,1,F,24,anonymized,Serial_Dependence_U,2023.2.3,Win32,60.24096385550618,,,,,,554.9559000000954,332.0,0.0,554.9561000001431,332.0,,,,558.739100000143,559.2299000000955,558.2319000000955,558.739,555.9562999999523,558.2319000000955,559.2299000000955,559.722,559.722,562.3682000000476,2001.0,562.3682999999521,5.0,563.3564999999999,0.0,22.0,22.0,2.0,1.0,1.2,0.3,Time
,,S58,1,F,24,anonymized,Serial_Dependence_U,2023.2.3,Win32,60.24096385550618,,,,,,563.3569999999997,161.0,0.0,563.3572000000474,161.0,,,,567.5399000000953,568.0299000000953,567.0329999999999,567.5397000000476,564.3566000001429,567.0329000000952,568.0299999999997,568.5296000001429,568.5297000000476,570.2557000000475,1318.0,570.2557000000475,2.0,571.2497999999521,0.0,23.0,23.0,4.0,1.0,1.6,0.3,Time
,,S58,1,F,24,anonymized,Serial_Dependence_U,2023.2.3,Win32,60.24096385550618,,,,,,571.2504000000952,291.0,0.0,571.2506000001429,291.0,,,,575.3787000000475,575.8721000001428,574.8729000000951,575.3786000001428,572.2392999999522,574.8727999999521,575.8721000001428,576.3719999999998,576.3721000001428,578.7722999999521,1905.0,578.7724000000953,4.0,579.7814000000951,0.0,24.0,24.0,9.0,1.0,1.6,0.7,Time
,,S58,1,F,24,anonymized,Serial_Dependence_U,2023.2.3,Win32,60.24096385550618,,,,,,579.7817000000475,98.0,0.0,579.7817000000475,98.0,,,,583.7327000000475,584.2289000000953,583.2239000000952,583.7326000001428,580.7887999999521,583.2237000000475,584.2289000000953,584.7297999999521,584.7297999999521,587.1549999999997,1822.0,587.155100000143,5.0,588.1657000000475,0.0,25.0,25.0,18.0,1.0,1.4,0.7,Time
,,S58,1,F,24,anonymized,Serial_Dependence_U,2023.2.3,Win32,60.24096385550618,,,,,,588.1664999999998,54.0,0.0,588.1667000000475,54.0,,,,591.5661000001428,592.0549000000951,591.0472999999522,591.5657999999521,589.1827000000476,591.0472999999522,592.0549999999998,592.5631000001429,592.5631000001429,594.1837999999523,1083.0,594.1839000000953,5.0,595.1719000000953,0.0,26.0,26.0,10.0,1.0,0.8,0.3,Time
,,S58,1,F,24,anonymized,Serial_Dependence_U,2023.2.3,Win32,60.24096385550618,,,,,,595.1722999999522,38.0,0.0,595.1724000000952,38.0,,,,598.5165,599.004600000143,597.9992000000475,598.5164000000952,596.1671000001429,597.999100000143,599.0047000000475,599.4957999999522,599.4957999999522,601.399600000143,1197.0,601.3997999999522,5.0,602.3889000000952,0.0,27.0,27.0,25.0,1.0,0.8,0.7,Time
,,S58,1,F,24,anonymized,Serial_Dependence_U,2023.2.3,Win32,60.24096385550618,,,,,,602.3894000000953,107.0,0.0,602.3894999999998,107.0,,,,606.3497000000475,606.838,605.8387999999522,606.3496000001428,603.4052999999521,605.8387000000475,606.838,607.3302999999521,607.3302999999521,609.2054000000953,1389.0,609.2054999999998,3.0,610.2047000000475,0.0,28.0,28.0,28.0,1.0,1.4,0.7,Time
,,S58,1,F,24,anonymized,Serial_Dependence_U,2023.2.3,Win32,60.24096385550618,,,,,,610.2052999999521,155.0,0.0,610.2054000000953,155.0,,,,613.5504999999998,614.0387000000476,613.0494000000951,613.5502999999521,611.2169000000952,613.0492999999522,614.0387000000476,614.5467000000476,614.5467999999521,616.4552000000476,1339.0,616.4552000000476,5.0,617.4544999999998,0.0,29.0,29.0,5.0,1.0,0.8,0.7,Time
,,S58,1,F,24,anonymized,Serial_Dependence_U,2023.2.3,Win32,60.24096385550618,,,,,,617.4549000000952,259.0,1.0,738.4704000000952,259.0,s,120.99339999985682,,741.8367000000476,742.3364000000952,741.3202000000476,741.8366000001429,739.4872999999523,741.3201000001429,742.3364999999999,742.836100000143,742.836100000143,744.9029999999998,1248.0,744.9029999999998,5.0,744.9034000000952,1.0,0.0,30.0,15.0,1.0,0.8,0.7,Time
,,S58,1,F,24,anonymized,Serial_Dependence_U,2023.2.3,Win32,60.24096385550618,,,,,,744.9037999999521,79.0,1.0,744.9052999999521,79.0,,,,748.3031000001429,748.8027000000475,747.7874000000952,748.3029999999999,745.9197000000474,747.7874000000952,748.8027999999522,749.3034999999998,749.3034999999998,751.436600000143,1650.0,751.4367000000475,5.0,751.4369999999999,1.0,1.0,31.0,0.0,1.0,0.8,0.3,Time
,,S58,1,F,24,anonymized,Serial_Dependence_U,2023.2.3,Win32,60.24096385550618,,,,,,751.4374999999998,349.0,1.0,751.437600000143,349.0,,,,755.203100000143,755.7024999999999,754.6874000000953,755.2029999999997,752.453100000143,754.6872999999521,755.7024999999999,756.2027999999523,756.2027999999523,758.535600000143,1497.0,758.5357000000474,4.0,758.5359000000951,1.0,2.0,32.0,17.0,1.0,1.2,0.7,Time
,,S58,1,F,24,anonymized,Serial_Dependence_U,2023.2.3,Win32,60.24096385550618,,,,,,758.5362000000475,355.0,1.0,758.5362999999522,355.0,,,,762.5369000000953,763.0357999999521,762.0197000000476,762.5369000000953,759.5534000000953,762.0196000001429,763.0357999999521,763.5361000001428,763.5361000001428,765.4201000001428,1384.0,765.4202000000475,3.0,765.4205,1.0,3.0,33.0,13.0,1.0,1.4,0.3,Time
,,S58,1,F,24,anonymized,Serial_Dependence_U,2023.2.3,Win32,60.24096385550618,,,,,,765.4209000000951,2.0,1.0,765.4211000001428,2.0,,,,768.9727000000476,769.4692000000475,768.4697999999521,768.9726000001428,766.4359000000952,768.4697000000476,769.4692000000475,769.970100000143,769.970100000143,772.5189000000953,1865.0,772.5189999999998,5.0,772.519100000143,1.0,4.0,34.0,16.0,1.0,1.0,0.7,Time
,,S58,1,F,24,anonymized,Serial_Dependence_U,2023.2.3,Win32,60.24096385550618,,,,,,772.5196000001429,271.0,1.0,772.5197000000476,271.0,,,,776.5207999999523,777.0199000000953,776.0029999999999,776.5207000000476,773.5362000000475,776.0029999999999,777.0199999999998,777.5189000000953,777.5189000000953,779.2696000001429,1233.0,779.2697000000476,2.0,779.2699000000953,1.0,5.0,35.0,3.0,1.0,1.4,0.3,Time
,,S58,1,F,24,anonymized,Serial_Dependence_U,2023.2.3,Win32,60.24096385550618,,,,,,779.2702999999522,257.0,1.0,779.2704999999999,257.0,,,,783.0367000000476,783.535600000143,782.5359999999998,783.0366000001429,780.2707000000476,782.5357999999521,783.5357000000474,784.0352999999523,784.0352999999523,786.5519999999999,1844.0,786.5519999999999,5.0,786.5522000000476,1.0,6.0,36.0,12.0,1.0,1.2,0.3,Time
,,S58,1,F,24,anonymized,Serial_Dependence_U,2023.2.3,Win32,60.24096385550618,,,,,,786.552600000143,237.0,1.0,786.5527000000475,237.0,,,,790.3362000000475,790.8354999999999,789.8194999999998,790.3362000000475,787.5534000000953,789.8194000000951,790.8354999999999,791.3357000000476,791.3357000000476,793.5857999999521,1819.0,793.5857999999521,5.0,793.5862000000475,1.0,7.0,37.0,22.0,1.0,1.2,0.3,Time
,,S58,1,F,24,anonymized,Serial_Dependence_U,2023.2.3,Win32,60.24096385550618,,,,,,793.5867000000476,171.0,1.0,793.5867999999521,171.0,,,,797.5531000001429,798.0524999999998,797.0362000000475,797.5529999999999,794.6034999999999,797.0361000001428,798.0524999999998,798.5522000000476,798.5522000000476,801.8701000001429,2468.0,801.8702000000476,5.0,801.8707999999522,1.0,8.0,38.0,18.0,1.0,1.4,0.7,Time
,,S58,1,F,24,anonymized,Serial_Dependence_U,2023.2.3,Win32,60.24096385550618,,,,,,801.8715,50.0,1.0,801.8717999999521,50.0,,,,806.0197999999523,806.5184999999999,805.5037999999522,806.0197000000476,802.8697000000475,805.5036000001428,806.5184999999999,807.0186000001429,807.0186000001429,809.9859999999999,2380.0,809.9859999999999,5.0,809.9864000000953,1.0,9.0,39.0,29.0,1.0,1.6,0.7,Time
,,S58,1,F,24,anonymized,Serial_Dependence_U,2023.2.3,Win32,60.24096385550618,,,,,,809.9867000000474,318.0,1.0,809.9867999999522,318.0,,,,814.1354999999999,814.635100000143,813.6187999999522,814.1354999999999,810.9857000000475,813.6187000000475,814.635100000143,815.135100000143,815.1352000000475,818.0371000001428,2332.0,818.0371000001428,5.0,818.0374999999999,1.0,10.0,40.0,19.0,1.0,1.6,0.7,Time
,,S58,1,F,24,anonymized,Serial_Dependence_U,2023.2.3,Win32,60.24096385550618,,,,,,818.0377999999521,23.0,1.0,818.0379999999998,23.0,,,,821.4022999999522,821.9021000001428,820.886,821.4022000000475,819.0524000000953,820.886,821.9021000001428,822.4017999999521,822.4019000000951,824.8352000000475,1818.0,824.8352999999522,5.0,824.8357000000476,1.0,11.0,41.0,25.0,1.0,0.8,0.7,Time
,,S58,1,F,24,anonymized,Serial_Dependence_U,2023.2.3,Win32,60.24096385550618,,,,,,824.8362000000475,197.0,1.0,824.8364000000952,197.0,,,,828.2034000000951,828.7014999999999,827.7024999999999,828.2032999999522,825.8364000000952,827.7024999999999,828.7014999999999,829.202100000143,829.2022000000475,831.5182000000475,1834.0,831.5182999999522,5.0,831.5186000001429,1.0,12.0,42.0,20.0,1.0,0.8,0.3,Time
,,S58,1,F,24,anonymized,Serial_Dependence_U,2023.2.3,Win32,60.24096385550618,,,,,,831.5189999999998,110.0,1.0,831.519100000143,110.0,,,,834.9024000000952,835.4012999999522,834.3854999999999,834.9022999999522,832.519100000143,834.3854999999999,835.4014000000952,835.9026000001429,835.9027000000476,838.1362000000474,1735.0,838.1362999999521,5.0,838.1366000001428,1.0,13.0,43.0,10.0,1.0,0.8,0.3,Time
,,S58,1,F,24,anonymized,Serial_Dependence_U,2023.2.3,Win32,60.24096385550618,,,,,,838.1371000001429,100.0,1.0,838.1374000000951,100.0,,,,842.285600000143,842.7844999999998,841.7684999999999,842.2855,839.1354000000952,841.7684000000952,842.7844999999998,843.2851000001428,843.2852000000476,846.0016000001428,2364.0,846.0017000000475,5.0,846.002100000143,1.0,14.0,44.0,9.0,1.0,1.6,0.7,Time
,,S58,1,F,24,anonymized,Serial_Dependence_U,2023.2.3,Win32,60.24096385550618,,,,,,846.0024999999998,352.0,1.0,846.0026000001428,352.0,,,,849.5682999999522,850.0679999999998,849.0534000000953,849.5682999999522,847.0182999999522,849.0534000000953,850.0679999999998,850.5682999999522,850.5682999999522,852.7017000000476,1749.0,852.7017000000476,5.0,852.7019999999998,1.0,15.0,45.0,26.0,1.0,1.0,0.7,Time
,,S58,1,F,24,anonymized,Serial_Dependence_U,2023.2.3,Win32,60.24096385550618,,,,,,852.7024999999999,41.0,1.0,852.7026000001429,41.0,,,,856.4682000000475,856.9682000000475,855.9516000001429,856.4679999999998,853.7184000000952,855.9514999999999,856.9682000000475,857.4682000000475,857.4682000000475,860.2349000000952,1964.0,860.2349999999999,5.0,860.2354000000953,1.0,16.0,46.0,7.0,1.0,1.2,0.7,Time
,,S58,1,F,24,anonymized,Serial_Dependence_U,2023.2.3,Win32,60.24096385550618,,,,,,860.2357000000475,194.0,1.0,860.2357999999522,194.0,,,,864.4347000000475,864.9346000001428,863.9187000000475,864.4346000001428,861.251100000143,863.9184999999998,864.9346000001428,865.4346000001428,865.4346000001428,868.2016000001429,2015.0,868.2017000000476,4.0,868.2019999999998,1.0,17.0,47.0,4.0,1.0,1.6,0.3,Time
,,S58,1,F,24,anonymized,Serial_Dependence_U,2023.2.3,Win32,60.24096385550618,,,,,,868.2024000000952,82.0,1.0,868.2024999999999,82.0,,,,872.1522999999522,872.6514999999999,871.6514999999999,872.1522000000475,869.2182999999523,871.6514999999999,872.6514999999999,873.1519999999998,873.1519999999998,875.4179000000952,1801.0,875.4179999999999,4.0,875.4182999999521,1.0,18.0,48.0,28.0,1.0,1.4,0.7,Time
,,S58,1,F,24,anonymized,Serial_Dependence_U,2023.2.3,Win32,60.24096385550618,,,,,,875.4187000000475,53.0,1.0,875.4189000000952,53.0,,,,879.4016000001429,879.9009000000951,878.8854000000952,879.4014999999999,876.4184000000953,878.8854000000952,879.9009000000951,880.4009000000951,880.4009999999998,883.1859000000952,2168.0,883.1859999999999,5.0,883.1862999999521,1.0,19.0,49.0,23.0,1.0,1.4,0.3,Time
,,S58,1,F,24,anonymized,Serial_Dependence_U,2023.2.3,Win32,60.24096385550618,,,,,,883.1867000000475,112.0,1.0,883.1867999999522,112.0,,,,886.7849000000951,887.2842000000476,886.2679999999998,886.7847999999522,884.2014000000952,886.2679000000953,887.2842000000476,887.7842999999523,887.7842999999523,890.385100000143,1783.0,890.3852000000475,5.0,890.3856000001429,1.0,20.0,50.0,1.0,1.0,1.0,0.3,Time
,,S58,1,F,24,anonymized,Serial_Dependence_U,2023.2.3,Win32,60.24096385550618,,,,,,890.3859000000953,107.0,1.0,890.386100000143,107.0,,,,893.7514999999999,894.2507999999523,893.2349000000952,893.7512999999522,891.4012999999522,893.2347999999522,894.2507999999523,894.7514000000951,894.7514000000951,897.0179999999998,1582.0,897.0179999999998,5.0,897.0184000000952,1.0,21.0,51.0,5.0,1.0,0.8,0.7,Time
,,S58,1,F,24,anonymized,Serial_Dependence_U,2023.2.3,Win32,60.24096385550618,,,,,,897.0189000000953,327.0,1.0,897.019100000143,327.0,,,,900.8179000000952,901.3174000000952,900.3017000000475,900.8177999999524,898.034600000143,900.3017000000475,901.3174000000952,901.8172999999522,901.8172999999522,904.4011000001428,2233.0,904.4012000000477,5.0,904.4015,1.0,22.0,52.0,2.0,1.0,1.2,0.3,Time
,,S58,1,F,24,anonymized,Serial_Dependence_U,2023.2.3,Win32,60.24096385550618,,,,,,904.4019999999998,337.0,1.0,904.4022000000476,337.0,,,,908.1524000000952,908.6516000001428,907.6346000001428,908.1524000000952,905.4012000000477,907.6345,908.6516000001428,909.1511000001428,909.1511000001428,912.1504000000951,2180.0,912.1505,5.0,912.1507000000474,1.0,23.0,53.0,27.0,1.0,1.2,0.7,Time
,,S58,1,F,24,anonymized,Serial_Dependence_U,2023.2.3,Win32,60.24096385550618,,,,,,912.1509999999998,357.0,1.0,912.1512000000477,357.0,,,,915.7517999999524,916.251100000143,915.2342000000476,915.7517000000475,913.1674999999998,915.2341000001428,916.251100000143,916.750100000143,916.7502000000476,919.1509000000952,1852.0,919.1509999999998,5.0,919.1512000000477,1.0,24.0,54.0,21.0,1.0,1.0,0.3,Time
,,S58,1,F,24,anonymized,Serial_Dependence_U,2023.2.3,Win32,60.24096385550618,,,,,,919.1517000000476,212.0,1.0,919.1519999999998,212.0,,,,922.7507000000476,923.2507000000476,922.2351000001428,922.7507000000476,920.1677000000476,922.235,923.2507000000476,923.7504000000952,923.7504000000952,926.0677000000476,1768.0,926.0679000000952,5.0,926.068100000143,1.0,25.0,55.0,11.0,1.0,1.0,0.3,Time
,,S58,1,F,24,anonymized,Serial_Dependence_U,2023.2.3,Win32,60.24096385550618,,,,,,926.0685,211.0,1.0,926.0687000000476,211.0,,,,930.0176000001428,930.5167000000476,929.5009000000952,930.0174000000952,927.0682999999522,929.5007999999524,930.5167000000476,931.0174000000952,931.0175,933.384100000143,1931.0,933.384100000143,5.0,933.3844000000952,1.0,26.0,56.0,8.0,1.0,1.4,0.7,Time
,,S58,1,F,24,anonymized,Serial_Dependence_U,2023.2.3,Win32,60.24096385550618,,,,,,933.3849000000952,12.0,1.0,933.3849999999998,12.0,,,,937.5835,938.0847000000476,937.0682000000476,937.5834000000953,934.4009000000952,937.068100000143,938.084799999952,938.5832000000476,938.5832000000476,941.9005,2616.0,941.9005,5.0,941.9009000000952,1.0,27.0,57.0,24.0,1.0,1.6,0.3,Time
,,S58,1,F,24,anonymized,Serial_Dependence_U,2023.2.3,Win32,60.24096385550618,,,,,,941.9012999999522,8.0,1.0,941.9014000000952,8.0,,,,945.436,945.9329999999998,944.934100000143,945.436,942.9014000000952,944.934,945.9329999999998,946.4332999999522,946.4334000000952,948.7674000000952,1920.0,948.7675,5.0,948.7677000000476,1.0,28.0,58.0,6.0,1.0,1.0,0.7,Time
,,S58,1,F,24,anonymized,Serial_Dependence_U,2023.2.3,Win32,60.24096385550618,,,,,,948.7681000001428,316.0,1.0,948.7682000000476,316.0,,,,952.9509000000952,953.4497000000476,952.4502999999522,952.9509000000952,949.7837000000476,952.4502000000476,953.449799999952,953.9509000000952,953.9509000000952,956.932799999952,2602.0,956.9329000000952,5.0,956.9329999999998,1.0,29.0,59.0,14.0,1.0,1.6,0.3,Time
,,S58,1,F,24,anonymized,Serial_Dependence_U,2023.2.3,Win32,60.24096385550618,,,,,,956.9332000000476,43.0,2.0,999.3835,43.0,s,42.43430000019066,,1002.9664000000952,1003.4657000000476,1002.4659000000952,1002.9664000000952,1000.4,1002.4659000000952,1003.4657999999522,1003.965600000143,1003.9657000000476,1006.2492000000476,1848.0,1006.2492000000476,5.0,1006.2494000000952,2.0,0.0,60.0,21.0,1.0,1.0,0.3,Time
,,S58,1,F,24,anonymized,Serial_Dependence_U,2023.2.3,Win32,60.24096385550618,,,,,,1006.249799999952,37.0,2.0,1006.2509999999996,37.0,,,,1009.9999999999998,1010.4992000000476,1009.4992999999522,1009.999799999952,1007.266600000143,1009.4992000000476,1010.4992999999522,1010.9996000001428,1010.9996000001428,1013.8,2068.0,1013.800100000143,5.0,1013.8004000000952,2.0,1.0,61.0,27.0,1.0,1.2,0.7,Time
,,S58,1,F,24,anonymized,Serial_Dependence_U,2023.2.3,Win32,60.24096385550618,,,,,,1013.8009000000952,151.0,2.0,1013.801,151.0,,,,1017.3994999999998,1017.899,1016.8831000001428,1017.3994000000952,1014.817100000143,1016.8829999999998,1017.8991000001428,1018.4002999999524,1018.4004000000951,1020.5832000000476,1768.0,1020.5832999999524,5.0,1020.583600000143,2.0,2.0,62.0,11.0,1.0,1.0,0.3,Time
,,S58,1,F,24,anonymized,Serial_Dependence_U,2023.2.3,Win32,60.24096385550618,,,,,,1020.5839000000952,39.0,2.0,1020.5842000000476,39.0,,,,1023.917,1024.4157999999522,1023.416,1023.9169000000952,1021.5827999999522,1023.416,1024.4159000000952,1024.9157999999522,1024.9157999999522,1026.9992000000475,1401.0,1026.9992000000475,5.0,1026.9997000000476,2.0,3.0,63.0,25.0,1.0,0.8,0.7,Time
,,S58,1,F,24,anonymized,Serial_Dependence_U,2023.2.3,Win32,60.24096385550618,,,,,,1027.000100000143,333.0,2.0,1027.0002000000477,333.0,,,,1030.7659999999998,1031.2657999999522,1030.249100000143,1030.7659999999998,1028.015600000143,1030.249100000143,1031.2659000000951,1031.7664000000952,1031.7665,1034.716600000143,2182.0,1034.7167000000477,5.0,1034.717,2.0,4.0,64.0,17.0,1.0,1.2,0.7,Time
,,S58,1,F,24,anonymized,Serial_Dependence_U,2023.2.3,Win32,60.24096385550618,,,,,,1034.7174000000953,121.0,2.0,1034.717600000143,121.0,,,,1038.9001000001429,1039.399299999952,1038.3825,1038.9,1035.7164999999998,1038.3824000000952,1039.399299999952,1039.8987000000477,1039.8987000000477,1042.8152000000475,2281.0,1042.8152999999522,5.0,1042.815600000143,2.0,5.0,65.0,4.0,1.0,1.6,0.3,Time
,,S58,1,F,24,anonymized,Serial_Dependence_U,2023.2.3,Win32,60.24096385550618,,,,,,1042.8159999999998,205.0,2.0,1042.8161000001428,205.0,,,,1046.6162999999522,1047.1164000000952,1046.1004000000953,1046.6162999999522,1043.8329000000952,1046.100299999952,1047.1164000000952,1047.617100000143,1047.617100000143,1049.765600000143,1735.0,1049.765600000143,5.0,1049.7659000000951,2.0,6.0,66.0,2.0,1.0,1.2,0.3,Time
,,S58,1,F,24,anonymized,Serial_Dependence_U,2023.2.3,Win32,60.24096385550618,,,,,,1049.7664000000952,9.0,2.0,1049.7665,9.0,,,,1053.7322000000474,1054.2316000001429,1053.2157000000475,1053.7322000000474,1050.7822000000476,1053.2157000000475,1054.2316000001429,1054.7319999999995,1054.732100000143,1057.5489999999998,2132.0,1057.5489999999998,5.0,1057.5492999999522,2.0,7.0,67.0,28.0,1.0,1.4,0.7,Time
,,S58,1,F,24,anonymized,Serial_Dependence_U,2023.2.3,Win32,60.24096385550618,,,,,,1057.5497000000476,117.0,2.0,1057.55,117.0,,,,1060.8997999999522,1061.399299999952,1060.3822000000475,1060.8997000000477,1058.5489999999998,1060.3821000001428,1061.399299999952,1061.898600000143,1061.8987999999522,1064.248799999952,1600.0,1064.248900000095,5.0,1064.2492999999522,2.0,8.0,68.0,15.0,1.0,0.8,0.7,Time
,,S58,1,F,24,anonymized,Serial_Dependence_U,2023.2.3,Win32,60.24096385550618,,,,,,1064.2497000000476,96.0,2.0,1064.249799999952,96.0,,,,1068.4156000001428,1068.9152000000474,1067.8991000001429,1068.4156000001428,1065.2654000000953,1067.899,1068.9152000000474,1069.4157999999522,1069.4157999999522,1072.0814999999998,2099.0,1072.0814999999998,5.0,1072.0817000000477,2.0,9.0,69.0,9.0,1.0,1.6,0.7,Time
,,S58,1,F,24,anonymized,Serial_Dependence_U,2023.2.3,Win32,60.24096385550618,,,,,,1072.0819000000952,313.0,2.0,1072.0821000001429,313.0,,,,1075.648600000143,1076.1494999999998,1075.1322999999522,1075.648600000143,1073.1004000000953,1075.1322999999522,1076.1494999999998,1076.6494000000953,1076.6494000000953,1079.081600000143,1616.0,1079.0817000000477,5.0,1079.0821000001429,2.0,10.0,70.0,26.0,1.0,1.0,0.7,Time
,,S58,1,F,24,anonymized,Serial_Dependence_U,2023.2.3,Win32,60.24096385550618,,,,,,1079.0824999999998,339.0,2.0,1079.082600000143,339.0,,,,1082.6331000001428,1083.1312999999525,1082.1322000000475,1082.6329999999998,1080.0986000001428,1082.1319999999998,1083.1314000000953,1083.6312999999525,1083.6312999999525,1085.9646000001428,1847.0,1085.9647000000475,5.0,1085.965,2.0,11.0,71.0,6.0,1.0,1.0,0.7,Time
,,S58,1,F,24,anonymized,Serial_Dependence_U,2023.2.3,Win32,60.24096385550618,,,,,,1085.965400000095,123.0,2.0,1085.9654999999998,123.0,,,,1089.3152999999522,1089.814799999952,1088.814799999952,1089.3152000000475,1086.983,1088.8147000000477,1089.814799999952,1090.3152000000475,1090.3152000000475,1092.3484999999998,1419.0,1092.3484999999998,5.0,1092.3487999999522,2.0,12.0,72.0,5.0,1.0,0.8,0.7,Time
,,S58,1,F,24,anonymized,Serial_Dependence_U,2023.2.3,Win32,60.24096385550618,,,,,,1092.3492000000476,285.0,2.0,1092.349299999952,285.0,,,,1096.5152000000476,1097.014600000143,1095.998900000095,1096.5151000001429,1093.365100000143,1095.998799999952,1097.014600000143,1097.5154999999995,1097.515600000143,1100.1654000000951,1999.0,1100.1654000000951,4.0,1100.1659000000952,2.0,13.0,73.0,29.0,1.0,1.6,0.7,Time
,,S58,1,F,24,anonymized,Serial_Dependence_U,2023.2.3,Win32,60.24096385550618,,,,,,1100.166299999952,277.0,2.0,1100.1664999999998,277.0,,,,1104.1645,1104.665,1103.6487999999522,1104.1644000000952,1101.1809999999998,1103.6487000000477,1104.665,1105.1654000000951,1105.1654999999998,1108.0479000000953,2052.0,1108.0479999999998,5.0,1108.0482999999522,2.0,14.0,74.0,3.0,1.0,1.4,0.3,Time
,,S58,1,F,24,anonymized,Serial_Dependence_U,2023.2.3,Win32,60.24096385550618,,,,,,1108.0487000000476,58.0,2.0,1108.0489000000953,58.0,,,,1111.8309000000952,1112.331,1111.3164000000952,1111.8307999999522,1109.049100000143,1111.3164000000952,1112.331100000143,1112.831100000143,1112.8312000000476,1115.0152999999525,1797.0,1115.0154000000953,5.0,1115.0159999999998,2.0,15.0,75.0,22.0,1.0,1.2,0.3,Time
,,S58,1,F,24,anonymized,Serial_Dependence_U,2023.2.3,Win32,60.24096385550618,,,,,,1115.016600000143,272.0,2.0,1115.0167000000476,272.0,,,,1118.415,1118.9147000000476,1117.8982000000476,1118.4149000000953,1116.0314999999998,1117.898100000143,1118.9147999999525,1119.4156000001428,1119.4156000001428,1121.398600000143,1533.0,1121.398600000143,5.0,1121.3989000000952,2.0,16.0,76.0,0.0,1.0,0.8,0.3,Time
,,S58,1,F,24,anonymized,Serial_Dependence_U,2023.2.3,Win32,60.24096385550618,,,,,,1121.399299999952,69.0,2.0,1121.3994000000953,69.0,,,,1124.7992999999522,1125.2977000000476,1124.282400000095,1124.7992000000474,1122.415100000143,1124.282400000095,1125.2977000000476,1125.7974000000952,1125.7975,1127.6317000000474,1331.0,1127.631799999952,5.0,1127.6321000001428,2.0,17.0,77.0,10.0,1.0,0.8,0.3,Time
,,S58,1,F,24,anonymized,Serial_Dependence_U,2023.2.3,Win32,60.24096385550618,,,,,,1127.6324000000952,301.0,2.0,1127.6325,301.0,,,,1131.4159000000952,1131.9142000000477,1130.8984999999998,1131.4157999999522,1128.6319000000951,1130.8984000000953,1131.9142000000477,1132.414100000143,1132.414100000143,1134.6141000001428,1784.0,1134.6142000000475,5.0,1134.614600000143,2.0,18.0,78.0,12.0,1.0,1.2,0.3,Time
,,S58,1,F,24,anonymized,Serial_Dependence_U,2023.2.3,Win32,60.24096385550618,,,,,,1134.6152000000477,34.0,2.0,1134.6156000001429,34.0,,,,1138.1977999999522,1138.6971000001429,1137.6812000000475,1138.1977999999522,1135.6155,1137.6811000001428,1138.697299999952,1139.1974000000953,1139.1974000000953,1141.4322000000475,1818.0,1141.4322000000475,5.0,1141.4325,2.0,19.0,79.0,1.0,1.0,1.0,0.3,Time
,,S58,1,F,24,anonymized,Serial_Dependence_U,2023.2.3,Win32,60.24096385550618,,,,,,1141.4329000000953,1.0,2.0,1141.433100000143,1.0,,,,1145.5814000000953,1146.0804999999998,1145.0641000001428,1145.581299999952,1142.4312000000475,1145.0641000001428,1146.0804999999998,1146.5807999999522,1146.5807999999522,1149.5982000000474,2470.0,1149.598299999952,5.0,1149.5986000001428,2.0,20.0,80.0,19.0,1.0,1.6,0.7,Time
,,S58,1,F,24,anonymized,Serial_Dependence_U,2023.2.3,Win32,60.24096385550618,,,,,,1149.599,19.0,2.0,1149.5992000000476,19.0,,,,1153.5322000000476,1154.0304999999998,1153.031299999952,1153.532100000143,1150.5987999999522,1153.031299999952,1154.0306000001428,1154.5309000000952,1154.531,1157.281100000143,2103.0,1157.2812000000476,5.0,1157.2816000001428,2.0,21.0,81.0,8.0,1.0,1.4,0.7,Time
,,S58,1,F,24,anonymized,Serial_Dependence_U,2023.2.3,Win32,60.24096385550618,,,,,,1157.282,296.0,2.0,1157.282100000143,296.0,,,,1161.2644000000953,1161.764100000143,1160.747600000143,1161.264299999952,1158.281,1160.747600000143,1161.764100000143,1162.266799999952,1162.266799999952,1164.9135,1994.0,1164.9135,5.0,1164.9136000001429,2.0,22.0,82.0,13.0,1.0,1.4,0.3,Time
,,S58,1,F,24,anonymized,Serial_Dependence_U,2023.2.3,Win32,60.24096385550618,,,,,,1164.913799999952,147.0,2.0,1164.9139999999998,147.0,,,,1168.6812000000475,1169.1811000001428,1168.1639999999998,1168.6812000000475,1165.9314000000952,1168.1639000000953,1169.1811000001428,1169.6804000000952,1169.6805,1171.9139999999998,1815.0,1171.9139999999998,5.0,1171.9144000000952,2.0,23.0,83.0,7.0,1.0,1.2,0.7,Time
,,S58,1,F,24,anonymized,Serial_Dependence_U,2023.2.3,Win32,60.24096385550618,,,,,,1171.9147999999525,332.0,2.0,1171.915,332.0,,,,1175.9149000000953,1176.4149000000953,1175.3974999999998,1175.9147999999525,1172.9315,1175.397299999952,1176.4149000000953,1176.9136000001429,1176.9136000001429,1179.7472999999522,2380.0,1179.7472999999522,5.0,1179.747600000143,2.0,24.0,84.0,23.0,1.0,1.4,0.3,Time
,,S58,1,F,24,anonymized,Serial_Dependence_U,2023.2.3,Win32,60.24096385550618,,,,,,1179.7481000001428,208.0,2.0,1179.7481000001428,208.0,,,,1183.147400000095,1183.6464999999998,1182.6319999999998,1183.147299999952,1180.7651000001429,1182.6319999999998,1183.6466000001428,1184.147299999952,1184.147299999952,1186.147299999952,1398.0,1186.147400000095,5.0,1186.1477000000475,2.0,25.0,85.0,20.0,1.0,0.8,0.3,Time
,,S58,1,F,24,anonymized,Serial_Dependence_U,2023.2.3,Win32,60.24096385550618,,,,,,1186.148100000143,65.0,2.0,1186.1482000000476,65.0,,,,1190.3469999999998,1190.8472999999522,1189.8312000000476,1190.3469999999998,1187.1645,1189.831100000143,1190.8474000000951,1191.3465,1191.3466000001429,1194.4812000000477,2469.0,1194.4812999999522,5.0,1194.4816000001429,2.0,26.0,86.0,24.0,1.0,1.6,0.3,Time
,,S58,1,F,24,anonymized,Serial_Dependence_U,2023.2.3,Win32,60.24096385550618,,,,,,1194.4819999999995,153.0,2.0,1194.482100000143,153.0,,,,1198.0309000000952,1198.530100000143,1197.5302000000474,1198.0307999999525,1195.4971000001428,1197.530100000143,1198.5302000000474,1199.0299000000953,1199.0299999999995,1201.330400000095,1883.0,1201.3304999999998,5.0,1201.3309000000952,2.0,27.0,87.0,16.0,1.0,1.0,0.7,Time
,,S58,1,F,24,anonymized,Serial_Dependence_U,2023.2.3,Win32,60.24096385550618,,,,,,1201.331299999952,121.0,2.0,1201.3314000000953,121.0,,,,1205.296799999952,1205.7964000000952,1204.7799000000953,1205.2967000000476,1202.3472000000477,1204.7799000000953,1205.7964000000952,1206.2969999999998,1206.2969999999998,1209.4802000000475,2285.0,1209.4802999999522,5.0,1209.4807000000476,2.0,28.0,88.0,18.0,1.0,1.4,0.7,Time
,,S58,1,F,24,anonymized,Serial_Dependence_U,2023.2.3,Win32,60.24096385550618,,,,,,1209.4812000000477,149.0,2.0,1209.4812999999522,149.0,,,,1213.6472000000476,1214.1467999999522,1213.1464999999998,1213.6472000000476,1210.4809999999998,1213.1464999999998,1214.1469000000952,1214.6466000001428,1214.6467000000475,1217.5467000000476,2353.0,1217.546799999952,5.0,1217.547100000143,2.0,29.0,89.0,14.0,1.0,1.6,0.3,Time
,,S58,1,F,24,anonymized,Serial_Dependence_U,2023.2.3,Win32,60.24096385550618,,,,,,1217.547600000143,51.0,3.0,1219.4799000000953,51.0,s,1.9119000000953288,,1223.6466000001428,1224.1464999999998,1223.1304999999998,1223.6464999999998,1220.4962999999525,1223.1304999999998,1224.1464999999998,1224.6464000000951,1224.6464000000951,1227.1964000000953,2197.0,1227.1964999999998,5.0,1227.1967000000477,3.0,0.0,90.0,9.0,1.0,1.6,0.7,Time
,,S58,1,F,24,anonymized,Serial_Dependence_U,2023.2.3,Win32,60.24096385550618,,,,,,1227.197,115.0,3.0,1227.198,115.0,,,,1231.3801000001429,1231.879299999952,1230.8647000000476,1231.38,1228.197299999952,1230.8645,1231.8794000000953,1232.379100000143,1232.379100000143,1234.8627000000477,2082.0,1234.8627000000477,5.0,1234.8629000000951,3.0,1.0,91.0,24.0,1.0,1.6,0.3,Time
,,S58,1,F,24,anonymized,Serial_Dependence_U,2023.2.3,Win32,60.24096385550618,,,,,,1234.8632999999522,129.0,3.0,1234.8635,129.0,,,,1238.2139000000952,1238.7129000000953,1237.6964000000953,1238.2137999999522,1235.8639999999998,1237.6964000000953,1238.7129000000953,1239.2127999999525,1239.2127999999525,1240.9464999999998,1305.0,1240.946600000143,5.0,1240.9469000000952,3.0,2.0,92.0,25.0,1.0,0.8,0.7,Time
,,S58,1,F,24,anonymized,Serial_Dependence_U,2023.2.3,Win32,60.24096385550618,,,,,,1240.9472000000476,215.0,3.0,1240.9474000000953,215.0,,,,1244.8966000001428,1245.396,1244.3797000000477,1244.8964999999998,1241.9467000000477,1244.3797000000477,1245.396,1245.8959000000953,1245.896,1248.1799000000951,1898.0,1248.1799999999998,5.0,1248.1804000000952,3.0,3.0,93.0,28.0,1.0,1.4,0.7,Time
,,S58,1,F,24,anonymized,Serial_Dependence_U,2023.2.3,Win32,60.24096385550618,,,,,,1248.180900000095,352.0,3.0,1248.1809999999998,352.0,,,,1251.746799999952,1252.2457999999522,1251.229799999952,1251.7467000000474,1249.1964999999998,1251.229799999952,1252.2459000000952,1252.7461000001429,1252.7461000001429,1254.8962000000474,1536.0,1254.8962000000474,5.0,1254.8966000001428,3.0,4.0,94.0,6.0,1.0,1.0,0.7,Time
,,S58,1,F,24,anonymized,Serial_Dependence_U,2023.2.3,Win32,60.24096385550618,,,,,,1254.897,253.0,3.0,1254.8972000000476,253.0,,,,1258.896299999952,1259.3964000000951,1258.3797999999522,1258.896299999952,1255.9129999999998,1258.3797999999522,1259.3964000000951,1259.8964999999998,1259.8966000001428,1262.3127999999522,2066.0,1262.3127999999522,5.0,1262.3131000001429,3.0,5.0,95.0,13.0,1.0,1.4,0.3,Time
,,S58,1,F,24,anonymized,Serial_Dependence_U,2023.2.3,Win32,60.24096385550618,,,,,,1262.313600000143,310.0,3.0,1262.3137000000474,310.0,,,,1265.863799999952,1266.3625,1265.3462000000477,1265.8637000000476,1263.3132999999525,1265.3462000000477,1266.3625,1266.8624000000952,1266.8624000000952,1269.1466000001428,1914.0,1269.1466000001428,5.0,1269.147,3.0,6.0,96.0,16.0,1.0,1.0,0.7,Time
,,S58,1,F,24,anonymized,Serial_Dependence_U,2023.2.3,Win32,60.24096385550618,,,,,,1269.147299999952,15.0,3.0,1269.147400000095,15.0,,,,1272.746,1273.2464000000953,1272.2295,1272.746,1270.162600000143,1272.2294000000952,1273.2464000000953,1273.7464000000953,1273.7464000000953,1275.8789000000952,1767.0,1275.879100000143,5.0,1275.879299999952,3.0,7.0,97.0,11.0,1.0,1.0,0.3,Time
,,S58,1,F,24,anonymized,Serial_Dependence_U,2023.2.3,Win32,60.24096385550618,,,,,,1275.8797000000477,8.0,3.0,1275.88,8.0,,,,1279.8297000000475,1280.329299999952,1279.312600000143,1279.8296000001428,1276.8794000000953,1279.3124999999998,1280.329299999952,1280.829,1280.829,1283.295799999952,2066.0,1283.2959000000951,5.0,1283.2962999999522,3.0,8.0,98.0,18.0,1.0,1.4,0.7,Time
,,S58,1,F,24,anonymized,Serial_Dependence_U,2023.2.3,Win32,60.24096385550618,,,,,,1283.296600000143,225.0,3.0,1283.296799999952,225.0,,,,1287.045799999952,1287.5454000000952,1286.530100000143,1287.0457000000476,1284.2965,1286.5299000000953,1287.5454000000952,1288.0454000000952,1288.0454000000952,1290.478799999952,1785.0,1290.478900000095,5.0,1290.4792000000475,3.0,9.0,99.0,17.0,1.0,1.2,0.7,Time
,,S58,1,F,24,anonymized,Serial_Dependence_U,2023.2.3,Win32,60.24096385550618,,,,,,1290.479600000143,149.0,3.0,1290.479799999952,149.0,,,,1294.280299999952,1294.7784000000952,1293.7627999999522,1294.280299999952,1291.4957999999522,1293.7627999999522,1294.7784000000952,1295.2785,1295.2785,1298.2295,2286.0,1298.229600000143,5.0,1298.229799999952,3.0,10.0,100.0,22.0,1.0,1.2,0.3,Time
,,S58,1,F,24,anonymized,Serial_Dependence_U,2023.2.3,Win32,60.24096385550618,,,,,,1298.2302000000475,163.0,3.0,1298.2302999999522,163.0,,,,1301.6284999999998,1302.1284999999998,1301.112799999952,1301.628400000095,1299.246,1301.1127000000477,1302.1286000001428,1302.6287999999522,1302.6289000000952,1304.9122999999522,1952.0,1304.9122999999522,5.0,1304.912600000143,3.0,11.0,101.0,20.0,1.0,0.8,0.3,Time
,,S58,1,F,24,anonymized,Serial_Dependence_U,2023.2.3,Win32,60.24096385550618,,,,,,1304.9129999999998,265.0,3.0,1304.913100000143,265.0,,,,1309.0637999999522,1309.562,1308.5629000000952,1309.0637000000474,1305.9295,1308.5627999999522,1309.562,1310.0622000000476,1310.0622000000476,1312.195299999952,1752.0,1312.195299999952,4.0,1312.1956000001428,3.0,12.0,102.0,19.0,1.0,1.6,0.7,Time
,,S58,1,F,24,anonymized,Serial_Dependence_U,2023.2.3,Win32,60.24096385550618,,,,,,1312.196,294.0,3.0,1312.196100000143,294.0,,,,1315.9961000001429,1316.495,1315.4789999999998,1315.9961000001429,1313.2122999999522,1315.478799999952,1316.495,1316.995,1316.9951000001429,1319.1287999999522,1901.0,1319.1289000000952,5.0,1319.1292000000476,3.0,13.0,103.0,2.0,1.0,1.2,0.3,Time
,,S58,1,F,24,anonymized,Serial_Dependence_U,2023.2.3,Win32,60.24096385550618,,,,,,1319.129600000143,242.0,3.0,1319.1297999999522,242.0,,,,1323.1287999999522,1323.6286000001428,1322.6117999999522,1323.1287000000475,1320.1452999999522,1322.6117000000474,1323.6286000001428,1324.128400000095,1324.128400000095,1326.778799999952,2181.0,1326.7789000000953,5.0,1326.7792000000477,3.0,14.0,104.0,23.0,1.0,1.4,0.3,Time
,,S58,1,F,24,anonymized,Serial_Dependence_U,2023.2.3,Win32,60.24096385550618,,,,,,1326.7796000001429,352.0,3.0,1326.7797000000476,352.0,,,,1330.9616000001429,1331.4617000000476,1330.4449000000952,1330.9615,1327.7789999999998,1330.4447999999522,1331.4617000000476,1331.9615,1331.9616000001429,1334.695400000095,2400.0,1334.695400000095,5.0,1334.6957999999522,3.0,15.0,105.0,4.0,1.0,1.6,0.3,Time
,,S58,1,F,24,anonymized,Serial_Dependence_U,2023.2.3,Win32,60.24096385550618,,,,,,1334.6962000000476,199.0,3.0,1334.696299999952,199.0,,,,1338.4452000000476,1338.9447999999522,1337.9291000001429,1338.4452000000476,1335.6964999999998,1337.929,1338.9447999999522,1339.4447000000475,1339.4447999999522,1342.1117000000474,2170.0,1342.1117000000474,5.0,1342.1121000001428,3.0,16.0,106.0,7.0,1.0,1.2,0.7,Time
,,S58,1,F,24,anonymized,Serial_Dependence_U,2023.2.3,Win32,60.24096385550618,,,,,,1342.1124000000952,135.0,3.0,1342.112600000143,135.0,,,,1346.062,1346.5612000000476,1345.545799999952,1346.0619000000952,1343.1122000000476,1345.5457000000476,1346.5612000000476,1347.0614999999998,1347.0614999999998,1349.6609999999998,2151.0,1349.6609999999998,5.0,1349.6612999999522,3.0,17.0,107.0,8.0,1.0,1.4,0.7,Time
,,S58,1,F,24,anonymized,Serial_Dependence_U,2023.2.3,Win32,60.24096385550618,,,,,,1349.661799999952,137.0,3.0,1349.661900000095,137.0,,,,1353.8287999999525,1354.3277999999525,1353.3279999999995,1353.8287000000475,1350.662799999952,1353.3279000000953,1354.3277999999525,1354.8279999999995,1354.828100000143,1357.0449000000951,1898.0,1357.0451000001428,4.0,1357.0454000000952,3.0,18.0,108.0,14.0,1.0,1.6,0.3,Time
,,S58,1,F,24,anonymized,Serial_Dependence_U,2023.2.3,Win32,60.24096385550618,,,,,,1357.0459999999998,222.0,3.0,1357.0462000000475,222.0,,,,1360.8287000000475,1361.3276000001429,1360.3279999999995,1360.8287000000475,1358.0614999999998,1360.3279000000953,1361.3276000001429,1361.8274000000952,1361.8274000000952,1364.1274999999998,1883.0,1364.1276000001428,5.0,1364.1277000000475,3.0,19.0,109.0,12.0,1.0,1.2,0.3,Time
,,S58,1,F,24,anonymized,Serial_Dependence_U,2023.2.3,Win32,60.24096385550618,,,,,,1364.128,148.0,3.0,1364.128,148.0,,,,1368.128299999952,1368.6276000001428,1367.6114999999998,1368.128299999952,1365.1447999999525,1367.6112999999525,1368.6276000001428,1369.128400000095,1369.128400000095,1372.1112000000476,2534.0,1372.1112999999525,5.0,1372.111600000143,3.0,20.0,110.0,3.0,1.0,1.4,0.3,Time
,,S58,1,F,24,anonymized,Serial_Dependence_U,2023.2.3,Win32,60.24096385550618,,,,,,1372.112,177.0,3.0,1372.1121000001428,177.0,,,,1375.5117999999522,1376.012,1374.9947000000475,1375.5117000000475,1373.1279000000952,1374.9944999999998,1376.012,1376.5122000000476,1376.512299999952,1378.561600000143,1466.0,1378.5617000000475,5.0,1378.5619000000952,3.0,21.0,111.0,0.0,1.0,0.8,0.3,Time
,,S58,1,F,24,anonymized,Serial_Dependence_U,2023.2.3,Win32,60.24096385550618,,,,,,1378.5624000000953,99.0,3.0,1378.5624000000953,99.0,,,,1382.1111000001429,1382.610600000143,1381.5954000000952,1382.1111000001429,1379.561400000095,1381.5952999999522,1382.6107000000477,1383.110600000143,1383.110600000143,1385.0944000000952,1616.0,1385.0945,5.0,1385.094799999952,3.0,22.0,112.0,26.0,1.0,1.0,0.7,Time
,,S58,1,F,24,anonymized,Serial_Dependence_U,2023.2.3,Win32,60.24096385550618,,,,,,1385.0952000000475,126.0,3.0,1385.0954000000952,126.0,,,,1388.494600000143,1388.994299999952,1387.9779999999998,1388.4944999999998,1386.1111000001429,1387.9779000000951,1388.994299999952,1389.494,1389.494,1391.461799999952,1620.0,1391.461799999952,5.0,1391.462100000143,3.0,23.0,113.0,10.0,1.0,0.8,0.3,Time
,,S58,1,F,24,anonymized,Serial_Dependence_U,2023.2.3,Win32,60.24096385550618,,,,,,1391.4625,255.0,3.0,1391.4627000000476,255.0,,,,1395.0444000000953,1395.5444000000953,1394.5284000000952,1395.0444000000953,1392.4617000000476,1394.5284000000952,1395.5444000000953,1396.0434999999998,1396.0434999999998,1398.2444000000953,1852.0,1398.2444999999998,5.0,1398.2447999999522,3.0,24.0,114.0,21.0,1.0,1.0,0.3,Time
,,S58,1,F,24,anonymized,Serial_Dependence_U,2023.2.3,Win32,60.24096385550618,,,,,,1398.2452000000476,151.0,3.0,1398.245299999952,151.0,,,,1401.9944000000953,1402.4937000000475,1401.4781000001428,1401.9944000000953,1399.2447999999522,1401.4781000001428,1402.4937999999522,1402.9937999999522,1402.9939000000952,1405.143799999952,1600.0,1405.1439000000953,5.0,1405.1442000000477,3.0,25.0,115.0,27.0,1.0,1.2,0.7,Time
,,S58,1,F,24,anonymized,Serial_Dependence_U,2023.2.3,Win32,60.24096385550618,,,,,,1405.1444000000952,4.0,3.0,1405.1445,4.0,,,,1408.5107000000476,1409.0107000000476,1407.9947000000475,1408.5106000001429,1406.160799999952,1407.9947000000475,1409.0107999999525,1409.5106000001429,1409.5106000001429,1411.5942000000475,1746.0,1411.5942000000475,5.0,1411.5944000000952,3.0,26.0,116.0,5.0,1.0,0.8,0.7,Time
,,S58,1,F,24,anonymized,Serial_Dependence_U,2023.2.3,Win32,60.24096385550618,,,,,,1411.5947000000476,351.0,3.0,1411.594799999952,351.0,,,,1414.962100000143,1415.460600000143,1414.4447999999522,1414.962100000143,1412.6111000001429,1414.4447000000475,1415.4607000000476,1415.9602000000475,1415.9602999999522,1417.8954000000952,1652.0,1417.8955,5.0,1417.896,3.0,27.0,117.0,15.0,1.0,0.8,0.7,Time
,,S58,1,F,24,anonymized,Serial_Dependence_U,2023.2.3,Win32,60.24096385550618,,,,,,1417.8967999999522,32.0,3.0,1417.897,32.0,,,,1422.0617000000475,1422.5604000000951,1421.5449999999998,1422.0617000000475,1418.9109999999998,1421.5449999999998,1422.5604000000951,1423.060100000143,1423.060100000143,1426.526900000095,2648.0,1426.5269999999998,5.0,1426.5272999999522,3.0,28.0,118.0,29.0,1.0,1.6,0.7,Time
,,S58,1,F,24,anonymized,Serial_Dependence_U,2023.2.3,Win32,60.24096385550618,,,,,,1426.5277000000476,111.0,3.0,1426.527900000095,111.0,,,,1430.1107999999522,1430.610100000143,1429.593799999952,1430.1107000000477,1427.5279999999998,1429.593799999952,1430.6102000000476,1431.1109000000952,1431.1109000000952,1433.1439999999998,1683.0,1433.144100000143,5.0,1433.1444000000952,3.0,29.0,119.0,1.0,1.0,1.0,0.3,Time
,,S58,1,F,24,anonymized,Serial_Dependence_U,2023.2.3,Win32,60.24096385550618,,,,,,1433.1447999999525,167.0,4.0,1544.8274000000954,167.0,s,111.66359999990436,,1548.8087999999525,1549.3084000000952,1548.2924999999998,1548.8086000001429,1545.8262000000475,1548.292400000095,1549.3085,1549.8085,1549.8085,1552.8417000000477,2648.0,1552.8417000000477,5.0,1552.8419000000952,4.0,0.0,120.0,13.0,1.0,1.4,0.3,Time
,,S58,1,F,24,anonymized,Serial_Dependence_U,2023.2.3,Win32,60.24096385550618,,,,,,1552.8422000000476,59.0,4.0,1552.8434999999995,59.0,,,,1556.194299999952,1556.6927000000476,1555.6762000000474,1556.1942000000474,1553.8425,1555.6761000001427,1556.6927000000476,1557.191799999952,1557.191799999952,1559.2419000000953,1767.0,1559.2419000000953,5.0,1559.2422999999524,4.0,1.0,121.0,15.0,1.0,0.8,0.7,Time
,,S58,1,F,24,anonymized,Serial_Dependence_U,2023.2.3,Win32,60.24096385550618,,,,,,1559.242600000143,337.0,4.0,1559.242799999952,337.0,,,,1563.4422000000477,1563.941900000095,1562.925600000143,1563.4419999999998,1560.2584000000954,1562.9255,1563.9419999999998,1564.4417000000474,1564.4417000000474,1567.9091000001429,2698.0,1567.9092000000476,5.0,1567.909600000143,4.0,2.0,122.0,14.0,1.0,1.6,0.3,Time
,,S58,1,F,24,anonymized,Serial_Dependence_U,2023.2.3,Win32,60.24096385550618,,,,,,1567.910100000143,355.0,4.0,1567.910200000047,355.0,,,,1571.242600000143,1571.7416000001429,1570.7417999999525,1571.2425,1568.9089000000952,1570.7417999999525,1571.7416000001429,1572.2419000000953,1572.242,1574.3917000000476,1798.0,1574.3917999999524,5.0,1574.392100000143,4.0,3.0,123.0,25.0,1.0,0.8,0.7,Time
,,S58,1,F,24,anonymized,Serial_Dependence_U,2023.2.3,Win32,60.24096385550618,,,,,,1574.3926000001427,187.0,4.0,1574.392799999952,187.0,,,,1577.7757999999524,1578.2751000001429,1577.2592999999522,1577.7757000000477,1575.392799999952,1577.2592999999522,1578.2751000001429,1578.7762000000478,1578.776299999952,1580.791799999952,1685.0,1580.7919000000954,5.0,1580.7922000000474,4.0,4.0,124.0,20.0,1.0,0.8,0.3,Time
,,S58,1,F,24,anonymized,Serial_Dependence_U,2023.2.3,Win32,60.24096385550618,,,,,,1580.7924999999998,302.0,4.0,1580.7927000000475,302.0,,,,1584.7586000001431,1585.257900000095,1584.2431000001427,1584.7586000001431,1581.8086000001429,1584.2431000001427,1585.257900000095,1585.757900000095,1585.758,1588.3417999999524,2250.0,1588.3419000000954,5.0,1588.3422000000478,4.0,5.0,125.0,28.0,1.0,1.4,0.7,Time
,,S58,1,F,24,anonymized,Serial_Dependence_U,2023.2.3,Win32,60.24096385550618,,,,,,1588.3425000000002,127.0,4.0,1588.342700000048,127.0,,,,1592.091600000143,1592.5915,1591.575600000143,1592.0915,1589.3417000000477,1591.5755,1592.5915,1593.0914000000953,1593.0914000000953,1595.3579000000957,1969.0,1595.3581000001432,5.0,1595.3582999999526,4.0,6.0,126.0,17.0,1.0,1.2,0.7,Time
,,S58,1,F,24,anonymized,Serial_Dependence_U,2023.2.3,Win32,60.24096385550618,,,,,,1595.358700000048,331.0,4.0,1595.3587999999522,331.0,,,,1599.326,1599.8244000000957,1598.8087000000478,1599.325900000095,1596.3752999999524,1598.808600000143,1599.8244000000957,1600.3251000001433,1600.3251000001433,1602.791200000048,2135.0,1602.7912999999526,5.0,1602.7916000001433,4.0,7.0,127.0,8.0,1.0,1.4,0.7,Time
,,S58,1,F,24,anonymized,Serial_Dependence_U,2023.2.3,Win32,60.24096385550618,,,,,,1602.792100000143,220.0,4.0,1602.7922000000476,220.0,,,,1606.7576000001432,1607.2580000000005,1606.2417000000478,1606.7576000001432,1603.8085,1606.2417000000478,1607.2580000000005,1607.7586000001434,1607.7586000001434,1610.1584000000953,2168.0,1610.1585,5.0,1610.1589000000954,4.0,8.0,128.0,18.0,1.0,1.4,0.7,Time
,,S58,1,F,24,anonymized,Serial_Dependence_U,2023.2.3,Win32,60.24096385550618,,,,,,1610.1594000000955,0.0,4.0,1610.1596000001432,0.0,,,,1614.308100000143,1614.8082000000477,1613.7916000001433,1614.308,1611.1582000000476,1613.7916000001433,1614.8082000000477,1615.3077999999523,1615.3077999999523,1617.8916000001432,2367.0,1617.891700000048,5.0,1617.8920000000005,4.0,9.0,129.0,19.0,1.0,1.6,0.7,Time
,,S58,1,F,24,anonymized,Serial_Dependence_U,2023.2.3,Win32,60.24096385550618,,,,,,1617.8925,83.0,4.0,1617.892600000143,83.0,,,,1622.091,1622.5907999999522,1621.5749000000956,1622.091,1618.908,1621.5747999999526,1622.5907999999522,1623.0907999999522,1623.0907999999522,1625.6576000001432,2217.0,1625.657700000048,5.0,1625.658,4.0,10.0,130.0,4.0,1.0,1.6,0.3,Time
,,S58,1,F,24,anonymized,Serial_Dependence_U,2023.2.3,Win32,60.24096385550618,,,,,,1625.6584000000953,157.0,4.0,1625.658600000143,157.0,,,,1629.0585,1629.5574000000956,1628.5416000001433,1629.0584000000954,1626.674100000143,1628.5415000000005,1629.5574000000956,1630.057600000143,1630.057600000143,1632.108200000048,1751.0,1632.108200000048,5.0,1632.1085000000005,4.0,11.0,131.0,10.0,1.0,0.8,0.3,Time
,,S58,1,F,24,anonymized,Serial_Dependence_U,2023.2.3,Win32,60.24096385550618,,,,,,1632.1089000000957,203.0,4.0,1632.109100000143,203.0,,,,1635.6910000000005,1636.1904000000957,1635.1747999999525,1635.6909000000956,1633.1077000000478,1635.1747000000478,1636.1904000000957,1636.6905000000002,1636.6905000000002,1638.7409000000953,1818.0,1638.741,5.0,1638.7412999999524,4.0,12.0,132.0,1.0,1.0,1.0,0.3,Time
,,S58,1,F,24,anonymized,Serial_Dependence_U,2023.2.3,Win32,60.24096385550618,,,,,,1638.7417999999525,333.0,4.0,1638.7420000000002,333.0,,,,1642.741600000143,1643.2404000000956,1642.2249000000957,1642.7415,1639.758200000048,1642.2247999999522,1643.2405,1643.7405,1643.7405,1646.3735,2365.0,1646.3735,5.0,1646.3737000000478,4.0,13.0,133.0,3.0,1.0,1.4,0.3,Time
,,S58,1,F,24,anonymized,Serial_Dependence_U,2023.2.3,Win32,60.24096385550618,,,,,,1646.3739000000955,151.0,4.0,1646.3741000001432,151.0,,,,1650.1745,1650.6742999999524,1649.6577999999522,1650.1744000000954,1647.391100000143,1649.657700000048,1650.6742999999524,1651.173600000143,1651.1737000000476,1653.574100000143,2034.0,1653.5742000000478,5.0,1653.5745000000002,4.0,14.0,134.0,22.0,1.0,1.2,0.3,Time
,,S58,1,F,24,anonymized,Serial_Dependence_U,2023.2.3,Win32,60.24096385550618,,,,,,1653.5749000000956,151.0,4.0,1653.5750000000005,151.0,,,,1657.3575,1657.8569000000953,1656.840700000048,1657.3575,1654.5742999999525,1656.8406000001432,1657.8569000000953,1658.3569000000953,1658.3569000000953,1660.8237999999524,1947.0,1660.8239000000954,5.0,1660.8242999999525,4.0,15.0,135.0,12.0,1.0,1.2,0.3,Time
,,S58,1,F,24,anonymized,Serial_Dependence_U,2023.2.3,Win32,60.24096385550618,,,,,,1660.8246000001432,123.0,4.0,1660.8247999999526,123.0,,,,1664.8077999999523,1665.3067999999523,1664.3069000000955,1664.8077999999523,1661.8407999999522,1664.3069000000955,1665.3067999999523,1665.8070000000002,1665.8070000000002,1668.407200000048,2300.0,1668.407200000048,5.0,1668.4075000000005,4.0,16.0,136.0,23.0,1.0,1.4,0.3,Time
,,S58,1,F,24,anonymized,Serial_Dependence_U,2023.2.3,Win32,60.24096385550618,,,,,,1668.4077999999522,287.0,4.0,1668.408,287.0,,,,1671.9742999999526,1672.4732999999524,1671.4582000000478,1671.974200000048,1669.4239000000953,1671.458,1672.4732999999524,1672.973600000143,1672.973600000143,1675.0745000000002,1804.0,1675.0746000001432,5.0,1675.0749000000956,4.0,17.0,137.0,6.0,1.0,1.0,0.7,Time
,,S58,1,F,24,anonymized,Serial_Dependence_U,2023.2.3,Win32,60.24096385550618,,,,,,1675.0752999999522,187.0,4.0,1675.0754000000957,187.0,,,,1678.8407999999522,1679.3399000000954,1678.3237000000477,1678.8407999999522,1676.0915,1678.323600000143,1679.3399000000954,1679.8402000000478,1679.8402999999523,1682.3902000000476,1966.0,1682.3902000000476,5.0,1682.3905,4.0,18.0,138.0,27.0,1.0,1.2,0.7,Time
,,S58,1,F,24,anonymized,Serial_Dependence_U,2023.2.3,Win32,60.24096385550618,,,,,,1682.391,46.0,4.0,1682.391100000143,46.0,,,,1686.5416000001433,1687.041200000048,1686.0237999999522,1686.5416000001433,1683.391,1686.023700000048,1687.041200000048,1687.5402000000477,1687.5402000000477,1689.8069000000955,1912.0,1689.8070000000002,4.0,1689.8072999999522,4.0,19.0,139.0,9.0,1.0,1.6,0.7,Time
,,S58,1,F,24,anonymized,Serial_Dependence_U,2023.2.3,Win32,60.24096385550618,,,,,,1689.8079000000953,162.0,4.0,1689.808,162.0,,,,1693.19,1693.6911000001433,1692.6737000000476,1693.19,1690.807200000048,1692.673600000143,1693.6911000001433,1694.1899000000951,1694.1899000000951,1696.2575000000002,1683.0,1696.2576000001432,5.0,1696.2580000000005,4.0,20.0,140.0,0.0,1.0,0.8,0.3,Time
,,S58,1,F,24,anonymized,Serial_Dependence_U,2023.2.3,Win32,60.24096385550618,,,,,,1696.2584000000957,124.0,4.0,1696.2586000001434,124.0,,,,1699.8577000000478,1700.3560000000002,1699.3402999999523,1699.857600000143,1697.2739000000956,1699.3402000000478,1700.3560000000002,1700.8564000000956,1700.8565,1703.3569000000953,1820.0,1703.357,5.0,1703.357600000143,4.0,21.0,141.0,21.0,1.0,1.0,0.3,Time
,,S58,1,F,24,anonymized,Serial_Dependence_U,2023.2.3,Win32,60.24096385550618,,,,,,1703.358200000048,135.0,4.0,1703.3585000000005,135.0,,,,1706.9067000000475,1707.4067000000475,1706.3916000001432,1706.906600000143,1704.3572999999524,1706.3916000001432,1707.4067000000475,1707.9062999999524,1707.9064000000951,1710.0742999999525,1902.0,1710.0742999999525,5.0,1710.0746000001432,4.0,22.0,142.0,16.0,1.0,1.0,0.7,Time
,,S58,1,F,24,anonymized,Serial_Dependence_U,2023.2.3,Win32,60.24096385550618,,,,,,1710.0750000000005,49.0,4.0,1710.0751000001433,49.0,,,,1713.8409000000956,1714.3392999999523,1713.3402000000478,1713.8407999999522,1711.0737999999524,1713.3401000001431,1714.3392999999523,1714.8397999999524,1714.8397999999524,1717.606200000048,2098.0,1717.606200000048,5.0,1717.6064000000956,4.0,23.0,143.0,2.0,1.0,1.2,0.3,Time
,,S58,1,F,24,anonymized,Serial_Dependence_U,2023.2.3,Win32,60.24096385550618,,,,,,1717.6067000000476,136.0,4.0,1717.6067000000476,136.0,,,,1720.9565000000002,1721.4557000000475,1720.4402000000478,1720.9565000000002,1718.6077000000478,1720.4402000000478,1721.4557999999524,1721.9566000001432,1721.9566000001432,1724.006600000143,1801.0,1724.006600000143,5.0,1724.007,4.0,24.0,144.0,5.0,1.0,0.8,0.7,Time
,,S58,1,F,24,anonymized,Serial_Dependence_U,2023.2.3,Win32,60.24096385550618,,,,,,1724.0072999999525,178.0,4.0,1724.0075000000002,178.0,,,,1728.1909000000956,1728.6906000001431,1727.673200000048,1728.1907999999526,1725.0067000000477,1727.6731000001432,1728.690700000048,1729.1902000000478,1729.1902999999525,1731.9566000001432,2514.0,1731.956700000048,5.0,1731.957,4.0,25.0,145.0,24.0,1.0,1.6,0.3,Time
,,S58,1,F,24,anonymized,Serial_Dependence_U,2023.2.3,Win32,60.24096385550618,,,,,,1731.9574000000953,219.0,4.0,1731.957600000143,219.0,,,,1735.5567000000478,1736.055900000095,1735.0404000000954,1735.5567000000478,1732.9735,1735.0404000000954,1736.055900000095,1736.555900000095,1736.555900000095,1738.839400000095,2067.0,1738.839400000095,5.0,1738.8397000000475,4.0,26.0,146.0,11.0,1.0,1.0,0.3,Time
,,S58,1,F,24,anonymized,Serial_Dependence_U,2023.2.3,Win32,60.24096385550618,,,,,,1738.8401000001431,30.0,4.0,1738.8402999999523,30.0,,,,1742.6062999999526,1743.1057000000478,1742.089600000143,1742.606200000048,1739.8569000000953,1742.089400000095,1743.1057000000478,1743.6065,1743.606600000143,1745.8577000000478,1971.0,1745.8577999999525,5.0,1745.858200000048,4.0,27.0,147.0,7.0,1.0,1.2,0.7,Time
,,S58,1,F,24,anonymized,Serial_Dependence_U,2023.2.3,Win32,60.24096385550618,,,,,,1745.8586000001433,297.0,4.0,1745.8587999999522,297.0,,,,1749.4064000000951,1749.9067000000475,1748.8892999999523,1749.4062999999524,1746.8567999999525,1748.8892999999523,1749.9067000000475,1750.406,1750.406100000143,1752.408,1767.0,1752.4081000001431,5.0,1752.4084000000953,4.0,28.0,148.0,26.0,1.0,1.0,0.7,Time
,,S58,1,F,24,anonymized,Serial_Dependence_U,2023.2.3,Win32,60.24096385550618,,,,,,1752.4087999999524,235.0,4.0,1752.4092999999525,235.0,,,,1756.5732000000476,1757.0722999999523,1756.055600000143,1756.5732000000476,1753.4231000001432,1756.0555,1757.0722999999523,1757.5726000001432,1757.5726000001432,1760.1892000000475,2400.0,1760.1892999999525,5.0,1760.189600000143,4.0,29.0,149.0,29.0,1.0,1.6,0.7,Time
,,S58,1,F,24,anonymized,Serial_Dependence_U,2023.2.3,Win32,60.24096385550618,,,,,,1760.19,279.0,5.0,1762.323600000143,279.0,s,2.11539999985689,,1765.6724000000954,1766.172100000143,1765.1562000000476,1765.6724000000954,1763.3231000001433,1765.156100000143,1766.1722000000475,1766.672100000143,1766.672100000143,1768.555600000143,1719.0,1768.5557000000476,5.0,1768.556,5.0,0.0,150.0,5.0,1.0,0.8,0.7,Time
,,S58,1,F,24,anonymized,Serial_Dependence_U,2023.2.3,Win32,60.24096385550618,,,,,,1768.5562999999524,186.0,5.0,1768.558,186.0,,,,1772.123,1772.6234000000954,1771.6062999999526,1772.1227999999523,1769.573600000143,1771.606200000048,1772.6235,1773.1221000001433,1773.1222000000475,1775.0069000000954,1235.0,1775.007,4.0,1775.007100000143,5.0,1.0,151.0,16.0,1.0,1.0,0.7,Time
,,S58,1,F,24,anonymized,Serial_Dependence_U,2023.2.3,Win32,60.24096385550618,,,,,,1775.0074000000957,170.0,5.0,1775.0075000000002,170.0,,,,1778.9902999999522,1779.4887999999523,1778.489,1778.9902999999522,1776.022400000095,1778.488900000095,1779.4887999999523,1779.988900000095,1779.988900000095,1782.3887999999524,2153.0,1782.3887999999524,5.0,1782.389,5.0,2.0,152.0,3.0,1.0,1.4,0.3,Time
,,S58,1,F,24,anonymized,Serial_Dependence_U,2023.2.3,Win32,60.24096385550618,,,,,,1782.3895000000002,11.0,5.0,1782.3896000001432,11.0,,,,1786.188700000048,1786.6886000001432,1785.6730000000002,1786.188700000048,1783.406100000143,1785.6729000000955,1786.6886000001432,1787.188700000048,1787.1887999999526,1789.356200000048,1802.0,1789.3562999999526,5.0,1789.356600000143,5.0,3.0,153.0,22.0,1.0,1.2,0.3,Time
,,S58,1,F,24,anonymized,Serial_Dependence_U,2023.2.3,Win32,60.24096385550618,,,,,,1789.357,228.0,5.0,1789.3572000000477,228.0,,,,1793.3057999999523,1793.8051000001433,1792.7892999999526,1793.3057000000476,1790.3572000000477,1792.789200000048,1793.8051000001433,1794.305600000143,1794.3057000000476,1796.7894000000956,2185.0,1796.7894000000956,5.0,1796.7897000000476,5.0,4.0,154.0,28.0,1.0,1.4,0.7,Time
,,S58,1,F,24,anonymized,Serial_Dependence_U,2023.2.3,Win32,60.24096385550618,,,,,,1796.790100000143,352.0,5.0,1796.7902000000477,352.0,,,,1800.3392999999523,1800.8389000000952,1799.8382999999526,1800.3392999999523,1797.805200000048,1799.8382999999526,1800.8389000000952,1801.3392000000476,1801.3392999999523,1803.4884000000952,1733.0,1803.4884000000952,5.0,1803.4887999999523,5.0,5.0,155.0,26.0,1.0,1.0,0.7,Time
,,S58,1,F,24,anonymized,Serial_Dependence_U,2023.2.3,Win32,60.24096385550618,,,,,,1803.489100000143,121.0,5.0,1803.4892999999524,121.0,,,,1807.265200000048,1807.7644000000955,1806.749400000096,1807.2651000001435,1804.5055,1806.749299999952,1807.7645,1808.2547999999524,1808.2549000000956,1810.267400000096,1517.0,1810.267400000096,4.0,1810.2677999999523,5.0,6.0,156.0,17.0,1.0,1.2,0.7,Time
,,S58,1,F,24,anonymized,Serial_Dependence_U,2023.2.3,Win32,60.24096385550618,,,,,,1810.268200000048,288.0,5.0,1810.2684000000957,288.0,,,,1814.4154000000956,1814.905200000048,1813.9059000000952,1814.4154000000956,1811.2745,1813.9057999999525,1814.905200000048,1815.3965000000003,1815.3966000001435,1818.021700000048,2367.0,1818.021799999952,5.0,1818.022100000143,5.0,7.0,157.0,29.0,1.0,1.6,0.7,Time
,,S58,1,F,24,anonymized,Serial_Dependence_U,2023.2.3,Win32,60.24096385550618,,,,,,1818.0225,280.0,5.0,1818.022600000143,280.0,,,,1822.0231000001431,1822.5216000001435,1821.522,1822.0229000000957,1819.0477999999523,1821.5219000000952,1822.5216000001435,1823.0141000001431,1823.0141000001431,1825.5714000000955,2254.0,1825.5715,5.0,1825.5717999999524,5.0,8.0,158.0,23.0,1.0,1.4,0.3,Time
,,S58,1,F,24,anonymized,Serial_Dependence_U,2023.2.3,Win32,60.24096385550618,,,,,,1825.572200000048,275.0,5.0,1825.5724000000955,275.0,,,,1829.7719000000952,1830.262700000048,1829.2567999999524,1829.771799999952,1826.5836000001432,1829.256700000048,1830.262700000048,1830.763100000143,1830.763200000048,1833.933200000048,2475.0,1833.9332999999524,5.0,1833.9335,5.0,9.0,159.0,4.0,1.0,1.6,0.3,Time
,,S58,1,F,24,anonymized,Serial_Dependence_U,2023.2.3,Win32,60.24096385550618,,,,,,1833.9339000000955,33.0,5.0,1833.9341000001432,33.0,,,,1837.698700000048,1838.195799999952,1837.182400000096,1837.698600000143,1834.9377999999524,1837.182299999952,1838.195900000096,1838.688200000048,1838.6884000000955,1841.3214000000955,2206.0,1841.3215,5.0,1841.3217999999524,5.0,10.0,160.0,27.0,1.0,1.2,0.7,Time
,,S58,1,F,24,anonymized,Serial_Dependence_U,2023.2.3,Win32,60.24096385550618,,,,,,1841.322100000143,79.0,5.0,1841.3222999999523,79.0,,,,1845.471700000048,1845.979400000096,1844.9661000001436,1845.471600000143,1842.324,1844.966,1845.979400000096,1846.4709000000955,1846.4709000000955,1849.174600000143,2426.0,1849.174700000048,5.0,1849.1751000001432,5.0,11.0,161.0,19.0,1.0,1.6,0.7,Time
,,S58,1,F,24,anonymized,Serial_Dependence_U,2023.2.3,Win32,60.24096385550618,,,,,,1849.1756000001435,12.0,5.0,1849.175799999952,12.0,,,,1852.538100000143,1853.0377999999523,1852.021799999952,1852.538,1850.1827999999523,1852.021700000048,1853.0379000000955,1853.5292999999524,1853.5294000000956,1855.664700000048,1826.0,1855.6647999999525,5.0,1855.665,5.0,12.0,162.0,15.0,1.0,0.8,0.7,Time
,,S58,1,F,24,anonymized,Serial_Dependence_U,2023.2.3,Win32,60.24096385550618,,,,,,1855.6652999999524,235.0,5.0,1855.6652999999524,235.0,,,,1859.205100000143,1859.704400000096,1858.6910000000005,1859.205,1856.6571000001431,1858.690900000096,1859.704400000096,1860.204,1860.204,1862.3545,1934.0,1862.3545,5.0,1862.3549000000955,5.0,13.0,163.0,6.0,1.0,1.0,0.7,Time
,,S58,1,F,24,anonymized,Serial_Dependence_U,2023.2.3,Win32,60.24096385550618,,,,,,1862.3552999999524,154.0,5.0,1862.3554000000956,154.0,,,,1866.554900000096,1867.054100000143,1866.038600000143,1866.5547999999528,1863.3712999999525,1866.038600000143,1867.054100000143,1867.5546000001432,1867.5546000001432,1870.221700000048,2467.0,1870.221700000048,5.0,1870.2221000001432,5.0,14.0,164.0,24.0,1.0,1.6,0.3,Time
,,S58,1,F,24,anonymized,Serial_Dependence_U,2023.2.3,Win32,60.24096385550618,,,,,,1870.2226000001435,127.0,5.0,1870.222700000048,127.0,,,,1873.621200000048,1874.1215,1873.105200000048,1873.621100000143,1871.239700000048,1873.105100000143,1874.1215,1874.6209000000956,1874.621,1876.471100000143,1583.0,1876.4712999999524,5.0,1876.4715,5.0,15.0,165.0,20.0,1.0,0.8,0.3,Time
,,S58,1,F,24,anonymized,Serial_Dependence_U,2023.2.3,Win32,60.24096385550618,,,,,,1876.4719000000955,286.0,5.0,1876.4721000001432,286.0,,,,1879.855100000143,1880.354299999952,1879.354200000048,1879.855,1877.487900000096,1879.3541000001435,1880.354299999952,1880.8540000000005,1880.8541000001435,1882.787400000096,1799.0,1882.787400000096,5.0,1882.7877999999523,5.0,16.0,166.0,10.0,1.0,0.8,0.3,Time
,,S58,1,F,24,anonymized,Serial_Dependence_U,2023.2.3,Win32,60.24096385550618,,,,,,1882.788200000048,276.0,5.0,1882.7882999999524,276.0,,,,1886.5545,1887.0542999999525,1886.037700000048,1886.5544000000957,1883.8039000000956,1886.0376000001436,1887.0542999999525,1887.554,1887.554100000143,1890.120600000143,1885.0,1890.120700000048,5.0,1890.121100000143,5.0,17.0,167.0,7.0,1.0,1.2,0.7,Time
,,S58,1,F,24,anonymized,Serial_Dependence_U,2023.2.3,Win32,60.24096385550618,,,,,,1890.1215,340.0,5.0,1890.1216000001432,340.0,,,,1894.3055,1894.804200000048,1893.788600000143,1894.3055,1891.121700000048,1893.7885,1894.804200000048,1895.303200000048,1895.3032999999523,1898.338,2868.0,1898.3381000001432,5.0,1898.338400000096,5.0,18.0,168.0,14.0,1.0,1.6,0.3,Time
,,S58,1,F,24,anonymized,Serial_Dependence_U,2023.2.3,Win32,60.24096385550618,,,,,,1898.338799999952,231.0,5.0,1898.339,231.0,,,,1901.922200000048,1902.420700000048,1901.421600000143,1901.922100000143,1899.354200000048,1901.4215,1902.420700000048,1902.9206000001432,1902.9206000001432,1905.2041000001432,1964.0,1905.204200000048,5.0,1905.2045000000005,5.0,19.0,169.0,1.0,1.0,1.0,0.3,Time
,,S58,1,F,24,anonymized,Serial_Dependence_U,2023.2.3,Win32,60.24096385550618,,,,,,1905.205,244.0,5.0,1905.2052999999523,244.0,,,,1909.003900000096,1909.5036000001437,1908.4876000001432,1909.003799999952,1906.220700000048,1908.4876000001432,1909.5036000001437,1910.003700000048,1910.003799999952,1912.4546000001435,2134.0,1912.454700000048,5.0,1912.454900000096,5.0,20.0,170.0,2.0,1.0,1.2,0.3,Time
,,S58,1,F,24,anonymized,Serial_Dependence_U,2023.2.3,Win32,60.24096385550618,,,,,,1912.4552999999523,277.0,5.0,1912.4555,277.0,,,,1915.8205000000005,1916.320400000096,1915.3039000000956,1915.8202999999528,1913.470400000096,1915.3039000000956,1916.3205000000005,1916.8205000000005,1916.8205000000005,1918.9541000001432,1650.0,1918.954200000048,5.0,1918.9545000000005,5.0,21.0,171.0,25.0,1.0,0.8,0.7,Time
,,S58,1,F,24,anonymized,Serial_Dependence_U,2023.2.3,Win32,60.24096385550618,,,,,,1918.954900000096,330.0,5.0,1918.955,330.0,,,,1922.7372999999525,1923.2367999999524,1922.2206000001436,1922.737100000143,1919.9541000001432,1922.2206000001436,1923.2367999999524,1923.737,1923.737,1925.970299999952,1798.0,1925.970299999952,5.0,1925.9706000001436,5.0,22.0,172.0,12.0,1.0,1.2,0.3,Time
,,S58,1,F,24,anonymized,Serial_Dependence_U,2023.2.3,Win32,60.24096385550618,,,,,,1925.9709000000955,90.0,5.0,1925.971100000143,90.0,,,,1929.92,1930.420100000143,1929.404600000143,1929.9199000000956,1926.971700000048,1929.4045,1930.420100000143,1930.920200000048,1930.920200000048,1933.4705,2166.0,1933.4706000001436,5.0,1933.471,5.0,23.0,173.0,18.0,1.0,1.4,0.7,Time
,,S58,1,F,24,anonymized,Serial_Dependence_U,2023.2.3,Win32,60.24096385550618,,,,,,1933.4714000000956,229.0,5.0,1933.471600000143,229.0,,,,1937.0701000001432,1937.569600000143,1936.555200000048,1937.0701000001432,1934.4880000000005,1936.5551000001435,1937.569600000143,1938.0699000000957,1938.07,1940.255,1901.0,1940.255100000143,5.0,1940.2554000000955,5.0,24.0,174.0,11.0,1.0,1.0,0.3,Time
,,S58,1,F,24,anonymized,Serial_Dependence_U,2023.2.3,Win32,60.24096385550618,,,,,,1940.255900000096,322.0,5.0,1940.256,322.0,,,,1943.6376000001435,1944.1364000000956,1943.1207999999524,1943.6375000000005,1941.253900000096,1943.120700000048,1944.1365,1944.6367999999525,1944.6367999999525,1946.436200000048,1515.0,1946.436200000048,5.0,1946.4364000000955,5.0,25.0,175.0,0.0,1.0,0.8,0.3,Time
,,S58,1,F,24,anonymized,Serial_Dependence_U,2023.2.3,Win32,60.24096385550618,,,,,,1946.4366000001432,137.0,5.0,1946.436700000048,137.0,,,,1950.4202999999525,1950.92,1949.905,1950.4202999999525,1947.4374000000955,1949.905,1950.92,1951.4197999999524,1951.4199000000956,1954.620700000048,2630.0,1954.6207999999524,5.0,1954.621100000143,5.0,26.0,176.0,13.0,1.0,1.4,0.3,Time
,,S58,1,F,24,anonymized,Serial_Dependence_U,2023.2.3,Win32,60.24096385550618,,,,,,1954.6214000000955,127.0,5.0,1954.6215,127.0,,,,1958.2200000000005,1958.7200000000005,1957.7037999999525,1958.2199000000955,1955.636100000143,1957.7037999999525,1958.7201000001432,1959.219700000048,1959.219700000048,1961.3212999999523,1820.0,1961.3212999999523,5.0,1961.321600000143,5.0,27.0,177.0,21.0,1.0,1.0,0.3,Time
,,S58,1,F,24,anonymized,Serial_Dependence_U,2023.2.3,Win32,60.24096385550618,,,,,,1961.322,263.0,5.0,1961.322100000143,263.0,,,,1965.454,1965.9529000000955,1964.9527999999525,1965.454,1962.320400000096,1964.952700000048,1965.9529000000955,1966.4532999999524,1966.4532999999524,1969.1204000000955,2400.0,1969.1205,5.0,1969.1209000000956,5.0,28.0,178.0,9.0,1.0,1.6,0.7,Time
,,S58,1,F,24,anonymized,Serial_Dependence_U,2023.2.3,Win32,60.24096385550618,,,,,,1969.1212999999525,82.0,5.0,1969.1215,82.0,,,,1973.069700000048,1973.569600000143,1972.5532999999523,1973.069600000143,1970.12,1972.5532999999523,1973.569700000048,1974.0694000000956,1974.0694000000956,1976.2864000000957,2084.0,1976.2864000000957,5.0,1976.2867999999528,5.0,29.0,179.0,8.0,1.0,1.4,0.7,Time
,,S58,1,F,24,anonymized,Serial_Dependence_U,2023.2.3,Win32,60.24096385550618,,,,,,1976.287200000048,322.0,6.0,2058.019100000143,322.0,s,81.71740000009504,,2061.6017999999526,2062.1014000000955,2061.085200000048,2061.6017999999526,2059.019100000143,2061.085200000048,2062.1014000000955,2062.6014000000955,2062.6014000000955,2065.518600000143,2364.0,2065.518600000143,5.0,2065.5189000000955,6.0,0.0,180.0,11.0,1.0,1.0,0.3,Time
,,S58,1,F,24,anonymized,Serial_Dependence_U,2023.2.3,Win32,60.24096385550618,,,,,,2065.519299999952,132.0,6.0,2065.521,132.0,,,,2069.7019000000955,2070.2017999999525,2069.186,2069.7017999999525,2066.518700000048,2069.1859000000954,2070.2019000000955,2070.7019000000955,2070.702,2073.7854000000957,2700.0,2073.7855,5.0,2073.7857999999524,6.0,1.0,181.0,4.0,1.0,1.6,0.3,Time
,,S58,1,F,24,anonymized,Serial_Dependence_U,2023.2.3,Win32,60.24096385550618,,,,,,2073.786200000048,241.0,6.0,2073.786600000143,241.0,,,,2077.3521000001438,2077.851100000143,2076.8355,2077.3521000001438,2074.8019000000954,2076.8354000000954,2077.851200000048,2078.351600000143,2078.351700000048,2080.802200000048,2017.0,2080.8022999999525,5.0,2080.8026000001432,6.0,2.0,182.0,6.0,1.0,1.0,0.7,Time
,,S58,1,F,24,anonymized,Serial_Dependence_U,2023.2.3,Win32,60.24096385550618,,,,,,2080.803,65.0,6.0,2080.8032999999523,65.0,,,,2084.385100000143,2084.884200000048,2083.868400000096,2084.385,2081.8017999999524,2083.868200000048,2084.884200000048,2085.385100000143,2085.385100000143,2087.8515,1870.0,2087.851700000048,5.0,2087.851900000096,6.0,3.0,183.0,1.0,1.0,1.0,0.3,Time
,,S58,1,F,24,anonymized,Serial_Dependence_U,2023.2.3,Win32,60.24096385550618,,,,,,2087.8524000000957,334.0,6.0,2087.852700000048,334.0,,,,2092.0017999999523,2092.501200000048,2091.485,2092.0017999999523,2088.8515,2091.4849000000954,2092.501200000048,2093.001400000096,2093.001400000096,2095.601700000048,2284.0,2095.601700000048,5.0,2095.6021000001438,6.0,4.0,184.0,9.0,1.0,1.6,0.7,Time
,,S58,1,F,24,anonymized,Serial_Dependence_U,2023.2.3,Win32,60.24096385550618,,,,,,2095.6024000000957,46.0,6.0,2095.6027999999524,46.0,,,,2099.567600000143,2100.0677999999525,2099.052200000048,2099.5675,2096.6179000000952,2099.052200000048,2100.0677999999525,2100.5677999999525,2100.5677999999525,2103.284900000096,2367.0,2103.2850000000003,5.0,2103.2852999999523,6.0,5.0,185.0,18.0,1.0,1.4,0.7,Time
,,S58,1,F,24,anonymized,Serial_Dependence_U,2023.2.3,Win32,60.24096385550618,,,,,,2103.285700000048,137.0,6.0,2103.285900000096,137.0,,,,2106.6515,2107.1507999999526,2106.135100000143,2106.651299999952,2104.3012999999523,2106.135,2107.1507999999526,2107.6507999999526,2107.650900000096,2109.5679000000955,1648.0,2109.568100000143,5.0,2109.5682999999526,6.0,6.0,186.0,25.0,1.0,0.8,0.7,Time
,,S58,1,F,24,anonymized,Serial_Dependence_U,2023.2.3,Win32,60.24096385550618,,,,,,2109.5687999999523,269.0,6.0,2109.569100000143,269.0,,,,2112.9685,2113.467600000143,2112.451700000048,2112.9684000000952,2110.5847999999523,2112.451700000048,2113.467600000143,2113.9681000001437,2113.9681000001437,2116.0347999999526,1836.0,2116.0347999999526,5.0,2116.0351000001438,6.0,7.0,187.0,20.0,1.0,0.8,0.3,Time
,,S58,1,F,24,anonymized,Serial_Dependence_U,2023.2.3,Win32,60.24096385550618,,,,,,2116.0355,194.0,6.0,2116.035900000096,194.0,,,,2120.019100000143,2120.518200000048,2119.518,2120.019,2117.050900000095,2119.518,2120.518200000048,2121.0175,2121.0175,2123.617700000048,2301.0,2123.617799999952,5.0,2123.618100000143,6.0,8.0,188.0,3.0,1.0,1.4,0.3,Time
,,S58,1,F,24,anonymized,Serial_Dependence_U,2023.2.3,Win32,60.24096385550618,,,,,,2123.6185,171.0,6.0,2123.6187999999524,171.0,,,,2127.817700000048,2128.317200000048,2127.300799999952,2127.817600000143,2124.6344000000954,2127.300700000048,2128.317200000048,2128.8175,2128.8175,2131.384700000048,2351.0,2131.384700000048,5.0,2131.385100000143,6.0,9.0,189.0,24.0,1.0,1.6,0.3,Time
,,S58,1,F,24,anonymized,Serial_Dependence_U,2023.2.3,Win32,60.24096385550618,,,,,,2131.385400000096,109.0,6.0,2131.385700000048,109.0,,,,2135.569700000048,2136.066600000144,2135.0679000000955,2135.569700000048,2132.4007999999526,2135.0677999999525,2136.066700000048,2136.5672999999524,2136.5674000000954,2139.284200000048,2487.0,2139.2842999999525,5.0,2139.284600000143,6.0,10.0,190.0,14.0,1.0,1.6,0.3,Time
,,S58,1,F,24,anonymized,Serial_Dependence_U,2023.2.3,Win32,60.24096385550618,,,,,,2139.2851000001438,235.0,6.0,2139.2854000000957,235.0,,,,2143.052200000048,2143.550100000143,2142.534100000143,2143.052200000048,2140.300799999952,2142.534,2143.550100000143,2144.0505000000003,2144.0505000000003,2146.3667999999525,2015.0,2146.3667999999525,5.0,2146.3669000000955,6.0,11.0,191.0,7.0,1.0,1.2,0.7,Time
,,S58,1,F,24,anonymized,Serial_Dependence_U,2023.2.3,Win32,60.24096385550618,,,,,,2146.3672999999526,285.0,6.0,2146.367700000048,285.0,,,,2150.150700000048,2150.6505,2149.6342999999524,2150.150600000143,2147.3676000001437,2149.634200000048,2150.6505,2151.1504000000955,2151.1504000000955,2153.6517999999523,1932.0,2153.651900000096,5.0,2153.652100000143,6.0,12.0,192.0,22.0,1.0,1.2,0.3,Time
,,S58,1,F,24,anonymized,Serial_Dependence_U,2023.2.3,Win32,60.24096385550618,,,,,,2153.6524000000954,36.0,6.0,2153.652700000048,36.0,,,,2157.602,2158.100200000048,2157.084200000048,2157.602,2154.6510000000003,2157.0841000001437,2158.1002999999523,2158.600100000144,2158.600200000048,2160.9339000000955,2065.0,2160.934,5.0,2160.934400000096,6.0,13.0,193.0,8.0,1.0,1.4,0.7,Time
,,S58,1,F,24,anonymized,Serial_Dependence_U,2023.2.3,Win32,60.24096385550618,,,,,,2160.9347000000475,264.0,6.0,2160.935100000143,264.0,,,,2164.917600000143,2165.417100000143,2164.416900000096,2164.9175,2161.950700000048,2164.416799999952,2165.417200000048,2165.9172999999523,2165.9172999999523,2168.6507999999526,2434.0,2168.6507999999526,5.0,2168.6511000001437,6.0,14.0,194.0,13.0,1.0,1.4,0.3,Time
,,S58,1,F,24,anonymized,Serial_Dependence_U,2023.2.3,Win32,60.24096385550618,,,,,,2168.6515,118.0,6.0,2168.6517999999523,118.0,,,,2172.4004000000955,2172.9005,2171.884,2172.4002999999525,2169.651200000048,2171.8839000000958,2172.9005,2173.3999000000954,2173.3999000000954,2176.3335,2234.0,2176.3335,5.0,2176.3337999999526,6.0,15.0,195.0,17.0,1.0,1.2,0.7,Time
,,S58,1,F,24,anonymized,Serial_Dependence_U,2023.2.3,Win32,60.24096385550618,,,,,,2176.334200000048,155.0,6.0,2176.334600000143,155.0,,,,2180.100700000048,2180.599900000096,2179.600100000144,2180.100600000143,2177.333600000143,2179.6,2180.6,2181.0996000001437,2181.0996000001437,2183.2851000001438,1937.0,2183.2851000001438,5.0,2183.285700000048,6.0,16.0,196.0,2.0,1.0,1.2,0.3,Time
,,S58,1,F,24,anonymized,Serial_Dependence_U,2023.2.3,Win32,60.24096385550618,,,,,,2183.286100000143,340.0,6.0,2183.286600000143,340.0,,,,2187.2662999999525,2187.766600000143,2186.7505,2187.266200000048,2184.284,2186.7504000000954,2187.766600000143,2188.2662999999525,2188.2664000000955,2190.733400000096,2052.0,2190.7335000000003,5.0,2190.733900000096,6.0,17.0,197.0,23.0,1.0,1.4,0.3,Time
,,S58,1,F,24,anonymized,Serial_Dependence_U,2023.2.3,Win32,60.24096385550618,,,,,,2190.7342999999523,327.0,6.0,2190.734600000143,327.0,,,,2194.1004000000958,2194.599799999952,2193.599799999952,2194.1002999999523,2191.734100000143,2193.599700000048,2194.599900000096,2195.0995000000003,2195.0995000000003,2197.1995,1781.0,2197.1995,5.0,2197.199700000048,6.0,18.0,198.0,0.0,1.0,0.8,0.3,Time
,,S58,1,F,24,anonymized,Serial_Dependence_U,2023.2.3,Win32,60.24096385550618,,,,,,2197.200200000048,40.0,6.0,2197.2005,40.0,,,,2200.766700000048,2201.265900000096,2200.250200000048,2200.766700000048,2198.2182000000475,2200.250100000143,2201.266,2201.766600000143,2201.766600000143,2203.8664000000954,1849.0,2203.8664000000954,5.0,2203.866700000048,6.0,19.0,199.0,16.0,1.0,1.0,0.7,Time
,,S58,1,F,24,anonymized,Serial_Dependence_U,2023.2.3,Win32,60.24096385550618,,,,,,2203.867,262.0,6.0,2203.867200000048,262.0,,,,2207.251200000048,2207.750100000143,2206.7507999999525,2207.251100000143,2204.8835,2206.7507999999525,2207.750100000143,2208.2509000000955,2208.251,2210.149600000143,1451.0,2210.149700000048,5.0,2210.1499000000954,6.0,20.0,200.0,10.0,1.0,0.8,0.3,Time
,,S58,1,F,24,anonymized,Serial_Dependence_U,2023.2.3,Win32,60.24096385550618,,,,,,2210.150100000143,336.0,6.0,2210.1502999999525,336.0,,,,2213.6837999999525,2214.1834000000954,2213.183200000048,2213.683700000048,2211.150700000048,2213.183100000143,2214.1834000000954,2214.683100000143,2214.683200000048,2216.766600000143,1885.0,2216.766700000048,5.0,2216.7670000000003,6.0,21.0,201.0,26.0,1.0,1.0,0.7,Time
,,S58,1,F,24,anonymized,Serial_Dependence_U,2023.2.3,Win32,60.24096385550618,,,,,,2216.7675,215.0,6.0,2216.7677999999523,215.0,,,,2220.732700000048,2221.2327999999525,2220.2182000000475,2220.732700000048,2217.782900000096,2220.2181000001437,2221.2327999999525,2221.7325,2221.732600000143,2224.199100000143,2116.0,2224.199200000048,5.0,2224.1994000000955,6.0,22.0,202.0,28.0,1.0,1.4,0.7,Time
,,S58,1,F,24,anonymized,Serial_Dependence_U,2023.2.3,Win32,60.24096385550618,,,,,,2224.1997999999526,17.0,6.0,2224.2001000001437,17.0,,,,2228.3335,2228.8325,2227.832700000048,2228.3335,2225.200700000048,2227.832700000048,2228.832600000143,2229.332700000048,2229.332700000048,2231.982400000096,2381.0,2231.9825,5.0,2231.9827999999525,6.0,23.0,203.0,19.0,1.0,1.6,0.7,Time
,,S58,1,F,24,anonymized,Serial_Dependence_U,2023.2.3,Win32,60.24096385550618,,,,,,2231.983100000143,42.0,6.0,2231.9835000000003,42.0,,,,2235.567200000048,2236.0660000000003,2235.050900000095,2235.567200000048,2232.983700000048,2235.050700000048,2236.0660000000003,2236.566299999952,2236.566299999952,2238.716600000143,1952.0,2238.716700000048,5.0,2238.717,6.0,24.0,204.0,21.0,1.0,1.0,0.3,Time
,,S58,1,F,24,anonymized,Serial_Dependence_U,2023.2.3,Win32,60.24096385550618,,,,,,2238.7174000000955,284.0,6.0,2238.717700000048,284.0,,,,2242.0825,2242.5824000000957,2241.5660000000003,2242.0825,2239.733400000096,2241.565900000096,2242.5825,2243.0827999999524,2243.0827999999524,2245.149,1665.0,2245.149100000144,5.0,2245.1492999999523,6.0,25.0,205.0,15.0,1.0,0.8,0.7,Time
,,S58,1,F,24,anonymized,Serial_Dependence_U,2023.2.3,Win32,60.24096385550618,,,,,,2245.149700000048,18.0,6.0,2245.150100000143,18.0,,,,2248.9332999999524,2249.4327999999523,2248.432299999952,2248.933200000048,2246.167100000143,2248.432200000048,2249.4327999999523,2249.932200000048,2249.932299999952,2252.133600000144,1965.0,2252.133600000144,5.0,2252.134,6.0,26.0,206.0,12.0,1.0,1.2,0.3,Time
,,S58,1,F,24,anonymized,Serial_Dependence_U,2023.2.3,Win32,60.24096385550618,,,,,,2252.1344000000954,262.0,6.0,2252.134700000048,262.0,,,,2255.899700000048,2256.398900000096,2255.383400000096,2255.899600000143,2253.1497999999524,2255.383299999952,2256.399,2256.898700000048,2256.898799999952,2259.149,2083.0,2259.149100000144,5.0,2259.1494000000957,6.0,27.0,207.0,27.0,1.0,1.2,0.7,Time
,,S58,1,F,24,anonymized,Serial_Dependence_U,2023.2.3,Win32,60.24096385550618,,,,,,2259.1497999999524,75.0,6.0,2259.150100000143,75.0,,,,2262.4989000000955,2262.998700000048,2261.9825,2262.498799999953,2260.1494000000957,2261.982400000096,2262.998799999953,2263.4989000000955,2263.4990000000003,2265.449,1614.0,2265.449100000143,5.0,2265.4494000000955,6.0,28.0,208.0,5.0,1.0,0.8,0.7,Time
,,S58,1,F,24,anonymized,Serial_Dependence_U,2023.2.3,Win32,60.24096385550618,,,,,,2265.449900000096,180.0,6.0,2265.450200000048,180.0,,,,2269.616100000143,2270.115400000096,2269.099100000143,2269.616100000143,2266.465799999952,2269.099,2270.1155,2270.6155,2270.6155,2273.899200000048,2619.0,2273.8992999999523,5.0,2273.899600000143,6.0,29.0,209.0,29.0,1.0,1.6,0.7,Time
,,S58,1,F,24,anonymized,Serial_Dependence_U,2023.2.3,Win32,60.24096385550618,,,,,,2273.8999000000954,135.0,7.0,2275.415700000048,135.0,s,1.5018999998569598,,2279.182700000048,2279.681700000048,2278.6657999999525,2279.182600000144,2276.433,2278.665600000143,2279.681700000048,2280.182400000096,2280.1825,2283.048700000048,2447.0,2283.0487999999523,5.0,2283.049100000143,7.0,0.0,210.0,27.0,1.0,1.2,0.7,Time
,,S58,1,F,24,anonymized,Serial_Dependence_U,2023.2.3,Win32,60.24096385550618,,,,,,2283.0494000000954,17.0,7.0,2283.0512999999523,17.0,,,,2287.0157999999524,2287.514900000096,2286.500200000048,2287.015700000048,2284.065200000048,2286.500200000048,2287.514900000096,2288.015600000143,2288.015600000143,2290.799600000143,2404.0,2290.799600000143,5.0,2290.8,7.0,1.0,211.0,28.0,1.0,1.4,0.7,Time
,,S58,1,F,24,anonymized,Serial_Dependence_U,2023.2.3,Win32,60.24096385550618,,,,,,2290.800400000096,135.0,7.0,2290.800700000048,135.0,,,,2294.149200000048,2294.6482999999525,2293.6322999999525,2294.149100000144,2291.799700000048,2293.6322999999525,2294.6484000000955,2295.1482999999525,2295.1482999999525,2297.282,1868.0,2297.282,5.0,2297.282299999953,7.0,2.0,212.0,5.0,1.0,0.8,0.7,Time
,,S58,1,F,24,anonymized,Serial_Dependence_U,2023.2.3,Win32,60.24096385550618,,,,,,2297.282700000048,219.0,7.0,2297.283100000144,219.0,,,,2301.448900000096,2301.9482999999523,2300.9327999999523,2301.448900000096,2298.299200000048,2300.9327999999523,2301.9484000000957,2302.449,2302.449,2305.4157999999525,2799.0,2305.4157999999525,5.0,2305.416200000048,7.0,3.0,213.0,29.0,1.0,1.6,0.7,Time
,,S58,1,F,24,anonymized,Serial_Dependence_U,2023.2.3,Win32,60.24096385550618,,,,,,2305.4166000001437,207.0,7.0,2305.416900000096,207.0,,,,2308.966200000048,2309.464700000048,2308.4485,2308.966100000144,2306.415400000096,2308.4484000000957,2309.4647999999524,2309.9649000000954,2309.965,2312.099299999953,1883.0,2312.099299999953,5.0,2312.099700000048,7.0,4.0,214.0,16.0,1.0,1.0,0.7,Time
,,S58,1,F,24,anonymized,Serial_Dependence_U,2023.2.3,Win32,60.24096385550618,,,,,,2312.100100000144,54.0,7.0,2312.1004000000958,54.0,,,,2316.082100000144,2316.581600000143,2315.565100000143,2316.082,2313.099700000048,2315.565100000143,2316.581600000143,2317.0812999999525,2317.0814000000955,2319.849200000048,2503.0,2319.849299999953,5.0,2319.8495000000003,7.0,5.0,215.0,13.0,1.0,1.4,0.3,Time
,,S58,1,F,24,anonymized,Serial_Dependence_U,2023.2.3,Win32,60.24096385550618,,,,,,2319.85,282.0,7.0,2319.8502999999523,282.0,,,,2323.432200000048,2323.9317999999525,2322.9147999999523,2323.4321000001432,2320.8485,2322.9147999999523,2323.9317999999525,2324.4314000000954,2324.4315,2326.498200000048,1836.0,2326.4982999999525,5.0,2326.498700000048,7.0,6.0,216.0,21.0,1.0,1.0,0.3,Time
,,S58,1,F,24,anonymized,Serial_Dependence_U,2023.2.3,Win32,60.24096385550618,,,,,,2326.4991000001432,243.0,7.0,2326.499400000096,243.0,,,,2330.681600000143,2331.182600000144,2330.165400000096,2330.6815,2327.4984000000954,2330.1652999999524,2331.182700000048,2331.6815,2331.6815,2334.565,2531.0,2334.565100000143,5.0,2334.5654000000955,7.0,7.0,217.0,24.0,1.0,1.6,0.3,Time
,,S58,1,F,24,anonymized,Serial_Dependence_U,2023.2.3,Win32,60.24096385550618,,,,,,2334.565799999953,154.0,7.0,2334.5661000001437,154.0,,,,2338.3645,2338.864600000143,2337.8482999999524,2338.3644000000954,2335.581900000096,2337.8482999999524,2338.864600000143,2339.364600000143,2339.364700000048,2341.797700000048,2183.0,2341.797700000048,5.0,2341.798,7.0,8.0,218.0,22.0,1.0,1.2,0.3,Time
,,S58,1,F,24,anonymized,Serial_Dependence_U,2023.2.3,Win32,60.24096385550618,,,,,,2341.7985,94.0,7.0,2341.7987999999523,94.0,,,,2345.3485,2345.848,2344.8315,2345.3482999999524,2342.798600000144,2344.8315,2345.848,2346.3475000000003,2346.3475000000003,2348.465799999952,1867.0,2348.465799999952,5.0,2348.466200000048,7.0,9.0,219.0,6.0,1.0,1.0,0.7,Time
,,S58,1,F,24,anonymized,Serial_Dependence_U,2023.2.3,Win32,60.24096385550618,,,,,,2348.4665,86.0,7.0,2348.4667999999524,86.0,,,,2351.831900000096,2352.331,2351.331,2351.831799999952,2349.4654000000955,2351.3307999999524,2352.331,2352.8314000000955,2352.8314000000955,2354.781100000143,1546.0,2354.781200000048,5.0,2354.781400000096,7.0,10.0,220.0,20.0,1.0,0.8,0.3,Time
,,S58,1,F,24,anonymized,Serial_Dependence_U,2023.2.3,Win32,60.24096385550618,,,,,,2354.7819000000954,272.0,7.0,2354.782200000048,272.0,,,,2358.9477999999526,2359.447200000048,2358.4315,2358.947700000048,2355.7977999999525,2358.4314000000954,2359.447200000048,2359.947700000048,2359.947700000048,2362.748,2545.0,2362.748,5.0,2362.7484000000954,7.0,11.0,221.0,19.0,1.0,1.6,0.7,Time
,,S58,1,F,24,anonymized,Serial_Dependence_U,2023.2.3,Win32,60.24096385550618,,,,,,2362.7489000000955,67.0,7.0,2362.7491000001432,67.0,,,,2366.081700000048,2366.580600000143,2365.581100000143,2366.081700000048,2363.748,2365.581,2366.580600000143,2367.0807999999524,2367.0807999999524,2369.2467999999526,1815.0,2369.2467999999526,5.0,2369.2471000001437,7.0,12.0,222.0,25.0,1.0,0.8,0.7,Time
,,S58,1,F,24,anonymized,Serial_Dependence_U,2023.2.3,Win32,60.24096385550618,,,,,,2369.247600000143,137.0,7.0,2369.247900000096,137.0,,,,2373.0307999999523,2373.530400000096,2372.5144000000955,2373.0307000000475,2370.248,2372.5142999999525,2373.5305000000003,2374.0305000000003,2374.0306000001437,2376.1645,2017.0,2376.1645,5.0,2376.1647999999523,7.0,13.0,223.0,12.0,1.0,1.2,0.3,Time
,,S58,1,F,24,anonymized,Serial_Dependence_U,2023.2.3,Win32,60.24096385550618,,,,,,2376.165400000096,107.0,7.0,2376.165600000143,107.0,,,,2379.9307999999523,2380.4307999999523,2379.4137999999525,2379.930700000048,2377.181100000143,2379.4137999999525,2380.430900000096,2380.9304000000952,2380.9305,2383.548100000143,2354.0,2383.548100000143,5.0,2383.5485,7.0,14.0,224.0,7.0,1.0,1.2,0.7,Time
,,S58,1,F,24,anonymized,Serial_Dependence_U,2023.2.3,Win32,60.24096385550618,,,,,,2383.549,25.0,7.0,2383.549200000048,25.0,,,,2387.1477999999524,2387.648100000143,2386.630900000096,2387.1477999999524,2384.5642000000475,2386.6307999999526,2387.648100000143,2388.147200000048,2388.147200000048,2390.4315,1922.0,2390.431600000143,5.0,2390.4319000000955,7.0,15.0,225.0,11.0,1.0,1.0,0.3,Time
,,S58,1,F,24,anonymized,Serial_Dependence_U,2023.2.3,Win32,60.24096385550618,,,,,,2390.432400000096,44.0,7.0,2390.432700000048,44.0,,,,2394.630900000096,2395.130200000048,2394.114200000048,2394.630700000048,2391.4475,2394.114100000143,2395.130200000048,2395.6302999999525,2395.6304000000955,2398.6135,2600.0,2398.613600000143,5.0,2398.613900000096,7.0,16.0,226.0,14.0,1.0,1.6,0.3,Time
,,S58,1,F,24,anonymized,Serial_Dependence_U,2023.2.3,Win32,60.24096385550618,,,,,,2398.6144000000954,107.0,7.0,2398.614600000143,107.0,,,,2402.5642999999523,2403.0632999999525,2402.048100000143,2402.5642999999523,2399.613700000048,2402.048,2403.0634000000955,2403.563600000143,2403.563600000143,2405.931100000143,2251.0,2405.931200000048,5.0,2405.931600000143,7.0,17.0,227.0,8.0,1.0,1.4,0.7,Time
,,S58,1,F,24,anonymized,Serial_Dependence_U,2023.2.3,Win32,60.24096385550618,,,,,,2405.9321000001432,331.0,7.0,2405.932400000096,331.0,,,,2410.098200000048,2410.597,2409.580600000143,2410.098100000143,2406.947600000143,2409.580600000143,2410.597,2411.0969000000955,2411.0969000000955,2413.7644000000955,2303.0,2413.7645,5.0,2413.764900000096,7.0,18.0,228.0,9.0,1.0,1.6,0.7,Time
,,S58,1,F,24,anonymized,Serial_Dependence_U,2023.2.3,Win32,60.24096385550618,,,,,,2413.7652999999523,94.0,7.0,2413.765600000143,94.0,,,,2417.7644000000955,2418.263700000048,2417.2470000000003,2417.7642999999525,2414.780400000096,2417.246900000096,2418.263700000048,2418.7637999999524,2418.7639000000954,2421.413700000048,2331.0,2421.4137999999525,5.0,2421.414100000143,7.0,19.0,229.0,23.0,1.0,1.4,0.3,Time
,,S58,1,F,24,anonymized,Serial_Dependence_U,2023.2.3,Win32,60.24096385550618,,,,,,2421.4146000001438,117.0,7.0,2421.4147999999523,117.0,,,,2425.5967999999525,2426.096600000143,2425.079900000096,2425.596700000048,2422.4137999999525,2425.079900000096,2426.096600000143,2426.5965,2426.596600000143,2429.48,2498.0,2429.48,5.0,2429.4804000000954,7.0,20.0,230.0,4.0,1.0,1.6,0.3,Time
,,S58,1,F,24,anonymized,Serial_Dependence_U,2023.2.3,Win32,60.24096385550618,,,,,,2429.480700000048,285.0,7.0,2429.4809000000955,285.0,,,,2433.080200000048,2433.579700000048,2432.563600000143,2433.080200000048,2430.4972000000475,2432.563600000143,2433.579700000048,2434.079700000048,2434.079799999952,2436.2634000000958,1847.0,2436.2634000000958,5.0,2436.2637999999524,7.0,21.0,231.0,1.0,1.0,1.0,0.3,Time
,,S58,1,F,24,anonymized,Serial_Dependence_U,2023.2.3,Win32,60.24096385550618,,,,,,2436.264200000048,316.0,7.0,2436.2644000000955,316.0,,,,2440.2304000000954,2440.730200000048,2439.7136000001437,2440.2304000000954,2437.280200000048,2439.7135000000003,2440.730200000048,2441.2299000000958,2441.2299000000958,2443.6805,2119.0,2443.680700000048,5.0,2443.681,7.0,22.0,232.0,18.0,1.0,1.4,0.7,Time
,,S58,1,F,24,anonymized,Serial_Dependence_U,2023.2.3,Win32,60.24096385550618,,,,,,2443.6812999999524,146.0,7.0,2443.681600000143,146.0,,,,2447.229299999952,2447.729200000048,2446.713100000143,2447.229299999952,2444.6797999999526,2446.713100000143,2447.729200000048,2448.229200000048,2448.229200000048,2450.463100000143,1949.0,2450.463100000143,5.0,2450.463400000096,7.0,23.0,233.0,26.0,1.0,1.0,0.7,Time
,,S58,1,F,24,anonymized,Serial_Dependence_U,2023.2.3,Win32,60.24096385550618,,,,,,2450.4639000000952,27.0,7.0,2450.464200000048,27.0,,,,2454.263600000143,2454.763700000048,2453.7484000000954,2454.263600000143,2451.4797999999523,2453.7482999999525,2454.763700000048,2455.262700000048,2455.262700000048,2457.679600000143,2082.0,2457.679700000048,5.0,2457.6800000000003,7.0,24.0,234.0,2.0,1.0,1.2,0.3,Time
,,S58,1,F,24,anonymized,Serial_Dependence_U,2023.2.3,Win32,60.24096385550618,,,,,,2457.6804000000952,351.0,7.0,2457.680700000048,351.0,,,,2461.6635,2462.162400000096,2461.1469000000952,2461.6635,2458.6805,2461.146700000048,2462.162400000096,2462.663,2462.663,2465.3292999999526,2365.0,2465.3292999999526,5.0,2465.329700000048,7.0,25.0,235.0,3.0,1.0,1.4,0.3,Time
,,S58,1,F,24,anonymized,Serial_Dependence_U,2023.2.3,Win32,60.24096385550618,,,,,,2465.33,107.0,7.0,2465.330200000048,107.0,,,,2468.713799999952,2469.2127999999525,2468.1967999999524,2468.713799999952,2466.3296000001437,2468.1967999999524,2469.2127999999525,2469.713,2469.713,2472.1295,2069.0,2472.129600000143,5.0,2472.1299000000954,7.0,26.0,236.0,10.0,1.0,0.8,0.3,Time
,,S58,1,F,24,anonymized,Serial_Dependence_U,2023.2.3,Win32,60.24096385550618,,,,,,2472.1304000000955,353.0,7.0,2472.130700000048,353.0,,,,2475.5299000000955,2476.029200000048,2475.012700000048,2475.5297999999525,2473.1462999999526,2475.0126000001437,2476.029200000048,2476.5297999999525,2476.5297999999525,2478.595700000048,1835.0,2478.5957999999523,5.0,2478.596,7.0,27.0,237.0,0.0,1.0,0.8,0.3,Time
,,S58,1,F,24,anonymized,Serial_Dependence_U,2023.2.3,Win32,60.24096385550618,,,,,,2478.5962999999524,200.0,7.0,2478.5965,200.0,,,,2481.963,2482.4625,2481.4474000000955,2481.9629000000955,2479.6130000000003,2481.4472999999525,2482.462600000143,2482.9624000000954,2482.9624000000954,2485.279700000048,1951.0,2485.279700000048,5.0,2485.2799000000955,7.0,28.0,238.0,15.0,1.0,0.8,0.7,Time
,,S58,1,F,24,anonymized,Serial_Dependence_U,2023.2.3,Win32,60.24096385550618,,,,,,2485.280400000096,271.0,7.0,2485.2805000000003,271.0,,,,2489.013700000048,2489.513200000048,2488.512799999952,2489.013600000143,2486.2799000000955,2488.5126000001437,2489.5132999999523,2490.012200000048,2490.012200000048,2492.696700000048,2087.0,2492.6967999999524,5.0,2492.697100000143,7.0,29.0,239.0,17.0,1.0,1.2,0.7,Time
,,S58,1,F,24,anonymized,Serial_Dependence_U,2023.2.3,Win32,60.24096385550618,,,,,,2492.6974000000955,196.0,8.0,2495.8955,196.0,s,3.182700000047589,,2499.495700000048,2499.9957999999524,2498.979600000143,2499.495600000143,2496.913100000143,2498.979600000143,2499.9957999999524,2500.495200000048,2500.495200000048,2502.8127999999524,2216.0,2502.8129000000954,5.0,2502.813200000048,8.0,0.0,240.0,11.0,1.0,1.0,0.3,Time
,,S58,1,F,24,anonymized,Serial_Dependence_U,2023.2.3,Win32,60.24096385550618,,,,,,2502.813600000143,174.0,8.0,2502.815200000048,174.0,,,,2506.779700000048,2507.278600000144,2506.262700000048,2506.779700000048,2503.8292999999526,2506.262700000048,2507.278600000144,2507.7785,2507.778600000144,2510.512900000096,2384.0,2510.513,5.0,2510.513200000048,8.0,1.0,241.0,18.0,1.0,1.4,0.7,Time
,,S58,1,F,24,anonymized,Serial_Dependence_U,2023.2.3,Win32,60.24096385550618,,,,,,2510.513600000143,87.0,8.0,2510.5137999999524,87.0,,,,2514.480600000143,2514.9785,2513.9795,2514.480600000143,2511.5126000001437,2513.979400000096,2514.9785,2515.4785,2515.478600000143,2518.028299999952,2232.0,2518.028299999952,5.0,2518.0285,8.0,2.0,242.0,3.0,1.0,1.4,0.3,Time
,,S58,1,F,24,anonymized,Serial_Dependence_U,2023.2.3,Win32,60.24096385550618,,,,,,2518.0287999999523,196.0,8.0,2518.029100000143,196.0,,,,2521.5982999999524,2522.095299999952,2521.079,2521.5982999999524,2519.0457999999526,2521.0789000000955,2522.095299999952,2522.5955,2522.595600000144,2524.645,1766.0,2524.645100000143,5.0,2524.6452999999524,8.0,3.0,243.0,26.0,1.0,1.0,0.7,Time
,,S58,1,F,24,anonymized,Serial_Dependence_U,2023.2.3,Win32,60.24096385550618,,,,,,2524.6455,46.0,8.0,2524.645700000048,46.0,,,,2528.8124000000957,2529.311700000048,2528.295900000096,2528.8122999999523,2525.662600000144,2528.2957999999526,2529.311799999952,2529.812,2529.812100000144,2532.478200000048,2331.0,2532.478200000048,5.0,2532.4784000000955,8.0,4.0,244.0,19.0,1.0,1.6,0.7,Time
,,S58,1,F,24,anonymized,Serial_Dependence_U,2023.2.3,Win32,60.24096385550618,,,,,,2532.478700000048,197.0,8.0,2532.478900000096,197.0,,,,2536.461700000048,2536.961700000048,2535.945799999952,2536.461600000144,2533.4790000000003,2535.945799999952,2536.961700000048,2537.4619000000957,2537.462,2540.328200000048,2433.0,2540.3282999999524,5.0,2540.328600000143,8.0,5.0,245.0,13.0,1.0,1.4,0.3,Time
,,S58,1,F,24,anonymized,Serial_Dependence_U,2023.2.3,Win32,60.24096385550618,,,,,,2540.329,140.0,8.0,2540.329200000048,140.0,,,,2544.095400000096,2544.595200000048,2543.579100000143,2544.095400000096,2541.3465,2543.579100000143,2544.595200000048,2545.0951000001432,2545.0951000001432,2547.261700000048,1867.0,2547.2617999999525,5.0,2547.262100000143,8.0,6.0,246.0,27.0,1.0,1.2,0.7,Time
,,S58,1,F,24,anonymized,Serial_Dependence_U,2023.2.3,Win32,60.24096385550618,,,,,,2547.2625000000003,136.0,8.0,2547.262799999952,136.0,,,,2551.228600000143,2551.7282999999525,2550.712600000143,2551.2285,2548.278700000048,2550.7124000000954,2551.7282999999525,2552.2282999999525,2552.2284000000955,2554.9447999999525,2064.0,2554.9449000000955,5.0,2554.945,8.0,7.0,247.0,8.0,1.0,1.4,0.7,Time
,,S58,1,F,24,anonymized,Serial_Dependence_U,2023.2.3,Win32,60.24096385550618,,,,,,2554.945400000096,355.0,8.0,2554.9456000001437,355.0,,,,2558.5119000000955,2559.0115,2557.995200000048,2558.5117999999525,2555.9624000000954,2557.995,2559.011600000143,2559.511100000143,2559.511200000048,2561.829100000143,1969.0,2561.829100000143,5.0,2561.8295000000003,8.0,8.0,248.0,16.0,1.0,1.0,0.7,Time
,,S58,1,F,24,anonymized,Serial_Dependence_U,2023.2.3,Win32,60.24096385550618,,,,,,2561.829900000096,335.0,8.0,2561.830200000048,335.0,,,,2565.995,2566.4945,2565.479200000048,2565.994900000096,2562.8465,2565.479200000048,2566.4946000001432,2566.994700000048,2566.994700000048,2570.294900000096,2537.0,2570.295,5.0,2570.2952999999525,8.0,9.0,249.0,29.0,1.0,1.6,0.7,Time
,,S58,1,F,24,anonymized,Serial_Dependence_U,2023.2.3,Win32,60.24096385550618,,,,,,2570.295700000048,125.0,8.0,2570.295900000096,125.0,,,,2574.078400000096,2574.578100000143,2573.5779000000957,2574.0782999999524,2571.311,2573.5777999999523,2574.578100000143,2575.077700000048,2575.0777999999523,2577.9132999999524,2134.0,2577.9134000000954,5.0,2577.913700000048,8.0,10.0,250.0,12.0,1.0,1.2,0.3,Time
,,S58,1,F,24,anonymized,Serial_Dependence_U,2023.2.3,Win32,60.24096385550618,,,,,,2577.914100000143,250.0,8.0,2577.914400000096,250.0,,,,2582.095299999952,2582.594100000143,2581.578600000143,2582.095200000048,2578.911799999953,2581.578400000096,2582.594100000143,2583.0949000000955,2583.0949000000955,2586.044600000143,2684.0,2586.044700000048,5.0,2586.045,8.0,11.0,251.0,14.0,1.0,1.6,0.3,Time
,,S58,1,F,24,anonymized,Serial_Dependence_U,2023.2.3,Win32,60.24096385550618,,,,,,2586.0454000000955,315.0,8.0,2586.045600000143,315.0,,,,2589.795200000048,2590.2945,2589.2781000001432,2589.795200000048,2587.0455,2589.2781000001432,2590.2945,2590.7945,2590.794600000143,2593.077700000048,1933.0,2593.0777999999523,5.0,2593.078,8.0,12.0,252.0,17.0,1.0,1.2,0.7,Time
