Scale_setup.started,Scale_setup.stopped,participant,session,sex,age,date,expName,psychopyVersion,OS,frameRate,Intro.started,Intro.stopped,key_resp_2.keys,key_resp_2.rt,key_resp_2.duration,block.started,direction,Block_id,block.stopped,trial_direction,Block_resp_2.keys,Block_resp_2.rt,Block_resp_2.duration,ITI.started,ITI.stopped,Mask_2.started,Mask_2.stopped,encoding.started,encoding.stopped,Cue.started,Cue.stopped,Response.started,Response.stopped,keyDuration,Feedback_Time.started,FeedbackID_T,Feedback_Time.stopped,trials.thisRepN,trials.thisTrialN,trials.thisN,trials.thisIndex,trials.ran,TimeDur,Coherence1,TrialType
0.0001000001430497,0.0002999999523183,S59,1,男,20,anonymized,Serial_Dependence_U,2023.2.3,Win32,166.66666666666666,,,,,,,,,,,,,,,,,,,,,,,,,,,,,,,,,,,
,,S59,1,男,20,anonymized,Serial_Dependence_U,2023.2.3,Win32,166.66666666666666,75.12879999995232,171.845,space,96.69670000004768,,,,,,,,,,,,,,,,,,,,,,,,,,,,,,,
,,S59,1,男,20,anonymized,Serial_Dependence_U,2023.2.3,Win32,166.66666666666666,,,,,,171.8542999999523,180.0,0.0,181.1927000000477,180.0,s,9.327900000095354,,185.15870000004767,185.65820000004769,184.65610000014303,185.15870000004767,182.18970000004768,184.65590000009536,185.65820000004769,186.15960000014303,186.1597999999523,194.25960000014305,113.0,194.2597000000477,1.0,195.25890000009537,0.0,0.0,0.0,3.0,1.0,1.4,0.3,Time
,,S59,1,男,20,anonymized,Serial_Dependence_U,2023.2.3,Win32,166.66666666666666,,,,,,195.2592999999523,8.0,0.0,195.26079999995235,8.0,,,,199.3975,199.89479999995228,198.8949000000954,199.3974000000954,196.2597999999523,198.89479999995228,199.89479999995228,200.39650000000003,200.39650000000003,211.38429999995236,5497.0,211.38429999995236,5.0,212.3882000000477,0.0,1.0,1.0,29.0,1.0,1.6,0.7,Time
,,S59,1,男,20,anonymized,Serial_Dependence_U,2023.2.3,Win32,166.66666666666666,,,,,,212.3886000001431,279.0,0.0,212.3887000000477,279.0,,,,215.75900000000004,216.256,215.2557999999524,215.7589000000954,213.3907000000477,215.2557000000477,216.2562000000477,216.75379999995235,216.7539000000954,220.2614000000954,2341.0,220.26150000000004,5.0,221.2544000000954,0.0,2.0,2.0,0.0,1.0,0.8,0.3,Time
,,S59,1,男,20,anonymized,Serial_Dependence_U,2023.2.3,Win32,166.66666666666666,,,,,,221.25479999995235,172.0,0.0,221.25490000009535,172.0,,,,225.2052999999524,225.7,224.70129999995237,225.2052999999524,222.2591000001431,224.70129999995237,225.7,226.2002000000477,226.2002000000477,230.11250000000004,2840.0,230.11250000000004,5.0,231.1124000000954,0.0,3.0,3.0,8.0,1.0,1.4,0.7,Time
,,S59,1,男,20,anonymized,Serial_Dependence_U,2023.2.3,Win32,166.66666666666666,,,,,,231.11270000004768,204.0,0.0,231.11279999995236,204.0,,,,235.29820000004773,235.80000000000004,234.78960000014305,235.29810000014308,232.12360000014303,234.7895,235.80000000000004,236.29810000014308,236.29820000004773,240.2535,3208.0,240.2535,5.0,241.25279999995232,0.0,4.0,4.0,24.0,1.0,1.6,0.3,Time
,,S59,1,男,20,anonymized,Serial_Dependence_U,2023.2.3,Win32,166.66666666666666,,,,,,241.25290000009537,175.0,0.0,241.25310000014304,175.0,,,,245.40529999995235,245.90460000014303,244.8955,245.40529999995235,242.2612000000477,244.8955,245.9047000000477,246.40579999995236,246.40579999995236,250.70129999995237,3152.0,250.7014000000954,5.0,251.69960000014308,0.0,5.0,5.0,19.0,1.0,1.6,0.7,Time
,,S59,1,男,20,anonymized,Serial_Dependence_U,2023.2.3,Win32,166.66666666666666,,,,,,251.69990000009537,264.0,0.0,251.70010000014307,264.0,,,,255.4849000000954,255.98460000014305,254.97850000000005,255.48479999995237,252.70640000009536,254.97829999995236,255.98460000014305,256.4809000000954,256.4809000000954,260.6682000000477,4023.0,260.6682000000477,5.0,261.6672999999523,0.0,6.0,6.0,22.0,1.0,1.2,0.3,Time
,,S59,1,男,20,anonymized,Serial_Dependence_U,2023.2.3,Win32,166.66666666666666,,,,,,261.6677000000477,353.0,0.0,261.6677999999523,353.0,,,,265.43050000000005,265.9267999999523,264.92940000009537,265.43050000000005,262.6647999999524,264.9292999999524,265.92690000009543,266.42600000000004,266.42610000014304,269.8601000001431,2872.0,269.8601000001431,5.0,270.8620000000001,0.0,7.0,7.0,12.0,1.0,1.2,0.3,Time
,,S59,1,男,20,anonymized,Serial_Dependence_U,2023.2.3,Win32,166.66666666666666,,,,,,270.86240000009536,131.0,0.0,270.86250000000007,131.0,,,,274.6106000001431,275.10910000014303,274.10260000014307,274.6106000001431,271.86740000009536,274.10260000014307,275.10910000014303,275.6092999999523,275.60940000009543,279.4196000001431,3179.0,279.41970000004767,5.0,280.42170000004774,0.0,8.0,8.0,27.0,1.0,1.2,0.7,Time
,,S59,1,男,20,anonymized,Serial_Dependence_U,2023.2.3,Win32,166.66666666666666,,,,,,280.422100000143,347.0,0.0,280.4222999999523,347.0,,,,284.1674000000954,284.6685,283.6632000000477,284.1674000000954,281.4234000000954,283.663,284.6685,285.16600000000005,285.1662000000477,289.6677000000477,3096.0,289.6677000000477,5.0,290.6642000000477,0.0,9.0,9.0,7.0,1.0,1.2,0.7,Time
,,S59,1,男,20,anonymized,Serial_Dependence_U,2023.2.3,Win32,166.66666666666666,,,,,,290.6644000000954,178.0,0.0,290.6645,178.0,,,,294.6120000000001,295.11379999995233,294.1037000000477,294.6119000000954,291.6726000001431,294.1037000000477,295.11379999995233,295.61400000000003,295.61400000000003,300.5112999999524,4274.0,300.5112999999524,5.0,301.514,0.0,10.0,10.0,28.0,1.0,1.4,0.7,Time
,,S59,1,男,20,anonymized,Serial_Dependence_U,2023.2.3,Win32,166.66666666666666,,,,,,301.5144000000954,277.0,0.0,301.5144000000954,277.0,,,,305.0631000001431,305.5616000001432,304.5621000001431,305.063,302.5196000001431,304.5621000001431,305.5616000001432,306.063,306.063,310.6237999999523,3269.0,310.6237999999523,5.0,311.6247999999523,0.0,11.0,11.0,16.0,1.0,1.0,0.7,Time
,,S59,1,男,20,anonymized,Serial_Dependence_U,2023.2.3,Win32,166.66666666666666,,,,,,311.625,256.0,0.0,311.6251000001431,256.0,,,,314.9766000001431,315.4727999999524,314.46970000004774,314.9766000001431,312.63820000004773,314.46970000004774,315.4727999999524,315.97270000004767,315.97270000004767,319.133600000143,3136.0,319.133600000143,5.0,320.1294000000954,0.0,12.0,12.0,5.0,1.0,0.8,0.7,Time
,,S59,1,男,20,anonymized,Serial_Dependence_U,2023.2.3,Win32,166.66666666666666,,,,,,320.1297999999523,200.0,0.0,320.1297999999523,200.0,,,,323.50160000014307,323.99870000004773,322.998600000143,323.50160000014307,321.1259000000954,322.998600000143,323.99870000004773,324.4967999999524,324.4967999999524,328.1007000000477,3267.0,328.1007999999523,5.0,329.10290000009536,0.0,13.0,13.0,10.0,1.0,0.8,0.3,Time
,,S59,1,男,20,anonymized,Serial_Dependence_U,2023.2.3,Win32,166.66666666666666,,,,,,329.1032999999524,264.0,0.0,329.1032999999524,264.0,,,,332.87350000000004,333.37270000004776,332.3706000001431,332.87350000000004,330.1059000000954,332.3705,333.37279999995235,333.8706000001431,333.8706000001431,337.731,3558.0,337.731,5.0,338.72860000014305,0.0,14.0,14.0,2.0,1.0,1.2,0.3,Time
,,S59,1,男,20,anonymized,Serial_Dependence_U,2023.2.3,Win32,166.66666666666666,,,,,,338.72900000000004,311.0,0.0,338.72910000014303,311.0,,,,342.70950000000005,343.2064000000954,342.2072000000477,342.70950000000005,339.7359000000954,342.2071000001431,343.2065,343.7077999999524,343.7079000000954,347.73270000004766,3748.0,347.73270000004766,5.0,348.72910000014303,0.0,15.0,15.0,13.0,1.0,1.4,0.3,Time
,,S59,1,男,20,anonymized,Serial_Dependence_U,2023.2.3,Win32,166.66666666666666,,,,,,348.72940000009544,72.0,0.0,348.72940000009544,72.0,,,,352.30520000004776,352.8047999999524,351.7982000000477,352.30510000014306,349.7325000000001,351.7982000000477,352.8047999999524,353.30079999995235,353.30079999995235,356.9667999999523,3618.0,356.9667999999523,5.0,357.95990000009544,0.0,16.0,16.0,11.0,1.0,1.0,0.3,Time
,,S59,1,男,20,anonymized,Serial_Dependence_U,2023.2.3,Win32,166.66666666666666,,,,,,357.96010000014303,58.0,0.0,357.96020000004773,58.0,,,,361.9317000000477,362.4291000001431,361.42629999995233,361.931600000143,358.9624000000954,361.42629999995233,362.4291000001431,362.92990000009536,362.92990000009536,367.0902000000477,4008.0,367.0902000000477,5.0,368.0921000001431,0.0,17.0,17.0,23.0,1.0,1.4,0.3,Time
,,S59,1,男,20,anonymized,Serial_Dependence_U,2023.2.3,Win32,166.66666666666666,,,,,,368.0925,229.0,0.0,368.0926000001431,229.0,,,,371.4396000001431,371.9432999999524,370.9390000000001,371.43950000000007,369.10290000009536,370.9390000000001,371.9432999999524,372.4415,372.4415,375.0624000000954,2609.0,375.0624000000954,5.0,376.06500000000005,0.0,18.0,18.0,15.0,1.0,0.8,0.7,Time
,,S59,1,男,20,anonymized,Serial_Dependence_U,2023.2.3,Win32,166.66666666666666,,,,,,376.0651000001431,355.0,0.0,376.06520000004775,355.0,,,,379.4119000000954,379.9082999999523,378.9044000000954,379.4119000000954,377.071,378.9044000000954,379.9082999999523,380.4096000001431,380.4097000000477,383.716,3085.0,383.716,5.0,384.7077000000477,0.0,19.0,19.0,25.0,1.0,0.8,0.7,Time
,,S59,1,男,20,anonymized,Serial_Dependence_U,2023.2.3,Win32,166.66666666666666,,,,,,384.7081000001431,321.0,0.0,384.70820000004767,321.0,,,,388.28040000009537,388.778,387.777,388.28040000009537,385.7116000001431,387.777,388.7781000001431,389.28520000004767,389.28520000004767,392.7892000000477,3352.0,392.7892000000477,5.0,393.7939000000954,0.0,20.0,20.0,21.0,1.0,1.0,0.3,Time
,,S59,1,男,20,anonymized,Serial_Dependence_U,2023.2.3,Win32,166.66666666666666,,,,,,393.7941000001431,8.0,0.0,393.7942000000477,8.0,,,,397.1689000000954,397.6647000000477,396.66629999995234,397.1687999999523,394.801,396.6661000001431,397.6647000000477,398.16540000009536,398.16550000000007,402.40140000009535,3229.0,402.40140000009535,5.0,403.3932999999523,0.0,21.0,21.0,20.0,1.0,0.8,0.3,Time
,,S59,1,男,20,anonymized,Serial_Dependence_U,2023.2.3,Win32,166.66666666666666,,,,,,403.3936000001431,172.0,0.0,403.3937000000477,172.0,,,,407.5729000000954,408.072,407.06579999995233,407.5727999999524,404.4037999999523,407.06579999995233,408.0721000001431,408.5715,408.5716000001431,412.6384000000954,3630.0,412.6384000000954,5.0,413.6342999999523,0.0,22.0,22.0,4.0,1.0,1.6,0.3,Time
,,S59,1,男,20,anonymized,Serial_Dependence_U,2023.2.3,Win32,166.66666666666666,,,,,,413.6346000001431,239.0,0.0,413.6347000000477,239.0,,,,417.19520000004775,417.69079999995233,416.6815,417.19520000004775,414.6437000000477,416.68129999995233,417.691,418.1897000000477,418.1897999999524,422.78179999995234,3492.0,422.78179999995234,5.0,423.7786000001431,0.0,23.0,23.0,6.0,1.0,1.0,0.7,Time
,,S59,1,男,20,anonymized,Serial_Dependence_U,2023.2.3,Win32,166.66666666666666,,,,,,423.7787999999523,252.0,0.0,423.7789000000954,252.0,,,,427.92550000000006,428.422,427.4237000000477,427.9252999999524,424.78760000014313,427.4236000001431,428.422,428.91970000004767,428.9197999999524,433.0067999999524,3552.0,433.00690000009536,5.0,434.0089000000954,0.0,24.0,24.0,9.0,1.0,1.6,0.7,Time
,,S59,1,男,20,anonymized,Serial_Dependence_U,2023.2.3,Win32,166.66666666666666,,,,,,434.0092000000477,145.0,0.0,434.0092999999523,145.0,,,,437.9476000001431,438.4462999999523,437.4425,437.9475,435.0091000001431,437.4425,438.4462999999523,438.9471000001431,438.9472000000477,443.0436000001431,3588.0,443.0437000000477,5.0,444.0377000000477,0.0,25.0,25.0,18.0,1.0,1.4,0.7,Time
,,S59,1,男,20,anonymized,Serial_Dependence_U,2023.2.3,Win32,166.66666666666666,,,,,,444.0379000000954,328.0,0.0,444.0381000001431,328.0,,,,447.61820000004775,448.1141000001432,447.1105,447.61820000004775,445.0452999999524,447.1105,448.1142000000477,448.60800000000006,448.6081000001431,451.7447000000477,2864.0,451.7447000000477,5.0,452.7465000000001,0.0,26.0,26.0,1.0,1.0,1.0,0.3,Time
,,S59,1,男,20,anonymized,Serial_Dependence_U,2023.2.3,Win32,166.66666666666666,,,,,,452.7467999999524,227.0,0.0,452.74700000000007,227.0,,,,456.4972999999524,456.9987999999523,455.9916000001431,456.4972999999524,453.75240000009546,455.9914000000954,456.9987999999523,457.4995,457.4996000001431,461.7164000000954,3381.0,461.7165,5.0,462.7122000000477,0.0,27.0,27.0,17.0,1.0,1.2,0.7,Time
,,S59,1,男,20,anonymized,Serial_Dependence_U,2023.2.3,Win32,166.66666666666666,,,,,,462.7125000000001,139.0,0.0,462.7127000000478,139.0,,,,466.8900000000001,467.3896000001431,466.3832000000477,466.8899000000954,463.7136000001431,466.3832000000477,467.3896000001431,467.8876000001432,467.8877000000477,472.711,4291.0,472.711,5.0,473.7127999999524,0.0,28.0,28.0,14.0,1.0,1.6,0.3,Time
,,S59,1,男,20,anonymized,Serial_Dependence_U,2023.2.3,Win32,166.66666666666666,,,,,,473.7129000000954,108.0,0.0,473.7130000000001,108.0,,,,477.2625000000001,477.7632000000477,476.7569000000954,477.2625000000001,474.7206000001431,476.7569000000954,477.7632000000477,478.2596000001431,478.2596000001431,481.8267000000477,3107.0,481.8267000000477,5.0,482.8276000001431,0.0,29.0,29.0,26.0,1.0,1.0,0.7,Time
,,S59,1,男,20,anonymized,Serial_Dependence_U,2023.2.3,Win32,166.66666666666666,,,,,,482.8280000000001,306.0,1.0,502.4419000000954,306.0,s,19.598199999809367,,506.2101000001432,506.7080000000001,505.7077999999524,506.21,503.4425,505.7077999999524,506.7080000000001,507.2051000001432,507.2052000000477,511.86770000004776,4004.0,511.86770000004776,5.0,511.87190000009537,1.0,0.0,30.0,12.0,1.0,1.2,0.3,Time
,,S59,1,男,20,anonymized,Serial_Dependence_U,2023.2.3,Win32,166.66666666666666,,,,,,511.8721000001431,190.0,1.0,511.87270000004776,190.0,,,,515.843600000143,516.3422999999524,515.3414000000954,515.843600000143,512.8762999999524,515.3412999999524,516.3424000000954,516.8397000000477,516.8397000000477,517.2447999999524,9.0,517.2447999999524,1.0,517.2494000000954,1.0,1.0,31.0,3.0,1.0,1.4,0.3,Time
,,S59,1,男,20,anonymized,Serial_Dependence_U,2023.2.3,Win32,166.66666666666666,,,,,,517.2496000001431,220.0,1.0,517.2496000001431,220.0,,,,520.9909000000954,521.4916000001431,520.4892999999523,520.9909000000954,518.2507999999524,520.4892999999523,521.4916000001431,521.9894000000954,521.9895,525.7851000001431,3540.0,525.7852000000478,5.0,525.7897999999524,1.0,2.0,32.0,7.0,1.0,1.2,0.7,Time
,,S59,1,男,20,anonymized,Serial_Dependence_U,2023.2.3,Win32,166.66666666666666,,,,,,525.7900000000001,282.0,1.0,525.7900000000001,282.0,,,,529.3374000000954,529.8371000001431,528.8329000000954,529.3372999999524,526.7992000000478,528.8327999999524,529.8371000001431,530.3380000000001,530.3381000001431,534.3797000000477,3597.0,534.3797000000477,5.0,534.3842000000477,1.0,3.0,33.0,6.0,1.0,1.0,0.7,Time
,,S59,1,男,20,anonymized,Serial_Dependence_U,2023.2.3,Win32,166.66666666666666,,,,,,534.3844000000954,338.0,1.0,534.3844000000954,338.0,,,,538.3401000001431,538.8362000000477,537.839100000143,538.3401000001431,535.3964000000955,537.839,538.8362999999524,539.3347000000477,539.3347999999523,543.3925,3503.0,543.3926000001431,5.0,543.3991000001431,1.0,4.0,34.0,18.0,1.0,1.4,0.7,Time
,,S59,1,男,20,anonymized,Serial_Dependence_U,2023.2.3,Win32,166.66666666666666,,,,,,543.3997999999524,286.0,1.0,543.4000000000001,286.0,,,,546.988100000143,547.4859000000954,546.4792000000477,546.988100000143,544.4074000000954,546.4792000000477,547.4860000000001,547.9872999999524,547.9872999999524,552.0009000000954,3559.0,552.0010000000001,5.0,552.0055000000001,1.0,5.0,35.0,1.0,1.0,1.0,0.3,Time
,,S59,1,男,20,anonymized,Serial_Dependence_U,2023.2.3,Win32,166.66666666666666,,,,,,552.0057000000477,144.0,1.0,552.0057000000477,144.0,,,,555.3452999999523,555.8432000000478,554.8422999999524,555.3452999999523,553.0091000001431,554.8422999999524,555.8432000000478,556.3435000000001,556.343600000143,559.8987999999524,2876.0,559.8987999999524,5.0,559.9032999999524,1.0,6.0,36.0,5.0,1.0,0.8,0.7,Time
,,S59,1,男,20,anonymized,Serial_Dependence_U,2023.2.3,Win32,166.66666666666666,,,,,,559.9035,71.0,1.0,559.9035,71.0,,,,563.4839000000954,563.9832999999524,562.9801000001431,563.4837999999523,560.912,562.9801000001431,563.9834000000955,564.4862999999524,564.4862999999524,568.4352999999523,3440.0,568.4352999999523,5.0,568.4397000000478,1.0,7.0,37.0,21.0,1.0,1.0,0.3,Time
,,S59,1,男,20,anonymized,Serial_Dependence_U,2023.2.3,Win32,166.66666666666666,,,,,,568.4397999999524,2.0,1.0,568.4399000000955,2.0,,,,572.215,572.7101000001431,571.7122000000477,572.2149000000954,569.4435000000001,571.7121000001431,572.7102000000477,573.2116000001431,573.2116000001431,577.7472999999524,3668.0,577.7474000000955,5.0,577.7516000001431,1.0,8.0,38.0,2.0,1.0,1.2,0.3,Time
,,S59,1,男,20,anonymized,Serial_Dependence_U,2023.2.3,Win32,166.66666666666666,,,,,,577.7517999999524,284.0,1.0,577.7517999999524,284.0,,,,581.1259000000954,581.6222000000478,580.6115000000001,581.1259000000954,578.7505000000001,580.6115000000001,581.6222000000478,582.1222999999524,582.1222999999524,585.3087000000477,2580.0,585.3087999999524,5.0,585.3130000000001,1.0,9.0,39.0,10.0,1.0,0.8,0.3,Time
,,S59,1,男,20,anonymized,Serial_Dependence_U,2023.2.3,Win32,166.66666666666666,,,,,,585.3132000000477,149.0,1.0,585.3132000000477,149.0,,,,589.2935000000001,589.7899000000954,588.7909000000955,589.2935000000001,586.3187999999524,588.7907999999524,589.7900000000001,590.2894000000954,590.2894000000954,594.6682000000477,3799.0,594.6682000000477,5.0,594.6725,1.0,10.0,40.0,23.0,1.0,1.4,0.3,Time
,,S59,1,男,20,anonymized,Serial_Dependence_U,2023.2.3,Win32,166.66666666666666,,,,,,594.6727999999524,228.0,1.0,594.673,228.0,,,,598.2497000000477,598.7485,597.7420000000001,598.2496000001431,595.6774000000954,597.7420000000001,598.7485,599.2481000001432,599.2481000001432,603.4299000000955,3588.0,603.4299000000955,5.0,603.4347000000478,1.0,11.0,41.0,11.0,1.0,1.0,0.3,Time
,,S59,1,男,20,anonymized,Serial_Dependence_U,2023.2.3,Win32,166.66666666666666,,,,,,603.4347999999524,221.0,1.0,603.4349000000955,221.0,,,,607.5780000000001,608.0777999999524,607.0772999999524,607.5779000000954,604.4411000001431,607.0772000000477,608.0777999999524,608.575,608.575,612.6521000001432,3606.0,612.6522000000477,5.0,612.6579000000954,1.0,12.0,42.0,9.0,1.0,1.6,0.7,Time
,,S59,1,男,20,anonymized,Serial_Dependence_U,2023.2.3,Win32,166.66666666666666,,,,,,612.6582999999524,326.0,1.0,612.6584000000954,326.0,,,,616.0029000000955,616.5002999999524,615.4970000000001,616.0027999999523,613.6645000000001,615.4969000000954,616.5002999999524,616.9932999999523,616.9934000000954,620.0352000000478,2572.0,620.0352999999524,5.0,620.0397000000478,1.0,13.0,43.0,25.0,1.0,0.8,0.7,Time
,,S59,1,男,20,anonymized,Serial_Dependence_U,2023.2.3,Win32,166.66666666666666,,,,,,620.0397999999524,96.0,1.0,620.0399000000954,96.0,,,,623.9877000000478,624.4877000000478,623.4795,623.9877000000478,621.0447999999524,623.4795,624.4877000000478,624.9842999999523,624.9842999999523,629.5682999999524,3932.0,629.5682999999524,5.0,629.5727000000477,1.0,14.0,44.0,28.0,1.0,1.4,0.7,Time
,,S59,1,男,20,anonymized,Serial_Dependence_U,2023.2.3,Win32,166.66666666666666,,,,,,629.5730000000001,13.0,1.0,629.5730000000001,13.0,,,,633.5436000001431,634.0426000001431,633.0390000000001,633.5435000000001,630.5772999999524,633.0389000000954,634.0426000001431,634.5422999999523,634.5424000000954,639.0735000000001,4082.0,639.0735000000001,5.0,639.0780000000001,1.0,15.0,45.0,13.0,1.0,1.4,0.3,Time
,,S59,1,男,20,anonymized,Serial_Dependence_U,2023.2.3,Win32,166.66666666666666,,,,,,639.0782000000478,3.0,1.0,639.0782000000478,3.0,,,,642.4487000000478,642.9472999999524,641.9474000000954,642.4486000001431,640.0762000000477,641.9474000000954,642.9474000000954,643.4492000000478,643.4492999999524,646.7941000001431,2913.0,646.7942000000477,5.0,646.7986000001431,1.0,16.0,46.0,0.0,1.0,0.8,0.3,Time
,,S59,1,男,20,anonymized,Serial_Dependence_U,2023.2.3,Win32,166.66666666666666,,,,,,646.7987000000477,179.0,1.0,646.7987999999524,179.0,,,,650.9707000000477,651.4666000001431,650.4674000000954,650.9707000000477,647.807,650.4674000000954,651.4666000001431,651.9627999999524,651.9627999999524,656.2216000001431,3856.0,656.2216000001431,5.0,656.2262999999524,1.0,17.0,47.0,14.0,1.0,1.6,0.3,Time
,,S59,1,男,20,anonymized,Serial_Dependence_U,2023.2.3,Win32,166.66666666666666,,,,,,656.2265000000001,55.0,1.0,656.2266000001431,55.0,,,,660.3985,660.8960000000001,659.8949000000954,660.3985,657.2287999999523,659.8949000000954,660.8961000001431,661.3926000001431,661.3927000000477,666.4787000000478,4694.0,666.4787999999523,5.0,666.4832999999524,1.0,18.0,48.0,4.0,1.0,1.6,0.3,Time
,,S59,1,男,20,anonymized,Serial_Dependence_U,2023.2.3,Win32,166.66666666666666,,,,,,666.4836000001432,163.0,1.0,666.4836000001432,163.0,,,,669.8282000000478,670.3242000000478,669.3234000000954,669.8281000001431,667.4872999999524,669.3234000000954,670.3242000000478,670.8222000000477,670.8222999999524,674.3147000000478,2892.0,674.3147000000478,5.0,674.3195000000001,1.0,19.0,49.0,15.0,1.0,0.8,0.7,Time
,,S59,1,男,20,anonymized,Serial_Dependence_U,2023.2.3,Win32,166.66666666666666,,,,,,674.3197000000478,191.0,1.0,674.3197000000478,191.0,,,,678.2699000000954,678.7662999999524,677.7671000001432,678.2699000000954,675.3302000000477,677.767,678.7664000000955,679.2642000000477,679.2642000000477,683.3505,3743.0,683.3505,5.0,683.3552000000477,1.0,20.0,50.0,8.0,1.0,1.4,0.7,Time
,,S59,1,男,20,anonymized,Serial_Dependence_U,2023.2.3,Win32,166.66666666666666,,,,,,683.3554000000954,251.0,1.0,683.3554000000954,251.0,,,,686.8952000000477,687.3931000001431,686.3927000000477,686.8951000001431,684.3610000000001,686.3927000000477,687.3931000001431,687.8887000000477,687.8887999999523,691.9939000000954,3406.0,691.9939000000954,5.0,691.9985,1.0,21.0,51.0,16.0,1.0,1.0,0.7,Time
,,S59,1,男,20,anonymized,Serial_Dependence_U,2023.2.3,Win32,166.66666666666666,,,,,,691.9987000000477,149.0,1.0,691.9987000000477,149.0,,,,695.7452000000477,696.2459000000954,695.2357000000477,695.7452000000477,693.0047999999524,695.2356000001431,696.2460000000001,696.7469000000954,696.7470000000001,700.6046000001431,3545.0,700.6047000000477,5.0,700.6091000001431,1.0,22.0,52.0,27.0,1.0,1.2,0.7,Time
,,S59,1,男,20,anonymized,Serial_Dependence_U,2023.2.3,Win32,166.66666666666666,,,,,,700.6092000000477,298.0,1.0,700.6092000000477,298.0,,,,704.35,704.8492000000477,703.8421000001431,704.35,701.609,703.8421000001431,704.8492999999523,705.3470000000001,705.3470000000001,709.5961000001431,3719.0,709.5961000001431,5.0,709.6006000001431,1.0,23.0,53.0,17.0,1.0,1.2,0.7,Time
,,S59,1,男,20,anonymized,Serial_Dependence_U,2023.2.3,Win32,166.66666666666666,,,,,,709.6007999999524,73.0,1.0,709.6007999999524,73.0,,,,713.1317999999524,713.6301000001431,712.6312999999524,713.1317000000478,710.5987000000478,712.6312000000478,713.6301000001431,714.1314000000954,714.1315000000001,717.6350000000001,3033.0,717.6350000000001,5.0,717.6394000000954,1.0,24.0,54.0,26.0,1.0,1.0,0.7,Time
,,S59,1,男,20,anonymized,Serial_Dependence_U,2023.2.3,Win32,166.66666666666666,,,,,,717.6396000001431,67.0,1.0,717.6397000000477,67.0,,,,721.8061000001431,722.3062000000477,721.3057999999523,721.806,718.6445000000001,721.3057000000478,722.3062000000477,722.8065,722.8066000001431,727.0562999999523,3820.0,727.0562999999523,5.0,727.0607000000477,1.0,25.0,55.0,24.0,1.0,1.6,0.3,Time
,,S59,1,男,20,anonymized,Serial_Dependence_U,2023.2.3,Win32,166.66666666666666,,,,,,727.0609000000954,265.0,1.0,727.061,265.0,,,,730.8292000000478,731.3272999999524,730.326,730.8292000000478,728.0607000000477,730.3259000000954,731.3272999999524,731.8290000000001,731.8290000000001,735.7105,3226.0,735.7105,5.0,735.7152000000477,1.0,26.0,56.0,22.0,1.0,1.2,0.3,Time
,,S59,1,男,20,anonymized,Serial_Dependence_U,2023.2.3,Win32,166.66666666666666,,,,,,735.7154000000954,146.0,1.0,735.7154000000954,146.0,,,,739.8652999999524,740.3637999999523,739.3612999999524,739.8652000000477,736.7232000000478,739.3612999999524,740.3639000000954,740.86,740.86,744.7781000001431,3519.0,744.7782000000477,5.0,744.7827000000477,1.0,27.0,57.0,19.0,1.0,1.6,0.7,Time
,,S59,1,男,20,anonymized,Serial_Dependence_U,2023.2.3,Win32,166.66666666666666,,,,,,744.7831000001431,201.0,1.0,744.7832000000477,201.0,,,,748.9227999999524,749.4202000000478,748.4192999999524,748.9227000000477,745.783,748.4192999999524,749.4202999999524,749.9172999999523,749.9172999999523,754.2157000000477,4154.0,754.2157000000477,5.0,754.2202999999523,1.0,28.0,58.0,29.0,1.0,1.6,0.7,Time
,,S59,1,男,20,anonymized,Serial_Dependence_U,2023.2.3,Win32,166.66666666666666,,,,,,754.2205,296.0,1.0,754.2205,296.0,,,,757.5912000000477,758.0912999999524,757.0889000000955,757.5912000000477,755.2267000000477,757.0887999999524,758.0912999999524,758.5917999999524,758.5919000000954,762.6042999999523,3468.0,762.6042999999523,5.0,762.6091000001431,1.0,29.0,59.0,20.0,1.0,0.8,0.3,Time
,,S59,1,男,20,anonymized,Serial_Dependence_U,2023.2.3,Win32,166.66666666666666,,,,,,762.6094000000954,85.0,2.0,811.4549000000954,85.0,s,48.83809999990467,,815.6282999999523,816.1269000000955,815.1251000001431,815.6282999999523,812.4589000000955,815.1251000001431,816.1270000000001,816.6285,816.6286000001431,821.6511000001431,4454.0,821.6511000001431,5.0,821.6555000000001,2.0,0.0,60.0,24.0,1.0,1.6,0.3,Time
,,S59,1,男,20,anonymized,Serial_Dependence_U,2023.2.3,Win32,166.66666666666666,,,,,,821.6557000000478,310.0,2.0,821.6562999999524,310.0,,,,825.8112000000477,826.3105,825.3044000000954,825.8112000000477,822.6600000000001,825.3044000000954,826.3106000001432,826.8081000001431,826.8081000001431,831.0602999999523,3577.0,831.0602999999523,5.0,831.0647999999524,2.0,1.0,61.0,9.0,1.0,1.6,0.7,Time
,,S59,1,男,20,anonymized,Serial_Dependence_U,2023.2.3,Win32,166.66666666666666,,,,,,831.065,253.0,2.0,831.065100000143,253.0,,,,834.4381000001431,834.9386000001431,833.9342999999524,834.4380000000001,832.0695000000001,833.9342999999524,834.9386000001431,835.4371000001431,835.4371000001431,838.7315000000001,2799.0,838.7315000000001,5.0,838.7359000000954,2.0,2.0,62.0,10.0,1.0,0.8,0.3,Time
,,S59,1,男,20,anonymized,Serial_Dependence_U,2023.2.3,Win32,166.66666666666666,,,,,,838.7360000000001,221.0,2.0,838.7361000001431,221.0,,,,842.0827000000477,842.5821000001431,841.5740000000001,842.0826000001431,839.7432000000478,841.5740000000001,842.5821000001431,843.0817999999524,843.0817999999524,846.5922999999524,3019.0,846.5922999999524,5.0,846.5967999999524,2.0,3.0,63.0,5.0,1.0,0.8,0.7,Time
,,S59,1,男,20,anonymized,Serial_Dependence_U,2023.2.3,Win32,166.66666666666666,,,,,,846.5970000000001,156.0,2.0,846.5970000000001,156.0,,,,849.9796000001431,850.4765000000001,849.4671000001431,849.9796000001431,847.6056000001431,849.4670000000001,850.4765000000001,850.9765000000001,850.9766000001431,854.8895,3386.0,854.8895,5.0,854.8942000000477,2.0,4.0,64.0,0.0,1.0,0.8,0.3,Time
,,S59,1,男,20,anonymized,Serial_Dependence_U,2023.2.3,Win32,166.66666666666666,,,,,,854.8944000000954,277.0,2.0,854.8945000000001,277.0,,,,859.0682000000477,859.5641000001431,858.5612999999523,859.0680000000001,855.8971000001432,858.5611000001431,859.5641000001431,860.0656000001431,860.0656000001431,864.1074000000954,3411.0,864.1075000000001,5.0,864.1117999999524,2.0,5.0,65.0,14.0,1.0,1.6,0.3,Time
,,S59,1,男,20,anonymized,Serial_Dependence_U,2023.2.3,Win32,166.66666666666666,,,,,,864.1120000000001,177.0,2.0,864.1121000001431,177.0,,,,867.8669000000954,868.3667999999524,867.3610000000001,867.8667999999524,865.1192999999523,867.3610000000001,868.3669000000954,868.8662000000477,868.8662000000477,872.7174000000954,3509.0,872.7175000000001,5.0,872.7217999999524,2.0,6.0,66.0,7.0,1.0,1.2,0.7,Time
,,S59,1,男,20,anonymized,Serial_Dependence_U,2023.2.3,Win32,166.66666666666666,,,,,,872.7221000001431,75.0,2.0,872.7222000000478,75.0,,,,876.8960000000001,877.3926000001431,876.3892000000477,876.8959000000954,873.7227999999524,876.3892000000477,877.3926000001431,877.8917000000478,877.8917000000478,882.2320000000001,3850.0,882.2320000000001,5.0,882.2366000001431,2.0,7.0,67.0,4.0,1.0,1.6,0.3,Time
,,S59,1,男,20,anonymized,Serial_Dependence_U,2023.2.3,Win32,166.66666666666666,,,,,,882.2367000000478,161.0,2.0,882.2367999999524,161.0,,,,885.8141000001431,886.3097999999524,885.3080000000001,885.8140000000001,883.2420000000001,885.3080000000001,886.3099000000955,886.8080000000001,886.8080000000001,890.4156000001431,3108.0,890.4156000001431,5.0,890.4200000000001,2.0,8.0,68.0,11.0,1.0,1.0,0.3,Time
,,S59,1,男,20,anonymized,Serial_Dependence_U,2023.2.3,Win32,166.66666666666666,,,,,,890.4202000000478,98.0,2.0,890.4202000000478,98.0,,,,894.4031000001431,894.9047000000477,893.8942999999524,894.403,891.4281000001431,893.8942999999524,894.9047000000477,895.4022999999523,895.4024000000954,899.5434000000954,3646.0,899.5435000000001,5.0,899.5479000000954,2.0,9.0,69.0,3.0,1.0,1.4,0.3,Time
,,S59,1,男,20,anonymized,Serial_Dependence_U,2023.2.3,Win32,166.66666666666666,,,,,,899.5481000001431,339.0,2.0,899.5481000001431,339.0,,,,903.4952999999524,903.9944000000954,902.9889000000954,903.4952999999524,900.5514000000954,902.9887999999524,903.9944000000954,904.4916000001432,904.4917000000478,909.2821000001431,4296.0,909.2821000001431,5.0,909.2865,2.0,10.0,70.0,28.0,1.0,1.4,0.7,Time
,,S59,1,男,20,anonymized,Serial_Dependence_U,2023.2.3,Win32,166.66666666666666,,,,,,909.2866000001432,226.0,2.0,909.2867999999524,226.0,,,,912.8252000000476,913.3262000000476,912.3202999999525,912.8252000000476,910.2852000000478,912.3202999999525,913.3262000000476,913.8252000000476,913.8254000000954,917.844,3580.0,917.844,5.0,917.8484000000956,2.0,11.0,71.0,26.0,1.0,1.0,0.7,Time
,,S59,1,男,20,anonymized,Serial_Dependence_U,2023.2.3,Win32,166.66666666666666,,,,,,917.8485,291.0,2.0,917.848600000143,291.0,,,,921.6232000000476,922.12,921.1197999999524,921.6231000001432,918.8515,921.1197000000476,922.12,922.6207000000476,922.6207000000476,926.5357999999524,3375.0,926.5357999999524,5.0,926.5407000000478,2.0,12.0,72.0,12.0,1.0,1.2,0.3,Time
,,S59,1,男,20,anonymized,Serial_Dependence_U,2023.2.3,Win32,166.66666666666666,,,,,,926.5409000000956,42.0,2.0,926.541,42.0,,,,930.286,930.786,929.7845,930.286,927.5509000000956,929.7845,930.786,931.2876000001432,931.2876000001432,936.2604000000954,3391.0,936.2604000000954,5.0,936.2649000000954,2.0,13.0,73.0,27.0,1.0,1.2,0.7,Time
,,S59,1,男,20,anonymized,Serial_Dependence_U,2023.2.3,Win32,166.66666666666666,,,,,,936.265,54.0,2.0,936.2651000001432,54.0,,,,940.4121000001433,940.9082999999524,939.9087999999524,940.4121000001433,937.2726000001433,939.9086000001432,940.9082999999524,941.4102000000478,941.4102000000478,945.354,3410.0,945.354,5.0,945.3585,2.0,14.0,74.0,29.0,1.0,1.6,0.7,Time
,,S59,1,男,20,anonymized,Serial_Dependence_U,2023.2.3,Win32,166.66666666666666,,,,,,945.3587000000476,30.0,2.0,945.3587000000476,30.0,,,,948.9292999999524,949.4257999999523,948.4259000000956,948.9292999999524,946.3632000000478,948.4257999999523,949.4259000000956,949.9217000000476,949.9217000000476,954.2927000000476,3678.0,954.2927000000476,5.0,954.2977999999524,2.0,15.0,75.0,21.0,1.0,1.0,0.3,Time
,,S59,1,男,20,anonymized,Serial_Dependence_U,2023.2.3,Win32,166.66666666666666,,,,,,954.298,128.0,2.0,954.2981000001432,128.0,,,,958.0787999999524,958.5747999999523,957.5707999999524,958.0787000000478,955.3036000001432,957.5707999999524,958.5747999999523,959.0745,959.074600000143,963.5082000000476,3093.0,963.5082000000476,5.0,963.5127000000476,2.0,16.0,76.0,22.0,1.0,1.2,0.3,Time
,,S59,1,男,20,anonymized,Serial_Dependence_U,2023.2.3,Win32,166.66666666666666,,,,,,963.513,328.0,2.0,963.513,328.0,,,,967.4836000001432,967.9794000000952,966.9797000000476,967.4835000000002,964.509,966.979600000143,967.9794000000952,968.4762000000476,968.4762999999524,972.4111000001432,3480.0,972.4111000001432,5.0,972.4157999999524,2.0,17.0,77.0,13.0,1.0,1.4,0.3,Time
,,S59,1,男,20,anonymized,Serial_Dependence_U,2023.2.3,Win32,166.66666666666666,,,,,,972.416,272.0,2.0,972.416100000143,272.0,,,,975.7899000000954,976.2859000000956,975.2834000000954,975.7899000000954,973.4199000000956,975.2834000000954,976.286,976.7857999999524,976.7859000000956,980.0594000000956,2679.0,980.0594000000956,5.0,980.0642999999524,2.0,18.0,78.0,20.0,1.0,0.8,0.3,Time
,,S59,1,男,20,anonymized,Serial_Dependence_U,2023.2.3,Win32,166.66666666666666,,,,,,980.0644000000954,117.0,2.0,980.0645,117.0,,,,984.218,984.7145000000002,983.709,984.218,981.0687000000476,983.709,984.7145000000002,985.213,985.2131000001432,989.3931000001432,3751.0,989.3931000001432,5.0,989.398,2.0,19.0,79.0,19.0,1.0,1.6,0.7,Time
,,S59,1,男,20,anonymized,Serial_Dependence_U,2023.2.3,Win32,166.66666666666666,,,,,,989.3982000000476,160.0,2.0,989.3982999999524,160.0,,,,993.3737000000476,993.871,992.8667000000476,993.3737000000476,990.4045,992.8667000000476,993.8711000001432,994.3697000000478,994.3697000000478,998.1401000001432,3444.0,998.1401000001432,5.0,998.1446000001432,2.0,20.0,80.0,23.0,1.0,1.4,0.3,Time
,,S59,1,男,20,anonymized,Serial_Dependence_U,2023.2.3,Win32,166.66666666666666,,,,,,998.1447999999524,328.0,2.0,998.1447999999524,328.0,,,,1001.9255,1002.425,1001.42,1001.9255,999.1476000001433,1001.4199000000956,1002.425,1002.925,1002.9251000001432,1006.62,3366.0,1006.62,5.0,1006.6249000000954,2.0,21.0,81.0,2.0,1.0,1.2,0.3,Time
,,S59,1,男,20,anonymized,Serial_Dependence_U,2023.2.3,Win32,166.66666666666666,,,,,,1006.6251000001432,227.0,2.0,1006.6251000001432,227.0,,,,1009.9634000000956,1010.4595,1009.4544000000956,1009.9634000000956,1007.6197999999524,1009.4544000000956,1010.4595,1010.9571000001432,1010.9571000001432,1014.1206000001432,2729.0,1014.1206000001432,5.0,1014.1247000000476,2.0,22.0,82.0,15.0,1.0,0.8,0.7,Time
,,S59,1,男,20,anonymized,Serial_Dependence_U,2023.2.3,Win32,166.66666666666666,,,,,,1014.1249000000954,78.0,2.0,1014.1249000000954,78.0,,,,1017.4769000000956,1017.975,1016.9645000000002,1017.4767999999524,1015.129100000143,1016.9645000000002,1017.975100000143,1018.4765,1018.4765,1022.0742999999524,2905.0,1022.0742999999524,5.0,1022.0789000000954,2.0,23.0,83.0,25.0,1.0,0.8,0.7,Time
,,S59,1,男,20,anonymized,Serial_Dependence_U,2023.2.3,Win32,166.66666666666666,,,,,,1022.079,36.0,2.0,1022.0792000000478,36.0,,,,1025.8324000000953,1026.329100000143,1025.326100000143,1025.8324000000953,1023.0886000001432,1025.326100000143,1026.3292000000476,1026.8302999999523,1026.830400000095,1030.7014000000954,3530.0,1030.7014000000954,5.0,1030.7059000000952,2.0,24.0,84.0,17.0,1.0,1.2,0.7,Time
,,S59,1,男,20,anonymized,Serial_Dependence_U,2023.2.3,Win32,166.66666666666666,,,,,,1030.7062000000476,137.0,2.0,1030.7062000000476,137.0,,,,1034.6557000000475,1035.155,1034.1487000000477,1034.6554999999998,1031.716100000143,1034.148600000143,1035.155,1035.6544000000954,1035.6544000000954,1039.8765,3732.0,1039.876600000143,5.0,1039.8814000000953,2.0,25.0,85.0,18.0,1.0,1.4,0.7,Time
,,S59,1,男,20,anonymized,Serial_Dependence_U,2023.2.3,Win32,166.66666666666666,,,,,,1039.8815,83.0,2.0,1039.881600000143,83.0,,,,1043.448600000143,1043.949600000143,1042.944100000143,1043.4485,1040.8805,1042.944100000143,1043.9497000000476,1044.4492000000475,1044.4492000000475,1048.2307999999523,3439.0,1048.2307999999523,5.0,1048.236100000143,2.0,26.0,86.0,1.0,1.0,1.0,0.3,Time
,,S59,1,男,20,anonymized,Serial_Dependence_U,2023.2.3,Win32,166.66666666666666,,,,,,1048.2362000000476,216.0,2.0,1048.2362999999525,216.0,,,,1051.7887999999523,1052.2804000000954,1051.2872000000475,1051.7887999999523,1049.2414000000954,1051.2872000000475,1052.2804999999998,1052.7782000000475,1052.7782999999522,1056.743600000143,3420.0,1056.7437000000475,5.0,1056.748,2.0,27.0,87.0,6.0,1.0,1.0,0.7,Time
,,S59,1,男,20,anonymized,Serial_Dependence_U,2023.2.3,Win32,166.66666666666666,,,,,,1056.7482000000475,267.0,2.0,1056.7482000000475,267.0,,,,1060.2844000000953,1060.782600000143,1059.7817999999522,1060.2844000000953,1057.7454000000953,1059.7817999999522,1060.782600000143,1061.284100000143,1061.2842000000476,1064.9634000000954,3006.0,1064.9634999999998,5.0,1064.967799999952,2.0,28.0,88.0,16.0,1.0,1.0,0.7,Time
,,S59,1,男,20,anonymized,Serial_Dependence_U,2023.2.3,Win32,166.66666666666666,,,,,,1064.9679999999998,216.0,2.0,1064.968100000143,216.0,,,,1068.9032999999522,1069.3992000000476,1068.3987000000477,1068.9032000000475,1065.965100000143,1068.398600000143,1069.3992999999523,1069.8957999999525,1069.8957999999525,1073.9125,3507.0,1073.9125,5.0,1073.9172000000476,2.0,29.0,89.0,8.0,1.0,1.4,0.7,Time
,,S59,1,男,20,anonymized,Serial_Dependence_U,2023.2.3,Win32,166.66666666666666,,,,,,1073.9174000000953,315.0,3.0,1139.012,315.0,s,65.08219999980929,,1142.5914000000953,1143.0907000000475,1142.0842000000475,1142.5914000000953,1140.0182999999522,1142.084100000143,1143.0907000000475,1143.588100000143,1143.588100000143,1147.8165,3717.0,1147.8165,5.0,1147.8209000000952,3.0,0.0,90.0,11.0,1.0,1.0,0.3,Time
,,S59,1,男,20,anonymized,Serial_Dependence_U,2023.2.3,Win32,166.66666666666666,,,,,,1147.821100000143,183.0,3.0,1147.8217999999522,183.0,,,,1151.9782999999522,1152.474600000143,1151.4652000000476,1151.9782000000475,1148.8292999999524,1151.4652000000476,1152.474600000143,1152.973100000143,1152.973100000143,1158.214,4229.0,1158.214,5.0,1158.2184000000952,3.0,1.0,91.0,9.0,1.0,1.6,0.7,Time
,,S59,1,男,20,anonymized,Serial_Dependence_U,2023.2.3,Win32,166.66666666666666,,,,,,1158.2187000000476,36.0,3.0,1158.2187000000476,36.0,,,,1162.3665,1162.8677999999522,1161.861100000143,1162.3664000000954,1159.224600000143,1161.861,1162.8677999999522,1163.3649000000953,1163.365,1169.183100000143,4380.0,1169.183100000143,5.0,1169.1879000000954,3.0,2.0,92.0,19.0,1.0,1.6,0.7,Time
,,S59,1,男,20,anonymized,Serial_Dependence_U,2023.2.3,Win32,166.66666666666666,,,,,,1169.188100000143,148.0,3.0,1169.188100000143,148.0,,,,1173.1727999999523,1173.6702999999522,1172.664,1173.1727000000476,1170.198100000143,1172.6637999999523,1173.6702999999522,1174.167100000143,1174.167100000143,1178.2967000000476,3493.0,1178.2967999999523,5.0,1178.3019000000952,3.0,3.0,93.0,3.0,1.0,1.4,0.3,Time
,,S59,1,男,20,anonymized,Serial_Dependence_U,2023.2.3,Win32,166.66666666666666,,,,,,1178.302100000143,115.0,3.0,1178.302100000143,115.0,,,,1181.8864000000954,1182.382900000095,1181.3774000000951,1181.886299999952,1179.306,1181.3774000000951,1182.383,1182.8819999999998,1182.882100000143,1186.213,2658.0,1186.213,5.0,1186.2175,3.0,4.0,94.0,1.0,1.0,1.0,0.3,Time
,,S59,1,男,20,anonymized,Serial_Dependence_U,2023.2.3,Win32,166.66666666666666,,,,,,1186.217600000143,282.0,3.0,1186.217799999952,282.0,,,,1190.388400000095,1190.886600000143,1189.886600000143,1190.3882999999523,1187.2242000000476,1189.8864999999998,1190.886600000143,1191.388,1191.388,1196.695400000095,3932.0,1196.695400000095,5.0,1196.700100000143,3.0,5.0,95.0,14.0,1.0,1.6,0.3,Time
,,S59,1,男,20,anonymized,Serial_Dependence_U,2023.2.3,Win32,166.66666666666666,,,,,,1196.7004000000952,147.0,3.0,1196.7005,147.0,,,,1200.6425,1201.1442000000477,1200.137100000143,1200.6425,1197.703,1200.137100000143,1201.1442000000477,1201.6452000000477,1201.6452000000477,1207.3372999999522,4657.0,1207.3372999999522,5.0,1207.342,3.0,6.0,96.0,8.0,1.0,1.4,0.7,Time
,,S59,1,男,20,anonymized,Serial_Dependence_U,2023.2.3,Win32,166.66666666666666,,,,,,1207.3422000000476,278.0,3.0,1207.3422999999525,278.0,,,,1210.71,1211.2092000000475,1210.208100000143,1210.71,1208.3469000000953,1210.2079000000954,1211.2092000000475,1211.703,1211.703100000143,1214.2677999999523,2012.0,1214.2677999999523,5.0,1214.2725,3.0,7.0,97.0,0.0,1.0,0.8,0.3,Time
,,S59,1,男,20,anonymized,Serial_Dependence_U,2023.2.3,Win32,166.66666666666666,,,,,,1214.272600000143,74.0,3.0,1214.2727000000475,74.0,,,,1217.8382000000477,1218.3367999999523,1217.3364000000954,1217.8382000000477,1215.275600000143,1217.3362999999522,1218.3367999999523,1218.836100000143,1218.8362000000477,1223.5637000000477,2711.0,1223.5637000000477,5.0,1223.5682999999522,3.0,8.0,98.0,21.0,1.0,1.0,0.3,Time
,,S59,1,男,20,anonymized,Serial_Dependence_U,2023.2.3,Win32,166.66666666666666,,,,,,1223.5685,186.0,3.0,1223.5685,186.0,,,,1227.5052000000476,1228.0019000000952,1226.998900000095,1227.505100000143,1224.5667999999523,1226.9987999999523,1228.0019000000952,1228.499100000143,1228.499100000143,1233.0265,3852.0,1233.0265,5.0,1233.0307000000475,3.0,9.0,99.0,18.0,1.0,1.4,0.7,Time
,,S59,1,男,20,anonymized,Serial_Dependence_U,2023.2.3,Win32,166.66666666666666,,,,,,1233.0309000000952,274.0,3.0,1233.031,274.0,,,,1236.8017000000475,1237.3027999999522,1236.2967000000476,1236.801600000143,1234.0284000000954,1236.296600000143,1237.3027999999522,1237.8002999999524,1237.8002999999524,1243.1462000000477,3489.0,1243.1462000000477,5.0,1243.150799999952,3.0,10.0,100.0,2.0,1.0,1.2,0.3,Time
,,S59,1,男,20,anonymized,Serial_Dependence_U,2023.2.3,Win32,166.66666666666666,,,,,,1243.1509999999998,225.0,3.0,1243.1509999999998,225.0,,,,1246.8979000000952,1247.394,1246.3924000000952,1246.8977999999522,1244.1587999999522,1246.3922999999522,1247.394100000143,1247.8954000000954,1247.8954000000954,1252.5342999999525,3963.0,1252.5342999999525,5.0,1252.539100000143,3.0,11.0,101.0,17.0,1.0,1.2,0.7,Time
,,S59,1,男,20,anonymized,Serial_Dependence_U,2023.2.3,Win32,166.66666666666666,,,,,,1252.5392999999522,268.0,3.0,1252.5394000000954,268.0,,,,1255.886,1256.3852000000477,1255.3846000001429,1255.886,1253.542100000143,1255.3846000001429,1256.3852999999522,1256.8849000000953,1256.8849000000953,1260.3469000000953,2939.0,1260.3469000000953,5.0,1260.3519000000954,3.0,12.0,102.0,5.0,1.0,0.8,0.7,Time
,,S59,1,男,20,anonymized,Serial_Dependence_U,2023.2.3,Win32,166.66666666666666,,,,,,1260.352,263.0,3.0,1260.352100000143,263.0,,,,1263.7354000000953,1264.2302999999522,1263.2307999999523,1263.7354000000953,1261.360600000143,1263.2307999999523,1264.2302999999522,1264.7299000000953,1264.7299000000953,1268.276100000143,3071.0,1268.276100000143,5.0,1268.2807000000475,3.0,13.0,103.0,10.0,1.0,0.8,0.3,Time
,,S59,1,男,20,anonymized,Serial_Dependence_U,2023.2.3,Win32,166.66666666666666,,,,,,1268.2809000000952,125.0,3.0,1268.281,125.0,,,,1271.652600000143,1272.1524000000952,1271.1479000000952,1271.6525,1269.2845,1271.1477999999522,1272.1524000000952,1272.648600000143,1272.648600000143,1276.1739000000953,2978.0,1276.1739000000953,5.0,1276.179100000143,3.0,14.0,104.0,20.0,1.0,0.8,0.3,Time
,,S59,1,男,20,anonymized,Serial_Dependence_U,2023.2.3,Win32,166.66666666666666,,,,,,1276.1794000000953,228.0,3.0,1276.1794000000953,228.0,,,,1279.7217000000476,1280.221600000143,1279.213,1279.7217000000476,1277.179100000143,1279.213,1280.2217000000476,1280.7185,1280.718600000143,1286.2565,2633.0,1286.256600000143,5.0,1286.2612000000477,3.0,15.0,105.0,26.0,1.0,1.0,0.7,Time
,,S59,1,男,20,anonymized,Serial_Dependence_U,2023.2.3,Win32,166.66666666666666,,,,,,1286.2614000000954,317.0,3.0,1286.2614000000954,317.0,,,,1290.0072000000475,1290.502600000143,1289.503600000143,1290.007100000143,1287.2632999999523,1289.503600000143,1290.502600000143,1291.0042000000476,1291.0042999999523,1294.587600000143,3030.0,1294.5877000000476,5.0,1294.5925,3.0,16.0,106.0,7.0,1.0,1.2,0.7,Time
,,S59,1,男,20,anonymized,Serial_Dependence_U,2023.2.3,Win32,166.66666666666666,,,,,,1294.5927000000477,85.0,3.0,1294.5927000000477,85.0,,,,1298.327,1298.8257000000476,1297.8229000000954,1298.3269000000953,1295.5922999999525,1297.8229000000954,1298.8257000000476,1299.3242999999522,1299.3242999999522,1307.368,4126.0,1307.368,5.0,1307.373,3.0,17.0,107.0,27.0,1.0,1.2,0.7,Time
,,S59,1,男,20,anonymized,Serial_Dependence_U,2023.2.3,Win32,166.66666666666666,,,,,,1307.3732000000475,253.0,3.0,1307.3732000000475,253.0,,,,1311.5169999999998,1312.015,1311.007600000143,1311.5169000000951,1308.3717000000477,1311.0075,1312.015100000143,1312.5139000000954,1312.5139000000954,1318.3519000000954,3818.0,1318.3519000000954,5.0,1318.356600000143,3.0,18.0,108.0,29.0,1.0,1.6,0.7,Time
,,S59,1,男,20,anonymized,Serial_Dependence_U,2023.2.3,Win32,166.66666666666666,,,,,,1318.3569000000953,161.0,3.0,1318.3569000000953,161.0,,,,1322.2904999999998,1322.7859000000954,1321.7875,1322.2904000000954,1319.3564000000954,1321.7875,1322.7859999999998,1323.2842000000476,1323.2842999999525,1328.3552000000475,3935.0,1328.3552000000475,5.0,1328.36,3.0,19.0,109.0,28.0,1.0,1.4,0.7,Time
,,S59,1,男,20,anonymized,Serial_Dependence_U,2023.2.3,Win32,166.66666666666666,,,,,,1328.3602000000476,186.0,3.0,1328.3602000000476,186.0,,,,1332.130600000143,1332.6282999999523,1331.6297000000477,1332.130600000143,1329.3607999999522,1331.6297000000477,1332.6282999999523,1333.1264000000954,1333.1265,1336.074600000143,1977.0,1336.074600000143,5.0,1336.0787999999525,3.0,20.0,110.0,22.0,1.0,1.2,0.3,Time
,,S59,1,男,20,anonymized,Serial_Dependence_U,2023.2.3,Win32,166.66666666666666,,,,,,1336.079,176.0,3.0,1336.079100000143,176.0,,,,1339.4135,1339.9109999999998,1338.911100000143,1339.4132999999522,1337.08,1338.9109999999998,1339.9109999999998,1340.409,1340.409,1344.3512999999523,1766.0,1344.3512999999523,5.0,1344.3562000000477,3.0,21.0,111.0,25.0,1.0,0.8,0.7,Time
,,S59,1,男,20,anonymized,Serial_Dependence_U,2023.2.3,Win32,166.66666666666666,,,,,,1344.3565,257.0,3.0,1344.3565,257.0,,,,1348.128,1348.6244000000952,1347.623,1348.128,1345.3565,1347.623,1348.6245,1349.1219000000954,1349.1219999999998,1352.489600000143,2467.0,1352.489600000143,5.0,1352.4942999999523,3.0,22.0,112.0,12.0,1.0,1.2,0.3,Time
,,S59,1,男,20,anonymized,Serial_Dependence_U,2023.2.3,Win32,166.66666666666666,,,,,,1352.4945,153.0,3.0,1352.494600000143,153.0,,,,1356.0362000000475,1356.538100000143,1355.5332999999523,1356.036100000143,1353.4952999999523,1355.5332999999523,1356.538100000143,1357.0392999999522,1357.0394000000954,1360.9842000000476,3074.0,1360.984400000095,5.0,1360.9892999999522,3.0,23.0,113.0,6.0,1.0,1.0,0.7,Time
,,S59,1,男,20,anonymized,Serial_Dependence_U,2023.2.3,Win32,166.66666666666666,,,,,,1360.989600000143,114.0,3.0,1360.9897000000476,114.0,,,,1364.959900000095,1365.4607999999523,1364.4537000000475,1364.9597999999523,1361.989100000143,1364.4537000000475,1365.4609000000953,1365.9575,1365.9575,1369.9419000000953,2855.0,1369.942,5.0,1369.947,3.0,24.0,114.0,13.0,1.0,1.4,0.3,Time
,,S59,1,男,20,anonymized,Serial_Dependence_U,2023.2.3,Win32,166.66666666666666,,,,,,1369.9471000001429,227.0,3.0,1369.9472000000476,227.0,,,,1373.2924000000953,1373.7887000000476,1372.7892999999522,1373.2924000000953,1370.9534999999998,1372.7892000000477,1373.7887000000476,1374.289100000143,1374.2892000000477,1378.1439000000953,3151.0,1378.144,5.0,1378.1487999999522,3.0,25.0,115.0,15.0,1.0,0.8,0.7,Time
,,S59,1,男,20,anonymized,Serial_Dependence_U,2023.2.3,Win32,166.66666666666666,,,,,,1378.1491000001429,192.0,3.0,1378.1492000000476,192.0,,,,1381.6971000001429,1382.1962999999523,1381.191100000143,1381.6971000001429,1379.1579000000952,1381.191100000143,1382.1962999999523,1382.6937000000476,1382.6937000000476,1386.1872000000476,2852.0,1386.1872999999523,5.0,1386.1919000000953,3.0,26.0,116.0,16.0,1.0,1.0,0.7,Time
,,S59,1,男,20,anonymized,Serial_Dependence_U,2023.2.3,Win32,166.66666666666666,,,,,,1386.192100000143,261.0,3.0,1386.192100000143,261.0,,,,1390.3654000000954,1390.8642999999522,1389.858600000143,1390.3652999999522,1387.192100000143,1389.8585,1390.8642999999522,1391.3637000000476,1391.3637000000476,1395.7292999999522,3583.0,1395.7292999999522,5.0,1395.734,3.0,27.0,117.0,4.0,1.0,1.6,0.3,Time
,,S59,1,男,20,anonymized,Serial_Dependence_U,2023.2.3,Win32,166.66666666666666,,,,,,1395.734100000143,166.0,3.0,1395.7342000000476,166.0,,,,1399.699900000095,1400.1997000000476,1399.1952999999523,1399.6997999999523,1396.733100000143,1399.1952000000476,1400.1997999999523,1400.6982999999525,1400.6984000000953,1404.484400000095,3165.0,1404.4845,5.0,1404.488900000095,3.0,28.0,118.0,23.0,1.0,1.4,0.3,Time
,,S59,1,男,20,anonymized,Serial_Dependence_U,2023.2.3,Win32,166.66666666666666,,,,,,1404.489100000143,326.0,3.0,1404.489100000143,326.0,,,,1408.6752000000477,1409.171600000143,1408.1622000000475,1408.6752000000477,1405.4942000000476,1408.162100000143,1409.171600000143,1409.6699000000954,1409.6699999999998,1414.494,4267.0,1414.494,5.0,1414.499100000143,3.0,29.0,119.0,24.0,1.0,1.6,0.3,Time
,,S59,1,男,20,anonymized,Serial_Dependence_U,2023.2.3,Win32,166.66666666666666,,,,,,1414.4992999999522,173.0,4.0,1509.137400000095,173.0,s,94.62620000004767,,1512.4985,1512.9985,1511.996,1512.4985,1510.1345,1511.9959000000954,1512.9985,1513.495,1513.4951000001429,1517.0864000000954,3139.0,1517.0864000000954,5.0,1517.090600000143,4.0,0.0,120.0,20.0,1.0,0.8,0.3,Time
,,S59,1,男,20,anonymized,Serial_Dependence_U,2023.2.3,Win32,166.66666666666666,,,,,,1517.0907000000475,40.0,4.0,1517.0914000000953,40.0,,,,1521.2664000000952,1521.7662999999525,1520.7645,1521.2662000000475,1518.094600000143,1520.7645,1521.7662999999525,1522.266100000143,1522.2662999999525,1526.4664000000953,3846.0,1526.4665,5.0,1526.4707000000476,4.0,1.0,121.0,4.0,1.0,1.6,0.3,Time
,,S59,1,男,20,anonymized,Serial_Dependence_U,2023.2.3,Win32,166.66666666666666,,,,,,1526.4709000000953,201.0,4.0,1526.471,201.0,,,,1530.0139000000954,1530.5154000000953,1529.513400000095,1530.0139000000954,1527.4772999999525,1529.5132999999523,1530.5154000000953,1531.0125,1531.0125,1535.032400000095,3362.0,1535.032400000095,5.0,1535.036600000143,4.0,2.0,122.0,6.0,1.0,1.0,0.7,Time
,,S59,1,男,20,anonymized,Serial_Dependence_U,2023.2.3,Win32,166.66666666666666,,,,,,1535.0367999999523,21.0,4.0,1535.036900000095,21.0,,,,1538.8219000000954,1539.322,1538.3135,1538.8217999999522,1536.0459000000951,1538.3135,1539.322,1539.8194000000954,1539.8194999999998,1543.771100000143,3446.0,1543.7712000000477,5.0,1543.7757000000477,4.0,3.0,123.0,2.0,1.0,1.2,0.3,Time
,,S59,1,男,20,anonymized,Serial_Dependence_U,2023.2.3,Win32,166.66666666666666,,,,,,1543.775799999952,277.0,4.0,1543.7759000000954,277.0,,,,1547.3105,1547.8077000000476,1546.808600000143,1547.3104000000951,1544.776100000143,1546.8085,1547.8077000000476,1548.3082999999522,1548.3082999999522,1548.9092999999525,186.0,1548.9092999999525,1.0,1548.9135,4.0,4.0,124.0,26.0,1.0,1.0,0.7,Time
,,S59,1,男,20,anonymized,Serial_Dependence_U,2023.2.3,Win32,166.66666666666666,,,,,,1548.9137000000476,199.0,4.0,1548.9137999999523,199.0,,,,1552.8862000000477,1553.3837000000476,1552.3767999999525,1552.886100000143,1549.9117999999523,1552.3767999999525,1553.3837000000476,1553.877100000143,1553.877100000143,1558.0939000000951,4182.0,1558.0939000000951,5.0,1558.0982999999524,4.0,5.0,125.0,13.0,1.0,1.4,0.3,Time
,,S59,1,男,20,anonymized,Serial_Dependence_U,2023.2.3,Win32,166.66666666666666,,,,,,1558.0984000000954,78.0,4.0,1558.0984000000954,78.0,,,,1562.0392999999522,1562.5377000000476,1561.5359000000954,1562.0392999999522,1559.101,1561.5357999999524,1562.5377999999523,1563.0352999999525,1563.0352999999525,1567.4807999999523,4107.0,1567.4807999999523,5.0,1567.4852000000476,4.0,6.0,126.0,28.0,1.0,1.4,0.7,Time
,,S59,1,男,20,anonymized,Serial_Dependence_U,2023.2.3,Win32,166.66666666666666,,,,,,1567.4854000000953,81.0,4.0,1567.4855,81.0,,,,1571.0632000000476,1571.559100000143,1570.559,1571.0632000000476,1568.4902000000477,1570.5589000000953,1571.5592000000477,1572.0537999999522,1572.0539000000954,1575.7117000000476,3236.0,1575.7117999999523,5.0,1575.716100000143,4.0,7.0,127.0,21.0,1.0,1.0,0.3,Time
,,S59,1,男,20,anonymized,Serial_Dependence_U,2023.2.3,Win32,166.66666666666666,,,,,,1575.7162999999523,190.0,4.0,1575.7164000000953,190.0,,,,1579.6527000000476,1580.1505,1579.1469000000952,1579.6527000000476,1576.710600000143,1579.1467999999522,1580.1505,1580.652,1580.652,1584.636600000143,3437.0,1584.636600000143,5.0,1584.6407999999522,4.0,8.0,128.0,8.0,1.0,1.4,0.7,Time
,,S59,1,男,20,anonymized,Serial_Dependence_U,2023.2.3,Win32,166.66666666666666,,,,,,1584.6409999999998,330.0,4.0,1584.641100000143,330.0,,,,1588.218100000143,1588.718600000143,1587.7122999999522,1588.2179999999998,1585.651600000143,1587.7122000000477,1588.7187000000476,1589.214400000095,1589.2145,1593.0867999999523,3450.0,1593.0869000000953,5.0,1593.091,4.0,9.0,129.0,1.0,1.0,1.0,0.3,Time
,,S59,1,男,20,anonymized,Serial_Dependence_U,2023.2.3,Win32,166.66666666666666,,,,,,1593.0912999999523,267.0,4.0,1593.0912999999523,267.0,,,,1596.8649000000953,1597.3582999999524,1596.357600000143,1596.8649000000953,1594.092100000143,1596.3574999999998,1597.3584000000951,1597.8572000000477,1597.857299999952,1601.8182999999522,3463.0,1601.8184000000954,5.0,1601.8227000000477,4.0,10.0,130.0,22.0,1.0,1.2,0.3,Time
,,S59,1,男,20,anonymized,Serial_Dependence_U,2023.2.3,Win32,166.66666666666666,,,,,,1601.8227999999522,33.0,4.0,1601.8229000000954,33.0,,,,1605.5752000000475,1606.0734000000953,1605.0587000000476,1605.575100000143,1602.8235,1605.058600000143,1606.0735,1606.5742999999522,1606.5742999999522,1609.8469000000953,3132.0,1609.847,5.0,1609.8527000000477,4.0,11.0,131.0,27.0,1.0,1.2,0.7,Time
,,S59,1,男,20,anonymized,Serial_Dependence_U,2023.2.3,Win32,166.66666666666666,,,,,,1609.8529999999998,339.0,4.0,1609.8529999999998,339.0,,,,1613.6025,1614.1002000000476,1613.0934000000952,1613.6025,1610.858,1613.0932999999525,1614.1002000000476,1614.5962999999522,1614.5962999999522,1618.657100000143,3385.0,1618.657100000143,5.0,1618.6614000000952,4.0,12.0,132.0,17.0,1.0,1.2,0.7,Time
,,S59,1,男,20,anonymized,Serial_Dependence_U,2023.2.3,Win32,166.66666666666666,,,,,,1618.661600000143,30.0,4.0,1618.661600000143,30.0,,,,1622.000600000143,1622.4975,1621.4942999999523,1622.000600000143,1619.6577000000475,1621.4942999999523,1622.4975,1622.9954000000953,1622.9954000000953,1627.4967000000477,4088.0,1627.4967000000477,5.0,1627.5007999999525,4.0,13.0,133.0,15.0,1.0,0.8,0.7,Time
,,S59,1,男,20,anonymized,Serial_Dependence_U,2023.2.3,Win32,166.66666666666666,,,,,,1627.5009000000953,304.0,4.0,1627.501100000143,304.0,,,,1631.473600000143,1631.971100000143,1630.9687000000476,1631.4734999999998,1628.503,1630.9687000000476,1631.971100000143,1632.4704000000952,1632.4705,1636.9795,3843.0,1636.9795,5.0,1636.9835,4.0,14.0,134.0,3.0,1.0,1.4,0.3,Time
,,S59,1,男,20,anonymized,Serial_Dependence_U,2023.2.3,Win32,166.66666666666666,,,,,,1636.9837999999522,221.0,4.0,1636.9837999999522,221.0,,,,1640.974,1641.4747000000475,1640.469600000143,1640.9739000000952,1637.996799999952,1640.469600000143,1641.4747000000475,1641.974,1641.974100000143,1645.8679000000952,2762.0,1645.8679000000952,5.0,1645.8722000000475,4.0,15.0,135.0,23.0,1.0,1.4,0.3,Time
,,S59,1,男,20,anonymized,Serial_Dependence_U,2023.2.3,Win32,166.66666666666666,,,,,,1645.8724000000952,280.0,4.0,1645.8725,280.0,,,,1650.046900000095,1650.546600000143,1649.5429000000954,1650.046900000095,1646.874100000143,1649.5429000000954,1650.546600000143,1651.0445,1651.0445,1657.0929000000954,3903.0,1657.0929999999998,5.0,1657.0975,4.0,16.0,136.0,24.0,1.0,1.6,0.3,Time
,,S59,1,男,20,anonymized,Serial_Dependence_U,2023.2.3,Win32,166.66666666666666,,,,,,1657.0977000000476,171.0,4.0,1657.0977000000476,171.0,,,,1661.249100000143,1661.748100000143,1660.7429000000952,1661.249100000143,1658.1012999999523,1660.7427999999522,1661.748100000143,1662.2477999999523,1662.2477999999523,1667.191100000143,3891.0,1667.191100000143,5.0,1667.1955,4.0,17.0,137.0,19.0,1.0,1.6,0.7,Time
,,S59,1,男,20,anonymized,Serial_Dependence_U,2023.2.3,Win32,166.66666666666666,,,,,,1667.1957000000475,175.0,4.0,1667.1957000000475,175.0,,,,1670.7409000000953,1671.238900000095,1670.227100000143,1670.7407999999523,1668.1939000000953,1670.227100000143,1671.239,1671.7395,1671.7395,1676.383,3825.0,1676.383,5.0,1676.3877000000475,4.0,18.0,138.0,16.0,1.0,1.0,0.7,Time
,,S59,1,男,20,anonymized,Serial_Dependence_U,2023.2.3,Win32,166.66666666666666,,,,,,1676.3879000000952,168.0,4.0,1676.3879000000952,168.0,,,,1679.948600000143,1680.447,1679.4477999999522,1679.948600000143,1677.387400000095,1679.4477000000477,1680.447,1680.9475,1680.9475,1685.089600000143,3154.0,1685.0897000000475,5.0,1685.094100000143,4.0,19.0,139.0,11.0,1.0,1.0,0.3,Time
,,S59,1,男,20,anonymized,Serial_Dependence_U,2023.2.3,Win32,166.66666666666666,,,,,,1685.0942999999522,154.0,4.0,1685.0944000000952,154.0,,,,1689.2469000000954,1689.7474000000952,1688.7422999999524,1689.2469000000954,1686.1056000001429,1688.7422000000477,1689.7475,1690.244600000143,1690.2447999999522,1695.2432999999523,4006.0,1695.2432999999523,5.0,1695.248,4.0,20.0,140.0,29.0,1.0,1.6,0.7,Time
,,S59,1,男,20,anonymized,Serial_Dependence_U,2023.2.3,Win32,166.66666666666666,,,,,,1695.248100000143,278.0,4.0,1695.2482000000475,278.0,,,,1698.619,1699.1149000000953,1698.1157999999523,1698.6189000000952,1696.253400000095,1698.1157000000476,1699.1149000000953,1699.6117000000477,1699.6117999999522,1702.9745,2689.0,1702.9745,5.0,1702.979,4.0,21.0,141.0,0.0,1.0,0.8,0.3,Time
,,S59,1,男,20,anonymized,Serial_Dependence_U,2023.2.3,Win32,166.66666666666666,,,,,,1702.9792000000475,237.0,4.0,1702.9792999999522,237.0,,,,1706.7597000000476,1707.2589000000953,1706.2532999999523,1706.7597000000476,1703.9874000000952,1706.2532999999523,1707.2589000000953,1707.7562999999525,1707.7562999999525,1712.094900000095,3690.0,1712.094900000095,5.0,1712.099400000095,4.0,22.0,142.0,12.0,1.0,1.2,0.3,Time
,,S59,1,男,20,anonymized,Serial_Dependence_U,2023.2.3,Win32,166.66666666666666,,,,,,1712.099600000143,70.0,4.0,1712.099600000143,70.0,,,,1716.2299000000953,1716.7292000000475,1715.7257000000477,1716.2299000000953,1713.0942999999522,1715.725600000143,1716.7292000000475,1717.2284000000952,1717.2285,1722.1982999999525,4253.0,1722.1982999999525,5.0,1722.2027999999525,4.0,23.0,143.0,9.0,1.0,1.6,0.7,Time
,,S59,1,男,20,anonymized,Serial_Dependence_U,2023.2.3,Win32,166.66666666666666,,,,,,1722.203,338.0,4.0,1722.203,338.0,,,,1725.5597999999522,1726.057100000143,1725.0555,1725.5597000000475,1723.2139000000952,1725.0555,1726.057100000143,1726.558,1726.558100000143,1731.3352999999522,4286.0,1731.3352999999522,5.0,1731.34,4.0,24.0,144.0,5.0,1.0,0.8,0.7,Time
,,S59,1,男,20,anonymized,Serial_Dependence_U,2023.2.3,Win32,166.66666666666666,,,,,,1731.3402000000476,144.0,4.0,1731.3402999999523,144.0,,,,1735.5047999999522,1736.0062999999525,1735.0022000000477,1735.5047000000477,1732.341600000143,1735.002100000143,1736.0062999999525,1736.494100000143,1736.494100000143,1741.8962999999524,4444.0,1741.8962999999524,5.0,1741.901100000143,4.0,25.0,145.0,14.0,1.0,1.6,0.3,Time
,,S59,1,男,20,anonymized,Serial_Dependence_U,2023.2.3,Win32,166.66666666666666,,,,,,1741.9012000000475,212.0,4.0,1741.9012999999522,212.0,,,,1745.268600000143,1745.7657999999522,1744.768100000143,1745.2685,1742.9052000000477,1744.768,1745.7657999999522,1746.2655,1746.2655,1749.342600000143,2418.0,1749.342600000143,5.0,1749.3477999999525,4.0,26.0,146.0,10.0,1.0,0.8,0.3,Time
,,S59,1,男,20,anonymized,Serial_Dependence_U,2023.2.3,Win32,166.66666666666666,,,,,,1749.348,72.0,4.0,1749.348,72.0,,,,1753.0969000000953,1753.5934000000952,1752.589,1753.0969000000953,1750.3579000000952,1752.5887999999522,1753.5934000000952,1754.0917000000477,1754.0917999999522,1758.674,3791.0,1758.674,5.0,1758.6787999999522,4.0,27.0,147.0,7.0,1.0,1.2,0.7,Time
,,S59,1,男,20,anonymized,Serial_Dependence_U,2023.2.3,Win32,166.66666666666666,,,,,,1758.679,257.0,4.0,1758.679100000143,257.0,,,,1762.617600000143,1763.1242000000475,1762.1149000000953,1762.6174999999998,1759.677,1762.1147999999523,1763.1242999999522,1763.618400000095,1763.6185,1768.6937000000476,3914.0,1768.6937000000476,5.0,1768.698100000143,4.0,28.0,148.0,18.0,1.0,1.4,0.7,Time
,,S59,1,男,20,anonymized,Serial_Dependence_U,2023.2.3,Win32,166.66666666666666,,,,,,1768.6982000000476,315.0,4.0,1768.6982999999525,315.0,,,,1772.038,1772.537100000143,1771.532100000143,1772.038,1769.700100000143,1771.532100000143,1772.5372000000475,1773.0387999999523,1773.0387999999523,1777.7889000000953,3903.0,1777.7889000000953,5.0,1777.7932000000476,4.0,29.0,149.0,25.0,1.0,0.8,0.7,Time
,,S59,1,男,20,anonymized,Serial_Dependence_U,2023.2.3,Win32,166.66666666666666,,,,,,1777.7934000000953,163.0,5.0,1784.3022999999523,163.0,s,6.496299999952271,,1788.2885,1788.7874000000952,1787.7797000000476,1788.2884000000954,1785.3089000000953,1787.779600000143,1788.7875,1789.2817000000475,1789.2817000000475,1794.015,4184.0,1794.015,5.0,1794.019600000143,5.0,0.0,150.0,23.0,1.0,1.4,0.3,Time
,,S59,1,男,20,anonymized,Serial_Dependence_U,2023.2.3,Win32,166.66666666666666,,,,,,1794.0197000000476,118.0,5.0,1794.0204000000954,118.0,,,,1798.197,1798.6939000000953,1797.6922999999522,1798.1969000000954,1795.027100000143,1797.6922999999522,1798.694,1799.1902999999522,1799.1902999999522,1804.133700000048,4320.0,1804.1339000000955,5.0,1804.138200000048,5.0,1.0,151.0,4.0,1.0,1.6,0.3,Time
,,S59,1,男,20,anonymized,Serial_Dependence_U,2023.2.3,Win32,166.66666666666666,,,,,,1804.1384000000955,238.0,5.0,1804.1384000000955,238.0,,,,1808.271,1808.770700000048,1807.7634000000955,1808.2709000000957,1805.132299999952,1807.7632999999523,1808.770700000048,1809.2667999999524,1809.2667999999524,1814.3734000000952,3464.0,1814.3734000000952,5.0,1814.3784000000956,5.0,2.0,152.0,19.0,1.0,1.6,0.7,Time
,,S59,1,男,20,anonymized,Serial_Dependence_U,2023.2.3,Win32,166.66666666666666,,,,,,1814.378700000048,317.0,5.0,1814.378700000048,317.0,,,,1817.7289000000956,1818.2289000000956,1817.2272999999525,1817.7287999999523,1815.381700000048,1817.227200000048,1818.2289000000956,1818.726,1818.726,1822.321100000143,2894.0,1822.321100000143,5.0,1822.325700000048,5.0,3.0,153.0,15.0,1.0,0.8,0.7,Time
,,S59,1,男,20,anonymized,Serial_Dependence_U,2023.2.3,Win32,166.66666666666666,,,,,,1822.3259000000955,302.0,5.0,1822.3259000000955,302.0,,,,1825.9102999999525,1826.4064000000956,1825.401299999952,1825.910200000048,1823.335200000048,1825.4012000000475,1826.4064000000956,1826.903200000048,1826.903299999952,1830.5549000000956,3170.0,1830.5549000000956,5.0,1830.559100000143,5.0,4.0,154.0,21.0,1.0,1.0,0.3,Time
,,S59,1,男,20,anonymized,Serial_Dependence_U,2023.2.3,Win32,166.66666666666666,,,,,,1830.559299999952,81.0,5.0,1830.559299999952,81.0,,,,1834.095700000048,1834.5945,1833.5934000000952,1834.095700000048,1831.5605,1833.5932999999525,1834.5945,1835.0885,1835.0885,1839.140200000048,3401.0,1839.1402999999525,5.0,1839.1447999999525,5.0,5.0,155.0,6.0,1.0,1.0,0.7,Time
,,S59,1,男,20,anonymized,Serial_Dependence_U,2023.2.3,Win32,166.66666666666666,,,,,,1839.145,12.0,5.0,1839.145,12.0,,,,1842.6889000000956,1843.187,1842.183600000143,1842.688799999952,1840.150200000048,1842.1835,1843.187100000143,1843.6874000000955,1843.6874000000955,1848.153200000048,3552.0,1848.153200000048,5.0,1848.157700000048,5.0,6.0,156.0,16.0,1.0,1.0,0.7,Time
,,S59,1,男,20,anonymized,Serial_Dependence_U,2023.2.3,Win32,166.66666666666666,,,,,,1848.1579000000952,130.0,5.0,1848.158,130.0,,,,1852.297100000143,1852.7955,1851.790799999952,1852.297100000143,1849.1557000000475,1851.7907000000475,1852.7955,1853.2967999999523,1853.2967999999523,1857.8224000000955,3659.0,1857.8224000000955,5.0,1857.827100000143,5.0,7.0,157.0,9.0,1.0,1.6,0.7,Time
,,S59,1,男,20,anonymized,Serial_Dependence_U,2023.2.3,Win32,166.66666666666666,,,,,,1857.827299999952,41.0,5.0,1857.827299999952,41.0,,,,1861.5747999999523,1862.076299999952,1861.068600000143,1861.574700000048,1858.832100000143,1861.0685,1862.076299999952,1862.5757999999523,1862.5757999999523,1866.262,3257.0,1866.262,5.0,1866.267,5.0,8.0,158.0,17.0,1.0,1.2,0.7,Time
,,S59,1,男,20,anonymized,Serial_Dependence_U,2023.2.3,Win32,166.66666666666666,,,,,,1866.2672000000475,33.0,5.0,1866.267299999952,33.0,,,,1870.4327999999523,1870.9299000000956,1869.9309000000956,1870.432700000048,1867.2629000000952,1869.9307999999523,1870.9299000000956,1871.4312000000475,1871.4312000000475,1875.605299999952,3627.0,1875.6054000000956,5.0,1875.609799999952,5.0,9.0,159.0,14.0,1.0,1.6,0.3,Time
,,S59,1,男,20,anonymized,Serial_Dependence_U,2023.2.3,Win32,166.66666666666666,,,,,,1875.61,15.0,5.0,1875.61,15.0,,,,1879.3522999999525,1879.854,1878.845,1879.3522999999525,1876.614,1878.845,1879.854,1880.3555,1880.3556000001429,1884.8357999999523,3757.0,1884.8357999999523,5.0,1884.840200000048,5.0,10.0,160.0,7.0,1.0,1.2,0.7,Time
,,S59,1,男,20,anonymized,Serial_Dependence_U,2023.2.3,Win32,166.66666666666666,,,,,,1884.8404000000955,251.0,5.0,1884.8405,251.0,,,,1888.5942000000475,1889.0899000000952,1888.091,1888.5942000000475,1885.8594000000955,1888.0909000000956,1889.09,1889.5865,1889.5865,1894.315100000143,3917.0,1894.315100000143,5.0,1894.3197000000475,5.0,11.0,161.0,27.0,1.0,1.2,0.7,Time
,,S59,1,男,20,anonymized,Serial_Dependence_U,2023.2.3,Win32,166.66666666666666,,,,,,1894.3199000000952,250.0,5.0,1894.32,250.0,,,,1897.8885,1898.3867000000475,1897.3864000000956,1897.8884000000955,1895.319,1897.386299999952,1898.3867000000475,1898.8879000000952,1898.888,1903.0017000000475,3583.0,1903.0017999999525,5.0,1903.0062999999525,5.0,12.0,162.0,1.0,1.0,1.0,0.3,Time
,,S59,1,男,20,anonymized,Serial_Dependence_U,2023.2.3,Win32,166.66666666666666,,,,,,1903.0065,161.0,5.0,1903.006600000143,161.0,,,,1906.951299999952,1907.4494000000952,1906.450700000048,1906.951299999952,1904.0187999999523,1906.450600000143,1907.4495,1907.9472999999523,1907.9474000000955,1912.1892000000475,3671.0,1912.1892999999525,5.0,1912.1939000000957,5.0,13.0,163.0,28.0,1.0,1.4,0.7,Time
,,S59,1,男,20,anonymized,Serial_Dependence_U,2023.2.3,Win32,166.66666666666666,,,,,,1912.194100000143,32.0,5.0,1912.194100000143,32.0,,,,1915.733600000143,1916.2325,1915.2242999999523,1915.733600000143,1913.191700000048,1915.2242999999523,1916.232600000143,1916.730200000048,1916.730200000048,1921.305700000048,3915.0,1921.3057999999523,5.0,1921.31,5.0,14.0,164.0,26.0,1.0,1.0,0.7,Time
,,S59,1,男,20,anonymized,Serial_Dependence_U,2023.2.3,Win32,166.66666666666666,,,,,,1921.310100000143,347.0,5.0,1921.310200000048,347.0,,,,1924.6564000000956,1925.1557000000475,1924.1529000000955,1924.6564000000956,1922.3177999999525,1924.1527999999523,1925.1557000000475,1925.6559000000952,1925.656,1929.319,3009.0,1929.319,5.0,1929.3239000000956,5.0,15.0,165.0,25.0,1.0,0.8,0.7,Time
,,S59,1,男,20,anonymized,Serial_Dependence_U,2023.2.3,Win32,166.66666666666666,,,,,,1929.324,187.0,5.0,1929.324100000143,187.0,,,,1933.2655,1933.764200000048,1932.7575,1933.2655,1930.326600000143,1932.7574000000952,1933.764200000048,1934.2654000000955,1934.2654000000955,1938.0587999999525,3483.0,1938.0587999999525,5.0,1938.063100000143,5.0,16.0,166.0,18.0,1.0,1.4,0.7,Time
,,S59,1,男,20,anonymized,Serial_Dependence_U,2023.2.3,Win32,166.66666666666666,,,,,,1938.063200000048,162.0,5.0,1938.0632999999525,162.0,,,,1941.406600000143,1941.903,1940.899700000048,1941.4065,1939.0644000000952,1940.899700000048,1941.903100000143,1942.403100000143,1942.403200000048,1945.7209000000955,2956.0,1945.7209000000955,5.0,1945.725600000143,5.0,17.0,167.0,5.0,1.0,0.8,0.7,Time
,,S59,1,男,20,anonymized,Serial_Dependence_U,2023.2.3,Win32,166.66666666666666,,,,,,1945.725799999952,192.0,5.0,1945.725799999952,192.0,,,,1949.123700000048,1949.6192999999523,1948.6085,1949.123600000143,1946.7342999999523,1948.6085,1949.6192999999523,1950.1157999999523,1950.1157999999523,1952.856200000048,2398.0,1952.856299999952,5.0,1952.8602999999523,5.0,18.0,168.0,10.0,1.0,0.8,0.3,Time
,,S59,1,男,20,anonymized,Serial_Dependence_U,2023.2.3,Win32,166.66666666666666,,,,,,1952.8605,216.0,5.0,1952.860600000143,216.0,,,,1956.796700000048,1957.297600000143,1956.2949000000956,1956.796700000048,1953.8627999999524,1956.2949000000956,1957.297600000143,1957.799200000048,1957.799200000048,1962.745799999952,3436.0,1962.745799999952,5.0,1962.7505,5.0,19.0,169.0,8.0,1.0,1.4,0.7,Time
,,S59,1,男,20,anonymized,Serial_Dependence_U,2023.2.3,Win32,166.66666666666666,,,,,,1962.7507999999525,82.0,5.0,1962.7509000000955,82.0,,,,1966.3219000000956,1966.8215,1965.819200000048,1966.321799999952,1963.753100000143,1965.819100000143,1966.8215,1967.3222999999523,1967.3224000000955,1971.685100000143,3452.0,1971.685200000048,5.0,1971.6897999999524,5.0,20.0,170.0,11.0,1.0,1.0,0.3,Time
,,S59,1,男,20,anonymized,Serial_Dependence_U,2023.2.3,Win32,166.66666666666666,,,,,,1971.690100000143,332.0,5.0,1971.6902000000475,332.0,,,,1975.068299999952,1975.5667999999523,1974.5659000000956,1975.068200000048,1972.695600000143,1974.5657999999523,1975.5667999999523,1976.063100000143,1976.063100000143,1979.3772999999524,2805.0,1979.3772999999524,5.0,1979.382100000143,5.0,21.0,171.0,20.0,1.0,0.8,0.3,Time
,,S59,1,男,20,anonymized,Serial_Dependence_U,2023.2.3,Win32,166.66666666666666,,,,,,1979.3822000000475,310.0,5.0,1979.3822000000475,310.0,,,,1983.1427999999523,1983.638600000143,1982.639600000143,1983.142700000048,1980.3764000000956,1982.6395,1983.638600000143,1984.1344000000956,1984.1345,1988.053200000048,2695.0,1988.0532999999523,5.0,1988.057700000048,5.0,22.0,172.0,22.0,1.0,1.2,0.3,Time
,,S59,1,男,20,anonymized,Serial_Dependence_U,2023.2.3,Win32,166.66666666666666,,,,,,1988.0579000000955,269.0,5.0,1988.058,269.0,,,,1992.2041000001432,1992.7,1991.697299999952,1992.2041000001432,1989.0625,1991.697299999952,1992.7001000001428,1993.1967999999524,1993.1969000000956,1996.314600000143,2674.0,1996.314600000143,5.0,1996.3194000000956,5.0,23.0,173.0,29.0,1.0,1.6,0.7,Time
,,S59,1,男,20,anonymized,Serial_Dependence_U,2023.2.3,Win32,166.66666666666666,,,,,,1996.319600000143,237.0,5.0,1996.319600000143,237.0,,,,2000.4926000001428,2000.9915,1999.9805,2000.4926000001428,1997.317799999952,1999.9804000000956,2000.9915,2001.487200000048,2001.487299999952,2006.7325,4486.0,2006.7325,5.0,2006.737200000048,5.0,24.0,174.0,24.0,1.0,1.6,0.3,Time
,,S59,1,男,20,anonymized,Serial_Dependence_U,2023.2.3,Win32,166.66666666666666,,,,,,2006.7375,143.0,5.0,2006.7375,143.0,,,,2010.5144000000955,2011.0129000000952,2010.0121000001432,2010.514299999952,2007.746299999952,2010.0121000001432,2011.0129000000952,2011.5075,2011.5075,2015.6207999999524,3605.0,2015.6209000000956,5.0,2015.6254000000956,5.0,25.0,175.0,2.0,1.0,1.2,0.3,Time
,,S59,1,男,20,anonymized,Serial_Dependence_U,2023.2.3,Win32,166.66666666666666,,,,,,2015.6255,352.0,5.0,2015.625600000143,352.0,,,,2019.615,2020.114799999952,2019.1064000000952,2019.615,2016.639,2019.106299999952,2020.1149000000955,2020.611600000143,2020.611700000048,2024.8839000000955,3686.0,2024.884,5.0,2024.8885,5.0,26.0,176.0,13.0,1.0,1.4,0.3,Time
,,S59,1,男,20,anonymized,Serial_Dependence_U,2023.2.3,Win32,166.66666666666666,,,,,,2024.888700000048,66.0,5.0,2024.8887999999524,66.0,,,,2028.2599000000955,2028.76,2027.7527999999525,2028.259799999952,2025.888,2027.7527999999525,2028.76,2029.2612999999524,2029.2612999999524,2032.3585,2875.0,2032.3585,5.0,2032.3629000000951,5.0,27.0,177.0,0.0,1.0,0.8,0.3,Time
,,S59,1,男,20,anonymized,Serial_Dependence_U,2023.2.3,Win32,166.66666666666666,,,,,,2032.3631000001428,329.0,5.0,2032.3632000000475,329.0,,,,2036.1184000000956,2036.618600000143,2035.618,2036.1182999999523,2033.3561000001432,2035.6179000000952,2036.618700000048,2037.1195,2037.1196000001428,2041.357200000048,3734.0,2041.357200000048,5.0,2041.3639000000956,5.0,28.0,178.0,12.0,1.0,1.2,0.3,Time
,,S59,1,男,20,anonymized,Serial_Dependence_U,2023.2.3,Win32,166.66666666666666,,,,,,2041.364100000143,290.0,5.0,2041.3642999999524,290.0,,,,2045.3489000000957,2045.8471000001432,2044.8342000000475,2045.3487999999525,2042.371200000048,2044.8342000000475,2045.8471000001432,2046.3482999999524,2046.3482999999524,2050.8695,3823.0,2050.869600000143,5.0,2050.873900000095,5.0,29.0,179.0,3.0,1.0,1.4,0.3,Time
,,S59,1,男,20,anonymized,Serial_Dependence_U,2023.2.3,Win32,166.66666666666666,,,,,,2050.874100000143,162.0,6.0,2109.492100000143,162.0,s,58.60609999990493,,2113.0355,2113.531700000048,2112.533100000143,2113.0354000000957,2110.4975,2112.533100000143,2113.531700000048,2114.031100000143,2114.031100000143,2118.1549000000955,3398.0,2118.155,5.0,2118.1595,6.0,0.0,180.0,26.0,1.0,1.0,0.7,Time
,,S59,1,男,20,anonymized,Serial_Dependence_U,2023.2.3,Win32,166.66666666666666,,,,,,2118.1597000000475,168.0,6.0,2118.1604000000957,168.0,,,,2122.1092999999523,2122.6059000000955,2121.6052999999524,2122.1092999999523,2119.169100000143,2121.605200000048,2122.6059000000955,2123.102,2123.102100000143,2126.799200000048,3365.0,2126.799200000048,5.0,2126.8037999999524,6.0,1.0,181.0,8.0,1.0,1.4,0.7,Time
,,S59,1,男,20,anonymized,Serial_Dependence_U,2023.2.3,Win32,166.66666666666666,,,,,,2126.804,342.0,6.0,2126.804100000143,342.0,,,,2130.181100000143,2130.679799999952,2129.6802000000475,2130.181,2127.808200000048,2129.6802000000475,2130.679799999952,2131.176700000048,2131.176700000048,2134.400900000095,2690.0,2134.400900000095,5.0,2134.405600000143,6.0,2.0,182.0,20.0,1.0,0.8,0.3,Time
,,S59,1,男,20,anonymized,Serial_Dependence_U,2023.2.3,Win32,166.66666666666666,,,,,,2134.4057999999523,13.0,6.0,2134.4059000000952,13.0,,,,2138.1815,2138.680700000048,2137.6725,2138.1815,2135.410900000096,2137.6725,2138.680700000048,2139.177900000095,2139.178,2143.5154000000957,3526.0,2143.5154000000957,5.0,2143.5204000000954,6.0,3.0,183.0,22.0,1.0,1.2,0.3,Time
,,S59,1,男,20,anonymized,Serial_Dependence_U,2023.2.3,Win32,166.66666666666666,,,,,,2143.520600000143,199.0,6.0,2143.520600000143,199.0,,,,2147.270100000143,2147.769,2146.761700000048,2147.270100000143,2144.519600000143,2146.761600000143,2147.769,2148.2634000000958,2148.2635,2155.571700000048,3424.0,2155.5717999999524,5.0,2155.576,6.0,4.0,184.0,7.0,1.0,1.2,0.7,Time
,,S59,1,男,20,anonymized,Serial_Dependence_U,2023.2.3,Win32,166.66666666666666,,,,,,2155.5762999999524,161.0,6.0,2155.5762999999524,161.0,,,,2159.133100000143,2159.631700000048,2158.626600000143,2159.133,2156.589400000096,2158.626400000095,2159.631700000048,2160.130799999952,2160.130900000095,2164.0062999999523,3266.0,2164.0062999999523,5.0,2164.010700000048,6.0,5.0,185.0,16.0,1.0,1.0,0.7,Time
,,S59,1,男,20,anonymized,Serial_Dependence_U,2023.2.3,Win32,166.66666666666666,,,,,,2164.011,28.0,6.0,2164.011,28.0,,,,2168.186200000048,2168.6834000000954,2167.679100000143,2168.186200000048,2165.017,2167.679,2168.6834000000954,2169.184,2169.184,2173.6895,3849.0,2173.689600000143,5.0,2173.694400000096,6.0,6.0,186.0,4.0,1.0,1.6,0.3,Time
,,S59,1,男,20,anonymized,Serial_Dependence_U,2023.2.3,Win32,166.66666666666666,,,,,,2173.694700000048,142.0,6.0,2173.694700000048,142.0,,,,2177.228,2177.7252999999523,2176.7252999999523,2177.227900000096,2174.6937999999523,2176.725200000048,2177.7252999999523,2178.222,2178.222100000143,2184.128900000095,4139.0,2184.128900000095,5.0,2184.1342999999524,6.0,7.0,187.0,6.0,1.0,1.0,0.7,Time
,,S59,1,男,20,anonymized,Serial_Dependence_U,2023.2.3,Win32,166.66666666666666,,,,,,2184.134700000048,109.0,6.0,2184.134799999952,109.0,,,,2188.324,2188.823,2187.8124000000957,2188.323900000096,2185.140600000143,2187.8124000000957,2188.823,2189.3235,2189.3235,2194.100100000143,4086.0,2194.100200000048,5.0,2194.1045,6.0,8.0,188.0,14.0,1.0,1.6,0.3,Time
,,S59,1,男,20,anonymized,Serial_Dependence_U,2023.2.3,Win32,166.66666666666666,,,,,,2194.104700000048,42.0,6.0,2194.104700000048,42.0,,,,2197.4445,2197.943100000143,2196.9375,2197.444400000096,2195.102600000143,2196.9375,2197.943100000143,2198.439600000143,2198.439600000143,2201.647700000048,2757.0,2201.6477999999524,5.0,2201.6522999999524,6.0,9.0,189.0,25.0,1.0,0.8,0.7,Time
,,S59,1,男,20,anonymized,Serial_Dependence_U,2023.2.3,Win32,166.66666666666666,,,,,,2201.6524000000954,213.0,6.0,2201.652600000143,213.0,,,,2205.0015,2205.499299999952,2204.4995,2205.001400000095,2202.6625,2204.4995,2205.499400000095,2206.0012000000474,2206.001299999952,2210.974299999952,4227.0,2210.974400000095,5.0,2210.9787000000474,6.0,10.0,190.0,15.0,1.0,0.8,0.7,Time
,,S59,1,男,20,anonymized,Serial_Dependence_U,2023.2.3,Win32,166.66666666666666,,,,,,2210.978900000095,312.0,6.0,2210.979,312.0,,,,2214.5555,2215.054900000095,2214.0527000000475,2214.5555,2211.988100000143,2214.052600000143,2215.054900000095,2215.550299999952,2215.550400000095,2219.8179000000955,3867.0,2219.8179000000955,5.0,2219.822299999952,6.0,11.0,191.0,1.0,1.0,1.0,0.3,Time
,,S59,1,男,20,anonymized,Serial_Dependence_U,2023.2.3,Win32,166.66666666666666,,,,,,2219.8225,171.0,6.0,2219.822600000143,171.0,,,,2223.802,2224.303,2223.2947999999524,2223.802,2220.822799999952,2223.294700000048,2224.303100000143,2224.8002000000474,2224.800299999952,2229.4394000000952,4278.0,2229.4394000000952,5.0,2229.444,6.0,12.0,192.0,13.0,1.0,1.4,0.3,Time
,,S59,1,男,20,anonymized,Serial_Dependence_U,2023.2.3,Win32,166.66666666666666,,,,,,2229.444200000048,12.0,6.0,2229.4442999999524,12.0,,,,2233.588600000143,2234.085200000048,2233.079600000143,2233.588600000143,2230.445900000095,2233.0795,2234.0852999999524,2234.585100000143,2234.585100000143,2239.2879000000958,4180.0,2239.2879000000958,5.0,2239.292700000048,6.0,13.0,193.0,19.0,1.0,1.6,0.7,Time
,,S59,1,男,20,anonymized,Serial_Dependence_U,2023.2.3,Win32,166.66666666666666,,,,,,2239.2929000000954,314.0,6.0,2239.2929000000954,314.0,,,,2243.26,2243.755799999952,2242.7567999999524,2243.2599000000955,2240.2924000000958,2242.756700000048,2243.755799999952,2244.252700000048,2244.2527999999525,2248.622299999952,3955.0,2248.622299999952,5.0,2248.626600000143,6.0,14.0,194.0,23.0,1.0,1.4,0.3,Time
,,S59,1,男,20,anonymized,Serial_Dependence_U,2023.2.3,Win32,166.66666666666666,,,,,,2248.6267999999523,294.0,6.0,2248.6267999999523,294.0,,,,2252.566600000143,2253.062700000048,2252.066,2252.5665,2249.6275,2252.065900000095,2253.0627999999524,2253.559,2253.559100000143,2257.7785,3676.0,2257.7785,5.0,2257.7827000000475,6.0,15.0,195.0,28.0,1.0,1.4,0.7,Time
,,S59,1,男,20,anonymized,Serial_Dependence_U,2023.2.3,Win32,166.66666666666666,,,,,,2257.783,275.0,6.0,2257.783,275.0,,,,2261.764200000048,2262.2647000000475,2261.261700000048,2261.764100000143,2258.7954000000955,2261.261600000143,2262.2647000000475,2262.760299999952,2262.760299999952,2267.28,4077.0,2267.280100000143,5.0,2267.284600000143,6.0,16.0,196.0,3.0,1.0,1.4,0.3,Time
,,S59,1,男,20,anonymized,Serial_Dependence_U,2023.2.3,Win32,166.66666666666666,,,,,,2267.284799999952,26.0,6.0,2267.284799999952,26.0,,,,2271.017900000096,2271.515600000143,2270.5164000000955,2271.0177999999523,2268.2802000000474,2270.5164000000955,2271.515600000143,2272.0115,2272.011600000143,2279.393100000143,3781.0,2279.393200000048,5.0,2279.3985,6.0,17.0,197.0,17.0,1.0,1.2,0.7,Time
,,S59,1,男,20,anonymized,Serial_Dependence_U,2023.2.3,Win32,166.66666666666666,,,,,,2279.3987000000475,302.0,6.0,2279.3987000000475,302.0,,,,2282.729600000143,2283.2265,2282.226200000048,2282.7295,2280.395,2282.226100000143,2283.2265,2283.7225,2283.7225,2287.1652999999524,2970.0,2287.1652999999524,5.0,2287.169700000048,6.0,18.0,198.0,5.0,1.0,0.8,0.7,Time
,,S59,1,男,20,anonymized,Serial_Dependence_U,2023.2.3,Win32,166.66666666666666,,,,,,2287.1697999999524,350.0,6.0,2287.169900000096,350.0,,,,2291.106700000048,2291.607100000143,2290.606400000095,2291.106700000048,2288.175600000143,2290.606299999952,2291.607100000143,2292.1034000000955,2292.1035,2294.9265,2496.0,2294.9265,5.0,2294.931100000143,6.0,19.0,199.0,18.0,1.0,1.4,0.7,Time
,,S59,1,男,20,anonymized,Serial_Dependence_U,2023.2.3,Win32,166.66666666666666,,,,,,2294.931200000048,312.0,6.0,2294.9312999999524,312.0,,,,2298.307600000143,2298.8052000000475,2297.805700000048,2298.307400000095,2295.944400000096,2297.8055,2298.8052000000475,2299.300799999952,2299.300799999952,2302.781700000048,3066.0,2302.7817999999525,5.0,2302.7862999999525,6.0,20.0,200.0,0.0,1.0,0.8,0.3,Time
,,S59,1,男,20,anonymized,Serial_Dependence_U,2023.2.3,Win32,166.66666666666666,,,,,,2302.7865,234.0,6.0,2302.7865,234.0,,,,2306.358100000143,2306.8587000000475,2305.8552999999524,2306.358,2303.791600000143,2305.855200000048,2306.8587000000475,2307.356600000143,2307.356600000143,2312.1895,4400.0,2312.1895,5.0,2312.194,6.0,21.0,201.0,11.0,1.0,1.0,0.3,Time
,,S59,1,男,20,anonymized,Serial_Dependence_U,2023.2.3,Win32,166.66666666666666,,,,,,2312.194200000048,137.0,6.0,2312.194200000048,137.0,,,,2316.3587000000475,2316.854600000143,2315.8572999999524,2316.358600000143,2313.188799999952,2315.8572999999524,2316.854600000143,2317.353600000143,2317.353600000143,2322.3044000000955,4299.0,2322.3044000000955,5.0,2322.309,6.0,22.0,202.0,24.0,1.0,1.6,0.3,Time
,,S59,1,男,20,anonymized,Serial_Dependence_U,2023.2.3,Win32,166.66666666666666,,,,,,2322.3092000000474,79.0,6.0,2322.309299999952,79.0,,,,2326.0537999999524,2326.550299999952,2325.5517999999524,2326.0537999999524,2323.316299999952,2325.551700000048,2326.550299999952,2327.051700000048,2327.051700000048,2331.2817999999525,3803.0,2331.2817999999525,5.0,2331.2865,6.0,23.0,203.0,27.0,1.0,1.2,0.7,Time
,,S59,1,男,20,anonymized,Serial_Dependence_U,2023.2.3,Win32,166.66666666666666,,,,,,2331.286799999952,273.0,6.0,2331.286900000095,273.0,,,,2334.856400000095,2335.3527999999524,2334.351900000095,2334.856400000095,2332.289100000143,2334.351900000095,2335.3527999999524,2335.8502999999523,2335.8502999999523,2340.4492999999525,4082.0,2340.4494000000955,5.0,2340.4537999999525,6.0,24.0,204.0,21.0,1.0,1.0,0.3,Time
,,S59,1,男,20,anonymized,Serial_Dependence_U,2023.2.3,Win32,166.66666666666666,,,,,,2340.454,88.0,6.0,2340.4542000000474,88.0,,,,2343.822799999952,2344.322799999952,2343.321100000143,2343.822799999952,2341.455600000143,2343.321,2344.322799999952,2344.822299999952,2344.822299999952,2349.611200000048,4094.0,2349.611200000048,5.0,2349.615600000143,6.0,25.0,205.0,10.0,1.0,0.8,0.3,Time
,,S59,1,男,20,anonymized,Serial_Dependence_U,2023.2.3,Win32,166.66666666666666,,,,,,2349.6157999999523,340.0,6.0,2349.6159000000957,340.0,,,,2353.772400000096,2354.2667000000474,2353.264,2353.772400000096,2350.625200000048,2353.264,2354.2667000000474,2354.763100000143,2354.763100000143,2359.899200000048,4221.0,2359.8992999999523,5.0,2359.903700000048,6.0,26.0,206.0,29.0,1.0,1.6,0.7,Time
,,S59,1,男,20,anonymized,Serial_Dependence_U,2023.2.3,Win32,166.66666666666666,,,,,,2359.9039000000957,34.0,6.0,2359.904,34.0,,,,2363.676200000048,2364.175799999952,2363.1739000000957,2363.676200000048,2360.911,2363.1739000000957,2364.175799999952,2364.6731000001428,2364.6732000000475,2368.5157999999524,3679.0,2368.515900000096,5.0,2368.5205,6.0,27.0,207.0,2.0,1.0,1.2,0.3,Time
,,S59,1,男,20,anonymized,Serial_Dependence_U,2023.2.3,Win32,166.66666666666666,,,,,,2368.520600000143,346.0,6.0,2368.520600000143,346.0,,,,2372.657600000143,2373.1557999999523,2372.152600000143,2372.6575,2369.520700000048,2372.152600000143,2373.1557999999523,2373.6557000000475,2373.6557999999523,2377.719799999952,3692.0,2377.719900000095,5.0,2377.7242000000474,6.0,28.0,208.0,9.0,1.0,1.6,0.7,Time
,,S59,1,男,20,anonymized,Serial_Dependence_U,2023.2.3,Win32,166.66666666666666,,,,,,2377.724299999952,355.0,6.0,2377.724400000095,355.0,,,,2381.499700000048,2381.9985,2380.9915,2381.499700000048,2378.724400000095,2380.9915,2381.998600000143,2382.504100000143,2382.504100000143,2386.869900000095,3673.0,2386.87,5.0,2386.8749000000957,6.0,29.0,209.0,12.0,1.0,1.2,0.3,Time
,,S59,1,男,20,anonymized,Serial_Dependence_U,2023.2.3,Win32,166.66666666666666,,,,,,2386.8752999999524,255.0,7.0,2390.459700000048,255.0,s,3.573200000047564,,2393.805900000096,2394.304,2393.299100000143,2393.805900000096,2391.462799999952,2393.299,2394.304100000143,2394.804200000048,2394.804299999952,2398.551100000143,3671.0,2398.551100000143,5.0,2398.5555,7.0,0.0,210.0,25.0,1.0,0.8,0.7,Time
,,S59,1,男,20,anonymized,Serial_Dependence_U,2023.2.3,Win32,166.66666666666666,,,,,,2398.555700000048,92.0,7.0,2398.5564000000954,92.0,,,,2401.922,2402.4215,2401.418900000095,2401.921900000096,2399.5572000000475,2401.418900000095,2402.4215,2402.9184000000955,2402.9184000000955,2406.6507000000474,3469.0,2406.6507000000474,5.0,2406.655299999952,7.0,1.0,211.0,20.0,1.0,0.8,0.3,Time
,,S59,1,男,20,anonymized,Serial_Dependence_U,2023.2.3,Win32,166.66666666666666,,,,,,2406.6555,320.0,7.0,2406.6555,320.0,,,,2410.232400000096,2410.73,2409.730700000048,2410.232400000096,2407.663,2409.730600000143,2410.730200000048,2411.232100000143,2411.232200000048,2415.1712000000475,3575.0,2415.171299999952,5.0,2415.175799999952,7.0,2.0,212.0,1.0,1.0,1.0,0.3,Time
,,S59,1,男,20,anonymized,Serial_Dependence_U,2023.2.3,Win32,166.66666666666666,,,,,,2415.175900000095,198.0,7.0,2415.175900000095,198.0,,,,2418.9392000000475,2419.435,2418.4367000000475,2418.939100000143,2416.170100000143,2418.4365,2419.435100000143,2419.932100000143,2419.932299999952,2423.956799999952,3696.0,2423.956799999952,5.0,2423.961100000143,7.0,3.0,213.0,12.0,1.0,1.2,0.3,Time
,,S59,1,男,20,anonymized,Serial_Dependence_U,2023.2.3,Win32,166.66666666666666,,,,,,2423.961400000095,207.0,7.0,2423.961400000095,207.0,,,,2428.128400000095,2428.6275,2427.627700000048,2428.128299999952,2424.963,2427.627700000048,2428.6275,2429.135600000143,2429.135600000143,2433.0724000000955,3539.0,2433.0724000000955,5.0,2433.0769000000955,7.0,4.0,214.0,14.0,1.0,1.6,0.3,Time
,,S59,1,男,20,anonymized,Serial_Dependence_U,2023.2.3,Win32,166.66666666666666,,,,,,2433.077,281.0,7.0,2433.0771000001428,281.0,,,,2436.6462000000474,2437.135700000048,2436.143,2436.646100000143,2434.080400000096,2436.143,2437.135700000048,2437.6342999999524,2437.6344000000954,2441.1589000000954,3091.0,2441.1589000000954,5.0,2441.163700000048,7.0,5.0,215.0,11.0,1.0,1.0,0.3,Time
,,S59,1,男,20,anonymized,Serial_Dependence_U,2023.2.3,Win32,166.66666666666666,,,,,,2441.163799999952,248.0,7.0,2441.1639000000955,248.0,,,,2444.541900000095,2445.0409000000955,2444.031200000048,2444.541900000095,2442.165,2444.031100000143,2445.0409000000955,2445.5384000000954,2445.5385,2449.292600000143,3384.0,2449.292600000143,5.0,2449.297600000143,7.0,6.0,216.0,10.0,1.0,0.8,0.3,Time
,,S59,1,男,20,anonymized,Serial_Dependence_U,2023.2.3,Win32,166.66666666666666,,,,,,2449.2979000000955,52.0,7.0,2449.2979000000955,52.0,,,,2452.673,2453.1744000000954,2452.1652999999524,2452.673,2450.296299999952,2452.1652999999524,2453.1744000000954,2453.67,2453.67,2457.6459000000955,3607.0,2457.646,5.0,2457.650299999952,7.0,7.0,217.0,0.0,1.0,0.8,0.3,Time
,,S59,1,男,20,anonymized,Serial_Dependence_U,2023.2.3,Win32,166.66666666666666,,,,,,2457.6505,8.0,7.0,2457.6505,8.0,,,,2461.184799999952,2461.681200000048,2460.681,2461.1847000000475,2458.650600000143,2460.680900000096,2461.6812999999524,2462.1785,2462.178600000143,2466.125100000143,3232.0,2466.125200000048,5.0,2466.130200000048,7.0,8.0,218.0,6.0,1.0,1.0,0.7,Time
,,S59,1,男,20,anonymized,Serial_Dependence_U,2023.2.3,Win32,166.66666666666666,,,,,,2466.1304000000955,130.0,7.0,2466.1304000000955,130.0,,,,2470.072799999952,2470.573,2469.5705,2470.072799999952,2467.1335,2469.5705,2470.573,2471.073100000143,2471.073100000143,2474.659900000095,3209.0,2474.659900000095,5.0,2474.664299999952,7.0,9.0,219.0,8.0,1.0,1.4,0.7,Time
,,S59,1,男,20,anonymized,Serial_Dependence_U,2023.2.3,Win32,166.66666666666666,,,,,,2474.664600000143,179.0,7.0,2474.664600000143,179.0,,,,2478.635700000048,2479.1375,2478.127700000048,2478.635700000048,2475.666600000143,2478.127700000048,2479.1375,2479.633600000143,2479.633700000048,2483.4882000000475,3536.0,2483.488299999952,5.0,2483.493,7.0,10.0,220.0,23.0,1.0,1.4,0.3,Time
,,S59,1,男,20,anonymized,Serial_Dependence_U,2023.2.3,Win32,166.66666666666666,,,,,,2483.493200000048,248.0,7.0,2483.493200000048,248.0,,,,2487.4559000000954,2487.9527999999523,2486.951100000143,2487.4559000000954,2484.4902000000475,2486.951100000143,2487.9527999999523,2488.455100000143,2488.455100000143,2492.5445,3795.0,2492.5445,5.0,2492.5492999999524,7.0,11.0,221.0,13.0,1.0,1.4,0.3,Time
,,S59,1,男,20,anonymized,Serial_Dependence_U,2023.2.3,Win32,166.66666666666666,,,,,,2492.5495,275.0,7.0,2492.5495,275.0,,,,2496.527100000143,2497.0255,2496.0184000000954,2496.527,2493.5524000000955,2496.0182999999524,2497.0255,2497.523,2497.523,2501.2989000000957,3179.0,2501.2989000000957,5.0,2501.3032999999523,7.0,12.0,222.0,3.0,1.0,1.4,0.3,Time
,,S59,1,男,20,anonymized,Serial_Dependence_U,2023.2.3,Win32,166.66666666666666,,,,,,2501.3034000000957,351.0,7.0,2501.3035,351.0,,,,2505.0519000000954,2505.550900000095,2504.545,2505.0517999999524,2502.307700000048,2504.545,2505.550900000095,2506.046900000096,2506.047,2510.17,3475.0,2510.17,5.0,2510.1749000000955,7.0,13.0,223.0,17.0,1.0,1.2,0.7,Time
,,S59,1,男,20,anonymized,Serial_Dependence_U,2023.2.3,Win32,166.66666666666666,,,,,,2510.175100000143,233.0,7.0,2510.175100000143,233.0,,,,2514.316299999952,2514.813100000143,2513.815600000143,2514.3162000000475,2511.1807999999523,2513.8155,2514.813100000143,2515.3117000000475,2515.3117000000475,2519.947900000095,4259.0,2519.948,5.0,2519.9527999999523,7.0,14.0,224.0,19.0,1.0,1.6,0.7,Time
,,S59,1,男,20,anonymized,Serial_Dependence_U,2023.2.3,Win32,166.66666666666666,,,,,,2519.953,195.0,7.0,2519.953,195.0,,,,2524.090799999952,2524.5924000000955,2523.589600000143,2524.0907000000475,2520.9564000000955,2523.5895,2524.5925,2525.090299999952,2525.090400000095,2529.0072999999525,3705.0,2529.0074000000955,5.0,2529.0119000000955,7.0,15.0,225.0,29.0,1.0,1.6,0.7,Time
,,S59,1,男,20,anonymized,Serial_Dependence_U,2023.2.3,Win32,166.66666666666666,,,,,,2529.012100000143,11.0,7.0,2529.0122000000474,11.0,,,,2532.788,2533.2895,2532.282100000143,2532.788,2530.013,2532.282100000143,2533.289600000143,2533.791100000143,2533.7912000000474,2537.110299999952,2900.0,2537.1104000000955,5.0,2537.115,7.0,16.0,226.0,22.0,1.0,1.2,0.3,Time
,,S59,1,男,20,anonymized,Serial_Dependence_U,2023.2.3,Win32,166.66666666666666,,,,,,2537.115100000143,204.0,7.0,2537.1152000000475,204.0,,,,2541.052,2541.554200000048,2540.5445,2541.0519000000954,2538.1127000000474,2540.5445,2541.554200000048,2542.055700000048,2542.0557999999523,2550.267900000096,3938.0,2550.267900000096,5.0,2550.272200000048,7.0,17.0,227.0,18.0,1.0,1.4,0.7,Time
,,S59,1,男,20,anonymized,Serial_Dependence_U,2023.2.3,Win32,166.66666666666666,,,,,,2550.272400000096,278.0,7.0,2550.272400000096,278.0,,,,2554.440600000143,2554.9394000000952,2553.9365,2554.4404000000955,2551.2744000000957,2553.936299999952,2554.9395,2555.436799999952,2555.436799999952,2561.332200000048,4606.0,2561.332200000048,5.0,2561.3369000000957,7.0,18.0,228.0,24.0,1.0,1.6,0.3,Time
,,S59,1,男,20,anonymized,Serial_Dependence_U,2023.2.3,Win32,166.66666666666666,,,,,,2561.337100000143,181.0,7.0,2561.337200000048,181.0,,,,2564.9057999999523,2565.403,2564.401900000096,2564.9057000000475,2562.3362000000475,2564.401900000096,2565.403100000143,2565.8992999999523,2565.8992999999523,2571.027100000143,3633.0,2571.027100000143,5.0,2571.031400000096,7.0,19.0,229.0,21.0,1.0,1.0,0.3,Time
,,S59,1,男,20,anonymized,Serial_Dependence_U,2023.2.3,Win32,166.66666666666666,,,,,,2571.031600000143,291.0,7.0,2571.031600000143,291.0,,,,2574.805100000143,2575.301400000096,2574.300100000143,2574.805,2572.036,2574.3,2575.3015,2575.7985,2575.7985,2579.0552000000475,2801.0,2579.055299999952,5.0,2579.06,7.0,20.0,230.0,2.0,1.0,1.2,0.3,Time
,,S59,1,男,20,anonymized,Serial_Dependence_U,2023.2.3,Win32,166.66666666666666,,,,,,2579.060200000048,55.0,7.0,2579.060200000048,55.0,,,,2582.816100000143,2583.313299999952,2582.305900000096,2582.816100000143,2580.071,2582.3057999999523,2583.313299999952,2583.810700000048,2583.810700000048,2589.072900000095,3589.0,2589.073,5.0,2589.077299999952,7.0,21.0,231.0,27.0,1.0,1.2,0.7,Time
,,S59,1,男,20,anonymized,Serial_Dependence_U,2023.2.3,Win32,166.66666666666666,,,,,,2589.077400000095,134.0,7.0,2589.0775,134.0,,,,2592.624299999952,2593.120600000143,2592.1234000000954,2592.6242000000475,2590.0844000000952,2592.1232999999525,2593.120700000048,2593.619799999952,2593.619799999952,2598.0727000000475,3513.0,2598.0727000000475,5.0,2598.0769000000955,7.0,22.0,232.0,26.0,1.0,1.0,0.7,Time
,,S59,1,男,20,anonymized,Serial_Dependence_U,2023.2.3,Win32,166.66666666666666,,,,,,2598.0771000001428,147.0,7.0,2598.0772000000475,147.0,,,,2601.6304000000955,2602.125799999952,2601.121799999952,2601.630299999952,2599.0844000000952,2601.121799999952,2602.1259000000955,2602.628900000095,2602.629,2606.5012000000474,2751.0,2606.501299999952,5.0,2606.5055,7.0,23.0,233.0,16.0,1.0,1.0,0.7,Time
,,S59,1,男,20,anonymized,Serial_Dependence_U,2023.2.3,Win32,166.66666666666666,,,,,,2606.5057000000475,294.0,7.0,2606.5057000000475,294.0,,,,2610.681700000048,2611.1794000000955,2610.1794000000955,2610.681600000143,2607.5139000000954,2610.1794000000955,2611.1795,2611.676100000143,2611.676200000048,2616.0695,3430.0,2616.069600000143,5.0,2616.073700000048,7.0,24.0,234.0,4.0,1.0,1.6,0.3,Time
,,S59,1,男,20,anonymized,Serial_Dependence_U,2023.2.3,Win32,166.66666666666666,,,,,,2616.073900000096,302.0,7.0,2616.074,302.0,,,,2619.4094000000955,2619.909100000143,2618.9042999999524,2619.4094000000955,2617.0727000000475,2618.9042999999524,2619.909100000143,2620.4072000000474,2620.4072000000474,2625.0322000000474,3592.0,2625.0322000000474,5.0,2625.0372000000475,7.0,25.0,235.0,5.0,1.0,0.8,0.7,Time
,,S59,1,男,20,anonymized,Serial_Dependence_U,2023.2.3,Win32,166.66666666666666,,,,,,2625.037400000095,95.0,7.0,2625.037400000095,95.0,,,,2628.368600000143,2628.867,2627.867100000143,2628.3685,2626.035200000048,2627.867100000143,2628.867,2629.3614000000957,2629.3615,2633.422700000048,3115.0,2633.422799999952,5.0,2633.428100000143,7.0,26.0,236.0,15.0,1.0,0.8,0.7,Time
,,S59,1,男,20,anonymized,Serial_Dependence_U,2023.2.3,Win32,166.66666666666666,,,,,,2633.4284000000957,88.0,7.0,2633.4284000000957,88.0,,,,2637.578600000143,2638.0744000000955,2637.076,2637.5785,2634.4342000000474,2637.076,2638.0744000000955,2638.570400000095,2638.570400000095,2642.798600000143,3414.0,2642.798600000143,5.0,2642.803100000143,7.0,27.0,237.0,9.0,1.0,1.6,0.7,Time
,,S59,1,男,20,anonymized,Serial_Dependence_U,2023.2.3,Win32,166.66666666666666,,,,,,2642.8032999999523,209.0,7.0,2642.8032999999523,209.0,,,,2646.538200000048,2647.0385,2646.037100000143,2646.538100000143,2643.804799999952,2646.037,2647.0385,2647.533700000048,2647.533700000048,2653.228799999952,4096.0,2653.228900000095,5.0,2653.233600000143,7.0,28.0,238.0,7.0,1.0,1.2,0.7,Time
,,S59,1,男,20,anonymized,Serial_Dependence_U,2023.2.3,Win32,166.66666666666666,,,,,,2653.233799999952,179.0,7.0,2653.233900000095,179.0,,,,2657.1805,2657.678,2656.679900000095,2657.1804000000952,2654.241200000048,2656.679799999952,2657.678,2658.1795,2658.1795,2662.940100000143,4227.0,2662.940100000143,5.0,2662.944600000143,7.0,29.0,239.0,28.0,1.0,1.4,0.7,Time
,,S59,1,男,20,anonymized,Serial_Dependence_U,2023.2.3,Win32,166.66666666666666,,,,,,2662.944700000048,53.0,8.0,2710.2039000000955,53.0,s,47.24429999995255,,2713.7892000000475,2714.286200000048,2713.284,2713.789,2711.218100000143,2713.284,2714.2862999999525,2714.789400000095,2714.789400000095,2718.5662000000475,3411.0,2718.5662000000475,5.0,2718.570299999952,8.0,0.0,240.0,1.0,1.0,1.0,0.3,Time
,,S59,1,男,20,anonymized,Serial_Dependence_U,2023.2.3,Win32,166.66666666666666,,,,,,2718.570600000143,69.0,8.0,2718.5712999999523,69.0,,,,2722.141600000143,2722.643799999952,2721.633700000048,2722.141600000143,2719.5712999999523,2721.633700000048,2722.643799999952,2723.1414000000955,2723.1415,2727.2554000000955,3655.0,2727.2555,5.0,2727.259799999952,8.0,1.0,241.0,21.0,1.0,1.0,0.3,Time
,,S59,1,男,20,anonymized,Serial_Dependence_U,2023.2.3,Win32,166.66666666666666,,,,,,2727.26,13.0,8.0,2727.26,13.0,,,,2730.602700000048,2731.101100000143,2730.0959000000958,2730.602600000143,2728.260400000095,2730.0959000000958,2731.101100000143,2731.598200000048,2731.598200000048,2735.2027999999523,3234.0,2735.2027999999523,5.0,2735.2074000000957,8.0,2.0,242.0,5.0,1.0,0.8,0.7,Time
,,S59,1,男,20,anonymized,Serial_Dependence_U,2023.2.3,Win32,166.66666666666666,,,,,,2735.207600000143,80.0,8.0,2735.207700000048,80.0,,,,2738.570900000095,2739.070100000143,2738.065600000143,2738.570900000095,2736.204100000143,2738.065600000143,2739.0702000000474,2739.567200000048,2739.5674000000954,2743.114200000048,2808.0,2743.1142999999524,5.0,2743.118600000143,8.0,3.0,243.0,10.0,1.0,0.8,0.3,Time
,,S59,1,男,20,anonymized,Serial_Dependence_U,2023.2.3,Win32,166.66666666666666,,,,,,2743.1187999999524,3.0,8.0,2743.1187999999524,3.0,,,,2747.061600000143,2747.5579000000957,2746.552299999952,2747.061600000143,2744.1209000000954,2746.552200000048,2747.558,2748.058100000143,2748.058100000143,2753.351600000143,4222.0,2753.3517000000475,5.0,2753.3559000000955,8.0,4.0,244.0,8.0,1.0,1.4,0.7,Time
,,S59,1,男,20,anonymized,Serial_Dependence_U,2023.2.3,Win32,166.66666666666666,,,,,,2753.356100000143,106.0,8.0,2753.3562000000475,106.0,,,,2756.72,2757.2174000000955,2756.2192999999525,2756.72,2754.3565,2756.219200000048,2757.2174000000955,2757.714400000096,2757.714400000096,2761.9089000000954,3335.0,2761.9089000000954,5.0,2761.913600000143,8.0,5.0,245.0,20.0,1.0,0.8,0.3,Time
,,S59,1,男,20,anonymized,Serial_Dependence_U,2023.2.3,Win32,166.66666666666666,,,,,,2761.913799999952,235.0,8.0,2761.9139000000955,235.0,,,,2766.087600000143,2766.586100000143,2765.578400000096,2766.087600000143,2762.912600000143,2765.578400000096,2766.586100000143,2767.087100000143,2767.087100000143,2772.2924000000958,4205.0,2772.2924000000958,5.0,2772.296600000143,8.0,6.0,246.0,14.0,1.0,1.6,0.3,Time
,,S59,1,男,20,anonymized,Serial_Dependence_U,2023.2.3,Win32,166.66666666666666,,,,,,2772.296900000096,279.0,8.0,2772.296900000096,279.0,,,,2775.848600000143,2776.3479000000957,2775.346600000143,2775.8485,2773.306200000048,2775.3465,2776.3479000000957,2776.845,2776.845100000143,2782.151299999952,3352.0,2782.151299999952,5.0,2782.156,8.0,7.0,247.0,6.0,1.0,1.0,0.7,Time
,,S59,1,男,20,anonymized,Serial_Dependence_U,2023.2.3,Win32,166.66666666666666,,,,,,2782.156200000048,180.0,8.0,2782.156200000048,180.0,,,,2786.337799999952,2786.8334000000955,2785.829,2786.337799999952,2783.164,2785.829,2786.8334000000955,2787.333100000143,2787.333100000143,2793.5364000000955,4090.0,2793.5364000000955,5.0,2793.540700000048,8.0,8.0,248.0,24.0,1.0,1.6,0.3,Time
,,S59,1,男,20,anonymized,Serial_Dependence_U,2023.2.3,Win32,166.66666666666666,,,,,,2793.541,9.0,8.0,2793.541,9.0,,,,2797.4799000000958,2797.9777999999524,2796.973400000096,2797.4799000000958,2794.5402999999524,2796.9732999999524,2797.977900000096,2798.479299999952,2798.479400000095,2803.3075,4180.0,2803.307600000143,5.0,2803.311900000095,8.0,9.0,249.0,28.0,1.0,1.4,0.7,Time
,,S59,1,男,20,anonymized,Serial_Dependence_U,2023.2.3,Win32,166.66666666666666,,,,,,2803.312100000143,196.0,8.0,2803.312100000143,196.0,,,,2807.274700000048,2807.7762000000475,2806.770700000048,2807.274600000143,2804.3097000000475,2806.770700000048,2807.7762000000475,2808.272100000143,2808.272200000048,2811.8525,3435.0,2811.852600000143,5.0,2811.857,8.0,10.0,250.0,3.0,1.0,1.4,0.3,Time
,,S59,1,男,20,anonymized,Serial_Dependence_U,2023.2.3,Win32,166.66666666666666,,,,,,2811.857100000143,35.0,8.0,2811.8572999999524,35.0,,,,2815.798,2816.293900000095,2815.289,2815.798,2812.858,2815.289,2816.293900000095,2816.791900000095,2816.791900000095,2821.9125,4379.0,2821.9125,5.0,2821.916900000095,8.0,11.0,251.0,18.0,1.0,1.4,0.7,Time
,,S59,1,男,20,anonymized,Serial_Dependence_U,2023.2.3,Win32,166.66666666666666,,,,,,2821.917100000143,66.0,8.0,2821.917100000143,66.0,,,,2825.2915,2825.788200000048,2824.789100000143,2825.2915,2822.9224000000954,2824.789100000143,2825.788200000048,2826.287400000095,2826.2875,2830.396,3373.0,2830.396100000143,5.0,2830.4005,8.0,12.0,252.0,0.0,1.0,0.8,0.3,Time
,,S59,1,男,20,anonymized,Serial_Dependence_U,2023.2.3,Win32,166.66666666666666,,,,,,2830.4007000000474,333.0,8.0,2830.4007000000474,333.0,,,,2833.968700000048,2834.4669000000954,2833.4617999999523,2833.968700000048,2831.4007000000474,2833.4617999999523,2834.4669000000954,2834.9647999999524,2834.9649000000954,2839.330400000096,3287.0,2839.330400000096,5.0,2839.334700000048,8.0,13.0,253.0,11.0,1.0,1.0,0.3,Time
,,S59,1,男,20,anonymized,Serial_Dependence_U,2023.2.3,Win32,166.66666666666666,,,,,,2839.334900000096,321.0,8.0,2839.335,321.0,,,,2843.3084000000954,2843.8057999999523,2842.807299999952,2843.3084000000954,2840.339,2842.8072000000475,2843.8057999999523,2844.3037999999524,2844.3039000000954,2848.9419000000958,3358.0,2848.9419000000958,5.0,2848.946200000048,8.0,14.0,254.0,23.0,1.0,1.4,0.3,Time
,,S59,1,男,20,anonymized,Serial_Dependence_U,2023.2.3,Win32,166.66666666666666,,,,,,2848.9464000000958,346.0,8.0,2848.9464000000958,346.0,,,,2852.7177000000474,2853.2182999999523,2852.2129000000955,2852.7177000000474,2849.949600000143,2852.2129000000955,2853.2182999999523,2853.710799999952,2853.710799999952,2858.394400000095,2963.0,2858.394400000095,5.0,2858.399100000143,8.0,15.0,255.0,2.0,1.0,1.2,0.3,Time
,,S59,1,男,20,anonymized,Serial_Dependence_U,2023.2.3,Win32,166.66666666666666,,,,,,2858.3994000000957,270.0,8.0,2858.3994000000957,270.0,,,,2861.9417999999523,2862.442100000143,2861.441,2861.941700000048,2859.398900000095,2861.441,2862.442200000048,2862.943,2862.943,2867.1185,3075.0,2867.1185,5.0,2867.1227999999523,8.0,16.0,256.0,26.0,1.0,1.0,0.7,Time
,,S59,1,男,20,anonymized,Serial_Dependence_U,2023.2.3,Win32,166.66666666666666,,,,,,2867.123,327.0,8.0,2867.123,327.0,,,,2871.2979000000955,2871.789,2870.790200000048,2871.297799999952,2868.127600000143,2870.790100000143,2871.789,2872.2854000000957,2872.2855,2877.2634000000958,3878.0,2877.2635,5.0,2877.267900000096,8.0,17.0,257.0,4.0,1.0,1.6,0.3,Time
