Scale_setup.started,Scale_setup.stopped,participant,session,sex,age,date,expName,psychopyVersion,OS,frameRate,Intro.started,Intro.stopped,key_resp_2.keys,key_resp_2.rt,key_resp_2.duration,block.started,direction,Block_id,block.stopped,trial_direction,Block_resp_2.keys,Block_resp_2.rt,Block_resp_2.duration,ITI.started,ITI.stopped,Mask_2.started,Mask_2.stopped,encoding.started,encoding.stopped,Cue.started,Cue.stopped,Response.started,Response.stopped,keyDuration,Feedback_Time.started,FeedbackID_T,Feedback_Time.stopped,trials.thisRepN,trials.thisTrialN,trials.thisN,trials.thisIndex,trials.ran,TimeDur,Coherence1,TrialType
0.0004999999999952,0.0007000000476793,S60,1,女,21,anonymized,Serial_Dependence_U,2023.2.3,Win32,60.24096385542697,,,,,,,,,,,,,,,,,,,,,,,,,,,,,,,,,,,
,,S60,1,女,21,anonymized,Serial_Dependence_U,2023.2.3,Win32,60.24096385542697,110.44629999995227,112.00990000009534,space,1.5257999999523122,,,,,,,,,,,,,,,,,,,,,,,,,,,,,,,
,,S60,1,女,21,anonymized,Serial_Dependence_U,2023.2.3,Win32,60.24096385542697,,,,,,112.01899999999998,325.0,0.0,114.59120000004768,325.0,s,2.551100000143066,,118.19570000004768,118.68820000004766,117.68040000009536,118.19540000009536,115.61520000004768,117.68010000014304,118.68860000014304,119.18770000004768,119.18820000004766,121.33610000014303,641.0,121.33649999999996,1.0,122.33490000009536,0.0,0.0,0.0,1.0,1.0,1.0,0.3,Time
,,S60,1,女,21,anonymized,Serial_Dependence_U,2023.2.3,Win32,60.24096385542697,,,,,,122.33570000004768,119.0,0.0,122.3387999999523,119.0,,,,126.13290000009536,126.63110000014302,125.61649999999996,126.13270000004766,123.35129999995227,125.6162999999523,126.63110000014302,127.13090000009537,127.13090000009537,132.59360000014303,449.0,132.5937999999523,1.0,133.59190000009534,0.0,1.0,1.0,12.0,1.0,1.2,0.3,Time
,,S60,1,女,21,anonymized,Serial_Dependence_U,2023.2.3,Win32,60.24096385542697,,,,,,133.59270000004767,84.0,0.0,133.59310000014304,84.0,,,,137.58999999999995,138.08810000014304,137.07340000009535,137.58940000009534,134.60870000004766,137.0732999999523,138.08820000004766,138.58770000004768,138.58770000004768,139.87110000014303,809.0,139.8712999999523,1.0,140.86920000004767,0.0,2.0,2.0,13.0,1.0,1.4,0.3,Time
,,S60,1,女,21,anonymized,Serial_Dependence_U,2023.2.3,Win32,60.24096385542697,,,,,,140.8697999999523,124.0,0.0,140.86999999999998,124.0,,,,144.45070000004768,144.94899999999998,143.93599999999998,144.45049999999998,141.88649999999998,143.9352999999523,144.94899999999998,145.44910000014303,145.4492999999523,147.3477999999523,1030.0,147.34820000004763,3.0,148.34660000014304,0.0,3.0,3.0,6.0,1.0,1.0,0.7,Time
,,S60,1,女,21,anonymized,Serial_Dependence_U,2023.2.3,Win32,60.24096385542697,,,,,,148.34699999999998,7.0,0.0,148.3472999999523,7.0,,,,151.6947999999523,152.19349999999997,151.1785,151.69440000009536,149.34710000014303,151.17840000009534,152.19349999999997,152.69279999995229,152.69290000009536,154.55860000014303,963.0,154.55870000004768,4.0,155.55740000009536,0.0,4.0,4.0,25.0,1.0,0.8,0.7,Time
,,S60,1,女,21,anonymized,Serial_Dependence_U,2023.2.3,Win32,60.24096385542697,,,,,,155.55790000009534,79.0,0.0,155.5582999999523,79.0,,,,159.32270000004766,159.8207999999523,158.8052999999523,159.32199999999995,156.57390000009536,158.80510000014303,159.82090000009535,160.32020000004766,160.3202999999523,161.969,964.0,161.9692999999523,2.0,162.96820000004766,0.0,5.0,5.0,27.0,1.0,1.2,0.7,Time
,,S60,1,女,21,anonymized,Serial_Dependence_U,2023.2.3,Win32,60.24096385542697,,,,,,162.9687999999523,202.0,0.0,162.96910000014304,202.0,,,,167.1317999999523,167.63060000014303,166.61560000014305,167.13170000004766,163.96840000009536,166.61549999999997,167.63060000014303,168.13040000009536,168.13049999999998,169.92920000004767,1016.0,169.92940000009534,1.0,170.9277999999523,0.0,6.0,6.0,29.0,1.0,1.6,0.7,Time
,,S60,1,女,21,anonymized,Serial_Dependence_U,2023.2.3,Win32,60.24096385542697,,,,,,170.92840000009534,244.0,0.0,170.92890000009535,244.0,,,,174.30920000004767,174.808,173.7932999999523,174.30910000014305,171.92799999999997,173.79299999999998,174.80810000014304,175.30749999999998,175.30770000004767,176.79040000009536,833.0,176.79060000014303,3.0,177.789,0.0,7.0,7.0,20.0,1.0,0.8,0.3,Time
,,S60,1,女,21,anonymized,Serial_Dependence_U,2023.2.3,Win32,60.24096385542697,,,,,,177.78949999999998,186.0,0.0,177.7897999999523,186.0,,,,181.1705,181.66910000014303,180.656,181.17020000004769,178.79010000014304,180.6554000000953,181.66910000014303,182.1687000000477,182.1687000000477,183.86860000014303,1026.0,183.8687999999523,4.0,184.8665,0.0,8.0,8.0,10.0,1.0,0.8,0.3,Time
,,S60,1,女,21,anonymized,Serial_Dependence_U,2023.2.3,Win32,60.24096385542697,,,,,,184.867,58.0,0.0,184.8672000000477,58.0,,,,188.44860000014305,188.9465,187.93090000009536,188.448,185.86670000004767,187.9307000000477,188.9465,189.44560000014303,189.44570000004768,190.84570000004769,1232.0,190.84570000004769,4.0,191.84360000014303,0.0,9.0,9.0,11.0,1.0,1.0,0.3,Time
,,S60,1,女,21,anonymized,Serial_Dependence_U,2023.2.3,Win32,60.24096385542697,,,,,,191.8442000000477,182.0,0.0,191.8445,182.0,,,,195.825,196.3235,195.30870000004768,195.82470000004767,192.861,195.3085,196.3235,196.82290000009536,196.82310000014303,198.189,1331.0,198.18910000014304,3.0,199.1879000000953,0.0,10.0,10.0,8.0,1.0,1.4,0.7,Time
,,S60,1,女,21,anonymized,Serial_Dependence_U,2023.2.3,Win32,60.24096385542697,,,,,,199.18860000014303,168.0,0.0,199.18890000009532,168.0,,,,202.9859000000953,203.48420000004768,202.4695,202.9855,200.20520000004765,202.4692999999523,203.4842999999523,203.98420000004768,203.98420000004768,205.883,1563.0,205.8832999999523,5.0,206.881600000143,0.0,11.0,11.0,22.0,1.0,1.2,0.3,Time
,,S60,1,女,21,anonymized,Serial_Dependence_U,2023.2.3,Win32,60.24096385542697,,,,,,206.88190000009536,329.0,0.0,206.88210000014303,329.0,,,,211.079,211.57779999995228,210.56340000009533,211.07890000009536,207.89810000014305,210.56270000004764,211.57790000009533,212.07710000014305,212.07720000004764,214.4087999999523,1747.0,214.40890000009531,4.0,215.4074000000953,0.0,12.0,12.0,14.0,1.0,1.6,0.3,Time
,,S60,1,女,21,anonymized,Serial_Dependence_U,2023.2.3,Win32,60.24096385542697,,,,,,215.40779999995232,170.0,0.0,215.408,170.0,,,,219.37520000004764,219.87060000014304,218.87260000014305,219.375,216.408,218.87240000009533,219.87060000014304,220.37020000004765,220.37040000009532,221.603,749.0,221.60310000014303,1.0,222.60179999995228,0.0,13.0,13.0,23.0,1.0,1.4,0.3,Time
,,S60,1,女,21,anonymized,Serial_Dependence_U,2023.2.3,Win32,60.24096385542697,,,,,,222.602600000143,150.0,0.0,222.603,150.0,,,,225.95040000009533,226.44860000014305,225.434,225.9497999999523,223.60179999995228,225.4335,226.44860000014305,226.948,226.948,228.69810000014303,1181.0,228.69829999995235,5.0,229.69620000004767,0.0,14.0,14.0,5.0,1.0,0.8,0.7,Time
,,S60,1,女,21,anonymized,Serial_Dependence_U,2023.2.3,Win32,60.24096385542697,,,,,,229.6967999999523,310.0,0.0,229.69720000004764,310.0,,,,233.677,234.17560000014305,233.16090000009532,233.67690000009537,230.71279999995232,233.16040000009536,234.17570000004764,234.67540000009532,234.6755,236.857,1436.0,236.85710000014305,3.0,237.85590000009532,0.0,15.0,15.0,18.0,1.0,1.4,0.7,Time
,,S60,1,女,21,anonymized,Serial_Dependence_U,2023.2.3,Win32,60.24096385542697,,,,,,237.85660000014303,349.0,0.0,237.8569000000953,349.0,,,,242.05360000014304,242.552100000143,241.53729999995232,242.0534000000953,238.873,241.537,242.552100000143,243.0512000000477,243.0512000000477,245.30040000009532,1898.0,245.30060000014305,4.0,246.2985,0.0,16.0,16.0,24.0,1.0,1.6,0.3,Time
,,S60,1,女,21,anonymized,Serial_Dependence_U,2023.2.3,Win32,60.24096385542697,,,,,,246.29879999995228,134.0,0.0,246.29910000014303,134.0,,,,250.29670000004768,250.7952999999523,249.78010000014305,250.29660000014303,247.3152999999523,249.77990000009527,250.79540000009536,251.295100000143,251.295100000143,252.67920000004767,1165.0,252.679600000143,2.0,253.6759000000953,0.0,17.0,17.0,3.0,1.0,1.4,0.3,Time
,,S60,1,女,21,anonymized,Serial_Dependence_U,2023.2.3,Win32,60.24096385542697,,,,,,253.6765,343.0,0.0,253.67660000014305,343.0,,,,257.6404000000953,258.13920000004765,257.1275,257.6402999999523,254.6927000000477,257.1272999999523,258.1392999999523,258.6385,258.6385,261.0372000000477,1734.0,261.0372999999523,4.0,262.0359000000953,0.0,18.0,18.0,28.0,1.0,1.4,0.7,Time
,,S60,1,女,21,anonymized,Serial_Dependence_U,2023.2.3,Win32,60.24096385542697,,,,,,262.03660000014304,1.0,0.0,262.03690000009533,1.0,,,,265.4185,265.91570000004765,264.90170000004764,265.41810000014306,263.053,264.9014000000953,265.91570000004765,266.4155,266.41560000014306,268.1812000000477,1550.0,268.1815,5.0,269.17990000009536,0.0,19.0,19.0,15.0,1.0,0.8,0.7,Time
,,S60,1,女,21,anonymized,Serial_Dependence_U,2023.2.3,Win32,60.24096385542697,,,,,,269.1807000000477,110.0,0.0,269.181,110.0,,,,272.7612999999523,273.25990000009534,272.24540000009534,272.76120000004767,270.19710000014305,272.24510000014305,273.26010000014304,273.759,273.759,275.5585,1466.0,275.5587000000477,5.0,276.5572999999523,0.0,20.0,20.0,16.0,1.0,1.0,0.7,Time
,,S60,1,女,21,anonymized,Serial_Dependence_U,2023.2.3,Win32,60.24096385542697,,,,,,276.558,322.0,0.0,276.5582999999523,322.0,,,,280.155600000143,280.65370000004765,279.63890000009536,280.1552999999523,277.57310000014303,279.63870000004766,280.65370000004765,281.1532999999523,281.15340000009536,282.91910000014303,1053.0,282.9192000000477,4.0,283.91770000004766,0.0,21.0,21.0,21.0,1.0,1.0,0.3,Time
,,S60,1,女,21,anonymized,Serial_Dependence_U,2023.2.3,Win32,60.24096385542697,,,,,,283.9182999999523,146.0,0.0,283.91860000014304,146.0,,,,287.3159000000953,287.8145,286.7992999999523,287.3157000000477,284.9347999999523,286.799100000143,287.8145,288.31440000009536,288.3145,289.5135,972.0,289.5135,4.0,290.512,0.0,22.0,22.0,0.0,1.0,0.8,0.3,Time
,,S60,1,女,21,anonymized,Serial_Dependence_U,2023.2.3,Win32,60.24096385542697,,,,,,290.5125,99.0,0.0,290.5127000000477,99.0,,,,294.6932000000477,295.1922999999523,294.176600000143,294.693,291.52920000004764,294.1764000000953,295.1922999999523,295.69140000009537,295.69140000009537,297.27420000004764,1182.0,297.2742999999523,2.0,298.27240000009533,0.0,23.0,23.0,19.0,1.0,1.6,0.7,Time
,,S60,1,女,21,anonymized,Serial_Dependence_U,2023.2.3,Win32,60.24096385542697,,,,,,298.273,238.0,0.0,298.2732999999523,238.0,,,,301.83670000004764,302.335600000143,301.32060000014303,301.8365,299.2727000000477,301.3205,302.335600000143,302.835600000143,302.835600000143,304.301600000143,977.0,304.3017000000477,3.0,305.30010000014306,0.0,24.0,24.0,26.0,1.0,1.0,0.7,Time
,,S60,1,女,21,anonymized,Serial_Dependence_U,2023.2.3,Win32,60.24096385542697,,,,,,305.30060000014305,269.0,0.0,305.3007999999523,269.0,,,,309.098100000143,309.59640000009534,308.58160000014306,309.0977999999523,306.31740000009535,308.5815,309.59640000009534,310.096,310.096,311.66320000004765,1116.0,311.66360000014305,2.0,312.66070000004765,0.0,25.0,25.0,2.0,1.0,1.2,0.3,Time
,,S60,1,女,21,anonymized,Serial_Dependence_U,2023.2.3,Win32,60.24096385542697,,,,,,312.66120000004764,58.0,0.0,312.6615,58.0,,,,316.442,316.94040000009534,315.926,316.44140000009537,313.6775,315.92560000014305,316.94040000009534,317.44040000009534,317.4405,319.589,1530.0,319.58910000014305,4.0,320.5872000000477,0.0,26.0,26.0,7.0,1.0,1.2,0.7,Time
,,S60,1,女,21,anonymized,Serial_Dependence_U,2023.2.3,Win32,60.24096385542697,,,,,,320.5877999999523,184.0,0.0,320.588,184.0,,,,324.76890000009536,325.2672000000477,324.2514000000954,324.7685,321.60490000009537,324.2512999999523,325.2672000000477,325.766100000143,325.76620000004766,328.4147999999523,1724.0,328.4149000000954,4.0,329.41370000004764,0.0,27.0,27.0,9.0,1.0,1.6,0.7,Time
,,S60,1,女,21,anonymized,Serial_Dependence_U,2023.2.3,Win32,60.24096385542697,,,,,,329.4145,46.0,0.0,329.4149000000954,46.0,,,,333.179100000143,333.6769000000954,332.6622999999523,333.1787999999523,330.4149000000954,332.6617000000477,333.6769000000954,334.1765,334.176600000143,335.0595,815.0,335.0597999999523,1.0,336.05770000004765,0.0,28.0,28.0,17.0,1.0,1.2,0.7,Time
,,S60,1,女,21,anonymized,Serial_Dependence_U,2023.2.3,Win32,60.24096385542697,,,,,,336.05810000014304,158.0,0.0,336.05840000009533,158.0,,,,340.2555,340.7542999999523,339.7394000000954,340.2552999999523,337.076,339.7392000000477,340.7542999999523,341.2535,341.2535,342.7199000000953,984.0,342.72,1.0,343.7182999999523,0.0,29.0,29.0,4.0,1.0,1.6,0.3,Time
,,S60,1,女,21,anonymized,Serial_Dependence_U,2023.2.3,Win32,60.24096385542697,,,,,,343.71870000004765,275.0,1.0,560.952100000143,275.0,s,217.20279999995228,,564.7467000000477,565.237600000143,564.2284000000955,564.746600000143,561.9634000000954,564.2282999999522,565.2377000000477,565.7271000001431,565.7272000000476,567.8766000001431,1383.0,567.8767000000478,4.0,567.884,1.0,0.0,30.0,22.0,1.0,1.2,0.3,Time
,,S60,1,女,21,anonymized,Serial_Dependence_U,2023.2.3,Win32,60.24096385542697,,,,,,567.8842000000477,324.0,1.0,567.8867000000478,324.0,,,,571.673100000143,572.1656000001431,571.1565,571.6729000000953,568.891600000143,571.1564000000953,572.1657000000478,572.6656000001431,572.6657999999522,576.3352000000477,1031.0,576.3352999999522,2.0,576.3407999999522,1.0,1.0,31.0,12.0,1.0,1.2,0.3,Time
,,S60,1,女,21,anonymized,Serial_Dependence_U,2023.2.3,Win32,60.24096385542697,,,,,,576.3409999999999,185.0,1.0,576.3411000001431,185.0,,,,580.134,580.6254000000954,579.6157999999523,580.1337000000476,577.3509000000954,579.6156000001431,580.6256000001431,581.1252999999524,581.1254999999999,583.2797999999523,1599.0,583.2799000000953,5.0,583.2854000000953,1.0,2.0,32.0,2.0,1.0,1.2,0.3,Time
,,S60,1,女,21,anonymized,Serial_Dependence_U,2023.2.3,Win32,60.24096385542697,,,,,,583.2857000000477,15.0,1.0,583.2857999999524,15.0,,,,586.6609000000954,587.153100000143,586.1446000001431,586.6607000000477,584.2955,586.1444999999999,587.153100000143,587.653,587.6532000000477,589.0255,1232.0,589.025600000143,5.0,589.0312999999524,1.0,3.0,33.0,15.0,1.0,0.8,0.7,Time
,,S60,1,女,21,anonymized,Serial_Dependence_U,2023.2.3,Win32,60.24096385542697,,,,,,589.0315,257.0,1.0,589.031600000143,257.0,,,,593.2049000000954,593.6980000000001,592.6899000000953,593.2047999999522,590.0415,592.6897000000477,593.6981000001431,594.197600000143,594.1977999999524,595.986600000143,1731.0,595.9867000000477,4.0,595.9931000001429,1.0,4.0,34.0,9.0,1.0,1.6,0.7,Time
,,S60,1,女,21,anonymized,Serial_Dependence_U,2023.2.3,Win32,60.24096385542697,,,,,,595.9932999999523,189.0,1.0,595.9934000000953,189.0,,,,599.9827999999522,600.475600000143,599.4662999999523,599.9827000000478,597.0024000000953,599.4661000001431,600.4757999999522,600.9752999999523,600.9754000000953,603.4137999999523,1899.0,603.414,5.0,603.4206000001429,1.0,5.0,35.0,23.0,1.0,1.4,0.3,Time
,,S60,1,女,21,anonymized,Serial_Dependence_U,2023.2.3,Win32,60.24096385542697,,,,,,603.4207999999524,72.0,1.0,603.4209000000953,72.0,,,,607.6109999999999,608.1027999999524,607.0952999999522,607.6107999999524,604.4297000000477,607.0949000000953,608.1030000000001,608.6017999999524,608.6020000000001,610.9752000000476,1962.0,610.9754000000953,4.0,610.9807000000476,1.0,6.0,36.0,14.0,1.0,1.6,0.3,Time
,,S60,1,女,21,anonymized,Serial_Dependence_U,2023.2.3,Win32,60.24096385542697,,,,,,610.981,186.0,1.0,610.981,186.0,,,,614.3547999999523,614.847,613.8384000000954,614.3546000001431,611.9914000000954,613.8382999999524,614.847,615.3467000000476,615.3467999999523,617.4359000000954,1649.0,617.4359999999999,5.0,617.443,1.0,7.0,37.0,5.0,1.0,0.8,0.7,Time
,,S60,1,女,21,anonymized,Serial_Dependence_U,2023.2.3,Win32,60.24096385542697,,,,,,617.4434000000954,115.0,1.0,617.4435000000001,115.0,,,,621.6302999999523,622.1244000000954,621.1154000000954,621.6302000000476,618.450100000143,621.1152000000477,622.1244999999999,622.6237999999523,622.624,625.1797000000477,1849.0,625.1797999999524,4.0,625.1869000000954,1.0,8.0,38.0,24.0,1.0,1.6,0.3,Time
,,S60,1,女,21,anonymized,Serial_Dependence_U,2023.2.3,Win32,60.24096385542697,,,,,,625.1875,84.0,1.0,625.1877000000477,84.0,,,,628.7429999999999,629.2349000000954,628.2269000000954,628.7429000000955,626.1942000000477,628.2267999999524,629.2349999999999,629.7349000000954,629.7351000001431,631.7237999999522,1449.0,631.7239999999999,5.0,631.7309000000953,1.0,9.0,39.0,6.0,1.0,1.0,0.7,Time
,,S60,1,女,21,anonymized,Serial_Dependence_U,2023.2.3,Win32,60.24096385542697,,,,,,631.7312000000477,178.0,1.0,631.7314999999999,178.0,,,,635.3204000000953,635.8131000001431,634.8047999999524,635.3202000000476,632.7392999999522,634.8047000000477,635.8132000000476,636.3127000000477,636.3127999999524,638.1022000000476,1315.0,638.1024000000953,5.0,638.1087999999522,1.0,10.0,40.0,1.0,1.0,1.0,0.3,Time
,,S60,1,女,21,anonymized,Serial_Dependence_U,2023.2.3,Win32,60.24096385542697,,,,,,638.1091000001431,181.0,1.0,638.1092000000476,181.0,,,,641.8646000001431,642.3577000000478,641.3492999999523,641.8644999999999,639.1172000000477,641.3492000000476,642.3577000000478,642.8574000000954,642.8574000000954,644.5627000000477,1465.0,644.5629000000954,4.0,644.568,1.0,11.0,41.0,27.0,1.0,1.2,0.7,Time
,,S60,1,女,21,anonymized,Serial_Dependence_U,2023.2.3,Win32,60.24096385542697,,,,,,644.5682999999524,327.0,1.0,644.5684000000954,327.0,,,,648.5596000001431,649.0522000000476,648.0432000000476,648.5594000000954,645.5787999999523,648.0429000000954,649.0524000000953,649.5552999999522,649.5552999999522,652.0892999999523,1865.0,652.0892999999523,5.0,652.0946000001431,1.0,12.0,42.0,13.0,1.0,1.4,0.3,Time
,,S60,1,女,21,anonymized,Serial_Dependence_U,2023.2.3,Win32,60.24096385542697,,,,,,652.0947000000476,330.0,1.0,652.0949000000953,330.0,,,,656.1037000000476,656.596,655.5875000000001,656.1034999999999,653.1234999999999,655.5872000000477,656.596,657.0952000000477,657.0952000000477,659.3517999999524,1932.0,659.3520000000001,5.0,659.3637000000476,1.0,13.0,43.0,3.0,1.0,1.4,0.3,Time
,,S60,1,女,21,anonymized,Serial_Dependence_U,2023.2.3,Win32,60.24096385542697,,,,,,659.364100000143,337.0,1.0,659.3642000000477,337.0,,,,662.7482000000477,663.2402000000477,662.2322999999524,662.748,660.366,662.232,663.2402000000477,663.7397000000476,663.7399000000953,666.1282000000476,1764.0,666.1284000000953,5.0,666.1339000000953,1.0,14.0,44.0,20.0,1.0,0.8,0.3,Time
,,S60,1,女,21,anonymized,Serial_Dependence_U,2023.2.3,Win32,60.24096385542697,,,,,,666.1342000000477,11.0,1.0,666.1342000000477,11.0,,,,669.6912000000477,670.185,669.1752000000477,669.691,667.1432000000477,669.175100000143,670.1852000000476,670.684,670.684100000143,672.7067000000477,1549.0,672.7067999999524,5.0,672.712,1.0,15.0,45.0,26.0,1.0,1.0,0.7,Time
,,S60,1,女,21,anonymized,Serial_Dependence_U,2023.2.3,Win32,60.24096385542697,,,,,,672.7122999999524,0.0,1.0,672.7124000000954,0.0,,,,676.088100000143,676.5787000000478,675.5701000001429,676.088,673.7226000001431,675.5699999999999,676.5787999999523,677.0784000000954,677.0786000001431,678.7179000000954,1199.0,678.7181000001431,5.0,678.7232000000477,1.0,16.0,46.0,25.0,1.0,0.8,0.7,Time
,,S60,1,女,21,anonymized,Serial_Dependence_U,2023.2.3,Win32,60.24096385542697,,,,,,678.7235000000001,172.0,1.0,678.723600000143,172.0,,,,682.6981000001431,683.1897000000477,682.1819000000953,682.6977999999524,679.7337000000477,682.1816000001431,683.1897000000477,683.69,683.6902000000478,685.6787999999524,1682.0,685.6789000000954,4.0,685.6852999999523,1.0,17.0,47.0,18.0,1.0,1.4,0.7,Time
,,S60,1,女,21,anonymized,Serial_Dependence_U,2023.2.3,Win32,60.24096385542697,,,,,,685.685600000143,290.0,1.0,685.685600000143,290.0,,,,689.8757999999523,690.3677000000478,689.3589000000954,689.8756000001431,686.6954000000953,689.3587999999522,690.3677999999522,690.8675000000001,690.8677000000478,692.8405,1516.0,692.8405,2.0,692.8475000000001,1.0,18.0,48.0,4.0,1.0,1.6,0.3,Time
,,S60,1,女,21,anonymized,Serial_Dependence_U,2023.2.3,Win32,60.24096385542697,,,,,,692.8477999999523,272.0,1.0,692.848,272.0,,,,696.6197000000477,697.1122000000478,696.1027999999524,696.6195,693.8562000000477,696.1027000000477,697.1122999999523,697.6120000000001,697.6121000001431,706.2784000000954,1299.0,706.2784999999999,4.0,706.2842999999523,1.0,19.0,49.0,17.0,1.0,1.2,0.7,Time
,,S60,1,女,21,anonymized,Serial_Dependence_U,2023.2.3,Win32,60.24096385542697,,,,,,706.2847000000477,218.0,1.0,706.2847000000477,218.0,,,,710.2587000000476,710.7507000000476,709.7417999999523,710.2586000001431,707.2939000000954,709.7417000000476,710.7509000000953,711.2504999999999,711.2506000001431,713.6890000000001,1748.0,713.6891000001431,4.0,713.6955,1.0,20.0,50.0,8.0,1.0,1.4,0.7,Time
,,S60,1,女,21,anonymized,Serial_Dependence_U,2023.2.3,Win32,60.24096385542697,,,,,,713.6957000000477,35.0,1.0,713.6957000000477,35.0,,,,717.0862000000477,717.5787000000478,716.5702000000476,717.086,714.7045,716.5699999999999,717.5787000000478,718.0782000000477,718.0782999999524,719.9347999999522,1199.0,719.935,5.0,719.942,1.0,21.0,51.0,10.0,1.0,0.8,0.3,Time
,,S60,1,女,21,anonymized,Serial_Dependence_U,2023.2.3,Win32,60.24096385542697,,,,,,719.9427999999523,109.0,1.0,719.943,109.0,,,,723.3302999999523,723.8237000000477,722.816100000143,723.3302000000476,720.9494000000952,722.8159000000953,723.8239000000954,724.3229000000954,724.3230000000001,726.1955,1365.0,726.1955,5.0,726.2032999999524,1.0,22.0,52.0,0.0,1.0,0.8,0.3,Time
,,S60,1,女,21,anonymized,Serial_Dependence_U,2023.2.3,Win32,60.24096385542697,,,,,,726.2037000000478,217.0,1.0,726.204,217.0,,,,729.7921000001431,730.2845,729.2755,729.7919999999999,727.211100000143,729.2754000000953,730.2845,730.7845,730.7845,732.6067999999523,1465.0,732.607,5.0,732.6146000001431,1.0,23.0,53.0,11.0,1.0,1.0,0.3,Time
,,S60,1,女,21,anonymized,Serial_Dependence_U,2023.2.3,Win32,60.24096385542697,,,,,,732.6149000000953,133.0,1.0,732.615,133.0,,,,736.5867000000476,737.079,736.0712000000476,736.5866000001431,733.6385,736.0709999999999,737.079,737.5799000000954,737.5799000000954,738.5686000001431,916.0,738.5687000000476,1.0,738.5756000001431,1.0,24.0,54.0,28.0,1.0,1.4,0.7,Time
,,S60,1,女,21,anonymized,Serial_Dependence_U,2023.2.3,Win32,60.24096385542697,,,,,,738.5759000000953,222.0,1.0,738.5759000000953,222.0,,,,742.1484000000953,742.6414000000952,741.6332000000477,742.1482000000476,739.5854000000954,741.6329000000953,742.6415,743.1410000000001,743.1411000001431,744.8647000000476,1384.0,744.8647999999523,5.0,744.8725,1.0,25.0,55.0,16.0,1.0,1.0,0.7,Time
,,S60,1,女,21,anonymized,Serial_Dependence_U,2023.2.3,Win32,60.24096385542697,,,,,,744.8732000000477,310.0,1.0,744.8732999999522,310.0,,,,749.0437000000477,749.5357000000477,748.5267999999523,749.0435,745.8789000000954,748.5267000000476,749.5357000000477,750.0351000001431,750.0352000000476,751.424,1349.0,751.424100000143,2.0,751.4299000000954,1.0,26.0,56.0,19.0,1.0,1.6,0.7,Time
,,S60,1,女,21,anonymized,Serial_Dependence_U,2023.2.3,Win32,60.24096385542697,,,,,,751.4302999999522,112.0,1.0,751.4302999999522,112.0,,,,755.1885,755.6804000000955,754.6872999999523,755.1882999999523,752.4402999999522,754.6872999999523,755.6804999999999,756.1804000000955,756.1804999999999,757.769100000143,1398.0,757.7692000000477,4.0,757.7755,1.0,27.0,57.0,7.0,1.0,1.2,0.7,Time
,,S60,1,女,21,anonymized,Serial_Dependence_U,2023.2.3,Win32,60.24096385542697,,,,,,757.7757000000477,145.0,1.0,757.7757999999524,145.0,,,,761.9494000000952,762.4416000001431,761.4322999999522,761.9492000000478,758.7847999999524,761.432100000143,762.4416000001431,762.9407000000476,762.9407999999523,764.8466000001431,1716.0,764.8467000000476,4.0,764.8520000000001,1.0,28.0,58.0,29.0,1.0,1.6,0.7,Time
,,S60,1,女,21,anonymized,Serial_Dependence_U,2023.2.3,Win32,60.24096385542697,,,,,,764.8522000000476,348.0,1.0,764.8524000000953,348.0,,,,768.4439000000953,768.9359999999999,767.9272999999523,768.4437000000476,765.862600000143,767.9271000001431,768.9362000000476,769.4357999999522,769.4359999999999,771.392,1299.0,771.392100000143,4.0,771.3987999999522,1.0,29.0,59.0,21.0,1.0,1.0,0.3,Time
,,S60,1,女,21,anonymized,Serial_Dependence_U,2023.2.3,Win32,60.24096385542697,,,,,,771.3989999999999,167.0,2.0,773.7149999999999,167.0,s,2.303299999952287,,777.4522000000477,777.9457000000477,776.937600000143,777.452100000143,774.7049999999999,776.9374000000953,777.9457000000477,778.4337999999523,778.4337999999523,780.4502000000477,1366.0,780.4502999999522,4.0,780.4555,2.0,0.0,60.0,27.0,1.0,1.2,0.7,Time
,,S60,1,女,21,anonymized,Serial_Dependence_U,2023.2.3,Win32,60.24096385542697,,,,,,780.4557000000477,307.0,2.0,780.456600000143,307.0,,,,784.0486000001431,784.54,783.531600000143,784.0484000000954,781.4662999999523,783.5314000000953,784.540100000143,785.0434000000953,785.0434000000953,787.3777999999522,1648.0,787.3779000000955,5.0,787.383,2.0,1.0,61.0,21.0,1.0,1.0,0.3,Time
,,S60,1,女,21,anonymized,Serial_Dependence_U,2023.2.3,Win32,60.24096385542697,,,,,,787.3832999999522,345.0,2.0,787.3832999999522,345.0,,,,790.7414000000954,791.2342999999523,790.2264000000953,790.7412000000477,788.3937999999523,790.2262000000476,791.2342999999523,791.7337000000477,791.7339000000954,793.1401000001431,1066.0,793.1402999999523,5.0,793.146,2.0,2.0,62.0,25.0,1.0,0.8,0.7,Time
,,S60,1,女,21,anonymized,Serial_Dependence_U,2023.2.3,Win32,60.24096385542697,,,,,,793.1462000000477,291.0,2.0,793.1462999999524,291.0,,,,796.9205,797.4124999999999,796.4044999999999,796.9202999999522,794.1556000001431,796.4042999999524,797.4126000001431,797.9122000000477,797.9122000000477,799.635,1465.0,799.6352000000477,4.0,799.6452999999524,2.0,3.0,63.0,17.0,1.0,1.2,0.7,Time
,,S60,1,女,21,anonymized,Serial_Dependence_U,2023.2.3,Win32,60.24096385542697,,,,,,799.6456000001431,177.0,2.0,799.6457000000476,177.0,,,,803.616,804.1072999999524,803.0979000000953,803.6157999999523,800.6512999999522,803.0977999999523,804.1072999999524,804.6067999999523,804.6069000000953,806.8287999999523,1882.0,806.8289000000952,5.0,806.8392999999523,2.0,4.0,64.0,28.0,1.0,1.4,0.7,Time
,,S60,1,女,21,anonymized,Serial_Dependence_U,2023.2.3,Win32,60.24096385542697,,,,,,806.8397000000477,126.0,2.0,806.8399000000954,126.0,,,,810.992,811.4842000000476,810.4757000000477,810.9917999999523,807.8437999999524,810.4754000000953,811.4842999999523,811.9875,811.9875,813.8609999999999,1452.0,813.8612999999523,2.0,813.8777000000478,2.0,5.0,65.0,29.0,1.0,1.6,0.7,Time
,,S60,1,女,21,anonymized,Serial_Dependence_U,2023.2.3,Win32,60.24096385542697,,,,,,813.8782000000476,235.0,2.0,813.8785,235.0,,,,818.0455,818.5444000000953,817.5302000000477,818.0454000000952,814.8822000000478,817.5296000001431,818.5444000000953,819.0441000001431,819.0442000000476,821.2594999999999,1933.0,821.2596000001431,4.0,821.266600000143,2.0,6.0,66.0,19.0,1.0,1.6,0.7,Time
,,S60,1,女,21,anonymized,Serial_Dependence_U,2023.2.3,Win32,60.24096385542697,,,,,,821.2667999999524,134.0,2.0,821.267,134.0,,,,824.6574000000953,825.1561000001429,824.1407999999524,824.6571000001431,822.2757000000477,824.140600000143,825.1561000001429,825.6554000000954,825.6554000000954,826.9049000000953,898.0,826.905,4.0,826.9102999999523,2.0,7.0,67.0,20.0,1.0,0.8,0.3,Time
,,S60,1,女,21,anonymized,Serial_Dependence_U,2023.2.3,Win32,60.24096385542697,,,,,,826.9105,11.0,2.0,826.9107000000477,11.0,,,,830.4871000001431,830.9842000000476,829.9694999999999,830.486600000143,827.9219000000953,829.9692000000477,830.9842999999523,831.4841000001431,831.4841000001431,833.616100000143,1415.0,833.616100000143,5.0,833.6227000000476,2.0,8.0,68.0,26.0,1.0,1.0,0.7,Time
,,S60,1,女,21,anonymized,Serial_Dependence_U,2023.2.3,Win32,60.24096385542697,,,,,,833.623,326.0,2.0,833.623,326.0,,,,837.2134000000954,837.7119000000953,836.6971000001431,837.2132000000477,834.6317999999524,836.6969000000954,837.7119000000953,838.2117999999523,838.2119000000953,840.094100000143,1463.0,840.0942999999522,5.0,840.1009000000954,2.0,9.0,69.0,1.0,1.0,1.0,0.3,Time
,,S60,1,女,21,anonymized,Serial_Dependence_U,2023.2.3,Win32,60.24096385542697,,,,,,840.1012000000476,11.0,2.0,840.1012000000476,11.0,,,,843.6916000001431,844.1897000000477,843.1759999999999,843.6914999999999,841.1102000000476,843.1752999999524,844.1897999999524,844.6897999999524,844.6899000000953,846.5884000000954,1279.0,846.5885000000001,4.0,846.5969000000953,2.0,10.0,70.0,11.0,1.0,1.0,0.3,Time
,,S60,1,女,21,anonymized,Serial_Dependence_U,2023.2.3,Win32,60.24096385542697,,,,,,846.5974000000954,194.0,2.0,846.5974000000954,194.0,,,,849.9694000000954,850.4679000000954,849.4534000000954,849.9692999999522,847.6052000000477,849.4532999999524,850.4679000000954,850.9679000000954,850.9680000000001,852.4841000001431,1067.0,852.4842000000476,5.0,852.49,2.0,11.0,71.0,5.0,1.0,0.8,0.7,Time
,,S60,1,女,21,anonymized,Serial_Dependence_U,2023.2.3,Win32,60.24096385542697,,,,,,852.4902999999522,298.0,2.0,852.4902999999522,298.0,,,,856.6809000000953,857.1792000000476,856.1654000000954,856.6807999999523,853.5004999999999,856.1649000000953,857.1792000000476,857.6792999999523,857.6792999999523,859.512600000143,1442.0,859.5134000000953,2.0,859.5204000000954,2.0,12.0,72.0,14.0,1.0,1.6,0.3,Time
,,S60,1,女,21,anonymized,Serial_Dependence_U,2023.2.3,Win32,60.24096385542697,,,,,,859.5206000001431,158.0,2.0,859.5206000001431,158.0,,,,862.9094000000953,863.407600000143,862.393100000143,862.9089000000954,860.5274999999999,862.393,863.407600000143,863.9071000001431,863.9072000000476,865.9391000001431,1383.0,865.9392999999523,5.0,865.9455,2.0,13.0,73.0,0.0,1.0,0.8,0.3,Time
,,S60,1,女,21,anonymized,Serial_Dependence_U,2023.2.3,Win32,60.24096385542697,,,,,,865.9457000000477,60.0,2.0,865.9457999999522,60.0,,,,869.736600000143,870.2352000000476,869.2204000000954,869.7364000000953,866.9557999999522,869.220100000143,870.2352000000476,870.7349000000954,870.7351000001431,872.6837000000476,1475.0,872.6837999999523,4.0,872.6894000000952,2.0,14.0,74.0,2.0,1.0,1.2,0.3,Time
,,S60,1,女,21,anonymized,Serial_Dependence_U,2023.2.3,Win32,60.24096385542697,,,,,,872.689600000143,122.0,2.0,872.6897000000477,122.0,,,,876.4639999999999,876.9632000000477,875.9481000001431,876.4637000000478,873.6844000000954,875.9479000000954,876.9632000000477,877.4622999999524,877.4624000000954,879.6947000000478,1568.0,879.6947999999522,5.0,879.7004000000954,2.0,15.0,75.0,22.0,1.0,1.2,0.3,Time
,,S60,1,女,21,anonymized,Serial_Dependence_U,2023.2.3,Win32,60.24096385542697,,,,,,879.7007000000476,218.0,2.0,879.7007999999523,218.0,,,,883.8912000000478,884.3901000001431,883.3754000000954,883.8911000001431,880.7114999999999,883.375100000143,884.3902000000476,884.8897000000477,884.8897000000477,887.3885,2032.0,887.3887000000477,4.0,887.3955000000001,2.0,16.0,76.0,24.0,1.0,1.6,0.3,Time
,,S60,1,女,21,anonymized,Serial_Dependence_U,2023.2.3,Win32,60.24096385542697,,,,,,887.3957999999523,39.0,2.0,887.3959000000953,39.0,,,,891.1527999999523,891.6507999999524,890.6359000000953,891.1524000000954,888.3889999999999,890.6357999999523,891.6507999999524,892.1502999999523,892.1502999999523,894.050100000143,1365.0,894.050600000143,4.0,894.0577999999523,2.0,17.0,77.0,7.0,1.0,1.2,0.7,Time
,,S60,1,女,21,anonymized,Serial_Dependence_U,2023.2.3,Win32,60.24096385542697,,,,,,894.058,141.0,2.0,894.058100000143,141.0,,,,898.2296000001431,898.7282000000478,897.7137999999522,898.2294000000954,895.066,897.7132000000477,898.7282000000478,899.2280000000001,899.2280000000001,900.627600000143,1314.0,900.6277000000478,2.0,900.6342000000477,2.0,18.0,78.0,9.0,1.0,1.6,0.7,Time
,,S60,1,女,21,anonymized,Serial_Dependence_U,2023.2.3,Win32,60.24096385542697,,,,,,900.6344999999999,209.0,2.0,900.6346000001431,209.0,,,,904.025,904.5232999999524,903.509,904.0249000000954,901.643100000143,903.5087000000476,904.5234000000952,905.0225,905.022600000143,906.6389000000954,982.0,906.639,4.0,906.6456000001432,2.0,19.0,79.0,10.0,1.0,0.8,0.3,Time
,,S60,1,女,21,anonymized,Serial_Dependence_U,2023.2.3,Win32,60.24096385542697,,,,,,906.6457999999524,163.0,2.0,906.6459000000953,163.0,,,,910.6191000001432,911.1179000000956,910.1027999999524,910.6187999999522,907.6395,910.102600000143,911.1179000000956,911.617600000143,911.617600000143,913.550600000143,1515.0,913.5511000001428,4.0,913.558,2.0,20.0,80.0,3.0,1.0,1.4,0.3,Time
,,S60,1,女,21,anonymized,Serial_Dependence_U,2023.2.3,Win32,60.24096385542697,,,,,,913.5582000000476,187.0,2.0,913.5582999999524,187.0,,,,917.1145,917.6122000000478,916.5975,917.1142999999522,914.55,916.5972999999524,917.6122000000478,918.1119000000954,918.112,919.8782000000476,1360.0,919.8787000000476,5.0,919.8852999999524,2.0,21.0,81.0,16.0,1.0,1.0,0.7,Time
,,S60,1,女,21,anonymized,Serial_Dependence_U,2023.2.3,Win32,60.24096385542697,,,,,,919.8855,216.0,2.0,919.8855,216.0,,,,923.4594000000956,923.9575,922.9432999999524,923.4587000000477,920.8947999999524,922.9425,923.9575,924.4572999999524,924.4574000000952,926.107100000143,1161.0,926.1072999999524,4.0,926.1202000000476,2.0,22.0,82.0,6.0,1.0,1.0,0.7,Time
,,S60,1,女,21,anonymized,Serial_Dependence_U,2023.2.3,Win32,60.24096385542697,,,,,,926.120600000143,267.0,2.0,926.1207999999524,267.0,,,,930.1195,930.6185,929.6042999999522,930.1194000000952,927.139600000143,929.6039000000952,930.618600000143,931.1177999999522,931.1177999999522,933.4831000001428,1847.0,933.4832000000476,5.0,933.4884000000956,2.0,23.0,83.0,13.0,1.0,1.4,0.3,Time
,,S60,1,女,21,anonymized,Serial_Dependence_U,2023.2.3,Win32,60.24096385542697,,,,,,933.4885,306.0,2.0,933.4887000000476,306.0,,,,937.2804000000954,937.7794000000954,936.7642999999524,937.2802000000476,934.499,936.7641000001432,937.7795,938.2787999999524,938.2787999999524,940.4437999999524,1565.0,940.444,5.0,940.4509000000952,2.0,24.0,84.0,12.0,1.0,1.2,0.3,Time
,,S60,1,女,21,anonymized,Serial_Dependence_U,2023.2.3,Win32,60.24096385542697,,,,,,940.4512999999522,186.0,2.0,940.4514000000954,186.0,,,,944.4082000000476,944.9067999999522,943.8934000000954,944.4079000000954,941.4459000000954,943.8926000001428,944.9067999999522,945.4067000000476,945.4067999999522,947.5885,1596.0,947.5887999999522,4.0,947.594,2.0,25.0,85.0,18.0,1.0,1.4,0.7,Time
,,S60,1,女,21,anonymized,Serial_Dependence_U,2023.2.3,Win32,60.24096385542697,,,,,,947.5942999999522,216.0,2.0,947.5942999999522,216.0,,,,951.5519000000954,952.0507999999522,951.0359000000954,951.5517000000476,948.5877999999524,951.0357999999524,952.0507999999522,952.5502999999524,952.5504000000954,954.7825,1407.0,954.782600000143,3.0,954.7882000000476,2.0,26.0,86.0,8.0,1.0,1.4,0.7,Time
,,S60,1,女,21,anonymized,Serial_Dependence_U,2023.2.3,Win32,60.24096385542697,,,,,,954.7885,43.0,2.0,954.7886000001432,43.0,,,,958.9792999999522,959.4784000000956,958.464600000143,958.979100000143,955.7984000000954,958.4639000000952,959.4784000000956,959.9777000000475,959.9777000000475,961.9435,1515.0,961.9437000000476,2.0,961.9496000001428,2.0,27.0,87.0,4.0,1.0,1.6,0.3,Time
,,S60,1,女,21,anonymized,Serial_Dependence_U,2023.2.3,Win32,60.24096385542697,,,,,,961.9499000000952,206.0,2.0,961.9499000000952,206.0,,,,965.3246000001428,965.822600000143,964.8076000001432,965.3242999999522,962.9596000001428,964.8072999999522,965.822600000143,966.3222000000476,966.3222000000476,967.6052000000476,1088.0,967.6054000000954,5.0,967.612600000143,2.0,28.0,88.0,15.0,1.0,0.8,0.7,Time
,,S60,1,女,21,anonymized,Serial_Dependence_U,2023.2.3,Win32,60.24096385542697,,,,,,967.6127999999524,255.0,2.0,967.6129000000954,255.0,,,,971.5857000000476,972.084100000143,971.0697000000478,971.5854000000954,968.6057999999524,971.0692999999524,972.084100000143,972.5839000000954,972.5839000000954,973.9335,983.0,973.9336000001432,2.0,973.9417999999524,2.0,29.0,89.0,23.0,1.0,1.4,0.3,Time
,,S60,1,女,21,anonymized,Serial_Dependence_U,2023.2.3,Win32,60.24096385542697,,,,,,973.942100000143,71.0,3.0,976.080600000143,71.0,s,2.1242999999522,,980.2447999999522,980.744,979.7299000000952,980.2447000000476,977.081,979.729100000143,980.7441000001428,981.2434999999998,981.2434999999998,982.9919000000953,1696.0,982.992100000143,4.0,982.9972999999522,3.0,0.0,90.0,19.0,1.0,1.6,0.7,Time
,,S60,1,女,21,anonymized,Serial_Dependence_U,2023.2.3,Win32,60.24096385542697,,,,,,982.9975,290.0,3.0,982.9986000001428,290.0,,,,986.9571000001428,987.4547999999522,986.439799999952,986.956600000143,983.9924000000954,986.4397000000477,987.455,987.9542999999524,987.9544000000952,989.9534999999998,1702.0,989.9536000001432,4.0,989.9596000001428,3.0,1.0,91.0,8.0,1.0,1.4,0.7,Time
,,S60,1,女,21,anonymized,Serial_Dependence_U,2023.2.3,Win32,60.24096385542697,,,,,,989.9599000000952,187.0,3.0,989.96,187.0,,,,993.551,994.049,993.0347000000476,993.5507999999522,990.9695,993.0345,994.049,994.5492000000476,994.5492000000476,996.331600000143,1432.0,996.3317000000476,5.0,996.338,3.0,2.0,92.0,1.0,1.0,1.0,0.3,Time
,,S60,1,女,21,anonymized,Serial_Dependence_U,2023.2.3,Win32,60.24096385542697,,,,,,996.338299999952,55.0,3.0,996.338299999952,55.0,,,,1000.1121000001432,1000.610600000143,999.5957000000476,1000.1119000000954,997.3477000000476,999.5955,1000.610600000143,1001.1102999999524,1001.1105,1001.6437999999524,513.0,1001.644,1.0,1001.6492000000476,3.0,3.0,93.0,27.0,1.0,1.2,0.7,Time
,,S60,1,女,21,anonymized,Serial_Dependence_U,2023.2.3,Win32,60.24096385542697,,,,,,1001.6494000000952,233.0,3.0,1001.649600000143,233.0,,,,1005.2082999999524,1005.7069000000954,1004.6922000000476,1005.208,1002.6434000000952,1004.6916000001428,1005.7069000000954,1006.2062999999524,1006.2062999999524,1006.9246000001432,335.0,1006.9252000000477,1.0,1006.9394000000952,3.0,4.0,94.0,16.0,1.0,1.0,0.7,Time
,,S60,1,女,21,anonymized,Serial_Dependence_U,2023.2.3,Win32,60.24096385542697,,,,,,1006.9399999999998,35.0,3.0,1006.940100000143,35.0,,,,1010.3149999999998,1010.819100000143,1009.8104000000952,1010.3147000000477,1007.9451000001428,1009.8102999999523,1010.8192000000475,1011.3194000000954,1011.3194999999998,1012.7449000000952,835.0,1012.745,3.0,1012.7567000000475,3.0,5.0,95.0,0.0,1.0,0.8,0.3,Time
,,S60,1,女,21,anonymized,Serial_Dependence_U,2023.2.3,Win32,60.24096385542697,,,,,,1012.757100000143,20.0,3.0,1012.7572000000476,20.0,,,,1016.5221000001428,1017.0139000000952,1016.0059000000954,1016.5219000000952,1013.7569999999998,1016.005600000143,1017.0139000000952,1017.5139000000952,1017.514,1018.8712999999524,1116.0,1018.8715,2.0,1018.8781000001428,3.0,6.0,96.0,17.0,1.0,1.2,0.7,Time
,,S60,1,女,21,anonymized,Serial_Dependence_U,2023.2.3,Win32,60.24096385542697,,,,,,1018.879,215.0,3.0,1018.8792999999524,215.0,,,,1022.266600000143,1022.7595,1021.751,1022.2664000000952,1019.8857000000476,1021.7509000000952,1022.7596000001428,1023.2596000001428,1023.2597999999524,1024.4337999999525,767.0,1024.434,3.0,1024.4427999999525,3.0,7.0,97.0,10.0,1.0,0.8,0.3,Time
,,S60,1,女,21,anonymized,Serial_Dependence_U,2023.2.3,Win32,60.24096385542697,,,,,,1024.443,105.0,3.0,1024.443100000143,105.0,,,,1028.4114000000952,1028.9089000000954,1027.895100000143,1028.4112999999522,1025.4477999999522,1027.8949000000953,1028.909,1029.4042000000477,1029.4042000000477,1031.5602999999523,1700.0,1031.5604000000951,4.0,1031.5662999999522,3.0,8.0,98.0,18.0,1.0,1.4,0.7,Time
,,S60,1,女,21,anonymized,Serial_Dependence_U,2023.2.3,Win32,60.24096385542697,,,,,,1031.5665,355.0,3.0,1031.5665,355.0,,,,1035.1562000000476,1035.6492999999523,1034.6405,1035.156,1032.5752000000475,1034.6404000000953,1035.6494000000953,1036.1487999999522,1036.1489000000952,1038.0207000000476,1166.0,1038.0207999999525,4.0,1038.0272999999522,3.0,9.0,99.0,11.0,1.0,1.0,0.3,Time
,,S60,1,女,21,anonymized,Serial_Dependence_U,2023.2.3,Win32,60.24096385542697,,,,,,1038.027600000143,10.0,3.0,1038.027600000143,10.0,,,,1041.5839999999998,1042.077,1041.0679000000953,1041.5839000000954,1039.0357000000477,1041.0677999999525,1042.077100000143,1042.5769000000953,1042.577,1044.216600000143,1133.0,1044.2167999999522,4.0,1044.2239000000952,3.0,10.0,100.0,26.0,1.0,1.0,0.7,Time
,,S60,1,女,21,anonymized,Serial_Dependence_U,2023.2.3,Win32,60.24096385542697,,,,,,1044.224600000143,219.0,3.0,1044.2247999999522,219.0,,,,1048.4112999999522,1048.9044000000954,1047.8959000000953,1048.4112000000475,1045.2312000000477,1047.8957999999525,1048.9045,1049.4075,1049.407600000143,1052.2092000000475,2232.0,1052.2092999999522,5.0,1052.2162000000476,3.0,11.0,101.0,24.0,1.0,1.6,0.3,Time
,,S60,1,女,21,anonymized,Serial_Dependence_U,2023.2.3,Win32,60.24096385542697,,,,,,1052.2165,103.0,3.0,1052.216600000143,103.0,,,,1055.5892999999523,1056.0817000000477,1055.0727999999522,1055.5892000000476,1053.2249000000952,1055.0725,1056.0817999999522,1056.581600000143,1056.5817000000477,1058.0882000000477,1033.0,1058.088299999952,4.0,1058.094100000143,3.0,12.0,102.0,15.0,1.0,0.8,0.7,Time
,,S60,1,女,21,anonymized,Serial_Dependence_U,2023.2.3,Win32,60.24096385542697,,,,,,1058.0942999999522,59.0,3.0,1058.0944000000952,59.0,,,,1062.2842000000476,1062.7767999999523,1061.767100000143,1062.2841000001429,1059.103900000095,1061.7669000000951,1062.776900000095,1063.2759999999998,1063.276100000143,1064.8987000000477,1515.0,1064.8987000000477,2.0,1064.9092000000476,3.0,13.0,103.0,14.0,1.0,1.6,0.3,Time
,,S60,1,女,21,anonymized,Serial_Dependence_U,2023.2.3,Win32,60.24096385542697,,,,,,1064.9095,337.0,3.0,1064.909600000143,337.0,,,,1068.6947999999522,1069.1882999999525,1068.1785,1068.6947000000475,1065.9144000000954,1068.1782000000476,1069.1884000000953,1069.687,1069.687,1071.443100000143,1115.0,1071.4432999999522,2.0,1071.4526000001429,3.0,14.0,104.0,12.0,1.0,1.2,0.3,Time
,,S60,1,女,21,anonymized,Serial_Dependence_U,2023.2.3,Win32,60.24096385542697,,,,,,1071.4534000000954,170.0,3.0,1071.4534000000954,170.0,,,,1075.023600000143,1075.5159000000954,1074.5072999999522,1075.0234000000953,1072.459100000143,1074.507100000143,1075.5159999999998,1076.0157000000477,1076.0157999999522,1077.5055,1049.0,1077.5057000000477,3.0,1077.5124999999998,3.0,15.0,105.0,6.0,1.0,1.0,0.7,Time
,,S60,1,女,21,anonymized,Serial_Dependence_U,2023.2.3,Win32,60.24096385542697,,,,,,1077.5127999999522,4.0,3.0,1077.5129000000952,4.0,,,,1081.502299999952,1081.9939000000952,1080.9855,1081.502100000143,1078.521100000143,1080.9852999999523,1081.994,1082.493400000095,1082.4934999999998,1083.8165,783.0,1083.8167000000476,1.0,1083.8239000000954,3.0,16.0,106.0,3.0,1.0,1.4,0.3,Time
,,S60,1,女,21,anonymized,Serial_Dependence_U,2023.2.3,Win32,60.24096385542697,,,,,,1083.8242000000475,324.0,3.0,1083.8242999999522,324.0,,,,1087.1964000000953,1087.689100000143,1086.6802000000475,1087.1962000000476,1084.8322000000476,1086.680100000143,1087.6892000000475,1088.1889000000954,1088.1889000000954,1089.7952999999522,1033.0,1089.7955,4.0,1089.8007999999522,3.0,17.0,107.0,25.0,1.0,0.8,0.7,Time
,,S60,1,女,21,anonymized,Serial_Dependence_U,2023.2.3,Win32,60.24096385542697,,,,,,1089.801100000143,76.0,3.0,1089.8012000000476,76.0,,,,1093.791100000143,1094.2837999999522,1093.2749000000954,1093.791,1090.809600000143,1093.2747000000477,1094.2839000000954,1094.783,1094.7832000000476,1096.5892000000476,1316.0,1096.5892999999523,2.0,1096.595100000143,3.0,18.0,108.0,23.0,1.0,1.4,0.3,Time
,,S60,1,女,21,anonymized,Serial_Dependence_U,2023.2.3,Win32,60.24096385542697,,,,,,1096.5954000000952,88.0,3.0,1096.5954000000952,88.0,,,,1100.386,1100.878400000095,1099.8692999999523,1100.3859000000953,1097.6047000000476,1099.869100000143,1100.878400000095,1101.3782999999523,1101.378400000095,1102.7849000000954,617.0,1102.785100000143,1.0,1102.794600000143,3.0,19.0,109.0,2.0,1.0,1.2,0.3,Time
,,S60,1,女,21,anonymized,Serial_Dependence_U,2023.2.3,Win32,60.24096385542697,,,,,,1102.7949000000954,34.0,3.0,1102.7949999999998,34.0,,,,1106.1807000000476,1106.679600000143,1105.6642999999522,1106.180600000143,1103.7992999999522,1105.6642000000477,1106.679600000143,1107.173,1107.1734000000954,1108.6797000000477,1133.0,1108.6797000000477,5.0,1108.6852999999523,3.0,20.0,110.0,20.0,1.0,0.8,0.3,Time
,,S60,1,女,21,anonymized,Serial_Dependence_U,2023.2.3,Win32,60.24096385542697,,,,,,1108.685600000143,76.0,3.0,1108.685600000143,76.0,,,,1112.675600000143,1113.168,1112.1597000000477,1112.6754000000954,1109.6952999999523,1112.1595,1113.1681000001429,1113.6734000000954,1113.6735,1115.6232999999522,1316.0,1115.6235,2.0,1115.629100000143,3.0,21.0,111.0,13.0,1.0,1.4,0.3,Time
,,S60,1,女,21,anonymized,Serial_Dependence_U,2023.2.3,Win32,60.24096385542697,,,,,,1115.6294000000953,195.0,3.0,1115.6295,195.0,,,,1119.8039000000954,1120.2962000000475,1119.3029000000954,1119.8037999999522,1116.639,1119.3027000000477,1120.2962999999522,1120.795100000143,1120.7952000000475,1122.9845,1365.0,1122.984600000143,2.0,1122.9942000000476,3.0,22.0,112.0,4.0,1.0,1.6,0.3,Time
,,S60,1,女,21,anonymized,Serial_Dependence_U,2023.2.3,Win32,60.24096385542697,,,,,,1122.9945,72.0,3.0,1122.994600000143,72.0,,,,1126.347100000143,1126.8399000000952,1125.8327000000477,1126.347,1123.9982000000475,1125.8325,1126.84,1127.339400000095,1127.3394999999998,1128.6624000000952,649.0,1128.6625,2.0,1128.668,3.0,23.0,113.0,5.0,1.0,0.8,0.7,Time
,,S60,1,女,21,anonymized,Serial_Dependence_U,2023.2.3,Win32,60.24096385542697,,,,,,1128.6682000000476,71.0,3.0,1128.6682999999523,71.0,,,,1132.8419000000954,1133.335,1132.3254000000952,1132.8417999999522,1129.6779000000954,1132.3252999999522,1133.335100000143,1133.834600000143,1133.8347000000476,1136.0064000000953,1548.0,1136.0064000000953,3.0,1136.0114999999998,3.0,24.0,114.0,29.0,1.0,1.6,0.7,Time
,,S60,1,女,21,anonymized,Serial_Dependence_U,2023.2.3,Win32,60.24096385542697,,,,,,1136.0117000000475,20.0,3.0,1136.0117999999522,20.0,,,,1139.804,1140.2952999999522,1139.2872000000475,1139.8039000000954,1137.023,1139.287,1140.2954000000952,1140.795100000143,1140.795100000143,1142.4025,1016.0,1142.4027000000476,2.0,1142.4091000001429,3.0,25.0,115.0,22.0,1.0,1.2,0.3,Time
,,S60,1,女,21,anonymized,Serial_Dependence_U,2023.2.3,Win32,60.24096385542697,,,,,,1142.409600000143,274.0,3.0,1142.4097999999522,274.0,,,,1146.5809000000952,1147.0734000000953,1146.0652999999522,1146.5807000000475,1143.416400000095,1146.065100000143,1147.0735,1147.5732000000476,1147.5732999999525,1149.6122999999525,1515.0,1149.6124000000952,2.0,1149.6187999999522,3.0,26.0,116.0,9.0,1.0,1.6,0.7,Time
,,S60,1,女,21,anonymized,Serial_Dependence_U,2023.2.3,Win32,60.24096385542697,,,,,,1149.619,345.0,3.0,1149.619,345.0,,,,1153.2082999999525,1153.7012999999522,1152.691600000143,1153.2082000000476,1150.6262000000477,1152.6915,1153.7014000000952,1154.200900000095,1154.201,1155.7402000000477,1031.0,1155.7404000000954,3.0,1155.7462999999525,3.0,27.0,117.0,21.0,1.0,1.0,0.3,Time
,,S60,1,女,21,anonymized,Serial_Dependence_U,2023.2.3,Win32,60.24096385542697,,,,,,1155.7464000000953,77.0,3.0,1155.7465,77.0,,,,1159.5207999999525,1160.0127000000475,1159.003400000095,1159.520600000143,1156.7559000000954,1159.0032999999523,1160.0127999999522,1160.5122000000476,1160.5122999999523,1162.201100000143,916.0,1162.201100000143,2.0,1162.2085,3.0,28.0,118.0,7.0,1.0,1.2,0.7,Time
,,S60,1,女,21,anonymized,Serial_Dependence_U,2023.2.3,Win32,60.24096385542697,,,,,,1162.208799999952,29.0,3.0,1162.2089000000954,29.0,,,,1166.1814000000952,1166.674100000143,1165.6647999999525,1166.1812000000475,1163.2172000000476,1165.664600000143,1166.6742000000477,1167.1732000000477,1167.1735,1168.679100000143,1215.0,1168.6792000000476,2.0,1168.6844999999998,3.0,29.0,119.0,28.0,1.0,1.4,0.7,Time
,,S60,1,女,21,anonymized,Serial_Dependence_U,2023.2.3,Win32,60.24096385542697,,,,,,1168.6847000000475,251.0,4.0,1170.5877000000476,251.0,s,1.88279999995234,,1174.7407999999523,1175.233100000143,1174.224400000095,1174.7406000001429,1171.5929000000954,1174.2242999999523,1175.2332999999524,1175.7339000000952,1175.734,1177.106600000143,816.0,1177.1067000000476,1.0,1177.113100000143,4.0,0.0,120.0,19.0,1.0,1.6,0.7,Time
,,S60,1,女,21,anonymized,Serial_Dependence_U,2023.2.3,Win32,60.24096385542697,,,,,,1177.1134000000952,88.0,4.0,1177.1152000000477,88.0,,,,1180.5027999999522,1180.995600000143,1179.987,1180.502600000143,1178.1212000000476,1179.9867999999522,1180.995600000143,1181.4951000001429,1181.4952000000476,1182.767600000143,433.0,1182.7677000000476,1.0,1182.7734000000953,4.0,1.0,121.0,0.0,1.0,0.8,0.3,Time
,,S60,1,女,21,anonymized,Serial_Dependence_U,2023.2.3,Win32,60.24096385542697,,,,,,1182.7737000000477,112.0,4.0,1182.7737000000477,112.0,,,,1186.366,1186.8567000000476,1185.8492999999523,1186.3657999999523,1183.7837999999522,1185.849100000143,1186.8567999999525,1187.357600000143,1187.3577000000475,1188.7139000000952,682.0,1188.714100000143,1.0,1188.7224000000954,4.0,2.0,122.0,1.0,1.0,1.0,0.3,Time
,,S60,1,女,21,anonymized,Serial_Dependence_U,2023.2.3,Win32,60.24096385542697,,,,,,1188.7227999999525,293.0,4.0,1188.7227999999525,293.0,,,,1192.4944000000953,1192.985600000143,1191.9932000000476,1192.4942000000476,1189.7284000000952,1191.993100000143,1192.9857000000477,1193.485100000143,1193.4852999999523,1194.7417000000476,700.0,1194.7419000000953,1.0,1194.747600000143,4.0,3.0,123.0,2.0,1.0,1.2,0.3,Time
,,S60,1,女,21,anonymized,Serial_Dependence_U,2023.2.3,Win32,60.24096385542697,,,,,,1194.7477999999523,137.0,4.0,1194.7479000000951,137.0,,,,1198.7204000000952,1199.2137000000475,1198.205100000143,1198.7202999999522,1195.7569999999998,1198.2049000000952,1199.2137000000475,1199.713299999952,1199.713299999952,1201.6192999999523,1349.0,1201.6195,3.0,1201.624600000143,4.0,4.0,124.0,18.0,1.0,1.4,0.7,Time
,,S60,1,女,21,anonymized,Serial_Dependence_U,2023.2.3,Win32,60.24096385542697,,,,,,1201.6247999999523,354.0,4.0,1201.6249000000953,354.0,,,,1205.382100000143,1205.8749000000953,1204.866,1205.3819999999998,1202.6345,1204.8659000000953,1205.875,1206.3747999999523,1206.3749000000953,1208.1982999999525,1283.0,1208.198600000143,4.0,1208.2074000000953,4.0,5.0,125.0,7.0,1.0,1.2,0.7,Time
,,S60,1,女,21,anonymized,Serial_Dependence_U,2023.2.3,Win32,60.24096385542697,,,,,,1208.207600000143,335.0,4.0,1208.207600000143,335.0,,,,1212.376100000143,1212.8684999999998,1211.860600000143,1212.376,1209.2122000000477,1211.8604000000953,1212.868600000143,1213.369100000143,1213.369100000143,1215.6904000000952,1433.0,1215.6905,2.0,1215.6955,4.0,6.0,126.0,29.0,1.0,1.6,0.7,Time
,,S60,1,女,21,anonymized,Serial_Dependence_U,2023.2.3,Win32,60.24096385542697,,,,,,1215.6957000000475,35.0,4.0,1215.6957000000475,35.0,,,,1219.888400000095,1220.379100000143,1219.3712000000476,1219.888100000143,1216.706600000143,1219.371,1220.3792000000476,1220.879,1220.879100000143,1223.1352999999522,1665.0,1223.1355,3.0,1223.1452000000477,4.0,7.0,127.0,24.0,1.0,1.6,0.3,Time
,,S60,1,女,21,anonymized,Serial_Dependence_U,2023.2.3,Win32,60.24096385542697,,,,,,1223.1455,186.0,4.0,1223.145600000143,186.0,,,,1226.4985,1226.9907000000476,1225.9817000000476,1226.4982999999522,1224.1497999999522,1225.9815,1226.9907999999523,1227.4902000000477,1227.4902000000477,1229.179799999952,999.0,1229.1799000000954,4.0,1229.1902999999522,4.0,8.0,128.0,5.0,1.0,0.8,0.7,Time
,,S60,1,女,21,anonymized,Serial_Dependence_U,2023.2.3,Win32,60.24096385542697,,,,,,1229.1907000000476,74.0,4.0,1229.1907999999523,74.0,,,,1233.1589000000954,1233.6509999999998,1232.643,1233.1587000000477,1230.1965,1232.6427999999523,1233.651100000143,1234.1512000000475,1234.1512999999522,1236.3734000000952,1465.0,1236.373600000143,3.0,1236.3797999999522,4.0,9.0,129.0,28.0,1.0,1.4,0.7,Time
,,S60,1,女,21,anonymized,Serial_Dependence_U,2023.2.3,Win32,60.24096385542697,,,,,,1236.3799000000954,80.0,4.0,1236.38,80.0,,,,1240.553,1241.0459000000951,1240.037,1240.5529000000954,1237.3892000000476,1240.036900000095,1241.0459999999998,1241.5507000000475,1241.5507999999522,1243.6174000000954,1466.0,1243.6174999999998,2.0,1243.6237999999523,4.0,10.0,130.0,9.0,1.0,1.6,0.7,Time
,,S60,1,女,21,anonymized,Serial_Dependence_U,2023.2.3,Win32,60.24096385542697,,,,,,1243.6242000000475,6.0,4.0,1243.6242000000475,6.0,,,,1247.8131000001429,1248.3064000000952,1247.298100000143,1247.813,1244.6334000000952,1247.2979000000953,1248.3065,1248.8057000000476,1248.8057999999523,1250.8284999999998,1532.0,1250.8284999999998,3.0,1250.835100000143,4.0,11.0,131.0,4.0,1.0,1.6,0.3,Time
,,S60,1,女,21,anonymized,Serial_Dependence_U,2023.2.3,Win32,60.24096385542697,,,,,,1250.8354000000952,28.0,4.0,1250.8355,28.0,,,,1254.2254000000953,1254.717600000143,1253.708600000143,1254.2252000000476,1251.8444000000952,1253.7084000000953,1254.717600000143,1255.2172999999525,1255.2175,1257.157100000143,1033.0,1257.1572999999523,4.0,1257.1637999999523,4.0,12.0,132.0,10.0,1.0,0.8,0.3,Time
,,S60,1,女,21,anonymized,Serial_Dependence_U,2023.2.3,Win32,60.24096385542697,,,,,,1257.164,135.0,4.0,1257.164100000143,135.0,,,,1260.7359000000954,1261.228900000095,1260.219900000095,1260.7357999999522,1258.1722999999522,1260.2197000000476,1261.2289999999998,1261.728600000143,1261.728900000095,1263.352100000143,982.0,1263.3522999999525,3.0,1263.3582999999524,4.0,13.0,133.0,26.0,1.0,1.0,0.7,Time
,,S60,1,女,21,anonymized,Serial_Dependence_U,2023.2.3,Win32,60.24096385542697,,,,,,1263.358600000143,209.0,4.0,1263.358600000143,209.0,,,,1266.7487000000476,1267.2409000000953,1266.233100000143,1266.7484000000952,1264.366100000143,1266.2327999999522,1267.241,1267.7405,1267.7405,1269.6967000000477,1000.0,1269.6967999999522,4.0,1269.7062999999523,4.0,14.0,134.0,20.0,1.0,0.8,0.3,Time
,,S60,1,女,21,anonymized,Serial_Dependence_U,2023.2.3,Win32,60.24096385542697,,,,,,1269.706600000143,128.0,4.0,1269.7067000000477,128.0,,,,1273.076600000143,1273.5687999999525,1272.5607999999522,1273.0764000000952,1270.7116000001429,1272.560600000143,1273.5687999999525,1274.068,1274.068,1275.775,1216.0,1275.775100000143,5.0,1275.7804999999998,4.0,15.0,135.0,15.0,1.0,0.8,0.7,Time
,,S60,1,女,21,anonymized,Serial_Dependence_U,2023.2.3,Win32,60.24096385542697,,,,,,1275.7807000000475,292.0,4.0,1275.7807999999525,292.0,,,,1279.338,1279.830400000095,1278.822,1279.3377999999525,1276.789600000143,1278.8219000000952,1279.8305,1280.3299000000952,1280.33,1282.2855,1332.0,1282.285799999952,5.0,1282.2907000000475,4.0,16.0,136.0,6.0,1.0,1.0,0.7,Time
,,S60,1,女,21,anonymized,Serial_Dependence_U,2023.2.3,Win32,60.24096385542697,,,,,,1282.2909000000952,48.0,4.0,1282.291,48.0,,,,1285.884,1286.375100000143,1285.3659000000953,1285.8837999999523,1283.3015,1285.3657999999523,1286.3752000000477,1286.8747999999523,1286.8749000000953,1288.2974000000952,933.0,1288.297600000143,2.0,1288.3047000000477,4.0,17.0,137.0,11.0,1.0,1.0,0.3,Time
,,S60,1,女,21,anonymized,Serial_Dependence_U,2023.2.3,Win32,60.24096385542697,,,,,,1288.3049999999998,244.0,4.0,1288.305100000143,244.0,,,,1292.277900000095,1292.769100000143,1291.7762000000475,1292.2777999999523,1289.3122999999523,1291.7759999999998,1292.7692000000477,1293.2687999999523,1293.2689000000953,1295.640600000143,1615.0,1295.6407000000477,4.0,1295.646100000143,4.0,18.0,138.0,23.0,1.0,1.4,0.3,Time
,,S60,1,女,21,anonymized,Serial_Dependence_U,2023.2.3,Win32,60.24096385542697,,,,,,1295.646299999952,67.0,4.0,1295.6464999999998,67.0,,,,1299.406600000143,1299.896600000143,1298.9046000001429,1299.4064000000951,1296.6567000000475,1298.9044000000954,1299.896600000143,1300.397,1300.3972000000476,1301.9532000000477,1232.0,1301.9534000000954,3.0,1301.9594000000952,4.0,19.0,139.0,17.0,1.0,1.2,0.7,Time
,,S60,1,女,21,anonymized,Serial_Dependence_U,2023.2.3,Win32,60.24096385542697,,,,,,1301.959600000143,40.0,4.0,1301.9597000000476,40.0,,,,1305.948799999952,1306.441600000143,1305.4322000000475,1305.948799999952,1302.9675,1305.432,1306.4417000000476,1306.9414000000952,1306.941600000143,1308.996600000143,1598.0,1308.9967000000477,4.0,1309.0022000000477,4.0,20.0,140.0,3.0,1.0,1.4,0.3,Time
,,S60,1,女,21,anonymized,Serial_Dependence_U,2023.2.3,Win32,60.24096385542697,,,,,,1309.0024000000951,74.0,4.0,1309.0024999999998,74.0,,,,1312.360100000143,1312.853100000143,1311.8452999999522,1312.3599000000952,1309.9962999999525,1311.845100000143,1312.8532999999522,1313.3527000000477,1313.352799999952,1314.5259000000954,683.0,1314.5259000000954,2.0,1314.5362000000475,4.0,21.0,141.0,25.0,1.0,0.8,0.7,Time
,,S60,1,女,21,anonymized,Serial_Dependence_U,2023.2.3,Win32,60.24096385542697,,,,,,1314.536600000143,138.0,4.0,1314.5367999999523,138.0,,,,1318.3217000000477,1318.82,1317.8059999999998,1318.321600000143,1315.540600000143,1317.805900000095,1318.820100000143,1319.3142999999525,1319.3142999999525,1321.1212999999525,1034.0,1321.1215,2.0,1321.128600000143,4.0,22.0,142.0,12.0,1.0,1.2,0.3,Time
,,S60,1,女,21,anonymized,Serial_Dependence_U,2023.2.3,Win32,60.24096385542697,,,,,,1321.1294000000953,98.0,4.0,1321.1297000000477,98.0,,,,1324.7175,1325.2089999999998,1324.200100000143,1324.7172999999525,1322.1347999999523,1324.200100000143,1325.2089999999998,1325.7089999999998,1325.709100000143,1327.3155,1133.0,1327.3157000000476,4.0,1327.321600000143,4.0,23.0,143.0,21.0,1.0,1.0,0.3,Time
,,S60,1,女,21,anonymized,Serial_Dependence_U,2023.2.3,Win32,60.24096385542697,,,,,,1327.3217999999522,291.0,4.0,1327.3219000000952,291.0,,,,1331.295100000143,1331.7875,1330.7789000000953,1331.2949999999998,1328.3317000000477,1330.7787999999523,1331.787600000143,1332.287100000143,1332.2872000000475,1334.126,1249.0,1334.1262000000477,2.0,1334.1327000000476,4.0,24.0,144.0,8.0,1.0,1.4,0.7,Time
,,S60,1,女,21,anonymized,Serial_Dependence_U,2023.2.3,Win32,60.24096385542697,,,,,,1334.132900000095,67.0,4.0,1334.133,67.0,,,,1337.7057000000475,1338.1987000000477,1337.1894000000952,1337.7055,1335.1419999999998,1337.1892999999525,1338.198799999952,1338.7039000000952,1338.7039000000952,1339.6544000000954,466.0,1339.6545,1.0,1339.6592999999525,4.0,25.0,145.0,16.0,1.0,1.0,0.7,Time
,,S60,1,女,21,anonymized,Serial_Dependence_U,2023.2.3,Win32,60.24096385542697,,,,,,1339.6595,98.0,4.0,1339.659600000143,98.0,,,,1343.8502999999523,1344.3435,1343.334900000095,1343.8502000000476,1340.6692999999525,1343.3347000000476,1344.343600000143,1344.842799999952,1344.8429000000954,1346.283,1066.0,1346.2832000000476,1.0,1346.290299999952,4.0,26.0,146.0,14.0,1.0,1.6,0.3,Time
,,S60,1,女,21,anonymized,Serial_Dependence_U,2023.2.3,Win32,60.24096385542697,,,,,,1346.2907999999522,333.0,4.0,1346.291100000143,333.0,,,,1350.2795,1350.7717000000475,1349.7622999999523,1350.2792999999522,1347.298100000143,1349.7622999999523,1350.7717999999522,1351.271299999952,1351.271299999952,1352.9289000000954,966.0,1352.929100000143,1.0,1352.936100000143,4.0,27.0,147.0,13.0,1.0,1.4,0.3,Time
,,S60,1,女,21,anonymized,Serial_Dependence_U,2023.2.3,Win32,60.24096385542697,,,,,,1352.9367999999522,322.0,4.0,1352.9369000000952,322.0,,,,1356.7237999999522,1357.2164000000953,1356.207600000143,1356.723600000143,1353.9427000000476,1356.2075,1357.2165,1357.7157999999522,1357.7157999999522,1359.7379000000954,1565.0,1359.7379000000954,5.0,1359.743400000095,4.0,28.0,148.0,22.0,1.0,1.2,0.3,Time
,,S60,1,女,21,anonymized,Serial_Dependence_U,2023.2.3,Win32,60.24096385542697,,,,,,1359.743600000143,248.0,4.0,1359.7437000000475,248.0,,,,1363.5194000000954,1364.010600000143,1363.0022000000477,1363.519100000143,1360.754,1363.002100000143,1364.0107000000476,1364.5097999999523,1364.5099000000953,1366.3497999999522,1283.0,1366.3499000000952,4.0,1366.355,4.0,29.0,149.0,27.0,1.0,1.2,0.7,Time
,,S60,1,女,21,anonymized,Serial_Dependence_U,2023.2.3,Win32,60.24096385542697,,,,,,1366.3552999999522,217.0,5.0,1371.0449999999998,217.0,s,4.663299999952187,,1374.993100000143,1375.4842999999523,1374.4764000000953,1374.9927999999522,1372.0442999999525,1374.4762000000476,1375.4845,1375.984,1375.984100000143,1377.9064999999998,1432.0,1377.906600000143,3.0,1377.9129000000953,5.0,0.0,150.0,18.0,1.0,1.4,0.7,Time
,,S60,1,女,21,anonymized,Serial_Dependence_U,2023.2.3,Win32,60.24096385542697,,,,,,1377.9132000000477,359.0,5.0,1377.914100000143,359.0,,,,1381.486600000143,1381.9787000000476,1380.9707000000476,1381.4864000000953,1378.9227999999523,1380.9705,1381.9787000000476,1382.4787000000476,1382.478900000095,1384.035799999952,1066.0,1384.0359999999998,4.0,1384.0445,5.0,1.0,151.0,26.0,1.0,1.0,0.7,Time
,,S60,1,女,21,anonymized,Serial_Dependence_U,2023.2.3,Win32,60.24096385542697,,,,,,1384.044799999952,94.0,5.0,1384.0449000000954,94.0,,,,1387.8305,1388.3239000000954,1387.3172999999522,1387.830400000095,1385.0499000000952,1387.3172000000477,1388.3239000000954,1388.823,1388.823100000143,1390.364,982.0,1390.3642000000475,2.0,1390.373600000143,5.0,2.0,152.0,22.0,1.0,1.2,0.3,Time
,,S60,1,女,21,anonymized,Serial_Dependence_U,2023.2.3,Win32,60.24096385542697,,,,,,1390.373900000095,198.0,5.0,1390.374,198.0,,,,1394.1274000000951,1394.618600000143,1393.6104000000953,1394.127299999952,1391.3782999999523,1393.6102000000476,1394.618600000143,1395.118400000095,1395.118400000095,1396.974600000143,1465.0,1396.9747999999522,4.0,1396.9845,5.0,3.0,153.0,7.0,1.0,1.2,0.7,Time
,,S60,1,女,21,anonymized,Serial_Dependence_U,2023.2.3,Win32,60.24096385542697,,,,,,1396.9849000000952,62.0,5.0,1396.9849000000952,62.0,,,,1400.3375,1400.8302000000476,1399.822,1400.3372000000477,1397.989600000143,1399.8219000000952,1400.8302000000476,1401.3322000000476,1401.3322000000476,1402.8362999999522,1114.0,1402.8364000000952,5.0,1402.8432999999525,5.0,4.0,154.0,5.0,1.0,0.8,0.7,Time
,,S60,1,女,21,anonymized,Serial_Dependence_U,2023.2.3,Win32,60.24096385542697,,,,,,1402.843600000143,305.0,5.0,1402.843600000143,305.0,,,,1406.4324000000952,1406.9254000000954,1405.9162000000476,1406.4322999999522,1403.8522000000476,1405.916,1406.9254999999998,1407.4244000000954,1407.424600000143,1409.1644000000954,1049.0,1409.1644000000954,3.0,1409.1705,5.0,5.0,155.0,1.0,1.0,1.0,0.3,Time
,,S60,1,女,21,anonymized,Serial_Dependence_U,2023.2.3,Win32,60.24096385542697,,,,,,1409.1707000000476,245.0,5.0,1409.1707999999524,245.0,,,,1413.1609000000954,1413.652600000143,1412.6439000000953,1413.1607000000477,1410.1797000000477,1412.6437999999523,1413.6527000000476,1414.158600000143,1414.1587000000477,1416.159,1417.0,1416.1591000001429,3.0,1416.1645,5.0,6.0,156.0,23.0,1.0,1.4,0.3,Time
,,S60,1,女,21,anonymized,Serial_Dependence_U,2023.2.3,Win32,60.24096385542697,,,,,,1416.1647000000476,146.0,5.0,1416.1647999999525,146.0,,,,1419.9227000000476,1420.4137999999523,1419.4062000000476,1419.9224000000952,1417.1734000000954,1419.4057999999525,1420.414,1420.9139000000953,1420.9142999999522,1422.853100000143,1516.0,1422.8532000000475,4.0,1422.8587999999522,5.0,7.0,157.0,27.0,1.0,1.2,0.7,Time
,,S60,1,女,21,anonymized,Serial_Dependence_U,2023.2.3,Win32,60.24096385542697,,,,,,1422.859100000143,129.0,5.0,1422.859100000143,129.0,,,,1426.416400000095,1426.9085,1425.9002999999525,1426.4162999999523,1423.8677000000475,1425.9002000000476,1426.9085,1427.408100000143,1427.408100000143,1428.8472999999522,1066.0,1428.8472999999522,4.0,1428.852600000143,5.0,8.0,158.0,16.0,1.0,1.0,0.7,Time
,,S60,1,女,21,anonymized,Serial_Dependence_U,2023.2.3,Win32,60.24096385542697,,,,,,1428.852799999952,290.0,5.0,1428.852799999952,290.0,,,,1432.6447999999525,1433.137,1432.1279000000952,1432.6446000001429,1429.862100000143,1432.1277000000475,1433.137100000143,1433.6364000000954,1433.6364999999998,1435.361,1300.0,1435.3611000001429,4.0,1435.3702000000476,5.0,9.0,159.0,12.0,1.0,1.2,0.3,Time
,,S60,1,女,21,anonymized,Serial_Dependence_U,2023.2.3,Win32,60.24096385542697,,,,,,1435.3705,274.0,5.0,1435.370600000143,274.0,,,,1439.1229999999998,1439.614600000143,1438.606100000143,1439.1227999999523,1436.374,1438.6059000000953,1439.6147000000476,1440.1144000000952,1440.1144000000952,1441.8202000000476,1232.0,1441.8202999999523,3.0,1441.8257999999523,5.0,10.0,160.0,17.0,1.0,1.2,0.7,Time
,,S60,1,女,21,anonymized,Serial_Dependence_U,2023.2.3,Win32,60.24096385542697,,,,,,1441.826,75.0,5.0,1441.826100000143,75.0,,,,1446.000100000143,1446.4927000000475,1445.4845,1446.0,1442.835600000143,1445.4842999999523,1446.4927000000475,1446.9917999999525,1446.9917999999525,1448.7659000000954,1350.0,1448.7659999999998,2.0,1448.771299999952,5.0,11.0,161.0,29.0,1.0,1.6,0.7,Time
,,S60,1,女,21,anonymized,Serial_Dependence_U,2023.2.3,Win32,60.24096385542697,,,,,,1448.7714999999998,125.0,5.0,1448.7717000000475,125.0,,,,1452.9381000001429,1453.4412000000475,1452.428,1452.9377999999522,1449.7792999999522,1452.4277999999522,1453.4412999999522,1453.9365,1453.936600000143,1455.7427000000475,1433.0,1455.7429000000952,2.0,1455.7487999999523,5.0,12.0,162.0,19.0,1.0,1.6,0.7,Time
,,S60,1,女,21,anonymized,Serial_Dependence_U,2023.2.3,Win32,60.24096385542697,,,,,,1455.749,233.0,5.0,1455.749,233.0,,,,1459.1212000000476,1459.6147999999523,1458.6072000000477,1459.121100000143,1456.742100000143,1458.607100000143,1459.6149000000953,1460.1142999999522,1460.1145,1461.536900000095,916.0,1461.537,4.0,1461.5431000001429,5.0,13.0,163.0,10.0,1.0,0.8,0.3,Time
,,S60,1,女,21,anonymized,Serial_Dependence_U,2023.2.3,Win32,60.24096385542697,,,,,,1461.5435,257.0,5.0,1461.5437000000477,257.0,,,,1465.1164000000954,1465.6097000000475,1464.6007999999522,1465.1162000000477,1462.5529000000954,1464.6007000000477,1465.6099000000952,1466.1087000000475,1466.1089000000952,1467.7507999999525,1233.0,1467.751100000143,4.0,1467.7654000000953,5.0,14.0,164.0,6.0,1.0,1.0,0.7,Time
,,S60,1,女,21,anonymized,Serial_Dependence_U,2023.2.3,Win32,60.24096385542697,,,,,,1467.7659000000954,304.0,5.0,1467.7659999999998,304.0,,,,1471.929100000143,1472.4209999999998,1471.4277000000477,1471.9287999999522,1468.764100000143,1471.4277000000477,1472.421100000143,1472.9202000000475,1472.9202999999522,1474.8924000000952,1532.0,1474.8925,3.0,1474.9007000000477,5.0,15.0,165.0,24.0,1.0,1.6,0.3,Time
,,S60,1,女,21,anonymized,Serial_Dependence_U,2023.2.3,Win32,60.24096385542697,,,,,,1474.9012999999522,134.0,5.0,1474.901600000143,134.0,,,,1478.4897000000476,1478.9824999999998,1477.974,1478.4895,1475.9089000000954,1477.9737000000475,1478.982600000143,1479.482,1479.482100000143,1481.021,1098.0,1481.021100000143,4.0,1481.0277000000476,5.0,16.0,166.0,11.0,1.0,1.0,0.3,Time
,,S60,1,女,21,anonymized,Serial_Dependence_U,2023.2.3,Win32,60.24096385542697,,,,,,1481.027900000095,187.0,5.0,1481.028,187.0,,,,1484.420100000143,1484.9104000000953,1483.9027000000476,1484.419799999952,1482.037,1483.9025,1484.9105,1485.4102999999525,1485.4105,1486.7685,949.0,1486.7687000000476,4.0,1486.7794000000954,5.0,17.0,167.0,0.0,1.0,0.8,0.3,Time
,,S60,1,女,21,anonymized,Serial_Dependence_U,2023.2.3,Win32,60.24096385542697,,,,,,1486.7797000000476,101.0,5.0,1486.7797999999525,101.0,,,,1490.1629000000953,1490.6562000000476,1489.6475,1490.1627999999523,1487.783,1489.647400000095,1490.6562000000476,1491.155299999952,1491.1554999999998,1492.6289000000952,1316.0,1492.629100000143,5.0,1492.6392999999523,5.0,18.0,168.0,20.0,1.0,0.8,0.3,Time
,,S60,1,女,21,anonymized,Serial_Dependence_U,2023.2.3,Win32,60.24096385542697,,,,,,1492.6395,355.0,5.0,1492.639600000143,355.0,,,,1496.2242000000476,1496.7182000000475,1495.7087000000477,1496.224100000143,1493.6432999999522,1495.7085,1496.7184000000952,1497.2172999999525,1497.2174000000953,1498.9564000000953,1248.0,1498.9564000000953,4.0,1498.9622999999522,5.0,19.0,169.0,21.0,1.0,1.0,0.3,Time
,,S60,1,女,21,anonymized,Serial_Dependence_U,2023.2.3,Win32,60.24096385542697,,,,,,1498.9625,229.0,5.0,1498.9627000000476,229.0,,,,1502.3377999999525,1502.828600000143,1501.8212000000476,1502.3375,1499.9722000000477,1501.8209000000952,1502.828600000143,1503.329100000143,1503.3292999999524,1504.8702999999523,1083.0,1504.8704000000953,5.0,1504.8909000000954,5.0,20.0,170.0,25.0,1.0,0.8,0.7,Time
,,S60,1,女,21,anonymized,Serial_Dependence_U,2023.2.3,Win32,60.24096385542697,,,,,,1504.8914000000952,218.0,5.0,1504.891600000143,218.0,,,,1508.857600000143,1509.3569000000953,1508.3417999999522,1508.8574000000954,1505.894100000143,1508.3415,1509.3569000000953,1509.856100000143,1509.8562000000477,1511.6885,1485.0,1511.688600000143,4.0,1511.6949000000952,5.0,21.0,171.0,28.0,1.0,1.4,0.7,Time
,,S60,1,女,21,anonymized,Serial_Dependence_U,2023.2.3,Win32,60.24096385542697,,,,,,1511.6952000000476,290.0,5.0,1511.6952999999523,290.0,,,,1515.8687000000475,1516.3672000000477,1515.3545,1515.8684999999998,1512.6885,1515.353600000143,1516.3672000000477,1516.8672000000477,1516.8672000000477,1519.0655,1797.0,1519.065600000143,4.0,1519.0717999999522,5.0,22.0,172.0,4.0,1.0,1.6,0.3,Time
,,S60,1,女,21,anonymized,Serial_Dependence_U,2023.2.3,Win32,60.24096385542697,,,,,,1519.072,187.0,5.0,1519.0721000001429,187.0,,,,1522.8467000000476,1523.3447000000476,1522.3305,1522.8462999999522,1520.0655,1522.330400000095,1523.3447000000476,1523.8444000000952,1523.8444000000952,1525.5607000000475,1264.0,1525.5607999999522,4.0,1525.5667999999523,5.0,23.0,173.0,2.0,1.0,1.2,0.3,Time
,,S60,1,女,21,anonymized,Serial_Dependence_U,2023.2.3,Win32,60.24096385542697,,,,,,1525.567,290.0,5.0,1525.567100000143,290.0,,,,1528.9247000000476,1529.423,1528.4084000000953,1528.9245,1526.576100000143,1528.4082999999523,1529.423,1529.9229000000953,1529.9229000000953,1531.3387000000475,1048.0,1531.3389000000952,5.0,1531.345100000143,5.0,24.0,174.0,15.0,1.0,0.8,0.7,Time
,,S60,1,女,21,anonymized,Serial_Dependence_U,2023.2.3,Win32,60.24096385542697,,,,,,1531.3452999999522,54.0,5.0,1531.3454000000952,54.0,,,,1535.319299999952,1535.8176000001429,1534.803,1535.3192000000477,1532.338600000143,1534.8029000000954,1535.8176000001429,1536.3175,1536.3176000001429,1538.066600000143,1399.0,1538.0667999999523,3.0,1538.0727999999522,5.0,25.0,175.0,3.0,1.0,1.4,0.3,Time
,,S60,1,女,21,anonymized,Serial_Dependence_U,2023.2.3,Win32,60.24096385542697,,,,,,1538.073,339.0,5.0,1538.073100000143,339.0,,,,1542.047100000143,1542.5459999999998,1541.5309000000952,1542.047,1539.0662999999522,1541.5304999999998,1542.5459999999998,1543.045100000143,1543.045100000143,1545.2277000000477,1713.0,1545.227799999952,4.0,1545.2349000000952,5.0,26.0,176.0,13.0,1.0,1.4,0.3,Time
,,S60,1,女,21,anonymized,Serial_Dependence_U,2023.2.3,Win32,60.24096385542697,,,,,,1545.235100000143,143.0,5.0,1545.2352000000476,143.0,,,,1549.4079000000952,1549.9064000000951,1548.8922000000475,1549.4077000000475,1546.2275,1548.891600000143,1549.9064999999998,1550.406100000143,1550.406100000143,1552.588100000143,1578.0,1552.5882000000477,3.0,1552.594100000143,5.0,27.0,177.0,14.0,1.0,1.6,0.3,Time
,,S60,1,女,21,anonymized,Serial_Dependence_U,2023.2.3,Win32,60.24096385542697,,,,,,1552.5944000000952,308.0,5.0,1552.5944000000952,308.0,,,,1556.7687999999523,1557.2667999999524,1556.2522000000477,1556.7687000000476,1553.603900000095,1556.252,1557.2667999999524,1557.7664000000952,1557.7664000000952,1560.215,1797.0,1560.2152000000476,4.0,1560.2204000000952,5.0,28.0,178.0,9.0,1.0,1.6,0.7,Time
,,S60,1,女,21,anonymized,Serial_Dependence_U,2023.2.3,Win32,60.24096385542697,,,,,,1560.2207000000476,125.0,5.0,1560.2207999999523,125.0,,,,1564.1792999999525,1564.6769000000952,1563.6627999999523,1564.179,1561.2309000000953,1563.6625,1564.6769000000952,1565.1769000000952,1565.177,1567.4761000001429,1744.0,1567.4762000000476,4.0,1567.4837999999522,5.0,29.0,179.0,8.0,1.0,1.4,0.7,Time
,,S60,1,女,21,anonymized,Serial_Dependence_U,2023.2.3,Win32,60.24096385542697,,,,,,1567.484,179.0,6.0,1594.444,179.0,s,26.938099999904807,,1598.6339000000953,1599.1322000000475,1598.1177999999522,1598.6334000000952,1595.4527000000476,1598.1174000000954,1599.1322000000475,1599.6319000000954,1599.6319999999998,1601.6315,1548.0,1601.632100000143,3.0,1601.6447000000476,6.0,0.0,180.0,4.0,1.0,1.6,0.3,Time
,,S60,1,女,21,anonymized,Serial_Dependence_U,2023.2.3,Win32,60.24096385542697,,,,,,1601.645100000143,42.0,6.0,1601.646299999952,42.0,,,,1605.4281000001429,1605.9267000000475,1604.911900000095,1605.4279000000954,1602.6642000000477,1604.9117000000476,1605.9267000000475,1606.4262000000476,1606.4262999999523,1607.6087000000475,834.0,1607.6087999999522,1.0,1607.6142999999522,6.0,1.0,181.0,7.0,1.0,1.2,0.7,Time
,,S60,1,女,21,anonymized,Serial_Dependence_U,2023.2.3,Win32,60.24096385542697,,,,,,1607.6145,169.0,6.0,1607.614600000143,169.0,,,,1611.1739000000953,1611.672100000143,1610.6572999999523,1611.1736000001429,1608.6092000000476,1610.6572000000476,1611.672100000143,1612.171600000143,1612.1717000000476,1613.371,732.0,1613.371100000143,2.0,1613.3767999999525,6.0,2.0,182.0,16.0,1.0,1.0,0.7,Time
,,S60,1,女,21,anonymized,Serial_Dependence_U,2023.2.3,Win32,60.24096385542697,,,,,,1613.377100000143,101.0,6.0,1613.3772000000477,101.0,,,,1617.368100000143,1617.8667999999525,1616.852799999952,1617.368,1614.3867000000475,1616.852100000143,1617.8667999999525,1618.3662999999522,1618.3664000000954,1619.616100000143,965.0,1619.6162000000477,1.0,1619.6235,6.0,3.0,183.0,3.0,1.0,1.4,0.3,Time
,,S60,1,女,21,anonymized,Serial_Dependence_U,2023.2.3,Win32,60.24096385542697,,,,,,1619.6237999999523,224.0,6.0,1619.6237999999523,224.0,,,,1623.7796000001429,1624.2785,1623.2637999999522,1623.7794000000954,1620.616,1623.263400000095,1624.2785,1624.7777999999523,1624.7777999999523,1626.110600000143,1049.0,1626.1107999999522,1.0,1626.1167999999525,6.0,4.0,184.0,29.0,1.0,1.6,0.7,Time
,,S60,1,女,21,anonymized,Serial_Dependence_U,2023.2.3,Win32,60.24096385542697,,,,,,1626.117,125.0,6.0,1626.117299999952,125.0,,,,1629.691100000143,1630.1902000000475,1629.1759000000952,1629.691100000143,1627.109600000143,1629.1754999999998,1630.1902000000475,1630.689600000143,1630.6897000000477,1632.1392999999523,916.0,1632.1395,2.0,1632.1455,6.0,5.0,185.0,21.0,1.0,1.0,0.3,Time
,,S60,1,女,21,anonymized,Serial_Dependence_U,2023.2.3,Win32,60.24096385542697,,,,,,1632.1457000000476,80.0,6.0,1632.1457999999525,80.0,,,,1636.102600000143,1636.6011000001429,1635.5872000000477,1636.1024000000953,1633.1385,1635.5866000001429,1636.6011000001429,1637.1009000000952,1637.1009000000952,1639.2327000000475,1664.0,1639.233,4.0,1639.239600000143,6.0,6.0,186.0,8.0,1.0,1.4,0.7,Time
,,S60,1,女,21,anonymized,Serial_Dependence_U,2023.2.3,Win32,60.24096385542697,,,,,,1639.2397999999523,311.0,6.0,1639.2399000000953,311.0,,,,1643.429600000143,1643.9284000000953,1642.9152000000477,1643.4294000000953,1640.2487999999523,1642.9145,1643.9284000000953,1644.4282999999523,1644.4284000000953,1646.8597000000475,1952.0,1646.8597999999522,4.0,1646.8656000001429,6.0,7.0,187.0,24.0,1.0,1.6,0.3,Time
,,S60,1,女,21,anonymized,Serial_Dependence_U,2023.2.3,Win32,60.24096385542697,,,,,,1646.8659000000953,54.0,6.0,1646.866,54.0,,,,1650.208600000143,1650.7067999999522,1649.7077999999522,1650.2084000000953,1647.876,1649.7077000000477,1650.7067999999522,1651.206100000143,1651.206100000143,1653.005,1210.0,1653.0051000001429,5.0,1653.0107999999525,6.0,8.0,188.0,25.0,1.0,0.8,0.7,Time
,,S60,1,女,21,anonymized,Serial_Dependence_U,2023.2.3,Win32,60.24096385542697,,,,,,1653.011100000143,127.0,6.0,1653.011100000143,127.0,,,,1656.7695,1657.2672000000475,1656.2527999999522,1656.769,1654.021,1656.252600000143,1657.2672000000475,1657.7675,1657.7675,1659.633,1432.0,1659.633100000143,4.0,1659.6395,6.0,9.0,189.0,17.0,1.0,1.2,0.7,Time
,,S60,1,女,21,anonymized,Serial_Dependence_U,2023.2.3,Win32,60.24096385542697,,,,,,1659.6399000000954,23.0,6.0,1659.6399000000954,23.0,,,,1662.9975,1663.495600000143,1662.481,1662.9972999999522,1660.6325,1662.4807999999523,1663.495600000143,1663.9954000000953,1663.9954000000953,1665.7442000000476,1250.0,1665.7445,5.0,1665.7502000000477,6.0,10.0,190.0,5.0,1.0,0.8,0.7,Time
,,S60,1,女,21,anonymized,Serial_Dependence_U,2023.2.3,Win32,60.24096385542697,,,,,,1665.7504000000954,322.0,6.0,1665.7505,322.0,,,,1669.5417000000475,1670.0402000000477,1669.0259000000954,1669.5417000000475,1666.7622000000476,1669.0255,1670.0402000000477,1670.5399000000953,1670.5399000000953,1672.238900000095,1246.0,1672.239,3.0,1672.2452000000476,6.0,11.0,191.0,2.0,1.0,1.2,0.3,Time
,,S60,1,女,21,anonymized,Serial_Dependence_U,2023.2.3,Win32,60.24096385542697,,,,,,1672.2455,74.0,6.0,1672.2455,74.0,,,,1676.0032999999523,1676.501600000143,1675.4867000000477,1676.003100000143,1673.2545,1675.4864000000953,1676.501600000143,1677.0012999999522,1677.0012999999522,1678.800299999952,1411.0,1678.8004000000954,4.0,1678.806600000143,6.0,12.0,192.0,27.0,1.0,1.2,0.7,Time
,,S60,1,女,21,anonymized,Serial_Dependence_U,2023.2.3,Win32,60.24096385542697,,,,,,1678.8067999999523,201.0,6.0,1678.8069000000953,201.0,,,,1682.3659000000953,1682.8635,1681.8482000000477,1682.3652999999522,1679.8162999999522,1681.848100000143,1682.8635,1683.362799999952,1683.362799999952,1685.0449999999998,1366.0,1685.045100000143,5.0,1685.0504999999998,6.0,13.0,193.0,6.0,1.0,1.0,0.7,Time
,,S60,1,女,21,anonymized,Serial_Dependence_U,2023.2.3,Win32,60.24096385542697,,,,,,1685.0507000000475,136.0,6.0,1685.0507999999522,136.0,,,,1688.4427000000476,1688.9414000000952,1687.926600000143,1688.4426000001429,1686.0612000000476,1687.9265,1688.9414000000952,1689.4412000000475,1689.4412000000475,1691.0069000000954,1165.0,1691.0069000000954,5.0,1691.0132000000476,6.0,14.0,194.0,0.0,1.0,0.8,0.3,Time
,,S60,1,女,21,anonymized,Serial_Dependence_U,2023.2.3,Win32,60.24096385542697,,,,,,1691.013400000095,75.0,6.0,1691.0135,75.0,,,,1694.5542000000476,1695.053,1694.0379000000953,1694.554100000143,1692.0064000000953,1694.0377999999523,1695.0531000001429,1695.5527999999522,1695.5531000001429,1696.8852000000477,947.0,1696.8854000000954,2.0,1696.891100000143,6.0,15.0,195.0,26.0,1.0,1.0,0.7,Time
,,S60,1,女,21,anonymized,Serial_Dependence_U,2023.2.3,Win32,60.24096385542697,,,,,,1696.8914000000952,349.0,6.0,1696.8914000000952,349.0,,,,1700.266600000143,1700.765,1699.7499000000953,1700.2662999999525,1697.8849000000953,1699.7497000000476,1700.7651000001429,1701.2645,1701.264600000143,1702.2814999999998,530.0,1702.2822999999523,1.0,1702.2895,6.0,16.0,196.0,20.0,1.0,0.8,0.3,Time
,,S60,1,女,21,anonymized,Serial_Dependence_U,2023.2.3,Win32,60.24096385542697,,,,,,1702.2897999999525,217.0,6.0,1702.2897999999525,217.0,,,,1705.6787000000477,1706.1767000000475,1705.163,1705.6785,1703.2975,1705.1624000000952,1706.1767000000475,1706.6765,1706.676600000143,1707.7764000000952,563.0,1707.7765,2.0,1707.7827000000475,6.0,17.0,197.0,10.0,1.0,0.8,0.3,Time
,,S60,1,女,21,anonymized,Serial_Dependence_U,2023.2.3,Win32,60.24096385542697,,,,,,1707.783100000143,54.0,6.0,1707.783100000143,54.0,,,,1711.374,1711.8719999999998,1710.8599000000952,1711.3737000000476,1708.793,1710.859100000143,1711.872100000143,1712.3719000000954,1712.3719999999998,1713.5884999999998,727.0,1713.5884999999998,2.0,1713.5975,6.0,18.0,198.0,11.0,1.0,1.0,0.3,Time
,,S60,1,女,21,anonymized,Serial_Dependence_U,2023.2.3,Win32,60.24096385542697,,,,,,1713.598,133.0,6.0,1713.598100000143,133.0,,,,1717.186100000143,1717.684,1716.669,1717.1857999999522,1714.6042000000475,1716.6689000000954,1717.684,1718.1837000000476,1718.1837999999525,1719.6332000000475,851.0,1719.6332999999522,2.0,1719.639,6.0,19.0,199.0,1.0,1.0,1.0,0.3,Time
,,S60,1,女,21,anonymized,Serial_Dependence_U,2023.2.3,Win32,60.24096385542697,,,,,,1719.6392000000476,358.0,6.0,1719.6392999999523,358.0,,,,1723.6132999999522,1724.112600000143,1723.0977999999525,1723.6132000000475,1720.6327000000476,1723.0974000000954,1724.112600000143,1724.6117000000477,1724.6117000000477,1725.977799999952,991.0,1725.977799999952,2.0,1725.983600000143,6.0,20.0,200.0,13.0,1.0,1.4,0.3,Time
,,S60,1,女,21,anonymized,Serial_Dependence_U,2023.2.3,Win32,60.24096385542697,,,,,,1725.9839000000952,300.0,6.0,1725.984,300.0,,,,1730.175299999952,1730.6736000001429,1729.6585,1730.175100000143,1726.9937999999522,1729.6582000000476,1730.6736000001429,1731.173100000143,1731.1732000000477,1733.1385,1430.0,1733.1387000000475,2.0,1733.144100000143,6.0,21.0,201.0,14.0,1.0,1.6,0.3,Time
,,S60,1,女,21,anonymized,Serial_Dependence_U,2023.2.3,Win32,60.24096385542697,,,,,,1733.1444000000954,207.0,6.0,1733.1445,207.0,,,,1737.302600000143,1737.8012000000476,1736.785799999952,1737.3025,1734.138400000095,1736.7857000000477,1737.8012000000476,1738.300600000143,1738.3007000000475,1740.3992999999523,1549.0,1740.3995,3.0,1740.405,6.0,22.0,202.0,9.0,1.0,1.6,0.7,Time
,,S60,1,女,21,anonymized,Serial_Dependence_U,2023.2.3,Win32,60.24096385542697,,,,,,1740.4052000000477,359.0,6.0,1740.4054000000954,359.0,,,,1743.764100000143,1744.262,1743.2475,1743.764,1741.3992000000476,1743.2472999999522,1744.262,1744.761600000143,1744.7617000000475,1746.128,830.0,1746.1282000000476,3.0,1746.1346000001429,6.0,23.0,203.0,15.0,1.0,0.8,0.7,Time
,,S60,1,女,21,anonymized,Serial_Dependence_U,2023.2.3,Win32,60.24096385542697,,,,,,1746.1349000000953,38.0,6.0,1746.1349000000953,38.0,,,,1750.292100000143,1750.7902000000477,1749.7752000000476,1750.2917999999522,1747.128,1749.775100000143,1750.7902000000477,1751.289600000143,1751.289600000143,1753.0059000000954,1334.0,1753.0059000000954,2.0,1753.0165,6.0,24.0,204.0,19.0,1.0,1.6,0.7,Time
,,S60,1,女,21,anonymized,Serial_Dependence_U,2023.2.3,Win32,60.24096385542697,,,,,,1753.0169000000951,177.0,6.0,1753.0169000000951,177.0,,,,1756.9855,1757.4845,1756.4697999999523,1756.985100000143,1754.022,1756.469600000143,1757.4845,1757.984600000143,1757.984600000143,1759.7832999999523,1344.0,1759.7835,3.0,1759.79,6.0,25.0,205.0,28.0,1.0,1.4,0.7,Time
,,S60,1,女,21,anonymized,Serial_Dependence_U,2023.2.3,Win32,60.24096385542697,,,,,,1759.7904000000954,29.0,6.0,1759.790600000143,29.0,,,,1763.5805,1764.0792000000476,1763.0645,1763.5802999999523,1760.7997000000476,1763.064100000143,1764.0792000000476,1764.5789000000952,1764.5789000000952,1766.2614000000954,1231.0,1766.2617000000475,3.0,1766.2675,6.0,26.0,206.0,12.0,1.0,1.2,0.3,Time
,,S60,1,女,21,anonymized,Serial_Dependence_U,2023.2.3,Win32,60.24096385542697,,,,,,1766.2677999999523,204.0,6.0,1766.2677999999523,204.0,,,,1770.2252999999523,1770.7237000000475,1769.7094000000952,1770.225100000143,1767.2774000000952,1769.709100000143,1770.7237999999522,1771.2234999999998,1771.2234999999998,1773.421900000095,1808.0,1773.422100000143,4.0,1773.4279000000954,6.0,27.0,207.0,18.0,1.0,1.4,0.7,Time
,,S60,1,女,21,anonymized,Serial_Dependence_U,2023.2.3,Win32,60.24096385542697,,,,,,1773.4282000000476,98.0,6.0,1773.4282000000476,98.0,,,,1777.4189000000954,1777.9174000000953,1776.903100000143,1777.4185,1774.4379000000954,1776.9025,1777.9174000000953,1778.4172999999523,1778.4172999999523,1779.717,766.0,1779.7171000001429,1.0,1779.7237000000475,6.0,28.0,208.0,23.0,1.0,1.4,0.3,Time
,,S60,1,女,21,anonymized,Serial_Dependence_U,2023.2.3,Win32,60.24096385542697,,,,,,1779.724,285.0,6.0,1779.724100000143,285.0,,,,1783.4972000000475,1783.996100000143,1782.981600000143,1783.4969999999998,1780.7165,1782.981100000143,1783.996100000143,1784.4952000000476,1784.4952999999523,1785.2787000000476,317.0,1785.2787999999523,1.0,1785.2842000000476,6.0,29.0,209.0,22.0,1.0,1.2,0.3,Time
,,S60,1,女,21,anonymized,Serial_Dependence_U,2023.2.3,Win32,60.24096385542697,,,,,,1785.2844000000953,26.0,7.0,1791.1332999999522,26.0,s,5.821100000143133,,1794.4884000000952,1794.987100000143,1793.972100000143,1794.4882000000475,1792.1399000000954,1793.972,1794.9872000000476,1795.4865,1795.4865,1796.8872000000476,499.0,1796.8877000000475,1.0,1796.8934000000952,7.0,0.0,210.0,5.0,1.0,0.8,0.7,Time
,,S60,1,女,21,anonymized,Serial_Dependence_U,2023.2.3,Win32,60.24096385542697,,,,,,1796.893600000143,73.0,7.0,1796.8945,73.0,,,,1800.2504000000954,1800.748900000095,1799.734400000095,1800.2502000000477,1797.8857999999525,1799.734100000143,1800.749,1801.2485,1801.2485,1802.132100000143,218.0,1802.132299999952,1.0,1802.140600000143,7.0,1.0,211.0,15.0,1.0,0.8,0.7,Time
,,S60,1,女,21,anonymized,Serial_Dependence_U,2023.2.3,Win32,60.24096385542697,,,,,,1802.140799999952,57.0,7.0,1802.1409000000956,57.0,,,,1805.929,1806.427700000048,1805.412600000143,1805.928700000048,1803.147200000048,1805.4124000000952,1806.427700000048,1806.927100000143,1806.927100000143,1808.7095,553.0,1808.709600000143,1.0,1808.7162999999523,7.0,2.0,212.0,22.0,1.0,1.2,0.3,Time
,,S60,1,女,21,anonymized,Serial_Dependence_U,2023.2.3,Win32,60.24096385542697,,,,,,1808.7165,125.0,7.0,1808.716700000048,125.0,,,,1812.490100000143,1812.9887999999523,1811.974100000143,1812.4899000000955,1809.726,1811.9739000000952,1812.9887999999523,1813.488700000048,1813.4887999999523,1814.8714000000955,633.0,1814.871700000048,1.0,1814.8801000001429,7.0,3.0,213.0,17.0,1.0,1.2,0.7,Time
,,S60,1,女,21,anonymized,Serial_Dependence_U,2023.2.3,Win32,60.24096385542697,,,,,,1814.8802999999525,334.0,7.0,1814.8804000000955,334.0,,,,1818.4687999999524,1818.9672999999525,1817.952299999952,1818.468700000048,1815.8872999999523,1817.952200000048,1818.9672999999525,1819.466700000048,1819.466700000048,1820.499600000143,385.0,1820.499700000048,1.0,1820.506,7.0,4.0,214.0,11.0,1.0,1.0,0.3,Time
,,S60,1,女,21,anonymized,Serial_Dependence_U,2023.2.3,Win32,60.24096385542697,,,,,,1820.5062999999525,218.0,7.0,1820.5062999999525,218.0,,,,1824.082,1824.5787999999525,1823.563600000143,1824.081600000143,1821.5165,1823.5635,1824.5789000000952,1825.0787999999525,1825.0787999999525,1826.278700000048,609.0,1826.2787999999523,1.0,1826.2852999999525,7.0,5.0,215.0,6.0,1.0,1.0,0.7,Time
,,S60,1,女,21,anonymized,Serial_Dependence_U,2023.2.3,Win32,60.24096385542697,,,,,,1826.2855,99.0,7.0,1826.285600000143,99.0,,,,1830.0759000000955,1830.574299999952,1829.559,1830.0755,1827.2959000000956,1829.5587999999525,1830.574299999952,1831.074,1831.074100000143,1832.3564000000956,815.0,1832.3567999999525,1.0,1832.3629000000956,7.0,6.0,216.0,2.0,1.0,1.2,0.3,Time
,,S60,1,女,21,anonymized,Serial_Dependence_U,2023.2.3,Win32,60.24096385542697,,,,,,1832.3632000000475,138.0,7.0,1832.3634000000952,138.0,,,,1835.755,1836.253100000143,1835.2389000000956,1835.754799999952,1833.3725,1835.238600000143,1836.253100000143,1836.7527000000475,1836.7527000000475,1838.235,619.0,1838.235100000143,2.0,1838.242,7.0,7.0,217.0,10.0,1.0,0.8,0.3,Time
,,S60,1,女,21,anonymized,Serial_Dependence_U,2023.2.3,Win32,60.24096385542697,,,,,,1838.242200000048,224.0,7.0,1838.242299999952,224.0,,,,1842.398700000048,1842.8969000000952,1841.8827999999523,1842.398600000143,1839.2365,1841.882600000143,1842.897100000143,1843.397100000143,1843.397100000143,1844.9135,883.0,1844.9136000001429,1.0,1844.922299999952,7.0,8.0,218.0,19.0,1.0,1.6,0.7,Time
,,S60,1,女,21,anonymized,Serial_Dependence_U,2023.2.3,Win32,60.24096385542697,,,,,,1844.922600000143,282.0,7.0,1844.922700000048,282.0,,,,1848.26,1848.759200000048,1847.7444000000955,1848.26,1845.9125,1847.744200000048,1848.759200000048,1849.258600000143,1849.258600000143,1851.241299999952,1049.0,1851.2415,5.0,1851.247,7.0,9.0,219.0,25.0,1.0,0.8,0.7,Time
,,S60,1,女,21,anonymized,Serial_Dependence_U,2023.2.3,Win32,60.24096385542697,,,,,,1851.247299999952,222.0,7.0,1851.2474000000952,222.0,,,,1855.2379000000956,1855.7364000000955,1854.7219000000955,1855.237799999952,1852.2574000000952,1854.721700000048,1855.7364000000955,1856.236700000048,1856.236700000048,1857.969,1266.0,1857.9692000000475,2.0,1857.9752999999523,7.0,10.0,220.0,13.0,1.0,1.4,0.3,Time
,,S60,1,女,21,anonymized,Serial_Dependence_U,2023.2.3,Win32,60.24096385542697,,,,,,1857.9755,205.0,7.0,1857.975600000143,205.0,,,,1861.733,1862.231100000143,1861.2162999999523,1861.7324000000956,1858.9685,1861.216,1862.231100000143,1862.731100000143,1862.731100000143,1864.547100000143,1367.0,1864.547299999952,4.0,1864.557,7.0,11.0,221.0,7.0,1.0,1.2,0.7,Time
,,S60,1,女,21,anonymized,Serial_Dependence_U,2023.2.3,Win32,60.24096385542697,,,,,,1864.557100000143,18.0,7.0,1864.557200000048,18.0,,,,1868.1449000000955,1868.642600000143,1867.627299999952,1868.144700000048,1865.5622999999523,1867.627200000048,1868.642600000143,1869.142,1869.142100000143,1870.5252999999525,881.0,1870.5254000000955,2.0,1870.5322999999523,7.0,12.0,222.0,1.0,1.0,1.0,0.3,Time
,,S60,1,女,21,anonymized,Serial_Dependence_U,2023.2.3,Win32,60.24096385542697,,,,,,1870.5325,48.0,7.0,1870.532600000143,48.0,,,,1874.5222999999523,1875.020600000143,1874.006,1874.5219000000952,1871.541600000143,1874.0059000000956,1875.020700000048,1875.520299999952,1875.520299999952,1877.286299999952,984.0,1877.2864000000952,2.0,1877.2945,7.0,13.0,223.0,3.0,1.0,1.4,0.3,Time
,,S60,1,女,21,anonymized,Serial_Dependence_U,2023.2.3,Win32,60.24096385542697,,,,,,1877.294799999952,103.0,7.0,1877.2949000000956,103.0,,,,1881.451100000143,1881.9482999999525,1880.9344000000956,1881.450700000048,1878.285700000048,1880.9339000000955,1881.9484000000955,1882.448100000143,1882.448200000048,1884.196799999952,1289.0,1884.1969000000952,2.0,1884.205200000048,7.0,14.0,224.0,29.0,1.0,1.6,0.7,Time
,,S60,1,女,21,anonymized,Serial_Dependence_U,2023.2.3,Win32,60.24096385542697,,,,,,1884.2055,203.0,7.0,1884.2055,203.0,,,,1888.3782999999523,1888.876100000143,1887.861200000048,1888.3779000000952,1885.213100000143,1887.8611000001429,1888.876100000143,1889.375200000048,1889.3754000000956,1891.0079000000956,1249.0,1891.008,2.0,1891.014600000143,7.0,15.0,225.0,9.0,1.0,1.6,0.7,Time
,,S60,1,女,21,anonymized,Serial_Dependence_U,2023.2.3,Win32,60.24096385542697,,,,,,1891.0149000000956,278.0,7.0,1891.0149000000956,278.0,,,,1894.804799999952,1895.3039000000956,1894.289700000048,1894.804700000048,1892.025,1894.289299999952,1895.3039000000956,1895.8039000000956,1895.8039000000956,1897.852600000143,1429.0,1897.852600000143,4.0,1897.8582999999524,7.0,16.0,226.0,12.0,1.0,1.2,0.3,Time
,,S60,1,女,21,anonymized,Serial_Dependence_U,2023.2.3,Win32,60.24096385542697,,,,,,1897.858600000143,278.0,7.0,1897.858600000143,278.0,,,,1901.4167000000475,1901.9155,1900.900100000143,1901.4165,1898.8519000000956,1900.9,1901.915600000143,1902.4145,1902.4145,1903.9805,1123.0,1903.9806000001429,4.0,1903.9861000001429,7.0,17.0,227.0,26.0,1.0,1.0,0.7,Time
,,S60,1,女,21,anonymized,Serial_Dependence_U,2023.2.3,Win32,60.24096385542697,,,,,,1903.9864000000955,298.0,7.0,1903.9864000000955,298.0,,,,1907.961700000048,1908.4599000000956,1907.4444000000956,1907.9614000000952,1904.996600000143,1907.444299999952,1908.4599000000956,1908.9592000000475,1908.959299999952,1910.791799999952,1432.0,1910.791799999952,3.0,1910.7972000000475,7.0,18.0,228.0,18.0,1.0,1.4,0.7,Time
,,S60,1,女,21,anonymized,Serial_Dependence_U,2023.2.3,Win32,60.24096385542697,,,,,,1910.797600000143,28.0,7.0,1910.797600000143,28.0,,,,1914.5565,1915.0542999999525,1914.039100000143,1914.556100000143,1911.8075,1914.0389000000955,1915.0542999999525,1915.553799999952,1915.5539000000956,1917.4359000000952,1363.0,1917.4362999999523,4.0,1917.443,7.0,19.0,229.0,27.0,1.0,1.2,0.7,Time
,,S60,1,女,21,anonymized,Serial_Dependence_U,2023.2.3,Win32,60.24096385542697,,,,,,1917.4434000000956,298.0,7.0,1917.4435,298.0,,,,1921.417200000048,1921.9149000000957,1920.9009000000956,1921.416799999952,1918.4526000001429,1920.900600000143,1921.9149000000957,1922.4147999999525,1922.4149000000957,1924.1137999999523,1268.0,1924.1139000000956,2.0,1924.119700000048,7.0,20.0,230.0,28.0,1.0,1.4,0.7,Time
,,S60,1,女,21,anonymized,Serial_Dependence_U,2023.2.3,Win32,60.24096385542697,,,,,,1924.1199000000952,139.0,7.0,1924.1199000000952,139.0,,,,1928.311,1928.809600000143,1927.7944000000955,1928.3107000000475,1925.1302999999525,1927.794200000048,1928.8097000000475,1929.3094000000956,1929.3095,1931.7589000000955,1955.0,1931.759200000048,4.0,1931.7662000000475,7.0,21.0,231.0,24.0,1.0,1.6,0.3,Time
,,S60,1,女,21,anonymized,Serial_Dependence_U,2023.2.3,Win32,60.24096385542697,,,,,,1931.7664000000952,256.0,7.0,1931.7665,256.0,,,,1935.737700000048,1936.237,1935.222,1935.7374000000952,1932.773600000143,1935.2219000000955,1936.237100000143,1936.735799999952,1936.7359000000956,1938.036299999952,959.0,1938.036700000048,1.0,1938.0432999999523,7.0,22.0,232.0,8.0,1.0,1.4,0.7,Time
,,S60,1,女,21,anonymized,Serial_Dependence_U,2023.2.3,Win32,60.24096385542697,,,,,,1938.043600000143,319.0,7.0,1938.043700000048,319.0,,,,1942.0164000000952,1942.5151000001429,1941.501,1942.0162999999525,1939.035799999952,1941.500299999952,1942.515200000048,1943.015,1943.015,1944.214100000143,947.0,1944.214100000143,1.0,1944.220100000143,7.0,23.0,233.0,23.0,1.0,1.4,0.3,Time
,,S60,1,女,21,anonymized,Serial_Dependence_U,2023.2.3,Win32,60.24096385542697,,,,,,1944.220299999952,112.0,7.0,1944.2204000000952,112.0,,,,1947.779,1948.2772000000475,1947.262799999952,1947.778600000143,1945.2299000000955,1947.262,1948.277299999952,1948.776600000143,1948.776600000143,1949.976,803.0,1949.9761000001429,2.0,1949.981700000048,7.0,24.0,234.0,16.0,1.0,1.0,0.7,Time
,,S60,1,女,21,anonymized,Serial_Dependence_U,2023.2.3,Win32,60.24096385542697,,,,,,1949.9819000000955,221.0,7.0,1949.982,221.0,,,,1953.5565,1954.055600000143,1953.0407000000475,1953.556299999952,1950.9754000000955,1953.040600000143,1954.055600000143,1954.554799999952,1954.5549000000956,1955.7542999999523,727.0,1955.7545,2.0,1955.7599000000955,7.0,25.0,235.0,21.0,1.0,1.0,0.3,Time
,,S60,1,女,21,anonymized,Serial_Dependence_U,2023.2.3,Win32,60.24096385542697,,,,,,1955.760200000048,219.0,7.0,1955.760299999952,219.0,,,,1959.9529000000955,1960.450299999952,1959.4355,1959.9525,1956.771799999952,1959.4354000000956,1960.450299999952,1960.9499000000956,1960.950100000143,1962.532600000143,1311.0,1962.532799999952,2.0,1962.5394000000956,7.0,26.0,236.0,4.0,1.0,1.6,0.3,Time
,,S60,1,女,21,anonymized,Serial_Dependence_U,2023.2.3,Win32,60.24096385542697,,,,,,1962.539700000048,251.0,7.0,1962.539700000048,251.0,,,,1966.7295,1967.2279000000956,1966.213200000048,1966.729299999952,1963.549299999952,1966.2127999999525,1967.228,1967.7275,1967.7275,1969.3267999999523,1200.0,1969.327,2.0,1969.332700000048,7.0,27.0,237.0,14.0,1.0,1.6,0.3,Time
,,S60,1,女,21,anonymized,Serial_Dependence_U,2023.2.3,Win32,60.24096385542697,,,,,,1969.333,249.0,7.0,1969.333,249.0,,,,1972.708100000143,1973.206,1972.193200000048,1972.707700000048,1970.326200000048,1972.1926000001429,1973.206100000143,1973.7059000000952,1973.7059000000952,1975.105,850.0,1975.105100000143,4.0,1975.110600000143,7.0,28.0,238.0,20.0,1.0,0.8,0.3,Time
,,S60,1,女,21,anonymized,Serial_Dependence_U,2023.2.3,Win32,60.24096385542697,,,,,,1975.110799999952,270.0,7.0,1975.1109000000956,270.0,,,,1978.503200000048,1979.001,1977.9864000000955,1978.5024000000956,1976.1222000000475,1977.986200000048,1979.001,1979.501200000048,1979.501200000048,1980.917100000143,867.0,1980.917200000048,4.0,1980.9254000000956,7.0,29.0,239.0,0.0,1.0,0.8,0.3,Time
,,S60,1,女,21,anonymized,Serial_Dependence_U,2023.2.3,Win32,60.24096385542697,,,,,,1980.9257000000475,320.0,8.0,1983.406100000143,320.0,s,2.455200000047625,,1987.1957000000475,1987.694200000048,1986.679799999952,1987.1954000000956,1984.4144000000956,1986.679200000048,1987.694299999952,1988.193700000048,1988.1937999999525,1990.2429000000952,1059.0,1990.243,2.0,1990.2505,8.0,0.0,240.0,12.0,1.0,1.2,0.3,Time
,,S60,1,女,21,anonymized,Serial_Dependence_U,2023.2.3,Win32,60.24096385542697,,,,,,1990.250700000048,32.0,8.0,1990.2517999999525,32.0,,,,1994.040100000143,1994.538700000048,1993.5264000000952,1994.039700000048,1991.2587999999523,1993.5255,1994.5387999999523,1995.0379000000955,1995.0379000000955,1996.154299999952,633.0,1996.1544000000956,1.0,1996.161700000048,8.0,1.0,241.0,22.0,1.0,1.2,0.3,Time
,,S60,1,女,21,anonymized,Serial_Dependence_U,2023.2.3,Win32,60.24096385542697,,,,,,1996.1619000000956,341.0,8.0,1996.1619000000956,341.0,,,,2000.3181000001432,2000.8165000000004,1999.8021000001431,2000.318,1997.154700000048,1999.8017999999524,2000.8165000000004,2001.316700000048,2001.316700000048,2002.0495,333.0,2002.0497999999525,1.0,2002.0552999999527,8.0,2.0,242.0,9.0,1.0,1.6,0.7,Time
,,S60,1,女,21,anonymized,Serial_Dependence_U,2023.2.3,Win32,60.24096385542697,,,,,,2002.0555,311.0,8.0,2002.0556000001436,311.0,,,,2006.0299000000955,2006.529,2005.5145,2006.029600000143,2003.065900000096,2005.5139000000956,2006.529,2007.028200000048,2007.0282999999529,2008.527200000048,356.0,2008.5274000000957,1.0,2008.533200000048,8.0,3.0,243.0,18.0,1.0,1.4,0.7,Time
,,S60,1,女,21,anonymized,Serial_Dependence_U,2023.2.3,Win32,60.24096385542697,,,,,,2008.5335,292.0,8.0,2008.5335,292.0,,,,2012.7245000000005,2013.223200000048,2012.2096000001436,2012.7242999999528,2009.5441000001435,2012.2091000001435,2013.223200000048,2013.722700000048,2013.7227999999525,2015.1722999999524,872.0,2015.1725,1.0,2015.177900000096,8.0,4.0,244.0,4.0,1.0,1.6,0.3,Time
,,S60,1,女,21,anonymized,Serial_Dependence_U,2023.2.3,Win32,60.24096385542697,,,,,,2015.1782999999523,77.0,8.0,2015.1782999999523,77.0,,,,2019.3520000000003,2019.851100000143,2018.8366000001436,2019.351900000096,2016.188100000143,2018.8365000000003,2019.851100000143,2020.3504000000955,2020.3505,2022.083200000048,927.0,2022.0834000000957,1.0,2022.089200000048,8.0,5.0,245.0,29.0,1.0,1.6,0.7,Time
,,S60,1,女,21,anonymized,Serial_Dependence_U,2023.2.3,Win32,60.24096385542697,,,,,,2022.0894000000956,320.0,8.0,2022.089600000143,320.0,,,,2025.6814000000957,2026.179100000143,2025.1641000001432,2025.681100000143,2023.0992999999528,2025.164,2026.179100000143,2026.6787999999524,2026.6789000000956,2028.2447999999529,833.0,2028.244900000096,2.0,2028.252600000143,8.0,6.0,246.0,1.0,1.0,1.0,0.3,Time
,,S60,1,女,21,anonymized,Serial_Dependence_U,2023.2.3,Win32,60.24096385542697,,,,,,2028.2529000000957,11.0,8.0,2028.2529000000957,11.0,,,,2031.6252999999524,2032.1245000000004,2031.1095,2031.625200000048,2029.2442999999523,2031.109200000048,2032.1245000000004,2032.6234000000957,2032.6234000000957,2034.4895,912.0,2034.4896000001431,4.0,2034.495700000048,8.0,7.0,247.0,0.0,1.0,0.8,0.3,Time
,,S60,1,女,21,anonymized,Serial_Dependence_U,2023.2.3,Win32,60.24096385542697,,,,,,2034.4959000000956,343.0,8.0,2034.496,343.0,,,,2037.853700000048,2038.3525,2037.337700000048,2037.8534000000957,2035.49,2037.3375,2038.3525,2038.8516000001432,2038.8516000001432,2040.1846000001435,847.0,2040.184799999952,4.0,2040.1911000001437,8.0,8.0,248.0,25.0,1.0,0.8,0.7,Time
,,S60,1,女,21,anonymized,Serial_Dependence_U,2023.2.3,Win32,60.24096385542697,,,,,,2040.191299999953,167.0,8.0,2040.191400000096,167.0,,,,2043.5660000000005,2044.064400000096,2043.050200000048,2043.565700000048,2041.1845000000003,2043.049600000143,2044.064400000096,2044.563900000096,2044.5640000000003,2045.813700000048,599.0,2045.813900000096,2.0,2045.819700000048,8.0,9.0,249.0,20.0,1.0,0.8,0.3,Time
,,S60,1,女,21,anonymized,Serial_Dependence_U,2023.2.3,Win32,60.24096385542697,,,,,,2045.8199000000957,176.0,8.0,2045.82,176.0,,,,2049.577100000143,2050.0755000000004,2049.061200000048,2049.577,2046.813900000096,2049.061,2050.0755000000004,2050.5757999999523,2050.5759000000958,2052.0585,1049.0,2052.058600000143,2.0,2052.064900000096,8.0,10.0,250.0,17.0,1.0,1.2,0.7,Time
,,S60,1,女,21,anonymized,Serial_Dependence_U,2023.2.3,Win32,60.24096385542697,,,,,,2052.065200000048,67.0,8.0,2052.065200000048,67.0,,,,2055.4224000000954,2055.9211000001437,2054.905900000096,2055.4222999999524,2053.074200000048,2054.9056000001437,2055.9211000001437,2056.420700000048,2056.4207999999526,2057.420200000048,417.0,2057.4204000000955,1.0,2057.4262999999523,8.0,11.0,251.0,5.0,1.0,0.8,0.7,Time
,,S60,1,女,21,anonymized,Serial_Dependence_U,2023.2.3,Win32,60.24096385542697,,,,,,2057.4265,223.0,8.0,2057.4265,223.0,,,,2061.001400000096,2061.4997999999523,2060.484600000143,2061.001100000143,2058.4366000001432,2060.4845,2061.4997999999523,2061.9995000000004,2061.9995000000004,2063.2826000001432,600.0,2063.282700000048,1.0,2063.288200000048,8.0,12.0,252.0,26.0,1.0,1.0,0.7,Time
,,S60,1,女,21,anonymized,Serial_Dependence_U,2023.2.3,Win32,60.24096385542697,,,,,,2063.2885,53.0,8.0,2063.288600000143,53.0,,,,2066.646900000096,2067.1447999999523,2066.1302999999525,2066.646700000048,2064.282299999953,2066.1299000000954,2067.144900000096,2067.6451000001434,2067.645200000048,2068.8607999999526,798.0,2068.860900000096,3.0,2068.8662999999524,8.0,13.0,253.0,15.0,1.0,0.8,0.7,Time
,,S60,1,女,21,anonymized,Serial_Dependence_U,2023.2.3,Win32,60.24096385542697,,,,,,2068.8665,20.0,8.0,2068.866600000143,20.0,,,,2072.8417999999524,2073.3397999999524,2072.325700000048,2072.841700000048,2069.8771000001434,2072.3252999999527,2073.3399000000954,2073.839700000048,2073.8397999999524,2075.3222999999525,915.0,2075.3224000000955,1.0,2075.331,8.0,14.0,254.0,28.0,1.0,1.4,0.7,Time
,,S60,1,女,21,anonymized,Serial_Dependence_U,2023.2.3,Win32,60.24096385542697,,,,,,2075.3314000000955,63.0,8.0,2075.3314000000955,63.0,,,,2079.485900000096,2079.9845,2078.9692999999525,2079.4857999999526,2076.322100000143,2078.9692999999525,2079.9845,2080.4845,2080.484600000143,2081.9172999999523,1033.0,2081.9172999999523,1.0,2081.923400000096,8.0,15.0,255.0,19.0,1.0,1.6,0.7,Time
,,S60,1,女,21,anonymized,Serial_Dependence_U,2023.2.3,Win32,60.24096385542697,,,,,,2081.923700000048,221.0,8.0,2081.923700000048,221.0,,,,2085.497900000096,2085.996,2084.981900000096,2085.497700000048,2082.933600000143,2084.9816000001438,2085.996100000143,2086.496100000143,2086.496200000048,2088.028900000096,1101.0,2088.029,4.0,2088.036900000096,8.0,16.0,256.0,16.0,1.0,1.0,0.7,Time
