Scale_setup.started,Scale_setup.stopped,participant,session,sex,age,date,expName,psychopyVersion,OS,frameRate,Intro.started,Intro.stopped,key_resp_2.keys,key_resp_2.rt,key_resp_2.duration,block.started,direction,Block_id,block.stopped,trial_direction,Block_resp_2.keys,Block_resp_2.rt,Block_resp_2.duration,ITI.started,ITI.stopped,Mask_2.started,Mask_2.stopped,encoding.started,encoding.stopped,Cue.started,Cue.stopped,Response.started,Response.stopped,keyDuration,Feedback_Time.started,FeedbackID_T,Feedback_Time.stopped,trials.thisRepN,trials.thisTrialN,trials.thisN,trials.thisIndex,trials.ran,TimeDur,Coherence1,TrialType
0.0,0.0009999999999976,S61,1,male,24,anonymized,Serial_Dependence_U,2023.2.3,MacIntel,27.77777777777778,,,,,,,,,,,,,,,,,,,,,,,,,,,,,,,,,,,
,,S61,1,male,24,anonymized,Serial_Dependence_U,2023.2.3,MacIntel,27.77777777777778,158.759,246.64,space,87.84899999999999,,,,,,,,,,,,,,,,,,,,,,,,,,,,,,,
,,S61,1,male,24,anonymized,Serial_Dependence_U,2023.2.3,MacIntel,27.77777777777778,,,,,,246.649,164.0,0.0,250.075,164.0,s,3.406000000000006,,253.459,253.949,252.944,253.45800000000003,251.076,252.943,253.95,254.456,254.456,258.985,3090.0,258.986,5.0,259.976,0.0,0.0,0.0,10.0,1.0,0.8,0.3,Time
,,S61,1,male,24,anonymized,Serial_Dependence_U,2023.2.3,MacIntel,27.77777777777778,,,,,,259.981,216.0,0.0,259.984,216.0,,,,263.563,264.059,263.057,263.563,260.984,263.057,264.059,264.56,264.56,267.686,926.0,267.686,2.0,268.689,0.0,1.0,1.0,1.0,1.0,1.0,0.3,Time
,,S61,1,male,24,anonymized,Serial_Dependence_U,2023.2.3,MacIntel,27.77777777777778,,,,,,268.689,30.0,0.0,268.69,30.0,,,,272.444,272.93,271.942,272.444,269.693,271.942,272.93,273.422,273.422,275.831,1144.0,275.831,3.0,276.83,0.0,2.0,2.0,17.0,1.0,1.2,0.7,Time
,,S61,1,male,24,anonymized,Serial_Dependence_U,2023.2.3,MacIntel,27.77777777777778,,,,,,276.831,341.0,0.0,276.831,341.0,,,,280.987,281.49,280.467,280.986,277.834,280.467,281.49,281.984,281.984,284.552,1521.0,284.552,3.0,285.556,0.0,3.0,3.0,19.0,1.0,1.6,0.7,Time
,,S61,1,male,24,anonymized,Serial_Dependence_U,2023.2.3,MacIntel,27.77777777777778,,,,,,285.556,119.0,0.0,285.557,119.0,,,,288.906,289.409,288.393,288.9050000000001,286.561,288.393,289.409,289.91200000000003,289.91200000000003,292.038,1113.0,292.038,5.0,293.04,0.0,4.0,4.0,25.0,1.0,0.8,0.7,Time
,,S61,1,male,24,anonymized,Serial_Dependence_U,2023.2.3,MacIntel,27.77777777777778,,,,,,293.04,142.0,0.0,293.041,142.0,,,,296.608,297.107,296.092,296.607,294.047,296.092,297.107,297.607,297.607,299.443,1149.0,299.444,4.0,300.445,0.0,5.0,5.0,16.0,1.0,1.0,0.7,Time
,,S61,1,male,24,anonymized,Serial_Dependence_U,2023.2.3,MacIntel,27.77777777777778,,,,,,300.446,3.0,0.0,300.447,3.0,,,,304.64,305.137,304.127,304.64,301.454,304.127,305.137,305.63,305.63,307.605,1508.0,307.605,2.0,308.608,0.0,6.0,6.0,24.0,1.0,1.6,0.3,Time
,,S61,1,male,24,anonymized,Serial_Dependence_U,2023.2.3,MacIntel,27.77777777777778,,,,,,308.608,226.0,0.0,308.608,226.0,,,,312.582,313.073,312.073,312.582,309.61,312.073,313.073,313.574,313.574,315.722,1415.0,315.722,3.0,316.724,0.0,7.0,7.0,3.0,1.0,1.4,0.3,Time
,,S61,1,male,24,anonymized,Serial_Dependence_U,2023.2.3,MacIntel,27.77777777777778,,,,,,316.725,127.0,0.0,316.725,127.0,,,,320.689,321.193,320.182,320.689,317.737,320.181,321.193,321.687,321.687,323.859,1597.0,323.86,4.0,324.858,0.0,8.0,8.0,28.0,1.0,1.4,0.7,Time
,,S61,1,male,24,anonymized,Serial_Dependence_U,2023.2.3,MacIntel,27.77777777777778,,,,,,324.859,260.0,0.0,324.859,260.0,,,,328.204,328.70300000000003,327.70300000000003,328.20300000000003,325.872,327.70300000000003,328.70300000000003,329.194,329.195,330.569,911.0,330.569,4.0,331.56100000000004,0.0,9.0,9.0,5.0,1.0,0.8,0.7,Time
,,S61,1,male,24,anonymized,Serial_Dependence_U,2023.2.3,MacIntel,27.77777777777778,,,,,,331.562,111.0,0.0,331.562,111.0,,,,335.116,335.612,334.61,335.116,332.56100000000004,334.61,335.613,336.117,336.117,337.756,1196.0,337.756,4.0,338.75,0.0,10.0,10.0,26.0,1.0,1.0,0.7,Time
,,S61,1,male,24,anonymized,Serial_Dependence_U,2023.2.3,MacIntel,27.77777777777778,,,,,,338.75100000000003,339.0,0.0,338.75100000000003,339.0,,,,342.134,342.636,341.623,342.134,339.753,341.623,342.637,343.122,343.122,344.531,641.0,344.531,2.0,345.526,0.0,11.0,11.0,0.0,1.0,0.8,0.3,Time
,,S61,1,male,24,anonymized,Serial_Dependence_U,2023.2.3,MacIntel,27.77777777777778,,,,,,345.527,250.0,0.0,345.527,250.0,,,,349.503,350.003,348.997,349.503,346.523,348.996,350.003,350.5,350.5,351.866,673.0,351.866,1.0,352.867,0.0,12.0,12.0,23.0,1.0,1.4,0.3,Time
,,S61,1,male,24,anonymized,Serial_Dependence_U,2023.2.3,MacIntel,27.77777777777778,,,,,,352.867,151.0,0.0,352.868,151.0,,,,356.65000000000003,357.153,356.14,356.65000000000003,353.865,356.14,357.153,357.649,357.65000000000003,358.732,655.0,358.733,1.0,359.726,0.0,13.0,13.0,22.0,1.0,1.2,0.3,Time
,,S61,1,male,24,anonymized,Serial_Dependence_U,2023.2.3,MacIntel,27.77777777777778,,,,,,359.728,46.0,0.0,359.728,46.0,,,,363.723,364.224,363.213,363.723,360.74,363.213,364.224,364.723,364.723,366.823,1599.0,366.823,4.0,367.809,0.0,14.0,14.0,13.0,1.0,1.4,0.3,Time
,,S61,1,male,24,anonymized,Serial_Dependence_U,2023.2.3,MacIntel,27.77777777777778,,,,,,367.81,132.0,0.0,367.811,132.0,,,,372.01,372.504,371.498,372.01,368.825,371.498,372.504,373.007,373.008,374.508,856.0,374.508,1.0,375.501,0.0,15.0,15.0,4.0,1.0,1.6,0.3,Time
,,S61,1,male,24,anonymized,Serial_Dependence_U,2023.2.3,MacIntel,27.77777777777778,,,,,,375.502,27.0,0.0,375.502,27.0,,,,379.289,379.7800000000001,378.777,379.289,376.499,378.777,379.7800000000001,380.273,380.273,382.24,1407.0,382.241,4.0,383.251,0.0,16.0,16.0,2.0,1.0,1.2,0.3,Time
,,S61,1,male,24,anonymized,Serial_Dependence_U,2023.2.3,MacIntel,27.77777777777778,,,,,,383.252,220.0,0.0,383.253,220.0,,,,386.805,387.305,386.288,386.805,384.256,386.288,387.305,387.816,387.816,389.478,1224.0,389.478,4.0,390.466,0.0,17.0,17.0,6.0,1.0,1.0,0.7,Time
,,S61,1,male,24,anonymized,Serial_Dependence_U,2023.2.3,MacIntel,27.77777777777778,,,,,,390.467,294.0,0.0,390.467,294.0,,,,425.642,426.157,425.133,425.642,391.471,425.133,426.157,426.65,426.65,428.439,767.0,428.439,1.0,429.435,0.0,18.0,18.0,12.0,1.0,1.2,0.3,Time
,,S61,1,male,24,anonymized,Serial_Dependence_U,2023.2.3,MacIntel,27.77777777777778,,,,,,429.436,346.0,0.0,429.436,346.0,,,,433.018,433.517,432.518,433.018,430.452,432.518,433.518,434.017,434.017,435.471,903.0,435.471,2.0,436.469,0.0,19.0,19.0,11.0,1.0,1.0,0.3,Time
,,S61,1,male,24,anonymized,Serial_Dependence_U,2023.2.3,MacIntel,27.77777777777778,,,,,,436.47,144.0,0.0,436.471,144.0,,,,440.438,440.938,439.929,440.437,437.484,439.928,440.938,441.434,441.434,443.352,1463.0,443.352,3.0,444.339,0.0,20.0,20.0,18.0,1.0,1.4,0.7,Time
,,S61,1,male,24,anonymized,Serial_Dependence_U,2023.2.3,MacIntel,27.77777777777778,,,,,,444.34,11.0,0.0,444.34,11.0,,,,447.682,448.179,447.173,447.682,445.338,447.172,448.18,448.682,448.682,450.044,892.0,450.044,4.0,451.051,0.0,21.0,21.0,15.0,1.0,0.8,0.7,Time
,,S61,1,male,24,anonymized,Serial_Dependence_U,2023.2.3,MacIntel,27.77777777777778,,,,,,451.052,273.0,0.0,451.052,273.0,,,,455.207,455.697,454.692,455.207,452.059,454.692,455.697,456.199,456.199,458.171,1478.0,458.172,2.0,459.163,0.0,22.0,22.0,9.0,1.0,1.6,0.7,Time
,,S61,1,male,24,anonymized,Serial_Dependence_U,2023.2.3,MacIntel,27.77777777777778,,,,,,459.164,119.0,0.0,459.165,119.0,,,,462.735,463.231,462.223,462.735,460.16,462.223,463.232,463.725,463.725,465.415,1120.0,465.415,4.0,466.4050000000001,0.0,23.0,23.0,21.0,1.0,1.0,0.3,Time
,,S61,1,male,24,anonymized,Serial_Dependence_U,2023.2.3,MacIntel,27.77777777777778,,,,,,466.406,238.0,0.0,466.406,238.0,,,,470.177,470.679,469.659,470.177,467.411,469.659,470.679,471.167,471.167,472.972,1358.0,472.972,4.0,473.961,0.0,24.0,24.0,7.0,1.0,1.2,0.7,Time
,,S61,1,male,24,anonymized,Serial_Dependence_U,2023.2.3,MacIntel,27.77777777777778,,,,,,473.962,244.0,0.0,473.963,244.0,,,,477.916,478.41,477.406,477.916,474.969,477.406,478.41,478.9050000000001,478.9050000000001,480.564,1195.0,480.564,2.0,481.555,0.0,25.0,25.0,8.0,1.0,1.4,0.7,Time
,,S61,1,male,24,anonymized,Serial_Dependence_U,2023.2.3,MacIntel,27.77777777777778,,,,,,481.556,67.0,0.0,481.556,67.0,,,,484.943,485.438,484.438,484.943,482.574,484.437,485.438,485.925,485.925,487.138,700.0,487.138,2.0,488.14,0.0,26.0,26.0,20.0,1.0,0.8,0.3,Time
,,S61,1,male,24,anonymized,Serial_Dependence_U,2023.2.3,MacIntel,27.77777777777778,,,,,,488.14,218.0,0.0,488.141,218.0,,,,491.903,492.393,491.399,491.903,489.156,491.399,492.393,492.888,492.888,494.612,1263.0,494.612,4.0,495.616,0.0,27.0,27.0,27.0,1.0,1.2,0.7,Time
,,S61,1,male,24,anonymized,Serial_Dependence_U,2023.2.3,MacIntel,27.77777777777778,,,,,,495.617,88.0,0.0,495.617,88.0,,,,499.789,500.292,499.284,499.789,496.614,499.284,500.292,500.79,500.79,502.766,1412.0,502.766,2.0,503.774,0.0,28.0,28.0,14.0,1.0,1.6,0.3,Time
,,S61,1,male,24,anonymized,Serial_Dependence_U,2023.2.3,MacIntel,27.77777777777778,,,,,,503.775,279.0,0.0,503.775,279.0,,,,507.924,508.413,507.424,507.924,504.784,507.423,508.413,508.91100000000006,508.912,511.429,1597.0,511.429,3.0,512.436,0.0,29.0,29.0,29.0,1.0,1.6,0.7,Time
,,S61,1,male,24,anonymized,Serial_Dependence_U,2023.2.3,MacIntel,27.77777777777778,,,,,,512.436,93.0,1.0,515.155,93.0,s,2.6960000000000264,,519.3050000000001,519.8100000000002,518.804,519.3050000000001,516.1560000000001,518.804,519.8100000000002,520.301,520.301,522.198,1514.0,522.198,2.0,522.199,1.0,0.0,30.0,29.0,1.0,1.6,0.7,Time
,,S61,1,male,24,anonymized,Serial_Dependence_U,2023.2.3,MacIntel,27.77777777777778,,,,,,522.199,155.0,1.0,522.201,155.0,,,,526.343,526.839,525.841,526.343,523.202,525.84,526.839,527.348,527.348,529.432,1603.0,529.432,3.0,529.432,1.0,1.0,31.0,19.0,1.0,1.6,0.7,Time
,,S61,1,male,24,anonymized,Serial_Dependence_U,2023.2.3,MacIntel,27.77777777777778,,,,,,529.433,52.0,1.0,529.433,52.0,,,,532.807,533.293,532.304,532.806,530.438,532.304,533.294,533.788,533.788,535.1030000000001,822.0,535.104,3.0,535.104,1.0,2.0,32.0,10.0,1.0,0.8,0.3,Time
,,S61,1,male,24,anonymized,Serial_Dependence_U,2023.2.3,MacIntel,27.77777777777778,,,,,,535.105,69.0,1.0,535.105,69.0,,,,539.091,539.589,538.583,539.09,536.107,538.583,539.589,540.088,540.088,541.971,1396.0,541.971,3.0,541.972,1.0,3.0,33.0,3.0,1.0,1.4,0.3,Time
,,S61,1,male,24,anonymized,Serial_Dependence_U,2023.2.3,MacIntel,27.77777777777778,,,,,,541.973,39.0,1.0,541.973,39.0,,,,545.556,546.041,545.045,545.5550000000001,542.968,545.045,546.041,546.538,546.538,547.683,790.0,547.683,2.0,547.683,1.0,4.0,34.0,1.0,1.0,1.0,0.3,Time
,,S61,1,male,24,anonymized,Serial_Dependence_U,2023.2.3,MacIntel,27.77777777777778,,,,,,547.683,158.0,1.0,547.683,158.0,,,,551.254,551.743,550.737,551.254,548.688,550.736,551.743,552.247,552.248,553.952,1151.0,553.952,4.0,553.953,1.0,5.0,35.0,6.0,1.0,1.0,0.7,Time
,,S61,1,male,24,anonymized,Serial_Dependence_U,2023.2.3,MacIntel,27.77777777777778,,,,,,553.953,153.0,1.0,553.9540000000001,153.0,,,,558.169,558.659,557.653,558.168,554.977,557.653,558.66,559.164,559.165,560.947,1255.0,560.947,2.0,560.947,1.0,6.0,36.0,14.0,1.0,1.6,0.3,Time
,,S61,1,male,24,anonymized,Serial_Dependence_U,2023.2.3,MacIntel,27.77777777777778,,,,,,560.947,196.0,1.0,560.947,196.0,,,,564.313,564.798,563.808,564.313,561.966,563.808,564.798,565.3050000000001,565.3050000000001,566.592,819.0,566.592,3.0,566.593,1.0,7.0,37.0,25.0,1.0,0.8,0.7,Time
,,S61,1,male,24,anonymized,Serial_Dependence_U,2023.2.3,MacIntel,27.77777777777778,,,,,,566.593,279.0,1.0,566.594,279.0,,,,570.162,570.653,569.6560000000001,570.161,567.587,569.655,570.653,571.154,571.154,572.62,992.0,572.62,3.0,572.62,1.0,8.0,38.0,21.0,1.0,1.0,0.3,Time
,,S61,1,male,24,anonymized,Serial_Dependence_U,2023.2.3,MacIntel,27.77777777777778,,,,,,572.621,179.0,1.0,572.621,179.0,,,,576.371,576.8580000000001,575.87,576.371,573.621,575.87,576.8580000000001,577.351,577.351,579.059,1376.0,579.0600000000002,4.0,579.0600000000002,1.0,9.0,39.0,27.0,1.0,1.2,0.7,Time
,,S61,1,male,24,anonymized,Serial_Dependence_U,2023.2.3,MacIntel,27.77777777777778,,,,,,579.061,357.0,1.0,579.061,357.0,,,,582.641,583.14,582.137,582.641,580.059,582.137,583.141,583.641,583.641,585.071,1023.0,585.071,3.0,585.072,1.0,10.0,40.0,11.0,1.0,1.0,0.3,Time
,,S61,1,male,24,anonymized,Serial_Dependence_U,2023.2.3,MacIntel,27.77777777777778,,,,,,585.072,120.0,1.0,585.073,120.0,,,,589.205,589.698,588.701,589.205,586.065,588.701,589.698,590.19,590.19,592.161,1544.0,592.161,3.0,592.162,1.0,11.0,41.0,9.0,1.0,1.6,0.7,Time
,,S61,1,male,24,anonymized,Serial_Dependence_U,2023.2.3,MacIntel,27.77777777777778,,,,,,592.162,10.0,1.0,592.162,10.0,,,,595.921,596.415,595.42,595.92,593.158,595.419,596.415,596.902,596.903,598.919,1510.0,598.919,4.0,598.92,1.0,12.0,42.0,2.0,1.0,1.2,0.3,Time
,,S61,1,male,24,anonymized,Serial_Dependence_U,2023.2.3,MacIntel,27.77777777777778,,,,,,598.921,223.0,1.0,598.921,223.0,,,,603.091,603.586,602.586,603.091,599.922,602.586,603.586,604.093,604.093,605.808,1202.0,605.808,2.0,605.808,1.0,13.0,43.0,24.0,1.0,1.6,0.3,Time
,,S61,1,male,24,anonymized,Serial_Dependence_U,2023.2.3,MacIntel,27.77777777777778,,,,,,605.809,186.0,1.0,605.809,186.0,,,,609.192,609.698,608.681,609.192,606.82,608.681,609.698,610.192,610.192,611.669,1016.0,611.669,4.0,611.67,1.0,14.0,44.0,0.0,1.0,0.8,0.3,Time
,,S61,1,male,24,anonymized,Serial_Dependence_U,2023.2.3,MacIntel,27.77777777777778,,,,,,611.67,203.0,1.0,611.67,203.0,,,,615.622,616.112,615.119,615.622,612.686,615.119,616.112,616.602,616.602,618.304,1365.0,618.304,3.0,618.304,1.0,15.0,45.0,18.0,1.0,1.4,0.7,Time
,,S61,1,male,24,anonymized,Serial_Dependence_U,2023.2.3,MacIntel,27.77777777777778,,,,,,618.3050000000001,119.0,1.0,618.3050000000001,119.0,,,,622.244,622.751,621.74,622.244,619.309,621.74,622.751,623.24,623.24,625.403,1748.0,625.404,4.0,625.404,1.0,16.0,46.0,28.0,1.0,1.4,0.7,Time
,,S61,1,male,24,anonymized,Serial_Dependence_U,2023.2.3,MacIntel,27.77777777777778,,,,,,625.405,175.0,1.0,625.405,175.0,,,,629.587,630.075,629.07,629.587,626.4060000000001,629.069,630.075,630.566,630.567,633.528,1818.0,633.528,4.0,633.528,1.0,17.0,47.0,4.0,1.0,1.6,0.3,Time
,,S61,1,male,24,anonymized,Serial_Dependence_U,2023.2.3,MacIntel,27.77777777777778,,,,,,633.529,143.0,1.0,633.529,143.0,,,,637.295,637.788,636.789,637.295,634.5260000000001,636.789,637.788,638.289,638.289,640.35,1637.0,640.35,5.0,640.35,1.0,18.0,48.0,12.0,1.0,1.2,0.3,Time
,,S61,1,male,24,anonymized,Serial_Dependence_U,2023.2.3,MacIntel,27.77777777777778,,,,,,640.351,61.0,1.0,640.351,61.0,,,,644.153,644.65,643.644,644.152,641.371,643.644,644.65,645.154,645.154,647.0600000000002,1332.0,647.0600000000002,4.0,647.061,1.0,19.0,49.0,22.0,1.0,1.2,0.3,Time
,,S61,1,male,24,anonymized,Serial_Dependence_U,2023.2.3,MacIntel,27.77777777777778,,,,,,647.061,216.0,1.0,647.062,216.0,,,,650.6270000000001,651.122,650.109,650.626,648.071,650.109,651.122,651.614,651.614,653.368,1319.0,653.368,5.0,653.369,1.0,20.0,50.0,26.0,1.0,1.0,0.7,Time
,,S61,1,male,24,anonymized,Serial_Dependence_U,2023.2.3,MacIntel,27.77777777777778,,,,,,653.369,266.0,1.0,653.369,266.0,,,,657.37,657.863,656.854,657.37,654.383,656.8530000000001,657.863,658.354,658.354,660.573,1423.0,660.573,3.0,660.5740000000001,1.0,21.0,51.0,13.0,1.0,1.4,0.3,Time
,,S61,1,male,24,anonymized,Serial_Dependence_U,2023.2.3,MacIntel,27.77777777777778,,,,,,660.5740000000001,187.0,1.0,660.5740000000001,187.0,,,,664.325,664.828,663.823,664.325,661.577,663.823,664.8290000000001,665.317,665.317,667.413,1548.0,667.413,4.0,667.414,1.0,22.0,52.0,17.0,1.0,1.2,0.7,Time
,,S61,1,male,24,anonymized,Serial_Dependence_U,2023.2.3,MacIntel,27.77777777777778,,,,,,667.415,295.0,1.0,667.415,295.0,,,,670.788,671.277,670.269,670.787,668.421,670.269,671.277,671.769,671.769,673.835,1270.0,673.835,5.0,673.836,1.0,23.0,53.0,15.0,1.0,0.8,0.7,Time
,,S61,1,male,24,anonymized,Serial_Dependence_U,2023.2.3,MacIntel,27.77777777777778,,,,,,673.836,76.0,1.0,673.837,76.0,,,,677.4060000000001,677.912,676.893,677.4060000000001,674.857,676.893,677.912,678.407,678.407,680.39,1526.0,680.391,5.0,680.391,1.0,24.0,54.0,16.0,1.0,1.0,0.7,Time
,,S61,1,male,24,anonymized,Serial_Dependence_U,2023.2.3,MacIntel,27.77777777777778,,,,,,680.392,236.0,1.0,680.392,236.0,,,,683.774,684.27,683.261,683.774,681.399,683.261,684.27,684.767,684.768,685.587,427.0,685.587,1.0,685.588,1.0,25.0,55.0,20.0,1.0,0.8,0.3,Time
,,S61,1,male,24,anonymized,Serial_Dependence_U,2023.2.3,MacIntel,27.77777777777778,,,,,,685.589,116.0,1.0,685.589,116.0,,,,689.545,690.035,689.04,689.544,686.59,689.039,690.036,690.539,690.539,692.77,1804.0,692.77,4.0,692.77,1.0,26.0,56.0,8.0,1.0,1.4,0.7,Time
,,S61,1,male,24,anonymized,Serial_Dependence_U,2023.2.3,MacIntel,27.77777777777778,,,,,,692.771,61.0,1.0,692.771,61.0,,,,696.525,697.024,696.015,696.525,693.773,696.015,697.024,697.523,697.524,699.4540000000001,1524.0,699.4540000000001,4.0,699.455,1.0,27.0,57.0,7.0,1.0,1.2,0.7,Time
,,S61,1,male,24,anonymized,Serial_Dependence_U,2023.2.3,MacIntel,27.77777777777778,,,,,,699.455,209.0,1.0,699.456,209.0,,,,703.439,703.931,702.922,703.439,700.458,702.922,703.931,704.421,704.421,706.306,1427.0,706.306,3.0,706.307,1.0,28.0,58.0,23.0,1.0,1.4,0.3,Time
,,S61,1,male,24,anonymized,Serial_Dependence_U,2023.2.3,MacIntel,27.77777777777778,,,,,,706.307,60.0,1.0,706.308,60.0,,,,709.681,710.177,709.172,709.681,707.3290000000001,709.172,710.177,710.668,710.669,712.352,1206.0,712.352,5.0,712.352,1.0,29.0,59.0,5.0,1.0,0.8,0.7,Time
,,S61,1,male,24,anonymized,Serial_Dependence_U,2023.2.3,MacIntel,27.77777777777778,,,,,,712.3530000000001,177.0,2.0,714.337,177.0,s,1.9700000000000275,,717.708,718.207,717.197,717.708,715.354,717.197,718.207,718.703,718.703,720.3530000000001,1181.0,720.3530000000001,5.0,720.3530000000001,2.0,0.0,60.0,15.0,1.0,0.8,0.7,Time
,,S61,1,male,24,anonymized,Serial_Dependence_U,2023.2.3,MacIntel,27.77777777777778,,,,,,720.354,312.0,2.0,720.357,312.0,,,,724.106,724.6030000000001,723.6030000000001,724.106,721.362,723.6030000000001,724.6030000000001,725.102,725.102,726.862,1371.0,726.862,4.0,726.863,2.0,1.0,61.0,27.0,1.0,1.2,0.7,Time
,,S61,1,male,24,anonymized,Serial_Dependence_U,2023.2.3,MacIntel,27.77777777777778,,,,,,726.864,108.0,2.0,726.864,108.0,,,,731.022,731.522,730.506,731.022,727.873,730.506,731.522,732.025,732.025,734.439,2008.0,734.439,4.0,734.44,2.0,2.0,62.0,9.0,1.0,1.6,0.7,Time
,,S61,1,male,24,anonymized,Serial_Dependence_U,2023.2.3,MacIntel,27.77777777777778,,,,,,734.441,128.0,2.0,734.441,128.0,,,,738.022,738.519,737.505,738.0210000000001,735.439,737.505,738.519,739.023,739.023,740.705,1172.0,740.705,4.0,740.706,2.0,3.0,63.0,21.0,1.0,1.0,0.3,Time
,,S61,1,male,24,anonymized,Serial_Dependence_U,2023.2.3,MacIntel,27.77777777777778,,,,,,740.706,178.0,2.0,740.706,178.0,,,,744.673,745.172,744.158,744.673,741.72,744.157,745.172,745.663,745.664,748.123,1932.0,748.123,5.0,748.124,2.0,4.0,64.0,18.0,1.0,1.4,0.7,Time
,,S61,1,male,24,anonymized,Serial_Dependence_U,2023.2.3,MacIntel,27.77777777777778,,,,,,748.124,108.0,2.0,748.124,108.0,,,,751.881,752.373,751.38,751.881,749.14,751.38,752.374,752.863,752.863,754.98,1672.0,754.98,5.0,754.98,2.0,5.0,65.0,17.0,1.0,1.2,0.7,Time
,,S61,1,male,24,anonymized,Serial_Dependence_U,2023.2.3,MacIntel,27.77777777777778,,,,,,754.981,188.0,2.0,754.981,188.0,,,,758.956,759.466,758.452,758.956,755.98,758.452,759.466,759.953,759.953,762.482,1938.0,762.482,5.0,762.4830000000001,2.0,6.0,66.0,23.0,1.0,1.4,0.3,Time
,,S61,1,male,24,anonymized,Serial_Dependence_U,2023.2.3,MacIntel,27.77777777777778,,,,,,762.4830000000001,105.0,2.0,762.4830000000001,105.0,,,,765.837,766.325,765.327,765.836,763.492,765.327,766.325,766.812,766.812,768.409,1193.0,768.409,5.0,768.409,2.0,7.0,67.0,5.0,1.0,0.8,0.7,Time
,,S61,1,male,24,anonymized,Serial_Dependence_U,2023.2.3,MacIntel,27.77777777777778,,,,,,768.41,114.0,2.0,768.411,114.0,,,,772.188,772.688,771.684,772.188,769.4060000000001,771.684,772.688,773.179,773.179,774.871,1335.0,774.8720000000001,4.0,774.8720000000001,2.0,8.0,68.0,22.0,1.0,1.2,0.3,Time
,,S61,1,male,24,anonymized,Serial_Dependence_U,2023.2.3,MacIntel,27.77777777777778,,,,,,774.873,63.0,2.0,774.873,63.0,,,,778.866,779.356,778.35,778.865,775.874,778.35,779.356,779.849,779.849,781.796,1551.0,781.796,4.0,781.797,2.0,9.0,69.0,3.0,1.0,1.4,0.3,Time
,,S61,1,male,24,anonymized,Serial_Dependence_U,2023.2.3,MacIntel,27.77777777777778,,,,,,781.797,39.0,2.0,781.797,39.0,,,,785.956,786.455,785.44,785.956,782.804,785.439,786.455,786.955,786.955,789.26,1862.0,789.26,4.0,789.26,2.0,10.0,70.0,29.0,1.0,1.6,0.7,Time
,,S61,1,male,24,anonymized,Serial_Dependence_U,2023.2.3,MacIntel,27.77777777777778,,,,,,789.261,8.0,2.0,789.261,8.0,,,,793.255,793.751,792.746,793.255,790.272,792.746,793.7520000000001,794.246,794.246,796.6510000000001,1838.0,796.6510000000001,5.0,796.652,2.0,11.0,71.0,13.0,1.0,1.4,0.3,Time
,,S61,1,male,24,anonymized,Serial_Dependence_U,2023.2.3,MacIntel,27.77777777777778,,,,,,796.652,251.0,2.0,796.652,251.0,,,,800.2040000000001,800.6940000000001,799.6940000000001,800.2040000000001,797.662,799.6940000000001,800.6940000000001,801.1940000000001,801.1940000000001,803.315,1490.0,803.315,5.0,803.315,2.0,12.0,72.0,26.0,1.0,1.0,0.7,Time
,,S61,1,male,24,anonymized,Serial_Dependence_U,2023.2.3,MacIntel,27.77777777777778,,,,,,803.316,220.0,2.0,803.316,220.0,,,,806.676,807.174,806.1560000000001,806.676,804.323,806.1560000000001,807.174,807.676,807.676,810.0740000000001,1642.0,810.075,5.0,810.075,2.0,13.0,73.0,25.0,1.0,0.8,0.7,Time
,,S61,1,male,24,anonymized,Serial_Dependence_U,2023.2.3,MacIntel,27.77777777777778,,,,,,810.076,22.0,2.0,810.076,22.0,,,,813.869,814.362,813.365,813.869,811.089,813.365,814.363,814.873,814.873,816.793,1331.0,816.793,4.0,816.793,2.0,14.0,74.0,12.0,1.0,1.2,0.3,Time
,,S61,1,male,24,anonymized,Serial_Dependence_U,2023.2.3,MacIntel,27.77777777777778,,,,,,816.794,91.0,2.0,816.794,91.0,,,,820.972,821.474,820.47,820.972,817.7950000000001,820.47,821.474,821.9730000000001,821.9730000000001,824.025,1702.0,824.025,4.0,824.0260000000001,2.0,15.0,75.0,24.0,1.0,1.6,0.3,Time
,,S61,1,male,24,anonymized,Serial_Dependence_U,2023.2.3,MacIntel,27.77777777777778,,,,,,824.0260000000001,113.0,2.0,824.0260000000001,113.0,,,,827.592,828.094,827.089,827.592,825.0260000000001,827.089,828.094,828.587,828.587,830.191,1257.0,830.191,4.0,830.192,2.0,16.0,76.0,11.0,1.0,1.0,0.3,Time
,,S61,1,male,24,anonymized,Serial_Dependence_U,2023.2.3,MacIntel,27.77777777777778,,,,,,830.192,228.0,2.0,830.192,228.0,,,,834.121,834.624,833.62,834.121,831.182,833.62,834.624,835.126,835.126,837.224,1703.0,837.224,4.0,837.225,2.0,17.0,77.0,8.0,1.0,1.4,0.7,Time
,,S61,1,male,24,anonymized,Serial_Dependence_U,2023.2.3,MacIntel,27.77777777777778,,,,,,837.225,326.0,2.0,837.226,326.0,,,,840.6270000000001,841.1220000000001,840.123,840.626,838.243,840.123,841.1220000000001,841.6270000000001,841.6270000000001,842.971,909.0,842.971,4.0,842.972,2.0,18.0,78.0,20.0,1.0,0.8,0.3,Time
,,S61,1,male,24,anonymized,Serial_Dependence_U,2023.2.3,MacIntel,27.77777777777778,,,,,,842.972,61.0,2.0,842.9730000000001,61.0,,,,846.355,846.8530000000001,845.84,846.355,843.974,845.84,846.8530000000001,847.34,847.341,848.409,760.0,848.409,2.0,848.41,2.0,19.0,79.0,10.0,1.0,0.8,0.3,Time
,,S61,1,male,24,anonymized,Serial_Dependence_U,2023.2.3,MacIntel,27.77777777777778,,,,,,848.41,66.0,2.0,848.411,66.0,,,,851.977,852.465,851.4680000000001,851.977,849.404,851.4680000000001,852.465,852.971,852.971,854.558,1221.0,854.558,4.0,854.558,2.0,20.0,80.0,1.0,1.0,1.0,0.3,Time
,,S61,1,male,24,anonymized,Serial_Dependence_U,2023.2.3,MacIntel,27.77777777777778,,,,,,854.558,180.0,2.0,854.559,180.0,,,,858.359,858.8480000000001,857.847,858.359,855.571,857.847,858.8480000000001,859.345,859.345,860.945,1243.0,860.945,3.0,860.946,2.0,21.0,81.0,2.0,1.0,1.2,0.3,Time
,,S61,1,male,24,anonymized,Serial_Dependence_U,2023.2.3,MacIntel,27.77777777777778,,,,,,860.946,63.0,2.0,860.946,63.0,,,,864.705,865.191,864.192,864.7040000000001,861.953,864.192,865.191,865.686,865.686,867.601,1443.0,867.601,4.0,867.601,2.0,22.0,82.0,7.0,1.0,1.2,0.7,Time
,,S61,1,male,24,anonymized,Serial_Dependence_U,2023.2.3,MacIntel,27.77777777777778,,,,,,867.602,220.0,2.0,867.602,220.0,,,,870.988,871.494,870.486,870.988,868.606,870.486,871.494,871.995,871.995,873.703,836.0,873.703,3.0,873.7040000000001,2.0,23.0,83.0,0.0,1.0,0.8,0.3,Time
,,S61,1,male,24,anonymized,Serial_Dependence_U,2023.2.3,MacIntel,27.77777777777778,,,,,,873.7040000000001,233.0,2.0,873.7040000000001,233.0,,,,877.855,878.355,877.352,877.855,874.715,877.351,878.355,878.852,878.852,881.7710000000001,2181.0,881.7710000000001,5.0,881.772,2.0,24.0,84.0,19.0,1.0,1.6,0.7,Time
,,S61,1,male,24,anonymized,Serial_Dependence_U,2023.2.3,MacIntel,27.77777777777778,,,,,,881.773,78.0,2.0,881.773,78.0,,,,885.318,885.818,884.806,885.318,882.77,884.8050000000001,885.818,886.313,886.313,888.7090000000001,1354.0,888.7090000000001,5.0,888.7090000000001,2.0,25.0,85.0,6.0,1.0,1.0,0.7,Time
,,S61,1,male,24,anonymized,Serial_Dependence_U,2023.2.3,MacIntel,27.77777777777778,,,,,,888.71,23.0,2.0,888.71,23.0,,,,892.89,893.387,892.378,892.889,889.712,892.378,893.387,893.886,893.887,896.984,1997.0,896.984,4.0,896.985,2.0,26.0,86.0,4.0,1.0,1.6,0.3,Time
,,S61,1,male,24,anonymized,Serial_Dependence_U,2023.2.3,MacIntel,27.77777777777778,,,,,,896.985,161.0,2.0,896.985,161.0,,,,900.937,901.437,900.4250000000001,900.937,897.986,900.4250000000001,901.437,901.927,901.928,904.555,1944.0,904.555,5.0,904.556,2.0,27.0,87.0,28.0,1.0,1.4,0.7,Time
,,S61,1,male,24,anonymized,Serial_Dependence_U,2023.2.3,MacIntel,27.77777777777778,,,,,,904.556,194.0,2.0,904.557,194.0,,,,908.132,908.631,907.612,908.131,905.574,907.612,908.631,909.12,909.12,910.678,1108.0,910.678,4.0,910.679,2.0,28.0,88.0,16.0,1.0,1.0,0.7,Time
,,S61,1,male,24,anonymized,Serial_Dependence_U,2023.2.3,MacIntel,27.77777777777778,,,,,,910.679,97.0,2.0,910.68,97.0,,,,914.869,915.373,914.359,914.868,911.683,914.359,915.373,915.871,915.871,918.327,1999.0,918.327,4.0,918.327,2.0,29.0,89.0,14.0,1.0,1.6,0.3,Time
,,S61,1,male,24,anonymized,Serial_Dependence_U,2023.2.3,MacIntel,27.77777777777778,,,,,,918.327,216.0,3.0,920.137,216.0,s,1.7910000000000537,,923.515,924.016,923.006,923.515,921.138,923.006,924.016,924.505,924.505,925.627,634.0,925.627,2.0,925.627,3.0,0.0,90.0,20.0,1.0,0.8,0.3,Time
,,S61,1,male,24,anonymized,Serial_Dependence_U,2023.2.3,MacIntel,27.77777777777778,,,,,,925.628,164.0,3.0,925.632,164.0,,,,929.389,929.886,928.873,929.389,926.631,928.873,929.886,930.378,930.379,932.713,1422.0,932.713,4.0,932.714,3.0,1.0,91.0,27.0,1.0,1.2,0.7,Time
,,S61,1,male,24,anonymized,Serial_Dependence_U,2023.2.3,MacIntel,27.77777777777778,,,,,,932.714,300.0,3.0,932.714,300.0,,,,936.876,937.364,936.371,936.876,933.727,936.371,937.365,937.85,937.85,940.589,1941.0,940.589,4.0,940.59,3.0,2.0,92.0,9.0,1.0,1.6,0.7,Time
,,S61,1,male,24,anonymized,Serial_Dependence_U,2023.2.3,MacIntel,27.77777777777778,,,,,,940.59,234.0,3.0,940.59,234.0,,,,943.96,944.461,943.444,943.96,941.604,943.444,944.461,944.959,944.959,946.524,1084.0,946.524,5.0,946.525,3.0,3.0,93.0,15.0,1.0,0.8,0.7,Time
,,S61,1,male,24,anonymized,Serial_Dependence_U,2023.2.3,MacIntel,27.77777777777778,,,,,,946.526,328.0,3.0,946.526,328.0,,,,950.323,950.825,949.811,950.322,947.533,949.811,950.825,951.327,951.327,953.498,1359.0,953.498,4.0,953.498,3.0,4.0,94.0,2.0,1.0,1.2,0.3,Time
,,S61,1,male,24,anonymized,Serial_Dependence_U,2023.2.3,MacIntel,27.77777777777778,,,,,,953.498,309.0,3.0,953.498,309.0,,,,956.848,957.343,956.326,956.847,954.494,956.326,957.343,957.832,957.832,959.207,872.0,959.207,4.0,959.207,3.0,5.0,95.0,5.0,1.0,0.8,0.7,Time
,,S61,1,male,24,anonymized,Serial_Dependence_U,2023.2.3,MacIntel,27.77777777777778,,,,,,959.207,259.0,3.0,959.208,259.0,,,,962.989,963.489,962.483,962.989,960.22,962.483,963.489,963.985,963.985,965.684,1238.0,965.684,3.0,965.684,3.0,6.0,96.0,12.0,1.0,1.2,0.3,Time
,,S61,1,male,24,anonymized,Serial_Dependence_U,2023.2.3,MacIntel,27.77777777777778,,,,,,965.6850000000002,33.0,3.0,965.6850000000002,33.0,,,,969.254,969.754,968.746,969.253,966.681,968.745,969.754,970.248,970.248,972.156,1411.0,972.156,5.0,972.157,3.0,7.0,97.0,1.0,1.0,1.0,0.3,Time
,,S61,1,male,24,anonymized,Serial_Dependence_U,2023.2.3,MacIntel,27.77777777777778,,,,,,972.157,168.0,3.0,972.158,168.0,,,,975.904,976.398,975.392,975.904,973.156,975.392,976.398,976.887,976.887,978.475,1229.0,978.475,3.0,978.476,3.0,8.0,98.0,17.0,1.0,1.2,0.7,Time
,,S61,1,male,24,anonymized,Serial_Dependence_U,2023.2.3,MacIntel,27.77777777777778,,,,,,978.477,240.0,3.0,978.477,240.0,,,,982.651,983.153,982.139,982.651,979.493,982.139,983.153,983.654,983.654,985.859,1841.0,985.859,4.0,985.859,3.0,9.0,99.0,29.0,1.0,1.6,0.7,Time
,,S61,1,male,24,anonymized,Serial_Dependence_U,2023.2.3,MacIntel,27.77777777777778,,,,,,985.86,250.0,3.0,985.86,250.0,,,,989.416,989.908,988.908,989.416,986.868,988.907,989.908,990.408,990.408,991.965,1046.0,991.965,3.0,991.965,3.0,10.0,100.0,6.0,1.0,1.0,0.7,Time
,,S61,1,male,24,anonymized,Serial_Dependence_U,2023.2.3,MacIntel,27.77777777777778,,,,,,991.965,134.0,3.0,991.965,134.0,,,,995.338,995.841,994.824,995.338,992.961,994.824,995.841,996.333,996.333,997.871,912.0,997.871,4.0,997.872,3.0,11.0,101.0,10.0,1.0,0.8,0.3,Time
,,S61,1,male,24,anonymized,Serial_Dependence_U,2023.2.3,MacIntel,27.77777777777778,,,,,,997.872,180.0,3.0,997.872,180.0,,,,1001.836,1002.339,1001.323,1001.836,998.883,1001.323,1002.339,1002.826,1002.826,1005.389,1918.0,1005.389,5.0,1005.39,3.0,12.0,102.0,28.0,1.0,1.4,0.7,Time
,,S61,1,male,24,anonymized,Serial_Dependence_U,2023.2.3,MacIntel,27.77777777777778,,,,,,1005.39,21.0,3.0,1005.39,21.0,,,,1009.378,1009.871,1008.872,1009.378,1006.404,1008.872,1009.871,1010.372,1010.372,1012.042,1248.0,1012.042,2.0,1012.042,3.0,13.0,103.0,13.0,1.0,1.4,0.3,Time
,,S61,1,male,24,anonymized,Serial_Dependence_U,2023.2.3,MacIntel,27.77777777777778,,,,,,1012.043,271.0,3.0,1012.043,271.0,,,,1015.641,1016.132,1015.139,1015.641,1013.063,1015.139,1016.132,1016.625,1016.625,1018.236,1128.0,1018.236,4.0,1018.237,3.0,14.0,104.0,21.0,1.0,1.0,0.3,Time
,,S61,1,male,24,anonymized,Serial_Dependence_U,2023.2.3,MacIntel,27.77777777777778,,,,,,1018.237,1.0,3.0,1018.237,1.0,,,,1022.419,1022.91,1021.9059999999998,1022.419,1019.2439999999998,1021.905,1022.91,1023.401,1023.401,1025.3739999999998,1539.0,1025.3739999999998,3.0,1025.375,3.0,15.0,105.0,4.0,1.0,1.6,0.3,Time
,,S61,1,male,24,anonymized,Serial_Dependence_U,2023.2.3,MacIntel,27.77777777777778,,,,,,1025.375,26.0,3.0,1025.375,26.0,,,,1028.9339999999995,1029.4249999999995,1028.418,1028.933,1026.379,1028.418,1029.4249999999995,1029.924,1029.924,1031.558,1145.0,1031.558,4.0,1031.558,3.0,16.0,106.0,26.0,1.0,1.0,0.7,Time
,,S61,1,male,24,anonymized,Serial_Dependence_U,2023.2.3,MacIntel,27.77777777777778,,,,,,1031.5589999999995,75.0,3.0,1031.5589999999995,75.0,,,,1035.522,1036.0169999999998,1035.011,1035.5209999999995,1032.574,1035.011,1036.0169999999998,1036.5169999999998,1036.5169999999998,1038.5949999999998,1609.0,1038.596,4.0,1038.596,3.0,17.0,107.0,8.0,1.0,1.4,0.7,Time
,,S61,1,male,24,anonymized,Serial_Dependence_U,2023.2.3,MacIntel,27.77777777777778,,,,,,1038.5969999999998,157.0,3.0,1038.5969999999998,157.0,,,,1042.5769999999998,1043.067,1042.0749999999998,1042.5769999999998,1039.612,1042.0749999999998,1043.067,1043.556,1043.556,1045.587,1611.0,1045.587,4.0,1045.587,3.0,18.0,108.0,23.0,1.0,1.4,0.3,Time
,,S61,1,male,24,anonymized,Serial_Dependence_U,2023.2.3,MacIntel,27.77777777777778,,,,,,1045.5879999999995,109.0,3.0,1045.5879999999995,109.0,,,,1049.536,1050.038,1049.036,1049.536,1046.602,1049.036,1050.038,1050.543,1050.543,1052.772,1766.0,1052.7729999999997,4.0,1052.7729999999997,3.0,19.0,109.0,18.0,1.0,1.4,0.7,Time
,,S61,1,male,24,anonymized,Serial_Dependence_U,2023.2.3,MacIntel,27.77777777777778,,,,,,1052.7729999999997,117.0,3.0,1052.7729999999997,117.0,,,,1056.937,1057.442,1056.4359999999997,1056.937,1053.7729999999997,1056.4359999999997,1057.442,1057.9319999999998,1057.9319999999998,1060.2039999999995,1781.0,1060.2039999999995,4.0,1060.2039999999995,3.0,20.0,110.0,24.0,1.0,1.6,0.3,Time
,,S61,1,male,24,anonymized,Serial_Dependence_U,2023.2.3,MacIntel,27.77777777777778,,,,,,1060.205,266.0,3.0,1060.205,266.0,,,,1064.3739999999998,1064.873,1063.8629999999998,1064.3739999999998,1061.221,1063.8629999999998,1064.873,1065.368,1065.3689999999997,1067.6619999999998,1856.0,1067.6619999999998,4.0,1067.6619999999998,3.0,21.0,111.0,19.0,1.0,1.6,0.7,Time
,,S61,1,male,24,anonymized,Serial_Dependence_U,2023.2.3,MacIntel,27.77777777777778,,,,,,1067.663,253.0,3.0,1067.663,253.0,,,,1071.643,1072.129,1071.1369999999995,1071.643,1068.67,1071.1369999999995,1072.129,1072.629,1072.629,1074.612,1533.0,1074.612,4.0,1074.612,3.0,22.0,112.0,3.0,1.0,1.4,0.3,Time
,,S61,1,male,24,anonymized,Serial_Dependence_U,2023.2.3,MacIntel,27.77777777777778,,,,,,1074.612,47.0,3.0,1074.6129999999998,47.0,,,,1078.1839999999995,1078.687,1077.67,1078.183,1075.6039999999998,1077.67,1078.687,1079.1799999999998,1079.1799999999998,1080.687,1094.0,1080.688,4.0,1080.688,3.0,23.0,113.0,11.0,1.0,1.0,0.3,Time
,,S61,1,male,24,anonymized,Serial_Dependence_U,2023.2.3,MacIntel,27.77777777777778,,,,,,1080.688,49.0,3.0,1080.688,49.0,,,,1084.0859999999998,1084.5879999999995,1083.5719999999997,1084.0859999999998,1081.707,1083.5719999999997,1084.5879999999995,1085.0839999999998,1085.0839999999998,1086.504,909.0,1086.504,4.0,1086.505,3.0,24.0,114.0,0.0,1.0,0.8,0.3,Time
,,S61,1,male,24,anonymized,Serial_Dependence_U,2023.2.3,MacIntel,27.77777777777778,,,,,,1086.505,328.0,3.0,1086.506,328.0,,,,1090.047,1090.5319999999997,1089.542,1090.047,1087.4969999999998,1089.5409999999997,1090.5319999999997,1091.033,1091.033,1092.765,1039.0,1092.765,3.0,1092.766,3.0,25.0,115.0,16.0,1.0,1.0,0.7,Time
,,S61,1,male,24,anonymized,Serial_Dependence_U,2023.2.3,MacIntel,27.77777777777778,,,,,,1092.7669999999998,102.0,3.0,1092.7669999999998,102.0,,,,1096.123,1096.6219999999998,1095.6200000000003,1096.123,1093.7709999999995,1095.6200000000003,1096.6219999999998,1097.11,1097.11,1098.984,1399.0,1098.984,5.0,1098.985,3.0,26.0,116.0,25.0,1.0,0.8,0.7,Time
,,S61,1,male,24,anonymized,Serial_Dependence_U,2023.2.3,MacIntel,27.77777777777778,,,,,,1098.985,221.0,3.0,1098.985,221.0,,,,1102.725,1103.2149999999997,1102.2219999999998,1102.725,1099.987,1102.2219999999998,1103.2149999999997,1103.719,1103.719,1105.576,830.0,1105.576,1.0,1105.5769999999998,3.0,27.0,117.0,7.0,1.0,1.2,0.7,Time
,,S61,1,male,24,anonymized,Serial_Dependence_U,2023.2.3,MacIntel,27.77777777777778,,,,,,1105.5769999999998,274.0,3.0,1105.5769999999998,274.0,,,,1109.772,1110.2689999999998,1109.2579999999998,1109.772,1106.594,1109.257,1110.2689999999998,1110.7599999999998,1110.761,1113.185,1835.0,1113.185,4.0,1113.1859999999997,3.0,28.0,118.0,14.0,1.0,1.6,0.3,Time
,,S61,1,male,24,anonymized,Serial_Dependence_U,2023.2.3,MacIntel,27.77777777777778,,,,,,1113.187,277.0,3.0,1113.187,277.0,,,,1116.9789999999998,1117.4739999999997,1116.4719999999998,1116.9789999999998,1114.196,1116.4719999999998,1117.4739999999997,1117.9789999999998,1117.9789999999998,1119.768,1311.0,1119.7689999999998,4.0,1119.7689999999998,3.0,29.0,119.0,22.0,1.0,1.2,0.3,Time
,,S61,1,male,24,anonymized,Serial_Dependence_U,2023.2.3,MacIntel,27.77777777777778,,,,,,1119.77,26.0,4.0,1135.942,26.0,s,16.15000000000009,,1139.705,1140.199,1139.188,1139.7039999999995,1136.9539999999995,1139.187,1140.199,1140.687,1140.687,1142.331,1305.0,1142.331,4.0,1142.331,4.0,0.0,120.0,27.0,1.0,1.2,0.7,Time
,,S61,1,male,24,anonymized,Serial_Dependence_U,2023.2.3,MacIntel,27.77777777777778,,,,,,1142.331,143.0,4.0,1142.333,143.0,,,,1146.272,1146.7709999999995,1145.759,1146.272,1143.326,1145.759,1146.7709999999995,1147.2669999999998,1147.2669999999998,1149.328,1666.0,1149.328,4.0,1149.3289999999995,4.0,1.0,121.0,18.0,1.0,1.4,0.7,Time
,,S61,1,male,24,anonymized,Serial_Dependence_U,2023.2.3,MacIntel,27.77777777777778,,,,,,1149.3289999999995,23.0,4.0,1149.3289999999995,23.0,,,,1152.904,1153.391,1152.393,1152.9029999999998,1150.3539999999998,1152.393,1153.391,1153.897,1153.897,1155.554,1288.0,1155.554,4.0,1155.554,4.0,2.0,122.0,16.0,1.0,1.0,0.7,Time
,,S61,1,male,24,anonymized,Serial_Dependence_U,2023.2.3,MacIntel,27.77777777777778,,,,,,1155.5549999999998,100.0,4.0,1155.5549999999998,100.0,,,,1159.737,1160.237,1159.221,1159.737,1156.545,1159.221,1160.237,1160.7309999999998,1160.7309999999998,1162.689,1525.0,1162.689,3.0,1162.689,4.0,3.0,123.0,4.0,1.0,1.6,0.3,Time
,,S61,1,male,24,anonymized,Serial_Dependence_U,2023.2.3,MacIntel,27.77777777777778,,,,,,1162.69,21.0,4.0,1162.69,21.0,,,,1166.688,1167.1839999999995,1166.176,1166.688,1163.6999999999998,1166.1749999999995,1167.1839999999995,1167.6909999999998,1167.6909999999998,1170.94,1757.0,1170.9409999999998,4.0,1170.9409999999998,4.0,4.0,124.0,13.0,1.0,1.4,0.3,Time
,,S61,1,male,24,anonymized,Serial_Dependence_U,2023.2.3,MacIntel,27.77777777777778,,,,,,1170.942,184.0,4.0,1170.942,184.0,,,,1174.3219999999997,1174.819,1173.821,1174.3219999999997,1171.948,1173.821,1174.819,1175.31,1175.31,1176.661,925.0,1176.661,4.0,1176.661,4.0,5.0,125.0,20.0,1.0,0.8,0.3,Time
,,S61,1,male,24,anonymized,Serial_Dependence_U,2023.2.3,MacIntel,27.77777777777778,,,,,,1176.661,318.0,4.0,1176.661,318.0,,,,1180.841,1181.341,1180.337,1180.8399999999997,1177.672,1180.337,1181.341,1181.833,1181.833,1183.301,1158.0,1183.302,2.0,1183.302,4.0,6.0,126.0,24.0,1.0,1.6,0.3,Time
,,S61,1,male,24,anonymized,Serial_Dependence_U,2023.2.3,MacIntel,27.77777777777778,,,,,,1183.302,257.0,4.0,1183.303,257.0,,,,1187.107,1187.603,1186.598,1187.1059999999998,1184.319,1186.598,1187.603,1188.1,1188.1,1191.1039999999998,1263.0,1191.1039999999998,4.0,1191.105,4.0,7.0,127.0,2.0,1.0,1.2,0.3,Time
,,S61,1,male,24,anonymized,Serial_Dependence_U,2023.2.3,MacIntel,27.77777777777778,,,,,,1191.1059999999998,130.0,4.0,1191.1059999999998,130.0,,,,1194.853,1195.351,1194.337,1194.853,1192.1039999999998,1194.3359999999998,1195.351,1195.859,1195.859,1197.794,1302.0,1197.795,4.0,1197.795,4.0,8.0,128.0,7.0,1.0,1.2,0.7,Time
,,S61,1,male,24,anonymized,Serial_Dependence_U,2023.2.3,MacIntel,27.77777777777778,,,,,,1197.7959999999998,239.0,4.0,1197.7959999999998,239.0,,,,1201.765,1202.256,1201.2529999999997,1201.765,1198.814,1201.2529999999997,1202.256,1202.7579999999998,1202.7579999999998,1204.6639999999998,1354.0,1204.6639999999998,3.0,1204.6639999999998,4.0,9.0,129.0,8.0,1.0,1.4,0.7,Time
,,S61,1,male,24,anonymized,Serial_Dependence_U,2023.2.3,MacIntel,27.77777777777778,,,,,,1204.665,317.0,4.0,1204.665,317.0,,,,1208.2529999999997,1208.755,1207.739,1208.2529999999997,1205.6569999999997,1207.739,1208.755,1209.2469999999998,1209.2469999999998,1210.9069999999997,1228.0,1210.9069999999997,4.0,1210.908,4.0,10.0,130.0,1.0,1.0,1.0,0.3,Time
,,S61,1,male,24,anonymized,Serial_Dependence_U,2023.2.3,MacIntel,27.77777777777778,,,,,,1210.909,273.0,4.0,1210.909,273.0,,,,1214.4989999999998,1214.9950000000003,1213.986,1214.4989999999998,1211.92,1213.986,1214.9950000000003,1215.502,1215.5029999999997,1217.303,1339.0,1217.303,5.0,1217.304,4.0,11.0,131.0,21.0,1.0,1.0,0.3,Time
,,S61,1,male,24,anonymized,Serial_Dependence_U,2023.2.3,MacIntel,27.77777777777778,,,,,,1217.304,155.0,4.0,1217.3049999999998,155.0,,,,1220.706,1221.199,1220.196,1220.705,1218.313,1220.196,1221.1999999999998,1221.6909999999998,1221.6909999999998,1223.41,1175.0,1223.41,5.0,1223.411,4.0,12.0,132.0,0.0,1.0,0.8,0.3,Time
,,S61,1,male,24,anonymized,Serial_Dependence_U,2023.2.3,MacIntel,27.77777777777778,,,,,,1223.411,264.0,4.0,1223.4119999999998,264.0,,,,1226.971,1227.469,1226.456,1226.9699999999998,1224.4209999999998,1226.456,1227.469,1227.962,1227.962,1229.7709999999995,1343.0,1229.7709999999995,5.0,1229.7709999999995,4.0,13.0,133.0,6.0,1.0,1.0,0.7,Time
,,S61,1,male,24,anonymized,Serial_Dependence_U,2023.2.3,MacIntel,27.77777777777778,,,,,,1229.7709999999995,305.0,4.0,1229.772,305.0,,,,1233.937,1234.437,1233.431,1233.937,1230.7669999999998,1233.431,1234.438,1234.933,1234.933,1236.8939999999998,1376.0,1236.8939999999998,2.0,1236.895,4.0,14.0,134.0,14.0,1.0,1.6,0.3,Time
,,S61,1,male,24,anonymized,Serial_Dependence_U,2023.2.3,MacIntel,27.77777777777778,,,,,,1236.8959999999995,81.0,4.0,1236.8959999999995,81.0,,,,1241.042,1241.5369999999998,1240.5369999999998,1241.042,1237.9,1240.5369999999998,1241.5369999999998,1242.025,1242.025,1244.004,1535.0,1244.004,3.0,1244.005,4.0,15.0,135.0,9.0,1.0,1.6,0.7,Time
,,S61,1,male,24,anonymized,Serial_Dependence_U,2023.2.3,MacIntel,27.77777777777778,,,,,,1244.005,83.0,4.0,1244.006,83.0,,,,1247.3579999999995,1247.8539999999998,1246.842,1247.3579999999995,1245.004,1246.842,1247.8539999999998,1248.352,1248.353,1250.194,1211.0,1250.194,5.0,1250.194,4.0,16.0,136.0,15.0,1.0,0.8,0.7,Time
,,S61,1,male,24,anonymized,Serial_Dependence_U,2023.2.3,MacIntel,27.77777777777778,,,,,,1250.1949999999997,75.0,4.0,1250.1949999999997,75.0,,,,1254.3449999999998,1254.841,1253.837,1254.344,1251.203,1253.8359999999998,1254.841,1255.341,1255.341,1257.5679999999998,1618.0,1257.569,3.0,1257.569,4.0,17.0,137.0,29.0,1.0,1.6,0.7,Time
,,S61,1,male,24,anonymized,Serial_Dependence_U,2023.2.3,MacIntel,27.77777777777778,,,,,,1257.5699999999997,10.0,4.0,1257.5699999999997,10.0,,,,1261.571,1262.058,1261.053,1261.5699999999997,1258.578,1261.053,1262.058,1262.556,1262.556,1264.918,1709.0,1264.918,4.0,1264.919,4.0,18.0,138.0,23.0,1.0,1.4,0.3,Time
,,S61,1,male,24,anonymized,Serial_Dependence_U,2023.2.3,MacIntel,27.77777777777778,,,,,,1264.919,254.0,4.0,1264.919,254.0,,,,1268.285,1268.783,1267.77,1268.285,1265.935,1267.77,1268.783,1269.285,1269.285,1270.741,212.0,1270.741,1.0,1270.7419999999995,4.0,19.0,139.0,5.0,1.0,0.8,0.7,Time
,,S61,1,male,24,anonymized,Serial_Dependence_U,2023.2.3,MacIntel,27.77777777777778,,,,,,1270.7419999999995,182.0,4.0,1270.743,182.0,,,,1274.9,1275.391,1274.388,1274.9,1271.748,1274.3869999999995,1275.391,1275.8849999999998,1275.8849999999998,1278.1569999999997,1850.0,1278.1569999999997,4.0,1278.158,4.0,20.0,140.0,19.0,1.0,1.6,0.7,Time
,,S61,1,male,24,anonymized,Serial_Dependence_U,2023.2.3,MacIntel,27.77777777777778,,,,,,1278.159,17.0,4.0,1278.159,17.0,,,,1281.9229999999998,1282.4119999999998,1281.42,1281.9229999999998,1279.176,1281.42,1282.4119999999998,1282.9139999999998,1282.9139999999998,1284.8919999999998,1592.0,1284.8919999999998,5.0,1284.893,4.0,21.0,141.0,17.0,1.0,1.2,0.7,Time
,,S61,1,male,24,anonymized,Serial_Dependence_U,2023.2.3,MacIntel,27.77777777777778,,,,,,1284.893,279.0,4.0,1284.893,279.0,,,,1288.457,1288.964,1287.956,1288.456,1285.893,1287.956,1288.964,1289.466,1289.466,1290.9029999999998,1073.0,1290.9029999999998,4.0,1290.904,4.0,22.0,142.0,11.0,1.0,1.0,0.3,Time
,,S61,1,male,24,anonymized,Serial_Dependence_U,2023.2.3,MacIntel,27.77777777777778,,,,,,1290.904,344.0,4.0,1290.904,344.0,,,,1294.2689999999998,1294.772,1293.752,1294.2689999999998,1291.919,1293.752,1294.773,1295.2709999999995,1295.2709999999995,1297.161,1495.0,1297.161,5.0,1297.1619999999998,4.0,23.0,143.0,25.0,1.0,0.8,0.7,Time
,,S61,1,male,24,anonymized,Serial_Dependence_U,2023.2.3,MacIntel,27.77777777777778,,,,,,1297.163,150.0,4.0,1297.163,150.0,,,,1300.707,1301.217,1300.201,1300.707,1298.165,1300.201,1301.217,1301.7179999999998,1301.719,1303.779,1487.0,1303.779,5.0,1303.7799999999995,4.0,24.0,144.0,26.0,1.0,1.0,0.7,Time
,,S61,1,male,24,anonymized,Serial_Dependence_U,2023.2.3,MacIntel,27.77777777777778,,,,,,1303.7799999999995,262.0,4.0,1303.7799999999995,262.0,,,,1307.56,1308.052,1307.052,1307.56,1304.786,1307.052,1308.052,1308.542,1308.542,1310.323,1225.0,1310.323,3.0,1310.323,4.0,25.0,145.0,12.0,1.0,1.2,0.3,Time
,,S61,1,male,24,anonymized,Serial_Dependence_U,2023.2.3,MacIntel,27.77777777777778,,,,,,1310.324,252.0,4.0,1310.324,252.0,,,,1314.136,1314.6219999999998,1313.6200000000003,1314.136,1311.3379999999995,1313.6200000000003,1314.6219999999998,1315.118,1315.118,1316.853,1363.0,1316.853,4.0,1316.8539999999998,4.0,26.0,146.0,22.0,1.0,1.2,0.3,Time
,,S61,1,male,24,anonymized,Serial_Dependence_U,2023.2.3,MacIntel,27.77777777777778,,,,,,1316.8539999999998,314.0,4.0,1316.8539999999998,314.0,,,,1320.227,1320.7199999999998,1319.7219999999998,1320.227,1317.86,1319.721,1320.7199999999998,1321.2239999999997,1321.2239999999997,1322.6169999999995,1046.0,1322.6169999999995,5.0,1322.6169999999995,4.0,27.0,147.0,10.0,1.0,0.8,0.3,Time
,,S61,1,male,24,anonymized,Serial_Dependence_U,2023.2.3,MacIntel,27.77777777777778,,,,,,1322.618,103.0,4.0,1322.618,103.0,,,,1326.5969999999998,1327.1,1326.089,1326.5969999999998,1323.616,1326.089,1327.1,1327.5879999999995,1327.5879999999995,1329.71,1762.0,1329.71,4.0,1329.71,4.0,28.0,148.0,3.0,1.0,1.4,0.3,Time
,,S61,1,male,24,anonymized,Serial_Dependence_U,2023.2.3,MacIntel,27.77777777777778,,,,,,1329.7109999999998,150.0,4.0,1329.7109999999998,150.0,,,,1333.669,1334.159,1333.163,1333.669,1330.7199999999998,1333.163,1334.159,1334.6619999999998,1334.6619999999998,1336.636,1488.0,1336.636,4.0,1336.636,4.0,29.0,149.0,28.0,1.0,1.4,0.7,Time
,,S61,1,male,24,anonymized,Serial_Dependence_U,2023.2.3,MacIntel,27.77777777777778,,,,,,1336.6369999999995,30.0,5.0,1338.453,30.0,s,1.7999999999999543,,1342.6439999999998,1343.139,1342.1200000000003,1342.6439999999998,1339.4519999999998,1342.1200000000003,1343.14,1343.639,1343.639,1345.1619999999998,1147.0,1345.1619999999998,2.0,1345.1619999999998,5.0,0.0,150.0,24.0,1.0,1.6,0.3,Time
,,S61,1,male,24,anonymized,Serial_Dependence_U,2023.2.3,MacIntel,27.77777777777778,,,,,,1345.163,79.0,5.0,1345.1639999999998,79.0,,,,1348.509,1349.009,1347.993,1348.509,1346.1619999999998,1347.993,1349.009,1349.5079999999998,1349.5079999999998,1350.926,981.0,1350.926,4.0,1350.927,5.0,1.0,151.0,15.0,1.0,0.8,0.7,Time
,,S61,1,male,24,anonymized,Serial_Dependence_U,2023.2.3,MacIntel,27.77777777777778,,,,,,1350.927,29.0,5.0,1350.927,29.0,,,,1354.5209999999995,1355.022,1354.006,1354.5209999999995,1351.939,1354.006,1355.022,1355.522,1355.522,1357.6219999999998,1109.0,1357.6219999999998,4.0,1357.6219999999998,5.0,2.0,152.0,11.0,1.0,1.0,0.3,Time
,,S61,1,male,24,anonymized,Serial_Dependence_U,2023.2.3,MacIntel,27.77777777777778,,,,,,1357.623,114.0,5.0,1357.623,114.0,,,,1361.39,1361.8849999999998,1360.884,1361.39,1358.639,1360.884,1361.886,1362.3829999999998,1362.3829999999998,1364.101,1319.0,1364.101,4.0,1364.102,5.0,3.0,153.0,7.0,1.0,1.2,0.7,Time
,,S61,1,male,24,anonymized,Serial_Dependence_U,2023.2.3,MacIntel,27.77777777777778,,,,,,1364.102,49.0,5.0,1364.102,49.0,,,,1367.689,1368.179,1367.1819999999998,1367.689,1365.1079999999995,1367.1819999999998,1368.179,1368.667,1368.667,1370.433,1400.0,1370.433,5.0,1370.433,5.0,4.0,154.0,21.0,1.0,1.0,0.3,Time
,,S61,1,male,24,anonymized,Serial_Dependence_U,2023.2.3,MacIntel,27.77777777777778,,,,,,1370.4339999999995,145.0,5.0,1370.4339999999995,145.0,,,,1374.598,1375.089,1374.0859999999998,1374.598,1371.437,1374.0859999999998,1375.089,1375.5899999999997,1375.5899999999997,1377.908,1508.0,1377.908,2.0,1377.908,5.0,5.0,155.0,9.0,1.0,1.6,0.7,Time
,,S61,1,male,24,anonymized,Serial_Dependence_U,2023.2.3,MacIntel,27.77777777777778,,,,,,1377.909,261.0,5.0,1377.909,261.0,,,,1381.301,1381.7959999999998,1380.786,1381.301,1378.9209999999998,1380.786,1381.7959999999998,1382.293,1382.293,1383.8469999999998,1096.0,1383.8469999999998,5.0,1383.848,5.0,6.0,156.0,20.0,1.0,0.8,0.3,Time
,,S61,1,male,24,anonymized,Serial_Dependence_U,2023.2.3,MacIntel,27.77777777777778,,,,,,1383.848,23.0,5.0,1383.8489999999997,23.0,,,,1387.6200000000003,1388.1219999999998,1387.1079999999995,1387.6200000000003,1384.866,1387.107,1388.1219999999998,1388.611,1388.611,1390.6059999999998,1482.0,1390.6059999999998,4.0,1390.6059999999998,5.0,7.0,157.0,27.0,1.0,1.2,0.7,Time
,,S61,1,male,24,anonymized,Serial_Dependence_U,2023.2.3,MacIntel,27.77777777777778,,,,,,1390.6059999999998,300.0,5.0,1390.607,300.0,,,,1394.366,1394.851,1393.864,1394.366,1391.601,1393.864,1394.851,1395.346,1395.346,1397.0299999999995,1295.0,1397.0299999999995,4.0,1397.031,5.0,8.0,158.0,22.0,1.0,1.2,0.3,Time
,,S61,1,male,24,anonymized,Serial_Dependence_U,2023.2.3,MacIntel,27.77777777777778,,,,,,1397.031,327.0,5.0,1397.0319999999997,327.0,,,,1400.402,1400.889,1399.8849999999998,1400.402,1398.033,1399.8849999999998,1400.889,1401.379,1401.38,1402.85,1110.0,1402.85,5.0,1402.85,5.0,9.0,159.0,5.0,1.0,0.8,0.7,Time
,,S61,1,male,24,anonymized,Serial_Dependence_U,2023.2.3,MacIntel,27.77777777777778,,,,,,1402.851,347.0,5.0,1402.851,347.0,,,,1406.2089999999998,1406.6929999999998,1405.701,1406.2089999999998,1403.8539999999998,1405.701,1406.694,1407.1859999999997,1407.1859999999997,1408.6079999999995,976.0,1408.6079999999995,4.0,1408.609,5.0,10.0,160.0,25.0,1.0,0.8,0.7,Time
,,S61,1,male,24,anonymized,Serial_Dependence_U,2023.2.3,MacIntel,27.77777777777778,,,,,,1408.609,212.0,5.0,1408.609,212.0,,,,1412.6149999999998,1413.118,1412.105,1412.614,1409.632,1412.105,1413.118,1413.61,1413.61,1415.165,1211.0,1415.165,2.0,1415.1659999999997,5.0,11.0,161.0,23.0,1.0,1.4,0.3,Time
,,S61,1,male,24,anonymized,Serial_Dependence_U,2023.2.3,MacIntel,27.77777777777778,,,,,,1415.1659999999997,51.0,5.0,1415.1659999999997,51.0,,,,1419.134,1419.6369999999995,1418.627,1419.1329999999998,1416.159,1418.627,1419.6369999999995,1420.121,1420.121,1421.7709999999995,1217.0,1421.7709999999995,2.0,1421.772,5.0,12.0,162.0,3.0,1.0,1.4,0.3,Time
,,S61,1,male,24,anonymized,Serial_Dependence_U,2023.2.3,MacIntel,27.77777777777778,,,,,,1421.772,313.0,5.0,1421.772,313.0,,,,1425.1709999999998,1425.6709999999998,1424.654,1425.17,1422.777,1424.654,1425.6709999999998,1426.172,1426.172,1427.707,1021.0,1427.707,4.0,1427.708,5.0,13.0,163.0,10.0,1.0,0.8,0.3,Time
,,S61,1,male,24,anonymized,Serial_Dependence_U,2023.2.3,MacIntel,27.77777777777778,,,,,,1427.708,288.0,5.0,1427.708,288.0,,,,1431.4539999999995,1431.944,1430.953,1431.4539999999995,1428.705,1430.953,1431.944,1432.4319999999998,1432.4319999999998,1434.1529999999998,1310.0,1434.154,4.0,1434.154,5.0,14.0,164.0,17.0,1.0,1.2,0.7,Time
,,S61,1,male,24,anonymized,Serial_Dependence_U,2023.2.3,MacIntel,27.77777777777778,,,,,,1434.1549999999995,31.0,5.0,1434.1549999999995,31.0,,,,1437.7289999999998,1438.2199999999998,1437.214,1437.728,1435.179,1437.214,1438.2199999999998,1438.7219999999998,1438.7219999999998,1440.1859999999997,1043.0,1440.1859999999997,3.0,1440.187,5.0,15.0,165.0,6.0,1.0,1.0,0.7,Time
,,S61,1,male,24,anonymized,Serial_Dependence_U,2023.2.3,MacIntel,27.77777777777778,,,,,,1440.187,173.0,5.0,1440.187,173.0,,,,1443.9829999999995,1444.471,1443.478,1443.9829999999995,1441.1999999999998,1443.478,1444.471,1444.96,1444.96,1446.683,1330.0,1446.683,4.0,1446.683,5.0,16.0,166.0,2.0,1.0,1.2,0.3,Time
,,S61,1,male,24,anonymized,Serial_Dependence_U,2023.2.3,MacIntel,27.77777777777778,,,,,,1446.6839999999995,330.0,5.0,1446.6839999999995,330.0,,,,1450.4699999999998,1450.9699999999998,1449.9679999999998,1450.4699999999998,1447.688,1449.9679999999998,1450.9699999999998,1451.469,1451.4699999999998,1453.096,1223.0,1453.096,3.0,1453.096,5.0,17.0,167.0,12.0,1.0,1.2,0.3,Time
,,S61,1,male,24,anonymized,Serial_Dependence_U,2023.2.3,MacIntel,27.77777777777778,,,,,,1453.096,234.0,5.0,1453.096,234.0,,,,1456.656,1457.161,1456.147,1456.6549999999995,1454.102,1456.147,1457.161,1457.647,1457.647,1459.069,1073.0,1459.0699999999997,4.0,1459.0699999999997,5.0,18.0,168.0,16.0,1.0,1.0,0.7,Time
,,S61,1,male,24,anonymized,Serial_Dependence_U,2023.2.3,MacIntel,27.77777777777778,,,,,,1459.071,272.0,5.0,1459.071,272.0,,,,1463.2619999999995,1463.7529999999997,1462.757,1463.2619999999995,1460.087,1462.757,1463.7529999999997,1464.25,1464.25,1465.9299999999998,1199.0,1465.931,2.0,1465.931,5.0,19.0,169.0,14.0,1.0,1.6,0.3,Time
,,S61,1,male,24,anonymized,Serial_Dependence_U,2023.2.3,MacIntel,27.77777777777778,,,,,,1465.9319999999998,333.0,5.0,1465.9319999999998,333.0,,,,1469.315,1469.804,1468.813,1469.315,1466.938,1468.813,1469.804,1470.299,1470.299,1471.7329999999995,1025.0,1471.7329999999995,4.0,1471.734,5.0,20.0,170.0,0.0,1.0,0.8,0.3,Time
,,S61,1,male,24,anonymized,Serial_Dependence_U,2023.2.3,MacIntel,27.77777777777778,,,,,,1471.734,70.0,5.0,1471.734,70.0,,,,1475.6799999999998,1476.1799999999998,1475.1729999999998,1475.6799999999998,1472.7329999999995,1475.1729999999998,1476.1799999999998,1476.668,1476.668,1478.612,1472.0,1478.612,4.0,1478.6129999999998,5.0,21.0,171.0,8.0,1.0,1.4,0.7,Time
,,S61,1,male,24,anonymized,Serial_Dependence_U,2023.2.3,MacIntel,27.77777777777778,,,,,,1478.6129999999998,218.0,5.0,1478.6129999999998,218.0,,,,1482.569,1483.0609999999997,1482.054,1482.569,1479.609,1482.054,1483.0609999999997,1483.554,1483.554,1485.453,1325.0,1485.453,2.0,1485.4539999999995,5.0,22.0,172.0,28.0,1.0,1.4,0.7,Time
,,S61,1,male,24,anonymized,Serial_Dependence_U,2023.2.3,MacIntel,27.77777777777778,,,,,,1485.4539999999995,267.0,5.0,1485.455,267.0,,,,1489.4049999999995,1489.908,1488.9009999999998,1489.4049999999995,1486.4699999999998,1488.9,1489.908,1490.404,1490.404,1492.2019999999998,1311.0,1492.2019999999998,2.0,1492.2019999999998,5.0,23.0,173.0,18.0,1.0,1.4,0.7,Time
,,S61,1,male,24,anonymized,Serial_Dependence_U,2023.2.3,MacIntel,27.77777777777778,,,,,,1492.203,109.0,5.0,1492.203,109.0,,,,1495.768,1496.27,1495.2450000000003,1495.768,1493.203,1495.2450000000003,1496.27,1496.77,1496.77,1498.77,1284.0,1498.77,4.0,1498.7709999999995,5.0,24.0,174.0,26.0,1.0,1.0,0.7,Time
,,S61,1,male,24,anonymized,Serial_Dependence_U,2023.2.3,MacIntel,27.77777777777778,,,,,,1498.7709999999995,20.0,5.0,1498.772,20.0,,,,1502.352,1502.8489999999997,1501.846,1502.352,1499.768,1501.846,1502.8489999999997,1503.35,1503.35,1505.3829999999998,1423.0,1505.3829999999998,5.0,1505.3829999999998,5.0,25.0,175.0,1.0,1.0,1.0,0.3,Time
,,S61,1,male,24,anonymized,Serial_Dependence_U,2023.2.3,MacIntel,27.77777777777778,,,,,,1505.3829999999998,19.0,5.0,1505.384,19.0,,,,1509.542,1510.0369999999998,1509.0369999999998,1509.542,1506.3939999999998,1509.0369999999998,1510.0369999999998,1510.5299999999995,1510.5299999999995,1512.6129999999998,1448.0,1512.6129999999998,2.0,1512.6129999999998,5.0,26.0,176.0,29.0,1.0,1.6,0.7,Time
,,S61,1,male,24,anonymized,Serial_Dependence_U,2023.2.3,MacIntel,27.77777777777778,,,,,,1512.6129999999998,93.0,5.0,1512.614,93.0,,,,1516.7709999999995,1517.2599999999998,1516.268,1516.77,1513.621,1516.268,1517.2599999999998,1517.7529999999997,1517.7529999999997,1520.102,1764.0,1520.103,4.0,1520.103,5.0,27.0,177.0,19.0,1.0,1.6,0.7,Time
,,S61,1,male,24,anonymized,Serial_Dependence_U,2023.2.3,MacIntel,27.77777777777778,,,,,,1520.1039999999998,175.0,5.0,1520.1039999999998,175.0,,,,1524.087,1524.585,1523.5859999999998,1524.087,1521.1200000000003,1523.5859999999998,1524.585,1525.09,1525.09,1526.564,1115.0,1526.564,2.0,1526.564,5.0,28.0,178.0,13.0,1.0,1.4,0.3,Time
,,S61,1,male,24,anonymized,Serial_Dependence_U,2023.2.3,MacIntel,27.77777777777778,,,,,,1526.565,113.0,5.0,1526.565,113.0,,,,1530.7450000000003,1531.236,1530.228,1530.744,1527.562,1530.228,1531.236,1531.727,1531.727,1533.42,1311.0,1533.42,2.0,1533.4209999999998,5.0,29.0,179.0,4.0,1.0,1.6,0.3,Time
,,S61,1,male,24,anonymized,Serial_Dependence_U,2023.2.3,MacIntel,27.77777777777778,,,,,,1533.4209999999998,70.0,6.0,1600.485,70.0,s,67.04600000000005,,1603.8779999999997,1604.377,1603.361,1603.8779999999997,1601.4879999999998,1603.361,1604.377,1604.8759999999995,1604.8759999999995,1606.409,1155.0,1606.41,5.0,1606.41,6.0,0.0,180.0,20.0,1.0,0.8,0.3,Time
,,S61,1,male,24,anonymized,Serial_Dependence_U,2023.2.3,MacIntel,27.77777777777778,,,,,,1606.41,354.0,6.0,1606.4119999999998,354.0,,,,1610.598,1611.0969999999998,1610.08,1610.5969999999998,1607.413,1610.08,1611.0969999999998,1611.5969999999998,1611.5969999999998,1613.5479999999998,1448.0,1613.5479999999998,2.0,1613.5479999999998,6.0,1.0,181.0,14.0,1.0,1.6,0.3,Time
,,S61,1,male,24,anonymized,Serial_Dependence_U,2023.2.3,MacIntel,27.77777777777778,,,,,,1613.5479999999998,260.0,6.0,1613.5479999999998,260.0,,,,1616.937,1617.4359999999997,1616.4249999999995,1616.937,1614.5479999999998,1616.4249999999995,1617.4359999999997,1617.927,1617.927,1619.381,1026.0,1619.381,4.0,1619.382,6.0,2.0,182.0,10.0,1.0,0.8,0.3,Time
,,S61,1,male,24,anonymized,Serial_Dependence_U,2023.2.3,MacIntel,27.77777777777778,,,,,,1619.382,260.0,6.0,1619.382,260.0,,,,1622.9469999999997,1623.4469999999997,1622.431,1622.9469999999997,1620.398,1622.4299999999998,1623.4469999999997,1623.9469999999997,1623.9469999999997,1625.619,1130.0,1625.6200000000003,4.0,1625.6200000000003,6.0,3.0,183.0,6.0,1.0,1.0,0.7,Time
,,S61,1,male,24,anonymized,Serial_Dependence_U,2023.2.3,MacIntel,27.77777777777778,,,,,,1625.6200000000003,178.0,6.0,1625.6200000000003,178.0,,,,1629.413,1629.906,1628.902,1629.413,1626.629,1628.902,1629.906,1630.406,1630.406,1632.1369999999995,1116.0,1632.138,2.0,1632.138,6.0,4.0,184.0,2.0,1.0,1.2,0.3,Time
,,S61,1,male,24,anonymized,Serial_Dependence_U,2023.2.3,MacIntel,27.77777777777778,,,,,,1632.139,140.0,6.0,1632.139,140.0,,,,1635.911,1636.41,1635.4069999999997,1635.91,1633.143,1635.406,1636.41,1636.902,1636.902,1638.5679999999998,1279.0,1638.5679999999998,4.0,1638.5679999999998,6.0,5.0,185.0,12.0,1.0,1.2,0.3,Time
,,S61,1,male,24,anonymized,Serial_Dependence_U,2023.2.3,MacIntel,27.77777777777778,,,,,,1638.569,171.0,6.0,1638.569,171.0,,,,1642.725,1643.226,1642.2239999999997,1642.725,1639.585,1642.2239999999997,1643.226,1643.7309999999998,1643.7309999999998,1645.8649999999998,1274.0,1645.8649999999998,2.0,1645.866,6.0,6.0,186.0,9.0,1.0,1.6,0.7,Time
,,S61,1,male,24,anonymized,Serial_Dependence_U,2023.2.3,MacIntel,27.77777777777778,,,,,,1645.866,72.0,6.0,1645.866,72.0,,,,1649.4069999999997,1649.902,1648.8959999999995,1649.4069999999997,1646.864,1648.895,1649.9029999999998,1650.395,1650.395,1652.096,1247.0,1652.096,4.0,1652.0969999999998,6.0,7.0,187.0,16.0,1.0,1.0,0.7,Time
,,S61,1,male,24,anonymized,Serial_Dependence_U,2023.2.3,MacIntel,27.77777777777778,,,,,,1652.098,97.0,6.0,1652.098,97.0,,,,1655.4809999999998,1655.9679999999998,1654.969,1655.4809999999998,1653.1039999999998,1654.9679999999998,1655.9679999999998,1656.4629999999995,1656.4629999999995,1657.977,1054.0,1657.977,5.0,1657.977,6.0,8.0,188.0,0.0,1.0,0.8,0.3,Time
,,S61,1,male,24,anonymized,Serial_Dependence_U,2023.2.3,MacIntel,27.77777777777778,,,,,,1657.978,222.0,6.0,1657.978,222.0,,,,1661.942,1662.4299999999998,1661.435,1661.942,1658.9919999999995,1661.435,1662.4299999999998,1662.922,1662.922,1664.884,1475.0,1664.884,4.0,1664.8849999999998,6.0,9.0,189.0,28.0,1.0,1.4,0.7,Time
,,S61,1,male,24,anonymized,Serial_Dependence_U,2023.2.3,MacIntel,27.77777777777778,,,,,,1664.8849999999998,272.0,6.0,1664.8849999999998,272.0,,,,1669.051,1669.549,1668.5409999999997,1669.0499999999995,1665.9,1668.5409999999997,1669.549,1670.04,1670.0409999999997,1671.8629999999998,1402.0,1671.864,2.0,1671.864,6.0,10.0,190.0,29.0,1.0,1.6,0.7,Time
,,S61,1,male,24,anonymized,Serial_Dependence_U,2023.2.3,MacIntel,27.77777777777778,,,,,,1671.864,325.0,6.0,1671.8649999999998,325.0,,,,1675.2199999999998,1675.719,1674.706,1675.219,1672.8719999999998,1674.705,1675.719,1676.214,1676.214,1678.1169999999995,966.0,1678.1169999999995,4.0,1678.1169999999995,6.0,11.0,191.0,15.0,1.0,0.8,0.7,Time
,,S61,1,male,24,anonymized,Serial_Dependence_U,2023.2.3,MacIntel,27.77777777777778,,,,,,1678.118,274.0,6.0,1678.118,274.0,,,,1681.864,1682.36,1681.353,1681.8629999999998,1679.121,1681.352,1682.36,1682.864,1682.864,1684.485,1133.0,1684.486,2.0,1684.486,6.0,12.0,192.0,27.0,1.0,1.2,0.7,Time
,,S61,1,male,24,anonymized,Serial_Dependence_U,2023.2.3,MacIntel,27.77777777777778,,,,,,1684.486,257.0,6.0,1684.487,257.0,,,,1688.244,1688.7419999999995,1687.7379999999998,1688.243,1685.4989999999998,1687.737,1688.7419999999995,1689.239,1689.239,1690.801,1091.0,1690.801,2.0,1690.801,6.0,13.0,193.0,7.0,1.0,1.2,0.7,Time
,,S61,1,male,24,anonymized,Serial_Dependence_U,2023.2.3,MacIntel,27.77777777777778,,,,,,1690.802,223.0,6.0,1690.802,223.0,,,,1694.16,1694.6509999999998,1693.6509999999998,1694.16,1691.802,1693.6509999999998,1694.6509999999998,1695.15,1695.15,1696.801,1282.0,1696.802,5.0,1696.802,6.0,14.0,194.0,5.0,1.0,0.8,0.7,Time
,,S61,1,male,24,anonymized,Serial_Dependence_U,2023.2.3,MacIntel,27.77777777777778,,,,,,1696.803,320.0,6.0,1696.803,320.0,,,,1700.185,1700.689,1699.67,1700.185,1697.823,1699.67,1700.689,1701.185,1701.185,1702.4699999999998,868.0,1702.4699999999998,4.0,1702.471,6.0,15.0,195.0,25.0,1.0,0.8,0.7,Time
,,S61,1,male,24,anonymized,Serial_Dependence_U,2023.2.3,MacIntel,27.77777777777778,,,,,,1702.471,165.0,6.0,1702.471,165.0,,,,1706.6259999999995,1707.1149999999998,1706.1219999999998,1706.625,1703.475,1706.1219999999998,1707.1149999999998,1707.61,1707.61,1709.689,1568.0,1709.689,3.0,1709.69,6.0,16.0,196.0,19.0,1.0,1.6,0.7,Time
,,S61,1,male,24,anonymized,Serial_Dependence_U,2023.2.3,MacIntel,27.77777777777778,,,,,,1709.69,293.0,6.0,1709.69,293.0,,,,1713.652,1714.154,1713.149,1713.652,1710.687,1713.149,1714.154,1714.654,1714.654,1716.259,1248.0,1716.259,2.0,1716.2599999999998,6.0,17.0,197.0,3.0,1.0,1.4,0.3,Time
,,S61,1,male,24,anonymized,Serial_Dependence_U,2023.2.3,MacIntel,27.77777777777778,,,,,,1716.2599999999998,258.0,6.0,1716.2599999999998,258.0,,,,1719.785,1720.274,1719.283,1719.785,1717.252,1719.283,1720.274,1720.7619999999995,1720.7619999999995,1722.192,1086.0,1722.192,4.0,1722.1929999999998,6.0,18.0,198.0,26.0,1.0,1.0,0.7,Time
,,S61,1,male,24,anonymized,Serial_Dependence_U,2023.2.3,MacIntel,27.77777777777778,,,,,,1722.1929999999998,18.0,6.0,1722.194,18.0,,,,1725.774,1726.273,1725.2599999999998,1725.774,1723.194,1725.2599999999998,1726.274,1726.7709999999995,1726.7709999999995,1728.2909999999997,1086.0,1728.2909999999997,4.0,1728.2909999999997,6.0,19.0,199.0,21.0,1.0,1.0,0.3,Time
,,S61,1,male,24,anonymized,Serial_Dependence_U,2023.2.3,MacIntel,27.77777777777778,,,,,,1728.2909999999997,355.0,6.0,1728.292,355.0,,,,1732.469,1732.96,1731.967,1732.469,1729.304,1731.966,1732.96,1733.462,1733.462,1735.087,1242.0,1735.087,2.0,1735.087,6.0,20.0,200.0,24.0,1.0,1.6,0.3,Time
,,S61,1,male,24,anonymized,Serial_Dependence_U,2023.2.3,MacIntel,27.77777777777778,,,,,,1735.0879999999995,118.0,6.0,1735.0879999999995,118.0,,,,1738.84,1739.3289999999995,1738.328,1738.84,1736.0859999999998,1738.328,1739.3289999999995,1739.835,1739.835,1741.533,1265.0,1741.534,4.0,1741.534,6.0,21.0,201.0,17.0,1.0,1.2,0.7,Time
,,S61,1,male,24,anonymized,Serial_Dependence_U,2023.2.3,MacIntel,27.77777777777778,,,,,,1741.535,120.0,6.0,1741.535,120.0,,,,1745.114,1745.6129999999998,1744.598,1745.114,1742.535,1744.5969999999998,1745.614,1746.112,1746.112,1747.812,1307.0,1747.813,5.0,1747.813,6.0,22.0,202.0,1.0,1.0,1.0,0.3,Time
,,S61,1,male,24,anonymized,Serial_Dependence_U,2023.2.3,MacIntel,27.77777777777778,,,,,,1747.813,312.0,6.0,1747.813,312.0,,,,1751.393,1751.888,1750.884,1751.3919999999998,1748.812,1750.8829999999998,1751.888,1752.3919999999998,1752.3919999999998,1754.1749999999995,1420.0,1754.1749999999995,5.0,1754.1749999999995,6.0,23.0,203.0,11.0,1.0,1.0,0.3,Time
,,S61,1,male,24,anonymized,Serial_Dependence_U,2023.2.3,MacIntel,27.77777777777778,,,,,,1754.1749999999995,292.0,6.0,1754.1749999999995,292.0,,,,1758.168,1758.672,1757.658,1758.168,1755.1909999999998,1757.658,1758.672,1759.1619999999998,1759.1619999999998,1760.937,1360.0,1760.937,3.0,1760.938,6.0,24.0,204.0,13.0,1.0,1.4,0.3,Time
,,S61,1,male,24,anonymized,Serial_Dependence_U,2023.2.3,MacIntel,27.77777777777778,,,,,,1760.939,208.0,6.0,1760.939,208.0,,,,1764.743,1765.234,1764.2239999999997,1764.743,1761.9539999999995,1764.2239999999997,1765.234,1765.721,1765.721,1767.3739999999998,1301.0,1767.375,4.0,1767.375,6.0,25.0,205.0,22.0,1.0,1.2,0.3,Time
,,S61,1,male,24,anonymized,Serial_Dependence_U,2023.2.3,MacIntel,27.77777777777778,,,,,,1767.3759999999995,181.0,6.0,1767.3759999999995,181.0,,,,1771.551,1772.0499999999995,1771.0479999999998,1771.551,1768.3849999999998,1771.047,1772.0499999999995,1772.535,1772.535,1774.186,1283.0,1774.186,2.0,1774.187,6.0,26.0,206.0,4.0,1.0,1.6,0.3,Time
,,S61,1,male,24,anonymized,Serial_Dependence_U,2023.2.3,MacIntel,27.77777777777778,,,,,,1774.187,306.0,6.0,1774.187,306.0,,,,1778.165,1778.6509999999998,1777.652,1778.165,1775.2019999999998,1777.6509999999998,1778.6509999999998,1779.147,1779.147,1780.8489999999997,1268.0,1780.85,2.0,1780.85,6.0,27.0,207.0,8.0,1.0,1.4,0.7,Time
,,S61,1,male,24,anonymized,Serial_Dependence_U,2023.2.3,MacIntel,27.77777777777778,,,,,,1780.851,64.0,6.0,1780.852,64.0,,,,1784.844,1785.3429999999998,1784.3249999999998,1784.844,1781.855,1784.3249999999998,1785.3429999999998,1785.8429999999998,1785.8429999999998,1787.627,1318.0,1787.627,2.0,1787.627,6.0,28.0,208.0,23.0,1.0,1.4,0.3,Time
,,S61,1,male,24,anonymized,Serial_Dependence_U,2023.2.3,MacIntel,27.77777777777778,,,,,,1787.627,118.0,6.0,1787.6279999999997,118.0,,,,1791.571,1792.0659999999998,1791.065,1791.5699999999997,1788.6200000000003,1791.065,1792.067,1792.562,1792.562,1794.234,1189.0,1794.234,2.0,1794.235,6.0,29.0,209.0,18.0,1.0,1.4,0.7,Time
,,S61,1,male,24,anonymized,Serial_Dependence_U,2023.2.3,MacIntel,27.77777777777778,,,,,,1794.235,2.0,7.0,2064.353,2.0,s,270.098,,2067.904,2068.401,2067.401,2067.904,2065.366,2067.4,2068.401,2068.89,2068.89,2070.38,1072.0,2070.38,4.0,2070.381,7.0,0.0,210.0,26.0,1.0,1.0,0.7,Time
,,S61,1,male,24,anonymized,Serial_Dependence_U,2023.2.3,MacIntel,27.77777777777778,,,,,,2070.382,153.0,7.0,2070.386,153.0,,,,2073.781,2074.273,2073.264,2073.781,2071.39,2073.264,2074.273,2074.785,2074.785,2076.126,897.0,2076.126,4.0,2076.126,7.0,1.0,211.0,10.0,1.0,0.8,0.3,Time
,,S61,1,male,24,anonymized,Serial_Dependence_U,2023.2.3,MacIntel,27.77777777777778,,,,,,2076.127,295.0,7.0,2076.127,295.0,,,,2080.083,2080.587,2079.563,2080.083,2077.126,2079.563,2080.587,2081.077,2081.077,2082.74,1251.0,2082.74,2.0,2082.74,7.0,2.0,212.0,28.0,1.0,1.4,0.7,Time
,,S61,1,male,24,anonymized,Serial_Dependence_U,2023.2.3,MacIntel,27.77777777777778,,,,,,2082.741,285.0,7.0,2082.741,285.0,,,,2086.707,2087.199,2086.202,2086.707,2083.74,2086.202,2087.199,2087.699,2087.699,2089.035,953.0,2089.035,1.0,2089.035,7.0,3.0,213.0,3.0,1.0,1.4,0.3,Time
,,S61,1,male,24,anonymized,Serial_Dependence_U,2023.2.3,MacIntel,27.77777777777778,,,,,,2089.036,65.0,7.0,2089.036,65.0,,,,2092.767,2093.2580000000003,2092.266,2092.766,2090.035,2092.266,2093.2580000000003,2093.757,2093.757,2095.279,1141.0,2095.279,3.0,2095.279,7.0,4.0,214.0,7.0,1.0,1.2,0.7,Time
,,S61,1,male,24,anonymized,Serial_Dependence_U,2023.2.3,MacIntel,27.77777777777778,,,,,,2095.279,313.0,7.0,2095.279,313.0,,,,2099.231,2099.7290000000003,2098.73,2099.231,2096.296,2098.73,2099.7290000000003,2100.232,2100.232,2101.914,1279.0,2101.914,2.0,2101.914,7.0,5.0,215.0,8.0,1.0,1.4,0.7,Time
,,S61,1,male,24,anonymized,Serial_Dependence_U,2023.2.3,MacIntel,27.77777777777778,,,,,,2101.914,76.0,7.0,2101.914,76.0,,,,2105.28,2105.783,2104.778,2105.28,2102.916,2104.778,2105.783,2106.279,2106.279,2107.726,1052.0,2107.726,5.0,2107.726,7.0,6.0,216.0,20.0,1.0,0.8,0.3,Time
,,S61,1,male,24,anonymized,Serial_Dependence_U,2023.2.3,MacIntel,27.77777777777778,,,,,,2107.727,272.0,7.0,2107.727,272.0,,,,2111.87,2112.361,2111.366,2111.87,2108.732,2111.366,2112.361,2112.861,2112.861,2114.752,1488.0,2114.752,2.0,2114.753,7.0,7.0,217.0,29.0,1.0,1.6,0.7,Time
,,S61,1,male,24,anonymized,Serial_Dependence_U,2023.2.3,MacIntel,27.77777777777778,,,,,,2114.753,259.0,7.0,2114.754,259.0,,,,2118.936,2119.435,2118.42,2118.936,2115.751,2118.419,2119.435,2119.931,2119.931,2121.546,1188.0,2121.546,2.0,2121.546,7.0,8.0,218.0,14.0,1.0,1.6,0.3,Time
,,S61,1,male,24,anonymized,Serial_Dependence_U,2023.2.3,MacIntel,27.77777777777778,,,,,,2121.547,109.0,7.0,2121.547,109.0,,,,2124.906,2125.407,2124.402,2124.906,2122.56,2124.402,2125.407,2125.899,2125.899,2127.388,1101.0,2127.388,5.0,2127.388,7.0,9.0,219.0,25.0,1.0,0.8,0.7,Time
,,S61,1,male,24,anonymized,Serial_Dependence_U,2023.2.3,MacIntel,27.77777777777778,,,,,,2127.388,230.0,7.0,2127.388,230.0,,,,2130.773,2131.274,2130.261,2130.773,2128.398,2130.261,2131.274,2131.765,2131.765,2133.04,873.0,2133.04,4.0,2133.041,7.0,10.0,220.0,0.0,1.0,0.8,0.3,Time
,,S61,1,male,24,anonymized,Serial_Dependence_U,2023.2.3,MacIntel,27.77777777777778,,,,,,2133.041,239.0,7.0,2133.041,239.0,,,,2136.584,2137.079,2136.076,2136.584,2134.039,2136.076,2137.079,2137.582,2137.582,2139.187,1245.0,2139.188,4.0,2139.188,7.0,11.0,221.0,16.0,1.0,1.0,0.7,Time
,,S61,1,male,24,anonymized,Serial_Dependence_U,2023.2.3,MacIntel,27.77777777777778,,,,,,2139.188,344.0,7.0,2139.188,344.0,,,,2143.137,2143.637,2142.637,2143.137,2140.1910000000003,2142.637,2143.637,2144.129,2144.129,2145.6150000000007,1067.0,2145.6150000000007,2.0,2145.6150000000007,7.0,12.0,222.0,18.0,1.0,1.4,0.7,Time
,,S61,1,male,24,anonymized,Serial_Dependence_U,2023.2.3,MacIntel,27.77777777777778,,,,,,2145.6150000000007,148.0,7.0,2145.6150000000007,148.0,,,,2148.965,2149.461,2148.452,2148.964,2146.612,2148.452,2149.461,2149.955,2149.955,2151.26,957.0,2151.261,4.0,2151.261,7.0,13.0,223.0,15.0,1.0,0.8,0.7,Time
,,S61,1,male,24,anonymized,Serial_Dependence_U,2023.2.3,MacIntel,27.77777777777778,,,,,,2151.261,31.0,7.0,2151.261,31.0,,,,2155.044,2155.541,2154.527,2155.044,2152.256,2154.527,2155.541,2156.027,2156.027,2157.575,1198.0,2157.575,3.0,2157.575,7.0,14.0,224.0,2.0,1.0,1.2,0.3,Time
,,S61,1,male,24,anonymized,Serial_Dependence_U,2023.2.3,MacIntel,27.77777777777778,,,,,,2157.576,8.0,7.0,2157.576,8.0,,,,2161.155,2161.654,2160.647,2161.155,2158.577,2160.647,2161.654,2162.153,2162.153,2163.514,952.0,2163.514,3.0,2163.514,7.0,15.0,225.0,11.0,1.0,1.0,0.3,Time
,,S61,1,male,24,anonymized,Serial_Dependence_U,2023.2.3,MacIntel,27.77777777777778,,,,,,2163.515,115.0,7.0,2163.515,115.0,,,,2167.0950000000003,2167.586,2166.589,2167.0950000000003,2164.52,2166.589,2167.586,2168.075,2168.076,2169.466,963.0,2169.466,3.0,2169.467,7.0,16.0,226.0,1.0,1.0,1.0,0.3,Time
,,S61,1,male,24,anonymized,Serial_Dependence_U,2023.2.3,MacIntel,27.77777777777778,,,,,,2169.467,95.0,7.0,2169.467,95.0,,,,2173.204,2173.699,2172.701,2173.204,2170.4700000000003,2172.701,2173.699,2174.202,2174.202,2175.794,1138.0,2175.795,2.0,2175.795,7.0,17.0,227.0,17.0,1.0,1.2,0.7,Time
,,S61,1,male,24,anonymized,Serial_Dependence_U,2023.2.3,MacIntel,27.77777777777778,,,,,,2175.795,241.0,7.0,2175.795,241.0,,,,2179.952,2180.452,2179.435,2179.952,2176.79,2179.435,2180.452,2180.947,2180.947,2182.958,1476.0,2182.959,2.0,2182.959,7.0,18.0,228.0,19.0,1.0,1.6,0.7,Time
,,S61,1,male,24,anonymized,Serial_Dependence_U,2023.2.3,MacIntel,27.77777777777778,,,,,,2182.959,88.0,7.0,2182.96,88.0,,,,2186.719,2187.224,2186.204,2186.719,2183.962,2186.204,2187.224,2187.718,2187.718,2189.652,1519.0,2189.652,4.0,2189.652,7.0,19.0,229.0,27.0,1.0,1.2,0.7,Time
,,S61,1,male,24,anonymized,Serial_Dependence_U,2023.2.3,MacIntel,27.77777777777778,,,,,,2189.653,167.0,7.0,2189.653,167.0,,,,2193.004,2193.503,2192.492,2193.004,2190.654,2192.492,2193.503,2194.002,2194.002,2195.403,974.0,2195.403,4.0,2195.403,7.0,20.0,230.0,5.0,1.0,0.8,0.7,Time
,,S61,1,male,24,anonymized,Serial_Dependence_U,2023.2.3,MacIntel,27.77777777777778,,,,,,2195.404,125.0,7.0,2195.404,125.0,,,,2198.996,2199.486,2198.491,2198.996,2196.421,2198.491,2199.486,2199.986,2199.986,2201.293,990.0,2201.293,3.0,2201.293,7.0,21.0,231.0,21.0,1.0,1.0,0.3,Time
,,S61,1,male,24,anonymized,Serial_Dependence_U,2023.2.3,MacIntel,27.77777777777778,,,,,,2201.293,192.0,7.0,2201.293,192.0,,,,2205.486,2205.989,2204.985,2205.486,2202.304,2204.985,2205.989,2206.484,2206.485,2208.14,1281.0,2208.14,2.0,2208.141,7.0,22.0,232.0,24.0,1.0,1.6,0.3,Time
,,S61,1,male,24,anonymized,Serial_Dependence_U,2023.2.3,MacIntel,27.77777777777778,,,,,,2208.141,7.0,7.0,2208.141,7.0,,,,2212.298,2212.789,2211.796,2212.298,2209.148,2211.795,2212.789,2213.286,2213.286,2214.982,1253.0,2214.982,2.0,2214.982,7.0,23.0,233.0,9.0,1.0,1.6,0.7,Time
,,S61,1,male,24,anonymized,Serial_Dependence_U,2023.2.3,MacIntel,27.77777777777778,,,,,,2214.982,158.0,7.0,2214.983,158.0,,,,2219.175,2219.671,2218.659,2219.175,2215.994,2218.658,2219.671,2220.173,2220.173,2221.757,1221.0,2221.757,2.0,2221.7580000000003,7.0,24.0,234.0,4.0,1.0,1.6,0.3,Time
,,S61,1,male,24,anonymized,Serial_Dependence_U,2023.2.3,MacIntel,27.77777777777778,,,,,,2221.7580000000003,67.0,7.0,2221.7580000000003,67.0,,,,2225.528,2226.024,2225.027,2225.528,2222.755,2225.027,2226.024,2226.514,2226.514,2228.185,1257.0,2228.185,3.0,2228.185,7.0,25.0,235.0,22.0,1.0,1.2,0.3,Time
,,S61,1,male,24,anonymized,Serial_Dependence_U,2023.2.3,MacIntel,27.77777777777778,,,,,,2228.186,83.0,7.0,2228.186,83.0,,,,2231.967,2232.467,2231.451,2231.966,2229.187,2231.451,2232.467,2232.969,2232.969,2234.582,1174.0,2234.582,3.0,2234.582,7.0,26.0,236.0,12.0,1.0,1.2,0.3,Time
,,S61,1,male,24,anonymized,Serial_Dependence_U,2023.2.3,MacIntel,27.77777777777778,,,,,,2234.583,181.0,7.0,2234.583,181.0,,,,2238.557,2239.051,2238.053,2238.557,2235.586,2238.053,2239.051,2239.556,2239.556,2241.3,1315.0,2241.3,2.0,2241.3,7.0,27.0,237.0,23.0,1.0,1.4,0.3,Time
,,S61,1,male,24,anonymized,Serial_Dependence_U,2023.2.3,MacIntel,27.77777777777778,,,,,,2241.3,329.0,7.0,2241.3,329.0,,,,2245.283,2245.772,2244.771,2245.283,2242.305,2244.771,2245.772,2246.264,2246.264,2247.91,1226.0,2247.91,2.0,2247.91,7.0,28.0,238.0,13.0,1.0,1.4,0.3,Time
,,S61,1,male,24,anonymized,Serial_Dependence_U,2023.2.3,MacIntel,27.77777777777778,,,,,,2247.91,9.0,7.0,2247.91,9.0,,,,2251.453,2251.9500000000003,2250.936,2251.452,2248.902,2250.936,2251.9500000000003,2252.448,2252.448,2253.997,1136.0,2253.997,4.0,2253.997,7.0,29.0,239.0,6.0,1.0,1.0,0.7,Time
,,S61,1,male,24,anonymized,Serial_Dependence_U,2023.2.3,MacIntel,27.77777777777778,,,,,,2253.997,198.0,8.0,2255.69,198.0,s,1.6759999999999309,,2259.869,2260.378,2259.368,2259.869,2256.699,2259.368,2260.378,2260.875,2260.875,2262.516,1312.0,2262.516,2.0,2262.516,8.0,0.0,240.0,4.0,1.0,1.6,0.3,Time
,,S61,1,male,24,anonymized,Serial_Dependence_U,2023.2.3,MacIntel,27.77777777777778,,,,,,2262.517,205.0,8.0,2262.518,205.0,,,,2266.088,2266.577,2265.584,2266.088,2263.514,2265.584,2266.577,2267.071,2267.071,2268.465,1000.0,2268.465,3.0,2268.466,8.0,1.0,241.0,11.0,1.0,1.0,0.3,Time
,,S61,1,male,24,anonymized,Serial_Dependence_U,2023.2.3,MacIntel,27.77777777777778,,,,,,2268.466,105.0,8.0,2268.466,105.0,,,,2272.403,2272.892,2271.902,2272.403,2269.4700000000003,2271.902,2272.892,2273.398,2273.398,2275.221,1360.0,2275.221,3.0,2275.221,8.0,2.0,242.0,18.0,1.0,1.4,0.7,Time
,,S61,1,male,24,anonymized,Serial_Dependence_U,2023.2.3,MacIntel,27.77777777777778,,,,,,2275.222,347.0,8.0,2275.222,347.0,,,,2279.392,2279.88,2278.878,2279.392,2276.209,2278.878,2279.88,2280.378,2280.378,2282.3830000000003,1506.0,2282.384,2.0,2282.384,8.0,3.0,243.0,24.0,1.0,1.6,0.3,Time
,,S61,1,male,24,anonymized,Serial_Dependence_U,2023.2.3,MacIntel,27.77777777777778,,,,,,2282.384,80.0,8.0,2282.384,80.0,,,,2286.573,2287.059,2286.068,2286.573,2283.394,2286.067,2287.059,2287.559,2287.559,2289.112,1072.0,2289.112,1.0,2289.112,8.0,4.0,244.0,14.0,1.0,1.6,0.3,Time
,,S61,1,male,24,anonymized,Serial_Dependence_U,2023.2.3,MacIntel,27.77777777777778,,,,,,2289.112,302.0,8.0,2289.112,302.0,,,,2292.668,2293.172,2292.151,2292.668,2290.117,2292.151,2293.173,2293.677,2293.678,2295.183,1110.0,2295.183,4.0,2295.183,8.0,5.0,245.0,16.0,1.0,1.0,0.7,Time
,,S61,1,male,24,anonymized,Serial_Dependence_U,2023.2.3,MacIntel,27.77777777777778,,,,,,2295.183,24.0,8.0,2295.183,24.0,,,,2298.554,2299.048,2298.046,2298.553,2296.185,2298.046,2299.048,2299.547,2299.547,2300.936,970.0,2300.936,4.0,2300.936,8.0,6.0,246.0,20.0,1.0,0.8,0.3,Time
,,S61,1,male,24,anonymized,Serial_Dependence_U,2023.2.3,MacIntel,27.77777777777778,,,,,,2300.936,321.0,8.0,2300.936,321.0,,,,2304.509,2304.9990000000003,2304.0080000000003,2304.509,2301.933,2304.0080000000003,2305.0,2305.496,2305.496,2307.0750000000003,1129.0,2307.076,4.0,2307.076,8.0,7.0,247.0,1.0,1.0,1.0,0.3,Time
,,S61,1,male,24,anonymized,Serial_Dependence_U,2023.2.3,MacIntel,27.77777777777778,,,,,,2307.076,339.0,8.0,2307.076,339.0,,,,2310.4500000000003,2310.946,2309.949,2310.4500000000003,2308.086,2309.949,2310.946,2311.442,2311.442,2312.881,988.0,2312.882,4.0,2312.882,8.0,8.0,248.0,10.0,1.0,0.8,0.3,Time
,,S61,1,male,24,anonymized,Serial_Dependence_U,2023.2.3,MacIntel,27.77777777777778,,,,,,2312.882,37.0,8.0,2312.882,37.0,,,,2316.648,2317.16,2316.141,2316.648,2313.895,2316.141,2317.16,2317.65,2317.65,2319.346,1261.0,2319.346,4.0,2319.347,8.0,9.0,249.0,27.0,1.0,1.2,0.7,Time
,,S61,1,male,24,anonymized,Serial_Dependence_U,2023.2.3,MacIntel,27.77777777777778,,,,,,2319.347,120.0,8.0,2319.347,120.0,,,,2323.491,2323.969,2322.986,2323.491,2320.35,2322.986,2323.969,2324.473,2324.473,2326.501,1708.0,2326.501,4.0,2326.502,8.0,10.0,250.0,29.0,1.0,1.6,0.7,Time
,,S61,1,male,24,anonymized,Serial_Dependence_U,2023.2.3,MacIntel,27.77777777777778,,,,,,2326.502,359.0,8.0,2326.502,359.0,,,,2330.486,2330.976,2329.973,2330.486,2327.527,2329.972,2330.976,2331.471,2331.471,2333.341,1498.0,2333.341,4.0,2333.341,8.0,11.0,251.0,28.0,1.0,1.4,0.7,Time
,,S61,1,male,24,anonymized,Serial_Dependence_U,2023.2.3,MacIntel,27.77777777777778,,,,,,2333.341,250.0,8.0,2333.342,250.0,,,,2336.681,2337.176,2336.169,2336.681,2334.337,2336.168,2337.176,2337.676,2337.676,2339.211,1160.0,2339.211,5.0,2339.211,8.0,12.0,252.0,25.0,1.0,0.8,0.7,Time
,,S61,1,male,24,anonymized,Serial_Dependence_U,2023.2.3,MacIntel,27.77777777777778,,,,,,2339.211,152.0,8.0,2339.212,152.0,,,,2343.002,2343.501,2342.493,2343.002,2340.214,2342.493,2343.501,2344.001,2344.001,2345.642,1293.0,2345.642,4.0,2345.642,8.0,13.0,253.0,2.0,1.0,1.2,0.3,Time
,,S61,1,male,24,anonymized,Serial_Dependence_U,2023.2.3,MacIntel,27.77777777777778,,,,,,2345.642,85.0,8.0,2345.642,85.0,,,,2349.64,2350.141,2349.125,2349.64,2346.65,2349.125,2350.141,2350.634,2350.634,2352.195,1208.0,2352.195,2.0,2352.195,8.0,14.0,254.0,3.0,1.0,1.4,0.3,Time
,,S61,1,male,24,anonymized,Serial_Dependence_U,2023.2.3,MacIntel,27.77777777777778,,,,,,2352.196,321.0,8.0,2352.196,321.0,,,,2355.592,2356.091,2355.079,2355.592,2353.202,2355.079,2356.091,2356.582,2356.582,2357.632,742.0,2357.632,2.0,2357.632,8.0,15.0,255.0,0.0,1.0,0.8,0.3,Time
,,S61,1,male,24,anonymized,Serial_Dependence_U,2023.2.3,MacIntel,27.77777777777778,,,,,,2357.6330000000003,30.0,8.0,2357.6330000000003,30.0,,,,2360.9790000000003,2361.4700000000003,2360.474,2360.978,2358.626,2360.474,2361.4700000000003,2361.973,2361.973,2363.17,919.0,2363.17,4.0,2363.17,8.0,16.0,256.0,15.0,1.0,0.8,0.7,Time
,,S61,1,male,24,anonymized,Serial_Dependence_U,2023.2.3,MacIntel,27.77777777777778,,,,,,2363.1710000000003,279.0,8.0,2363.1710000000003,279.0,,,,2367.1620000000003,2367.661,2366.649,2367.1620000000003,2364.177,2366.649,2367.661,2368.156,2368.156,2369.676,1159.0,2369.676,2.0,2369.677,8.0,17.0,257.0,13.0,1.0,1.4,0.3,Time
,,S61,1,male,24,anonymized,Serial_Dependence_U,2023.2.3,MacIntel,27.77777777777778,,,,,,2369.677,340.0,8.0,2369.677,340.0,,,,2373.234,2373.737,2372.717,2373.234,2370.673,2372.717,2373.737,2374.233,2374.233,2375.79,1190.0,2375.79,4.0,2375.791,8.0,18.0,258.0,6.0,1.0,1.0,0.7,Time
,,S61,1,male,24,anonymized,Serial_Dependence_U,2023.2.3,MacIntel,27.77777777777778,,,,,,2375.791,131.0,8.0,2375.791,131.0,,,,2379.141,2379.634,2378.639,2379.141,2376.7960000000003,2378.639,2379.634,2380.1330000000003,2380.1330000000003,2381.505,997.0,2381.506,4.0,2381.506,8.0,19.0,259.0,5.0,1.0,0.8,0.7,Time
,,S61,1,male,24,anonymized,Serial_Dependence_U,2023.2.3,MacIntel,27.77777777777778,,,,,,2381.506,322.0,8.0,2381.506,322.0,,,,2385.687,2386.184,2385.165,2385.687,2382.52,2385.165,2386.184,2386.68,2386.68,2388.492,1475.0,2388.492,2.0,2388.492,8.0,20.0,260.0,9.0,1.0,1.6,0.7,Time
,,S61,1,male,24,anonymized,Serial_Dependence_U,2023.2.3,MacIntel,27.77777777777778,,,,,,2388.493,27.0,8.0,2388.493,27.0,,,,2392.079,2392.567,2391.579,2392.079,2389.4990000000003,2391.579,2392.567,2393.077,2393.077,2394.583,1185.0,2394.584,4.0,2394.584,8.0,21.0,261.0,21.0,1.0,1.0,0.3,Time
,,S61,1,male,24,anonymized,Serial_Dependence_U,2023.2.3,MacIntel,27.77777777777778,,,,,,2394.584,6.0,8.0,2394.584,6.0,,,,2398.738,2399.233,2398.223,2398.737,2395.586,2398.223,2399.233,2399.73,2399.73,2401.475,1436.0,2401.475,2.0,2401.476,8.0,22.0,262.0,19.0,1.0,1.6,0.7,Time
,,S61,1,male,24,anonymized,Serial_Dependence_U,2023.2.3,MacIntel,27.77777777777778,,,,,,2401.476,353.0,8.0,2401.476,353.0,,,,2405.252,2405.751,2404.7400000000007,2405.252,2402.477,2404.7400000000007,2405.751,2406.25,2406.25,2408.117,1549.0,2408.117,4.0,2408.117,8.0,23.0,263.0,12.0,1.0,1.2,0.3,Time
,,S61,1,male,24,anonymized,Serial_Dependence_U,2023.2.3,MacIntel,27.77777777777778,,,,,,2408.117,296.0,8.0,2408.117,296.0,,,,2411.904,2412.399,2411.384,2411.903,2409.137,2411.384,2412.399,2412.903,2412.903,2414.7580000000003,1450.0,2414.7580000000003,4.0,2414.7580000000003,8.0,24.0,264.0,17.0,1.0,1.2,0.7,Time
,,S61,1,male,24,anonymized,Serial_Dependence_U,2023.2.3,MacIntel,27.77777777777778,,,,,,2414.759,130.0,8.0,2414.759,130.0,,,,2418.708,2419.195,2418.201,2418.708,2415.753,2418.201,2419.195,2419.695,2419.695,2421.432,1409.0,2421.432,3.0,2421.433,8.0,25.0,265.0,8.0,1.0,1.4,0.7,Time
,,S61,1,male,24,anonymized,Serial_Dependence_U,2023.2.3,MacIntel,27.77777777777778,,,,,,2421.433,88.0,8.0,2421.433,88.0,,,,2424.998,2425.511,2424.485,2424.998,2422.438,2424.484,2425.511,2426.0,2426.0,2427.559,1241.0,2427.559,4.0,2427.559,8.0,26.0,266.0,26.0,1.0,1.0,0.7,Time
,,S61,1,male,24,anonymized,Serial_Dependence_U,2023.2.3,MacIntel,27.77777777777778,,,,,,2427.559,224.0,8.0,2427.56,224.0,,,,2431.5460000000003,2432.045,2431.04,2431.5460000000003,2428.571,2431.04,2432.045,2432.552,2432.552,2434.018,1103.0,2434.018,2.0,2434.018,8.0,27.0,267.0,23.0,1.0,1.4,0.3,Time
,,S61,1,male,24,anonymized,Serial_Dependence_U,2023.2.3,MacIntel,27.77777777777778,,,,,,2434.018,77.0,8.0,2434.019,77.0,,,,2437.793,2438.286,2437.2870000000003,2437.793,2435.02,2437.2870000000003,2438.2870000000003,2438.785,2438.785,2440.628,1460.0,2440.628,4.0,2440.628,8.0,28.0,268.0,22.0,1.0,1.2,0.3,Time
,,S61,1,male,24,anonymized,Serial_Dependence_U,2023.2.3,MacIntel,27.77777777777778,,,,,,2440.628,96.0,8.0,2440.628,96.0,,,,2444.382,2444.8830000000003,2443.8650000000007,2444.382,2441.628,2443.8650000000007,2444.8830000000003,2445.382,2445.382,2447.286,1424.0,2447.286,4.0,2447.286,8.0,29.0,269.0,7.0,1.0,1.2,0.7,Time
