Scale_setup.started,Scale_setup.stopped,participant,session,sex,age,date,expName,psychopyVersion,OS,frameRate,Intro.started,Intro.stopped,key_resp_2.keys,key_resp_2.rt,key_resp_2.duration,block.started,direction,Block_id,block.stopped,trial_direction,Block_resp_2.keys,Block_resp_2.rt,Block_resp_2.duration,ITI.started,ITI.stopped,Mask_2.started,Mask_2.stopped,encoding.started,encoding.stopped,Cue.started,Cue.stopped,Response.started,Response.stopped,keyDuration,Feedback_Time.started,FeedbackID_T,Feedback_Time.stopped,trials.thisRepN,trials.thisTrialN,trials.thisN,trials.thisIndex,trials.ran,TimeDur,Coherence1,TrialType
0.0002999999523183,0.0005000000000023,S62,1,female,22,anonymized,Serial_Dependence_U,2023.2.3,Win32,60.24096385542697,,,,,,,,,,,,,,,,,,,,,,,,,,,,,,,,,,,
,,S62,1,female,22,anonymized,Serial_Dependence_U,2023.2.3,Win32,60.24096385542697,77.33540000009538,83.08240000009536,space,5.7197000000476805,,,,,,,,,,,,,,,,,,,,,,,,,,,,,,,
,,S62,1,female,22,anonymized,Serial_Dependence_U,2023.2.3,Win32,60.24096385542697,,,,,,83.08779999995232,34.0,0.0,89.34390000009537,34.0,s,6.23590000009537,,93.10559999990464,93.6045,92.5917000000477,93.10540000009536,90.35020000004768,92.59159999990464,93.60479999995232,94.10420000004768,94.1042999999523,151.62609999990462,906.0,151.62640000009537,2.0,152.6222999999523,0.0,0.0,0.0,27.0,1.0,1.2,0.7,Time
,,S62,1,female,22,anonymized,Serial_Dependence_U,2023.2.3,Win32,60.24096385542697,,,,,,152.62270000004767,253.0,0.0,152.62540000009537,253.0,,,,155.98659999990463,156.48570000004767,155.4705,155.9865,153.6385,155.47040000009537,156.48570000004767,156.98520000004768,156.9852999999523,158.5677000000477,542.0,158.5677999999523,1.0,159.5665,0.0,1.0,1.0,15.0,1.0,0.8,0.7,Time
,,S62,1,female,22,anonymized,Serial_Dependence_U,2023.2.3,Win32,60.24096385542697,,,,,,159.56690000009536,238.0,0.0,159.56709999990463,238.0,,,,163.3637999999523,163.863,162.8475,163.3637000000477,160.58259999990463,162.84729999995233,163.86309999990462,164.3625,164.36259999990463,165.94490000009537,843.0,165.945,2.0,166.94370000004767,0.0,2.0,2.0,2.0,1.0,1.2,0.3,Time
,,S62,1,female,22,anonymized,Serial_Dependence_U,2023.2.3,Win32,60.24096385542697,,,,,,166.9442000000477,296.0,0.0,166.9442999999523,296.0,,,,170.70829999995232,171.20670000004768,170.1915,170.7082000000477,167.96009999990463,170.19140000009537,171.20679999995232,171.70640000009536,171.70659999990465,173.4057999999523,932.0,173.4057999999523,2.0,174.4042000000477,0.0,3.0,3.0,7.0,1.0,1.2,0.7,Time
,,S62,1,female,22,anonymized,Serial_Dependence_U,2023.2.3,Win32,60.24096385542697,,,,,,174.40470000004768,70.0,0.0,174.4047999999523,70.0,,,,178.20170000004768,178.70079999995232,177.68520000004767,178.20159999990463,175.4205,177.68509999990462,178.70079999995232,179.2002000000477,179.2002999999523,181.31570000004768,904.0,181.3157999999523,2.0,182.31440000009536,0.0,4.0,4.0,12.0,1.0,1.2,0.3,Time
,,S62,1,female,22,anonymized,Serial_Dependence_U,2023.2.3,Win32,60.24096385542697,,,,,,182.31479999995236,359.0,0.0,182.31490000009535,359.0,,,,186.07890000009536,186.578,185.56259999990465,186.0787999999523,183.3312999999523,185.56240000009535,186.57809999990465,187.0772000000477,187.07729999995232,188.6927999999523,970.0,188.69290000009536,2.0,189.69159999990464,0.0,5.0,5.0,17.0,1.0,1.2,0.7,Time
,,S62,1,female,22,anonymized,Serial_Dependence_U,2023.2.3,Win32,60.24096385542697,,,,,,189.692,124.0,0.0,189.69220000004768,124.0,,,,193.08990000009533,193.5882999999523,192.573,193.0897999999523,190.70809999990465,192.5727999999523,193.58840000009536,194.0882999999523,194.08840000009536,195.8697999999523,790.0,195.8697999999523,3.0,196.8692000000477,0.0,6.0,6.0,0.0,1.0,0.8,0.3,Time
,,S62,1,female,22,anonymized,Serial_Dependence_U,2023.2.3,Win32,60.24096385542697,,,,,,196.86959999990464,220.0,0.0,196.8697999999523,220.0,,,,200.6497000000477,201.14870000004768,200.13329999995236,200.6495999999046,197.869,200.13320000004768,201.14879999995236,201.64859999990463,201.64859999990463,203.1307000000477,889.0,203.1307000000477,2.0,204.12970000004768,0.0,7.0,7.0,22.0,1.0,1.2,0.3,Time
,,S62,1,female,22,anonymized,Serial_Dependence_U,2023.2.3,Win32,60.24096385542697,,,,,,204.13009999990464,56.0,0.0,204.1302999999523,56.0,,,,207.69359999990465,208.1932000000477,207.17829999995232,207.6935,205.14609999990464,207.17820000004767,208.1932999999523,208.6925,208.69259999990464,210.9577000000477,1105.0,210.9577000000477,4.0,211.95640000009536,0.0,8.0,8.0,16.0,1.0,1.0,0.7,Time
,,S62,1,female,22,anonymized,Serial_Dependence_U,2023.2.3,Win32,60.24096385542697,,,,,,211.95670000004768,124.0,0.0,211.957,124.0,,,,215.5372999999523,216.03629999995232,215.0209000000954,215.5372000000477,212.95679999995232,215.0207999999523,216.03640000009537,216.5365,216.5365999999046,219.35129999995232,1454.0,219.35129999995232,5.0,220.3495,0.0,9.0,9.0,11.0,1.0,1.0,0.3,Time
,,S62,1,female,22,anonymized,Serial_Dependence_U,2023.2.3,Win32,60.24096385542697,,,,,,220.3497999999523,246.0,0.0,220.34990000009532,246.0,,,,224.51309999990465,225.01209999990465,223.99679999995237,224.51309999990465,221.36579999995232,223.9967000000477,225.01220000004767,225.51229999995232,225.51229999995232,227.3107000000477,1101.0,227.3107999999523,1.0,228.30990000009535,0.0,10.0,10.0,29.0,1.0,1.6,0.7,Time
,,S62,1,female,22,anonymized,Serial_Dependence_U,2023.2.3,Win32,60.24096385542697,,,,,,228.31020000004767,222.0,0.0,228.31029999995232,222.0,,,,232.27370000004765,232.7725,231.758,232.2735999999046,229.32590000009532,231.75790000009533,232.7725,233.27240000009533,233.27240000009533,237.36920000004767,1016.0,237.36929999995223,2.0,238.36790000009532,0.0,11.0,11.0,8.0,1.0,1.4,0.7,Time
,,S62,1,female,22,anonymized,Serial_Dependence_U,2023.2.3,Win32,60.24096385542697,,,,,,238.36820000004764,169.0,0.0,238.3684000000953,169.0,,,,242.53209999990463,243.03090000009536,242.01540000009533,242.532,239.3840999999046,242.01529999995228,243.03099999999995,243.53099999999995,243.5310999999046,245.6627000000477,1525.0,245.6627999999523,3.0,246.66170000004763,0.0,12.0,12.0,9.0,1.0,1.6,0.7,Time
,,S62,1,female,22,anonymized,Serial_Dependence_U,2023.2.3,Win32,60.24096385542697,,,,,,246.66209999990463,21.0,0.0,246.66220000004768,21.0,,,,250.85879999995228,251.35720000004767,250.34220000004768,250.85870000004763,247.6770999999046,250.34220000004768,251.35720000004767,251.8569000000953,251.857,253.70540000009527,1194.0,253.70540000009527,2.0,254.70440000009532,0.0,13.0,13.0,24.0,1.0,1.6,0.3,Time
,,S62,1,female,22,anonymized,Serial_Dependence_U,2023.2.3,Win32,60.24096385542697,,,,,,254.70470000004764,289.0,0.0,254.70470000004764,289.0,,,,258.1024000000953,258.6019000000953,257.58670000004764,258.10229999995227,255.7210999999046,257.5865999999046,258.602,259.10120000004764,259.1012999999523,260.33370000004766,619.0,260.3337999999523,2.0,261.33220000004764,0.0,14.0,14.0,20.0,1.0,0.8,0.3,Time
,,S62,1,female,22,anonymized,Serial_Dependence_U,2023.2.3,Win32,60.24096385542697,,,,,,261.33259999990463,223.0,0.0,261.3327999999523,223.0,,,,265.3295999999046,265.8284000000953,264.8132999999523,265.3295,262.3484000000953,264.81320000004763,265.8285,266.3280999999046,266.3280999999046,267.6940999999046,784.0,267.6940999999046,1.0,268.6932999999523,0.0,15.0,15.0,3.0,1.0,1.4,0.3,Time
,,S62,1,female,22,anonymized,Serial_Dependence_U,2023.2.3,Win32,60.24096385542697,,,,,,268.69379999995226,219.0,0.0,268.694,219.0,,,,272.25690000009536,272.7560999999046,271.7412000000477,272.2567999999523,269.70899999999995,271.741,272.7560999999046,273.2557000000477,273.2557000000477,275.5872999999523,973.0,275.58740000009533,3.0,276.5864000000953,0.0,16.0,16.0,6.0,1.0,1.0,0.7,Time
,,S62,1,female,22,anonymized,Serial_Dependence_U,2023.2.3,Win32,60.24096385542697,,,,,,276.5867999999523,114.0,0.0,276.58720000004763,114.0,,,,280.7667999999523,281.26649999999995,280.2509000000953,280.76670000004765,277.5867999999523,280.2507999999523,281.26649999999995,281.7655999999046,281.7657000000477,283.58149999999995,1029.0,283.58149999999995,1.0,284.5797999999523,0.0,17.0,17.0,4.0,1.0,1.6,0.3,Time
,,S62,1,female,22,anonymized,Serial_Dependence_U,2023.2.3,Win32,60.24096385542697,,,,,,284.5802000000477,224.0,0.0,284.5804000000953,224.0,,,,288.5765999999046,289.0759000000953,288.06090000009533,288.57649999999995,285.59670000004763,288.06070000004763,289.0759000000953,289.5755999999046,289.5755999999046,291.22420000004763,970.0,291.22420000004763,1.0,292.22349999999994,0.0,18.0,18.0,13.0,1.0,1.4,0.3,Time
,,S62,1,female,22,anonymized,Serial_Dependence_U,2023.2.3,Win32,60.24096385542697,,,,,,292.22390000009534,136.0,0.0,292.2240999999046,136.0,,,,295.5875,296.087,295.0712999999523,295.58740000009533,293.2404000000953,295.0712999999523,296.0870999999046,296.5864000000953,296.5864000000953,298.00199999999995,634.0,298.0020999999046,2.0,299.0014000000953,0.0,19.0,19.0,5.0,1.0,0.8,0.7,Time
,,S62,1,female,22,anonymized,Serial_Dependence_U,2023.2.3,Win32,60.24096385542697,,,,,,299.00190000009536,66.0,0.0,299.00190000009536,66.0,,,,302.5990999999046,303.0980999999046,302.083,302.599,300.0170999999046,302.0829000000953,303.0980999999046,303.5974000000953,303.5974000000953,304.9465999999046,768.0,304.94670000004766,2.0,305.94540000009533,0.0,20.0,20.0,1.0,1.0,1.0,0.3,Time
,,S62,1,female,22,anonymized,Serial_Dependence_U,2023.2.3,Win32,60.24096385542697,,,,,,305.9457000000477,215.0,0.0,305.94579999995227,215.0,,,,310.1095999999046,310.6085,309.5930999999046,310.1095,306.96190000009534,309.5929000000953,310.6085,311.1082999999523,311.1082999999523,312.4740999999046,818.0,312.4740999999046,1.0,313.47270000004767,0.0,21.0,21.0,19.0,1.0,1.6,0.7,Time
,,S62,1,female,22,anonymized,Serial_Dependence_U,2023.2.3,Win32,60.24096385542697,,,,,,313.4730999999046,61.0,0.0,313.47320000004765,61.0,,,,317.06970000004765,317.5690999999046,316.5542000000477,317.06970000004765,314.4885999999046,316.5542000000477,317.5690999999046,318.0689000000953,318.0689000000953,320.6500999999046,1126.0,320.6500999999046,4.0,321.64920000004764,0.0,22.0,22.0,21.0,1.0,1.0,0.3,Time
,,S62,1,female,22,anonymized,Serial_Dependence_U,2023.2.3,Win32,60.24096385542697,,,,,,321.6495999999046,157.0,0.0,321.6497999999523,157.0,,,,325.613,326.11220000004766,325.0967999999523,325.6127999999523,322.66520000004766,325.09670000004763,326.11220000004766,326.6115,326.6115,327.9775999999046,771.0,327.97770000004766,1.0,328.9762999999523,0.0,23.0,23.0,28.0,1.0,1.4,0.7,Time
,,S62,1,female,22,anonymized,Serial_Dependence_U,2023.2.3,Win32,60.24096385542697,,,,,,328.9767999999523,69.0,0.0,328.977,69.0,,,,332.3407999999523,332.8399000000953,331.8244000000953,332.34070000004766,329.9925999999046,331.8242999999523,332.84,333.3395999999046,333.3395999999046,334.53870000004764,656.0,334.5387999999523,2.0,335.5375999999046,0.0,24.0,24.0,25.0,1.0,0.8,0.7,Time
,,S62,1,female,22,anonymized,Serial_Dependence_U,2023.2.3,Win32,60.24096385542697,,,,,,335.53799999999995,82.0,0.0,335.53820000004765,82.0,,,,338.9352999999523,339.43440000009537,338.419,338.93520000004764,336.5542000000477,338.41890000009533,339.43440000009537,339.9340999999046,339.9340999999046,341.1332000000477,616.0,341.13329999995227,2.0,342.13199999999995,0.0,25.0,25.0,10.0,1.0,0.8,0.3,Time
,,S62,1,female,22,anonymized,Serial_Dependence_U,2023.2.3,Win32,60.24096385542697,,,,,,342.1322999999523,348.0,0.0,342.13240000009534,348.0,,,,346.09570000004766,346.595,345.5795,346.09570000004766,343.1485999999046,345.5795,346.595,347.0947000000477,347.0947999999523,348.5107000000477,910.0,348.5107000000477,1.0,349.5095999999046,0.0,26.0,26.0,18.0,1.0,1.4,0.7,Time
,,S62,1,female,22,anonymized,Serial_Dependence_U,2023.2.3,Win32,60.24096385542697,,,,,,349.51,313.0,0.0,349.5100999999046,313.0,,,,353.0734000000953,353.5725,352.55770000004765,353.07329999995227,350.5257999999523,352.5575999999046,353.5725,354.07270000004763,354.0727999999523,355.3714000000953,734.0,355.3715,2.0,356.37040000009534,0.0,27.0,27.0,26.0,1.0,1.0,0.7,Time
,,S62,1,female,22,anonymized,Serial_Dependence_U,2023.2.3,Win32,60.24096385542697,,,,,,356.37090000009533,268.0,0.0,356.37109999990463,268.0,,,,360.36740000009536,360.8665,359.8510999999046,360.3672999999523,357.3867999999523,359.851,360.8665,361.3662000000477,361.3664000000953,363.0317000000477,1112.0,363.0317999999523,2.0,364.03070000004766,0.0,28.0,28.0,23.0,1.0,1.4,0.3,Time
,,S62,1,female,22,anonymized,Serial_Dependence_U,2023.2.3,Win32,60.24096385542697,,,,,,364.031,6.0,0.0,364.0312000000477,6.0,,,,368.2275,368.7267000000476,367.7115999999046,368.22729999995227,365.047,367.7115,368.7267000000476,369.2265999999046,369.2267999999523,370.97520000004766,1233.0,370.9752999999523,2.0,371.97390000009534,0.0,29.0,29.0,14.0,1.0,1.6,0.3,Time
,,S62,1,female,22,anonymized,Serial_Dependence_U,2023.2.3,Win32,60.24096385542697,,,,,,371.9742999999523,190.0,1.0,389.143,190.0,s,17.15759999990462,,392.90709999990463,393.4062999999523,392.3910999999046,392.907,390.1595,392.391,393.40640000009535,393.90590000009536,393.90590000009536,395.8379000000953,1560.0,395.8379000000953,5.0,395.8382999999523,1.0,0.0,30.0,7.0,1.0,1.2,0.7,Time
,,S62,1,female,22,anonymized,Serial_Dependence_U,2023.2.3,Win32,60.24096385542697,,,,,,395.8385999999046,213.0,1.0,395.84,213.0,,,,400.03459999990463,400.5337000000477,399.5185999999046,400.0345,396.8540999999046,399.5185,400.5337000000477,401.0335999999046,401.0335999999046,402.9155999999046,1207.0,402.9155999999046,2.0,402.916,1.0,1.0,31.0,14.0,1.0,1.6,0.3,Time
,,S62,1,female,22,anonymized,Serial_Dependence_U,2023.2.3,Win32,60.24096385542697,,,,,,402.9162999999523,352.0,1.0,402.9165,352.0,,,,406.3127000000477,406.8117999999523,405.7965,406.3125999999046,403.93170000004767,405.7962999999523,406.8117999999523,407.3114000000953,407.3114000000953,408.8437000000477,874.0,408.8437999999523,4.0,408.8440999999046,1.0,2.0,32.0,10.0,1.0,0.8,0.3,Time
,,S62,1,female,22,anonymized,Serial_Dependence_U,2023.2.3,Win32,60.24096385542697,,,,,,408.8444000000953,164.0,1.0,408.8444000000953,164.0,,,,412.60740000009537,413.10659999990463,412.0915,412.60729999995226,409.85970000004767,412.09140000009535,413.10659999990463,413.6060999999046,413.6062000000477,415.239,999.0,415.239,2.0,415.23929999995227,1.0,3.0,33.0,17.0,1.0,1.2,0.7,Time
,,S62,1,female,22,anonymized,Serial_Dependence_U,2023.2.3,Win32,60.24096385542697,,,,,,415.2395,244.0,1.0,415.2395999999046,244.0,,,,419.4357999999523,419.93420000004767,418.9189000000953,419.4357000000476,416.25440000009536,418.9187999999523,419.93420000004767,420.43470000004766,420.43470000004766,422.5665999999046,1314.0,422.56670000004766,2.0,422.567,1.0,4.0,34.0,4.0,1.0,1.6,0.3,Time
,,S62,1,female,22,anonymized,Serial_Dependence_U,2023.2.3,Win32,60.24096385542697,,,,,,422.5672999999523,170.0,1.0,422.56740000009535,170.0,,,,426.5627000000477,427.0622999999523,426.0467999999522,426.5625999999046,423.5817000000477,426.0467000000477,427.06240000009535,427.562,427.5620999999046,429.2267999999523,1126.0,429.2267999999523,2.0,429.227,1.0,5.0,35.0,23.0,1.0,1.4,0.3,Time
,,S62,1,female,22,anonymized,Serial_Dependence_U,2023.2.3,Win32,60.24096385542697,,,,,,429.2272000000477,283.0,1.0,429.22729999995227,283.0,,,,432.991,433.49,432.4745999999046,432.99090000009534,430.24290000009535,432.4745,433.49,433.9897999999523,433.98990000009536,435.8715999999046,1150.0,435.8715999999046,3.0,435.872,1.0,6.0,36.0,27.0,1.0,1.2,0.7,Time
,,S62,1,female,22,anonymized,Serial_Dependence_U,2023.2.3,Win32,60.24096385542697,,,,,,435.8722999999523,293.0,1.0,435.8725,293.0,,,,439.83570000004767,440.3345,439.3195999999046,439.8355999999046,436.8877000000476,439.31940000009536,440.3345,440.834,440.8340999999046,442.8487000000477,1276.0,442.8487000000477,2.0,442.8490999999046,1.0,7.0,37.0,18.0,1.0,1.4,0.7,Time
,,S62,1,female,22,anonymized,Serial_Dependence_U,2023.2.3,Win32,60.24096385542697,,,,,,442.8494000000953,92.0,1.0,442.8495,92.0,,,,446.41290000009536,446.91290000009536,445.8970999999046,446.4127999999523,443.8655999999046,445.8970999999046,446.91290000009536,447.4115,447.4115,448.9937000000477,862.0,448.9937999999523,2.0,448.994,1.0,8.0,38.0,6.0,1.0,1.0,0.7,Time
,,S62,1,female,22,anonymized,Serial_Dependence_U,2023.2.3,Win32,60.24096385542697,,,,,,448.99429999995226,105.0,1.0,448.9944000000953,105.0,,,,452.7912000000477,453.29,452.2752000000477,452.7910999999046,450.0102999999523,452.2750999999046,453.2900999999046,453.79020000004766,453.7902999999523,455.25559999990463,921.0,455.2557000000477,2.0,455.2559000000953,1.0,9.0,39.0,12.0,1.0,1.2,0.3,Time
,,S62,1,female,22,anonymized,Serial_Dependence_U,2023.2.3,Win32,60.24096385542697,,,,,,455.25629999995226,216.0,1.0,455.2565,216.0,,,,458.603,459.10229999995227,458.087,458.60279999995225,456.2555,458.087,459.10229999995227,459.6015,459.6017000000477,461.134,900.0,461.1340999999046,4.0,461.1344000000953,1.0,10.0,40.0,25.0,1.0,0.8,0.7,Time
,,S62,1,female,22,anonymized,Serial_Dependence_U,2023.2.3,Win32,60.24096385542697,,,,,,461.1347000000477,135.0,1.0,461.1347999999523,135.0,,,,464.5315,465.03079999995225,464.01559999990457,464.53140000009535,462.15059999990456,464.0155,465.03090000009536,465.53029999995226,465.53040000009537,467.01259999990464,831.0,467.0127000000476,3.0,467.0129999999999,1.0,11.0,41.0,20.0,1.0,0.8,0.3,Time
,,S62,1,female,22,anonymized,Serial_Dependence_U,2023.2.3,Win32,60.24096385542697,,,,,,467.0132999999523,151.0,1.0,467.0135,151.0,,,,470.5765999999046,471.0760999999046,470.06040000009534,470.5765,468.0289000000953,470.0602999999522,471.0762000000476,471.57499999999993,471.57509999990464,473.42409999990457,900.0,473.4242000000477,2.0,473.4245,1.0,12.0,42.0,16.0,1.0,1.0,0.7,Time
,,S62,1,female,22,anonymized,Serial_Dependence_U,2023.2.3,Win32,60.24096385542697,,,,,,473.42470000004766,298.0,1.0,473.42479999995226,298.0,,,,477.3877000000476,477.8865,476.87179999995226,477.38759999990464,474.4397999999522,476.87170000004767,477.8865,478.386,478.386,479.93470000004766,1054.0,479.93470000004766,2.0,479.93490000009535,1.0,13.0,43.0,28.0,1.0,1.4,0.7,Time
,,S62,1,female,22,anonymized,Serial_Dependence_U,2023.2.3,Win32,60.24096385542697,,,,,,479.9352999999522,326.0,1.0,479.93540000009534,326.0,,,,484.1152999999523,484.6149000000953,483.5992000000476,484.1152000000477,480.9514000000953,483.59909999990464,484.6149000000953,485.1142000000476,485.1142999999523,486.9294000000954,1089.0,486.9295,1.0,486.9297000000477,1.0,14.0,44.0,9.0,1.0,1.6,0.7,Time
,,S62,1,female,22,anonymized,Serial_Dependence_U,2023.2.3,Win32,60.24096385542697,,,,,,486.93,304.0,1.0,486.9300999999047,304.0,,,,490.9264000000954,491.4255,490.4097999999523,490.9264000000954,487.9452999999524,490.4097999999523,491.4255999999047,491.925,491.9252000000477,493.67359999990464,1190.0,493.67370000004775,2.0,493.674,1.0,15.0,45.0,13.0,1.0,1.4,0.3,Time
,,S62,1,female,22,anonymized,Serial_Dependence_U,2023.2.3,Win32,60.24096385542697,,,,,,493.6742000000477,244.0,1.0,493.6742999999523,244.0,,,,497.2715999999047,497.7704000000954,496.75490000009535,497.2715,494.6897999999523,496.7547999999524,497.7704000000954,498.26979999995234,498.26990000009545,500.152,1164.0,500.152,4.0,500.1522999999524,1.0,16.0,46.0,11.0,1.0,1.0,0.3,Time
,,S62,1,female,22,anonymized,Serial_Dependence_U,2023.2.3,Win32,60.24096385542697,,,,,,500.1527999999524,298.0,1.0,500.1530000000001,298.0,,,,504.14890000009535,504.6477999999524,503.6322000000477,504.14890000009535,501.16800000000006,503.6320999999047,504.6479000000954,505.1475999999047,505.1477000000477,507.3295,1257.0,507.3295999999047,2.0,507.3299000000954,1.0,17.0,47.0,3.0,1.0,1.4,0.3,Time
,,S62,1,female,22,anonymized,Serial_Dependence_U,2023.2.3,Win32,60.24096385542697,,,,,,507.3300999999047,106.0,1.0,507.3302000000477,106.0,,,,511.29270000004766,511.7917999999524,510.7772999999524,511.2925999999047,508.34520000004767,510.7770999999047,511.7917999999524,512.2915,512.2915,514.0569000000954,1172.0,514.0569000000954,2.0,514.0572000000477,1.0,18.0,48.0,8.0,1.0,1.4,0.7,Time
,,S62,1,female,22,anonymized,Serial_Dependence_U,2023.2.3,Win32,60.24096385542697,,,,,,514.0575000000001,106.0,1.0,514.0577999999524,106.0,,,,518.2202999999524,518.7197000000477,517.7042999999524,518.2202000000477,515.0730999999047,517.7042000000478,518.7197999999524,519.219,519.2190999999048,521.3510999999047,1446.0,521.3512000000478,2.0,521.3515000000001,1.0,19.0,49.0,19.0,1.0,1.6,0.7,Time
,,S62,1,female,22,anonymized,Serial_Dependence_U,2023.2.3,Win32,60.24096385542697,,,,,,521.3517000000478,346.0,1.0,521.3519000000955,346.0,,,,524.9144000000955,525.4142999999524,524.3987000000478,524.9144000000955,522.3672000000478,524.3985999999047,525.4142999999524,525.9132000000478,525.9132999999524,528.7450000000001,1156.0,528.7450000000001,4.0,528.7454000000954,1.0,20.0,50.0,26.0,1.0,1.0,0.7,Time
,,S62,1,female,22,anonymized,Serial_Dependence_U,2023.2.3,Win32,60.24096385542697,,,,,,528.7457999999524,168.0,1.0,528.7460000000001,168.0,,,,532.1422000000478,532.6417000000478,531.6265000000001,532.1420999999048,529.7612000000478,531.6262999999524,532.6417000000478,533.1412000000478,533.1412999999524,534.8730999999048,802.0,534.8730999999048,3.0,534.8732000000477,1.0,21.0,51.0,0.0,1.0,0.8,0.3,Time
,,S62,1,female,22,anonymized,Serial_Dependence_U,2023.2.3,Win32,60.24096385542697,,,,,,534.8735,217.0,1.0,534.8735,217.0,,,,539.0367999999524,539.5357000000478,538.5204000000955,539.0367000000477,535.8892000000478,538.5202999999524,539.5357000000478,540.0355000000001,540.0355999999047,542.1337999999524,1350.0,542.1337999999524,2.0,542.1340999999047,1.0,22.0,52.0,29.0,1.0,1.6,0.7,Time
,,S62,1,female,22,anonymized,Serial_Dependence_U,2023.2.3,Win32,60.24096385542697,,,,,,542.1345000000001,181.0,1.0,542.1345999999047,181.0,,,,545.4980999999048,545.9970999999047,544.9817000000478,545.498,543.1500000000001,544.9815999999047,545.9972000000478,546.4969000000955,546.4969000000955,548.0619000000954,964.0,548.0620000000001,4.0,548.0622000000478,1.0,23.0,53.0,15.0,1.0,0.8,0.7,Time
,,S62,1,female,22,anonymized,Serial_Dependence_U,2023.2.3,Win32,60.24096385542697,,,,,,548.0622999999524,217.0,1.0,548.0624000000954,217.0,,,,551.6590000000001,552.1587000000478,551.143,551.6589000000954,549.0780000000001,551.143,552.1587000000478,552.6582999999524,552.6585000000001,554.4237000000478,1039.0,554.4237999999524,3.0,554.4240999999047,1.0,24.0,54.0,1.0,1.0,1.0,0.3,Time
,,S62,1,female,22,anonymized,Serial_Dependence_U,2023.2.3,Win32,60.24096385542697,,,,,,554.4245999999047,359.0,1.0,554.4247000000478,359.0,,,,558.6207999999524,559.1190999999047,558.1044000000954,558.6207999999524,555.4397999999524,558.1042999999524,559.1190999999047,559.6192999999524,559.6192999999524,561.7342999999524,1144.0,561.7342999999524,2.0,561.7345999999047,1.0,25.0,55.0,24.0,1.0,1.6,0.3,Time
,,S62,1,female,22,anonymized,Serial_Dependence_U,2023.2.3,Win32,60.24096385542697,,,,,,561.7349000000954,80.0,1.0,561.7350999999047,80.0,,,,565.5315,566.0305000000001,565.0149000000955,565.5314000000955,562.7495999999047,565.0147999999524,566.0305000000001,566.5302000000478,566.5302999999524,568.6784000000955,1642.0,568.6785999999047,5.0,568.6787000000478,1.0,26.0,56.0,22.0,1.0,1.2,0.3,Time
,,S62,1,female,22,anonymized,Serial_Dependence_U,2023.2.3,Win32,60.24096385542697,,,,,,568.6790999999047,205.0,1.0,568.6790999999047,205.0,,,,572.4752999999524,572.9747999999524,571.9594000000955,572.4752000000477,569.6947000000478,571.9592999999523,572.9747999999524,573.4740999999048,573.4742000000477,575.4065,1317.0,575.4065999999048,4.0,575.4067999999525,1.0,27.0,57.0,2.0,1.0,1.2,0.3,Time
,,S62,1,female,22,anonymized,Serial_Dependence_U,2023.2.3,Win32,60.24096385542697,,,,,,575.4070999999047,280.0,1.0,575.4072000000477,280.0,,,,578.7707000000478,579.2695000000001,578.2542000000477,578.7707000000478,576.4222999999524,578.2542000000477,579.2695000000001,579.7687999999524,579.7689000000954,581.5010000000001,1352.0,581.5010999999047,5.0,581.5012999999524,1.0,28.0,58.0,5.0,1.0,0.8,0.7,Time
,,S62,1,female,22,anonymized,Serial_Dependence_U,2023.2.3,Win32,60.24096385542697,,,,,,581.5015999999047,121.0,1.0,581.5017999999524,121.0,,,,585.0985999999048,585.5977000000478,584.5825000000001,585.0985000000001,582.5175,584.5822999999524,585.5977999999524,586.0972000000478,586.0972000000478,587.7795000000001,1101.0,587.7795999999047,4.0,587.7797000000478,1.0,29.0,59.0,21.0,1.0,1.0,0.3,Time
,,S62,1,female,22,anonymized,Serial_Dependence_U,2023.2.3,Win32,60.24096385542697,,,,,,587.7799000000955,217.0,2.0,674.1572999999524,217.0,s,86.36859999990463,,677.5215999999048,678.0205999999047,677.0055000000001,677.5215000000001,675.1734000000954,677.0055000000001,678.0205999999047,678.5202999999524,678.5202999999524,680.7354000000954,859.0,680.7354000000954,4.0,680.7357000000478,2.0,0.0,60.0,25.0,1.0,0.8,0.7,Time
,,S62,1,female,22,anonymized,Serial_Dependence_U,2023.2.3,Win32,60.24096385542697,,,,,,680.7359000000954,321.0,2.0,680.7372000000478,321.0,,,,684.5322999999524,685.0315,684.0160999999047,684.5322999999524,681.7512999999524,684.0160999999047,685.0315,685.5310999999048,685.5310999999048,689.6947000000478,1125.0,689.6947000000478,2.0,689.695,2.0,1.0,61.0,2.0,1.0,1.2,0.3,Time
,,S62,1,female,22,anonymized,Serial_Dependence_U,2023.2.3,Win32,60.24096385542697,,,,,,689.6954000000954,56.0,2.0,689.6955,56.0,,,,693.6915999999047,694.1905999999047,693.1752000000478,693.6915999999047,690.7107000000477,693.1752000000478,694.1905999999047,694.6902000000478,694.6902999999525,698.3540999999047,1290.0,698.3542000000477,2.0,698.3544000000954,2.0,2.0,62.0,23.0,1.0,1.4,0.3,Time
,,S62,1,female,22,anonymized,Serial_Dependence_U,2023.2.3,Win32,60.24096385542697,,,,,,698.3547000000477,78.0,2.0,698.3549000000954,78.0,,,,701.7182999999524,702.2175000000001,701.2017999999524,701.7182000000478,699.3700999999047,701.2017000000478,702.2175000000001,702.7172000000478,702.7172999999524,704.8985999999047,854.0,704.8985999999047,4.0,704.8987999999524,2.0,3.0,63.0,15.0,1.0,0.8,0.7,Time
,,S62,1,female,22,anonymized,Serial_Dependence_U,2023.2.3,Win32,60.24096385542697,,,,,,704.8990000000001,136.0,2.0,704.8992000000478,136.0,,,,708.8957000000478,709.3952000000478,708.3797999999524,708.8955999999047,705.9145999999047,708.3797000000478,709.3952000000478,709.8945000000001,709.8945999999047,712.8755000000001,1407.0,712.8757000000478,3.0,712.8759000000955,2.0,4.0,64.0,3.0,1.0,1.4,0.3,Time
,,S62,1,female,22,anonymized,Serial_Dependence_U,2023.2.3,Win32,60.24096385542697,,,,,,712.8762000000478,32.0,2.0,712.8764000000955,32.0,,,,716.8390999999048,717.3382999999524,716.3230000000001,716.839,713.8915000000001,716.3229000000955,717.3382999999524,717.8379000000955,717.8380000000001,719.7029000000955,1208.0,719.7030000000001,2.0,719.7030999999047,2.0,5.0,65.0,8.0,1.0,1.4,0.7,Time
,,S62,1,female,22,anonymized,Serial_Dependence_U,2023.2.3,Win32,60.24096385542697,,,,,,719.7034000000955,224.0,2.0,719.7035000000001,224.0,,,,723.8995999999047,724.3990999999047,723.3835000000001,723.8995999999047,720.7190999999048,723.3832999999524,724.3990999999047,724.8985999999047,724.8985999999047,727.1804000000955,1388.0,727.1804000000955,2.0,727.1807000000478,2.0,6.0,66.0,24.0,1.0,1.6,0.3,Time
,,S62,1,female,22,anonymized,Serial_Dependence_U,2023.2.3,Win32,60.24096385542697,,,,,,727.181,5.0,2.0,727.181,5.0,,,,730.5445000000001,731.0437000000478,730.0284000000954,730.5442999999524,728.1967000000477,730.0284000000954,731.0437000000478,731.5430999999047,731.5430999999047,733.3085000000001,1083.0,733.3085999999047,5.0,733.3087000000478,2.0,7.0,67.0,5.0,1.0,0.8,0.7,Time
,,S62,1,female,22,anonymized,Serial_Dependence_U,2023.2.3,Win32,60.24096385542697,,,,,,733.3090000000001,248.0,2.0,733.3090000000001,248.0,,,,736.8725999999048,737.3717999999524,736.3562999999524,736.8725000000001,734.3245000000001,736.3562000000478,737.3717999999524,737.8714000000955,737.8714000000955,740.1365000000001,1163.0,740.1365999999048,4.0,740.1367999999524,2.0,8.0,68.0,16.0,1.0,1.0,0.7,Time
,,S62,1,female,22,anonymized,Serial_Dependence_U,2023.2.3,Win32,60.24096385542697,,,,,,740.1370999999048,239.0,2.0,740.1372999999523,239.0,,,,743.7334000000955,744.2325999999047,743.2175000000001,743.7334000000955,741.1522999999524,743.2174000000955,744.2325999999047,744.7320999999047,744.7322000000478,746.4644000000955,1294.0,746.4644000000955,4.0,746.4647000000477,2.0,9.0,69.0,11.0,1.0,1.0,0.3,Time
,,S62,1,female,22,anonymized,Serial_Dependence_U,2023.2.3,Win32,60.24096385542697,,,,,,746.465,303.0,2.0,746.4650999999047,303.0,,,,750.2617000000478,750.7607000000478,749.7455999999047,750.2615999999048,747.4805000000001,749.7455000000001,750.7607000000478,751.2602999999524,751.2602999999524,753.2917999999524,1517.0,753.2917999999524,4.0,753.2920999999047,2.0,10.0,70.0,22.0,1.0,1.2,0.3,Time
,,S62,1,female,22,anonymized,Serial_Dependence_U,2023.2.3,Win32,60.24096385542697,,,,,,753.2922999999524,90.0,2.0,753.2922999999524,90.0,,,,757.0557999999525,757.5552999999524,756.5400999999047,757.0557000000478,754.3080000000001,756.5400000000001,757.5552999999524,758.0545999999047,758.0545999999047,759.9032999999524,1157.0,759.9032999999524,3.0,759.9035999999047,2.0,11.0,71.0,17.0,1.0,1.2,0.7,Time
,,S62,1,female,22,anonymized,Serial_Dependence_U,2023.2.3,Win32,60.24096385542697,,,,,,759.9039000000954,316.0,2.0,759.9040000000001,316.0,,,,763.9000999999047,764.3995999999047,763.3839000000954,763.9000999999047,760.9192999999524,763.3837999999524,764.3995999999047,764.8989000000954,764.8989000000954,766.8809000000955,1560.0,766.8810000000001,4.0,766.8812999999524,2.0,12.0,72.0,13.0,1.0,1.4,0.3,Time
,,S62,1,female,22,anonymized,Serial_Dependence_U,2023.2.3,Win32,60.24096385542697,,,,,,766.8815999999047,258.0,2.0,766.8817999999524,258.0,,,,771.0775000000001,771.5767999999524,770.5617999999524,771.0774000000955,767.8965999999048,770.5617000000477,771.5767999999524,772.0760999999047,772.0762000000477,774.6242999999524,2028.0,774.6242999999524,4.0,774.6245999999047,2.0,13.0,73.0,14.0,1.0,1.6,0.3,Time
,,S62,1,female,22,anonymized,Serial_Dependence_U,2023.2.3,Win32,60.24096385542697,,,,,,774.6247999999524,271.0,2.0,774.6249000000954,271.0,,,,778.5880999999047,779.0874000000955,778.0714000000954,778.5880000000001,775.6402999999524,778.0714000000954,779.0875000000001,779.5867999999524,779.5867999999524,782.3180999999047,2007.0,782.3182000000478,5.0,782.3184000000955,2.0,14.0,74.0,28.0,1.0,1.4,0.7,Time
,,S62,1,female,22,anonymized,Serial_Dependence_U,2023.2.3,Win32,60.24096385542697,,,,,,782.3187000000478,220.0,2.0,782.3187999999524,220.0,,,,786.4814000000955,786.9804000000954,785.9652000000477,786.4814000000955,783.3340999999048,785.9650999999047,786.9804000000954,787.4807000000478,787.4807000000478,790.0782999999524,1998.0,790.0784000000955,4.0,790.0785999999047,2.0,15.0,75.0,29.0,1.0,1.6,0.7,Time
,,S62,1,female,22,anonymized,Serial_Dependence_U,2023.2.3,Win32,60.24096385542697,,,,,,790.0789000000955,273.0,2.0,790.0789000000955,273.0,,,,794.2417000000478,794.7409000000955,793.7257999999524,794.2415999999047,791.0940999999048,793.7257000000478,794.7409000000955,795.2404000000954,795.2405000000001,797.8055999999048,1891.0,797.8057000000478,4.0,797.8059000000954,2.0,16.0,76.0,9.0,1.0,1.6,0.7,Time
,,S62,1,female,22,anonymized,Serial_Dependence_U,2023.2.3,Win32,60.24096385542697,,,,,,797.8062000000477,347.0,2.0,797.8064000000954,347.0,,,,802.0020000000001,802.5010999999047,801.4857999999524,802.0019000000955,798.8210000000001,801.4857999999524,802.5010999999047,803.0007000000478,803.0007000000478,805.9485999999047,2046.0,805.9485999999047,4.0,805.9487000000478,2.0,17.0,77.0,4.0,1.0,1.6,0.3,Time
,,S62,1,female,22,anonymized,Serial_Dependence_U,2023.2.3,Win32,60.24096385542697,,,,,,805.9490000000001,339.0,2.0,805.9490000000001,339.0,,,,809.7457999999524,810.2452000000478,809.2295999999047,809.7457000000478,806.9645,809.2295,810.2452000000478,810.7442000000477,810.7442999999524,812.8597000000477,1393.0,812.8597000000477,4.0,812.8599000000954,2.0,18.0,78.0,12.0,1.0,1.2,0.3,Time
,,S62,1,female,22,anonymized,Serial_Dependence_U,2023.2.3,Win32,60.24096385542697,,,,,,812.8602000000478,295.0,2.0,812.8602999999524,295.0,,,,816.2570000000001,816.7559000000955,815.7409000000955,816.2569000000955,813.8755000000001,815.7409000000955,816.7559000000955,817.2557000000478,817.2557000000478,820.0200000000001,1192.0,820.0200999999047,5.0,820.0202999999524,2.0,19.0,79.0,20.0,1.0,0.8,0.3,Time
,,S62,1,female,22,anonymized,Serial_Dependence_U,2023.2.3,Win32,60.24096385542697,,,,,,820.0207000000478,48.0,2.0,820.0209000000955,48.0,,,,823.7842000000478,824.2830999999047,823.2677000000477,823.7842000000478,821.0362000000478,823.2675999999047,824.2830999999047,824.7829000000954,824.7829000000954,827.0475000000001,1656.0,827.0475000000001,5.0,827.0477999999524,2.0,20.0,80.0,27.0,1.0,1.2,0.7,Time
,,S62,1,female,22,anonymized,Serial_Dependence_U,2023.2.3,Win32,60.24096385542697,,,,,,827.0480999999047,213.0,2.0,827.0482000000478,213.0,,,,830.6449000000955,831.1437000000477,830.1290000000001,830.6449000000955,828.0635000000001,830.1287999999524,831.1437999999524,831.6435000000001,831.6435000000001,833.8087999999524,1403.0,833.8089000000955,5.0,833.8092000000478,2.0,21.0,81.0,21.0,1.0,1.0,0.3,Time
,,S62,1,female,22,anonymized,Serial_Dependence_U,2023.2.3,Win32,60.24096385542697,,,,,,833.8094000000955,354.0,2.0,833.8095000000001,354.0,,,,837.2057000000477,837.7050999999047,836.6897999999524,837.2057000000477,834.8245000000001,836.6897000000478,837.7050999999047,838.205,838.205,839.7539000000954,888.0,839.7539000000954,4.0,839.7542000000477,2.0,22.0,82.0,0.0,1.0,0.8,0.3,Time
,,S62,1,female,22,anonymized,Serial_Dependence_U,2023.2.3,Win32,60.24096385542697,,,,,,839.7545000000001,304.0,2.0,839.7547000000478,304.0,,,,843.3510999999047,843.8500999999047,842.8350999999047,843.3510000000001,840.7697999999524,842.835,843.8500999999047,844.3502000000477,844.3502000000477,846.0490000000001,986.0,846.0490000000001,3.0,846.0492999999524,2.0,23.0,83.0,1.0,1.0,1.0,0.3,Time
,,S62,1,female,22,anonymized,Serial_Dependence_U,2023.2.3,Win32,60.24096385542697,,,,,,846.0495000000001,42.0,2.0,846.0497000000478,42.0,,,,849.6124000000955,850.1115000000001,849.0967999999524,849.6124000000955,847.0649000000955,849.0967000000478,850.1115999999047,850.6112999999524,850.6112999999524,852.4600999999047,1214.0,852.4602000000477,4.0,852.4604000000954,2.0,24.0,84.0,26.0,1.0,1.0,0.7,Time
,,S62,1,female,22,anonymized,Serial_Dependence_U,2023.2.3,Win32,60.24096385542697,,,,,,852.4607999999524,290.0,2.0,852.4609000000954,290.0,,,,856.2235999999048,856.7227999999524,855.7077000000478,856.2234000000955,853.4760999999047,855.7075999999047,856.7227999999524,857.2222999999524,857.2224000000955,859.6707999999524,1702.0,859.6707999999524,5.0,859.6710999999048,2.0,25.0,85.0,7.0,1.0,1.2,0.7,Time
,,S62,1,female,22,anonymized,Serial_Dependence_U,2023.2.3,Win32,60.24096385542697,,,,,,859.6714000000954,90.0,2.0,859.6715,90.0,,,,863.0680999999047,863.5670999999047,862.5522999999524,863.0680000000001,860.6865999999047,862.5520999999047,863.5670999999047,864.0670999999047,864.0670999999047,865.5664000000954,759.0,865.5665000000001,2.0,865.5667999999524,2.0,26.0,86.0,10.0,1.0,0.8,0.3,Time
,,S62,1,female,22,anonymized,Serial_Dependence_U,2023.2.3,Win32,60.24096385542697,,,,,,865.5672999999524,68.0,2.0,865.5674000000954,68.0,,,,869.5292000000478,870.0284000000954,869.0130999999047,869.5292000000478,866.5822000000478,869.013,870.0284000000954,870.5282000000477,870.5282999999524,872.6100999999047,1310.0,872.6102000000478,2.0,872.6104000000954,2.0,27.0,87.0,18.0,1.0,1.4,0.7,Time
,,S62,1,female,22,anonymized,Serial_Dependence_U,2023.2.3,Win32,60.24096385542697,,,,,,872.6107000000478,251.0,2.0,872.6109000000954,251.0,,,,876.7734000000954,877.2724000000954,876.2569000000955,876.7732000000477,873.6260000000001,876.2569000000955,877.2724000000954,877.7722000000477,877.7722999999525,880.5870000000001,1697.0,880.5870000000001,4.0,880.5874000000955,2.0,28.0,88.0,19.0,1.0,1.6,0.7,Time
,,S62,1,female,22,anonymized,Serial_Dependence_U,2023.2.3,Win32,60.24096385542697,,,,,,880.5875999999047,330.0,2.0,880.5877999999524,330.0,,,,884.1505000000001,884.6495999999047,883.6342999999524,884.1504000000955,881.6025999999047,883.6342000000477,884.6495999999047,885.1492999999524,885.1494000000954,887.2642000000478,1502.0,887.2644000000954,5.0,887.2645000000001,2.0,29.0,89.0,6.0,1.0,1.0,0.7,Time
,,S62,1,female,22,anonymized,Serial_Dependence_U,2023.2.3,Win32,60.24096385542697,,,,,,887.2647999999524,246.0,3.0,933.6425999999047,246.0,s,46.35749999999996,,937.64,938.1385999999048,937.1232999999525,937.6399000000956,934.6587000000478,937.1232000000476,938.1385999999048,938.6389000000954,938.639,940.7705999999048,1540.0,940.7707000000478,4.0,940.771,3.0,0.0,90.0,13.0,1.0,1.4,0.3,Time
,,S62,1,female,22,anonymized,Serial_Dependence_U,2023.2.3,Win32,60.24096385542697,,,,,,940.7712000000478,244.0,3.0,940.7725999999049,244.0,,,,944.7342999999524,945.2329000000956,944.218,944.7342000000476,941.7867000000476,944.2179000000956,945.233,945.7329000000956,945.7329000000956,947.9814000000956,1681.0,947.9815,4.0,947.9817999999524,3.0,1.0,91.0,18.0,1.0,1.4,0.7,Time
,,S62,1,female,22,anonymized,Serial_Dependence_U,2023.2.3,Win32,60.24096385542697,,,,,,947.9820999999048,199.0,3.0,947.9822999999524,199.0,,,,951.5785999999048,952.0774000000956,951.0619000000954,951.5785,948.9975,951.0617999999524,952.0774000000956,952.5775999999048,952.5775999999048,954.7585999999048,1408.0,954.7587000000476,5.0,954.759,3.0,2.0,92.0,21.0,1.0,1.0,0.3,Time
,,S62,1,female,22,anonymized,Serial_Dependence_U,2023.2.3,Win32,60.24096385542697,,,,,,954.7592000000476,122.0,3.0,954.7592999999524,122.0,,,,958.9550999999047,959.4545999999048,958.4392000000478,958.9550999999047,955.7745999999048,958.4392000000478,959.4545999999048,959.9542000000478,959.9542000000478,962.2525,1772.0,962.2525,4.0,962.2529000000956,3.0,3.0,93.0,24.0,1.0,1.6,0.3,Time
,,S62,1,female,22,anonymized,Serial_Dependence_U,2023.2.3,Win32,60.24096385542697,,,,,,962.2532000000476,167.0,3.0,962.2534000000954,167.0,,,,965.6500999999048,966.1495,965.1337999999524,965.6500999999048,963.2689000000954,965.1335999999048,966.1495,966.6485999999048,966.6487000000478,968.1977000000478,956.0,968.1977000000478,4.0,968.198,3.0,4.0,94.0,20.0,1.0,0.8,0.3,Time
,,S62,1,female,22,anonymized,Serial_Dependence_U,2023.2.3,Win32,60.24096385542697,,,,,,968.1982000000478,125.0,3.0,968.1982999999524,125.0,,,,972.1615000000002,972.6609000000954,971.6450999999048,972.1612999999523,969.1975999999048,971.645,972.6609000000954,973.16,973.1600999999048,975.3249000000952,1571.0,975.3249000000952,4.0,975.3250999999048,3.0,5.0,95.0,28.0,1.0,1.4,0.7,Time
,,S62,1,female,22,anonymized,Serial_Dependence_U,2023.2.3,Win32,60.24096385542697,,,,,,975.3252999999524,128.0,3.0,975.3254000000954,128.0,,,,979.0887000000478,979.5880999999048,978.5727999999524,979.0885999999048,976.3407000000476,978.5727000000476,979.5880999999048,980.0877999999524,980.0877999999524,982.4690999999048,1757.0,982.4692000000476,5.0,982.4694000000954,3.0,6.0,96.0,7.0,1.0,1.2,0.7,Time
,,S62,1,female,22,anonymized,Serial_Dependence_U,2023.2.3,Win32,60.24096385542697,,,,,,982.469700000048,221.0,3.0,982.4699000000955,221.0,,,,986.033,986.532200000048,985.517,986.0329000000954,983.4852000000478,985.517,986.532200000048,987.0317000000476,987.0317000000476,989.0807999999524,1454.0,989.0809000000954,5.0,989.0812000000478,3.0,7.0,97.0,26.0,1.0,1.0,0.7,Time
,,S62,1,female,22,anonymized,Serial_Dependence_U,2023.2.3,Win32,60.24096385542697,,,,,,989.0814000000956,293.0,3.0,989.0815,293.0,,,,992.6775,993.1765999999049,992.1617999999524,992.6775,990.0969000000956,992.1615999999046,993.1765999999049,993.676200000048,993.6762999999524,995.8585999999048,1500.0,995.8587000000476,5.0,995.8590000000002,3.0,8.0,98.0,1.0,1.0,1.0,0.3,Time
,,S62,1,female,22,anonymized,Serial_Dependence_U,2023.2.3,Win32,60.24096385542697,,,,,,995.8592999999524,259.0,3.0,995.8592999999524,259.0,,,,1000.0545999999048,1000.5540999999048,999.5385,1000.0545999999048,996.874,999.5382999999524,1000.5540999999048,1001.0534000000956,1001.0534000000956,1003.5189000000956,1925.0,1003.5190999999048,4.0,1003.5194000000954,3.0,9.0,99.0,14.0,1.0,1.6,0.3,Time
,,S62,1,female,22,anonymized,Serial_Dependence_U,2023.2.3,Win32,60.24096385542697,,,,,,1003.5197999999524,256.0,3.0,1003.5199000000956,256.0,,,,1007.2989000000956,1007.7979000000956,1006.7829000000954,1007.2987999999524,1004.5184000000954,1006.7827000000476,1007.798,1008.298,1008.298,1010.8124000000956,1724.0,1010.8125,5.0,1010.813,3.0,10.0,100.0,2.0,1.0,1.2,0.3,Time
,,S62,1,female,22,anonymized,Serial_Dependence_U,2023.2.3,Win32,60.24096385542697,,,,,,1010.8132999999524,40.0,3.0,1010.8135,40.0,,,,1014.6095,1015.1085999999048,1014.093700000048,1014.6095,1011.8287999999524,1014.0935999999048,1015.1085999999048,1015.6079000000956,1015.6080000000002,1017.457,1415.0,1017.4572000000478,4.0,1017.4575,3.0,11.0,101.0,12.0,1.0,1.2,0.3,Time
,,S62,1,female,22,anonymized,Serial_Dependence_U,2023.2.3,Win32,60.24096385542697,,,,,,1017.4577999999524,288.0,3.0,1017.458,288.0,,,,1021.4537000000478,1021.953,1020.9377000000476,1021.4535999999048,1018.473200000048,1020.9375999999048,1021.953,1022.4525,1022.4527000000478,1024.6015,1514.0,1024.6015999999047,4.0,1024.6019000000954,3.0,12.0,102.0,23.0,1.0,1.4,0.3,Time
,,S62,1,female,22,anonymized,Serial_Dependence_U,2023.2.3,Win32,60.24096385542697,,,,,,1024.6022000000478,147.0,3.0,1024.6022999999525,147.0,,,,1027.965,1028.4647000000475,1027.4492000000478,1027.9649000000954,1025.6172999999524,1027.4490999999048,1028.4647999999524,1028.9642999999523,1028.9642999999523,1030.6959000000954,1244.0,1030.6959000000954,5.0,1030.6960999999046,3.0,13.0,103.0,5.0,1.0,0.8,0.7,Time
,,S62,1,female,22,anonymized,Serial_Dependence_U,2023.2.3,Win32,60.24096385542697,,,,,,1030.6962000000478,69.0,3.0,1030.6962999999523,69.0,,,,1034.2599000000955,1034.7592999999524,1033.7435999999047,1034.2599000000955,1031.7119000000955,1033.7435,1034.7594000000954,1035.2587000000478,1035.2587999999523,1037.5734000000955,1761.0,1037.5735000000002,5.0,1037.5737000000477,3.0,14.0,104.0,6.0,1.0,1.0,0.7,Time
,,S62,1,female,22,anonymized,Serial_Dependence_U,2023.2.3,Win32,60.24096385542697,,,,,,1037.5739000000954,4.0,3.0,1037.574,4.0,,,,1040.938,1041.4374000000955,1040.4217000000478,1040.9379000000954,1038.5899000000954,1040.4215999999046,1041.4374000000955,1041.9365,1041.9365,1043.8849000000955,1303.0,1043.8849000000955,5.0,1043.8852000000477,3.0,15.0,105.0,15.0,1.0,0.8,0.7,Time
,,S62,1,female,22,anonymized,Serial_Dependence_U,2023.2.3,Win32,60.24096385542697,,,,,,1043.8855,110.0,3.0,1043.8855999999048,110.0,,,,1047.8490000000002,1048.3477000000478,1047.3325999999047,1047.8487999999525,1044.9015999999046,1047.3325,1048.3477999999525,1048.847099999905,1048.847099999905,1051.362599999905,1915.0,1051.362700000048,5.0,1051.363,3.0,16.0,106.0,8.0,1.0,1.4,0.7,Time
,,S62,1,female,22,anonymized,Serial_Dependence_U,2023.2.3,Win32,60.24096385542697,,,,,,1051.3632000000478,94.0,3.0,1051.3634000000957,94.0,,,,1055.5262000000478,1056.0247999999524,1055.0092999999524,1055.5260999999048,1052.3785,1055.0092000000477,1056.0247999999524,1056.5242000000478,1056.5242999999523,1059.2225,1877.0,1059.2225999999048,4.0,1059.2230000000002,3.0,17.0,107.0,29.0,1.0,1.6,0.7,Time
,,S62,1,female,22,anonymized,Serial_Dependence_U,2023.2.3,Win32,60.24096385542697,,,,,,1059.2232999999524,54.0,3.0,1059.2234000000954,54.0,,,,1062.6207000000477,1063.1189000000954,1062.1032999999525,1062.6205999999047,1060.2387999999523,1062.1032000000478,1063.119,1063.6185999999047,1063.6185999999047,1065.4507000000478,1279.0,1065.4507999999523,5.0,1065.4509000000955,3.0,18.0,108.0,10.0,1.0,0.8,0.3,Time
,,S62,1,female,22,anonymized,Serial_Dependence_U,2023.2.3,Win32,60.24096385542697,,,,,,1065.4510999999047,102.0,3.0,1065.4512000000475,102.0,,,,1069.2145999999047,1069.7137000000478,1068.698599999905,1069.2144000000956,1066.4665999999047,1068.6985000000002,1069.7137000000478,1070.2130000000002,1070.2130000000002,1072.5284000000954,1658.0,1072.5284000000954,5.0,1072.5285999999048,3.0,19.0,109.0,27.0,1.0,1.2,0.7,Time
,,S62,1,female,22,anonymized,Serial_Dependence_U,2023.2.3,Win32,60.24096385542697,,,,,,1072.5287999999523,307.0,3.0,1072.5289000000955,307.0,,,,1075.8922999999525,1076.3912999999525,1075.3759000000955,1075.8922000000478,1073.544,1075.3757999999525,1076.3912999999525,1076.8910999999048,1076.8912000000478,1079.4055999999048,1837.0,1079.4055999999048,5.0,1079.4059000000957,3.0,20.0,110.0,25.0,1.0,0.8,0.7,Time
,,S62,1,female,22,anonymized,Serial_Dependence_U,2023.2.3,Win32,60.24096385542697,,,,,,1079.406200000048,94.0,3.0,1079.4062999999524,94.0,,,,1083.4025999999046,1083.902,1082.886099999905,1083.4025,1080.4222000000475,1082.886099999905,1083.9020999999047,1084.4012999999525,1084.4012999999525,1086.7162999999523,1595.0,1086.7164000000955,4.0,1086.7167000000477,3.0,21.0,111.0,3.0,1.0,1.4,0.3,Time
,,S62,1,female,22,anonymized,Serial_Dependence_U,2023.2.3,Win32,60.24096385542697,,,,,,1086.7169000000954,250.0,3.0,1086.7169000000954,250.0,,,,1090.5132999999523,1091.0125,1089.997700000048,1090.5132999999523,1087.7325999999048,1089.9975999999049,1091.0125,1091.512200000048,1091.512200000048,1093.727599999905,1581.0,1093.727599999905,5.0,1093.7277999999524,3.0,22.0,112.0,22.0,1.0,1.2,0.3,Time
,,S62,1,female,22,anonymized,Serial_Dependence_U,2023.2.3,Win32,60.24096385542697,,,,,,1093.7280999999048,224.0,3.0,1093.7280999999048,224.0,,,,1097.8909000000954,1098.3902000000478,1097.3747000000478,1097.8909000000954,1094.7432999999523,1097.3745999999048,1098.3902000000478,1098.8895999999047,1098.8895999999047,1101.237599999905,1852.0,1101.2377999999524,4.0,1101.238,3.0,23.0,113.0,19.0,1.0,1.6,0.7,Time
,,S62,1,female,22,anonymized,Serial_Dependence_U,2023.2.3,Win32,60.24096385542697,,,,,,1101.2384000000957,112.0,3.0,1101.2385000000002,112.0,,,,1105.4345999999048,1105.9332000000477,1104.9185999999047,1105.4345,1102.2540999999046,1104.9184000000955,1105.9332000000477,1106.4327999999523,1106.4327999999523,1108.648,1749.0,1108.6480999999046,4.0,1108.6484000000955,3.0,24.0,114.0,4.0,1.0,1.6,0.3,Time
,,S62,1,female,22,anonymized,Serial_Dependence_U,2023.2.3,Win32,60.24096385542697,,,,,,1108.6487000000477,326.0,3.0,1108.6487999999524,326.0,,,,1112.2459000000954,1112.7442999999523,1111.7297000000478,1112.2457999999524,1109.6639000000955,1111.7295999999046,1112.7442999999523,1113.2445,1113.2445999999047,1115.3592999999523,1507.0,1115.3594000000955,5.0,1115.3597000000475,3.0,25.0,115.0,11.0,1.0,1.0,0.3,Time
,,S62,1,female,22,anonymized,Serial_Dependence_U,2023.2.3,Win32,60.24096385542697,,,,,,1115.3599000000954,117.0,3.0,1115.3600999999046,117.0,,,,1118.7560999999048,1119.256,1118.2404000000954,1118.7560999999048,1116.3755,1118.2404000000954,1119.2560999999048,1119.7554000000955,1119.7554000000955,1121.6535999999048,1270.0,1121.6537000000478,5.0,1121.6537999999523,3.0,26.0,116.0,0.0,1.0,0.8,0.3,Time
,,S62,1,female,22,anonymized,Serial_Dependence_U,2023.2.3,Win32,60.24096385542697,,,,,,1121.654,123.0,3.0,1121.6542000000477,123.0,,,,1125.4179000000954,1125.9172000000478,1124.901700000048,1125.4179000000954,1122.6702000000478,1124.9015999999046,1125.9172999999523,1126.4162999999523,1126.4162999999523,1128.415099999905,1322.0,1128.415099999905,4.0,1128.4154000000954,3.0,27.0,117.0,17.0,1.0,1.2,0.7,Time
,,S62,1,female,22,anonymized,Serial_Dependence_U,2023.2.3,Win32,60.24096385542697,,,,,,1128.4157999999525,124.0,3.0,1128.4159000000957,124.0,,,,1131.9790999999047,1132.4777999999524,1131.4629000000955,1131.9789000000956,1129.4312000000475,1131.4627000000478,1132.4777999999524,1132.9780999999048,1132.9782000000478,1134.7099000000956,1169.0,1134.71,4.0,1134.7102999999524,3.0,28.0,118.0,16.0,1.0,1.0,0.7,Time
,,S62,1,female,22,anonymized,Serial_Dependence_U,2023.2.3,Win32,60.24096385542697,,,,,,1134.7104000000954,164.0,3.0,1134.7105,164.0,,,,1138.8732999999525,1139.3722999999525,1138.3572999999524,1138.8732999999525,1135.726,1138.3572000000477,1139.3724000000957,1139.8722999999525,1139.8722999999525,1141.6872000000478,1236.0,1141.6872999999523,2.0,1141.6875,3.0,29.0,119.0,9.0,1.0,1.6,0.7,Time
,,S62,1,female,22,anonymized,Serial_Dependence_U,2023.2.3,Win32,60.24096385542697,,,,,,1141.6877999999524,42.0,4.0,1167.3324000000955,42.0,s,25.635299999952395,,1170.8970000000002,1171.3957999999525,1170.3812999999525,1170.8969000000957,1168.3487999999525,1170.3812000000478,1171.3959000000957,1171.8957000000478,1171.8957000000478,1174.194099999905,1418.0,1174.194099999905,5.0,1174.1944000000954,4.0,0.0,120.0,6.0,1.0,1.0,0.7,Time
,,S62,1,female,22,anonymized,Serial_Dependence_U,2023.2.3,Win32,60.24096385542697,,,,,,1174.1947999999525,13.0,4.0,1174.1959000000954,13.0,,,,1177.9914000000954,1178.4904000000954,1177.4747000000475,1177.9912999999524,1175.2104000000954,1177.4745999999047,1178.4904000000954,1178.9897999999523,1178.9897999999523,1181.1710999999048,1593.0,1181.1710999999048,5.0,1181.1714000000954,4.0,1.0,121.0,22.0,1.0,1.2,0.3,Time
,,S62,1,female,22,anonymized,Serial_Dependence_U,2023.2.3,Win32,60.24096385542697,,,,,,1181.1717000000478,65.0,4.0,1181.1719000000955,65.0,,,,1185.3347999999523,1185.8340999999048,1184.8189000000957,1185.3347999999523,1182.1875,1184.8187999999525,1185.8340999999048,1186.3335000000002,1186.3335000000002,1188.6314000000957,1720.0,1188.6315000000002,4.0,1188.6317999999524,4.0,2.0,122.0,29.0,1.0,1.6,0.7,Time
,,S62,1,female,22,anonymized,Serial_Dependence_U,2023.2.3,Win32,60.24096385542697,,,,,,1188.632,275.0,4.0,1188.6320999999048,275.0,,,,1192.5952000000475,1193.0944000000954,1192.0797000000478,1192.5950999999047,1189.6479000000954,1192.0795,1193.0944000000954,1193.5939000000951,1193.594,1196.0592000000477,1982.0,1196.0592000000477,5.0,1196.0595,4.0,3.0,123.0,18.0,1.0,1.4,0.7,Time
,,S62,1,female,22,anonymized,Serial_Dependence_U,2023.2.3,Win32,60.24096385542697,,,,,,1196.0597000000478,92.0,4.0,1196.0597000000478,92.0,,,,1199.4235,1199.9225999999046,1198.9074000000955,1199.4235,1197.0747999999523,1198.9074000000955,1199.9225999999046,1200.4222999999524,1200.4224000000954,1202.1877999999524,1326.0,1202.1877999999524,5.0,1202.188,4.0,4.0,124.0,25.0,1.0,0.8,0.7,Time
,,S62,1,female,22,anonymized,Serial_Dependence_U,2023.2.3,Win32,60.24096385542697,,,,,,1202.1884000000955,169.0,4.0,1202.1884000000955,169.0,,,,1205.9510999999047,1206.4505,1205.4355999999048,1205.9510999999047,1203.2032999999524,1205.4355,1206.4505999999046,1206.9497999999523,1206.9497999999523,1209.4647999999524,2037.0,1209.4649000000954,5.0,1209.4650999999046,4.0,5.0,125.0,27.0,1.0,1.2,0.7,Time
,,S62,1,female,22,anonymized,Serial_Dependence_U,2023.2.3,Win32,60.24096385542697,,,,,,1209.4655,120.0,4.0,1209.4655999999047,120.0,,,,1213.4447000000478,1213.9444000000954,1212.9289000000954,1213.4445999999048,1210.4640000000002,1212.9287999999524,1213.9445,1214.4435999999048,1214.4435999999048,1216.9590999999048,1856.0,1216.9590999999048,5.0,1216.9594000000957,4.0,6.0,126.0,23.0,1.0,1.4,0.3,Time
,,S62,1,female,22,anonymized,Serial_Dependence_U,2023.2.3,Win32,60.24096385542697,,,,,,1216.959700000048,138.0,4.0,1216.959700000048,138.0,,,,1220.7222000000477,1221.2215,1220.2065,1220.722099999905,1217.9745999999047,1220.2062999999523,1221.2215,1221.7212000000477,1221.7212999999524,1225.0352999999525,1971.0,1225.0354000000957,5.0,1225.035700000048,4.0,7.0,127.0,7.0,1.0,1.2,0.7,Time
,,S62,1,female,22,anonymized,Serial_Dependence_U,2023.2.3,Win32,60.24096385542697,,,,,,1225.036,301.0,4.0,1225.0360999999048,301.0,,,,1228.3825000000002,1228.881599999905,1227.8660999999047,1228.3824000000957,1226.0347999999524,1227.866,1228.8817000000477,1229.3812999999525,1229.3814000000957,1231.5965999999048,1695.0,1231.5965999999048,5.0,1231.5969000000955,4.0,8.0,128.0,15.0,1.0,0.8,0.7,Time
,,S62,1,female,22,anonymized,Serial_Dependence_U,2023.2.3,Win32,60.24096385542697,,,,,,1231.5972000000477,133.0,4.0,1231.5972999999524,133.0,,,,1235.1769000000954,1235.676200000048,1234.661,1235.1767999999524,1232.5960999999047,1234.6609000000954,1235.676200000048,1236.1757999999525,1236.1759000000957,1238.640599999905,1783.0,1238.640599999905,5.0,1238.6407000000477,4.0,9.0,129.0,21.0,1.0,1.0,0.3,Time
,,S62,1,female,22,anonymized,Serial_Dependence_U,2023.2.3,Win32,60.24096385542697,,,,,,1238.6409000000954,264.0,4.0,1238.6409000000954,264.0,,,,1242.8379000000955,1243.3360999999047,1242.3215999999047,1242.8377999999525,1239.6567000000475,1242.3214000000955,1243.3360999999047,1243.8362999999524,1243.8362999999524,1246.6509000000954,2064.0,1246.651,4.0,1246.6512999999525,4.0,10.0,130.0,14.0,1.0,1.6,0.3,Time
,,S62,1,female,22,anonymized,Serial_Dependence_U,2023.2.3,Win32,60.24096385542697,,,,,,1246.651700000048,301.0,4.0,1246.6517999999523,301.0,,,,1250.0484000000954,1250.5467999999523,1249.5322999999523,1250.0482999999524,1247.6669000000954,1249.5322999999523,1250.5469000000955,1251.0467000000478,1251.0467999999523,1253.5282000000475,1625.0,1253.5282999999524,5.0,1253.5285,4.0,11.0,131.0,10.0,1.0,0.8,0.3,Time
,,S62,1,female,22,anonymized,Serial_Dependence_U,2023.2.3,Win32,60.24096385542697,,,,,,1253.5287999999523,289.0,4.0,1253.5287999999523,289.0,,,,1257.2920999999046,1257.7914000000956,1256.7762000000478,1257.292,1254.5447000000477,1256.7760999999048,1257.7915,1258.2907000000478,1258.2907000000478,1260.4897999999523,1560.0,1260.4899000000955,5.0,1260.4902000000477,4.0,12.0,132.0,17.0,1.0,1.2,0.7,Time
,,S62,1,female,22,anonymized,Serial_Dependence_U,2023.2.3,Win32,60.24096385542697,,,,,,1260.4902999999524,65.0,4.0,1260.4904000000954,65.0,,,,1264.6520999999047,1265.152,1264.1365999999048,1264.652,1261.5054000000955,1264.1365,1265.152,1265.6512999999525,1265.6514000000957,1268.4327000000478,2049.0,1268.4327999999523,4.0,1268.433,4.0,13.0,133.0,19.0,1.0,1.6,0.7,Time
,,S62,1,female,22,anonymized,Serial_Dependence_U,2023.2.3,Win32,60.24096385542697,,,,,,1268.4334000000954,242.0,4.0,1268.4335,242.0,,,,1272.3965,1272.8955,1271.8804000000955,1272.3965,1269.4487999999524,1271.8802000000478,1272.8955,1273.3947000000478,1273.3947000000478,1276.1267000000478,2196.0,1276.1267000000478,5.0,1276.1270000000002,4.0,14.0,134.0,28.0,1.0,1.4,0.7,Time
,,S62,1,female,22,anonymized,Serial_Dependence_U,2023.2.3,Win32,60.24096385542697,,,,,,1276.1272999999524,222.0,4.0,1276.1272999999524,222.0,,,,1280.1230999999048,1280.6222000000478,1279.6074000000954,1280.1229000000951,1277.1422000000478,1279.6072999999524,1280.6222000000478,1281.122,1281.1220999999048,1284.103,2282.0,1284.103,5.0,1284.1032999999525,4.0,15.0,135.0,13.0,1.0,1.4,0.3,Time
,,S62,1,female,22,anonymized,Serial_Dependence_U,2023.2.3,Win32,60.24096385542697,,,,,,1284.1035999999046,13.0,4.0,1284.103700000048,13.0,,,,1288.2997999999525,1288.7992999999524,1287.7834000000955,1288.2997000000478,1285.1185999999047,1287.7832999999523,1288.7992999999524,1289.2984000000954,1289.2985,1292.0462000000475,2239.0,1292.0462000000475,5.0,1292.0464000000954,4.0,16.0,136.0,24.0,1.0,1.6,0.3,Time
,,S62,1,female,22,anonymized,Serial_Dependence_U,2023.2.3,Win32,60.24096385542697,,,,,,1292.0467000000478,120.0,4.0,1292.0467999999523,120.0,,,,1295.4437000000478,1295.9429000000955,1294.9275,1295.4437000000478,1293.0625,1294.9272999999523,1295.9429000000955,1296.4422999999524,1296.4424000000954,1298.7737999999524,1525.0,1298.7737999999524,5.0,1298.774,4.0,17.0,137.0,20.0,1.0,0.8,0.3,Time
,,S62,1,female,22,anonymized,Serial_Dependence_U,2023.2.3,Win32,60.24096385542697,,,,,,1298.7742999999523,216.0,4.0,1298.7742999999523,216.0,,,,1302.3384000000954,1302.8374000000954,1301.822,1302.3384000000954,1299.7905,1301.8217999999524,1302.8374000000954,1303.3369000000955,1303.337,1305.718700000048,1688.0,1305.718700000048,5.0,1305.7190999999048,4.0,18.0,138.0,26.0,1.0,1.0,0.7,Time
,,S62,1,female,22,anonymized,Serial_Dependence_U,2023.2.3,Win32,60.24096385542697,,,,,,1305.7194000000954,118.0,4.0,1305.7195999999046,118.0,,,,1309.0824000000955,1309.5814000000955,1308.5665999999046,1309.0822999999525,1306.7347000000475,1308.5665,1309.5814000000955,1310.0810999999046,1310.0812000000478,1311.8134000000955,1263.0,1311.8134000000955,5.0,1311.813599999905,4.0,19.0,139.0,5.0,1.0,0.8,0.7,Time
,,S62,1,female,22,anonymized,Serial_Dependence_U,2023.2.3,Win32,60.24096385542697,,,,,,1311.8137999999524,319.0,4.0,1311.8139000000954,319.0,,,,1315.9767999999524,1316.476,1315.4607999999523,1315.9767000000477,1312.8292999999524,1315.4607000000478,1316.4760999999048,1316.9755999999047,1316.9757000000477,1319.5572000000475,2040.0,1319.5572000000475,4.0,1319.5575,4.0,20.0,140.0,9.0,1.0,1.6,0.7,Time
,,S62,1,female,22,anonymized,Serial_Dependence_U,2023.2.3,Win32,60.24096385542697,,,,,,1319.5577999999523,88.0,4.0,1319.5577999999523,88.0,,,,1323.5207999999525,1324.0195999999048,1323.0040999999046,1323.5207000000478,1320.573,1323.0040999999046,1324.0195999999048,1324.5195999999048,1324.5195999999048,1326.7512999999524,1710.0,1326.7512999999524,4.0,1326.7515999999048,4.0,21.0,141.0,8.0,1.0,1.4,0.7,Time
,,S62,1,female,22,anonymized,Serial_Dependence_U,2023.2.3,Win32,60.24096385542697,,,,,,1326.7517999999525,42.0,4.0,1326.7519000000957,42.0,,,,1330.1487000000477,1330.6472999999523,1329.6325000000002,1330.1485999999047,1327.7667999999524,1329.6325000000002,1330.6472999999523,1331.1472999999523,1331.1475,1332.6627000000478,984.0,1332.6627999999523,4.0,1332.6630999999047,4.0,22.0,142.0,0.0,1.0,0.8,0.3,Time
,,S62,1,female,22,anonymized,Serial_Dependence_U,2023.2.3,Win32,60.24096385542697,,,,,,1332.6634000000954,12.0,4.0,1332.6635,12.0,,,,1336.4602000000475,1336.9587999999524,1335.9435,1336.4600999999047,1333.6785,1335.9432999999524,1336.9587999999524,1337.4582000000478,1337.4582999999525,1339.7897000000478,1769.0,1339.7897000000478,5.0,1339.7900000000002,4.0,23.0,143.0,12.0,1.0,1.2,0.3,Time
,,S62,1,female,22,anonymized,Serial_Dependence_U,2023.2.3,Win32,60.24096385542697,,,,,,1339.7902000000477,287.0,4.0,1339.7902999999524,287.0,,,,1343.5875999999048,1344.0862999999524,1343.0714000000955,1343.5875,1340.8065,1343.0712999999523,1344.0862999999524,1344.586,1344.5860999999047,1346.7672999999525,1858.0,1346.7672999999525,5.0,1346.7675000000002,4.0,24.0,144.0,2.0,1.0,1.2,0.3,Time
,,S62,1,female,22,anonymized,Serial_Dependence_U,2023.2.3,Win32,60.24096385542697,,,,,,1346.767700000048,99.0,4.0,1346.7677999999523,99.0,,,,1350.3650999999047,1350.8640999999047,1349.8485999999048,1350.365,1347.7840999999048,1349.8485,1350.8640999999047,1351.3637999999523,1351.3637999999523,1353.5617000000475,1868.0,1353.5617999999524,5.0,1353.562,4.0,25.0,145.0,1.0,1.0,1.0,0.3,Time
,,S62,1,female,22,anonymized,Serial_Dependence_U,2023.2.3,Win32,60.24096385542697,,,,,,1353.5622999999523,294.0,4.0,1353.5624000000955,294.0,,,,1357.5594000000954,1358.0582000000477,1357.0427999999524,1357.5592000000477,1354.5785,1357.0427000000475,1358.0582000000477,1358.558,1358.5580999999047,1361.1722000000475,2014.0,1361.1722000000475,5.0,1361.1724000000954,4.0,26.0,146.0,3.0,1.0,1.4,0.3,Time
,,S62,1,female,22,anonymized,Serial_Dependence_U,2023.2.3,Win32,60.24096385542697,,,,,,1361.1725999999046,83.0,4.0,1361.1727000000478,83.0,,,,1364.737,1365.2357999999524,1364.2205,1364.7367999999524,1362.189,1364.2205,1365.2359000000954,1365.7354000000955,1365.7354000000955,1368.0995,1826.0,1368.0995999999047,5.0,1368.0997000000475,4.0,27.0,147.0,16.0,1.0,1.0,0.7,Time
,,S62,1,female,22,anonymized,Serial_Dependence_U,2023.2.3,Win32,60.24096385542697,,,,,,1368.0999000000954,271.0,4.0,1368.1,271.0,,,,1371.6977000000477,1372.1965,1371.1812999999524,1371.6975999999047,1369.1164000000954,1371.1812000000475,1372.1965,1372.696,1372.696,1374.7947000000477,1414.0,1374.7949000000954,5.0,1374.7950999999048,4.0,28.0,148.0,11.0,1.0,1.0,0.3,Time
,,S62,1,female,22,anonymized,Serial_Dependence_U,2023.2.3,Win32,60.24096385542697,,,,,,1374.7954000000957,304.0,4.0,1374.7955999999049,304.0,,,,1378.9912999999524,1379.4907999999523,1378.4747999999524,1378.9912000000477,1375.8104000000951,1378.4747000000475,1379.4907999999523,1379.9905999999048,1379.9907000000478,1382.3377999999525,1932.0,1382.3379000000955,4.0,1382.338099999905,4.0,29.0,149.0,4.0,1.0,1.6,0.3,Time
,,S62,1,female,22,anonymized,Serial_Dependence_U,2023.2.3,Win32,60.24096385542697,,,,,,1382.3385,184.0,5.0,1470.4987999999523,184.0,s,88.14689999985694,,1473.8967999999525,1474.3950999999047,1473.3802000000478,1473.8967000000478,1471.5147999999524,1473.3800999999048,1474.3950999999047,1474.8949000000955,1474.895,1476.5930999999048,1216.0,1476.5930999999048,5.0,1476.5932999999525,5.0,0.0,150.0,10.0,1.0,0.8,0.3,Time
,,S62,1,female,22,anonymized,Serial_Dependence_U,2023.2.3,Win32,60.24096385542697,,,,,,1476.5934000000957,130.0,5.0,1476.5945999999046,130.0,,,,1480.1910999999047,1480.69,1479.6750000000002,1480.1909000000956,1477.6097000000475,1479.6749000000957,1480.6900999999048,1481.1892999999525,1481.1892999999525,1483.1875999999047,1449.0,1483.1875999999047,5.0,1483.1879000000954,5.0,1.0,151.0,1.0,1.0,1.0,0.3,Time
,,S62,1,female,22,anonymized,Serial_Dependence_U,2023.2.3,Win32,60.24096385542697,,,,,,1483.1879000000954,288.0,5.0,1483.1880999999048,288.0,,,,1487.1520999999047,1487.6507999999524,1486.6357000000478,1487.1520999999047,1484.2045999999048,1486.6355999999048,1487.6507999999524,1488.1504000000955,1488.1505000000002,1489.9327000000478,1392.0,1489.9327000000478,3.0,1489.9329000000955,5.0,2.0,152.0,28.0,1.0,1.4,0.7,Time
,,S62,1,female,22,anonymized,Serial_Dependence_U,2023.2.3,Win32,60.24096385542697,,,,,,1489.9332999999524,337.0,5.0,1489.9335,337.0,,,,1493.3304000000956,1493.8290999999049,1492.8142000000478,1493.330200000048,1490.9485000000002,1492.8140999999048,1493.829200000048,1494.3289000000957,1494.3290000000002,1495.9277000000477,1106.0,1495.9277000000477,5.0,1495.9277999999524,5.0,3.0,153.0,20.0,1.0,0.8,0.3,Time
,,S62,1,female,22,anonymized,Serial_Dependence_U,2023.2.3,Win32,60.24096385542697,,,,,,1495.928,17.0,5.0,1495.9280999999048,17.0,,,,1499.5252000000478,1500.0237000000477,1499.0087999999523,1499.525,1496.9435,1499.0087000000478,1500.0237000000477,1500.5235,1500.5235,1502.3725000000002,1363.0,1502.3725999999049,5.0,1502.3729000000951,5.0,4.0,154.0,11.0,1.0,1.0,0.3,Time
,,S62,1,female,22,anonymized,Serial_Dependence_U,2023.2.3,Win32,60.24096385542697,,,,,,1502.3732999999525,213.0,5.0,1502.3735,213.0,,,,1506.1360000000002,1506.6357999999525,1505.6202000000478,1506.1359000000955,1503.3887999999524,1505.6200999999048,1506.6359000000955,1507.1342999999524,1507.1342999999524,1509.7495999999048,2015.0,1509.7497999999523,5.0,1509.75,5.0,5.0,155.0,27.0,1.0,1.2,0.7,Time
,,S62,1,female,22,anonymized,Serial_Dependence_U,2023.2.3,Win32,60.24096385542697,,,,,,1509.7504000000954,20.0,5.0,1509.7505,20.0,,,,1513.3467999999525,1513.8459000000955,1512.8307000000475,1513.3467000000478,1510.7659000000954,1512.8307000000475,1513.8459000000955,1514.3457000000478,1514.3457999999523,1516.6102000000478,1722.0,1516.6102999999523,5.0,1516.6105,5.0,6.0,156.0,21.0,1.0,1.0,0.3,Time
,,S62,1,female,22,anonymized,Serial_Dependence_U,2023.2.3,Win32,60.24096385542697,,,,,,1516.6107999999524,6.0,5.0,1516.6109000000954,6.0,,,,1520.8074000000954,1521.3065999999046,1520.2915,1520.8072999999524,1517.6262999999524,1520.2914000000956,1521.3067000000478,1521.8060999999047,1521.8060999999047,1524.7374000000957,2305.0,1524.7375000000002,5.0,1524.7377999999524,5.0,7.0,157.0,14.0,1.0,1.6,0.3,Time
,,S62,1,female,22,anonymized,Serial_Dependence_U,2023.2.3,Win32,60.24096385542697,,,,,,1524.7382000000478,192.0,5.0,1524.7382999999525,192.0,,,,1528.1014000000955,1528.6002999999523,1527.5852999999524,1528.1012000000478,1525.7530000000002,1527.5852000000475,1528.6004000000955,1529.1,1529.1,1531.1312999999525,1523.0,1531.1314000000957,5.0,1531.131599999905,5.0,8.0,158.0,5.0,1.0,0.8,0.7,Time
,,S62,1,female,22,anonymized,Serial_Dependence_U,2023.2.3,Win32,60.24096385542697,,,,,,1531.1317999999524,209.0,5.0,1531.132,209.0,,,,1534.929599999905,1535.428,1534.4127000000478,1534.9294000000957,1532.1482999999523,1534.4125999999046,1535.428,1535.928,1535.928,1538.6584000000955,1936.0,1538.6585999999047,5.0,1538.6585999999047,5.0,9.0,159.0,12.0,1.0,1.2,0.3,Time
,,S62,1,female,22,anonymized,Serial_Dependence_U,2023.2.3,Win32,60.24096385542697,,,,,,1538.659,332.0,5.0,1538.6590999999048,332.0,,,,1542.8220999999048,1543.3215999999047,1542.3065999999046,1542.822,1539.6755,1542.3065,1543.3215999999047,1543.8209000000954,1543.8209000000954,1545.9862000000478,1659.0,1545.9862999999525,3.0,1545.986599999905,5.0,10.0,160.0,9.0,1.0,1.6,0.7,Time
,,S62,1,female,22,anonymized,Serial_Dependence_U,2023.2.3,Win32,60.24096385542697,,,,,,1545.987,203.0,5.0,1545.9870999999048,203.0,,,,1549.9830000000002,1550.4825,1549.4672000000478,1549.9829000000957,1547.0022999999524,1549.4672000000478,1550.4825999999048,1550.9815,1550.9815999999048,1553.1297999999524,1569.0,1553.1297999999524,4.0,1553.13,5.0,11.0,161.0,23.0,1.0,1.4,0.3,Time
,,S62,1,female,22,anonymized,Serial_Dependence_U,2023.2.3,Win32,60.24096385542697,,,,,,1553.1302000000478,191.0,5.0,1553.1302999999525,191.0,,,,1556.5277999999523,1557.027,1556.0117000000478,1556.5277000000478,1554.1465,1556.0117000000478,1557.027,1557.5262999999525,1557.5262999999525,1558.9755999999047,963.0,1558.9757000000477,4.0,1558.9757999999524,5.0,12.0,162.0,0.0,1.0,0.8,0.3,Time
,,S62,1,female,22,anonymized,Serial_Dependence_U,2023.2.3,Win32,60.24096385542697,,,,,,1558.9760999999048,356.0,5.0,1558.9762000000478,356.0,,,,1562.9392000000478,1563.4384000000955,1562.4227999999523,1562.9390999999048,1559.9914000000954,1562.4227999999523,1563.4385,1563.9382999999525,1563.9382999999525,1566.1029000000954,1590.0,1566.1029000000954,4.0,1566.1032000000478,5.0,13.0,163.0,18.0,1.0,1.4,0.7,Time
,,S62,1,female,22,anonymized,Serial_Dependence_U,2023.2.3,Win32,60.24096385542697,,,,,,1566.1035999999046,239.0,5.0,1566.1037999999523,239.0,,,,1569.9,1570.3992999999523,1569.3842000000477,1569.8999000000954,1567.1184000000956,1569.3840999999047,1570.3992999999523,1570.8987000000477,1570.8987000000477,1573.0137000000475,1530.0,1573.0137999999524,4.0,1573.0139000000954,5.0,14.0,164.0,2.0,1.0,1.2,0.3,Time
,,S62,1,female,22,anonymized,Serial_Dependence_U,2023.2.3,Win32,60.24096385542697,,,,,,1573.0140999999048,108.0,5.0,1573.0142000000478,108.0,,,,1577.1772000000478,1577.6762999999523,1576.6612000000478,1577.1770999999046,1574.0302000000477,1576.661,1577.6762999999523,1578.176200000048,1578.1762999999523,1580.541200000048,1845.0,1580.5412999999523,4.0,1580.5415,5.0,15.0,165.0,19.0,1.0,1.6,0.7,Time
,,S62,1,female,22,anonymized,Serial_Dependence_U,2023.2.3,Win32,60.24096385542697,,,,,,1580.5422999999523,190.0,5.0,1580.5425,190.0,,,,1584.7380999999048,1585.2367999999524,1584.2217999999525,1584.738,1581.5572999999524,1584.2217999999525,1585.2369000000954,1585.7367999999524,1585.7367999999524,1588.584,2104.0,1588.5840999999048,5.0,1588.5842999999525,5.0,16.0,166.0,4.0,1.0,1.6,0.3,Time
,,S62,1,female,22,anonymized,Serial_Dependence_U,2023.2.3,Win32,60.24096385542697,,,,,,1588.5845999999046,283.0,5.0,1588.584700000048,283.0,,,,1592.5477000000478,1593.0467999999523,1592.031200000048,1592.5477000000478,1589.6002000000478,1592.031200000048,1593.0469000000955,1593.5467000000478,1593.5467000000478,1595.878200000048,1803.0,1595.878200000048,4.0,1595.8785,5.0,17.0,167.0,8.0,1.0,1.4,0.7,Time
,,S62,1,female,22,anonymized,Serial_Dependence_U,2023.2.3,Win32,60.24096385542697,,,,,,1595.8787999999524,210.0,5.0,1595.8790999999046,210.0,,,,1599.875,1600.3742000000475,1599.3589000000954,1599.875,1596.8937999999523,1599.3587999999525,1600.3742000000475,1600.8735,1600.8735,1603.2057000000475,1729.0,1603.2059000000954,4.0,1603.206,5.0,18.0,168.0,13.0,1.0,1.4,0.3,Time
,,S62,1,female,22,anonymized,Serial_Dependence_U,2023.2.3,Win32,60.24096385542697,,,,,,1603.2062000000478,34.0,5.0,1603.2062000000478,34.0,,,,1606.5700999999046,1607.0687000000478,1606.0530999999048,1606.5700999999046,1604.2217000000478,1606.053,1607.0687000000478,1607.568,1607.5680999999047,1609.300099999905,1265.0,1609.300099999905,5.0,1609.3004000000954,5.0,19.0,169.0,15.0,1.0,0.8,0.7,Time
,,S62,1,female,22,anonymized,Serial_Dependence_U,2023.2.3,Win32,60.24096385542697,,,,,,1609.3005999999048,54.0,5.0,1609.3007000000478,54.0,,,,1613.4637999999525,1613.9629000000955,1612.948,1613.4637000000478,1610.3005,1612.948,1613.9629000000955,1614.4622999999524,1614.4622999999524,1616.861,1872.0,1616.861,4.0,1616.8612999999525,5.0,20.0,170.0,29.0,1.0,1.6,0.7,Time
,,S62,1,female,22,anonymized,Serial_Dependence_U,2023.2.3,Win32,60.24096385542697,,,,,,1616.8615,296.0,5.0,1616.861599999905,296.0,,,,1620.4247999999525,1620.9239000000955,1619.9089000000954,1620.4247999999525,1617.8767999999525,1619.9087999999524,1620.924,1621.4237999999525,1621.4239000000955,1623.4220999999047,1375.0,1623.4222000000475,5.0,1623.4224000000954,5.0,21.0,171.0,6.0,1.0,1.0,0.7,Time
,,S62,1,female,22,anonymized,Serial_Dependence_U,2023.2.3,Win32,60.24096385542697,,,,,,1623.4229000000955,26.0,5.0,1623.4229000000955,26.0,,,,1627.2194000000954,1627.7182999999525,1626.7029000000955,1627.2192999999525,1624.4377999999524,1626.7027999999525,1627.7182999999525,1628.218,1628.2180999999048,1630.565700000048,1665.0,1630.5657999999523,5.0,1630.5659000000956,5.0,22.0,172.0,22.0,1.0,1.2,0.3,Time
,,S62,1,female,22,anonymized,Serial_Dependence_U,2023.2.3,Win32,60.24096385542697,,,,,,1630.5660999999047,22.0,5.0,1630.5662000000475,22.0,,,,1634.7629000000954,1635.2622999999523,1634.247,1634.7627999999524,1631.5822000000478,1634.247,1635.2622999999523,1635.7617000000478,1635.7617000000478,1638.2759000000954,1876.0,1638.276,4.0,1638.2760999999048,5.0,23.0,173.0,24.0,1.0,1.6,0.3,Time
,,S62,1,female,22,anonymized,Serial_Dependence_U,2023.2.3,Win32,60.24096385542697,,,,,,1638.2764000000957,347.0,5.0,1638.2765000000002,347.0,,,,1642.0402999999524,1642.5392999999524,1641.5242000000478,1642.040099999905,1639.2925999999047,1641.5240999999048,1642.5392999999524,1643.0392999999524,1643.0392999999524,1645.4204000000957,1784.0,1645.4205000000002,5.0,1645.420700000048,5.0,24.0,174.0,17.0,1.0,1.2,0.7,Time
,,S62,1,female,22,anonymized,Serial_Dependence_U,2023.2.3,Win32,60.24096385542697,,,,,,1645.421,290.0,5.0,1645.4210999999048,290.0,,,,1649.4177000000475,1649.9167999999524,1648.901,1649.4177000000475,1646.4362000000478,1648.9009000000954,1649.9167999999524,1650.416200000048,1650.4162999999523,1652.6649000000957,1756.0,1652.6649000000957,4.0,1652.6652000000477,5.0,25.0,175.0,3.0,1.0,1.4,0.3,Time
,,S62,1,female,22,anonymized,Serial_Dependence_U,2023.2.3,Win32,60.24096385542697,,,,,,1652.6657000000478,84.0,5.0,1652.6657999999525,84.0,,,,1656.2287999999523,1656.7277999999524,1655.7122000000477,1656.228700000048,1653.6810999999047,1655.7120999999047,1656.7277999999524,1657.2272999999525,1657.2274000000957,1659.4589000000954,1777.0,1659.459,5.0,1659.4592999999525,5.0,26.0,176.0,26.0,1.0,1.0,0.7,Time
,,S62,1,female,22,anonymized,Serial_Dependence_U,2023.2.3,Win32,60.24096385542697,,,,,,1659.4595999999046,194.0,5.0,1659.459700000048,194.0,,,,1663.023,1663.522200000048,1662.507,1663.0229000000954,1660.4747000000475,1662.5069000000954,1663.522200000048,1664.0215,1664.0215999999048,1665.9537000000478,1481.0,1665.9537999999525,5.0,1665.9540999999049,5.0,27.0,177.0,16.0,1.0,1.0,0.7,Time
,,S62,1,female,22,anonymized,Serial_Dependence_U,2023.2.3,Win32,60.24096385542697,,,,,,1665.9542999999524,306.0,5.0,1665.9544000000951,306.0,,,,1669.3179000000955,1669.8169000000955,1668.8012999999523,1669.3177000000478,1666.969700000048,1668.801200000048,1669.8169000000955,1670.3162999999524,1670.3164000000954,1672.2484000000954,1460.0,1672.2485,5.0,1672.2487999999523,5.0,28.0,178.0,25.0,1.0,0.8,0.7,Time
,,S62,1,female,22,anonymized,Serial_Dependence_U,2023.2.3,Win32,60.24096385542697,,,,,,1672.2490999999047,241.0,5.0,1672.2492000000475,241.0,,,,1675.996,1676.4949000000954,1675.4790999999047,1675.9957999999524,1673.248,1675.479,1676.4949000000954,1676.9942000000478,1676.9942000000478,1678.9099000000954,1397.0,1678.91,4.0,1678.9102000000478,5.0,29.0,179.0,7.0,1.0,1.2,0.7,Time
,,S62,1,female,22,anonymized,Serial_Dependence_U,2023.2.3,Win32,60.24096385542697,,,,,,1678.9105000000002,57.0,6.0,1689.0177999999523,57.0,s,10.088500000000067,,1692.3819000000954,1692.8810999999048,1691.8657999999523,1692.3819000000954,1690.034,1691.8657000000478,1692.8812000000478,1693.3807000000477,1693.3807999999524,1695.1624000000954,1226.0,1695.1625,5.0,1695.1627000000478,6.0,0.0,180.0,15.0,1.0,0.8,0.7,Time
,,S62,1,female,22,anonymized,Serial_Dependence_U,2023.2.3,Win32,60.24096385542697,,,,,,1695.1627999999523,285.0,6.0,1695.164,285.0,,,,1699.11,1699.6087000000475,1698.5932999999525,1699.1099000000954,1696.1622999999524,1698.5932000000478,1699.6087999999525,1700.1082999999524,1700.1082999999524,1702.1572999999523,1530.0,1702.1574000000955,4.0,1702.1577000000475,6.0,1.0,181.0,18.0,1.0,1.4,0.7,Time
,,S62,1,female,22,anonymized,Serial_Dependence_U,2023.2.3,Win32,60.24096385542697,,,,,,1702.158,36.0,6.0,1702.1580999999046,36.0,,,,1705.7545999999047,1706.2530000000002,1705.2384000000957,1705.7544000000955,1703.1730999999047,1705.2382999999525,1706.2530000000002,1706.7527999999525,1706.7527999999525,1708.4847999999524,1101.0,1708.4849000000954,4.0,1708.4850999999046,6.0,2.0,182.0,1.0,1.0,1.0,0.3,Time
,,S62,1,female,22,anonymized,Serial_Dependence_U,2023.2.3,Win32,60.24096385542697,,,,,,1708.4852999999523,83.0,6.0,1708.4855,83.0,,,,1712.6480999999046,1713.147200000048,1712.132700000048,1712.648,1709.501,1712.1325999999046,1713.147200000048,1713.6469000000957,1713.6469000000957,1716.0120000000002,1784.0,1716.0120999999046,4.0,1716.0122999999523,6.0,3.0,183.0,9.0,1.0,1.6,0.7,Time
,,S62,1,female,22,anonymized,Serial_Dependence_U,2023.2.3,Win32,60.24096385542697,,,,,,1716.0125999999048,281.0,6.0,1716.0127999999524,281.0,,,,1720.2087999999524,1720.708,1719.6924000000954,1720.2087000000477,1717.028,1719.6922999999524,1720.708,1721.2082000000478,1721.2082999999525,1723.7885999999048,1921.0,1723.7885999999048,4.0,1723.7887999999523,6.0,4.0,184.0,14.0,1.0,1.6,0.3,Time
,,S62,1,female,22,anonymized,Serial_Dependence_U,2023.2.3,Win32,60.24096385542697,,,,,,1723.789,236.0,6.0,1723.7890999999047,236.0,,,,1727.5862999999524,1728.0850999999047,1727.070200000048,1727.5860999999047,1724.8054000000957,1727.0700000000002,1728.0852000000475,1728.5847999999523,1728.5849000000956,1730.8669000000957,1747.0,1730.8669000000957,5.0,1730.8672999999524,6.0,5.0,185.0,22.0,1.0,1.2,0.3,Time
,,S62,1,female,22,anonymized,Serial_Dependence_U,2023.2.3,Win32,60.24096385542697,,,,,,1730.8675999999048,221.0,6.0,1730.8677000000478,221.0,,,,1734.6300999999048,1735.1290999999046,1734.114,1734.63,1731.8825999999046,1734.1139000000956,1735.1292000000478,1735.6292000000478,1735.6292000000478,1737.9440000000002,1767.0,1737.9440000000002,5.0,1737.9442999999524,6.0,6.0,186.0,17.0,1.0,1.2,0.7,Time
,,S62,1,female,22,anonymized,Serial_Dependence_U,2023.2.3,Win32,60.24096385542697,,,,,,1737.9445999999048,318.0,6.0,1737.9447999999525,318.0,,,,1741.940700000048,1742.4402000000478,1741.4244000000954,1741.9405999999046,1738.9604000000954,1741.4242999999524,1742.4402999999525,1742.9395000000002,1742.9395999999049,1745.5214000000954,2104.0,1745.5215,5.0,1745.5217000000478,6.0,7.0,187.0,3.0,1.0,1.4,0.3,Time
,,S62,1,female,22,anonymized,Serial_Dependence_U,2023.2.3,Win32,60.24096385542697,,,,,,1745.522200000048,317.0,6.0,1745.522200000048,317.0,,,,1749.0687999999525,1749.5675999999048,1748.5682000000477,1749.0687999999525,1746.5375,1748.5682000000477,1749.5675999999048,1750.0670999999047,1750.0670999999047,1752.5484000000954,1854.0,1752.5485,5.0,1752.5487000000478,6.0,8.0,188.0,16.0,1.0,1.0,0.7,Time
,,S62,1,female,22,anonymized,Serial_Dependence_U,2023.2.3,Win32,60.24096385542697,,,,,,1752.5489000000955,152.0,6.0,1752.5489000000955,152.0,,,,1756.3459000000955,1756.8452000000475,1755.8295999999048,1756.3457999999523,1753.565,1755.8295999999048,1756.8452000000475,1757.3442000000475,1757.3442000000475,1759.6099000000954,1845.0,1759.61,5.0,1759.6102999999523,6.0,9.0,189.0,2.0,1.0,1.2,0.3,Time
,,S62,1,female,22,anonymized,Serial_Dependence_U,2023.2.3,Win32,60.24096385542697,,,,,,1759.6107000000477,20.0,6.0,1759.6107999999524,20.0,,,,1763.207,1763.7059000000954,1762.690700000048,1763.2069000000954,1760.6257999999525,1762.6905000000002,1763.7059000000954,1764.2050000000002,1764.2050999999046,1766.536700000048,1827.0,1766.5367999999523,5.0,1766.5370999999047,6.0,10.0,190.0,11.0,1.0,1.0,0.3,Time
,,S62,1,female,22,anonymized,Serial_Dependence_U,2023.2.3,Win32,60.24096385542697,,,,,,1766.5374000000954,221.0,6.0,1766.5375,221.0,,,,1770.7005999999046,1771.1992000000478,1770.1839000000955,1770.7005,1767.5532999999523,1770.1839000000955,1771.1992000000478,1771.6987999999524,1771.6989000000954,1774.2135,1993.0,1774.2135999999048,4.0,1774.2137000000478,6.0,11.0,191.0,19.0,1.0,1.6,0.7,Time
,,S62,1,female,22,anonymized,Serial_Dependence_U,2023.2.3,Win32,60.24096385542697,,,,,,1774.2140000000002,90.0,6.0,1774.2140999999046,90.0,,,,1777.9777999999524,1778.477,1777.4619000000955,1777.9777000000477,1775.2297999999523,1777.4617999999523,1778.477,1778.9765999999047,1778.9765999999047,1781.724200000048,2157.0,1781.7242999999523,5.0,1781.7245,6.0,12.0,192.0,7.0,1.0,1.2,0.7,Time
,,S62,1,female,22,anonymized,Serial_Dependence_U,2023.2.3,Win32,60.24096385542697,,,,,,1781.7247000000475,86.0,6.0,1781.7247999999524,86.0,,,,1785.904,1786.4032000000475,1785.3885999999047,1785.904,1782.7240999999046,1785.3885999999047,1786.4032999999524,1786.9032999999524,1786.9034000000954,1789.4507999999523,2054.0,1789.4509000000955,4.0,1789.4510999999047,6.0,13.0,193.0,24.0,1.0,1.6,0.3,Time
,,S62,1,female,22,anonymized,Serial_Dependence_U,2023.2.3,Win32,60.24096385542697,,,,,,1789.4512999999524,280.0,6.0,1789.4514000000954,280.0,,,,1793.3985,1793.8975,1792.8819000000954,1793.3984000000955,1790.4510999999047,1792.8819000000954,1793.8975,1794.3970000000002,1794.3970000000002,1797.1779000000954,2215.0,1797.1779000000954,5.0,1797.1780999999048,6.0,14.0,194.0,8.0,1.0,1.4,0.7,Time
,,S62,1,female,22,anonymized,Serial_Dependence_U,2023.2.3,Win32,60.24096385542697,,,,,,1797.1785,45.0,6.0,1797.1785999999047,45.0,,,,1801.1419000000951,1801.6407999999524,1800.626099999905,1801.1417999999524,1798.1945,1800.6259000000955,1801.6407999999524,1802.1409000000956,1802.141,1804.938200000048,2249.0,1804.9382999999525,5.0,1804.9385,6.0,15.0,195.0,28.0,1.0,1.4,0.7,Time
,,S62,1,female,22,anonymized,Serial_Dependence_U,2023.2.3,Win32,60.24096385542697,,,,,,1804.9387999999524,185.0,6.0,1804.9389000000956,185.0,,,,1808.9354000000956,1809.4345,1808.4194000000955,1808.9352999999523,1805.955,1808.419200000048,1809.4345999999048,1809.934,1809.934,1812.566200000048,2165.0,1812.5662999999524,5.0,1812.5665999999048,6.0,16.0,196.0,23.0,1.0,1.4,0.3,Time
,,S62,1,female,22,anonymized,Serial_Dependence_U,2023.2.3,Win32,60.24096385542697,,,,,,1812.5667999999523,71.0,6.0,1812.5669000000955,71.0,,,,1816.3292999999524,1816.829,1815.8135,1816.3292999999524,1813.5815999999047,1815.8134000000955,1816.829,1817.328099999905,1817.328200000048,1820.109700000048,2113.0,1820.1099000000956,5.0,1820.11,6.0,17.0,197.0,27.0,1.0,1.2,0.7,Time
,,S62,1,female,22,anonymized,Serial_Dependence_U,2023.2.3,Win32,60.24096385542697,,,,,,1820.110200000048,153.0,6.0,1820.110200000048,153.0,,,,1823.507,1824.006,1822.9905999999048,1823.5069000000956,1821.125200000048,1822.9905,1824.006,1824.5055,1824.5055999999047,1826.771200000048,1693.0,1826.7712999999524,5.0,1826.7715999999048,6.0,18.0,198.0,0.0,1.0,0.8,0.3,Time
,,S62,1,female,22,anonymized,Serial_Dependence_U,2023.2.3,Win32,60.24096385542697,,,,,,1826.7719000000957,114.0,6.0,1826.772,114.0,,,,1830.5677999999525,1831.0669000000955,1830.0515,1830.567700000048,1827.7867999999523,1830.051400000096,1831.0669000000955,1831.5665999999048,1831.5665999999048,1833.9477999999524,1750.0,1833.9477999999524,5.0,1833.948,6.0,19.0,199.0,12.0,1.0,1.2,0.3,Time
,,S62,1,female,22,anonymized,Serial_Dependence_U,2023.2.3,Win32,60.24096385542697,,,,,,1833.9482999999525,96.0,6.0,1833.9484000000955,96.0,,,,1837.9447999999525,1838.4437999999525,1837.428700000048,1837.9447999999525,1834.963700000048,1837.4285999999047,1838.4437999999525,1838.9439000000957,1838.9439000000957,1841.1922999999524,1697.0,1841.1924000000956,4.0,1841.192700000048,6.0,20.0,200.0,13.0,1.0,1.4,0.3,Time
,,S62,1,female,22,anonymized,Serial_Dependence_U,2023.2.3,Win32,60.24096385542697,,,,,,1841.193,125.0,6.0,1841.1930999999047,125.0,,,,1845.3387999999525,1845.838200000048,1844.822700000048,1845.3385999999048,1842.1915,1844.8225999999047,1845.838200000048,1846.3374000000956,1846.3375,1849.0859000000955,2175.0,1849.086,5.0,1849.0862999999524,6.0,21.0,201.0,29.0,1.0,1.6,0.7,Time
,,S62,1,female,22,anonymized,Serial_Dependence_U,2023.2.3,Win32,60.24096385542697,,,,,,1849.0865999999048,313.0,6.0,1849.086700000048,313.0,,,,1852.6827999999523,1853.182,1852.1665,1852.6827999999523,1850.1017999999524,1852.166400000096,1853.182,1853.6815,1853.6815999999048,1855.9800999999047,1599.0,1855.980200000048,5.0,1855.9805,6.0,22.0,202.0,21.0,1.0,1.0,0.3,Time
,,S62,1,female,22,anonymized,Serial_Dependence_U,2023.2.3,Win32,60.24096385542697,,,,,,1855.9807999999523,206.0,6.0,1855.9807999999523,206.0,,,,1860.176700000048,1860.6755999999048,1859.660599999905,1860.176700000048,1856.9959000000956,1859.6604000000957,1860.6755999999048,1861.174700000048,1861.1747999999525,1863.7897999999525,2056.0,1863.79,4.0,1863.790200000048,6.0,23.0,203.0,4.0,1.0,1.6,0.3,Time
,,S62,1,female,22,anonymized,Serial_Dependence_U,2023.2.3,Win32,60.24096385542697,,,,,,1863.7905,76.0,6.0,1863.7905999999048,76.0,,,,1867.1535,1867.653,1866.6374000000956,1867.1534000000956,1864.8052999999525,1866.6372999999523,1867.653,1868.1525999999049,1868.1525999999049,1869.9179000000956,1183.0,1869.9179000000956,5.0,1869.918200000048,6.0,24.0,204.0,5.0,1.0,0.8,0.7,Time
,,S62,1,female,22,anonymized,Serial_Dependence_U,2023.2.3,Win32,60.24096385542697,,,,,,1869.9182999999523,304.0,6.0,1869.9184000000955,304.0,,,,1873.4660999999048,1873.9650999999049,1872.9495,1873.4660999999048,1870.917700000048,1872.9494000000957,1873.965200000048,1874.4640999999049,1874.464200000048,1877.0457999999524,1836.0,1877.0457999999524,5.0,1877.046,6.0,25.0,205.0,26.0,1.0,1.0,0.7,Time
,,S62,1,female,22,anonymized,Serial_Dependence_U,2023.2.3,Win32,60.24096385542697,,,,,,1877.046200000048,242.0,6.0,1877.046200000048,242.0,,,,1880.6099000000956,1881.1082999999524,1880.0934000000957,1880.6097999999524,1878.0619000000956,1880.0932999999525,1881.1084000000956,1881.608200000048,1881.608200000048,1884.089700000048,1698.0,1884.089700000048,5.0,1884.0900999999049,6.0,26.0,206.0,6.0,1.0,1.0,0.7,Time
,,S62,1,female,22,anonymized,Serial_Dependence_U,2023.2.3,Win32,60.24096385542697,,,,,,1884.0902999999523,233.0,6.0,1884.0904000000955,233.0,,,,1887.4707999999523,1887.9695999999049,1886.9542999999524,1887.470700000048,1885.0895,1886.9540999999049,1887.9695999999049,1888.4695,1888.4695,1890.3175999999048,1396.0,1890.3175999999048,5.0,1890.3177999999525,6.0,27.0,207.0,20.0,1.0,0.8,0.3,Time
,,S62,1,female,22,anonymized,Serial_Dependence_U,2023.2.3,Win32,60.24096385542697,,,,,,1890.3180999999047,319.0,6.0,1890.318200000048,319.0,,,,1893.7155999999047,1894.2145999999047,1893.1987999999524,1893.7155999999047,1891.3334000000957,1893.1987999999524,1894.2145999999047,1894.7140999999049,1894.7140999999049,1896.629700000048,1316.0,1896.6299000000956,5.0,1896.6300999999048,6.0,28.0,208.0,10.0,1.0,0.8,0.3,Time
,,S62,1,female,22,anonymized,Serial_Dependence_U,2023.2.3,Win32,60.24096385542697,,,,,,1896.6304000000955,338.0,6.0,1896.6305999999047,338.0,,,,1899.993700000048,1900.4924000000956,1899.4774000000957,1899.9935999999047,1897.645700000048,1899.4774000000957,1900.4924000000956,1900.9922999999524,1900.9922999999524,1902.8909000000956,1384.0,1902.8909000000956,5.0,1902.891200000048,6.0,29.0,209.0,25.0,1.0,0.8,0.7,Time
,,S62,1,female,22,anonymized,Serial_Dependence_U,2023.2.3,Win32,60.24096385542697,,,,,,1902.891700000048,12.0,7.0,2020.127700000048,12.0,s,117.21420000004788,,2024.307700000048,2024.806200000048,2023.7910999999044,2024.3075999999048,2021.1269000000957,2023.791,2024.806200000048,2025.306,2025.306,2027.6040999999043,1566.0,2027.6040999999043,3.0,2027.6044000000952,7.0,0.0,210.0,14.0,1.0,1.6,0.3,Time
,,S62,1,female,22,anonymized,Serial_Dependence_U,2023.2.3,Win32,60.24096385542697,,,,,,2027.6047999999523,106.0,7.0,2027.606299999952,106.0,,,,2031.5684000000952,2032.0669000000955,2031.052,2031.568299999952,2028.6205,2031.0519000000957,2032.0669000000955,2032.567299999952,2032.567299999952,2034.898,1584.0,2034.898,4.0,2034.898299999952,7.0,1.0,211.0,28.0,1.0,1.4,0.7,Time
,,S62,1,female,22,anonymized,Serial_Dependence_U,2023.2.3,Win32,60.24096385542697,,,,,,2034.8985999999045,93.0,7.0,2034.8985999999045,93.0,,,,2038.4959000000956,2038.994299999952,2037.9795999999048,2038.4957999999524,2035.9140999999045,2037.9795,2038.994299999952,2039.494299999952,2039.494400000095,2041.3429000000951,1315.0,2041.343,5.0,2041.3432000000475,7.0,2.0,212.0,11.0,1.0,1.0,0.3,Time
,,S62,1,female,22,anonymized,Serial_Dependence_U,2023.2.3,Win32,60.24096385542697,,,,,,2041.3432999999525,127.0,7.0,2041.3434000000952,127.0,,,,2044.7234000000956,2045.2227999999525,2044.2075,2044.7232999999524,2042.3425999999045,2044.2074000000955,2045.2227999999525,2045.7220999999045,2045.7220999999045,2047.703799999952,1450.0,2047.703799999952,5.0,2047.704,7.0,3.0,213.0,20.0,1.0,0.8,0.3,Time
,,S62,1,female,22,anonymized,Serial_Dependence_U,2023.2.3,Win32,60.24096385542697,,,,,,2047.7040999999044,327.0,7.0,2047.7042000000476,327.0,,,,2051.668200000048,2052.1675999999043,2051.1525,2051.668,2048.720299999952,2051.152299999952,2052.1675999999043,2052.6665999999045,2052.6667000000475,2055.2484000000954,1937.0,2055.2485,5.0,2055.2487000000474,7.0,4.0,214.0,8.0,1.0,1.4,0.7,Time
,,S62,1,female,22,anonymized,Serial_Dependence_U,2023.2.3,Win32,60.24096385542697,,,,,,2055.2490999999045,106.0,7.0,2055.2492000000475,106.0,,,,2059.045,2059.5447999999524,2058.5285999999046,2059.0447999999524,2056.2639000000954,2058.5285,2059.5447999999524,2060.0435,2060.0435,2062.259,1658.0,2062.2590999999043,5.0,2062.259299999952,7.0,5.0,215.0,2.0,1.0,1.2,0.3,Time
,,S62,1,female,22,anonymized,Serial_Dependence_U,2023.2.3,Win32,60.24096385542697,,,,,,2062.2595,175.0,7.0,2062.259799999952,175.0,,,,2065.823,2066.322200000048,2065.3067000000474,2065.822900000095,2063.2747999999524,2065.3065,2066.322200000048,2066.8215999999043,2066.8215999999043,2069.020200000048,1519.0,2069.020200000048,5.0,2069.0204000000954,7.0,6.0,216.0,26.0,1.0,1.0,0.7,Time
,,S62,1,female,22,anonymized,Serial_Dependence_U,2023.2.3,Win32,60.24096385542697,,,,,,2069.020700000048,182.0,7.0,2069.020799999952,182.0,,,,2072.417700000048,2072.9165,2071.9014000000952,2072.417700000048,2070.035900000096,2071.9012000000475,2072.9165,2073.4165,2073.4165,2075.2810999999047,1307.0,2075.281200000048,5.0,2075.281400000096,7.0,7.0,217.0,10.0,1.0,0.8,0.3,Time
,,S62,1,female,22,anonymized,Serial_Dependence_U,2023.2.3,Win32,60.24096385542697,,,,,,2075.281700000048,50.0,7.0,2075.281799999952,50.0,,,,2079.2785,2079.7777000000474,2078.7620999999044,2079.278400000095,2076.297799999952,2078.761900000095,2079.7777000000474,2080.277299999952,2080.277299999952,2082.275400000095,1426.0,2082.275400000095,3.0,2082.2755999999044,7.0,8.0,218.0,13.0,1.0,1.4,0.3,Time
,,S62,1,female,22,anonymized,Serial_Dependence_U,2023.2.3,Win32,60.24096385542697,,,,,,2082.275900000095,148.0,7.0,2082.2760999999045,148.0,,,,2086.4562000000474,2086.9547000000475,2085.9395,2086.4560999999044,2083.292,2085.9394000000952,2086.9547000000475,2087.4545,2087.4545,2090.1695,2083.0,2090.1695,5.0,2090.1697999999524,7.0,9.0,219.0,29.0,1.0,1.6,0.7,Time
,,S62,1,female,22,anonymized,Serial_Dependence_U,2023.2.3,Win32,60.24096385542697,,,,,,2090.1702000000478,253.0,7.0,2090.1702000000478,253.0,,,,2094.3325999999047,2094.831799999952,2093.8165999999046,2094.3324000000957,2091.185,2093.8165,2094.831900000095,2095.331299999952,2095.331400000095,2097.0970999999045,1631.0,2097.0972000000475,3.0,2097.0975,7.0,10.0,220.0,9.0,1.0,1.6,0.7,Time
,,S62,1,female,22,anonymized,Serial_Dependence_U,2023.2.3,Win32,60.24096385542697,,,,,,2097.097599999905,172.0,7.0,2097.0977999999523,172.0,,,,2100.860900000095,2101.3592999999523,2100.3445,2100.860799999952,2098.1125999999044,2100.3444000000954,2101.3592999999523,2101.8595999999043,2101.8595999999043,2104.157900000095,1863.0,2104.158,5.0,2104.1582999999523,7.0,11.0,221.0,27.0,1.0,1.2,0.7,Time
,,S62,1,female,22,anonymized,Serial_Dependence_U,2023.2.3,Win32,60.24096385542697,,,,,,2104.1585999999047,356.0,7.0,2104.158700000048,356.0,,,,2107.9215999999046,2108.4205,2107.4052000000474,2107.9215,2105.1735,2107.4050999999045,2108.4205,2108.920299999952,2108.920400000095,2111.2349000000954,1704.0,2111.235,5.0,2111.235299999952,7.0,12.0,222.0,17.0,1.0,1.2,0.7,Time
,,S62,1,female,22,anonymized,Serial_Dependence_U,2023.2.3,Win32,60.24096385542697,,,,,,2111.2355,57.0,7.0,2111.2355999999045,57.0,,,,2114.599400000095,2115.098400000096,2114.0825999999047,2114.599400000095,2112.2510999999045,2114.0825,2115.0985,2115.5979000000957,2115.598,2117.5964000000954,1614.0,2117.5965,5.0,2117.596799999952,7.0,13.0,223.0,15.0,1.0,0.8,0.7,Time
,,S62,1,female,22,anonymized,Serial_Dependence_U,2023.2.3,Win32,60.24096385542697,,,,,,2117.597,23.0,7.0,2117.597,23.0,,,,2121.194,2121.692900000095,2120.677900000095,2121.1937999999523,2118.612400000095,2120.677799999952,2121.693,2122.192200000048,2122.192299999952,2124.4244000000954,1732.0,2124.4245,5.0,2124.424700000048,7.0,14.0,224.0,1.0,1.0,1.0,0.3,Time
,,S62,1,female,22,anonymized,Serial_Dependence_U,2023.2.3,Win32,60.24096385542697,,,,,,2124.425,199.0,7.0,2124.4250999999044,199.0,,,,2128.1880999999044,2128.6872999999523,2127.6717999999523,2128.1880999999044,2125.4405,2127.6717999999523,2128.6872999999523,2129.1865,2129.1865999999045,2131.6845999999045,1785.0,2131.6845999999045,5.0,2131.684799999952,7.0,15.0,225.0,7.0,1.0,1.2,0.7,Time
,,S62,1,female,22,anonymized,Serial_Dependence_U,2023.2.3,Win32,60.24096385542697,,,,,,2131.685,138.0,7.0,2131.6850999999047,138.0,,,,2135.081799999952,2135.581,2134.5662000000475,2135.081799999952,2132.7009000000958,2134.5660999999045,2135.581,2136.081,2136.0810999999044,2137.696700000048,1430.0,2137.696700000048,5.0,2137.6969000000954,7.0,16.0,226.0,0.0,1.0,0.8,0.3,Time
,,S62,1,female,22,anonymized,Serial_Dependence_U,2023.2.3,Win32,60.24096385542697,,,,,,2137.697200000048,227.0,7.0,2137.697200000048,227.0,,,,2141.260700000048,2141.7595999999044,2140.7445,2141.260700000048,2138.7125,2140.744400000095,2141.759700000048,2142.259200000048,2142.259299999952,2144.291299999952,1532.0,2144.291299999952,5.0,2144.2915,7.0,17.0,227.0,6.0,1.0,1.0,0.7,Time
,,S62,1,female,22,anonymized,Serial_Dependence_U,2023.2.3,Win32,60.24096385542697,,,,,,2144.291799999952,183.0,7.0,2144.291799999952,183.0,,,,2147.654900000095,2148.154200000048,2147.139,2147.654799999952,2145.307400000095,2147.139,2148.1542999999524,2148.654200000048,2148.654200000048,2150.8524000000957,1200.0,2150.8525,5.0,2150.852700000048,7.0,18.0,228.0,25.0,1.0,0.8,0.7,Time
,,S62,1,female,22,anonymized,Serial_Dependence_U,2023.2.3,Win32,60.24096385542697,,,,,,2150.853,228.0,7.0,2150.8530999999043,228.0,,,,2154.449900000095,2154.9487999999524,2153.933700000048,2154.449900000095,2151.8685999999043,2153.9335999999043,2154.9487999999524,2155.4482999999523,2155.4482999999523,2157.5134000000958,1377.0,2157.5135,5.0,2157.513799999952,7.0,19.0,229.0,21.0,1.0,1.0,0.3,Time
,,S62,1,female,22,anonymized,Serial_Dependence_U,2023.2.3,Win32,60.24096385542697,,,,,,2157.5140999999044,151.0,7.0,2157.514200000048,151.0,,,,2161.310400000096,2161.8095,2160.794700000048,2161.3102999999523,2158.5292999999524,2160.794700000048,2161.8095,2162.308900000095,2162.309,2164.5240999999046,1590.0,2164.5240999999046,5.0,2164.5242999999523,7.0,20.0,230.0,22.0,1.0,1.2,0.3,Time
,,S62,1,female,22,anonymized,Serial_Dependence_U,2023.2.3,Win32,60.24096385542697,,,,,,2164.5245999999047,220.0,7.0,2164.524700000048,220.0,,,,2168.521299999952,2169.0205,2168.005,2168.5212000000474,2165.540700000048,2168.0049000000954,2169.0205,2169.520200000048,2169.520200000048,2171.4185999999045,1666.0,2171.4187000000475,4.0,2171.418900000095,7.0,21.0,231.0,3.0,1.0,1.4,0.3,Time
,,S62,1,female,22,anonymized,Serial_Dependence_U,2023.2.3,Win32,60.24096385542697,,,,,,2171.4190999999046,104.0,7.0,2171.4192999999523,104.0,,,,2175.3825999999044,2175.881099999905,2174.866200000048,2175.382400000095,2172.4347000000475,2174.866,2175.881200000048,2176.380900000095,2176.381,2178.9462999999523,2061.0,2178.9465,5.0,2178.946700000048,7.0,22.0,232.0,18.0,1.0,1.4,0.7,Time
,,S62,1,female,22,anonymized,Serial_Dependence_U,2023.2.3,Win32,60.24096385542697,,,,,,2178.9470999999044,155.0,7.0,2178.9470999999044,155.0,,,,2182.493,2182.9922000000474,2181.9775999999047,2182.4929000000952,2179.945299999952,2181.9774000000957,2182.9922000000474,2183.4915999999043,2183.4915999999043,2185.590400000095,1504.0,2185.5905,5.0,2185.5907000000475,7.0,23.0,233.0,16.0,1.0,1.0,0.7,Time
,,S62,1,female,22,anonymized,Serial_Dependence_U,2023.2.3,Win32,60.24096385542697,,,,,,2185.590900000095,296.0,7.0,2185.590900000095,296.0,,,,2189.3875,2189.886700000048,2188.871299999952,2189.3875,2186.6060999999045,2188.871299999952,2189.886700000048,2190.385599999905,2190.385599999905,2192.6010999999044,1652.0,2192.6010999999044,5.0,2192.601299999952,7.0,24.0,234.0,12.0,1.0,1.2,0.3,Time
,,S62,1,female,22,anonymized,Serial_Dependence_U,2023.2.3,Win32,60.24096385542697,,,,,,2192.6015,300.0,7.0,2192.6015,300.0,,,,2196.598200000048,2197.097,2196.082,2196.5980999999047,2193.6175999999045,2196.081900000095,2197.097,2197.596900000095,2197.597,2200.161400000095,2114.0,2200.1615,5.0,2200.1617000000474,7.0,25.0,235.0,23.0,1.0,1.4,0.3,Time
,,S62,1,female,22,anonymized,Serial_Dependence_U,2023.2.3,Win32,60.24096385542697,,,,,,2200.161900000095,211.0,7.0,2200.162,211.0,,,,2204.358299999952,2204.857400000096,2203.8420999999043,2204.3582000000474,2201.177799999952,2203.842,2204.857400000096,2205.3572999999524,2205.3572999999524,2207.788700000048,2027.0,2207.788700000048,4.0,2207.788900000095,7.0,26.0,236.0,4.0,1.0,1.6,0.3,Time
,,S62,1,female,22,anonymized,Serial_Dependence_U,2023.2.3,Win32,60.24096385542697,,,,,,2207.7890999999045,240.0,7.0,2207.7892000000475,240.0,,,,2211.9685999999047,2212.468,2211.452400000095,2211.9685,2208.788299999952,2211.452299999952,2212.468099999905,2212.9675,2212.9675,2215.5654000000955,2065.0,2215.5655,4.0,2215.565799999952,7.0,27.0,237.0,24.0,1.0,1.6,0.3,Time
,,S62,1,female,22,anonymized,Serial_Dependence_U,2023.2.3,Win32,60.24096385542697,,,,,,2215.5660999999045,35.0,7.0,2215.5660999999045,35.0,,,,2219.728900000095,2220.227900000096,2219.212799999952,2219.728799999952,2216.581400000095,2219.212700000048,2220.227900000096,2220.7277999999524,2220.7277999999524,2223.375700000048,2080.0,2223.375799999952,5.0,2223.376,7.0,28.0,238.0,19.0,1.0,1.6,0.7,Time
,,S62,1,female,22,anonymized,Serial_Dependence_U,2023.2.3,Win32,60.24096385542697,,,,,,2223.376299999952,91.0,7.0,2223.376299999952,91.0,,,,2226.7230999999047,2227.222400000095,2226.207,2226.7229000000957,2224.375299999952,2226.206900000095,2227.222400000095,2227.721900000095,2227.722,2229.220400000095,772.0,2229.2205,3.0,2229.2205999999046,7.0,29.0,239.0,5.0,1.0,0.8,0.7,Time
,,S62,1,female,22,anonymized,Serial_Dependence_U,2023.2.3,Win32,60.24096385542697,,,,,,2229.2207999999523,135.0,8.0,2231.9685999999047,135.0,s,2.7296000001429093,,2235.5660999999045,2236.065200000048,2235.0495999999043,2235.566,2232.9845999999043,2235.0495999999043,2236.065200000048,2236.5645,2236.5645,2238.4960999999043,1335.0,2238.4960999999043,5.0,2238.496400000095,8.0,0.0,240.0,1.0,1.0,1.0,0.3,Time
,,S62,1,female,22,anonymized,Serial_Dependence_U,2023.2.3,Win32,60.24096385542697,,,,,,2238.4967000000474,146.0,8.0,2238.4980999999043,146.0,,,,2242.4930999999046,2242.992299999952,2241.977,2242.493,2239.5120999999044,2241.976900000095,2242.992400000095,2243.492400000095,2243.492400000095,2245.3910999999043,1252.0,2245.391200000048,2.0,2245.391400000095,8.0,1.0,241.0,23.0,1.0,1.4,0.3,Time
,,S62,1,female,22,anonymized,Serial_Dependence_U,2023.2.3,Win32,60.24096385542697,,,,,,2245.3917000000474,269.0,8.0,2245.391799999952,269.0,,,,2248.955,2249.4535999999043,2248.4385999999045,2248.954900000095,2246.406799999952,2248.4385,2249.4535999999043,2249.953700000048,2249.953700000048,2251.935799999952,1332.0,2251.935799999952,5.0,2251.936,8.0,2.0,242.0,26.0,1.0,1.0,0.7,Time
,,S62,1,female,22,anonymized,Serial_Dependence_U,2023.2.3,Win32,60.24096385542697,,,,,,2251.9362000000474,44.0,8.0,2251.936299999952,44.0,,,,2255.299799999952,2255.799,2254.783200000048,2255.2995999999043,2252.951799999952,2254.7830999999046,2255.799,2256.2980999999045,2256.2982000000475,2257.897,1016.0,2257.8970999999046,4.0,2257.8972999999523,8.0,3.0,243.0,5.0,1.0,0.8,0.7,Time
,,S62,1,female,22,anonymized,Serial_Dependence_U,2023.2.3,Win32,60.24096385542697,,,,,,2257.8975999999043,15.0,8.0,2257.897700000048,15.0,,,,2261.694400000096,2262.192900000095,2261.1780999999046,2261.6942999999524,2258.9125999999046,2261.178,2262.192900000095,2262.692700000048,2262.692700000048,2264.4077000000475,1259.0,2264.4077000000475,3.0,2264.407799999952,8.0,4.0,244.0,22.0,1.0,1.2,0.3,Time
,,S62,1,female,22,anonymized,Serial_Dependence_U,2023.2.3,Win32,60.24096385542697,,,,,,2264.408,104.0,8.0,2264.4080999999046,104.0,,,,2268.005799999952,2268.5045,2267.4897000000474,2268.005799999952,2265.4242999999524,2267.4895999999044,2268.5045,2269.0040999999046,2269.004200000048,2271.1025999999047,1561.0,2271.1027999999524,5.0,2271.103,8.0,5.0,245.0,21.0,1.0,1.0,0.3,Time
,,S62,1,female,22,anonymized,Serial_Dependence_U,2023.2.3,Win32,60.24096385542697,,,,,,2271.103400000095,160.0,8.0,2271.1035,160.0,,,,2274.9000999999043,2275.399,2274.3839000000958,2274.9,2272.1185999999043,2274.3837999999523,2275.399,2275.8985,2275.8985,2277.9307999999523,1485.0,2277.930900000096,4.0,2277.931200000048,8.0,6.0,246.0,2.0,1.0,1.2,0.3,Time
,,S62,1,female,22,anonymized,Serial_Dependence_U,2023.2.3,Win32,60.24096385542697,,,,,,2277.931299999952,204.0,8.0,2277.9314000000954,204.0,,,,2281.5275,2282.026900000096,2281.011799999952,2281.5275,2278.9462999999523,2281.011700000048,2282.027,2282.5267999999523,2282.5267999999523,2284.541799999952,1536.0,2284.542,5.0,2284.542200000048,8.0,7.0,247.0,11.0,1.0,1.0,0.3,Time
,,S62,1,female,22,anonymized,Serial_Dependence_U,2023.2.3,Win32,60.24096385542697,,,,,,2284.5425999999043,123.0,8.0,2284.542799999952,123.0,,,,2288.3050999999045,2288.804200000048,2287.7899000000957,2288.3050999999045,2285.5575,2287.7897999999523,2288.804299999952,2289.3039000000954,2289.3039000000954,2291.435400000096,1752.0,2291.4355,5.0,2291.4355999999043,8.0,8.0,248.0,7.0,1.0,1.2,0.7,Time
,,S62,1,female,22,anonymized,Serial_Dependence_U,2023.2.3,Win32,60.24096385542697,,,,,,2291.435799999952,157.0,8.0,2291.436,157.0,,,,2294.8002000000474,2295.2990999999047,2294.284,2294.8000999999044,2292.4514000000954,2294.2839000000954,2295.2990999999047,2295.799,2295.799,2297.9469000000954,1459.0,2297.9469000000954,5.0,2297.947200000048,8.0,9.0,249.0,25.0,1.0,0.8,0.7,Time
,,S62,1,female,22,anonymized,Serial_Dependence_U,2023.2.3,Win32,60.24096385542697,,,,,,2297.9475999999045,269.0,8.0,2297.9477000000475,269.0,,,,2302.143799999952,2302.642900000096,2301.6275,2302.1437000000474,2298.962900000095,2301.627400000096,2302.642900000096,2303.142900000096,2303.143,2305.324,1599.0,2305.324,3.0,2305.324200000048,8.0,10.0,250.0,14.0,1.0,1.6,0.3,Time
,,S62,1,female,22,anonymized,Serial_Dependence_U,2023.2.3,Win32,60.24096385542697,,,,,,2305.324400000095,328.0,8.0,2305.3245,328.0,,,,2308.8885999999043,2309.3875999999045,2308.3720999999045,2308.8885999999043,2306.3407000000475,2308.372,2309.3875999999045,2309.8872000000474,2309.8872000000474,2312.0687999999523,1367.0,2312.0689000000957,5.0,2312.069200000048,8.0,11.0,251.0,6.0,1.0,1.0,0.7,Time
