Scale_setup.started,Scale_setup.stopped,participant,session,sex,age,date,expName,psychopyVersion,OS,frameRate,Intro.started,Intro.stopped,key_resp_2.keys,key_resp_2.rt,key_resp_2.duration,block.started,direction,Block_id,block.stopped,trial_direction,Block_resp_2.keys,Block_resp_2.rt,Block_resp_2.duration,ITI.started,ITI.stopped,Mask_2.started,Mask_2.stopped,encoding.started,encoding.stopped,Cue.started,Cue.stopped,Response.started,Response.stopped,keyDuration,Feedback_Time.started,FeedbackID_T,Feedback_Time.stopped,trials.thisRepN,trials.thisTrialN,trials.thisN,trials.thisIndex,trials.ran,TimeDur,Coherence1,TrialType
9.99999642345e-05,0.0001999999880766,S63,1,男,20,anonymized,Serial_Dependence_U,2023.2.3,Win32,142.85714285714286,,,,,,,,,,,,,,,,,,,,,,,,,,,,,,,,,,,
,,S63,1,男,20,anonymized,Serial_Dependence_U,2023.2.3,Win32,142.85714285714286,52.59,271.4648999999762,space,218.854300000012,,,,,,,,,,,,,,,,,,,,,,,,,,,,,,,
,,S63,1,男,20,anonymized,Serial_Dependence_U,2023.2.3,Win32,142.85714285714286,,,,,,271.4696999999881,60.0,0.0,274.8058999999762,60.0,s,3.3220000000000027,,278.1775999999643,278.6778999999762,277.6721999999881,278.17750000000007,275.81100000000004,277.6720999999643,278.6780999999643,279.173300000012,279.1733999999762,282.226800000012,2256.0,282.2268999999762,5.0,283.2266999999881,0.0,0.0,0.0,10.0,1.0,0.8,0.3,Time
,,S63,1,男,20,anonymized,Serial_Dependence_U,2023.2.3,Win32,142.85714285714286,,,,,,283.22709999996425,300.0,0.0,283.22819999998814,300.0,,,,286.97119999998813,287.47100000000006,286.4701999999881,286.9710999999643,284.2356999999881,286.47,287.4710999999643,287.970800000012,287.970800000012,289.9150999999643,1479.0,289.9150999999643,4.0,290.91480000001195,0.0,1.0,1.0,17.0,1.0,1.2,0.7,Time
,,S63,1,男,20,anonymized,Serial_Dependence_U,2023.2.3,Win32,142.85714285714286,,,,,,290.91519999998815,37.0,0.0,290.91530000001194,37.0,,,,294.86350000000004,295.3630999999643,294.35900000000004,294.8633999999762,291.9218999999762,294.35900000000004,295.3630999999643,295.86300000000006,295.86300000000006,298.4553999999762,1519.0,298.4553999999762,4.0,299.4551999999881,0.0,2.0,2.0,8.0,1.0,1.4,0.7,Time
,,S63,1,男,20,anonymized,Serial_Dependence_U,2023.2.3,Win32,142.85714285714286,,,,,,299.45550000000003,211.0,0.0,299.4555999999643,211.0,,,,303.0313999999762,303.53069999998814,302.52450000000005,303.031300000012,300.46209999996427,302.52450000000005,303.53069999998814,304.03069999998814,304.03069999998814,305.995800000012,680.0,305.995800000012,1.0,306.9940999999643,0.0,3.0,3.0,1.0,1.0,1.0,0.3,Time
,,S63,1,男,20,anonymized,Serial_Dependence_U,2023.2.3,Win32,142.85714285714286,,,,,,306.9943999999762,313.0,0.0,306.9945,313.0,,,,310.3408999999762,310.84009999996425,309.833800000012,310.3408999999762,308.00059999996427,309.83369999998814,310.84009999996425,311.34000000000003,311.34000000000003,313.249800000012,1055.0,313.2498999999762,5.0,314.2493999999762,0.0,4.0,4.0,25.0,1.0,0.8,0.7,Time
,,S63,1,男,20,anonymized,Serial_Dependence_U,2023.2.3,Win32,142.85714285714286,,,,,,314.249800000012,229.0,0.0,314.2498999999762,229.0,,,,317.5828999999762,318.081800000012,317.082300000012,317.5828999999762,315.25000000000006,317.0821999999881,318.081800000012,318.5818999999762,318.5818999999762,320.79750000000007,1069.0,320.7975999999643,5.0,321.7971999999881,0.0,5.0,5.0,5.0,1.0,0.8,0.7,Time
,,S63,1,男,20,anonymized,Serial_Dependence_U,2023.2.3,Win32,142.85714285714286,,,,,,321.79750000000007,284.0,0.0,321.7975999999643,284.0,,,,325.97700000000003,326.4716999999881,325.4700999999643,325.97700000000003,322.80400000000003,325.4700999999643,326.4716999999881,326.971800000012,326.971800000012,328.74230000001194,1201.0,328.74230000001194,2.0,329.7418999999762,0.0,6.0,6.0,4.0,1.0,1.6,0.3,Time
,,S63,1,男,20,anonymized,Serial_Dependence_U,2023.2.3,Win32,142.85714285714286,,,,,,329.7423999999762,233.0,0.0,329.74250000000006,233.0,,,,333.5196999999881,334.0190999999643,333.01300000000003,333.5196999999881,330.747,333.012800000012,334.0190999999643,334.51900000000006,334.5190999999643,336.69950000000006,1076.0,336.6995999999643,2.0,337.699300000012,0.0,7.0,7.0,2.0,1.0,1.2,0.3,Time
,,S63,1,男,20,anonymized,Serial_Dependence_U,2023.2.3,Win32,142.85714285714286,,,,,,337.6996999999881,35.0,0.0,337.6998999999762,35.0,,,,341.47709999996425,341.9763999999762,340.9700999999643,341.47700000000003,338.70630000001194,340.9700999999643,341.9763999999762,342.476300000012,342.476300000012,344.1845,1028.0,344.1845999999643,2.0,345.18430000001194,0.0,8.0,8.0,22.0,1.0,1.2,0.3,Time
,,S63,1,男,20,anonymized,Serial_Dependence_U,2023.2.3,Win32,142.85714285714286,,,,,,345.18469999998814,268.0,0.0,345.18469999998814,268.0,,,,348.7325,349.232,348.22600000000006,348.7325,346.1911999999881,348.2258999999762,349.232,349.732,349.7320999999643,351.28819999998814,939.0,351.28819999998814,2.0,352.28730000001195,0.0,9.0,9.0,26.0,1.0,1.0,0.7,Time
,,S63,1,男,20,anonymized,Serial_Dependence_U,2023.2.3,Win32,142.85714285714286,,,,,,352.2875999999643,31.0,0.0,352.2876999999881,31.0,,,,356.4675999999643,356.967300000012,355.9608999999762,356.4675999999643,353.2945,355.9608999999762,356.967300000012,357.4671999999881,357.4671999999881,359.6473999999762,1604.0,359.64750000000004,3.0,360.6470000000001,0.0,10.0,10.0,24.0,1.0,1.6,0.3,Time
,,S63,1,男,20,anonymized,Serial_Dependence_U,2023.2.3,Win32,142.85714285714286,,,,,,360.6473999999762,213.0,0.0,360.6475,213.0,,,,364.395,364.894300000012,363.8881999999881,364.3948999999762,361.652300000012,363.8881999999881,364.894300000012,365.394300000012,365.394300000012,366.22069999998814,786.0,366.220800000012,1.0,367.21569999998815,0.0,11.0,11.0,7.0,1.0,1.2,0.7,Time
,,S63,1,男,20,anonymized,Serial_Dependence_U,2023.2.3,Win32,142.85714285714286,,,,,,367.21600000000007,66.0,0.0,367.2160999999643,66.0,,,,370.5973999999762,371.0968999999762,370.09069999998815,370.5973999999762,368.22350000000006,370.09069999998815,371.0968999999762,371.5968999999762,371.5968999999762,373.2078999999762,1005.0,373.2078999999762,4.0,374.205800000012,0.0,12.0,12.0,20.0,1.0,0.8,0.3,Time
,,S63,1,男,20,anonymized,Serial_Dependence_U,2023.2.3,Win32,142.85714285714286,,,,,,374.2060999999643,356.0,0.0,374.20619999998814,356.0,,,,377.747300000012,378.2465,377.2403999999762,377.74719999998814,375.2055,377.2403999999762,378.2465,378.7465999999643,378.7465999999643,380.16319999998814,897.0,380.16319999998814,2.0,381.1625,0.0,13.0,13.0,6.0,1.0,1.0,0.7,Time
,,S63,1,男,20,anonymized,Serial_Dependence_U,2023.2.3,Win32,142.85714285714286,,,,,,381.162800000012,32.0,0.0,381.16300000000007,32.0,,,,385.10909999996426,385.6086999999881,384.6070999999643,385.109,382.1696999999881,384.607,385.6086999999881,386.108800000012,386.108800000012,388.1641999999881,1597.0,388.1641999999881,4.0,389.162300000012,0.0,14.0,14.0,18.0,1.0,1.4,0.7,Time
,,S63,1,男,20,anonymized,Serial_Dependence_U,2023.2.3,Win32,142.85714285714286,,,,,,389.1623999999762,289.0,0.0,389.1625999999643,289.0,,,,393.1335999999643,393.63309999996426,392.6288999999762,393.1335999999643,390.167800000012,392.628800000012,393.63309999996426,394.1328999999762,394.1328999999762,395.7166999999881,1020.0,395.7166999999881,2.0,396.7160999999643,0.0,15.0,15.0,13.0,1.0,1.4,0.3,Time
,,S63,1,男,20,anonymized,Serial_Dependence_U,2023.2.3,Win32,142.85714285714286,,,,,,396.716300000012,307.0,0.0,396.716300000012,307.0,,,,400.6946999999881,401.1943999999762,400.18809999996427,400.6946999999881,397.7233999999762,400.1880000000001,401.1943999999762,401.69450000000006,401.69450000000006,403.278,1340.0,403.278,3.0,404.27709999996426,0.0,16.0,16.0,23.0,1.0,1.4,0.3,Time
,,S63,1,男,20,anonymized,Serial_Dependence_U,2023.2.3,Win32,142.85714285714286,,,,,,404.277300000012,201.0,0.0,404.2773999999762,201.0,,,,408.423300000012,408.92250000000007,407.9161999999881,408.4231999999881,405.2845,407.91600000000005,408.92250000000007,409.4223999999762,409.42250000000007,411.6445999999642,1638.0,411.6445999999642,3.0,412.644300000012,0.0,17.0,17.0,19.0,1.0,1.6,0.7,Time
,,S63,1,男,20,anonymized,Serial_Dependence_U,2023.2.3,Win32,142.85714285714286,,,,,,412.6445000000001,77.0,0.0,412.6445999999642,77.0,,,,416.6180999999643,417.117800000012,416.11159999996426,416.6180999999643,413.646300000012,416.1115,417.117800000012,417.6176999999881,417.617800000012,419.6313999999762,1403.0,419.6315,3.0,420.6310999999643,0.0,18.0,18.0,3.0,1.0,1.4,0.3,Time
,,S63,1,男,20,anonymized,Serial_Dependence_U,2023.2.3,Win32,142.85714285714286,,,,,,420.6315,184.0,0.0,420.6315999999643,184.0,,,,424.2073999999762,424.7070000000001,423.70059999996425,424.207300000012,421.638300000012,423.7005,424.7070000000001,425.2068999999762,425.2070000000001,426.6510999999643,936.0,426.65119999998814,2.0,427.6491999999881,0.0,19.0,19.0,21.0,1.0,1.0,0.3,Time
,,S63,1,男,20,anonymized,Serial_Dependence_U,2023.2.3,Win32,142.85714285714286,,,,,,427.6495000000001,348.0,0.0,427.64959999996427,348.0,,,,431.593300000012,432.0925999999643,431.0863999999762,431.593300000012,428.6488999999762,431.0863999999762,432.0925999999643,432.5925,432.5925999999643,434.73859999996426,1500.0,434.73859999996426,4.0,435.7398999999762,0.0,20.0,20.0,28.0,1.0,1.4,0.7,Time
,,S63,1,男,20,anonymized,Serial_Dependence_U,2023.2.3,Win32,142.85714285714286,,,,,,435.74019999998814,211.0,0.0,435.740300000012,211.0,,,,439.8835,440.382800000012,439.37700000000007,439.883300000012,436.74500000000006,439.3768999999762,440.382800000012,440.8828999999762,440.8828999999762,442.896800000012,1597.0,442.896800000012,3.0,443.89650000000006,0.0,21.0,21.0,9.0,1.0,1.6,0.7,Time
,,S63,1,男,20,anonymized,Serial_Dependence_U,2023.2.3,Win32,142.85714285714286,,,,,,443.8966999999881,111.0,0.0,443.896800000012,111.0,,,,447.4678999999762,447.9671999999881,446.9610999999643,447.4678999999762,444.8990999999643,446.96100000000007,447.9671999999881,448.46709999996426,448.46709999996426,449.9326999999881,1091.0,449.932800000012,4.0,450.930300000012,0.0,22.0,22.0,11.0,1.0,1.0,0.3,Time
,,S63,1,男,20,anonymized,Serial_Dependence_U,2023.2.3,Win32,142.85714285714286,,,,,,450.93050000000005,313.0,0.0,450.9305999999643,313.0,,,,454.4716999999881,454.97100000000006,453.9711999999881,454.4715999999642,451.9370999999643,453.9710999999643,454.97100000000006,455.4705,455.4705,457.0061999999881,1029.0,457.006300000012,3.0,458.0058999999762,0.0,23.0,23.0,16.0,1.0,1.0,0.7,Time
,,S63,1,男,20,anonymized,Serial_Dependence_U,2023.2.3,Win32,142.85714285714286,,,,,,458.0060999999643,106.0,0.0,458.0061999999881,106.0,,,,462.185800000012,462.685300000012,461.6786999999881,462.1856999999881,459.0123999999762,461.6786999999881,462.685300000012,463.1851999999881,463.185300000012,464.8516999999881,1375.0,464.851800000012,2.0,465.851800000012,0.0,24.0,24.0,14.0,1.0,1.6,0.3,Time
,,S63,1,男,20,anonymized,Serial_Dependence_U,2023.2.3,Win32,142.85714285714286,,,,,,465.85209999996425,104.0,0.0,465.85209999996425,104.0,,,,469.9966999999881,470.4966999999881,469.4900999999643,469.9966999999881,466.8581999999881,469.4898999999762,470.4966999999881,470.996300000012,470.996300000012,472.899300000012,1465.0,472.899300000012,2.0,473.89900000000006,0.0,25.0,25.0,29.0,1.0,1.6,0.7,Time
,,S63,1,男,20,anonymized,Serial_Dependence_U,2023.2.3,Win32,142.85714285714286,,,,,,473.8991999999881,342.0,0.0,473.899300000012,342.0,,,,477.6763000000119,478.17789999997615,477.1695,477.6763000000119,474.905800000012,477.1695,478.17789999997615,478.677699999988,478.677699999988,480.0581999999881,1041.0,480.0581999999881,2.0,481.0595,0.0,26.0,26.0,12.0,1.0,1.2,0.3,Time
,,S63,1,男,20,anonymized,Serial_Dependence_U,2023.2.3,Win32,142.85714285714286,,,,,,481.05980000001193,17.0,0.0,481.0598999999761,17.0,,,,484.434300000012,484.9338999999761,483.927699999988,484.434300000012,482.0665999999642,483.9275,484.9338999999761,485.4338999999761,485.4338999999761,486.871300000012,957.0,486.871300000012,4.0,487.8708999999761,0.0,27.0,27.0,0.0,1.0,0.8,0.3,Time
,,S63,1,男,20,anonymized,Serial_Dependence_U,2023.2.3,Win32,142.85714285714286,,,,,,487.87109999996426,74.0,0.0,487.8711999999881,74.0,,,,491.6188000000119,492.1183000000119,491.112,491.6185,488.87609999996425,491.1116999999881,492.1183000000119,492.6180999999642,492.6180999999642,493.93789999997614,964.0,493.93789999997614,2.0,494.9378000000119,0.0,28.0,28.0,27.0,1.0,1.2,0.7,Time
,,S63,1,男,20,anonymized,Serial_Dependence_U,2023.2.3,Win32,142.85714285714286,,,,,,494.9383000000119,25.0,0.0,494.9383999999761,25.0,,,,498.284,498.7860999999642,497.7773999999762,498.284,495.9445,497.7773999999762,498.7860999999642,499.2858999999761,499.286,500.966199999988,1021.0,500.9663000000119,4.0,501.9645999999642,0.0,29.0,29.0,15.0,1.0,0.8,0.7,Time
,,S63,1,男,20,anonymized,Serial_Dependence_U,2023.2.3,Win32,142.85714285714286,,,,,,501.9648000000119,235.0,1.0,530.8925,235.0,s,28.91599999999994,,534.8436999999881,535.3435,534.3368000000119,534.8433999999761,531.8995,534.336699999988,535.3435,535.8433999999761,535.8433999999761,537.5648999999761,1381.0,537.5650999999642,3.0,537.5653000000119,1.0,0.0,30.0,18.0,1.0,1.4,0.7,Time
,,S63,1,男,20,anonymized,Serial_Dependence_U,2023.2.3,Win32,142.85714285714286,,,,,,537.5653999999762,193.0,1.0,537.5663000000119,193.0,,,,540.9398000000119,541.4393000000119,540.4328999999761,540.9396999999881,538.572199999988,540.4328999999761,541.4393999999761,541.9393999999761,541.9393999999761,543.2863999999762,965.0,543.2863999999762,4.0,543.2866999999881,1.0,1.0,31.0,10.0,1.0,0.8,0.3,Time
,,S63,1,男,20,anonymized,Serial_Dependence_U,2023.2.3,Win32,142.85714285714286,,,,,,543.287,87.0,1.0,543.287,87.0,,,,547.036,547.5358000000119,546.5293000000119,547.036,544.2933999999761,546.5293000000119,547.5358000000119,548.035300000012,548.0353999999761,549.7693999999761,1180.0,549.7693999999761,3.0,549.7695999999643,1.0,2.0,32.0,7.0,1.0,1.2,0.7,Time
,,S63,1,男,20,anonymized,Serial_Dependence_U,2023.2.3,Win32,142.85714285714286,,,,,,549.7696999999881,167.0,1.0,549.7698000000119,167.0,,,,553.110199999988,553.6093000000119,552.609699999988,553.1100999999642,550.7768999999762,552.609699999988,553.6093000000119,554.1088999999762,554.1088999999762,555.5880999999642,953.0,555.5881999999881,4.0,555.5883000000119,1.0,3.0,33.0,15.0,1.0,0.8,0.7,Time
,,S63,1,男,20,anonymized,Serial_Dependence_U,2023.2.3,Win32,142.85714285714286,,,,,,555.5885,65.0,1.0,555.5885,65.0,,,,559.5390999999643,560.038699999988,559.0323000000119,559.5390999999643,556.5953999999762,559.032,560.038699999988,560.538199999988,560.538199999988,562.2814999999999,1180.0,562.2815999999642,2.0,562.2816999999881,1.0,4.0,34.0,28.0,1.0,1.4,0.7,Time
,,S63,1,男,20,anonymized,Serial_Dependence_U,2023.2.3,Win32,142.85714285714286,,,,,,562.2818999999762,259.0,1.0,562.282,259.0,,,,566.427199999988,566.9263999999762,565.9200999999642,566.427,563.2885999999643,565.92,566.9265,567.4263999999762,567.4263999999762,569.5791999999881,1514.0,569.5793000000119,2.0,569.5793999999761,1.0,5.0,35.0,29.0,1.0,1.6,0.7,Time
,,S63,1,男,20,anonymized,Serial_Dependence_U,2023.2.3,Win32,142.85714285714286,,,,,,569.5795999999642,243.0,1.0,569.5796999999881,243.0,,,,573.7245,574.2236999999881,573.2176999999881,573.7245,570.5853999999762,573.2176999999881,574.2238000000119,574.7239999999999,574.7239999999999,576.6895,1466.0,576.6895,2.0,576.6896999999881,1.0,6.0,36.0,19.0,1.0,1.6,0.7,Time
,,S63,1,男,20,anonymized,Serial_Dependence_U,2023.2.3,Win32,142.85714285714286,,,,,,576.6898999999761,166.0,1.0,576.6899999999999,166.0,,,,580.0655999999642,580.5654999999999,579.5590999999642,580.0655999999642,577.6955999999642,579.559,580.5654999999999,581.0653000000119,581.0653000000119,582.4401999999881,875.0,582.4401999999881,4.0,582.4405999999642,1.0,7.0,37.0,0.0,1.0,0.8,0.3,Time
,,S63,1,男,20,anonymized,Serial_Dependence_U,2023.2.3,Win32,142.85714285714286,,,,,,582.440699999988,177.0,1.0,582.4408000000119,177.0,,,,586.0161999999881,586.516,585.5095999999642,586.0160999999642,583.4470999999642,585.5095999999642,586.516,587.015800000012,587.0158999999761,588.1478000000119,764.0,588.1478000000119,2.0,588.148,1.0,8.0,38.0,11.0,1.0,1.0,0.3,Time
,,S63,1,男,20,anonymized,Serial_Dependence_U,2023.2.3,Win32,142.85714285714286,,,,,,588.148199999988,205.0,1.0,588.1483000000119,205.0,,,,591.925,592.4246999999881,591.4183999999761,591.925,589.1548999999761,591.418199999988,592.4248000000119,592.9246999999881,592.9246999999881,594.355,1083.0,594.355,2.0,594.355199999988,1.0,9.0,39.0,2.0,1.0,1.2,0.3,Time
,,S63,1,男,20,anonymized,Serial_Dependence_U,2023.2.3,Win32,142.85714285714286,,,,,,594.3553999999762,285.0,1.0,594.3555,285.0,,,,598.1323999999761,598.6318000000119,597.626,598.1323999999761,595.3620999999642,597.6258999999761,598.6318000000119,599.132,599.132,600.597300000012,1056.0,600.597300000012,2.0,600.5975999999642,1.0,10.0,40.0,12.0,1.0,1.2,0.3,Time
,,S63,1,男,20,anonymized,Serial_Dependence_U,2023.2.3,Win32,142.85714285714286,,,,,,600.597800000012,85.0,1.0,600.5978999999761,85.0,,,,604.3448000000119,604.8441999999881,603.838,604.3448000000119,601.6020999999643,603.837800000012,604.8441999999881,605.3440999999642,605.3440999999642,606.9555,1139.0,606.9555999999642,2.0,606.955699999988,1.0,11.0,41.0,27.0,1.0,1.2,0.7,Time
,,S63,1,男,20,anonymized,Serial_Dependence_U,2023.2.3,Win32,142.85714285714286,,,,,,606.9558999999762,230.0,1.0,606.9558999999762,230.0,,,,610.5313999999761,611.0308000000119,610.0245999999643,610.5311999999881,607.9621999999881,610.0245999999643,611.0308000000119,611.5306999999881,611.5308000000119,613.3175,1021.0,613.3175,3.0,613.3178999999761,1.0,12.0,42.0,21.0,1.0,1.0,0.3,Time
,,S63,1,男,20,anonymized,Serial_Dependence_U,2023.2.3,Win32,142.85714285714286,,,,,,613.318,280.0,1.0,613.3180999999643,280.0,,,,617.296699999988,617.7955999999642,616.7898999999761,617.296699999988,614.3243999999761,616.789800000012,617.7955999999642,618.2955999999642,618.2955999999642,620.0525,1250.0,620.0525,2.0,620.052699999988,1.0,13.0,43.0,13.0,1.0,1.4,0.3,Time
,,S63,1,男,20,anonymized,Serial_Dependence_U,2023.2.3,Win32,142.85714285714286,,,,,,620.0528999999761,314.0,1.0,620.053,314.0,,,,623.601,624.1003999999762,623.0940999999642,623.601,621.0595999999642,623.0939999999999,624.1005,624.6003000000119,624.6003999999762,625.8993000000119,807.0,625.8993000000119,2.0,625.8993999999761,1.0,14.0,44.0,16.0,1.0,1.0,0.7,Time
,,S63,1,男,20,anonymized,Serial_Dependence_U,2023.2.3,Win32,142.85714285714286,,,,,,625.8995999999643,160.0,1.0,625.8996999999881,160.0,,,,629.6765,630.1758999999762,629.1695,629.6763999999762,626.9058999999761,629.1695,630.1758999999762,630.6758999999762,630.6758999999762,632.2033999999761,1132.0,632.2035,2.0,632.2036999999881,1.0,15.0,45.0,22.0,1.0,1.2,0.3,Time
,,S63,1,男,20,anonymized,Serial_Dependence_U,2023.2.3,Win32,142.85714285714286,,,,,,632.2038000000119,167.0,1.0,632.2038999999761,167.0,,,,636.3489999999999,636.8486999999881,635.8421999999881,636.3488999999762,633.2103999999762,635.8420999999643,636.8486999999881,637.3485999999642,637.3486999999881,639.2858999999761,1486.0,639.2858999999761,2.0,639.2860999999642,1.0,16.0,46.0,9.0,1.0,1.6,0.7,Time
,,S63,1,男,20,anonymized,Serial_Dependence_U,2023.2.3,Win32,142.85714285714286,,,,,,639.2863000000119,28.0,1.0,639.2863000000119,28.0,,,,642.6268000000119,643.1233000000119,642.1235999999642,642.6268000000119,640.2906999999881,642.1235,643.1233000000119,643.6226999999881,643.6226999999881,645.061,757.0,645.0610999999642,2.0,645.061199999988,1.0,17.0,47.0,25.0,1.0,0.8,0.7,Time
,,S63,1,男,20,anonymized,Serial_Dependence_U,2023.2.3,Win32,142.85714285714286,,,,,,645.0613999999762,36.0,1.0,645.0613999999762,36.0,,,,649.2405999999643,649.7463999999761,648.7338999999762,649.2405999999643,646.0670999999642,648.7338000000119,649.7465,650.2426999999881,650.2426999999881,652.2144999999999,1513.0,652.2144999999999,2.0,652.2148000000119,1.0,18.0,48.0,4.0,1.0,1.6,0.3,Time
,,S63,1,男,20,anonymized,Serial_Dependence_U,2023.2.3,Win32,142.85714285714286,,,,,,652.2148999999762,143.0,1.0,652.2150999999642,143.0,,,,656.1908999999762,656.6905999999642,655.6865,656.1908999999762,653.2213000000119,655.6865,656.6905999999642,657.190699999988,657.1908000000119,658.6143000000119,1076.0,658.6143000000119,2.0,658.6143999999762,1.0,19.0,49.0,3.0,1.0,1.4,0.3,Time
,,S63,1,男,20,anonymized,Serial_Dependence_U,2023.2.3,Win32,142.85714285714286,,,,,,658.6145999999642,95.0,1.0,658.614699999988,95.0,,,,661.9608999999762,662.4605,661.4541999999881,661.9608999999762,659.6185999999642,661.4540999999642,662.4605,662.9598999999762,662.9598999999762,664.169,860.0,664.1690999999643,4.0,664.1693999999761,1.0,20.0,50.0,5.0,1.0,0.8,0.7,Time
,,S63,1,男,20,anonymized,Serial_Dependence_U,2023.2.3,Win32,142.85714285714286,,,,,,664.1695,292.0,1.0,664.1695999999642,292.0,,,,667.9115999999642,668.4065999999642,667.4045,667.9114999999999,665.1685,667.4045,668.4065999999642,668.9065999999642,668.9065999999642,670.6005,1054.0,670.6005999999642,2.0,670.600699999988,1.0,21.0,51.0,17.0,1.0,1.2,0.7,Time
,,S63,1,男,20,anonymized,Serial_Dependence_U,2023.2.3,Win32,142.85714285714286,,,,,,670.6008999999761,109.0,1.0,670.6008999999761,109.0,,,,674.1418000000119,674.6415,673.6351999999881,674.1416999999881,671.6008000000119,673.6350999999643,674.6415,675.1415,675.1415,676.5161999999881,951.0,676.5161999999881,3.0,676.5163999999761,1.0,22.0,52.0,26.0,1.0,1.0,0.7,Time
,,S63,1,男,20,anonymized,Serial_Dependence_U,2023.2.3,Win32,142.85714285714286,,,,,,676.5165999999642,180.0,1.0,676.5166999999881,180.0,,,,680.6965999999642,681.1958999999762,680.1896999999881,680.6965999999642,677.523199999988,680.1896999999881,681.1958999999762,681.696,681.696,683.7236999999881,1465.0,683.7236999999881,2.0,683.7238999999762,1.0,23.0,53.0,24.0,1.0,1.6,0.3,Time
,,S63,1,男,20,anonymized,Serial_Dependence_U,2023.2.3,Win32,142.85714285714286,,,,,,683.7240999999642,220.0,1.0,683.7241999999881,220.0,,,,687.6745,688.1740999999643,687.1678999999762,687.6743999999761,684.7305,687.1678000000119,688.1740999999643,688.674,688.674,690.306,1116.0,690.306,2.0,690.306199999988,1.0,24.0,54.0,8.0,1.0,1.4,0.7,Time
,,S63,1,男,20,anonymized,Serial_Dependence_U,2023.2.3,Win32,142.85714285714286,,,,,,690.3063999999762,175.0,1.0,690.3063999999762,175.0,,,,693.8818999999761,694.3815,693.3753000000119,693.8818999999761,691.3128000000119,693.3753000000119,694.3815,694.8813999999761,694.8815,696.3605,986.0,696.3605999999643,3.0,696.3608999999761,1.0,25.0,55.0,1.0,1.0,1.0,0.3,Time
,,S63,1,男,20,anonymized,Serial_Dependence_U,2023.2.3,Win32,142.85714285714286,,,,,,696.3610999999643,59.0,1.0,696.3611999999881,59.0,,,,700.5405,701.0403000000119,700.0338000000119,700.5405,697.3673999999761,700.0338000000119,701.0403000000119,701.5403000000119,701.5403999999761,703.29,1235.0,703.29,2.0,703.2903000000119,1.0,26.0,56.0,14.0,1.0,1.6,0.3,Time
,,S63,1,男,20,anonymized,Serial_Dependence_U,2023.2.3,Win32,142.85714285714286,,,,,,703.2905,307.0,1.0,703.2905999999642,307.0,,,,706.8386999999881,707.3378999999761,706.3313000000119,706.8385999999642,704.297,706.3313000000119,707.3378999999761,707.838,707.838,709.1365,1026.0,709.1365999999642,3.0,709.1368000000119,1.0,27.0,57.0,6.0,1.0,1.0,0.7,Time
,,S63,1,男,20,anonymized,Serial_Dependence_U,2023.2.3,Win32,142.85714285714286,,,,,,709.137,13.0,1.0,709.137,13.0,,,,713.115,713.615,712.6083000000119,713.1148999999762,710.1433000000119,712.6083000000119,713.6150999999642,714.1145999999642,714.1145999999642,715.975699999988,1451.0,715.975699999988,3.0,715.9758999999761,1.0,28.0,58.0,23.0,1.0,1.4,0.3,Time
,,S63,1,男,20,anonymized,Serial_Dependence_U,2023.2.3,Win32,142.85714285714286,,,,,,715.9760999999643,232.0,1.0,715.976199999988,232.0,,,,719.3433999999761,719.8428999999761,718.8365999999643,719.3433000000119,716.9758999999761,718.8365,719.8428999999761,720.3428999999761,720.3428999999761,721.586,923.0,721.586,4.0,721.5863000000119,1.0,29.0,59.0,20.0,1.0,0.8,0.3,Time
,,S63,1,男,20,anonymized,Serial_Dependence_U,2023.2.3,Win32,142.85714285714286,,,,,,721.5865,321.0,2.0,732.9245,321.0,s,11.327799999952276,,736.472800000012,736.9721999999881,735.9660999999642,736.472800000012,733.9313999999762,735.9660999999642,736.972300000012,737.472300000012,737.472300000012,738.6804999999999,847.0,738.6804999999999,2.0,738.6806999999881,2.0,0.0,60.0,6.0,1.0,1.0,0.7,Time
,,S63,1,男,20,anonymized,Serial_Dependence_U,2023.2.3,Win32,142.85714285714286,,,,,,738.6808999999762,273.0,2.0,738.682,273.0,,,,742.2295999999642,742.7281999999881,741.7220999999643,742.2293999999762,739.6875999999643,741.722,742.7283000000119,743.2281999999881,743.2281999999881,744.6380999999642,910.0,744.6380999999642,2.0,744.6383999999762,2.0,1.0,61.0,26.0,1.0,1.0,0.7,Time
,,S63,1,男,20,anonymized,Serial_Dependence_U,2023.2.3,Win32,142.85714285714286,,,,,,744.6385,125.0,2.0,744.6385999999642,125.0,,,,748.0126999999881,748.5123000000119,747.5060999999642,748.0126999999881,745.6448999999761,747.506,748.5123999999762,749.0120999999642,749.0120999999642,750.3246999999881,798.0,750.3246999999881,3.0,750.3249999999999,2.0,2.0,62.0,20.0,1.0,0.8,0.3,Time
,,S63,1,男,20,anonymized,Serial_Dependence_U,2023.2.3,Win32,142.85714285714286,,,,,,750.3250999999642,321.0,2.0,750.3251999999881,321.0,,,,753.900300000012,754.4001999999881,753.3938000000119,753.900300000012,751.331199999988,753.393699999988,754.4001999999881,754.9,754.9,756.1293000000119,909.0,756.1293000000119,2.0,756.1295999999642,2.0,3.0,63.0,21.0,1.0,1.0,0.3,Time
,,S63,1,男,20,anonymized,Serial_Dependence_U,2023.2.3,Win32,142.85714285714286,,,,,,756.1298000000119,236.0,2.0,756.1298999999761,236.0,,,,760.080199999988,760.5798999999762,759.5735,760.080199999988,757.1363999999761,759.5733999999761,760.5798999999762,761.0798000000119,761.0798000000119,762.524199999988,972.0,762.5243000000119,1.0,762.5243999999761,2.0,4.0,64.0,28.0,1.0,1.4,0.7,Time
,,S63,1,男,20,anonymized,Serial_Dependence_U,2023.2.3,Win32,142.85714285714286,,,,,,762.5245999999643,100.0,2.0,762.5246999999881,100.0,,,,766.0933000000119,766.5928999999761,765.5865999999643,766.0931999999881,763.524199999988,765.5865,766.5928999999761,767.092800000012,767.092800000012,768.384199999988,819.0,768.3843000000119,2.0,768.3843999999762,2.0,5.0,65.0,11.0,1.0,1.0,0.3,Time
,,S63,1,男,20,anonymized,Serial_Dependence_U,2023.2.3,Win32,142.85714285714286,,,,,,768.384699999988,117.0,2.0,768.3848000000119,117.0,,,,772.3616999999881,772.8603999999762,771.8565,772.3615999999643,769.3911999999881,771.8565,772.8603999999762,773.3605,773.3605,774.5760999999642,909.0,774.576199999988,1.0,774.5763999999762,2.0,6.0,66.0,23.0,1.0,1.4,0.3,Time
,,S63,1,男,20,anonymized,Serial_Dependence_U,2023.2.3,Win32,142.85714285714286,,,,,,774.5765,239.0,2.0,774.5765999999642,239.0,,,,778.7555,779.2550999999643,778.249199999988,778.7553999999761,775.5825,778.249199999988,779.255199999988,779.7553999999761,779.7553999999761,781.549,1409.0,781.5490999999643,2.0,781.5493999999761,2.0,7.0,67.0,24.0,1.0,1.6,0.3,Time
,,S63,1,男,20,anonymized,Serial_Dependence_U,2023.2.3,Win32,142.85714285714286,,,,,,781.5495999999642,201.0,2.0,781.5496999999881,201.0,,,,785.13,785.6288999999762,784.6235,785.13,782.5560999999642,784.6233000000119,785.6288999999762,786.1293999999762,786.1293999999762,787.423199999988,993.0,787.423199999988,3.0,787.4233999999761,2.0,8.0,68.0,1.0,1.0,1.0,0.3,Time
,,S63,1,男,20,anonymized,Serial_Dependence_U,2023.2.3,Win32,142.85714285714286,,,,,,787.4235,67.0,2.0,787.4236999999881,67.0,,,,790.77,791.2696999999881,790.2633999999762,790.7698999999761,788.4303000000119,790.2633000000119,791.2696999999881,791.7695999999643,791.7695999999643,792.7625999999642,604.0,792.7626999999881,2.0,792.7628999999762,2.0,9.0,69.0,25.0,1.0,0.8,0.7,Time
,,S63,1,男,20,anonymized,Serial_Dependence_U,2023.2.3,Win32,142.85714285714286,,,,,,792.763,134.0,2.0,792.7630999999642,134.0,,,,796.7415,797.2408000000119,796.2345999999642,796.7413999999761,793.7695999999643,796.2345999999642,797.2408000000119,797.741,797.741,799.0741999999881,979.0,799.0741999999881,1.0,799.0743999999761,2.0,10.0,70.0,3.0,1.0,1.4,0.3,Time
,,S63,1,男,20,anonymized,Serial_Dependence_U,2023.2.3,Win32,142.85714285714286,,,,,,799.0745999999642,179.0,2.0,799.0746999999881,179.0,,,,802.4209999999999,802.9206999999881,801.9143999999761,802.4209999999999,800.081,801.9143999999761,802.9206999999881,803.4203999999761,803.4205,804.8163000000119,618.0,804.8163000000119,2.0,804.8165999999642,2.0,11.0,71.0,5.0,1.0,0.8,0.7,Time
,,S63,1,男,20,anonymized,Serial_Dependence_U,2023.2.3,Win32,142.85714285714286,,,,,,804.8168000000119,31.0,2.0,804.8168000000119,31.0,,,,808.7948999999761,809.294800000012,808.288199999988,808.7948999999761,805.823300000012,808.2880999999642,809.294800000012,809.7948999999761,809.7948999999761,811.461199999988,1305.0,811.461199999988,2.0,811.4613999999762,2.0,12.0,72.0,13.0,1.0,1.4,0.3,Time
,,S63,1,男,20,anonymized,Serial_Dependence_U,2023.2.3,Win32,142.85714285714286,,,,,,811.4615999999643,174.0,2.0,811.4615999999643,174.0,,,,815.6413999999761,816.1408999999761,815.134699999988,815.6413999999761,812.4680999999642,815.1345999999642,816.1408999999761,816.6408999999761,816.641,818.578300000012,1520.0,818.578300000012,2.0,818.5785,2.0,13.0,73.0,4.0,1.0,1.6,0.3,Time
,,S63,1,男,20,anonymized,Serial_Dependence_U,2023.2.3,Win32,142.85714285714286,,,,,,818.5788000000119,175.0,2.0,818.5788999999761,175.0,,,,822.328,822.827199999988,821.8208999999762,822.327800000012,819.5850999999642,821.8208999999762,822.8273000000119,823.3275,823.3275,824.6883000000118,1007.0,824.6883999999761,2.0,824.6885999999643,2.0,14.0,74.0,17.0,1.0,1.2,0.7,Time
,,S63,1,男,20,anonymized,Serial_Dependence_U,2023.2.3,Win32,142.85714285714286,,,,,,824.6888999999761,179.0,2.0,824.6888999999761,179.0,,,,828.8338000000119,829.3335,828.3270999999643,828.8338000000119,825.6951999999881,828.3270999999643,829.3335,829.8331999999881,829.833300000012,831.729,1506.0,831.729,2.0,831.729199999988,2.0,15.0,75.0,29.0,1.0,1.6,0.7,Time
,,S63,1,男,20,anonymized,Serial_Dependence_U,2023.2.3,Win32,142.85714285714286,,,,,,831.7295,215.0,2.0,831.7295,215.0,,,,835.909,836.4090999999643,835.4023999999762,835.909,832.736,835.4023000000119,836.4090999999643,836.9088999999761,836.9088999999761,838.4780999999642,1097.0,838.4780999999642,1.0,838.4783999999761,2.0,16.0,76.0,14.0,1.0,1.6,0.3,Time
,,S63,1,男,20,anonymized,Serial_Dependence_U,2023.2.3,Win32,142.85714285714286,,,,,,838.4785999999642,355.0,2.0,838.4786999999881,355.0,,,,841.8513000000119,842.3500999999642,841.3460999999642,841.851199999988,839.4848999999762,841.346,842.3500999999642,842.85,842.85,844.3433000000119,909.0,844.3433000000119,4.0,844.3435,2.0,17.0,77.0,0.0,1.0,0.8,0.3,Time
,,S63,1,男,20,anonymized,Serial_Dependence_U,2023.2.3,Win32,142.85714285714286,,,,,,844.3435999999642,345.0,2.0,844.3436999999881,345.0,,,,847.717800000012,848.2171999999881,847.211,847.7176999999881,845.35,847.2108999999762,848.217300000012,848.7168999999761,848.7168999999761,850.023,805.0,850.023,3.0,850.023199999988,2.0,18.0,78.0,10.0,1.0,0.8,0.3,Time
,,S63,1,男,20,anonymized,Serial_Dependence_U,2023.2.3,Win32,142.85714285714286,,,,,,850.0233999999762,101.0,2.0,850.0235,101.0,,,,853.7675999999642,854.2669999999999,853.260800000012,853.7675,851.0296999999881,853.2606999999881,854.2669999999999,854.7669999999999,854.7669999999999,856.246300000012,1083.0,856.246300000012,2.0,856.2465,2.0,19.0,79.0,7.0,1.0,1.2,0.7,Time
,,S63,1,男,20,anonymized,Serial_Dependence_U,2023.2.3,Win32,142.85714285714286,,,,,,856.2466999999881,354.0,2.0,856.246800000012,354.0,,,,859.7875999999642,860.2870999999642,859.2805,859.7875,857.2463999999761,859.2803999999761,860.287199999988,860.7870999999642,860.7870999999642,861.8215,688.0,861.8215999999642,1.0,861.8218000000119,2.0,20.0,80.0,16.0,1.0,1.0,0.7,Time
,,S63,1,男,20,anonymized,Serial_Dependence_U,2023.2.3,Win32,142.85714285714286,,,,,,861.822,212.0,2.0,861.8220999999642,212.0,,,,865.5989999999999,866.0986999999881,865.0923999999761,865.5988999999762,862.8283999999761,865.0923999999761,866.0988000000119,866.5988999999762,866.5988999999762,868.2303999999762,1048.0,868.2303999999762,2.0,868.2305999999642,2.0,21.0,81.0,2.0,1.0,1.2,0.3,Time
,,S63,1,男,20,anonymized,Serial_Dependence_U,2023.2.3,Win32,142.85714285714286,,,,,,868.2308000000119,244.0,2.0,868.2308999999761,244.0,,,,872.008,872.5078000000119,871.5011999999881,872.0078999999762,869.2373999999761,871.5010999999643,872.5078000000119,873.0073999999761,873.0074999999999,874.5213000000119,1069.0,874.5213000000119,2.0,874.5215,2.0,22.0,82.0,12.0,1.0,1.2,0.3,Time
,,S63,1,男,20,anonymized,Serial_Dependence_U,2023.2.3,Win32,142.85714285714286,,,,,,874.5216999999881,173.0,2.0,874.5218000000119,173.0,,,,878.6651999999881,879.1641999999881,878.1595999999643,878.6650999999642,875.528199999988,878.1595999999643,879.1641999999881,879.664,879.664,881.6221999999881,1444.0,881.6221999999881,2.0,881.6223999999761,2.0,23.0,83.0,19.0,1.0,1.6,0.7,Time
,,S63,1,男,20,anonymized,Serial_Dependence_U,2023.2.3,Win32,142.85714285714286,,,,,,881.6225999999642,57.0,2.0,881.6226999999881,57.0,,,,885.371300000012,885.871,884.865199999988,885.3711999999881,882.6283000000119,884.865199999988,885.8710999999643,886.3708999999761,886.371,887.9338999999761,1034.0,887.9338999999761,2.0,887.9340999999642,2.0,24.0,84.0,27.0,1.0,1.2,0.7,Time
,,S63,1,男,20,anonymized,Serial_Dependence_U,2023.2.3,Win32,142.85714285714286,,,,,,887.934300000012,313.0,2.0,887.934300000012,313.0,,,,891.8848000000119,892.384199999988,891.378199999988,891.8848000000119,888.9405999999642,891.3780999999642,892.384199999988,892.884199999988,892.884199999988,894.8288000000119,1395.0,894.8288000000119,3.0,894.8290999999642,2.0,25.0,85.0,8.0,1.0,1.4,0.7,Time
,,S63,1,男,20,anonymized,Serial_Dependence_U,2023.2.3,Win32,142.85714285714286,,,,,,894.8291999999881,95.0,2.0,894.8293000000119,95.0,,,,898.779199999988,899.2788999999761,898.272699999988,898.779199999988,895.8353000000119,898.272699999988,899.2788999999761,899.7788999999761,899.7788999999761,901.1405,1009.0,901.1405,2.0,901.140699999988,2.0,26.0,86.0,18.0,1.0,1.4,0.7,Time
,,S63,1,男,20,anonymized,Serial_Dependence_U,2023.2.3,Win32,142.85714285714286,,,,,,901.140899999976,344.0,2.0,901.141,344.0,,,,905.284800000012,905.785,904.7785,905.284800000012,902.1468999999762,904.7785,905.7850999999642,906.285,906.285,908.028,1416.0,908.0280999999642,2.0,908.028300000012,2.0,27.0,87.0,9.0,1.0,1.6,0.7,Time
,,S63,1,男,20,anonymized,Serial_Dependence_U,2023.2.3,Win32,142.85714285714286,,,,,,908.0285,217.0,2.0,908.0285999999642,217.0,,,,911.8050999999642,912.3045,911.298300000012,911.805,909.034800000012,911.298300000012,912.3045,912.804800000012,912.804800000012,914.3605,1014.0,914.3605999999644,2.0,914.360699999988,2.0,28.0,88.0,22.0,1.0,1.2,0.3,Time
,,S63,1,男,20,anonymized,Serial_Dependence_U,2023.2.3,Win32,142.85714285714286,,,,,,914.360899999976,297.0,2.0,914.360899999976,297.0,,,,917.707,918.206800000012,917.200800000012,917.706899999976,915.367,917.200800000012,918.206800000012,918.7063999999762,918.7063999999762,919.568300000012,542.0,919.568399999976,1.0,919.568699999988,2.0,29.0,89.0,15.0,1.0,0.8,0.7,Time
,,S63,1,男,20,anonymized,Serial_Dependence_U,2023.2.3,Win32,142.85714285714286,,,,,,919.568800000012,157.0,3.0,1052.2233999999762,157.0,s,132.64419999998802,,1055.5980999999642,1056.0975,1055.0915999999645,1055.598,1053.2305999999642,1055.0915999999645,1056.0975,1056.5978000000118,1056.5978000000118,1057.7228000000118,798.0,1057.722899999976,3.0,1057.7230999999642,3.0,0.0,90.0,0.0,1.0,0.8,0.3,Time
,,S63,1,男,20,anonymized,Serial_Dependence_U,2023.2.3,Win32,142.85714285714286,,,,,,1057.723199999988,180.0,3.0,1057.724199999988,180.0,,,,1061.102099999964,1061.6015999999645,1060.5950999999643,1061.102099999964,1058.7298999999762,1060.5950999999643,1061.6015999999645,1062.101300000012,1062.101300000012,1063.136599999964,757.0,1063.136599999964,2.0,1063.1368000000118,3.0,1.0,91.0,10.0,1.0,0.8,0.3,Time
,,S63,1,男,20,anonymized,Serial_Dependence_U,2023.2.3,Win32,142.85714285714286,,,,,,1063.137,128.0,3.0,1063.1370999999642,128.0,,,,1066.709399999976,1067.204699999988,1066.205800000012,1066.709399999976,1064.1425999999642,1066.2055999999643,1067.2048000000118,1067.705,1067.705,1068.943300000012,923.0,1068.9433999999762,2.0,1068.9435,3.0,2.0,92.0,1.0,1.0,1.0,0.3,Time
,,S63,1,男,20,anonymized,Serial_Dependence_U,2023.2.3,Win32,142.85714285714286,,,,,,1068.943699999988,288.0,3.0,1068.9438000000118,288.0,,,,1072.2833999999762,1072.7826999999882,1071.776399999976,1072.283300000012,1069.9430999999645,1071.776399999976,1072.7826999999882,1073.2826999999882,1073.2826999999882,1074.393699999988,667.0,1074.393800000012,2.0,1074.3938999999762,3.0,3.0,93.0,25.0,1.0,0.8,0.7,Time
,,S63,1,男,20,anonymized,Serial_Dependence_U,2023.2.3,Win32,142.85714285714286,,,,,,1074.3940999999645,233.0,3.0,1074.394199999988,233.0,,,,1077.733899999976,1078.233199999988,1077.227,1077.7338000000118,1075.394,1077.227,1078.233199999988,1078.733199999988,1078.733300000012,1079.8235999999642,708.0,1079.8235999999642,2.0,1079.823800000012,3.0,4.0,94.0,15.0,1.0,0.8,0.7,Time
,,S63,1,男,20,anonymized,Serial_Dependence_U,2023.2.3,Win32,142.85714285714286,,,,,,1079.824,308.0,3.0,1079.824199999988,308.0,,,,1083.593800000012,1084.0935999999642,1083.0870999999645,1083.593800000012,1080.823699999988,1083.087,1084.0935999999642,1084.593399999976,1084.593399999976,1085.933599999964,854.0,1085.933599999964,2.0,1085.9338000000118,3.0,5.0,95.0,12.0,1.0,1.2,0.3,Time
,,S63,1,男,20,anonymized,Serial_Dependence_U,2023.2.3,Win32,142.85714285714286,,,,,,1085.934,198.0,3.0,1085.9340999999642,198.0,,,,1089.912699999988,1090.412,1089.405699999988,1089.9125999999642,1086.9405999999642,1089.405699999988,1090.412,1090.9120999999643,1090.9120999999643,1092.5855999999642,1146.0,1092.585699999988,2.0,1092.585800000012,3.0,6.0,96.0,13.0,1.0,1.4,0.3,Time
,,S63,1,男,20,anonymized,Serial_Dependence_U,2023.2.3,Win32,142.85714285714286,,,,,,1092.586,181.0,3.0,1092.5860999999643,181.0,,,,1096.1338999999762,1096.633399999976,1095.6270999999642,1096.1338999999762,1093.592399999976,1095.627,1096.633399999976,1097.133399999976,1097.133399999976,1098.7440999999642,882.0,1098.744199999988,2.0,1098.7443999999762,3.0,7.0,97.0,16.0,1.0,1.0,0.7,Time
,,S63,1,男,20,anonymized,Serial_Dependence_U,2023.2.3,Win32,142.85714285714286,,,,,,1098.7445999999643,299.0,3.0,1098.7445999999643,299.0,,,,1102.292699999988,1102.792199999988,1101.785699999988,1102.2925999999643,1099.7515,1101.7855999999642,1102.792300000012,1103.2916999999882,1103.291800000012,1104.507099999964,902.0,1104.507199999988,2.0,1104.5073000000118,3.0,8.0,98.0,26.0,1.0,1.0,0.7,Time
,,S63,1,男,20,anonymized,Serial_Dependence_U,2023.2.3,Win32,142.85714285714286,,,,,,1104.5075,317.0,3.0,1104.507699999988,317.0,,,,1108.2845999999645,1108.784,1107.7778999999762,1108.2845,1105.514300000012,1107.777800000012,1108.784,1109.284199999988,1109.284199999988,1110.694199999988,890.0,1110.694300000012,2.0,1110.6943999999762,3.0,9.0,99.0,2.0,1.0,1.2,0.3,Time
,,S63,1,男,20,anonymized,Serial_Dependence_U,2023.2.3,Win32,142.85714285714286,,,,,,1110.694599999964,275.0,3.0,1110.694699999988,275.0,,,,1114.0615999999643,1114.5613999999762,1113.555,1114.0615,1111.694199999988,1113.554800000012,1114.5613999999762,1115.0615999999643,1115.0615999999643,1116.5263000000118,805.0,1116.526399999976,3.0,1116.5265999999642,3.0,10.0,100.0,20.0,1.0,0.8,0.3,Time
,,S63,1,男,20,anonymized,Serial_Dependence_U,2023.2.3,Win32,142.85714285714286,,,,,,1116.526699999988,165.0,3.0,1116.526800000012,165.0,,,,1120.276,1120.7755,1119.769300000012,1120.2758999999762,1117.5333999999762,1119.769199999988,1120.7755,1121.2753000000118,1121.2753000000118,1122.713,951.0,1122.713,2.0,1122.713199999988,3.0,11.0,101.0,27.0,1.0,1.2,0.7,Time
,,S63,1,男,20,anonymized,Serial_Dependence_U,2023.2.3,Win32,142.85714285714286,,,,,,1122.713300000012,234.0,3.0,1122.7135,234.0,,,,1126.691800000012,1127.191300000012,1126.185,1126.691699999988,1123.719800000012,1126.184899999976,1127.191300000012,1127.691300000012,1127.691300000012,1128.975699999988,936.0,1128.975800000012,1.0,1128.976,3.0,12.0,102.0,23.0,1.0,1.4,0.3,Time
,,S63,1,男,20,anonymized,Serial_Dependence_U,2023.2.3,Win32,142.85714285714286,,,,,,1128.976199999988,101.0,3.0,1128.976300000012,101.0,,,,1133.155599999964,1133.655599999964,1132.649199999988,1133.1555,1129.982899999976,1132.649199999988,1133.655699999988,1134.1553999999762,1134.1553999999762,1135.8985999999643,1416.0,1135.8985999999643,2.0,1135.898800000012,3.0,13.0,103.0,14.0,1.0,1.6,0.3,Time
,,S63,1,男,20,anonymized,Serial_Dependence_U,2023.2.3,Win32,142.85714285714286,,,,,,1135.898899999976,36.0,3.0,1135.899,36.0,,,,1139.877,1140.376599999964,1139.3705,1139.877,1136.9050999999642,1139.370399999976,1140.376699999988,1140.876899999976,1140.876899999976,1142.647199999988,1423.0,1142.647199999988,3.0,1142.6475,3.0,14.0,104.0,3.0,1.0,1.4,0.3,Time
,,S63,1,男,20,anonymized,Serial_Dependence_U,2023.2.3,Win32,142.85714285714286,,,,,,1142.6476999999882,165.0,3.0,1142.647800000012,165.0,,,,1146.827599999964,1147.327,1146.3205999999643,1146.8273999999765,1143.654300000012,1146.3205999999643,1147.327,1147.8270999999645,1147.8270999999645,1149.521300000012,1186.0,1149.5213999999762,2.0,1149.521599999964,3.0,15.0,105.0,4.0,1.0,1.6,0.3,Time
,,S63,1,男,20,anonymized,Serial_Dependence_U,2023.2.3,Win32,142.85714285714286,,,,,,1149.5218000000118,267.0,3.0,1149.521899999976,267.0,,,,1153.472300000012,1153.971800000012,1152.965699999988,1153.472300000012,1150.528,1152.9655999999643,1153.971800000012,1154.471699999988,1154.471800000012,1156.082699999988,1034.0,1156.082699999988,2.0,1156.0828999999762,3.0,16.0,106.0,28.0,1.0,1.4,0.7,Time
,,S63,1,男,20,anonymized,Serial_Dependence_U,2023.2.3,Win32,142.85714285714286,,,,,,1156.083099999964,36.0,3.0,1156.083099999964,36.0,,,,1159.8325,1160.332,1159.3258999999762,1159.8325,1157.089800000012,1159.325800000012,1160.3320999999642,1160.832,1160.8320999999642,1162.449699999988,1097.0,1162.449800000012,2.0,1162.45,3.0,17.0,107.0,17.0,1.0,1.2,0.7,Time
,,S63,1,男,20,anonymized,Serial_Dependence_U,2023.2.3,Win32,142.85714285714286,,,,,,1162.4503000000118,121.0,3.0,1162.4503000000118,121.0,,,,1166.6300999999642,1167.1295,1166.123399999976,1166.63,1163.456800000012,1166.1233000000118,1167.1295999999645,1167.6295,1167.6295,1169.3725999999642,1396.0,1169.3725999999642,2.0,1169.372699999988,3.0,18.0,108.0,24.0,1.0,1.6,0.3,Time
,,S63,1,男,20,anonymized,Serial_Dependence_U,2023.2.3,Win32,142.85714285714286,,,,,,1169.373,130.0,3.0,1169.3730999999643,130.0,,,,1172.719699999988,1173.2188999999762,1172.212699999988,1172.7195999999642,1170.379300000012,1172.212699999988,1173.2188999999762,1173.7188999999762,1173.719,1174.9411999999882,763.0,1174.941300000012,3.0,1174.9415,3.0,19.0,109.0,5.0,1.0,0.8,0.7,Time
,,S63,1,男,20,anonymized,Serial_Dependence_U,2023.2.3,Win32,142.85714285714286,,,,,,1174.9415999999642,291.0,3.0,1174.941800000012,291.0,,,,1178.892199999988,1179.3915999999642,1178.385300000012,1178.8920999999643,1175.9483000000118,1178.385199999988,1179.3915999999642,1179.8915999999642,1179.891699999988,1181.6415999999642,1353.0,1181.6415999999642,3.0,1181.641800000012,3.0,20.0,110.0,18.0,1.0,1.4,0.7,Time
,,S63,1,男,20,anonymized,Serial_Dependence_U,2023.2.3,Win32,142.85714285714286,,,,,,1181.642,240.0,3.0,1181.6420999999643,240.0,,,,1185.786699999988,1186.2865,1185.280199999988,1185.7865999999642,1182.6485999999643,1185.2800999999642,1186.2865,1186.786399999976,1186.786399999976,1188.7515,1352.0,1188.7515,2.0,1188.7518000000118,3.0,21.0,111.0,29.0,1.0,1.6,0.7,Time
,,S63,1,男,20,anonymized,Serial_Dependence_U,2023.2.3,Win32,142.85714285714286,,,,,,1188.752,346.0,3.0,1188.7520999999642,346.0,,,,1192.526199999988,1193.026199999988,1192.020300000012,1192.526199999988,1189.7588999999762,1192.020199999988,1193.026199999988,1193.5263000000118,1193.526399999976,1195.1998999999762,1000.0,1195.2,2.0,1195.2001999999882,3.0,22.0,112.0,22.0,1.0,1.2,0.3,Time
,,S63,1,男,20,anonymized,Serial_Dependence_U,2023.2.3,Win32,142.85714285714286,,,,,,1195.200399999976,237.0,3.0,1195.2005,237.0,,,,1198.7758999999762,1199.2753000000118,1198.269,1198.7758999999762,1196.2065999999645,1198.2688999999762,1199.275399999976,1199.775399999976,1199.775399999976,1201.532300000012,1152.0,1201.532300000012,4.0,1201.5325,3.0,23.0,113.0,11.0,1.0,1.0,0.3,Time
,,S63,1,男,20,anonymized,Serial_Dependence_U,2023.2.3,Win32,142.85714285714286,,,,,,1201.5326999999882,177.0,3.0,1201.5326999999882,177.0,,,,1205.678199999988,1206.176899999976,1205.1711999999882,1205.6780999999642,1202.5380999999643,1205.171,1206.176899999976,1206.676899999976,1206.676899999976,1208.7465999999642,1423.0,1208.7465999999642,2.0,1208.746800000012,3.0,24.0,114.0,19.0,1.0,1.6,0.7,Time
,,S63,1,男,20,anonymized,Serial_Dependence_U,2023.2.3,Win32,142.85714285714286,,,,,,1208.7468999999762,278.0,3.0,1208.747,278.0,,,,1212.2945,1212.794099999964,1211.787800000012,1212.2945,1209.7533999999762,1211.787800000012,1212.794199999988,1213.294199999988,1213.2943000000118,1214.7458999999762,840.0,1214.746,2.0,1214.746099999964,3.0,25.0,115.0,6.0,1.0,1.0,0.7,Time
,,S63,1,男,20,anonymized,Serial_Dependence_U,2023.2.3,Win32,142.85714285714286,,,,,,1214.746199999988,55.0,3.0,1214.746399999976,55.0,,,,1218.6938000000118,1219.1888999999762,1218.189399999976,1218.693599999964,1215.7523999999762,1218.189399999976,1219.189,1219.689,1219.689,1221.598899999976,1355.0,1221.599,3.0,1221.599199999988,3.0,26.0,116.0,8.0,1.0,1.4,0.7,Time
,,S63,1,男,20,anonymized,Serial_Dependence_U,2023.2.3,Win32,142.85714285714286,,,,,,1221.599300000012,116.0,3.0,1221.5993999999762,116.0,,,,1225.174599999964,1225.674199999988,1224.667899999976,1225.174599999964,1222.605699999988,1224.667800000012,1225.674199999988,1226.173899999976,1226.173899999976,1227.9523999999765,931.0,1227.9525,2.0,1227.952599999964,3.0,27.0,117.0,21.0,1.0,1.0,0.3,Time
,,S63,1,男,20,anonymized,Serial_Dependence_U,2023.2.3,Win32,142.85714285714286,,,,,,1227.952699999988,125.0,3.0,1227.9528000000118,125.0,,,,1232.0970999999645,1232.596800000012,1231.590300000012,1232.0970999999645,1228.958699999988,1231.590300000012,1232.596800000012,1233.096699999988,1233.096699999988,1235.305199999988,1590.0,1235.3053000000118,3.0,1235.305399999976,3.0,28.0,118.0,9.0,1.0,1.6,0.7,Time
,,S63,1,男,20,anonymized,Serial_Dependence_U,2023.2.3,Win32,142.85714285714286,,,,,,1235.3055999999642,45.0,3.0,1235.305699999988,45.0,,,,1239.0498000000118,1239.549199999988,1238.543,1239.049699999988,1236.311899999976,1238.543,1239.549300000012,1240.049300000012,1240.049300000012,1242.23,1305.0,1242.23,4.0,1242.2300999999643,3.0,29.0,119.0,7.0,1.0,1.2,0.7,Time
,,S63,1,男,20,anonymized,Serial_Dependence_U,2023.2.3,Win32,142.85714285714286,,,,,,1242.230300000012,81.0,4.0,1244.840699999988,81.0,s,2.6014999999999877,,1248.4165,1248.9158000000118,1247.909699999988,1248.4163999999762,1245.847300000012,1247.9095999999645,1248.9158000000118,1249.416,1249.416,1250.943300000012,882.0,1250.943300000012,2.0,1250.9435,4.0,0.0,120.0,21.0,1.0,1.0,0.3,Time
,,S63,1,男,20,anonymized,Serial_Dependence_U,2023.2.3,Win32,142.85714285714286,,,,,,1250.9438000000118,247.0,4.0,1250.944699999988,247.0,,,,1254.8945999999642,1255.393800000012,1254.3876999999882,1254.8945999999642,1251.9505999999642,1254.3875999999643,1255.393800000012,1255.894,1255.894,1257.707,1203.0,1257.707,2.0,1257.707199999988,4.0,1.0,121.0,28.0,1.0,1.4,0.7,Time
,,S63,1,男,20,anonymized,Serial_Dependence_U,2023.2.3,Win32,142.85714285714286,,,,,,1257.707399999976,359.0,4.0,1257.7075,359.0,,,,1261.053399999976,1261.5530999999642,1260.546699999988,1261.053300000012,1258.7135,1260.5465999999642,1261.553199999988,1262.052899999976,1262.052899999976,1263.365399999976,798.0,1263.365399999976,3.0,1263.3655999999642,4.0,2.0,122.0,5.0,1.0,0.8,0.7,Time
,,S63,1,男,20,anonymized,Serial_Dependence_U,2023.2.3,Win32,142.85714285714286,,,,,,1263.365800000012,167.0,4.0,1263.365899999976,167.0,,,,1266.712,1267.211899999976,1266.2055,1266.711899999976,1264.372199999988,1266.2055,1267.211899999976,1267.711699999988,1267.711699999988,1268.9068000000118,758.0,1268.9068000000118,2.0,1268.907,4.0,3.0,123.0,15.0,1.0,0.8,0.7,Time
,,S63,1,男,20,anonymized,Serial_Dependence_U,2023.2.3,Win32,142.85714285714286,,,,,,1268.907199999988,284.0,4.0,1268.907300000012,284.0,,,,1272.280899999976,1272.780300000012,1271.7740999999642,1272.280899999976,1269.9130999999643,1271.774,1272.7803999999762,1273.280300000012,1273.2803999999762,1274.551,812.0,1274.5510999999642,3.0,1274.551300000012,4.0,4.0,124.0,10.0,1.0,0.8,0.3,Time
,,S63,1,男,20,anonymized,Serial_Dependence_U,2023.2.3,Win32,142.85714285714286,,,,,,1274.5515,14.0,4.0,1274.5515999999643,14.0,,,,1278.731300000012,1279.230699999988,1278.2243999999762,1278.731199999988,1275.5580999999645,1278.2243999999762,1279.230699999988,1279.730800000012,1279.730800000012,1281.4250999999642,1340.0,1281.4250999999642,2.0,1281.425300000012,4.0,5.0,125.0,14.0,1.0,1.6,0.3,Time
,,S63,1,男,20,anonymized,Serial_Dependence_U,2023.2.3,Win32,142.85714285714286,,,,,,1281.4255999999643,284.0,4.0,1281.4255999999643,284.0,,,,1285.5635999999645,1286.0628999999765,1285.056800000012,1285.5635,1282.4250999999642,1285.056699999988,1286.063,1286.5630999999642,1286.5630999999642,1287.8890999999642,818.0,1287.889199999988,1.0,1287.889399999976,4.0,6.0,126.0,29.0,1.0,1.6,0.7,Time
,,S63,1,男,20,anonymized,Serial_Dependence_U,2023.2.3,Win32,142.85714285714286,,,,,,1287.8895999999645,72.0,4.0,1287.889699999988,72.0,,,,1291.6666999999882,1292.1665,1291.16,1291.6665999999643,1288.8963999999762,1291.1598999999762,1292.1665,1292.666300000012,1292.6663999999762,1294.4160999999642,1382.0,1294.416199999988,4.0,1294.4163999999762,4.0,7.0,127.0,22.0,1.0,1.2,0.3,Time
,,S63,1,男,20,anonymized,Serial_Dependence_U,2023.2.3,Win32,142.85714285714286,,,,,,1294.4165,190.0,4.0,1294.4165999999643,190.0,,,,1298.1585999999645,1298.6583999999762,1297.6521999999882,1298.1585,1295.416300000012,1297.6521999999882,1298.6583999999762,1299.158300000012,1299.158300000012,1300.3525999999642,694.0,1300.3525999999642,1.0,1300.3528999999762,4.0,8.0,128.0,27.0,1.0,1.2,0.7,Time
,,S63,1,男,20,anonymized,Serial_Dependence_U,2023.2.3,Win32,142.85714285714286,,,,,,1300.353,308.0,4.0,1300.353199999988,308.0,,,,1304.1025,1304.602,1303.595699999988,1304.102399999976,1301.3595,1303.5955,1304.602,1305.1018999999762,1305.1018999999762,1306.442300000012,889.0,1306.442300000012,2.0,1306.442399999976,4.0,9.0,129.0,17.0,1.0,1.2,0.7,Time
,,S63,1,男,20,anonymized,Serial_Dependence_U,2023.2.3,Win32,142.85714285714286,,,,,,1306.442699999988,291.0,4.0,1306.442800000012,291.0,,,,1309.809899999976,1310.309300000012,1309.303199999988,1309.8098000000118,1307.442300000012,1309.3030999999642,1310.309300000012,1310.809300000012,1310.809300000012,1311.8725,509.0,1311.8725,1.0,1311.872699999988,4.0,10.0,130.0,0.0,1.0,0.8,0.3,Time
,,S63,1,男,20,anonymized,Serial_Dependence_U,2023.2.3,Win32,142.85714285714286,,,,,,1311.8728999999762,36.0,4.0,1311.873,36.0,,,,1315.621399999976,1316.121099999964,1315.1145,1315.621199999988,1312.8786999999882,1315.114399999976,1316.121199999988,1316.621099999964,1316.621099999964,1318.086,951.0,1318.0860999999643,2.0,1318.086199999988,4.0,11.0,131.0,7.0,1.0,1.2,0.7,Time
,,S63,1,男,20,anonymized,Serial_Dependence_U,2023.2.3,Win32,142.85714285714286,,,,,,1318.086399999976,185.0,4.0,1318.0865,185.0,,,,1322.266399999976,1322.765800000012,1321.7595999999642,1322.266399999976,1319.093199999988,1321.7595,1322.765800000012,1323.265800000012,1323.2658999999762,1325.0990999999642,1423.0,1325.099199999988,2.0,1325.099300000012,4.0,12.0,132.0,4.0,1.0,1.6,0.3,Time
,,S63,1,男,20,anonymized,Serial_Dependence_U,2023.2.3,Win32,142.85714285714286,,,,,,1325.0995,289.0,4.0,1325.0995999999643,289.0,,,,1329.272300000012,1329.7718000000118,1328.7655,1329.272199999988,1326.0990999999642,1328.765399999976,1329.771899999976,1330.271699999988,1330.271699999988,1332.674,1416.0,1332.674,2.0,1332.674199999988,4.0,13.0,133.0,24.0,1.0,1.6,0.3,Time
,,S63,1,男,20,anonymized,Serial_Dependence_U,2023.2.3,Win32,142.85714285714286,,,,,,1332.6745,265.0,4.0,1332.6745,265.0,,,,1336.6528999999762,1337.1525,1336.1463999999762,1336.6528999999762,1333.681300000012,1336.146300000012,1337.1525,1337.6525,1337.6525999999642,1339.4578999999762,1325.0,1339.458,2.0,1339.4583000000118,4.0,14.0,134.0,23.0,1.0,1.4,0.3,Time
,,S63,1,男,20,anonymized,Serial_Dependence_U,2023.2.3,Win32,142.85714285714286,,,,,,1339.458399999976,7.0,4.0,1339.4585,7.0,,,,1343.4365999999643,1343.936199999988,1342.9298999999762,1343.4365,1340.465,1342.9298999999762,1343.936199999988,1344.436199999988,1344.436199999988,1346.0543000000118,1166.0,1346.054399999976,2.0,1346.0545999999642,4.0,15.0,135.0,3.0,1.0,1.4,0.3,Time
,,S63,1,男,20,anonymized,Serial_Dependence_U,2023.2.3,Win32,142.85714285714286,,,,,,1346.054800000012,177.0,4.0,1346.0548999999762,177.0,,,,1349.6025,1350.102199999988,1349.095800000012,1349.6025,1347.061199999988,1349.095699999988,1350.102199999988,1350.6018999999762,1350.6018999999762,1352.532300000012,937.0,1352.5323999999762,2.0,1352.5325,4.0,16.0,136.0,16.0,1.0,1.0,0.7,Time
,,S63,1,男,20,anonymized,Serial_Dependence_U,2023.2.3,Win32,142.85714285714286,,,,,,1352.5326999999882,186.0,4.0,1352.5326999999882,186.0,,,,1356.483199999988,1356.982899999976,1355.976699999988,1356.483199999988,1353.5395,1355.9765999999645,1356.983,1357.482699999988,1357.482699999988,1359.163300000012,1118.0,1359.163300000012,2.0,1359.1635,4.0,17.0,137.0,18.0,1.0,1.4,0.7,Time
,,S63,1,男,20,anonymized,Serial_Dependence_U,2023.2.3,Win32,142.85714285714286,,,,,,1359.1635999999642,173.0,4.0,1359.163800000012,173.0,,,,1362.940800000012,1363.440399999976,1362.433599999964,1362.940699999988,1360.1703000000118,1362.433599999964,1363.440399999976,1363.9403000000118,1363.9403000000118,1365.8010999999642,1354.0,1365.801300000012,4.0,1365.8013999999762,4.0,18.0,138.0,12.0,1.0,1.2,0.3,Time
,,S63,1,男,20,anonymized,Serial_Dependence_U,2023.2.3,Win32,142.85714285714286,,,,,,1365.8015999999643,358.0,4.0,1365.8016999999882,358.0,,,,1369.946699999988,1370.446199999988,1369.4398999999762,1369.9465999999643,1366.808199999988,1369.439800000012,1370.446199999988,1370.946,1370.946,1373.008399999976,1451.0,1373.0085,2.0,1373.0085999999642,4.0,19.0,139.0,19.0,1.0,1.6,0.7,Time
,,S63,1,男,20,anonymized,Serial_Dependence_U,2023.2.3,Win32,142.85714285714286,,,,,,1373.008800000012,3.0,4.0,1373.008800000012,3.0,,,,1377.1470999999642,1377.6463999999762,1376.640199999988,1377.1470999999642,1374.0085999999642,1376.640099999964,1377.6463999999762,1378.146599999964,1378.146699999988,1380.1885999999645,1425.0,1380.1885999999645,2.0,1380.188800000012,4.0,20.0,140.0,9.0,1.0,1.6,0.7,Time
,,S63,1,男,20,anonymized,Serial_Dependence_U,2023.2.3,Win32,142.85714285714286,,,,,,1380.1888999999762,92.0,4.0,1380.189,92.0,,,,1383.7360999999642,1384.2358999999765,1383.2295,1383.7360999999642,1381.194899999976,1383.229399999976,1384.2358999999765,1384.735800000012,1384.735800000012,1386.034300000012,910.0,1386.034300000012,2.0,1386.0345,4.0,21.0,141.0,6.0,1.0,1.0,0.7,Time
,,S63,1,男,20,anonymized,Serial_Dependence_U,2023.2.3,Win32,142.85714285714286,,,,,,1386.034699999988,289.0,4.0,1386.034800000012,289.0,,,,1389.374399999976,1389.873800000012,1388.867599999964,1389.3741999999882,1387.034300000012,1388.8675,1389.873800000012,1390.373800000012,1390.373800000012,1391.686199999988,749.0,1391.686199999988,2.0,1391.6865,4.0,22.0,142.0,25.0,1.0,0.8,0.7,Time
,,S63,1,男,20,anonymized,Serial_Dependence_U,2023.2.3,Win32,142.85714285714286,,,,,,1391.6866999999882,36.0,4.0,1391.6866999999882,36.0,,,,1395.2323999999762,1395.731699999988,1394.7275999999642,1395.2323999999762,1392.693300000012,1394.7275999999642,1395.731699999988,1396.231599999964,1396.231599999964,1397.447199999988,812.0,1397.447300000012,2.0,1397.447399999976,4.0,23.0,143.0,26.0,1.0,1.0,0.7,Time
,,S63,1,男,20,anonymized,Serial_Dependence_U,2023.2.3,Win32,142.85714285714286,,,,,,1397.4475999999645,224.0,4.0,1397.4475999999645,224.0,,,,1401.226800000012,1401.7260999999642,1400.72,1401.226699999988,1398.4533999999762,1400.72,1401.7260999999642,1402.2260999999642,1402.226199999988,1403.927199999988,1139.0,1403.927199999988,2.0,1403.9275,4.0,24.0,144.0,2.0,1.0,1.2,0.3,Time
,,S63,1,男,20,anonymized,Serial_Dependence_U,2023.2.3,Win32,142.85714285714286,,,,,,1403.9275999999643,302.0,4.0,1403.927699999988,302.0,,,,1407.906199999988,1408.405699999988,1407.3995,1407.9060999999642,1404.9345,1407.399300000012,1408.405699999988,1408.9058000000118,1408.9058000000118,1410.6068000000118,1340.0,1410.606899999976,3.0,1410.607,4.0,25.0,145.0,13.0,1.0,1.4,0.3,Time
,,S63,1,男,20,anonymized,Serial_Dependence_U,2023.2.3,Win32,142.85714285714286,,,,,,1410.607199999988,101.0,4.0,1410.6073999999762,101.0,,,,1414.1830999999645,1414.6825999999642,1413.676300000012,1414.183,1411.614,1413.676199999988,1414.6825999999642,1415.1825,1415.1825999999642,1416.946300000012,1188.0,1416.946300000012,4.0,1416.9465,4.0,26.0,146.0,11.0,1.0,1.0,0.3,Time
,,S63,1,男,20,anonymized,Serial_Dependence_U,2023.2.3,Win32,142.85714285714286,,,,,,1416.946699999988,56.0,4.0,1416.946800000012,56.0,,,,1420.3210999999642,1420.8203999999762,1419.814199999988,1420.3210999999642,1417.953300000012,1419.814,1420.8205,1421.3205,1421.3205,1422.841199999988,937.0,1422.841399999976,4.0,1422.8415,4.0,27.0,147.0,20.0,1.0,0.8,0.3,Time
,,S63,1,男,20,anonymized,Serial_Dependence_U,2023.2.3,Win32,142.85714285714286,,,,,,1422.841699999988,359.0,4.0,1422.841800000012,359.0,,,,1426.4173999999762,1426.916800000012,1425.9105,1426.417300000012,1423.8478000000118,1425.910399999976,1426.916899999976,1427.4166999999882,1427.4166999999882,1429.1458000000118,1160.0,1429.1458000000118,4.0,1429.146,4.0,28.0,148.0,1.0,1.0,1.0,0.3,Time
,,S63,1,男,20,anonymized,Serial_Dependence_U,2023.2.3,Win32,142.85714285714286,,,,,,1429.146199999988,236.0,4.0,1429.146300000012,236.0,,,,1433.096800000012,1433.5965,1432.5900999999642,1433.096800000012,1430.1528999999762,1432.59,1433.5965,1434.0965,1434.0965,1435.998800000012,1278.0,1435.998800000012,2.0,1435.999,4.0,29.0,149.0,8.0,1.0,1.4,0.7,Time
,,S63,1,男,20,anonymized,Serial_Dependence_U,2023.2.3,Win32,142.85714285714286,,,,,,1435.9991999999882,216.0,5.0,1437.685899999976,216.0,s,1.676699999988159,,1441.463599999964,1441.963300000012,1440.956800000012,1441.463599999964,1438.693300000012,1440.956699999988,1441.963300000012,1442.463,1442.4630999999642,1444.2405999999642,1173.0,1444.2405999999642,3.0,1444.240800000012,5.0,0.0,150.0,2.0,1.0,1.2,0.3,Time
,,S63,1,男,20,anonymized,Serial_Dependence_U,2023.2.3,Win32,142.85714285714286,,,,,,1444.241,337.0,5.0,1444.242,337.0,,,,1447.990199999988,1448.49,1447.4836999999882,1447.9900999999643,1445.247800000012,1447.4835999999643,1448.49,1448.99,1448.99,1451.177800000012,1167.0,1451.177899999976,3.0,1451.178,5.0,1.0,151.0,7.0,1.0,1.2,0.7,Time
,,S63,1,男,20,anonymized,Serial_Dependence_U,2023.2.3,Win32,142.85714285714286,,,,,,1451.178199999988,13.0,5.0,1451.178399999976,13.0,,,,1455.1283999999762,1455.627699999988,1454.621199999988,1455.128300000012,1452.1843999999762,1454.621199999988,1455.627699999988,1456.127699999988,1456.127699999988,1458.0165,1194.0,1458.0165,2.0,1458.016800000012,5.0,2.0,152.0,8.0,1.0,1.4,0.7,Time
,,S63,1,男,20,anonymized,Serial_Dependence_U,2023.2.3,Win32,142.85714285714286,,,,,,1458.017,12.0,5.0,1458.0170999999643,12.0,,,,1461.391199999988,1461.8905999999645,1460.884399999976,1461.391099999964,1459.0235,1460.884399999976,1461.8905999999645,1462.390399999976,1462.390399999976,1463.7658999999762,701.0,1463.7658999999762,2.0,1463.766099999964,5.0,3.0,153.0,20.0,1.0,0.8,0.3,Time
,,S63,1,男,20,anonymized,Serial_Dependence_U,2023.2.3,Win32,142.85714285714286,,,,,,1463.7663000000118,232.0,5.0,1463.766399999976,232.0,,,,1467.3138999999762,1467.8135,1466.807300000012,1467.3138999999762,1464.7723999999762,1466.807199999988,1467.8135999999645,1468.3135,1468.3135,1469.9735,1126.0,1469.9735999999643,4.0,1469.9738000000118,5.0,4.0,154.0,16.0,1.0,1.0,0.7,Time
,,S63,1,男,20,anonymized,Serial_Dependence_U,2023.2.3,Win32,142.85714285714286,,,,,,1469.973899999976,276.0,5.0,1469.974,276.0,,,,1473.549,1474.048699999988,1473.041899999976,1473.549,1470.980199999988,1473.041899999976,1474.048699999988,1474.548699999988,1474.548699999988,1476.139399999976,1091.0,1476.139399999976,4.0,1476.139699999988,5.0,5.0,155.0,1.0,1.0,1.0,0.3,Time
,,S63,1,男,20,anonymized,Serial_Dependence_U,2023.2.3,Win32,142.85714285714286,,,,,,1476.139800000012,127.0,5.0,1476.1398999999765,127.0,,,,1480.0895999999643,1480.589,1479.5825999999645,1480.0895999999643,1477.1455,1479.5825999999645,1480.589,1481.088899999976,1481.089,1483.165300000012,1423.0,1483.1653999999762,3.0,1483.165599999964,5.0,6.0,156.0,28.0,1.0,1.4,0.7,Time
,,S63,1,男,20,anonymized,Serial_Dependence_U,2023.2.3,Win32,142.85714285714286,,,,,,1483.1658000000118,11.0,5.0,1483.165899999976,11.0,,,,1486.713699999988,1487.213300000012,1486.207,1486.713699999988,1484.172699999988,1486.207,1487.2133999999762,1487.7130999999642,1487.7130999999642,1489.213699999988,876.0,1489.213699999988,2.0,1489.213899999976,5.0,7.0,157.0,26.0,1.0,1.0,0.7,Time
,,S63,1,男,20,anonymized,Serial_Dependence_U,2023.2.3,Win32,142.85714285714286,,,,,,1489.2140999999642,219.0,5.0,1489.2140999999642,219.0,,,,1492.990399999976,1493.490199999988,1492.4836999999882,1492.990399999976,1490.220300000012,1492.4836999999882,1493.490300000012,1493.9900999999643,1493.9900999999643,1495.885699999988,1306.0,1495.885899999976,4.0,1495.886,5.0,8.0,158.0,22.0,1.0,1.2,0.3,Time
,,S63,1,男,20,anonymized,Serial_Dependence_U,2023.2.3,Win32,142.85714285714286,,,,,,1495.886199999988,25.0,5.0,1495.886300000012,25.0,,,,1500.0588000000118,1500.5585,1499.5520999999642,1500.0588000000118,1496.8858000000118,1499.5520999999642,1500.5585,1501.0585,1501.0585,1502.7600999999645,1327.0,1502.7600999999645,2.0,1502.760199999988,5.0,9.0,159.0,14.0,1.0,1.6,0.3,Time
,,S63,1,男,20,anonymized,Serial_Dependence_U,2023.2.3,Win32,142.85714285714286,,,,,,1502.7603999999762,336.0,5.0,1502.7605,336.0,,,,1506.1065,1506.606,1505.599899999976,1506.1065,1503.767,1505.599899999976,1506.606,1507.1060999999645,1507.1060999999645,1508.647800000012,834.0,1508.647899999976,3.0,1508.648,5.0,10.0,160.0,25.0,1.0,0.8,0.7,Time
,,S63,1,男,20,anonymized,Serial_Dependence_U,2023.2.3,Win32,142.85714285714286,,,,,,1508.648199999988,137.0,5.0,1508.648300000012,137.0,,,,1512.595399999976,1513.091199999988,1512.092,1512.595399999976,1509.6548000000118,1512.0918999999762,1513.091300000012,1513.591300000012,1513.591300000012,1515.3618999999762,1250.0,1515.362,2.0,1515.362199999988,5.0,11.0,161.0,18.0,1.0,1.4,0.7,Time
,,S63,1,男,20,anonymized,Serial_Dependence_U,2023.2.3,Win32,142.85714285714286,,,,,,1515.362399999976,349.0,5.0,1515.3625,349.0,,,,1518.7365999999645,1519.236199999988,1518.23,1518.7365,1516.368899999976,1518.2298999999762,1519.236199999988,1519.736199999988,1519.736199999988,1521.0275999999642,805.0,1521.027699999988,3.0,1521.0278999999762,5.0,12.0,162.0,10.0,1.0,0.8,0.3,Time
,,S63,1,男,20,anonymized,Serial_Dependence_U,2023.2.3,Win32,142.85714285714286,,,,,,1521.0280999999643,2.0,5.0,1521.0280999999643,2.0,,,,1525.0065999999642,1525.506099999964,1524.499800000012,1525.0065999999642,1522.034800000012,1524.499800000012,1525.506099999964,1526.005800000012,1526.005800000012,1527.714199999988,1111.0,1527.714199999988,2.0,1527.7143999999762,5.0,13.0,163.0,13.0,1.0,1.4,0.3,Time
,,S63,1,男,20,anonymized,Serial_Dependence_U,2023.2.3,Win32,142.85714285714286,,,,,,1527.7145999999643,4.0,5.0,1527.7146999999882,4.0,,,,1531.089,1531.588300000012,1530.582300000012,1531.088899999976,1528.721300000012,1530.582199999988,1531.588300000012,1532.088199999988,1532.088300000012,1533.1370999999642,611.0,1533.1370999999642,2.0,1533.1373999999762,5.0,14.0,164.0,0.0,1.0,0.8,0.3,Time
,,S63,1,男,20,anonymized,Serial_Dependence_U,2023.2.3,Win32,142.85714285714286,,,,,,1533.1375999999643,346.0,5.0,1533.1376999999882,346.0,,,,1537.109,1537.608199999988,1536.602,1537.108899999976,1534.137199999988,1536.6018999999762,1537.608300000012,1538.108300000012,1538.108300000012,1540.0316999999882,1451.0,1540.0316999999882,3.0,1540.0320999999642,5.0,15.0,165.0,23.0,1.0,1.4,0.3,Time
,,S63,1,男,20,anonymized,Serial_Dependence_U,2023.2.3,Win32,142.85714285714286,,,,,,1540.032300000012,198.0,5.0,1540.0323999999762,198.0,,,,1544.1773999999762,1544.6766999999882,1543.6703000000118,1544.177300000012,1541.039,1543.6703000000118,1544.676800000012,1545.176899999976,1545.176899999976,1546.739,1188.0,1546.739,2.0,1546.7391999999882,5.0,16.0,166.0,9.0,1.0,1.6,0.7,Time
,,S63,1,男,20,anonymized,Serial_Dependence_U,2023.2.3,Win32,142.85714285714286,,,,,,1546.739399999976,248.0,5.0,1546.7395,248.0,,,,1550.3153000000118,1550.815,1549.8083999999762,1550.3153000000118,1547.7463000000118,1549.808300000012,1550.815,1551.314800000012,1551.3148999999762,1552.863399999976,1201.0,1552.863399999976,4.0,1552.8635,5.0,17.0,167.0,11.0,1.0,1.0,0.3,Time
,,S63,1,男,20,anonymized,Serial_Dependence_U,2023.2.3,Win32,142.85714285714286,,,,,,1552.863699999988,233.0,5.0,1552.863800000012,233.0,,,,1556.612699999988,1557.112399999976,1556.106300000012,1556.6125,1553.8700999999642,1556.1060999999645,1557.112399999976,1557.612199999988,1557.612199999988,1559.306699999988,1249.0,1559.306699999988,3.0,1559.3068999999762,5.0,18.0,168.0,17.0,1.0,1.2,0.7,Time
,,S63,1,男,20,anonymized,Serial_Dependence_U,2023.2.3,Win32,142.85714285714286,,,,,,1559.3070999999643,196.0,5.0,1559.307199999988,196.0,,,,1562.653699999988,1563.1530999999643,1562.146899999976,1562.653699999988,1560.313800000012,1562.146699999988,1563.1530999999643,1563.653,1563.653,1564.646300000012,507.0,1564.6463999999762,1.0,1564.6465,5.0,19.0,169.0,5.0,1.0,0.8,0.7,Time
,,S63,1,男,20,anonymized,Serial_Dependence_U,2023.2.3,Win32,142.85714285714286,,,,,,1564.6468000000118,40.0,5.0,1564.6468000000118,40.0,,,,1568.7915,1569.291199999988,1568.285,1568.7913999999762,1565.6530999999643,1568.285,1569.291199999988,1569.7910999999642,1569.7910999999642,1571.7213999999765,1465.0,1571.7213999999765,2.0,1571.721699999988,5.0,20.0,170.0,19.0,1.0,1.6,0.7,Time
,,S63,1,男,20,anonymized,Serial_Dependence_U,2023.2.3,Win32,142.85714285714286,,,,,,1571.721899999976,187.0,5.0,1571.721899999976,187.0,,,,1575.0685,1575.568199999988,1574.5615999999643,1575.0685,1572.7285,1574.5615999999643,1575.568199999988,1576.0675999999642,1576.0675999999642,1577.4918000000118,911.0,1577.4918000000118,4.0,1577.491899999976,5.0,21.0,171.0,15.0,1.0,0.8,0.7,Time
,,S63,1,男,20,anonymized,Serial_Dependence_U,2023.2.3,Win32,142.85714285714286,,,,,,1577.4920999999642,291.0,5.0,1577.492300000012,291.0,,,,1581.04,1581.5390999999645,1580.5330999999642,1581.039899999976,1578.498399999976,1580.5330999999642,1581.5390999999645,1582.0395,1582.0395,1583.775199999988,1153.0,1583.775199999988,4.0,1583.775399999976,5.0,22.0,172.0,6.0,1.0,1.0,0.7,Time
,,S63,1,男,20,anonymized,Serial_Dependence_U,2023.2.3,Win32,142.85714285714286,,,,,,1583.7755999999642,159.0,5.0,1583.775699999988,159.0,,,,1587.948399999976,1588.4475999999645,1587.441800000012,1587.948399999976,1584.7755,1587.441699999988,1588.447699999988,1588.947800000012,1588.947800000012,1590.760300000012,1256.0,1590.760300000012,2.0,1590.760599999964,5.0,23.0,173.0,24.0,1.0,1.6,0.3,Time
,,S63,1,男,20,anonymized,Serial_Dependence_U,2023.2.3,Win32,142.85714285714286,,,,,,1590.7608000000118,139.0,5.0,1590.760899999976,139.0,,,,1594.336300000012,1594.8360999999643,1593.8295999999643,1594.336199999988,1591.7673000000118,1593.8295999999643,1594.8360999999643,1595.336300000012,1595.336300000012,1597.120399999976,1159.0,1597.1205,4.0,1597.1205999999645,5.0,24.0,174.0,21.0,1.0,1.0,0.3,Time
,,S63,1,男,20,anonymized,Serial_Dependence_U,2023.2.3,Win32,142.85714285714286,,,,,,1597.120800000012,315.0,5.0,1597.1208999999762,315.0,,,,1600.8908999999762,1601.390399999976,1600.3840999999643,1600.890800000012,1598.120699999988,1600.3840999999643,1601.3905,1601.8903000000118,1601.890399999976,1603.258399999976,1007.0,1603.258399999976,2.0,1603.258699999988,5.0,25.0,175.0,12.0,1.0,1.2,0.3,Time
,,S63,1,男,20,anonymized,Serial_Dependence_U,2023.2.3,Win32,142.85714285714286,,,,,,1603.258800000012,248.0,5.0,1603.259,248.0,,,,1607.403899999976,1607.903300000012,1606.8970999999642,1607.403899999976,1604.265399999976,1606.897,1607.903300000012,1608.403300000012,1608.403399999976,1610.250300000012,1410.0,1610.250300000012,2.0,1610.2505999999642,5.0,26.0,176.0,29.0,1.0,1.6,0.7,Time
,,S63,1,男,20,anonymized,Serial_Dependence_U,2023.2.3,Win32,142.85714285714286,,,,,,1610.2508000000118,33.0,5.0,1610.2508000000118,33.0,,,,1614.2255999999643,1614.721899999976,1613.722300000012,1614.2255999999643,1611.2575,1613.722199999988,1614.721899999976,1615.221699999988,1615.221699999988,1616.922800000012,1132.0,1616.922800000012,2.0,1616.923199999988,5.0,27.0,177.0,3.0,1.0,1.4,0.3,Time
,,S63,1,男,20,anonymized,Serial_Dependence_U,2023.2.3,Win32,142.85714285714286,,,,,,1616.9233999999765,177.0,5.0,1616.9233999999765,177.0,,,,1621.103,1621.602699999988,1620.596199999988,1621.103,1617.93,1620.596,1621.602699999988,1622.102699999988,1622.102699999988,1624.039899999976,1480.0,1624.04,2.0,1624.040199999988,5.0,28.0,178.0,4.0,1.0,1.6,0.3,Time
,,S63,1,男,20,anonymized,Serial_Dependence_U,2023.2.3,Win32,142.85714285714286,,,,,,1624.0403999999762,310.0,5.0,1624.0405,310.0,,,,1627.7825999999643,1628.282199999988,1627.2758999999762,1627.7825,1625.0400999999642,1627.2758999999762,1628.282199999988,1628.782300000012,1628.782300000012,1630.5458999999762,1319.0,1630.546,4.0,1630.5461999999882,5.0,29.0,179.0,27.0,1.0,1.2,0.7,Time
,,S63,1,男,20,anonymized,Serial_Dependence_U,2023.2.3,Win32,142.85714285714286,,,,,,1630.546399999976,216.0,6.0,1815.460800000012,216.0,s,184.90489999997635,,1819.209699999988,1819.71,1818.703300000012,1819.209699999988,1816.466699999988,1818.703300000012,1819.71,1820.208899999976,1820.208899999976,1822.202599999964,1325.0,1822.202699999988,4.0,1822.2030999999645,6.0,0.0,180.0,17.0,1.0,1.2,0.7,Time
,,S63,1,男,20,anonymized,Serial_Dependence_U,2023.2.3,Win32,142.85714285714286,,,,,,1822.204300000012,278.0,6.0,1822.207,278.0,,,,1826.153199999988,1826.652599999964,1825.647,1826.1530999999643,1823.209300000012,1825.647,1826.652599999964,1827.152899999976,1827.152899999976,1828.819699999988,1118.0,1828.819699999988,2.0,1828.819899999976,6.0,1.0,181.0,18.0,1.0,1.4,0.7,Time
,,S63,1,男,20,anonymized,Serial_Dependence_U,2023.2.3,Win32,142.85714285714286,,,,,,1828.820199999988,11.0,6.0,1828.820300000012,11.0,,,,1832.7975,1833.297800000012,1832.291899999976,1832.797300000012,1829.826199999988,1832.291699999988,1833.297800000012,1833.797699999988,1833.797699999988,1835.798,1299.0,1835.798,2.0,1835.798199999988,6.0,2.0,182.0,13.0,1.0,1.4,0.3,Time
,,S63,1,男,20,anonymized,Serial_Dependence_U,2023.2.3,Win32,142.85714285714286,,,,,,1835.7983999999765,58.0,6.0,1835.798599999964,58.0,,,,1839.171399999976,1839.671899999976,1838.665899999976,1839.171300000012,1836.804599999964,1838.665800000012,1839.671899999976,1840.171699999988,1840.171699999988,1841.575199999988,750.0,1841.575199999988,2.0,1841.575399999976,6.0,3.0,183.0,0.0,1.0,0.8,0.3,Time
,,S63,1,男,20,anonymized,Serial_Dependence_U,2023.2.3,Win32,142.85714285714286,,,,,,1841.575599999964,26.0,6.0,1841.575699999988,26.0,,,,1844.921399999976,1845.420800000012,1844.4145,1844.921300000012,1842.580800000012,1844.4145,1845.420800000012,1845.920800000012,1845.920800000012,1847.2965,845.0,1847.2965,4.0,1847.296699999988,6.0,4.0,184.0,15.0,1.0,0.8,0.7,Time
,,S63,1,男,20,anonymized,Serial_Dependence_U,2023.2.3,Win32,142.85714285714286,,,,,,1847.297,298.0,6.0,1847.297,298.0,,,,1850.670699999988,1851.170099999964,1850.163699999988,1850.670599999964,1848.301300000012,1850.163599999964,1851.170099999964,1851.669599999964,1851.669699999988,1853.024899999976,820.0,1853.024899999976,3.0,1853.025,6.0,5.0,185.0,20.0,1.0,0.8,0.3,Time
,,S63,1,男,20,anonymized,Serial_Dependence_U,2023.2.3,Win32,142.85714285714286,,,,,,1853.025300000012,3.0,6.0,1853.025399999976,3.0,,,,1856.600199999988,1857.0995,1856.0935,1856.600199999988,1854.031199999988,1856.093399999976,1857.0995,1857.5950999999643,1857.595199999988,1859.296699999988,814.0,1859.296800000012,2.0,1859.297,6.0,6.0,186.0,21.0,1.0,1.0,0.3,Time
,,S63,1,男,20,anonymized,Serial_Dependence_U,2023.2.3,Win32,142.85714285714286,,,,,,1859.297199999988,315.0,6.0,1859.297300000012,315.0,,,,1862.643,1863.1425,1862.136300000012,1862.642899999976,1860.303300000012,1862.136199999988,1863.1425,1863.642599999964,1863.642699999988,1865.246599999964,833.0,1865.246599999964,3.0,1865.246800000012,6.0,7.0,187.0,25.0,1.0,0.8,0.7,Time
,,S63,1,男,20,anonymized,Serial_Dependence_U,2023.2.3,Win32,142.85714285714286,,,,,,1865.247099999964,275.0,6.0,1865.247199999988,275.0,,,,1868.621399999976,1869.121,1868.1145,1868.621399999976,1866.253699999988,1868.1145,1869.121099999964,1869.6205999999645,1869.6205999999645,1870.530399999976,472.0,1870.530399999976,1.0,1870.530699999988,6.0,8.0,188.0,10.0,1.0,0.8,0.3,Time
,,S63,1,男,20,anonymized,Serial_Dependence_U,2023.2.3,Win32,142.85714285714286,,,,,,1870.531,277.0,6.0,1870.531099999964,277.0,,,,1874.3080999999645,1874.807599999964,1873.801300000012,1874.308,1871.537599999964,1873.801199999988,1874.807599999964,1875.3075,1875.307599999964,1877.098899999976,1229.0,1877.098899999976,3.0,1877.099,6.0,9.0,189.0,2.0,1.0,1.2,0.3,Time
,,S63,1,男,20,anonymized,Serial_Dependence_U,2023.2.3,Win32,142.85714285714286,,,,,,1877.099300000012,286.0,6.0,1877.0995,286.0,,,,1881.078,1881.5773999999765,1880.570800000012,1881.077899999976,1878.105800000012,1880.570800000012,1881.5773999999765,1882.077300000012,1882.077300000012,1883.945399999976,1348.0,1883.945399999976,3.0,1883.9455999999643,6.0,10.0,190.0,3.0,1.0,1.4,0.3,Time
,,S63,1,男,20,anonymized,Serial_Dependence_U,2023.2.3,Win32,142.85714285714286,,,,,,1883.945800000012,56.0,6.0,1883.945899999976,56.0,,,,1887.521,1888.020800000012,1887.014300000012,1887.521,1884.9520999999645,1887.014300000012,1888.020800000012,1888.5205,1888.520599999964,1889.992699999988,979.0,1889.992800000012,3.0,1889.992899999976,6.0,11.0,191.0,11.0,1.0,1.0,0.3,Time
,,S63,1,男,20,anonymized,Serial_Dependence_U,2023.2.3,Win32,142.85714285714286,,,,,,1889.993099999964,235.0,6.0,1889.993199999988,235.0,,,,1893.742399999976,1894.241899999976,1893.235800000012,1893.742399999976,1890.999699999988,1893.235800000012,1894.241899999976,1894.742,1894.742,1896.429300000012,1340.0,1896.4295,4.0,1896.429800000012,6.0,12.0,192.0,7.0,1.0,1.2,0.7,Time
,,S63,1,男,20,anonymized,Serial_Dependence_U,2023.2.3,Win32,142.85714285714286,,,,,,1896.429899999976,204.0,6.0,1896.43,204.0,,,,1900.007899999976,1900.505,1899.498599999964,1900.007800000012,1897.436399999976,1899.4985,1900.505,1901.005,1901.005099999964,1902.435199999988,944.0,1902.435399999976,2.0,1902.4355,6.0,13.0,193.0,1.0,1.0,1.0,0.3,Time
,,S63,1,男,20,anonymized,Serial_Dependence_U,2023.2.3,Win32,142.85714285714286,,,,,,1902.4355999999643,191.0,6.0,1902.435800000012,191.0,,,,1906.212699999988,1906.712199999988,1905.706099999964,1906.212599999964,1903.442300000012,1905.706,1906.712199999988,1907.2120999999645,1907.212199999988,1908.9065,1167.0,1908.9065999999643,3.0,1908.906800000012,6.0,14.0,194.0,12.0,1.0,1.2,0.3,Time
,,S63,1,男,20,anonymized,Serial_Dependence_U,2023.2.3,Win32,142.85714285714286,,,,,,1908.906899999976,133.0,6.0,1908.907099999964,133.0,,,,1912.454800000012,1912.9545,1911.948199999988,1912.454699999988,1909.913800000012,1911.948,1912.9545,1913.454699999988,1913.454699999988,1915.170300000012,1196.0,1915.170300000012,4.0,1915.170300000012,6.0,15.0,195.0,16.0,1.0,1.0,0.7,Time
,,S63,1,男,20,anonymized,Serial_Dependence_U,2023.2.3,Win32,142.85714285714286,,,,,,1915.1705,3.0,6.0,1915.170699999988,3.0,,,,1919.349699999988,1919.849099999964,1918.843,1919.3495999999643,1916.1765,1918.842899999976,1919.849099999964,1920.349300000012,1920.349300000012,1922.085199999988,1367.0,1922.085199999988,2.0,1922.085399999976,6.0,16.0,196.0,14.0,1.0,1.6,0.3,Time
,,S63,1,男,20,anonymized,Serial_Dependence_U,2023.2.3,Win32,142.85714285714286,,,,,,1922.085599999964,59.0,6.0,1922.085599999964,59.0,,,,1926.230599999964,1926.730300000012,1925.724,1926.230599999964,1923.092,1925.724,1926.730300000012,1927.23,1927.23,1929.013,1271.0,1929.013,2.0,1929.013199999988,6.0,17.0,197.0,9.0,1.0,1.6,0.7,Time
,,S63,1,男,20,anonymized,Serial_Dependence_U,2023.2.3,Win32,142.85714285714286,,,,,,1929.013300000012,59.0,6.0,1929.013399999976,59.0,,,,1932.991300000012,1933.491,1932.484399999976,1932.991199999988,1930.019399999976,1932.484300000012,1933.491,1933.990899999976,1933.991,1935.775899999976,1250.0,1935.775899999976,2.0,1935.776,6.0,18.0,198.0,23.0,1.0,1.4,0.3,Time
,,S63,1,男,20,anonymized,Serial_Dependence_U,2023.2.3,Win32,142.85714285714286,,,,,,1935.776199999988,326.0,6.0,1935.776399999976,326.0,,,,1939.323800000012,1939.823399999976,1938.8170999999645,1939.323800000012,1936.782199999988,1938.817,1939.823399999976,1940.323,1940.323099999964,1942.1915,1180.0,1942.1915,4.0,1942.191800000012,6.0,19.0,199.0,6.0,1.0,1.0,0.7,Time
,,S63,1,男,20,anonymized,Serial_Dependence_U,2023.2.3,Win32,142.85714285714286,,,,,,1942.191899999976,229.0,6.0,1942.192,229.0,,,,1946.336300000012,1946.8315999999645,1945.829899999976,1946.336199999988,1943.198099999964,1945.829800000012,1946.8315999999645,1947.3315999999645,1947.331699999988,1949.247699999988,1361.0,1949.247699999988,2.0,1949.248,6.0,20.0,200.0,19.0,1.0,1.6,0.7,Time
,,S63,1,男,20,anonymized,Serial_Dependence_U,2023.2.3,Win32,142.85714285714286,,,,,,1949.248199999988,240.0,6.0,1949.248300000012,240.0,,,,1953.198800000012,1953.698199999988,1952.692,1953.198699999988,1950.254699999988,1952.692,1953.698199999988,1954.198399999976,1954.198399999976,1956.100800000012,1278.0,1956.100800000012,2.0,1956.101,6.0,21.0,201.0,8.0,1.0,1.4,0.7,Time
,,S63,1,男,20,anonymized,Serial_Dependence_U,2023.2.3,Win32,142.85714285714286,,,,,,1956.101199999988,101.0,6.0,1956.101300000012,101.0,,,,1959.850800000012,1960.350199999988,1959.343899999976,1959.850699999988,1957.107800000012,1959.343800000012,1960.350199999988,1960.85,1960.85,1962.613800000012,1159.0,1962.613800000012,3.0,1962.614199999988,6.0,22.0,202.0,27.0,1.0,1.2,0.7,Time
,,S63,1,男,20,anonymized,Serial_Dependence_U,2023.2.3,Win32,142.85714285714286,,,,,,1962.614399999976,58.0,6.0,1962.6145,58.0,,,,1966.391199999988,1966.8905999999645,1965.884699999988,1966.391099999964,1963.620800000012,1965.884699999988,1966.8905999999645,1967.390699999988,1967.390699999988,1969.272399999976,1298.0,1969.272399999976,4.0,1969.272699999988,6.0,23.0,203.0,22.0,1.0,1.2,0.3,Time
,,S63,1,男,20,anonymized,Serial_Dependence_U,2023.2.3,Win32,142.85714285714286,,,,,,1969.272899999976,271.0,6.0,1969.273,271.0,,,,1972.619699999988,1973.118899999976,1972.112800000012,1972.619699999988,1970.2795,1972.112800000012,1973.118899999976,1973.619,1973.619,1974.938300000012,714.0,1974.938300000012,2.0,1974.9385,6.0,24.0,204.0,5.0,1.0,0.8,0.7,Time
,,S63,1,男,20,anonymized,Serial_Dependence_U,2023.2.3,Win32,142.85714285714286,,,,,,1974.938699999988,9.0,6.0,1974.938800000012,9.0,,,,1979.118399999976,1979.617899999976,1978.611800000012,1979.118399999976,1975.945399999976,1978.611699999988,1979.618,1980.118,1980.118,1982.020599999964,1389.0,1982.020599999964,2.0,1982.020899999976,6.0,25.0,205.0,24.0,1.0,1.6,0.3,Time
,,S63,1,男,20,anonymized,Serial_Dependence_U,2023.2.3,Win32,142.85714285714286,,,,,,1982.021099999964,115.0,6.0,1982.021199999988,115.0,,,,1985.9715,1986.4710999999645,1985.464699999988,1985.9715,1983.027599999964,1985.464699999988,1986.4710999999645,1986.9710999999645,1986.9710999999645,1988.818199999988,1215.0,1988.818199999988,2.0,1988.818399999976,6.0,26.0,206.0,28.0,1.0,1.4,0.7,Time
,,S63,1,男,20,anonymized,Serial_Dependence_U,2023.2.3,Win32,142.85714285714286,,,,,,1988.818599999964,132.0,6.0,1988.818800000012,132.0,,,,1992.963399999976,1993.463199999988,1992.4565999999645,1992.963399999976,1989.825199999988,1992.4565999999645,1993.463199999988,1993.963300000012,1993.963300000012,1995.782899999976,1348.0,1995.782899999976,2.0,1995.783099999964,6.0,27.0,207.0,29.0,1.0,1.6,0.7,Time
,,S63,1,男,20,anonymized,Serial_Dependence_U,2023.2.3,Win32,142.85714285714286,,,,,,1995.783300000012,249.0,6.0,1995.783399999976,249.0,,,,1999.962599999964,2000.462,1999.455800000012,1999.9625,1996.789300000012,1999.455699999988,2000.462,2000.9620999999645,2000.9620999999645,2002.9065,1424.0,2002.9065999999643,2.0,2002.906800000012,6.0,28.0,208.0,4.0,1.0,1.6,0.3,Time
,,S63,1,男,20,anonymized,Serial_Dependence_U,2023.2.3,Win32,142.85714285714286,,,,,,2002.907,127.0,6.0,2002.907,127.0,,,,2006.4545,2006.954199999988,2005.947800000012,2006.454399999976,2003.913199999988,2005.947699999988,2006.954199999988,2007.454199999988,2007.454199999988,2009.196899999976,1228.0,2009.196899999976,4.0,2009.197199999988,6.0,29.0,209.0,26.0,1.0,1.0,0.7,Time
,,S63,1,男,20,anonymized,Serial_Dependence_U,2023.2.3,Win32,142.85714285714286,,,,,,2009.1975,228.0,7.0,2010.925699999988,228.0,s,1.717700000047671,,2014.474300000012,2014.9738999999763,2013.967699999988,2014.4741999999883,2011.933,2013.967699999988,2014.9738999999763,2015.473699999988,2015.473800000012,2017.196399999976,1265.0,2017.1965,4.0,2017.196699999988,7.0,0.0,210.0,6.0,1.0,1.0,0.7,Time
,,S63,1,男,20,anonymized,Serial_Dependence_U,2023.2.3,Win32,142.85714285714286,,,,,,2017.1968999999765,308.0,7.0,2017.197800000012,308.0,,,,2020.5705,2021.0700999999644,2020.063800000012,2020.5705,2018.203,2020.063699999988,2021.0700999999644,2021.5700999999644,2021.5700999999644,2023.097899999976,985.0,2023.097899999976,4.0,2023.098199999988,7.0,1.0,211.0,10.0,1.0,0.8,0.3,Time
,,S63,1,男,20,anonymized,Serial_Dependence_U,2023.2.3,Win32,142.85714285714286,,,,,,2023.098399999976,322.0,7.0,2023.098399999976,322.0,,,,2026.847300000012,2027.3468999999764,2026.3401999999885,2026.847300000012,2024.104699999988,2026.3401999999885,2027.3468999999764,2027.846699999988,2027.846699999988,2028.437300000012,520.0,2028.437300000012,1.0,2028.4375999999645,7.0,2.0,212.0,17.0,1.0,1.2,0.7,Time
,,S63,1,男,20,anonymized,Serial_Dependence_U,2023.2.3,Win32,142.85714285714286,,,,,,2028.437699999988,218.0,7.0,2028.437800000012,218.0,,,,2031.9855,2032.4850999999644,2031.478899999976,2031.985399999976,2029.444199999988,2031.478800000012,2032.4850999999644,2032.985,2032.985,2034.602800000012,1097.0,2034.602899999976,4.0,2034.6030999999643,7.0,3.0,213.0,26.0,1.0,1.0,0.7,Time
,,S63,1,男,20,anonymized,Serial_Dependence_U,2023.2.3,Win32,142.85714285714286,,,,,,2034.603300000012,149.0,7.0,2034.6033999999763,149.0,,,,2038.783199999988,2039.282800000012,2038.276399999976,2038.783199999988,2035.609800000012,2038.276300000012,2039.282800000012,2039.782300000012,2039.782399999976,2041.4420999999645,1180.0,2041.442199999988,2.0,2041.4423999999765,7.0,4.0,214.0,4.0,1.0,1.6,0.3,Time
,,S63,1,男,20,anonymized,Serial_Dependence_U,2023.2.3,Win32,142.85714285714286,,,,,,2041.4425999999644,249.0,7.0,2041.442699999988,249.0,,,,2045.5875999999644,2046.0870999999645,2045.080800000012,2045.5875999999644,2042.449,2045.080699999988,2046.087199999988,2046.587199999988,2046.587199999988,2048.413300000012,1305.0,2048.413300000012,2.0,2048.4135,7.0,5.0,215.0,9.0,1.0,1.6,0.7,Time
,,S63,1,男,20,anonymized,Serial_Dependence_U,2023.2.3,Win32,142.85714285714286,,,,,,2048.413699999988,322.0,7.0,2048.413699999988,322.0,,,,2052.162800000012,2052.6625,2051.656300000012,2052.162800000012,2049.420300000012,2051.656300000012,2052.6625,2053.1625,2053.1625,2054.7525,1083.0,2054.752699999988,2.0,2054.752800000012,7.0,6.0,216.0,27.0,1.0,1.2,0.7,Time
,,S63,1,男,20,anonymized,Serial_Dependence_U,2023.2.3,Win32,142.85714285714286,,,,,,2054.753,62.0,7.0,2054.7530999999644,62.0,,,,2058.099399999976,2058.5990999999644,2057.592699999988,2058.099399999976,2055.759699999988,2057.592699999988,2058.5990999999644,2059.0990999999644,2059.0990999999644,2060.376699999988,743.0,2060.376800000012,2.0,2060.376899999976,7.0,7.0,217.0,25.0,1.0,0.8,0.7,Time
,,S63,1,男,20,anonymized,Serial_Dependence_U,2023.2.3,Win32,142.85714285714286,,,,,,2060.377199999988,300.0,7.0,2060.377300000012,300.0,,,,2064.3555,2064.855199999988,2063.848800000012,2064.3555,2061.384,2063.848699999988,2064.855199999988,2065.3550999999643,2065.3550999999643,2067.0915999999643,1215.0,2067.0915999999643,2.0,2067.091800000012,7.0,8.0,218.0,13.0,1.0,1.4,0.3,Time
,,S63,1,男,20,anonymized,Serial_Dependence_U,2023.2.3,Win32,142.85714285714286,,,,,,2067.091899999976,116.0,7.0,2067.0920999999644,116.0,,,,2070.667,2071.1665,2070.160300000012,2070.666899999976,2068.097800000012,2070.160300000012,2071.1665,2071.666599999964,2071.666599999964,2073.166399999976,993.0,2073.1665,3.0,2073.166899999976,7.0,9.0,219.0,11.0,1.0,1.0,0.3,Time
,,S63,1,男,20,anonymized,Serial_Dependence_U,2023.2.3,Win32,142.85714285714286,,,,,,2073.166899999976,238.0,7.0,2073.167099999964,238.0,,,,2077.145300000012,2077.644800000012,2076.6385,2077.145199999988,2074.173800000012,2076.638399999976,2077.644800000012,2078.144899999976,2078.144899999976,2079.887599999964,1278.0,2079.887699999988,2.0,2079.888,7.0,10.0,220.0,23.0,1.0,1.4,0.3,Time
,,S63,1,男,20,anonymized,Serial_Dependence_U,2023.2.3,Win32,142.85714285714286,,,,,,2079.888099999964,259.0,7.0,2079.888300000012,259.0,,,,2083.838699999988,2084.338199999988,2083.332099999964,2083.8385,2080.894699999988,2083.332099999964,2084.338199999988,2084.838300000012,2084.838300000012,2086.539599999964,1187.0,2086.539599999964,2.0,2086.539800000012,7.0,11.0,221.0,18.0,1.0,1.4,0.7,Time
,,S63,1,男,20,anonymized,Serial_Dependence_U,2023.2.3,Win32,142.85714285714286,,,,,,2086.54,170.0,7.0,2086.540099999964,170.0,,,,2090.7195999999644,2091.219199999988,2090.213099999964,2090.7195999999644,2087.546399999976,2090.213,2091.219199999988,2091.7190999999643,2091.7190999999643,2093.719,1381.0,2093.7190999999643,2.0,2093.719199999988,7.0,12.0,222.0,14.0,1.0,1.6,0.3,Time
,,S63,1,男,20,anonymized,Serial_Dependence_U,2023.2.3,Win32,142.85714285714286,,,,,,2093.7193999999763,81.0,7.0,2093.7195,81.0,,,,2097.295,2097.7945,2096.788300000012,2097.295,2094.7258999999763,2096.788300000012,2097.794599999964,2098.295,2098.2950999999643,2099.995800000012,998.0,2099.995800000012,3.0,2099.996,7.0,13.0,223.0,21.0,1.0,1.0,0.3,Time
,,S63,1,男,20,anonymized,Serial_Dependence_U,2023.2.3,Win32,142.85714285714286,,,,,,2099.996300000012,319.0,7.0,2099.9963999999763,319.0,,,,2104.141199999988,2104.640800000012,2103.6345999999644,2104.1410999999644,2101.002800000012,2103.6345999999644,2104.640800000012,2105.140699999988,2105.140699999988,2107.0225999999643,1326.0,2107.0225999999643,2.0,2107.0228999999763,7.0,14.0,224.0,19.0,1.0,1.6,0.7,Time
,,S63,1,男,20,anonymized,Serial_Dependence_U,2023.2.3,Win32,142.85714285714286,,,,,,2107.0230999999644,108.0,7.0,2107.0230999999644,108.0,,,,2111.202699999988,2111.702199999988,2110.696,2111.202599999964,2108.029399999976,2110.695899999976,2111.702199999988,2112.202199999988,2112.202199999988,2113.8758999999764,1298.0,2113.8758999999764,2.0,2113.876099999964,7.0,15.0,225.0,24.0,1.0,1.6,0.3,Time
,,S63,1,男,20,anonymized,Serial_Dependence_U,2023.2.3,Win32,142.85714285714286,,,,,,2113.876300000012,8.0,7.0,2113.876399999976,8.0,,,,2117.653399999976,2118.1526999999883,2117.1465,2117.653300000012,2114.8826999999883,2117.146399999976,2118.1526999999883,2118.6525999999644,2118.6525999999644,2120.034300000012,924.0,2120.034300000012,2.0,2120.0345,7.0,16.0,226.0,22.0,1.0,1.2,0.3,Time
,,S63,1,男,20,anonymized,Serial_Dependence_U,2023.2.3,Win32,142.85714285714286,,,,,,2120.034699999988,14.0,7.0,2120.034699999988,14.0,,,,2123.409199999988,2123.9088999999763,2122.9025999999644,2123.4090999999644,2121.041699999988,2122.9025,2123.9088999999763,2124.408699999988,2124.408699999988,2125.741800000012,769.0,2125.741800000012,3.0,2125.742099999964,7.0,17.0,227.0,0.0,1.0,0.8,0.3,Time
,,S63,1,男,20,anonymized,Serial_Dependence_U,2023.2.3,Win32,142.85714285714286,,,,,,2125.742300000012,39.0,7.0,2125.7425,39.0,,,,2129.519399999976,2130.018800000012,2129.0125,2129.519399999976,2126.7485999999644,2129.012399999976,2130.018800000012,2130.518800000012,2130.518800000012,2131.997899999976,972.0,2131.997899999976,2.0,2131.998199999988,7.0,18.0,228.0,2.0,1.0,1.2,0.3,Time
,,S63,1,男,20,anonymized,Serial_Dependence_U,2023.2.3,Win32,142.85714285714286,,,,,,2131.9983999999763,295.0,7.0,2131.9985,295.0,,,,2135.7475,2136.247199999988,2135.241,2135.7475,2133.005199999988,2135.240899999976,2136.247300000012,2136.746899999976,2136.746899999976,2138.337300000012,951.0,2138.337300000012,2.0,2138.3375,7.0,19.0,229.0,7.0,1.0,1.2,0.7,Time
,,S63,1,男,20,anonymized,Serial_Dependence_U,2023.2.3,Win32,142.85714285714286,,,,,,2138.337699999988,24.0,7.0,2138.337800000012,24.0,,,,2142.316,2142.8156999999883,2141.809300000012,2142.315899999976,2139.344199999988,2141.809300000012,2142.815800000012,2143.3155,2143.3155,2145.1765,1347.0,2145.1765,3.0,2145.176800000012,7.0,20.0,230.0,3.0,1.0,1.4,0.3,Time
,,S63,1,男,20,anonymized,Serial_Dependence_U,2023.2.3,Win32,142.85714285714286,,,,,,2145.177,221.0,7.0,2145.177,221.0,,,,2149.127399999976,2149.627,2148.620699999988,2149.127399999976,2146.183399999976,2148.620699999988,2149.627,2150.126899999976,2150.127,2152.029800000012,1389.0,2152.029800000012,3.0,2152.03,7.0,21.0,231.0,8.0,1.0,1.4,0.7,Time
,,S63,1,男,20,anonymized,Serial_Dependence_U,2023.2.3,Win32,142.85714285714286,,,,,,2152.030199999988,118.0,7.0,2152.030199999988,118.0,,,,2155.404300000012,2155.903899999976,2154.897699999988,2155.404300000012,2153.0365999999644,2154.897699999988,2155.903899999976,2156.403699999988,2156.403699999988,2157.508,590.0,2157.508,2.0,2157.508300000012,7.0,22.0,232.0,20.0,1.0,0.8,0.3,Time
,,S63,1,男,20,anonymized,Serial_Dependence_U,2023.2.3,Win32,142.85714285714286,,,,,,2157.5085,275.0,7.0,2157.508599999964,275.0,,,,2161.056300000012,2161.5560999999643,2160.5495,2161.056300000012,2158.515099999964,2160.5495,2161.5560999999643,2162.055800000012,2162.055800000012,2163.7486999999883,1151.0,2163.7486999999883,4.0,2163.748800000012,7.0,23.0,233.0,16.0,1.0,1.0,0.7,Time
,,S63,1,男,20,anonymized,Serial_Dependence_U,2023.2.3,Win32,142.85714285714286,,,,,,2163.748899999976,26.0,7.0,2163.749,26.0,,,,2167.097,2167.5965999999644,2166.590399999976,2167.0968999999764,2164.7531999999883,2166.590300000012,2167.5965999999644,2168.0965999999644,2168.0965999999644,2169.200599999964,632.0,2169.200699999988,2.0,2169.200800000012,7.0,24.0,234.0,5.0,1.0,0.8,0.7,Time
,,S63,1,男,20,anonymized,Serial_Dependence_U,2023.2.3,Win32,142.85714285714286,,,,,,2169.201,215.0,7.0,2169.201199999988,215.0,,,,2172.5476999999883,2173.0470999999643,2172.0410999999644,2172.5475999999644,2170.2075,2172.041,2173.0470999999643,2173.547300000012,2173.547300000012,2174.859699999988,715.0,2174.859699999988,2.0,2174.8598999999763,7.0,25.0,235.0,15.0,1.0,0.8,0.7,Time
,,S63,1,男,20,anonymized,Serial_Dependence_U,2023.2.3,Win32,142.85714285714286,,,,,,2174.8601999999883,201.0,7.0,2174.8601999999883,201.0,,,,2179.005199999988,2179.5045,2178.4983999999763,2179.005,2175.8665999999644,2178.498300000012,2179.5045,2180.0045,2180.0045,2181.816800000012,1278.0,2181.816800000012,2.0,2181.8170999999643,7.0,26.0,236.0,29.0,1.0,1.6,0.7,Time
,,S63,1,男,20,anonymized,Serial_Dependence_U,2023.2.3,Win32,142.85714285714286,,,,,,2181.817300000012,353.0,7.0,2181.8175,353.0,,,,2185.5940999999643,2186.093800000012,2185.0875999999644,2185.5940999999643,2182.823699999988,2185.0875999999644,2186.093800000012,2186.593599999964,2186.593699999988,2188.232399999976,1207.0,2188.232399999976,3.0,2188.232699999988,7.0,27.0,237.0,12.0,1.0,1.2,0.3,Time
,,S63,1,男,20,anonymized,Serial_Dependence_U,2023.2.3,Win32,142.85714285714286,,,,,,2188.2328999999763,302.0,7.0,2188.233,302.0,,,,2192.183300000012,2192.683,2191.676699999988,2192.183300000012,2189.2395999999644,2191.6765999999643,2192.683,2193.182899999976,2193.182899999976,2195.0923999999764,1354.0,2195.0923999999764,3.0,2195.092699999988,7.0,28.0,238.0,28.0,1.0,1.4,0.7,Time
,,S63,1,男,20,anonymized,Serial_Dependence_U,2023.2.3,Win32,142.85714285714286,,,,,,2195.092899999976,34.0,7.0,2195.093,34.0,,,,2198.667099999964,2199.166199999988,2198.159699999988,2198.667099999964,2196.097099999964,2198.159699999988,2199.166199999988,2199.666199999988,2199.666199999988,2200.780099999964,800.0,2200.780099999964,2.0,2200.780300000012,7.0,29.0,239.0,1.0,1.0,1.0,0.3,Time
,,S63,1,男,20,anonymized,Serial_Dependence_U,2023.2.3,Win32,142.85714285714286,,,,,,2200.7805,235.0,8.0,2327.142099999964,235.0,s,126.35140000003548,,2330.717800000012,2331.217599999964,2330.211599999964,2330.717800000012,2328.149199999988,2330.211599999964,2331.217599999964,2331.718,2331.718,2333.127300000012,1048.0,2333.127300000012,3.0,2333.1275999999643,8.0,0.0,240.0,21.0,1.0,1.0,0.3,Time
,,S63,1,男,20,anonymized,Serial_Dependence_U,2023.2.3,Win32,142.85714285714286,,,,,,2333.127800000012,182.0,8.0,2333.128699999988,182.0,,,,2336.675800000012,2337.175199999988,2336.169099999964,2336.675699999988,2334.134199999988,2336.169099999964,2337.175199999988,2337.675300000012,2337.675300000012,2339.404399999976,1201.0,2339.404399999976,4.0,2339.4045999999644,8.0,1.0,241.0,26.0,1.0,1.0,0.7,Time
,,S63,1,男,20,anonymized,Serial_Dependence_U,2023.2.3,Win32,142.85714285714286,,,,,,2339.404699999988,185.0,8.0,2339.4048999999764,185.0,,,,2343.5543999999763,2344.054,2343.047800000012,2343.5543999999763,2340.411300000012,2343.0475999999644,2344.054,2344.553899999976,2344.553899999976,2346.438300000012,1286.0,2346.4383999999764,2.0,2346.4385,8.0,2.0,242.0,19.0,1.0,1.6,0.7,Time
,,S63,1,男,20,anonymized,Serial_Dependence_U,2023.2.3,Win32,142.85714285714286,,,,,,2346.438800000012,202.0,8.0,2346.438899999976,202.0,,,,2350.416399999976,2350.916300000012,2349.910099999964,2350.416300000012,2347.4445999999643,2349.91,2350.916300000012,2351.416199999988,2351.416199999988,2353.3395999999643,1347.0,2353.339699999988,3.0,2353.339800000012,8.0,3.0,243.0,13.0,1.0,1.4,0.3,Time
,,S63,1,男,20,anonymized,Serial_Dependence_U,2023.2.3,Win32,142.85714285714286,,,,,,2353.34,17.0,8.0,2353.3401999999883,17.0,,,,2356.887599999964,2357.3875,2356.381099999964,2356.887599999964,2354.346300000012,2356.381099999964,2357.3875,2357.887399999976,2357.887399999976,2359.713599999964,1269.0,2359.713599999964,4.0,2359.713800000012,8.0,4.0,244.0,16.0,1.0,1.0,0.7,Time
,,S63,1,男,20,anonymized,Serial_Dependence_U,2023.2.3,Win32,142.85714285714286,,,,,,2359.714099999964,5.0,8.0,2359.714199999988,5.0,,,,2363.4565,2363.9560999999644,2362.9495999999644,2363.456399999976,2360.713800000012,2362.9495999999644,2363.9560999999644,2364.4555999999643,2364.455699999988,2365.997199999988,1118.0,2365.997199999988,2.0,2365.997599999964,8.0,5.0,245.0,7.0,1.0,1.2,0.7,Time
,,S63,1,男,20,anonymized,Serial_Dependence_U,2023.2.3,Win32,142.85714285714286,,,,,,2365.997699999988,303.0,8.0,2365.997800000012,303.0,,,,2369.3445,2369.8440999999643,2368.837699999988,2369.3443999999763,2367.0045,2368.8375999999644,2369.8440999999643,2370.343899999976,2370.343899999976,2371.8020999999644,742.0,2371.8021999999883,2.0,2371.802399999976,8.0,6.0,246.0,15.0,1.0,0.8,0.7,Time
,,S63,1,男,20,anonymized,Serial_Dependence_U,2023.2.3,Win32,142.85714285714286,,,,,,2371.802599999964,189.0,8.0,2371.802699999988,189.0,,,,2375.1703999999763,2375.6695,2374.663199999988,2375.1703999999763,2372.8021999999883,2374.663199999988,2375.6695,2376.1695,2376.1695,2377.523300000012,840.0,2377.523399999976,3.0,2377.523699999988,8.0,7.0,247.0,10.0,1.0,0.8,0.3,Time
,,S63,1,男,20,anonymized,Serial_Dependence_U,2023.2.3,Win32,142.85714285714286,,,,,,2377.523800000012,197.0,8.0,2377.523899999976,197.0,,,,2381.495300000012,2381.995,2380.9885,2381.495300000012,2378.523800000012,2380.9885,2381.995,2382.494899999976,2382.494899999976,2384.140399999976,930.0,2384.1405,1.0,2384.1405999999643,8.0,8.0,248.0,23.0,1.0,1.4,0.3,Time
,,S63,1,男,20,anonymized,Serial_Dependence_U,2023.2.3,Win32,142.85714285714286,,,,,,2384.140899999976,295.0,8.0,2384.140899999976,295.0,,,,2387.4875,2387.987,2386.980699999988,2387.4873999999763,2385.147300000012,2386.9805999999644,2387.987,2388.4870999999644,2388.4870999999644,2389.855,875.0,2389.855,4.0,2389.855199999988,8.0,9.0,249.0,5.0,1.0,0.8,0.7,Time
,,S63,1,男,20,anonymized,Serial_Dependence_U,2023.2.3,Win32,142.85714285714286,,,,,,2389.8553999999763,345.0,8.0,2389.8555,345.0,,,,2394.000199999988,2394.5000999999643,2393.493800000012,2394.0000999999643,2390.8620999999644,2393.493800000012,2394.5000999999643,2394.999899999976,2394.999899999976,2396.923099999964,1430.0,2396.923099999964,2.0,2396.923399999976,8.0,10.0,250.0,9.0,1.0,1.6,0.7,Time
,,S63,1,男,20,anonymized,Serial_Dependence_U,2023.2.3,Win32,142.85714285714286,,,,,,2396.923599999964,39.0,8.0,2396.923699999988,39.0,,,,2401.1035999999644,2401.6030999999643,2400.596699999988,2401.1035,2397.930099999964,2400.596699999988,2401.6030999999643,2402.102800000012,2402.102800000012,2403.8525,1159.0,2403.852699999988,2.0,2403.852800000012,8.0,11.0,251.0,4.0,1.0,1.6,0.3,Time
,,S63,1,男,20,anonymized,Serial_Dependence_U,2023.2.3,Win32,142.85714285714286,,,,,,2403.853,57.0,8.0,2403.8530999999643,57.0,,,,2407.199699999988,2407.6993999999763,2406.693099999964,2407.199699999988,2404.8598999999763,2406.693,2407.6995,2408.199199999988,2408.199199999988,2409.449300000012,764.0,2409.4493999999763,3.0,2409.4495999999644,8.0,12.0,252.0,25.0,1.0,0.8,0.7,Time
,,S63,1,男,20,anonymized,Serial_Dependence_U,2023.2.3,Win32,142.85714285714286,,,,,,2409.449800000012,318.0,8.0,2409.449899999976,318.0,,,,2413.629300000012,2414.128699999988,2413.122699999988,2413.629199999988,2410.456300000012,2413.122699999988,2414.128699999988,2414.628800000012,2414.628800000012,2416.343800000012,1291.0,2416.343899999976,2.0,2416.3440999999643,8.0,13.0,253.0,14.0,1.0,1.6,0.3,Time
,,S63,1,男,20,anonymized,Serial_Dependence_U,2023.2.3,Win32,142.85714285714286,,,,,,2416.344300000012,183.0,8.0,2416.3443999999763,183.0,,,,2419.919899999976,2420.419699999988,2419.413,2419.919899999976,2417.351,2419.412899999976,2420.419699999988,2420.919599999964,2420.919599999964,2422.301199999988,895.0,2422.301300000012,2.0,2422.3015,8.0,14.0,254.0,11.0,1.0,1.0,0.3,Time
,,S63,1,男,20,anonymized,Serial_Dependence_U,2023.2.3,Win32,142.85714285714286,,,,,,2422.301800000012,222.0,8.0,2422.301800000012,222.0,,,,2425.843,2426.342,2425.336099999964,2425.842899999976,2423.3015,2425.336,2426.342,2426.8423999999764,2426.8423999999764,2428.189399999976,979.0,2428.1895,3.0,2428.189599999964,8.0,15.0,255.0,6.0,1.0,1.0,0.7,Time
,,S63,1,男,20,anonymized,Serial_Dependence_U,2023.2.3,Win32,142.85714285714286,,,,,,2428.189800000012,134.0,8.0,2428.189899999976,134.0,,,,2432.140399999976,2432.640099999964,2431.633699999988,2432.140300000012,2429.196199999988,2431.633699999988,2432.640099999964,2433.14,2433.140099999964,2434.9175,1326.0,2434.9175,2.0,2434.917699999988,8.0,16.0,256.0,18.0,1.0,1.4,0.7,Time
,,S63,1,男,20,anonymized,Serial_Dependence_U,2023.2.3,Win32,142.85714285714286,,,,,,2434.918,214.0,8.0,2434.918,214.0,,,,2438.292,2438.792,2437.785300000012,2438.292,2435.9245999999644,2437.785199999988,2438.792,2439.291699999988,2439.291699999988,2440.3200999999644,578.0,2440.3200999999644,2.0,2440.3201999999883,8.0,17.0,257.0,0.0,1.0,0.8,0.3,Time
,,S63,1,男,20,anonymized,Serial_Dependence_U,2023.2.3,Win32,142.85714285714286,,,,,,2440.320399999976,206.0,8.0,2440.3205,206.0,,,,2444.270699999988,2444.770199999988,2443.763699999988,2444.2705999999644,2441.3263999999763,2443.763699999988,2444.770300000012,2445.270199999988,2445.270199999988,2447.026800000012,1305.0,2447.026899999976,2.0,2447.0270999999643,8.0,18.0,258.0,28.0,1.0,1.4,0.7,Time
,,S63,1,男,20,anonymized,Serial_Dependence_U,2023.2.3,Win32,142.85714285714286,,,,,,2447.027300000012,299.0,8.0,2447.0273999999763,299.0,,,,2450.8045,2451.303899999976,2450.2975,2450.8043999999763,2448.034,2450.2975,2451.303899999976,2451.803699999988,2451.803699999988,2453.234099999964,972.0,2453.234099999964,2.0,2453.234399999976,8.0,19.0,259.0,2.0,1.0,1.2,0.3,Time
,,S63,1,男,20,anonymized,Serial_Dependence_U,2023.2.3,Win32,142.85714285714286,,,,,,2453.2345,168.0,8.0,2453.2345999999643,168.0,,,,2456.810399999976,2457.309899999976,2456.303399999976,2456.810300000012,2454.241300000012,2456.303300000012,2457.309899999976,2457.809899999976,2457.809899999976,2459.309800000012,944.0,2459.309800000012,2.0,2459.31,8.0,20.0,260.0,1.0,1.0,1.0,0.3,Time
