Scale_setup.started,Scale_setup.stopped,participant,session,sex,age,date,expName,psychopyVersion,OS,frameRate,Intro.started,Intro.stopped,key_resp_2.keys,key_resp_2.rt,key_resp_2.duration,block.started,direction,Block_id,block.stopped,trial_direction,Block_resp_2.keys,Block_resp_2.rt,Block_resp_2.duration,ITI.started,ITI.stopped,Mask_2.started,Mask_2.stopped,encoding.started,encoding.stopped,Cue.started,Cue.stopped,Response.started,Response.stopped,keyDuration,Feedback_Time.started,FeedbackID_T,Feedback_Time.stopped,trials.thisRepN,trials.thisTrialN,trials.thisN,trials.thisIndex,trials.ran,TimeDur,Coherence1,TrialType
0.0001999998092969,0.0004999999999881,S64,1,女,27,anonymized,Serial_Dependence_U,2023.2.3,Win32,59.52380952364454,,,,,,,,,,,,,,,,,,,,,,,,,,,,,,,,,,,
,,S64,1,女,27,anonymized,Serial_Dependence_U,2023.2.3,Win32,59.52380952364454,229.09029999995232,306.2090999999046,space,77.0591000001429,,,,,,,,,,,,,,,,,,,,,,,,,,,,,,,
,,S64,1,女,27,anonymized,Serial_Dependence_U,2023.2.3,Win32,59.52380952364454,,,,,,306.22029999995226,18.0,0.0,318.84039999985686,18.0,s,12.598300000190877,,322.42319999980924,322.9225,321.90739999985686,322.42300000000006,319.85989999985696,321.9065999999046,322.92289999985684,323.42289999985684,323.42309999990454,336.854399999857,3250.0,336.8564999999999,5.0,337.8535999999047,0.0,0.0,0.0,26.0,1.0,1.0,0.7,Time
,,S64,1,女,27,anonymized,Serial_Dependence_U,2023.2.3,Win32,59.52380952364454,,,,,,337.8545,208.0,0.0,337.86019999980914,208.0,,,,342.0388999998568,342.53729999995227,341.52359999990455,342.03879999995235,338.85600000000005,341.52350000000007,342.537399999857,343.0371999998093,343.03729999995227,350.1067999999524,5484.0,350.1067999999524,5.0,351.1022999999523,0.0,1.0,1.0,14.0,1.0,1.6,0.3,Time
,,S64,1,女,27,anonymized,Serial_Dependence_U,2023.2.3,Win32,59.52380952364454,,,,,,351.1035,354.0,0.0,351.1037999999522,354.0,,,,354.6861999998092,355.1852999999522,354.17189999985686,354.6861999998092,352.1050000000001,354.1716999998092,355.1852999999522,355.6852999999522,355.6853999998569,362.0875999999046,4614.0,362.0876999998093,5.0,363.0841999998093,0.0,2.0,2.0,11.0,1.0,1.0,0.3,Time
,,S64,1,女,27,anonymized,Serial_Dependence_U,2023.2.3,Win32,59.52380952364454,,,,,,363.0847999999524,249.0,0.0,363.0849999999999,249.0,,,,366.88400000000007,367.3832999999522,366.36979999995225,366.8837999999524,364.1019999999999,366.36969999980926,367.3832999999522,367.8832999999522,367.883399999857,373.05329999995234,2669.0,373.0533999998568,5.0,374.0501999998092,0.0,3.0,3.0,2.0,1.0,1.2,0.3,Time
,,S64,1,女,27,anonymized,Serial_Dependence_U,2023.2.3,Win32,59.52380952364454,,,,,,374.0505999999046,106.0,0.0,374.0507999999523,106.0,,,,377.64889999985695,378.14850000000007,377.1348999998568,377.64879999995225,375.0667999999524,377.1347999999524,378.14850000000007,378.6481999998092,378.6482999999524,383.1510999999046,2550.0,383.1512999999523,5.0,384.1474999999999,0.0,4.0,4.0,21.0,1.0,1.0,0.3,Time
,,S64,1,女,27,anonymized,Serial_Dependence_U,2023.2.3,Win32,59.52380952364454,,,,,,384.1482999999524,164.0,0.0,384.14869999980925,164.0,,,,388.0977999999523,388.5962999999522,387.5825999999045,388.0975999999046,385.1497999999522,387.5825,388.59639999985694,389.0966999998091,389.09679999995234,394.0830999999046,3828.0,394.0832999999523,5.0,395.08079999995226,0.0,5.0,5.0,18.0,1.0,1.4,0.7,Time
,,S64,1,女,27,anonymized,Serial_Dependence_U,2023.2.3,Win32,59.52380952364454,,,,,,395.0810999999047,85.0,0.0,395.0815999999045,85.0,,,,398.445899999857,398.9442999999522,397.93079999995217,398.4457999999522,396.09600000000006,397.9306999998092,398.9447999999523,399.4447999999523,399.444899999857,405.23029999995225,3616.0,405.23039999985696,5.0,406.2268999998569,0.0,6.0,6.0,15.0,1.0,0.8,0.7,Time
,,S64,1,女,27,anonymized,Serial_Dependence_U,2023.2.3,Win32,59.52380952364454,,,,,,406.2277999999522,148.0,0.0,406.2280999999046,148.0,,,,409.6272999999522,410.12579999995233,409.1131999998093,409.6270999999045,407.2465999999045,409.1129999999999,410.1264999999999,410.627899999857,410.627899999857,414.81179999995226,3164.0,414.81189999985696,5.0,415.8107999999523,0.0,7.0,7.0,0.0,1.0,0.8,0.3,Time
,,S64,1,女,27,anonymized,Serial_Dependence_U,2023.2.3,Win32,59.52380952364454,,,,,,415.8110999999047,263.0,0.0,415.81139999985686,263.0,,,,420.00919999980925,420.5078999998569,419.49439999985685,420.00900000000007,416.8257999999524,419.4942999999524,420.5078999998569,421.0078999998569,421.0079999999999,425.3440999999046,3516.0,425.3440999999046,5.0,426.34,0.0,8.0,8.0,4.0,1.0,1.6,0.3,Time
,,S64,1,女,27,anonymized,Serial_Dependence_U,2023.2.3,Win32,59.52380952364454,,,,,,426.34089999985696,122.0,0.0,426.34119999980913,122.0,,,,430.5085,431.0058999998569,429.9925999999046,430.5085,427.3577999999523,429.9925999999046,431.0060999999046,431.506399999857,431.5065999999045,435.8086999998093,3567.0,435.8087999999523,5.0,436.8055999999047,0.0,9.0,9.0,19.0,1.0,1.6,0.7,Time
,,S64,1,女,27,anonymized,Serial_Dependence_U,2023.2.3,Win32,59.52380952364454,,,,,,436.8060999999046,308.0,0.0,436.806399999857,308.0,,,,440.7555999999045,441.25450000000006,440.2405999999047,440.7553999998568,437.80769999980913,440.2405,441.2545999999045,441.7545999999045,441.7546999998093,445.15769999980927,3063.0,445.15779999995226,5.0,446.15400000000005,0.0,10.0,10.0,28.0,1.0,1.4,0.7,Time
,,S64,1,女,27,anonymized,Serial_Dependence_U,2023.2.3,Win32,59.52380952364454,,,,,,446.1544999999999,311.0,0.0,446.1546999998093,311.0,,,,449.5542999999523,450.0525999999045,449.0390999999045,449.5541999998093,447.1708999998569,449.039,450.0526999998093,450.55289999985695,450.553,453.589899999857,2152.0,453.59,5.0,454.5851999998093,0.0,11.0,11.0,10.0,1.0,0.8,0.3,Time
,,S64,1,女,27,anonymized,Serial_Dependence_U,2023.2.3,Win32,59.52380952364454,,,,,,454.58619999980925,46.0,0.0,454.5865999999047,46.0,,,,457.9357999999523,458.435,457.4208999998569,457.9356999998093,455.588899999857,457.4207999999522,458.435,458.9372999999524,458.9373999998568,462.3040999999046,2832.0,462.3040999999046,5.0,463.3021999998092,0.0,12.0,12.0,25.0,1.0,0.8,0.7,Time
,,S64,1,女,27,anonymized,Serial_Dependence_U,2023.2.3,Win32,59.52380952364454,,,,,,463.3025999999045,321.0,0.0,463.3027999999522,321.0,,,,467.2843999998568,467.7851999998093,466.7692999999522,467.2843999998568,464.3037999999522,466.7691999998093,467.7851999998093,468.28279999995226,468.2832999999524,472.57029999995217,3546.0,472.57029999995217,5.0,473.56629999995226,0.0,13.0,13.0,13.0,1.0,1.4,0.3,Time
,,S64,1,女,27,anonymized,Serial_Dependence_U,2023.2.3,Win32,59.52380952364454,,,,,,473.5667999999524,38.0,0.0,473.56700000000006,38.0,,,,477.7675999999047,478.26450000000006,477.2510999999045,477.7675999999047,474.5845999999047,477.251,478.2646999998093,478.76489999985694,478.76489999985694,484.6172999999522,5127.0,484.6172999999522,5.0,485.6137999999524,0.0,14.0,14.0,24.0,1.0,1.6,0.3,Time
,,S64,1,女,27,anonymized,Serial_Dependence_U,2023.2.3,Win32,59.52380952364454,,,,,,485.6145,354.0,0.0,485.6147999999524,354.0,,,,489.3974999999999,489.896,488.8825,489.3973999998569,486.6162999999522,488.8825,489.8962999999522,490.3963999998569,490.3964999999999,496.58209999990464,2073.0,496.58209999990464,5.0,497.5785999999046,0.0,15.0,15.0,12.0,1.0,1.2,0.3,Time
,,S64,1,女,27,anonymized,Serial_Dependence_U,2023.2.3,Win32,59.52380952364454,,,,,,497.5794999999999,258.0,0.0,497.5796999998093,258.0,,,,501.5787999999523,502.07749999999993,501.0636999998092,501.5786999998093,498.5958999998568,501.0636999998092,502.078,502.578,502.5780999999045,508.5475,4068.0,508.5475,5.0,509.5438999998569,0.0,16.0,16.0,3.0,1.0,1.4,0.3,Time
,,S64,1,女,27,anonymized,Serial_Dependence_U,2023.2.3,Win32,59.52380952364454,,,,,,509.5443999998568,326.0,0.0,509.5446999998092,326.0,,,,513.3104999999998,513.8096999998093,512.7955999999047,513.3104999999998,510.5610999999047,512.7955,513.8096999998093,514.3092999999521,514.3092999999521,516.9287999999522,2483.0,516.9287999999522,5.0,517.9254999999998,0.0,17.0,17.0,17.0,1.0,1.2,0.7,Time
,,S64,1,女,27,anonymized,Serial_Dependence_U,2023.2.3,Win32,59.52380952364454,,,,,,517.9259999999999,68.0,0.0,517.9261999998091,68.0,,,,521.5086999998091,522.0095999999046,520.9942999999523,521.5083999998569,518.9275,520.9941999998091,522.0095999999046,522.5079999999998,522.5080999999045,526.3104999999998,2801.0,526.3104999999998,5.0,527.3091999998092,0.0,18.0,18.0,1.0,1.0,1.0,0.3,Time
,,S64,1,女,27,anonymized,Serial_Dependence_U,2023.2.3,Win32,59.52380952364454,,,,,,527.3095999999045,207.0,0.0,527.3097999999522,207.0,,,,531.0756999998091,531.5729999999999,530.5595999999045,531.0756999998091,528.3263999998569,530.5594999999998,531.5729999999999,532.0727999999522,532.0728999998569,536.7251999998091,3278.0,536.7252999999523,5.0,537.7220999999045,0.0,19.0,19.0,7.0,1.0,1.2,0.7,Time
,,S64,1,女,27,anonymized,Serial_Dependence_U,2023.2.3,Win32,59.52380952364454,,,,,,537.7227999999523,192.0,0.0,537.723,192.0,,,,541.6745999999046,542.1708999998568,541.1578999998569,541.6744999999999,538.7243999998568,541.1578999998569,542.1711999998092,542.6714999999999,542.6714999999999,547.1570999999046,3774.0,547.1570999999046,5.0,548.1542999999522,0.0,20.0,20.0,8.0,1.0,1.4,0.7,Time
,,S64,1,女,27,anonymized,Serial_Dependence_U,2023.2.3,Win32,59.52380952364454,,,,,,548.1547999999523,358.0,0.0,548.155,358.0,,,,551.703899999857,552.2023999998569,551.1890999999046,551.7036999998093,549.1563999998568,551.1888999998569,552.2025999999046,552.7031999998092,552.7032999999522,555.8556999998091,2472.0,555.8556999998091,5.0,556.8546999998091,0.0,21.0,21.0,16.0,1.0,1.0,0.7,Time
,,S64,1,女,27,anonymized,Serial_Dependence_U,2023.2.3,Win32,59.52380952364454,,,,,,556.8551999998092,219.0,0.0,556.8553999998569,219.0,,,,560.4188999998569,560.9181999998091,559.9045999999046,560.4187999999522,557.8697999999522,559.9044999999999,560.9181999998091,561.4181999998091,561.4182999999523,565.8544999999999,3529.0,565.8544999999999,5.0,566.8498999998569,0.0,22.0,22.0,6.0,1.0,1.0,0.7,Time
,,S64,1,女,27,anonymized,Serial_Dependence_U,2023.2.3,Win32,59.52380952364454,,,,,,566.8513999998568,269.0,0.0,566.8515999999045,269.0,,,,570.6172999999521,571.116899999857,570.1032999999522,570.6172999999521,567.8695999999045,570.1030999999045,571.117,571.6167999999523,571.616899999857,576.4187999999522,3601.0,576.4188999998569,5.0,577.4154999999998,0.0,23.0,23.0,27.0,1.0,1.2,0.7,Time
,,S64,1,女,27,anonymized,Serial_Dependence_U,2023.2.3,Win32,59.52380952364454,,,,,,577.4160999999046,65.0,0.0,577.4164999999998,65.0,,,,581.3852999999522,581.8806999998092,580.8841999998092,581.3850999999045,578.4170999999046,580.8840999999045,581.8810999999046,582.3810999999046,582.3815,586.8840999999045,3150.0,586.8841999998092,5.0,587.882399999857,0.0,24.0,24.0,23.0,1.0,1.4,0.3,Time
,,S64,1,女,27,anonymized,Serial_Dependence_U,2023.2.3,Win32,59.52380952364454,,,,,,587.8826999998091,249.0,0.0,587.8829999999998,249.0,,,,591.247399999857,591.7460999999046,590.7325999999046,591.2472999999522,588.8977999999522,590.7324999999998,591.7467999999521,592.2465,592.2465999999044,598.1320999999045,3523.0,598.1320999999045,5.0,599.1289999999999,0.0,25.0,25.0,5.0,1.0,0.8,0.7,Time
,,S64,1,女,27,anonymized,Serial_Dependence_U,2023.2.3,Win32,59.52380952364454,,,,,,599.1295,70.0,0.0,599.1297999999522,70.0,,,,603.2810999999047,603.7800999999045,602.7645,603.281,600.1315999999044,602.7642999999523,603.7800999999045,604.2775999999046,604.2775999999046,616.1621999998092,3424.0,616.1622999999522,5.0,617.1583999998568,0.0,26.0,26.0,9.0,1.0,1.6,0.7,Time
,,S64,1,女,27,anonymized,Serial_Dependence_U,2023.2.3,Win32,59.52380952364454,,,,,,617.1599999999999,164.0,0.0,617.160399999857,164.0,,,,620.5592999999521,621.0578999998568,620.0442999999523,620.5590999999044,618.1764999999998,620.0441999998093,621.0583999998569,621.5581999998092,621.5582999999522,625.4445999999045,3333.0,625.4446999998092,5.0,626.4426999998091,0.0,27.0,27.0,20.0,1.0,0.8,0.3,Time
,,S64,1,女,27,anonymized,Serial_Dependence_U,2023.2.3,Win32,59.52380952364454,,,,,,626.4430999999045,158.0,0.0,626.4433999998569,158.0,,,,630.6090999999046,631.1060999999045,630.0932999999523,630.6088999998569,627.4597999999523,630.0930999999046,631.1065999999046,631.6065999999046,631.6066999998093,636.1754999999998,3266.0,636.1754999999998,5.0,637.1742999999522,0.0,28.0,28.0,29.0,1.0,1.6,0.7,Time
,,S64,1,女,27,anonymized,Serial_Dependence_U,2023.2.3,Win32,59.52380952364454,,,,,,637.1745999999046,272.0,0.0,637.174899999857,272.0,,,,640.9748999998569,641.4737999999522,640.4585,640.9747999999522,638.1895,640.4585,641.4737999999522,641.9711999998092,641.9715999999046,646.9921999998091,3066.0,646.9922999999521,5.0,647.9875,0.0,29.0,29.0,22.0,1.0,1.2,0.3,Time
,,S64,1,女,27,anonymized,Serial_Dependence_U,2023.2.3,Win32,59.52380952364454,,,,,,647.9882999999522,37.0,1.0,1081.6981999998093,37.0,s,433.6859000000954,,1085.665,1086.164,1085.147899999857,1085.664899999857,1082.715,1085.1476999998092,1086.1640999999045,1086.663699999809,1086.663699999809,1093.0800999999046,3266.0,1093.0800999999046,5.0,1093.0822999999525,1.0,0.0,30.0,18.0,1.0,1.4,0.7,Time
,,S64,1,女,27,anonymized,Serial_Dependence_U,2023.2.3,Win32,59.52380952364454,,,,,,1093.0835,332.0,1.0,1093.085699999809,332.0,,,,1096.4626999998093,1096.9625999999046,1095.946,1096.4625,1094.079899999857,1095.945899999857,1096.9625999999046,1097.461699999809,1097.461699999809,1111.8101999998091,3196.0,1111.810299999952,5.0,1111.8113999998568,1.0,1.0,31.0,20.0,1.0,0.8,0.3,Time
,,S64,1,女,27,anonymized,Serial_Dependence_U,2023.2.3,Win32,59.52380952364454,,,,,,1111.8126999998092,199.0,1.0,1111.8131999998093,199.0,,,,1115.4095,1115.9088999998569,1114.8930999999045,1115.4095,1112.8265999999046,1114.8929999999998,1115.909,1116.4090999999046,1116.409199999809,1125.4080999999046,4363.0,1125.4080999999046,5.0,1125.4093999998568,1.0,2.0,32.0,1.0,1.0,1.0,0.3,Time
,,S64,1,女,27,anonymized,Serial_Dependence_U,2023.2.3,Win32,59.52380952364454,,,,,,1125.4105999999044,207.0,1.0,1125.4109999999998,207.0,,,,1128.7740999999046,1129.273199999809,1128.2570999999043,1128.774,1126.4243999998569,1128.2569999999998,1129.273199999809,1129.7733999998568,1129.7733999998568,1134.556399999857,2593.0,1134.5565999999046,5.0,1134.557699999809,1.0,3.0,33.0,5.0,1.0,0.8,0.7,Time
,,S64,1,女,27,anonymized,Serial_Dependence_U,2023.2.3,Win32,59.52380952364454,,,,,,1134.5588999998567,341.0,1.0,1134.5593999998569,341.0,,,,1138.7225,1139.222,1138.205899999857,1138.7225,1135.5727999999522,1138.2057999999522,1139.2220999999045,1139.7237999999522,1139.7240999999046,1159.301899999857,1416.0,1159.302,2.0,1159.3038999998569,1.0,4.0,34.0,9.0,1.0,1.6,0.7,Time
,,S64,1,女,27,anonymized,Serial_Dependence_U,2023.2.3,Win32,59.52380952364454,,,,,,1159.304799999952,274.0,1.0,1159.3051999998092,274.0,,,,1162.8684999999998,1163.367899999857,1162.3518999998569,1162.868299999952,1160.318899999857,1162.3518999998569,1163.367899999857,1163.8673999998568,1163.8675999999043,1170.8165999999046,2124.0,1170.816699999809,5.0,1170.8177999999525,1.0,5.0,35.0,26.0,1.0,1.0,0.7,Time
,,S64,1,女,27,anonymized,Serial_Dependence_U,2023.2.3,Win32,59.52380952364454,,,,,,1170.8191999998091,211.0,1.0,1170.8195999999043,211.0,,,,1175.0158999998569,1175.5156999998092,1174.4998999998568,1175.0157999999522,1171.833,1174.4997999999523,1175.5157999999522,1176.0158999998569,1176.0158999998569,1184.7982999999522,2312.0,1184.7983999998569,5.0,1184.8,1.0,6.0,36.0,4.0,1.0,1.6,0.3,Time
,,S64,1,女,27,anonymized,Serial_Dependence_U,2023.2.3,Win32,59.52380952364454,,,,,,1184.8007999999522,76.0,1.0,1184.8010999999046,76.0,,,,1188.9975,1189.4966999998092,1188.4808999998568,1188.997399999857,1185.8149999999998,1188.4807999999523,1189.496799999952,1189.9966999998092,1189.9966999998092,1198.1792999999525,4850.0,1198.179399999857,5.0,1198.180799999952,1.0,7.0,37.0,24.0,1.0,1.6,0.3,Time
,,S64,1,女,27,anonymized,Serial_Dependence_U,2023.2.3,Win32,59.52380952364454,,,,,,1198.1820999999045,32.0,1.0,1198.182399999857,32.0,,,,1202.1447999999525,1202.6445999999046,1201.628899999857,1202.1445999999046,1199.1957999999522,1201.6287999999522,1202.644699999809,1203.1447999999525,1203.1448999998568,1208.5437999999522,3865.0,1208.5438999998569,5.0,1208.5455,1.0,8.0,38.0,8.0,1.0,1.4,0.7,Time
,,S64,1,女,27,anonymized,Serial_Dependence_U,2023.2.3,Win32,59.52380952364454,,,,,,1208.546699999809,329.0,1.0,1208.547399999857,329.0,,,,1212.5436999998092,1213.043199999809,1212.0270999999043,1212.5435999999045,1209.5613999998568,1212.0270999999043,1213.0432999999523,1213.543,1213.5430999999046,1218.6592999999525,3626.0,1218.6592999999525,5.0,1218.660399999857,1.0,9.0,39.0,13.0,1.0,1.4,0.3,Time
,,S64,1,女,27,anonymized,Serial_Dependence_U,2023.2.3,Win32,59.52380952364454,,,,,,1218.6616999998091,50.0,1.0,1218.6621999998092,50.0,,,,1222.0582999999522,1222.558,1221.5420999999046,1222.0580999999045,1219.675299999952,1221.542,1222.5580999999045,1223.058,1223.0580999999045,1227.7247999999522,3052.0,1227.724899999857,5.0,1227.727,1.0,10.0,40.0,10.0,1.0,0.8,0.3,Time
,,S64,1,女,27,anonymized,Serial_Dependence_U,2023.2.3,Win32,59.52380952364454,,,,,,1227.727399999857,296.0,1.0,1227.7276999998091,296.0,,,,1231.0738999998568,1231.5733999998567,1230.5570999999045,1231.0738999998568,1228.7243999998568,1230.5568999998568,1231.5735,1232.0728999998569,1232.0728999998569,1235.9897999999523,3769.0,1235.9898999998568,5.0,1235.9907999999523,1.0,11.0,41.0,25.0,1.0,0.8,0.7,Time
,,S64,1,女,27,anonymized,Serial_Dependence_U,2023.2.3,Win32,59.52380952364454,,,,,,1235.9923999998568,89.0,1.0,1235.9926999998092,89.0,,,,1239.388899999857,1239.8885999999045,1238.872799999952,1239.388899999857,1237.0062999999525,1238.8726999998091,1239.8886999998092,1240.3885999999045,1240.3886999998092,1245.221699999809,2867.0,1245.221699999809,5.0,1245.222899999857,1.0,12.0,42.0,0.0,1.0,0.8,0.3,Time
,,S64,1,女,27,anonymized,Serial_Dependence_U,2023.2.3,Win32,59.52380952364454,,,,,,1245.2240999999046,138.0,1.0,1245.2244999999998,138.0,,,,1249.0207999999525,1249.5198999998568,1248.504199999809,1249.0207999999525,1246.2380999999043,1248.5040999999046,1249.5200999999045,1250.0203999998569,1250.0203999998569,1253.5368999998568,3243.0,1253.5369999999998,5.0,1253.538,1.0,13.0,43.0,2.0,1.0,1.2,0.3,Time
,,S64,1,女,27,anonymized,Serial_Dependence_U,2023.2.3,Win32,59.52380952364454,,,,,,1253.5393999998569,134.0,1.0,1253.539899999857,134.0,,,,1257.136299999952,1257.6355,1256.6197999999522,1257.1361999998092,1254.5535999999045,1256.6196999998092,1257.6355999999046,1258.1356999998093,1258.1356999998093,1261.5523999998568,2928.0,1261.553,5.0,1261.554399999857,1.0,14.0,44.0,11.0,1.0,1.0,0.3,Time
,,S64,1,女,27,anonymized,Serial_Dependence_U,2023.2.3,Win32,59.52380952364454,,,,,,1261.554799999952,14.0,1.0,1261.5551999998092,14.0,,,,1265.3182999999522,1265.8175,1264.803,1265.3181999998092,1262.5686999998093,1264.8020999999046,1265.8177999999525,1266.3175,1266.3175999999046,1272.1005,3441.0,1272.1005999999045,5.0,1272.1021999998093,1.0,15.0,45.0,27.0,1.0,1.2,0.7,Time
,,S64,1,女,27,anonymized,Serial_Dependence_U,2023.2.3,Win32,59.52380952364454,,,,,,1272.1030999999043,1.0,1.0,1272.103399999857,1.0,,,,1276.2665,1276.7657999999522,1275.7498999998568,1276.266399999857,1273.1173999998568,1275.7498999998568,1276.7658999998569,1277.2655999999045,1277.2657999999522,1281.5322999999523,3780.0,1281.5322999999523,5.0,1281.5343999998568,1.0,16.0,46.0,19.0,1.0,1.6,0.7,Time
,,S64,1,女,27,anonymized,Serial_Dependence_U,2023.2.3,Win32,59.52380952364454,,,,,,1281.5350999999046,132.0,1.0,1281.5352999999525,132.0,,,,1285.098299999952,1285.5976999998093,1284.581899999857,1285.0981999998091,1282.5487999999525,1284.5817999999522,1285.5977999999525,1286.0973999998569,1286.0975,1289.6805,3374.0,1289.6805999999046,5.0,1289.682,1.0,17.0,47.0,6.0,1.0,1.0,0.7,Time
,,S64,1,女,27,anonymized,Serial_Dependence_U,2023.2.3,Win32,59.52380952364454,,,,,,1289.6831999998092,358.0,1.0,1289.6835999999046,358.0,,,,1293.2805999999046,1293.7795999999046,1292.7637999999522,1293.2804999999998,1290.6991999998093,1292.7637999999522,1293.7798999998568,1294.2795999999046,1294.2796999998093,1298.213,3012.0,1298.2130999999044,5.0,1298.2145999999043,1.0,18.0,48.0,21.0,1.0,1.0,0.3,Time
,,S64,1,女,27,anonymized,Serial_Dependence_U,2023.2.3,Win32,59.52380952364454,,,,,,1298.2156999998092,12.0,1.0,1298.216,12.0,,,,1302.378899999857,1302.8784999999998,1301.862399999857,1302.3787999999522,1299.2289999999998,1301.8622999999525,1302.8785999999045,1303.3780999999046,1303.378199999809,1307.9112999999522,3648.0,1307.9112999999522,5.0,1307.9131999998092,1.0,19.0,49.0,29.0,1.0,1.6,0.7,Time
,,S64,1,女,27,anonymized,Serial_Dependence_U,2023.2.3,Win32,59.52380952364454,,,,,,1307.9140999999045,355.0,1.0,1307.9143999998569,355.0,,,,1311.677,1312.1765,1311.1605999999044,1311.677,1308.9276999998092,1311.1605,1312.1765999999047,1312.6765999999047,1312.6765999999047,1317.0265,3400.0,1317.0265999999046,5.0,1317.026899999857,1.0,20.0,50.0,17.0,1.0,1.2,0.7,Time
,,S64,1,女,27,anonymized,Serial_Dependence_U,2023.2.3,Win32,59.52380952364454,,,,,,1317.0285999999046,317.0,1.0,1317.029799999952,317.0,,,,1320.9935999999047,1321.4913999998566,1320.476,1320.9931999998091,1318.042699999809,1320.475899999857,1321.4915999999043,1321.991699999809,1321.991799999952,1327.4249999999995,3595.0,1327.4250999999044,5.0,1327.4265,1.0,21.0,51.0,28.0,1.0,1.4,0.7,Time
,,S64,1,女,27,anonymized,Serial_Dependence_U,2023.2.3,Win32,59.52380952364454,,,,,,1327.4276999998092,308.0,1.0,1327.428,308.0,,,,1331.2240999999044,1331.7235999999048,1330.7075999999047,1331.2239999999997,1328.4411999998092,1330.7075,1331.723699999809,1332.2235,1332.2235999999048,1338.5562999999524,3599.0,1338.556799999952,5.0,1338.5583999998566,1.0,22.0,52.0,12.0,1.0,1.2,0.3,Time
,,S64,1,女,27,anonymized,Serial_Dependence_U,2023.2.3,Win32,59.52380952364454,,,,,,1338.558799999952,72.0,1.0,1338.5591999998092,72.0,,,,1342.355799999952,1342.8547999999523,1341.840199999809,1342.355799999952,1339.5726999998092,1341.8395999999047,1342.854899999857,1343.354899999857,1343.354899999857,1347.054799999952,3387.0,1347.0556999998091,5.0,1347.0570999999045,1.0,23.0,53.0,22.0,1.0,1.2,0.3,Time
,,S64,1,女,27,anonymized,Serial_Dependence_U,2023.2.3,Win32,59.52380952364454,,,,,,1347.057399999857,74.0,1.0,1347.057899999857,74.0,,,,1351.2537999999522,1351.753299999952,1350.7373999998567,1351.2535999999045,1348.0715,1350.737299999952,1351.753299999952,1352.2535999999045,1352.2535999999045,1356.8534999999997,3646.0,1356.8535999999044,5.0,1356.855799999952,1.0,24.0,54.0,14.0,1.0,1.6,0.3,Time
,,S64,1,女,27,anonymized,Serial_Dependence_U,2023.2.3,Win32,59.52380952364454,,,,,,1356.8562999999522,326.0,1.0,1356.8566999998093,326.0,,,,1360.619299999952,1361.118699999809,1360.103299999952,1360.619199999809,1357.8697999999522,1360.1030999999043,1361.118699999809,1361.6185999999047,1361.618699999809,1366.0185,3692.0,1366.0185999999044,5.0,1366.0195999999046,1.0,25.0,55.0,7.0,1.0,1.2,0.7,Time
,,S64,1,女,27,anonymized,Serial_Dependence_U,2023.2.3,Win32,59.52380952364454,,,,,,1366.020799999952,225.0,1.0,1366.0211999998091,225.0,,,,1370.0177999999523,1370.5170999999043,1369.5011999998092,1370.017699999809,1367.0348999998569,1369.5010999999045,1370.5170999999043,1371.0170999999043,1371.0170999999043,1375.900299999952,3445.0,1375.9004999999995,5.0,1375.9023999998567,1.0,26.0,56.0,23.0,1.0,1.4,0.3,Time
,,S64,1,女,27,anonymized,Serial_Dependence_U,2023.2.3,Win32,59.52380952364454,,,,,,1375.9029999999998,298.0,1.0,1375.903399999857,298.0,,,,1379.2495999999046,1379.7489999999998,1378.7331999998091,1379.2495,1376.9,1378.7329999999995,1379.7490999999045,1380.2489999999998,1380.2490999999045,1384.8321999998093,2940.0,1384.8322999999525,5.0,1384.8334999999995,1.0,27.0,57.0,15.0,1.0,0.8,0.7,Time
,,S64,1,女,27,anonymized,Serial_Dependence_U,2023.2.3,Win32,59.52380952364454,,,,,,1384.834899999857,97.0,1.0,1384.835199999809,97.0,,,,1388.8307999999524,1389.330899999857,1388.3147999999524,1388.8307999999524,1385.848399999857,1388.3146999998094,1389.331,1389.830899999857,1389.831,1394.0307999999525,3576.0,1394.0315,5.0,1394.033,1.0,28.0,58.0,3.0,1.0,1.4,0.3,Time
,,S64,1,女,27,anonymized,Serial_Dependence_U,2023.2.3,Win32,59.52380952364454,,,,,,1394.0332999999523,107.0,1.0,1394.0335999999047,107.0,,,,1397.5960999999047,1398.095899999857,1397.0800999999046,1397.596,1395.046899999857,1397.08,1398.096,1398.595899999857,1398.596,1403.9955999999047,3333.0,1403.9955999999047,5.0,1403.9965999999044,1.0,29.0,59.0,16.0,1.0,1.0,0.7,Time
,,S64,1,女,27,anonymized,Serial_Dependence_U,2023.2.3,Win32,59.52380952364454,,,,,,1403.998,199.0,2.0,1412.4101999998093,199.0,s,8.386200000047666,,1416.177,1416.676,1415.660399999857,1416.177,1413.4268999998567,1415.6601999998093,1416.6760999999046,1417.1762999999523,1417.1762999999523,1421.075699999809,3540.0,1421.0757999999523,5.0,1421.077899999857,2.0,0.0,60.0,27.0,1.0,1.2,0.7,Time
,,S64,1,女,27,anonymized,Serial_Dependence_U,2023.2.3,Win32,59.52380952364454,,,,,,1421.0785999999043,5.0,2.0,1421.0802999999523,5.0,,,,1425.042,1425.5414999999998,1424.5278999998568,1425.041899999857,1422.092,1424.527799999952,1425.5415999999043,1426.041299999952,1426.0413999998568,1430.1407999999524,3586.0,1430.140899999857,5.0,1430.1418999998568,2.0,1.0,61.0,28.0,1.0,1.4,0.7,Time
,,S64,1,女,27,anonymized,Serial_Dependence_U,2023.2.3,Win32,59.52380952364454,,,,,,1430.1432999999524,87.0,2.0,1430.143699999809,87.0,,,,1433.7072999999525,1434.2065999999045,1433.190699999809,1433.7070999999046,1431.1575999999045,1433.190699999809,1434.2065999999045,1434.7067999999522,1434.706899999857,1439.2733999998568,3464.0,1439.2736999998092,5.0,1439.2759999999998,2.0,2.0,62.0,6.0,1.0,1.0,0.7,Time
,,S64,1,女,27,anonymized,Serial_Dependence_U,2023.2.3,Win32,59.52380952364454,,,,,,1439.276399999857,84.0,2.0,1439.2767999999523,84.0,,,,1443.2725,1443.7715999999043,1442.7558999998569,1443.2725,1440.2895,1442.7557999999522,1443.7716999998092,1444.2713999998568,1444.2714999999998,1448.7215999999044,3803.0,1448.7215999999044,5.0,1448.7226999998093,2.0,3.0,63.0,23.0,1.0,1.4,0.3,Time
,,S64,1,女,27,anonymized,Serial_Dependence_U,2023.2.3,Win32,59.52380952364454,,,,,,1448.7240999999044,225.0,2.0,1448.7243999998568,225.0,,,,1452.321,1452.820299999952,1451.804199999809,1452.320899999857,1449.7378999998568,1451.804199999809,1452.8203999998568,1453.3201999998091,1453.320299999952,1457.1709999999998,3176.0,1457.1715999999046,5.0,1457.1725999999044,2.0,4.0,64.0,21.0,1.0,1.0,0.3,Time
,,S64,1,女,27,anonymized,Serial_Dependence_U,2023.2.3,Win32,59.52380952364454,,,,,,1457.1729999999998,284.0,2.0,1457.1732999999522,284.0,,,,1461.3360999999045,1461.835199999809,1460.8191999998094,1461.3359999999998,1458.1866999998092,1460.819099999905,1461.835199999809,1462.3352999999524,1462.3353999998567,1466.2520999999049,3709.0,1466.2520999999049,5.0,1466.254699999809,2.0,5.0,65.0,9.0,1.0,1.6,0.7,Time
,,S64,1,女,27,anonymized,Serial_Dependence_U,2023.2.3,Win32,59.52380952364454,,,,,,1466.2550999999044,311.0,2.0,1466.2553999998568,311.0,,,,1469.8179999999998,1470.3172999999524,1469.3012999999523,1469.8178999998568,1467.268399999857,1469.3012999999523,1470.317399999857,1470.8172999999524,1470.817399999857,1477.716699999809,3374.0,1477.7167999999524,5.0,1477.7182999999525,2.0,6.0,66.0,16.0,1.0,1.0,0.7,Time
,,S64,1,女,27,anonymized,Serial_Dependence_U,2023.2.3,Win32,59.52380952364454,,,,,,1477.7190999999048,219.0,2.0,1477.7194999999997,219.0,,,,1481.5160999999043,1482.0155,1480.9995999999046,1481.516,1478.7331999998091,1480.9995,1482.015599999905,1482.516199999809,1482.516299999952,1486.5486999998093,3502.0,1486.5487999999525,5.0,1486.5498999998567,2.0,7.0,67.0,22.0,1.0,1.2,0.3,Time
,,S64,1,女,27,anonymized,Serial_Dependence_U,2023.2.3,Win32,59.52380952364454,,,,,,1486.5511999998091,90.0,2.0,1486.5515999999047,90.0,,,,1490.5146999998092,1491.013699999809,1489.997899999857,1490.5145999999045,1487.565,1489.9977999999523,1491.013699999809,1491.5140999999044,1491.514199999809,1496.3136999998092,3728.0,1496.3136999998092,5.0,1496.3146999998094,2.0,8.0,68.0,18.0,1.0,1.4,0.7,Time
,,S64,1,女,27,anonymized,Serial_Dependence_U,2023.2.3,Win32,59.52380952364454,,,,,,1496.3160999999045,344.0,2.0,1496.3165999999046,344.0,,,,1500.1130999999043,1500.612,1499.5965999999044,1500.1128999998568,1497.3295999999043,1499.5965,1500.612,1501.1125999999044,1501.1126999998091,1505.3455,3474.0,1505.3455999999046,5.0,1505.3475,2.0,9.0,69.0,2.0,1.0,1.2,0.3,Time
,,S64,1,女,27,anonymized,Serial_Dependence_U,2023.2.3,Win32,59.52380952364454,,,,,,1505.348099999905,215.0,2.0,1505.348399999857,215.0,,,,1509.5124999999998,1510.011,1508.9950999999046,1509.5118999998567,1506.362,1508.995,1510.011,1510.511,1510.511099999905,1516.0937999999524,3530.0,1516.093899999857,5.0,1516.094699999809,2.0,10.0,70.0,19.0,1.0,1.6,0.7,Time
,,S64,1,女,27,anonymized,Serial_Dependence_U,2023.2.3,Win32,59.52380952364454,,,,,,1516.096199999809,172.0,2.0,1516.096699999809,172.0,,,,1519.4765999999045,1519.9757999999524,1518.96,1519.4764999999998,1517.0935999999049,1518.96,1519.9757999999524,1520.4757999999524,1520.4757999999524,1524.3424999999995,3129.0,1524.3425999999045,5.0,1524.3440999999048,2.0,11.0,71.0,20.0,1.0,0.8,0.3,Time
,,S64,1,女,27,anonymized,Serial_Dependence_U,2023.2.3,Win32,59.52380952364454,,,,,,1524.3450999999045,137.0,2.0,1524.3455,137.0,,,,1528.5415999999043,1529.0409999999997,1528.0253999998567,1528.5414999999998,1525.3590999999046,1528.025299999952,1529.0409999999997,1529.5409999999997,1529.5410999999044,1534.2574999999997,3511.0,1534.2575999999044,5.0,1534.2595,2.0,12.0,72.0,24.0,1.0,1.6,0.3,Time
,,S64,1,女,27,anonymized,Serial_Dependence_U,2023.2.3,Win32,59.52380952364454,,,,,,1534.2603999998569,339.0,2.0,1534.2606999998093,339.0,,,,1537.656399999857,1538.156,1537.14,1537.6562999999524,1535.273899999857,1537.1398999998569,1538.156,1538.6560999999049,1538.6561999998094,1543.0225,3099.0,1543.0225999999047,5.0,1543.023199999809,2.0,13.0,73.0,0.0,1.0,0.8,0.3,Time
,,S64,1,女,27,anonymized,Serial_Dependence_U,2023.2.3,Win32,59.52380952364454,,,,,,1543.0248999998566,175.0,2.0,1543.0253999998567,175.0,,,,1546.8215999999047,1547.3215,1546.3050999999043,1546.8215,1544.0391999998092,1546.3050999999043,1547.3215999999047,1547.821199999809,1547.8212999999523,1551.9712999999524,3502.0,1551.9713999998569,5.0,1551.9723999998569,2.0,14.0,74.0,12.0,1.0,1.2,0.3,Time
,,S64,1,女,27,anonymized,Serial_Dependence_U,2023.2.3,Win32,59.52380952364454,,,,,,1551.973799999952,91.0,2.0,1551.974299999952,91.0,,,,1555.5371999998092,1556.036799999952,1555.020799999952,1555.5370999999045,1552.9876999998091,1555.020699999809,1556.036799999952,1556.5366999998091,1556.536799999952,1560.7366999998094,2910.0,1560.7368999998566,5.0,1560.7381999998092,2.0,15.0,75.0,26.0,1.0,1.0,0.7,Time
,,S64,1,女,27,anonymized,Serial_Dependence_U,2023.2.3,Win32,59.52380952364454,,,,,,1560.739199999809,39.0,2.0,1560.7395,39.0,,,,1564.7025,1565.201799999952,1564.1858999998567,1564.7023999998569,1561.7529999999997,1564.1857999999525,1565.201799999952,1565.701799999952,1565.7018999998568,1569.6851999998094,3346.0,1569.6852999999523,5.0,1569.686899999857,2.0,16.0,76.0,8.0,1.0,1.4,0.7,Time
,,S64,1,女,27,anonymized,Serial_Dependence_U,2023.2.3,Win32,59.52380952364454,,,,,,1569.6877999999524,257.0,2.0,1569.6880999999044,257.0,,,,1573.451,1573.950399999857,1572.9345999999043,1573.450899999857,1570.7021999998092,1572.9344999999998,1573.9505,1574.4502999999522,1574.4502999999522,1578.4668999998569,3317.0,1578.467,5.0,1578.4680999999046,2.0,17.0,77.0,7.0,1.0,1.2,0.7,Time
,,S64,1,女,27,anonymized,Serial_Dependence_U,2023.2.3,Win32,59.52380952364454,,,,,,1578.4693999998567,89.0,2.0,1578.4695999999044,89.0,,,,1581.8330999999043,1582.3320999999046,1581.3159999999998,1581.833,1579.4833999998568,1581.3159999999998,1582.3320999999046,1582.831899999857,1582.832,1586.698899999857,3054.0,1586.699,5.0,1586.699799999952,2.0,18.0,78.0,5.0,1.0,0.8,0.7,Time
,,S64,1,女,27,anonymized,Serial_Dependence_U,2023.2.3,Win32,59.52380952364454,,,,,,1586.701199999809,224.0,2.0,1586.7015999999044,224.0,,,,1590.2978999998568,1590.797699999809,1589.7820999999044,1590.297799999952,1587.7155999999045,1589.7819999999997,1590.797799999952,1591.297399999857,1591.2975,1599.079899999857,2918.0,1599.08,5.0,1599.081899999857,2.0,19.0,79.0,11.0,1.0,1.0,0.3,Time
,,S64,1,女,27,anonymized,Serial_Dependence_U,2023.2.3,Win32,59.52380952364454,,,,,,1599.0825999999047,10.0,2.0,1599.0828999998566,10.0,,,,1603.0795999999043,1603.5793999998568,1602.563,1603.0795999999043,1600.096199999809,1602.5628999998569,1603.5793999998568,1604.0790999999044,1604.0791999998091,1609.278399999857,4065.0,1609.2785999999046,5.0,1609.2795,2.0,20.0,80.0,3.0,1.0,1.4,0.3,Time
,,S64,1,女,27,anonymized,Serial_Dependence_U,2023.2.3,Win32,59.52380952364454,,,,,,1609.280899999857,39.0,2.0,1609.2812999999524,39.0,,,,1612.8778999998567,1613.3771999998094,1612.3615,1612.877799999952,1610.2953999998567,1612.3612999999525,1613.377399999857,1613.8771999998094,1613.8771999998094,1617.810399999857,3883.0,1617.8105,5.0,1617.8115999999045,2.0,21.0,81.0,1.0,1.0,1.0,0.3,Time
,,S64,1,女,27,anonymized,Serial_Dependence_U,2023.2.3,Win32,59.52380952364454,,,,,,1617.8128999998569,101.0,2.0,1617.813199999809,101.0,,,,1622.0095999999044,1622.509,1621.4930999999046,1622.0095999999044,1618.8273999998569,1621.493,1622.509199999809,1623.009,1623.0090999999047,1627.3255999999046,3820.0,1627.3255999999046,5.0,1627.326799999952,2.0,22.0,82.0,14.0,1.0,1.6,0.3,Time
,,S64,1,女,27,anonymized,Serial_Dependence_U,2023.2.3,Win32,59.52380952364454,,,,,,1627.328,80.0,2.0,1627.328399999857,80.0,,,,1630.6748999998567,1631.1743999998566,1630.1585,1630.6748999998567,1628.325399999857,1630.158399999857,1631.1745,1631.674799999952,1631.674799999952,1636.007299999952,3649.0,1636.0074999999997,5.0,1636.0100999999045,2.0,23.0,83.0,15.0,1.0,0.8,0.7,Time
,,S64,1,女,27,anonymized,Serial_Dependence_U,2023.2.3,Win32,59.52380952364454,,,,,,1636.0103999998569,270.0,2.0,1636.0106999998093,270.0,,,,1640.1735,1640.6729999999998,1639.6569999999997,1640.1732999999522,1637.023899999857,1639.6568999998567,1640.6730999999045,1641.172799999952,1641.1730999999045,1646.172399999857,4167.0,1646.172399999857,5.0,1646.1733999998569,2.0,24.0,84.0,29.0,1.0,1.6,0.7,Time
,,S64,1,女,27,anonymized,Serial_Dependence_U,2023.2.3,Win32,59.52380952364454,,,,,,1646.1748999998567,6.0,2.0,1646.1753999998568,6.0,,,,1650.3718999998569,1650.8713999998567,1649.8552999999524,1650.371799999952,1647.1890999999046,1649.8550999999047,1650.8713999998567,1651.371199999809,1651.371299999952,1656.154199999809,4102.0,1656.154199999809,5.0,1656.1550999999045,2.0,25.0,85.0,4.0,1.0,1.6,0.3,Time
,,S64,1,女,27,anonymized,Serial_Dependence_U,2023.2.3,Win32,59.52380952364454,,,,,,1656.1565999999048,222.0,2.0,1656.1569999999997,222.0,,,,1659.9200999999043,1660.4195,1659.4036999998093,1659.9200999999043,1657.1565,1659.4035999999046,1660.419599999905,1660.9197999999524,1660.919899999857,1665.3693999998568,3713.0,1665.3693999998568,5.0,1665.3714999999995,2.0,26.0,86.0,17.0,1.0,1.2,0.7,Time
,,S64,1,女,27,anonymized,Serial_Dependence_U,2023.2.3,Win32,59.52380952364454,,,,,,1665.3719999999998,331.0,2.0,1665.3722999999522,331.0,,,,1668.768199999809,1669.267899999857,1668.2516999998093,1668.7680999999047,1666.386,1668.2515,1669.268,1669.7680999999047,1669.768199999809,1673.7848999998569,3319.0,1673.7851999998093,5.0,1673.7870999999045,2.0,27.0,87.0,10.0,1.0,0.8,0.3,Time
,,S64,1,女,27,anonymized,Serial_Dependence_U,2023.2.3,Win32,59.52380952364454,,,,,,1673.7875999999046,213.0,2.0,1673.7877999999523,213.0,,,,1677.1506999998091,1677.6498999998566,1676.6342999999524,1677.1505999999044,1674.8012999999523,1676.634199999809,1677.6498999998566,1678.1500999999043,1678.1500999999043,1687.3489999999997,3431.0,1687.3489999999997,5.0,1687.35,2.0,28.0,88.0,25.0,1.0,0.8,0.7,Time
,,S64,1,女,27,anonymized,Serial_Dependence_U,2023.2.3,Win32,59.52380952364454,,,,,,1687.3513999998568,210.0,2.0,1687.3517999999522,210.0,,,,1691.3316999998092,1691.831199999809,1690.815199999809,1691.3316999998092,1688.351199999809,1690.8150999999048,1691.831299999952,1692.3310999999044,1692.331199999809,1696.5475,3920.0,1696.5475999999044,5.0,1696.5485999999046,2.0,29.0,89.0,13.0,1.0,1.4,0.3,Time
,,S64,1,女,27,anonymized,Serial_Dependence_U,2023.2.3,Win32,59.52380952364454,,,,,,1696.5498999998567,26.0,3.0,1735.290699999809,26.0,s,38.72109999990471,,1739.4905,1739.989799999952,1738.9735,1739.4905,1736.3075,1738.973399999857,1739.9898999998568,1740.4893999998567,1740.4893999998567,1745.1395999999045,3946.0,1745.1396999998092,5.0,1745.1406999998094,3.0,0.0,90.0,24.0,1.0,1.6,0.3,Time
,,S64,1,女,27,anonymized,Serial_Dependence_U,2023.2.3,Win32,59.52380952364454,,,,,,1745.1487999999522,186.0,3.0,1745.150199999809,186.0,,,,1749.3049999999998,1749.8044999999995,1748.7885999999044,1749.3049999999998,1746.1556999998093,1748.7885,1749.8045999999044,1750.3044999999995,1750.3044999999995,1756.4540999999044,4118.0,1756.4547999999522,5.0,1756.4566999998092,3.0,1.0,91.0,9.0,1.0,1.6,0.7,Time
,,S64,1,女,27,anonymized,Serial_Dependence_U,2023.2.3,Win32,59.52380952364454,,,,,,1756.457,197.0,3.0,1756.4576999998094,197.0,,,,1760.2198999998568,1760.7194999999997,1759.703399999857,1760.219799999952,1757.470399999857,1759.7032999999524,1760.7194999999997,1761.2194999999997,1761.2194999999997,1768.7357999999522,3798.0,1768.7357999999522,5.0,1768.7368999998566,3.0,2.0,92.0,7.0,1.0,1.2,0.7,Time
,,S64,1,女,27,anonymized,Serial_Dependence_U,2023.2.3,Win32,59.52380952364454,,,,,,1768.7380999999043,167.0,3.0,1768.7385,167.0,,,,1772.1016999998092,1772.601199999809,1771.5850999999047,1772.1015999999045,1769.7520999999049,1771.584899999857,1772.601199999809,1773.101,1773.101199999809,1781.0504999999998,3035.0,1781.0504999999998,5.0,1781.0517999999524,3.0,3.0,93.0,15.0,1.0,0.8,0.7,Time
,,S64,1,女,27,anonymized,Serial_Dependence_U,2023.2.3,Win32,59.52380952364454,,,,,,1781.0532999999523,159.0,3.0,1781.0535999999047,159.0,,,,1785.016299999952,1785.515399999857,1784.4997999999523,1785.016299999952,1782.066399999857,1784.4996999998093,1785.515399999857,1786.0152999999525,1786.0152999999525,1790.933,3552.0,1790.9335,5.0,1790.934299999952,3.0,4.0,94.0,18.0,1.0,1.4,0.7,Time
,,S64,1,女,27,anonymized,Serial_Dependence_U,2023.2.3,Win32,59.52380952364454,,,,,,1790.9346999998093,216.0,3.0,1790.935,216.0,,,,1794.3315999999045,1794.830899999857,1793.8162999999522,1794.3313999998568,1791.9486999998094,1793.815799999952,1794.831,1795.330899999857,1795.331,1800.0304999999998,3266.0,1800.0304999999998,5.0,1800.031399999857,3.0,5.0,95.0,10.0,1.0,0.8,0.3,Time
,,S64,1,女,27,anonymized,Serial_Dependence_U,2023.2.3,Win32,59.52380952364454,,,,,,1800.032899999857,156.0,3.0,1800.0332999999523,156.0,,,,1804.1965,1804.6956999998088,1803.6798999998568,1804.196399999857,1801.046899999857,1803.679799999952,1804.6956999998088,1805.1955999999043,1805.195799999952,1810.445,4024.0,1810.4450999999044,5.0,1810.446399999857,3.0,6.0,96.0,29.0,1.0,1.6,0.7,Time
,,S64,1,女,27,anonymized,Serial_Dependence_U,2023.2.3,Win32,59.52380952364454,,,,,,1810.4475999999045,196.0,3.0,1810.4478999998569,196.0,,,,1814.044399999857,1814.543799999952,1813.527799999952,1814.0442999999525,1811.461399999857,1813.527699999809,1814.543799999952,1815.043799999952,1815.0438999998569,1821.745399999857,3343.0,1821.7455999999047,5.0,1821.746,3.0,7.0,97.0,1.0,1.0,1.0,0.3,Time
,,S64,1,女,27,anonymized,Serial_Dependence_U,2023.2.3,Win32,59.52380952364454,,,,,,1821.7465,333.0,3.0,1821.746799999952,333.0,,,,1825.542399999857,1826.0422999999523,1825.026399999857,1825.5422999999523,1822.7600999999045,1825.026299999952,1826.042399999857,1826.5422999999523,1826.542399999857,1830.6086999998088,3425.0,1830.609399999857,5.0,1830.6110999999048,3.0,8.0,98.0,2.0,1.0,1.2,0.3,Time
,,S64,1,女,27,anonymized,Serial_Dependence_U,2023.2.3,Win32,59.52380952364454,,,,,,1830.6115,38.0,3.0,1830.6117999999524,38.0,,,,1834.1748999998567,1834.6742999999524,1833.658399999857,1834.174699999809,1831.6252999999524,1833.6582999999523,1834.6742999999524,1835.173899999857,1835.173899999857,1841.1736999998093,3226.0,1841.1737999999525,5.0,1841.1745999999043,3.0,9.0,99.0,26.0,1.0,1.0,0.7,Time
,,S64,1,女,27,anonymized,Serial_Dependence_U,2023.2.3,Win32,59.52380952364454,,,,,,1841.1760999999049,111.0,3.0,1841.1765999999047,111.0,,,,1845.3732999999525,1845.8735,1844.856899999857,1845.3730999999048,1842.190199999809,1844.856299999952,1845.8735,1846.372899999857,1846.373,1853.5385,4270.0,1853.5385,5.0,1853.5395999999048,3.0,10.0,100.0,4.0,1.0,1.6,0.3,Time
,,S64,1,女,27,anonymized,Serial_Dependence_U,2023.2.3,Win32,59.52380952364454,,,,,,1853.5408999998567,302.0,3.0,1853.541299999952,302.0,,,,1857.4870999999043,1857.9870999999043,1856.971199999809,1857.4870999999043,1854.538199999809,1856.971199999809,1857.9870999999043,1858.487,1858.4870999999043,1867.769399999857,3996.0,1867.7695,5.0,1867.7702999999524,3.0,11.0,101.0,8.0,1.0,1.4,0.7,Time
,,S64,1,女,27,anonymized,Serial_Dependence_U,2023.2.3,Win32,59.52380952364454,,,,,,1867.772,243.0,3.0,1867.7722999999523,243.0,,,,1871.752,1872.2510999999045,1871.2355,1871.751899999857,1868.7691999998087,1871.2353999998568,1872.2510999999045,1872.7513999998569,1872.7515,1878.134,3855.0,1878.1340999999047,5.0,1878.136,3.0,12.0,102.0,13.0,1.0,1.4,0.3,Time
,,S64,1,女,27,anonymized,Serial_Dependence_U,2023.2.3,Win32,59.52380952364454,,,,,,1878.136699999809,157.0,3.0,1878.137,157.0,,,,1881.533699999809,1882.033,1881.017299999952,1881.533699999809,1879.151,1881.0170999999043,1882.0331999998093,1882.533,1882.5330999999048,1886.5330999999048,3233.0,1886.5330999999048,5.0,1886.534299999952,3.0,13.0,103.0,0.0,1.0,0.8,0.3,Time
,,S64,1,女,27,anonymized,Serial_Dependence_U,2023.2.3,Win32,59.52380952364454,,,,,,1886.536,86.0,3.0,1886.536299999952,86.0,,,,1890.5155,1891.0151999998093,1889.9990999999045,1890.515399999857,1887.533,1889.999,1891.0151999998093,1891.5148999998569,1891.515,1895.5815,3859.0,1895.5815999999045,5.0,1895.5825999999047,3.0,14.0,104.0,23.0,1.0,1.4,0.3,Time
,,S64,1,女,27,anonymized,Serial_Dependence_U,2023.2.3,Win32,59.52380952364454,,,,,,1895.5838999998568,66.0,3.0,1895.584299999952,66.0,,,,1899.3473999998569,1899.8465999999044,1898.830899999857,1899.3473999998569,1896.598,1898.8307999999524,1899.846699999809,1900.3470999999045,1900.3471999998087,1904.2135,3624.0,1904.2135,5.0,1904.214699999809,3.0,15.0,105.0,27.0,1.0,1.2,0.7,Time
,,S64,1,女,27,anonymized,Serial_Dependence_U,2023.2.3,Win32,59.52380952364454,,,,,,1904.215799999952,130.0,3.0,1904.2162999999523,130.0,,,,1907.995699999809,1908.495699999809,1907.4790999999043,1907.9955,1905.2135,1907.479,1908.495699999809,1908.9960999999043,1908.996199999809,1912.978699999809,3816.0,1912.978699999809,5.0,1912.9797999999523,3.0,16.0,106.0,22.0,1.0,1.2,0.3,Time
,,S64,1,女,27,anonymized,Serial_Dependence_U,2023.2.3,Win32,59.52380952364454,,,,,,1912.9810999999045,324.0,3.0,1912.9816999998093,324.0,,,,1916.544899999857,1917.043799999952,1916.028299999952,1916.5447999999524,1913.9946999998087,1916.0280999999045,1917.0438999998569,1917.5441999998093,1917.5442999999525,1921.5106999998093,3234.0,1921.5106999998093,5.0,1921.5118999998567,3.0,17.0,107.0,6.0,1.0,1.0,0.7,Time
,,S64,1,女,27,anonymized,Serial_Dependence_U,2023.2.3,Win32,59.52380952364454,,,,,,1921.513399999857,18.0,3.0,1921.5137999999524,18.0,,,,1925.2930999999044,1925.792699999809,1924.777,1925.293,1922.5103999998569,1924.776899999857,1925.792699999809,1926.292699999809,1926.2927999999524,1931.8420999999043,3749.0,1931.8420999999043,5.0,1931.8430999999048,3.0,18.0,108.0,12.0,1.0,1.2,0.3,Time
,,S64,1,女,27,anonymized,Serial_Dependence_U,2023.2.3,Win32,59.52380952364454,,,,,,1931.8445,343.0,3.0,1931.8448999998568,343.0,,,,1935.241799999952,1935.740899999857,1934.7266999998087,1935.241799999952,1932.8586999998088,1934.7260999999044,1935.740899999857,1936.2411999998092,1936.2412999999524,1939.840799999952,3362.0,1939.840899999857,5.0,1939.842,3.0,19.0,109.0,20.0,1.0,0.8,0.3,Time
,,S64,1,女,27,anonymized,Serial_Dependence_U,2023.2.3,Win32,59.52380952364454,,,,,,1939.8435,329.0,3.0,1939.8437999999524,329.0,,,,1943.4068999998567,1943.906399999857,1942.8898999998569,1943.406799999952,1940.857399999857,1942.8898999998569,1943.9065,1944.4062999999524,1944.406399999857,1949.0393999998569,3275.0,1949.0395,5.0,1949.0405999999043,3.0,20.0,110.0,16.0,1.0,1.0,0.7,Time
,,S64,1,女,27,anonymized,Serial_Dependence_U,2023.2.3,Win32,59.52380952364454,,,,,,1949.041899999857,144.0,3.0,1949.0422999999523,144.0,,,,1953.2052999999523,1953.7046999998088,1952.6885999999045,1953.2052999999523,1950.055399999857,1952.6885999999045,1953.704799999952,1954.2046999998088,1954.2046999998088,1958.4045999999043,3878.0,1958.4045999999043,5.0,1958.405899999857,3.0,21.0,111.0,19.0,1.0,1.6,0.7,Time
,,S64,1,女,27,anonymized,Serial_Dependence_U,2023.2.3,Win32,59.52380952364454,,,,,,1958.4070999999044,155.0,3.0,1958.4075,155.0,,,,1961.770699999809,1962.2700999999047,1961.2536999998088,1961.770699999809,1959.421,1961.2535,1962.2701999998092,1962.77,1962.77,1966.4527999999525,3317.0,1966.4527999999525,5.0,1966.4540999999044,3.0,22.0,112.0,5.0,1.0,0.8,0.7,Time
,,S64,1,女,27,anonymized,Serial_Dependence_U,2023.2.3,Win32,59.52380952364454,,,,,,1966.4555,172.0,3.0,1966.455899999857,172.0,,,,1970.4190999999048,1970.9186999998087,1969.9028999998568,1970.419,1967.469699999809,1969.902799999952,1970.918799999952,1971.4186999998087,1971.418799999952,1975.7702999999524,3776.0,1975.7703999998569,5.0,1975.770799999952,3.0,23.0,113.0,28.0,1.0,1.4,0.7,Time
,,S64,1,女,27,anonymized,Serial_Dependence_U,2023.2.3,Win32,59.52380952364454,,,,,,1975.7710999999044,277.0,3.0,1975.7713999998568,277.0,,,,1979.534299999952,1980.0338999998569,1979.0175,1979.534199999809,1976.785,1979.017399999857,1980.0338999998569,1980.533699999809,1980.5337999999524,1984.3335999999044,3505.0,1984.3336999998087,5.0,1984.3355,3.0,24.0,114.0,17.0,1.0,1.2,0.7,Time
,,S64,1,女,27,anonymized,Serial_Dependence_U,2023.2.3,Win32,59.52380952364454,,,,,,1984.3361999998087,116.0,3.0,1984.3366999998093,116.0,,,,1988.3328999998569,1988.8322999999525,1987.816399999857,1988.3327999999524,1985.350399999857,1987.8161999998088,1988.832399999857,1989.3326999998092,1989.3326999998092,1996.0981999998091,3816.0,1996.0982999999524,5.0,1996.099299999952,3.0,25.0,115.0,3.0,1.0,1.4,0.3,Time
,,S64,1,女,27,anonymized,Serial_Dependence_U,2023.2.3,Win32,59.52380952364454,,,,,,1996.100899999857,56.0,3.0,1996.101299999952,56.0,,,,1999.4642999999523,1999.9635999999043,1998.9478999998569,1999.4642999999523,1997.114799999952,1998.947799999952,1999.9635999999043,2000.4636999998093,2000.463899999857,2007.929799999952,3255.0,2007.9298999998568,5.0,2007.931699999809,3.0,26.0,116.0,25.0,1.0,0.8,0.7,Time
,,S64,1,女,27,anonymized,Serial_Dependence_U,2023.2.3,Win32,59.52380952364454,,,,,,2007.932399999857,158.0,3.0,2007.9327999999523,158.0,,,,2011.529199999809,2012.0285999999048,2011.0125999999043,2011.529199999809,2008.9460999999048,2011.0123999998568,2012.0285999999048,2012.5285999999048,2012.5285999999048,2017.0111999998092,3641.0,2017.0112999999524,5.0,2017.013199999809,3.0,27.0,117.0,21.0,1.0,1.0,0.3,Time
,,S64,1,女,27,anonymized,Serial_Dependence_U,2023.2.3,Win32,59.52380952364454,,,,,,2017.013699999809,162.0,3.0,2017.0140999999044,162.0,,,,2020.6108999998569,2021.1105,2020.094299999952,2020.6108999998569,2018.0278999998568,2020.094199999809,2021.1105,2021.6100999999044,2021.610199999809,2025.6601999998093,3478.0,2025.6601999998093,5.0,2025.6610999999048,3.0,28.0,118.0,11.0,1.0,1.0,0.3,Time
,,S64,1,女,27,anonymized,Serial_Dependence_U,2023.2.3,Win32,59.52380952364454,,,,,,2025.6625,15.0,3.0,2025.662899999857,15.0,,,,2029.8590999999049,2030.358899999857,2029.3428999998569,2029.859,2026.677199999809,2029.3428999998569,2030.359,2030.8586999998088,2030.858799999952,2035.4082999999523,4023.0,2035.4085,5.0,2035.4107999999524,3.0,29.0,119.0,14.0,1.0,1.6,0.3,Time
,,S64,1,女,27,anonymized,Serial_Dependence_U,2023.2.3,Win32,59.52380952364454,,,,,,2035.4110999999048,38.0,4.0,2322.9945,38.0,s,287.565299999952,,2326.360299999952,2326.8605,2325.844299999952,2326.360199999809,2324.0110999999047,2325.844199999809,2326.8605,2327.360299999952,2327.360399999857,2332.0098999998568,3231.0,2332.01,5.0,2332.0115,4.0,0.0,120.0,25.0,1.0,0.8,0.7,Time
,,S64,1,女,27,anonymized,Serial_Dependence_U,2023.2.3,Win32,59.52380952364454,,,,,,2332.0125,269.0,4.0,2332.0140999999044,269.0,,,,2335.576,2336.075199999809,2335.059299999952,2335.5757999999523,2333.026299999952,2335.059199999809,2336.075299999952,2336.575199999809,2336.575399999857,2340.8415999999047,3533.0,2340.841699999809,5.0,2340.843399999857,4.0,1.0,121.0,26.0,1.0,1.0,0.7,Time
,,S64,1,女,27,anonymized,Serial_Dependence_U,2023.2.3,Win32,59.52380952364454,,,,,,2340.8440999999048,94.0,4.0,2340.8443999998567,94.0,,,,2345.0073999998567,2345.5067999999524,2344.4911999998094,2345.007299999952,2341.858199999809,2344.4911999998094,2345.5067999999524,2346.0066999998094,2346.0066999998094,2351.1900999999048,3982.0,2351.1900999999048,5.0,2351.191,4.0,2.0,122.0,9.0,1.0,1.6,0.7,Time
,,S64,1,女,27,anonymized,Serial_Dependence_U,2023.2.3,Win32,59.52380952364454,,,,,,2351.1925,75.0,4.0,2351.192799999952,75.0,,,,2355.1892999999523,2355.6885999999045,2354.672899999857,2355.1891999998093,2352.206699999809,2354.672799999952,2355.688799999952,2356.188699999809,2356.188899999857,2368.170899999857,4049.0,2368.171299999952,5.0,2368.173,4.0,3.0,123.0,3.0,1.0,1.4,0.3,Time
,,S64,1,女,27,anonymized,Serial_Dependence_U,2023.2.3,Win32,59.52380952364454,,,,,,2368.173399999857,302.0,4.0,2368.1736999998093,302.0,,,,2371.769899999857,2372.269399999857,2371.253399999857,2371.769899999857,2369.1871999998093,2371.253399999857,2372.269399999857,2372.769299999952,2372.769399999857,2394.285,3503.0,2394.2851999998093,5.0,2394.2856999998094,4.0,4.0,124.0,1.0,1.0,1.0,0.3,Time
,,S64,1,女,27,anonymized,Serial_Dependence_U,2023.2.3,Win32,59.52380952364454,,,,,,2394.286,258.0,4.0,2394.286299999952,258.0,,,,2398.049,2398.548299999952,2397.5325,2398.048899999857,2395.2995,2397.532399999857,2398.548399999857,2399.048199999809,2399.048299999952,2402.814899999857,3499.0,2402.815,5.0,2402.815899999857,4.0,5.0,125.0,7.0,1.0,1.2,0.7,Time
,,S64,1,女,27,anonymized,Serial_Dependence_U,2023.2.3,Win32,59.52380952364454,,,,,,2402.8173999998567,123.0,4.0,2402.817699999809,123.0,,,,2407.0138999998567,2407.5135,2406.4975,2407.013699999809,2403.831199999809,2406.497399999857,2407.5135,2408.0131999998093,2408.0132999999523,2412.6968999998567,4207.0,2412.6968999998567,5.0,2412.699,4.0,6.0,126.0,4.0,1.0,1.6,0.3,Time
,,S64,1,女,27,anonymized,Serial_Dependence_U,2023.2.3,Win32,59.52380952364454,,,,,,2412.6993999998567,215.0,4.0,2412.6995999999044,215.0,,,,2416.062699999809,2416.561899999857,2415.545699999809,2416.0625999999047,2413.712799999952,2415.545699999809,2416.561899999857,2417.061699999809,2417.061699999809,2420.945299999952,3052.0,2420.945299999952,5.0,2420.9461999998093,4.0,7.0,127.0,15.0,1.0,0.8,0.7,Time
,,S64,1,女,27,anonymized,Serial_Dependence_U,2023.2.3,Win32,59.52380952364454,,,,,,2420.947899999857,149.0,4.0,2420.9481999998093,149.0,,,,2424.5446999998094,2425.0441999998093,2424.028399999857,2424.5445999999047,2421.9616999998093,2424.028299999952,2425.0441999998093,2425.543899999857,2425.543899999857,2430.327399999857,3364.0,2430.3277999999523,5.0,2430.3295999999045,4.0,8.0,128.0,21.0,1.0,1.0,0.3,Time
,,S64,1,女,27,anonymized,Serial_Dependence_U,2023.2.3,Win32,59.52380952364454,,,,,,2430.329899999857,180.0,4.0,2430.3301999998093,180.0,,,,2434.109699999809,2434.6091999998093,2433.5931999998093,2434.1095999999047,2431.327,2433.593,2434.6091999998093,2435.1091999998093,2435.1091999998093,2440.3920999999045,3693.0,2440.392199999809,5.0,2440.3935999999044,4.0,9.0,129.0,2.0,1.0,1.2,0.3,Time
,,S64,1,女,27,anonymized,Serial_Dependence_U,2023.2.3,Win32,59.52380952364454,,,,,,2440.394899999857,81.0,4.0,2440.3951999998094,81.0,,,,2444.5911999998093,2445.090699999809,2444.0743999998567,2444.5911999998093,2441.408,2444.074299999952,2445.090699999809,2445.590799999952,2445.590799999952,2450.1575,3995.0,2450.1580999999046,5.0,2450.1593999998568,4.0,10.0,130.0,24.0,1.0,1.6,0.3,Time
,,S64,1,女,27,anonymized,Serial_Dependence_U,2023.2.3,Win32,59.52380952364454,,,,,,2450.159699999809,269.0,4.0,2450.160099999905,269.0,,,,2453.906,2454.4057999999523,2453.389899999857,2453.906,2451.1568999998567,2453.389899999857,2454.4057999999523,2454.9057999999523,2454.906,2461.5048999998567,3671.0,2461.5048999998567,5.0,2461.5061999998093,4.0,11.0,131.0,27.0,1.0,1.2,0.7,Time
,,S64,1,女,27,anonymized,Serial_Dependence_U,2023.2.3,Win32,59.52380952364454,,,,,,2461.5075,107.0,4.0,2461.507799999952,107.0,,,,2465.2555,2465.754,2464.737899999857,2465.255,2462.505199999809,2464.737899999857,2465.7540999999046,2466.253799999952,2466.253899999857,2472.5200999999047,3532.0,2472.5200999999047,5.0,2472.521,4.0,12.0,132.0,17.0,1.0,1.2,0.7,Time
,,S64,1,女,27,anonymized,Serial_Dependence_U,2023.2.3,Win32,59.52380952364454,,,,,,2472.5230999999044,44.0,4.0,2472.523399999857,44.0,,,,2476.120699999809,2476.618699999809,2475.6025,2476.1200999999046,2473.5363999998567,2475.6025,2476.6187999999524,2477.1188999998567,2477.1188999998567,2480.8185,3258.0,2480.8185,5.0,2480.8205,4.0,13.0,133.0,11.0,1.0,1.0,0.3,Time
,,S64,1,女,27,anonymized,Serial_Dependence_U,2023.2.3,Win32,59.52380952364454,,,,,,2480.8210999999046,302.0,4.0,2480.821399999857,302.0,,,,2484.6181999998093,2485.117399999857,2484.1015999999045,2484.617899999857,2481.835199999809,2484.1015,2485.1175,2485.617399999857,2485.617399999857,2490.450299999952,3518.0,2490.4505999999046,5.0,2490.452899999857,4.0,14.0,134.0,22.0,1.0,1.2,0.3,Time
,,S64,1,女,27,anonymized,Serial_Dependence_U,2023.2.3,Win32,59.52380952364454,,,,,,2490.453399999857,63.0,4.0,2490.453699999809,63.0,,,,2494.433199999809,2494.9325999999046,2493.9165999999045,2494.433199999809,2491.450299999952,2493.9165999999045,2494.9326999998093,2495.4325999999046,2495.4326999998093,2501.932,4281.0,2501.9320999999045,5.0,2501.933199999809,4.0,15.0,135.0,23.0,1.0,1.4,0.3,Time
,,S64,1,女,27,anonymized,Serial_Dependence_U,2023.2.3,Win32,59.52380952364454,,,,,,2501.934299999952,286.0,4.0,2501.934799999952,286.0,,,,2505.9313999998567,2506.4305,2505.416699999809,2505.931199999809,2502.9482999999523,2505.416,2506.4305,2506.931,2506.9310999999047,2512.314399999857,3792.0,2512.315,5.0,2512.315899999857,4.0,16.0,136.0,13.0,1.0,1.4,0.3,Time
,,S64,1,女,27,anonymized,Serial_Dependence_U,2023.2.3,Win32,59.52380952364454,,,,,,2512.316199999809,29.0,4.0,2512.316399999857,29.0,,,,2516.512899999857,2517.012,2515.9965,2516.512799999952,2513.3300999999046,2515.996299999952,2517.012,2517.5120999999044,2517.512399999857,2522.363899999857,4326.0,2522.363899999857,5.0,2522.3642999999524,4.0,17.0,137.0,14.0,1.0,1.6,0.3,Time
,,S64,1,女,27,anonymized,Serial_Dependence_U,2023.2.3,Win32,59.52380952364454,,,,,,2522.3645999999044,158.0,4.0,2522.365,158.0,,,,2525.7612999999524,2526.260599999905,2525.244799999952,2525.7612999999524,2523.3785,2525.244699999809,2526.2606999998093,2526.760399999857,2526.760399999857,2530.260599999905,3365.0,2530.2606999998093,5.0,2530.2615,4.0,18.0,138.0,20.0,1.0,0.8,0.3,Time
,,S64,1,女,27,anonymized,Serial_Dependence_U,2023.2.3,Win32,59.52380952364454,,,,,,2530.2630999999046,109.0,4.0,2530.2635,109.0,,,,2534.4262999999523,2534.926399999857,2533.9095999999045,2534.4261999998093,2531.277,2533.9095999999045,2534.926399999857,2535.425899999857,2535.426,2558.2055999999047,3216.0,2558.2055999999047,5.0,2558.206899999857,4.0,19.0,139.0,29.0,1.0,1.6,0.7,Time
,,S64,1,女,27,anonymized,Serial_Dependence_U,2023.2.3,Win32,59.52380952364454,,,,,,2558.2085,27.0,4.0,2558.208899999857,27.0,,,,2562.1725999999044,2562.6715,2561.655199999809,2562.172199999809,2559.222,2561.6550999999045,2562.6715,2563.171299999952,2563.171399999857,2568.055,4137.0,2568.0555999999046,5.0,2568.056699999809,4.0,20.0,140.0,18.0,1.0,1.4,0.7,Time
,,S64,1,女,27,anonymized,Serial_Dependence_U,2023.2.3,Win32,59.52380952364454,,,,,,2568.0570999999045,359.0,4.0,2568.057399999857,359.0,,,,2572.019899999857,2572.5195,2571.505299999952,2572.0197999999523,2569.0705999999045,2571.504699999809,2572.5196999998093,2573.0196999998093,2573.0197999999523,2577.103,3832.0,2577.1030999999043,5.0,2577.104299999952,4.0,21.0,141.0,8.0,1.0,1.4,0.7,Time
,,S64,1,女,27,anonymized,Serial_Dependence_U,2023.2.3,Win32,59.52380952364454,,,,,,2577.1052999999524,59.0,4.0,2577.1085999999045,59.0,,,,2580.485199999809,2580.9848999998567,2579.9686999998094,2580.4850999999044,2578.1027999999524,2579.9685999999047,2580.9850999999044,2581.4848999998567,2581.485,2585.4061999998094,3275.0,2585.4062999999524,5.0,2585.4065999999048,4.0,22.0,142.0,0.0,1.0,0.8,0.3,Time
,,S64,1,女,27,anonymized,Serial_Dependence_U,2023.2.3,Win32,59.52380952364454,,,,,,2585.407,120.0,4.0,2585.4075999999045,120.0,,,,2588.804699999809,2589.3020999999044,2588.2876999998093,2588.8045999999044,2586.4195999999047,2588.2876999998093,2589.3020999999044,2589.801,2589.8011999998093,2593.472399999857,3081.0,2593.4725,5.0,2593.4730999999047,4.0,23.0,143.0,10.0,1.0,0.8,0.3,Time
,,S64,1,女,27,anonymized,Serial_Dependence_U,2023.2.3,Win32,59.52380952364454,,,,,,2593.473399999857,281.0,4.0,2593.473699999809,281.0,,,,2597.619699999809,2598.1155999999046,2597.1035999999044,2597.6195999999045,2594.4713999998567,2597.1035999999044,2598.1155999999046,2598.6162999999524,2598.6165999999043,2608.819399999857,4013.0,2608.8195,5.0,2608.8198999998567,4.0,24.0,144.0,19.0,1.0,1.6,0.7,Time
,,S64,1,女,27,anonymized,Serial_Dependence_U,2023.2.3,Win32,59.52380952364454,,,,,,2608.820199999809,251.0,4.0,2608.821,251.0,,,,2612.3702999999523,2612.8635,2611.867699999809,2612.3701999998093,2609.8333999998567,2611.8675999999045,2612.863899999857,2613.3792999999523,2613.379399999857,2618.332,3739.0,2618.3320999999046,5.0,2618.332399999857,4.0,25.0,145.0,16.0,1.0,1.0,0.7,Time
,,S64,1,女,27,anonymized,Serial_Dependence_U,2023.2.3,Win32,59.52380952364454,,,,,,2618.3326999998094,168.0,4.0,2618.3328999998566,168.0,,,,2622.128899999857,2622.627799999952,2621.6125,2622.128799999952,2619.346199999809,2621.6123999998567,2622.6278999998567,2623.128299999952,2623.128399999857,2627.394299999952,3837.0,2627.394399999857,5.0,2627.3955999999043,4.0,26.0,146.0,12.0,1.0,1.2,0.3,Time
,,S64,1,女,27,anonymized,Serial_Dependence_U,2023.2.3,Win32,59.52380952364454,,,,,,2627.397399999857,29.0,4.0,2627.397699999809,29.0,,,,2630.961,2631.4600999999047,2630.4442999999524,2630.960899999857,2628.4110999999048,2630.4441999998094,2631.460199999809,2631.9603999998567,2631.9605,2635.8432999999523,3402.0,2635.843399999857,5.0,2635.844299999952,4.0,27.0,147.0,6.0,1.0,1.0,0.7,Time
,,S64,1,女,27,anonymized,Serial_Dependence_U,2023.2.3,Win32,59.52380952364454,,,,,,2635.8455999999046,237.0,4.0,2635.846,237.0,,,,2639.809299999952,2640.308699999809,2639.292699999809,2639.809199999809,2636.86,2639.292699999809,2640.308699999809,2640.808699999809,2640.8088999998567,2645.0917999999524,3516.0,2645.0918999998567,5.0,2645.093899999857,4.0,28.0,148.0,28.0,1.0,1.4,0.7,Time
,,S64,1,女,27,anonymized,Serial_Dependence_U,2023.2.3,Win32,59.52380952364454,,,,,,2645.0943999998567,276.0,4.0,2645.094799999952,276.0,,,,2648.4578999998566,2648.9570999999046,2647.941399999857,2648.4577999999524,2646.108299999952,2647.941299999952,2648.9571999998093,2649.457,2649.4570999999046,2652.873899999857,3080.0,2652.873899999857,5.0,2652.8747999999523,4.0,29.0,149.0,5.0,1.0,0.8,0.7,Time
,,S64,1,女,27,anonymized,Serial_Dependence_U,2023.2.3,Win32,59.52380952364454,,,,,,2652.8765,84.0,5.0,2680.652699999809,84.0,s,27.766399999857185,,2684.0520999999044,2684.5515,2683.5365,2684.052,2681.669,2683.535899999857,2684.5515,2685.0512999999523,2685.051399999857,2695.3875,10145.0,2695.3875999999045,5.0,2695.388,5.0,0.0,150.0,0.0,1.0,0.8,0.3,Time
,,S64,1,女,27,anonymized,Serial_Dependence_U,2023.2.3,Win32,59.52380952364454,,,,,,2695.3882999999523,301.0,5.0,2695.390399999857,301.0,,,,2699.552899999857,2700.0495,2699.0363999998567,2699.552899999857,2696.403899999857,2699.036299999952,2700.049799999952,2700.552,2700.5520999999044,2708.1855,3766.0,2708.1855,5.0,2708.1858999998567,5.0,1.0,151.0,29.0,1.0,1.6,0.7,Time
,,S64,1,女,27,anonymized,Serial_Dependence_U,2023.2.3,Win32,59.52380952364454,,,,,,2708.1860999999044,88.0,5.0,2708.1865,88.0,,,,2711.948899999857,2712.4470999999044,2711.434399999857,2711.9486999998094,2709.201699999809,2711.434399999857,2712.4473999998568,2712.948399999857,2712.948399999857,2717.068,3650.0,2717.068,5.0,2717.0685,5.0,2.0,152.0,7.0,1.0,1.2,0.7,Time
,,S64,1,女,27,anonymized,Serial_Dependence_U,2023.2.3,Win32,59.52380952364454,,,,,,2717.0690999999047,159.0,5.0,2717.0692999999524,159.0,,,,2720.614199999809,2721.112799999952,2720.099799999952,2720.6140999999047,2718.0650999999048,2720.099699999809,2721.1130999999045,2721.613,2721.613299999952,2724.782799999952,2751.0,2724.782899999857,5.0,2724.7831999998093,5.0,3.0,153.0,16.0,1.0,1.0,0.7,Time
,,S64,1,女,27,anonymized,Serial_Dependence_U,2023.2.3,Win32,59.52380952364454,,,,,,2724.7835999999047,96.0,5.0,2724.7840999999044,96.0,,,,2728.1793999998567,2728.6805999999046,2727.6655999999043,2728.1793999998567,2725.7965999999046,2727.6655,2728.6805999999046,2729.1790999999043,2729.179199999809,2732.7986999998093,3446.0,2732.7986999998093,5.0,2732.7990999999047,5.0,4.0,154.0,10.0,1.0,0.8,0.3,Time
,,S64,1,女,27,anonymized,Serial_Dependence_U,2023.2.3,Win32,59.52380952364454,,,,,,2732.7993999998566,142.0,5.0,2732.8000999999044,142.0,,,,2736.9805,2737.4765999999045,2736.4635999999045,2736.9805,2733.7973999998567,2736.4635,2737.476799999952,2737.9765999999045,2737.977,2742.342699999809,3669.0,2742.342799999952,5.0,2742.3440999999048,5.0,5.0,155.0,24.0,1.0,1.6,0.3,Time
,,S64,1,女,27,anonymized,Serial_Dependence_U,2023.2.3,Win32,59.52380952364454,,,,,,2742.3450999999045,204.0,5.0,2742.345399999857,204.0,,,,2745.925299999952,2746.4245999999043,2745.4093999998568,2745.9250999999044,2743.3425,2745.4088999998567,2746.424699999809,2746.9245999999043,2746.924699999809,2750.657799999952,3536.0,2750.657899999857,5.0,2750.6595,5.0,6.0,156.0,21.0,1.0,1.0,0.3,Time
,,S64,1,女,27,anonymized,Serial_Dependence_U,2023.2.3,Win32,59.52380952364454,,,,,,2750.6605999999047,292.0,5.0,2750.660899999857,292.0,,,,2754.8235999999047,2755.323099999905,2754.307199999809,2754.8235999999047,2751.6740999999047,2754.3070999999045,2755.323099999905,2755.823,2755.823,2759.9065999999048,3968.0,2759.907,5.0,2759.9085,5.0,7.0,157.0,19.0,1.0,1.6,0.7,Time
,,S64,1,女,27,anonymized,Serial_Dependence_U,2023.2.3,Win32,59.52380952364454,,,,,,2759.909,66.0,5.0,2759.909299999952,66.0,,,,2763.505699999809,2764.005,2762.989,2763.5055999999045,2760.922799999952,2762.989,2764.0050999999044,2764.5050999999044,2764.5050999999044,2768.224899999857,3705.0,2768.225,5.0,2768.225399999857,5.0,8.0,158.0,1.0,1.0,1.0,0.3,Time
,,S64,1,女,27,anonymized,Serial_Dependence_U,2023.2.3,Win32,59.52380952364454,,,,,,2768.2255999999047,270.0,5.0,2768.2257999999524,270.0,,,,2772.187399999857,2772.6870999999046,2771.671,2772.1872999999523,2769.238,2771.670899999857,2772.6870999999046,2773.186899999857,2773.1870999999046,2777.5201999998094,4084.0,2777.5202999999524,5.0,2777.521899999857,5.0,9.0,159.0,8.0,1.0,1.4,0.7,Time
,,S64,1,女,27,anonymized,Serial_Dependence_U,2023.2.3,Win32,59.52380952364454,,,,,,2777.522699999809,153.0,5.0,2777.523,153.0,,,,2781.519,2782.0185,2781.0035999999045,2781.519,2778.5365,2781.0028999998567,2782.0185,2782.5185999999044,2782.518799999952,2788.485,4184.0,2788.4850999999044,5.0,2788.487,5.0,10.0,160.0,13.0,1.0,1.4,0.3,Time
,,S64,1,女,27,anonymized,Serial_Dependence_U,2023.2.3,Win32,59.52380952364454,,,,,,2788.4875999999044,269.0,5.0,2788.487799999952,269.0,,,,2792.650799999952,2793.1497999999524,2792.134199999809,2792.650799999952,2789.501299999952,2792.1340999999047,2793.1498999998566,2793.650299999952,2793.6503999998567,2802.9495,3919.0,2802.9495,5.0,2802.9512999999524,5.0,11.0,161.0,9.0,1.0,1.6,0.7,Time
,,S64,1,女,27,anonymized,Serial_Dependence_U,2023.2.3,Win32,59.52380952364454,,,,,,2802.951899999857,263.0,5.0,2802.9520999999045,263.0,,,,2806.5155,2807.0145999999045,2805.998799999952,2806.5152999999523,2803.965699999809,2805.998699999809,2807.0145999999045,2807.514699999809,2807.514799999952,2811.114199999809,3540.0,2811.1142999999524,5.0,2811.1155,5.0,12.0,162.0,6.0,1.0,1.0,0.7,Time
,,S64,1,女,27,anonymized,Serial_Dependence_U,2023.2.3,Win32,59.52380952364454,,,,,,2811.116699999809,275.0,5.0,2811.1170999999044,275.0,,,,2815.313799999952,2815.813299999952,2814.7970999999047,2815.313699999809,2812.130899999857,2814.797,2815.8133999998568,2816.313,2816.3130999999044,2825.811899999857,3568.0,2825.811899999857,5.0,2825.813699999809,5.0,13.0,163.0,14.0,1.0,1.6,0.3,Time
,,S64,1,女,27,anonymized,Serial_Dependence_U,2023.2.3,Win32,59.52380952364454,,,,,,2825.8142999999523,16.0,5.0,2825.8146999998094,16.0,,,,2829.611399999857,2830.110799999952,2829.094899999857,2829.611399999857,2826.8285,2829.094799999952,2830.110899999857,2830.610699999809,2830.610799999952,2834.460899999857,3599.0,2834.460899999857,5.0,2834.4625999999043,5.0,14.0,164.0,12.0,1.0,1.2,0.3,Time
,,S64,1,女,27,anonymized,Serial_Dependence_U,2023.2.3,Win32,59.52380952364454,,,,,,2834.463199999809,21.0,5.0,2834.4635,21.0,,,,2838.4267999999524,2838.9261999998093,2837.910099999905,2838.426699999809,2835.477099999905,2837.91,2838.9262999999523,2839.426,2839.4261999998093,2843.3090999999044,3557.0,2843.3095999999045,5.0,2843.3110999999044,5.0,15.0,165.0,18.0,1.0,1.4,0.7,Time
,,S64,1,女,27,anonymized,Serial_Dependence_U,2023.2.3,Win32,59.52380952364454,,,,,,2843.3115,234.0,5.0,2843.311799999952,234.0,,,,2846.6585999999047,2847.1587999999524,2846.1420999999045,2846.6585999999047,2844.309199999809,2846.142,2847.1587999999524,2847.6581999998093,2847.6582999999523,2852.4245999999043,3550.0,2852.424699999809,5.0,2852.4262999999523,5.0,16.0,166.0,25.0,1.0,0.8,0.7,Time
,,S64,1,女,27,anonymized,Serial_Dependence_U,2023.2.3,Win32,59.52380952364454,,,,,,2852.427,301.0,5.0,2852.427299999952,301.0,,,,2856.623699999809,2857.123199999809,2856.107,2856.6235999999044,2853.440799999952,2856.1067999999523,2857.123199999809,2857.624,2857.624,2862.923,3951.0,2862.923299999952,5.0,2862.924799999952,5.0,17.0,167.0,4.0,1.0,1.6,0.3,Time
,,S64,1,女,27,anonymized,Serial_Dependence_U,2023.2.3,Win32,59.52380952364454,,,,,,2862.925299999952,177.0,5.0,2862.925699999809,177.0,,,,2866.922,2867.4215,2866.4050999999045,2866.9217999999523,2863.939099999905,2866.4048999998568,2867.4215,2867.9210999999045,2867.921199999809,2873.2545,4074.0,2873.2545999999047,5.0,2873.256399999857,5.0,18.0,168.0,23.0,1.0,1.4,0.3,Time
,,S64,1,女,27,anonymized,Serial_Dependence_U,2023.2.3,Win32,59.52380952364454,,,,,,2873.257,65.0,5.0,2873.2573999998567,65.0,,,,2877.0035999999045,2877.5030999999044,2876.4870999999043,2877.0035,2874.2540999999046,2876.4868999998566,2877.5030999999044,2878.0028999998567,2878.003199999809,2882.2696999998093,3525.0,2882.2697999999523,5.0,2882.2715,5.0,19.0,169.0,27.0,1.0,1.2,0.7,Time
,,S64,1,女,27,anonymized,Serial_Dependence_U,2023.2.3,Win32,59.52380952364454,,,,,,2882.2721999998093,128.0,5.0,2882.2725,128.0,,,,2886.0355999999047,2886.534799999952,2885.518799999952,2886.0355999999047,2883.285899999857,2885.518699999809,2886.534899999857,2887.034799999952,2887.034899999857,2890.8350999999047,3588.0,2890.835699999809,5.0,2890.8370999999047,5.0,20.0,170.0,17.0,1.0,1.2,0.7,Time
,,S64,1,女,27,anonymized,Serial_Dependence_U,2023.2.3,Win32,59.52380952364454,,,,,,2890.8373999998566,257.0,5.0,2890.837699999809,257.0,,,,2894.4015,2894.900299999952,2893.8842999999524,2894.4010999999045,2891.851,2893.884199999809,2894.900299999952,2895.4000999999043,2895.4000999999043,2906.8657999999523,3410.0,2906.8657999999523,5.0,2906.8675999999045,5.0,21.0,171.0,26.0,1.0,1.0,0.7,Time
,,S64,1,女,27,anonymized,Serial_Dependence_U,2023.2.3,Win32,59.52380952364454,,,,,,2906.8681999998093,104.0,5.0,2906.8685,104.0,,,,2910.2315,2910.730699999809,2909.7148999998567,2910.231399999857,2907.881399999857,2909.7147999999524,2910.730699999809,2911.230799999952,2911.230799999952,2915.831,3079.0,2915.8315999999045,5.0,2915.8328999998566,5.0,22.0,172.0,15.0,1.0,0.8,0.7,Time
,,S64,1,女,27,anonymized,Serial_Dependence_U,2023.2.3,Win32,59.52380952364454,,,,,,2915.833299999952,263.0,5.0,2915.8335999999044,263.0,,,,2919.63,2920.129399999857,2919.1135,2919.6298999998567,2916.847,2919.113399999857,2920.1295999999047,2920.629399999857,2920.629399999857,2927.1451999998094,3439.0,2927.1452999999524,5.0,2927.1471999998093,5.0,23.0,173.0,22.0,1.0,1.2,0.3,Time
,,S64,1,女,27,anonymized,Serial_Dependence_U,2023.2.3,Win32,59.52380952364454,,,,,,2927.1477999999524,352.0,5.0,2927.1480999999044,352.0,,,,2930.728299999952,2931.2272999999523,2930.2115,2930.728299999952,2928.1452999999524,2930.211399999857,2931.2272999999523,2931.727399999857,2931.7275,2935.3105999999048,3390.0,2935.3105999999048,5.0,2935.3122999999523,5.0,24.0,174.0,11.0,1.0,1.0,0.3,Time
,,S64,1,女,27,anonymized,Serial_Dependence_U,2023.2.3,Win32,59.52380952364454,,,,,,2935.3128999998567,214.0,5.0,2935.313299999952,214.0,,,,2939.2600999999045,2939.7593999998567,2938.7435,2939.2600999999045,2936.3105999999048,2938.7435,2939.7595,2940.26,2940.26,2944.745,3794.0,2944.7451999998093,5.0,2944.7455999999047,5.0,25.0,175.0,28.0,1.0,1.4,0.7,Time
,,S64,1,女,27,anonymized,Serial_Dependence_U,2023.2.3,Win32,59.52380952364454,,,,,,2944.7458999998566,257.0,5.0,2944.7460999999043,257.0,,,,2948.7418999998567,2949.2410999999047,2948.225399999857,2948.741799999952,2945.759,2948.2251999998093,2949.2411999998094,2949.741799999952,2949.741799999952,2953.791199999809,3898.0,2953.791299999952,5.0,2953.791699999809,5.0,26.0,176.0,3.0,1.0,1.4,0.3,Time
,,S64,1,女,27,anonymized,Serial_Dependence_U,2023.2.3,Win32,59.52380952364454,,,,,,2953.794,217.0,5.0,2953.794399999857,217.0,,,,2957.590399999857,2958.0898999998567,2957.074,2957.590299999952,2954.807399999857,2957.074,2958.09,2958.5897999999524,2958.5898999998567,2962.54,3363.0,2962.540699999809,5.0,2962.542,5.0,27.0,177.0,2.0,1.0,1.2,0.3,Time
,,S64,1,女,27,anonymized,Serial_Dependence_U,2023.2.3,Win32,59.52380952364454,,,,,,2962.542399999857,211.0,5.0,2962.542699999809,211.0,,,,2965.888699999809,2966.3885,2965.3725,2965.8885999999047,2963.539399999857,2965.3725,2966.3885,2966.8880999999046,2966.8880999999046,2970.6715,3173.0,2970.672,5.0,2970.6735999999046,5.0,28.0,178.0,5.0,1.0,0.8,0.7,Time
,,S64,1,女,27,anonymized,Serial_Dependence_U,2023.2.3,Win32,59.52380952364454,,,,,,2970.6740999999047,234.0,5.0,2970.6743999998566,234.0,,,,2974.0538999998566,2974.5537999999524,2973.5376999998093,2974.0537999999524,2971.6715,2973.5375999999046,2974.5537999999524,2975.0538999998566,2975.0538999998566,2980.454399999857,3340.0,2980.4545999999045,5.0,2980.456299999952,5.0,29.0,179.0,20.0,1.0,0.8,0.3,Time
,,S64,1,女,27,anonymized,Serial_Dependence_U,2023.2.3,Win32,59.52380952364454,,,,,,2980.4565999999045,244.0,6.0,2986.018899999857,244.0,s,5.538299999952415,,2989.585199999809,2990.0845999999046,2989.0680999999045,2989.5850999999047,2987.035899999857,2989.068,2990.0846999998093,2990.584399999857,2990.5845,2993.884199999809,3276.0,2993.8842999999524,5.0,2993.8856999998093,6.0,0.0,180.0,6.0,1.0,1.0,0.7,Time
,,S64,1,女,27,anonymized,Serial_Dependence_U,2023.2.3,Win32,59.52380952364454,,,,,,2993.886699999809,47.0,6.0,2993.888,47.0,,,,2997.2502999999524,2997.749899999857,2996.7340999999046,2997.2500999999047,2994.901,2996.734,2997.749899999857,2998.25,2998.2500999999047,3001.583299999952,3249.0,3001.5835999999044,5.0,3001.5855999999044,6.0,1.0,181.0,5.0,1.0,0.8,0.7,Time
,,S64,1,女,27,anonymized,Serial_Dependence_U,2023.2.3,Win32,59.52380952364454,,,,,,3001.586,343.0,6.0,3001.586199999809,343.0,,,,3005.382,3005.882,3004.866,3005.382,3002.5995999999045,3004.865899999857,3005.882199999809,3006.3815999999047,3006.3816999998094,3010.1987999999524,3637.0,3010.1987999999524,5.0,3010.200399999857,6.0,2.0,182.0,22.0,1.0,1.2,0.3,Time
,,S64,1,女,27,anonymized,Serial_Dependence_U,2023.2.3,Win32,59.52380952364454,,,,,,3010.201,154.0,6.0,3010.2013999998567,154.0,,,,3013.5641999998093,3014.0642999999523,3013.048,3013.564099999905,3011.2148999998567,3013.047899999857,3014.0642999999523,3014.5635999999045,3014.563699999809,3019.4305,3034.0,3019.4305,5.0,3019.4315,6.0,3.0,183.0,15.0,1.0,0.8,0.7,Time
,,S64,1,女,27,anonymized,Serial_Dependence_U,2023.2.3,Win32,59.52380952364454,,,,,,3019.4327999999523,307.0,6.0,3019.433199999809,307.0,,,,3023.596199999809,3024.0955999999046,3023.079799999952,3023.5960999999047,3020.4467999999524,3023.079699999809,3024.0955999999046,3024.5956999998093,3024.5956999998093,3029.5475,3709.0,3029.5475999999044,5.0,3029.547899999857,6.0,4.0,184.0,9.0,1.0,1.6,0.7,Time
,,S64,1,女,27,anonymized,Serial_Dependence_U,2023.2.3,Win32,59.52380952364454,,,,,,3029.548299999952,175.0,6.0,3029.5485,175.0,,,,3033.6945,3034.1940999999047,3033.1780999999046,3033.6945,3030.5450999999043,3033.177899999857,3034.1941999998094,3034.6937999999523,3034.693899999857,3041.027899999857,3969.0,3041.0285,5.0,3041.0295,6.0,5.0,185.0,29.0,1.0,1.6,0.7,Time
,,S64,1,女,27,anonymized,Serial_Dependence_U,2023.2.3,Win32,59.52380952364454,,,,,,3041.0298999998568,227.0,6.0,3041.0300999999045,227.0,,,,3044.626299999952,3045.1253999998567,3044.1095,3044.626199999809,3042.043199999809,3044.1095,3045.1253999998567,3045.6255999999044,3045.625699999809,3050.2437999999524,3472.0,3050.244,5.0,3050.244399999857,6.0,6.0,186.0,21.0,1.0,1.0,0.3,Time
,,S64,1,女,27,anonymized,Serial_Dependence_U,2023.2.3,Win32,59.52380952364454,,,,,,3050.244799999952,103.0,6.0,3050.244899999857,103.0,,,,3054.008,3054.507299999952,3053.4913999998566,3054.007899999857,3051.258399999857,3053.4912999999524,3054.5073999998567,3055.0070999999048,3055.007199999809,3059.9905,3661.0,3059.9905,5.0,3059.992199999809,6.0,7.0,187.0,17.0,1.0,1.2,0.7,Time
,,S64,1,女,27,anonymized,Serial_Dependence_U,2023.2.3,Win32,59.52380952364454,,,,,,3059.992799999952,336.0,6.0,3059.9931999998093,336.0,,,,3063.7896999998093,3064.289,3063.273199999809,3063.789599999905,3061.0067999999524,3063.2730999999044,3064.2890999999045,3064.789,3064.789199999809,3068.7725,3532.0,3068.7725,5.0,3068.7742999999523,6.0,8.0,188.0,12.0,1.0,1.2,0.3,Time
,,S64,1,女,27,anonymized,Serial_Dependence_U,2023.2.3,Win32,59.52380952364454,,,,,,3068.7748999998566,318.0,6.0,3068.775199999809,318.0,,,,3072.738299999952,3073.2375,3072.2215999999044,3072.738199999809,3069.7885999999044,3072.2215999999044,3073.2375999999044,3073.737299999952,3073.737299999952,3082.3705,3733.0,3082.370699999809,5.0,3082.373,6.0,9.0,189.0,18.0,1.0,1.4,0.7,Time
,,S64,1,女,27,anonymized,Serial_Dependence_U,2023.2.3,Win32,59.52380952364454,,,,,,3082.3733999998567,67.0,6.0,3082.3735999999044,67.0,,,,3086.336,3086.835199999809,3085.819399999857,3086.335899999857,3083.386399999857,3085.8192999999524,3086.835199999809,3087.335199999809,3087.3352999999524,3092.2680999999047,3851.0,3092.268199999809,5.0,3092.2701999998094,6.0,10.0,190.0,28.0,1.0,1.4,0.7,Time
,,S64,1,女,27,anonymized,Serial_Dependence_U,2023.2.3,Win32,59.52380952364454,,,,,,3092.270699999809,100.0,6.0,3092.2710999999044,100.0,,,,3096.0343999998568,3096.533699999809,3095.5177999999523,3096.034299999952,3093.284899999857,3095.5177999999523,3096.5337999999524,3097.0337999999524,3097.0338999998567,3101.5170999999045,3725.0,3101.517399999857,5.0,3101.5190999999045,6.0,11.0,191.0,27.0,1.0,1.2,0.7,Time
,,S64,1,女,27,anonymized,Serial_Dependence_U,2023.2.3,Win32,59.52380952364454,,,,,,3101.519399999857,57.0,6.0,3101.5196999998093,57.0,,,,3104.916299999952,3105.4155,3104.3996999998094,3104.916199999809,3102.5331999998093,3104.3995999999047,3105.415699999809,3105.9155,3105.915699999809,3109.2837999999524,3085.0,3109.284699999809,5.0,3109.285399999857,6.0,12.0,192.0,0.0,1.0,0.8,0.3,Time
,,S64,1,女,27,anonymized,Serial_Dependence_U,2023.2.3,Win32,59.52380952364454,,,,,,3109.2855999999047,267.0,6.0,3109.285899999857,267.0,,,,3112.849799999952,3113.347899999857,3112.331799999952,3112.849399999857,3110.2985999999046,3112.331699999809,3113.347899999857,3113.8476999998093,3113.8476999998093,3120.464,3271.0,3120.464,5.0,3120.465899999857,6.0,13.0,193.0,16.0,1.0,1.0,0.7,Time
,,S64,1,女,27,anonymized,Serial_Dependence_U,2023.2.3,Win32,59.52380952364454,,,,,,3120.4665,311.0,6.0,3120.4667999999524,311.0,,,,3124.0295999999043,3124.529199999809,3123.5132999999523,3124.0295999999043,3121.4800999999047,3123.5131999998093,3124.529199999809,3125.029199999809,3125.029199999809,3129.6290999999046,3362.0,3129.6291999998093,5.0,3129.630899999857,6.0,14.0,194.0,26.0,1.0,1.0,0.7,Time
,,S64,1,女,27,anonymized,Serial_Dependence_U,2023.2.3,Win32,59.52380952364454,,,,,,3129.631399999857,125.0,6.0,3129.6316999998094,125.0,,,,3133.228199999809,3133.7276999998094,3132.7115999999046,3133.2280999999043,3130.6452999999524,3132.7115999999046,3133.7276999998094,3134.2276999998094,3134.2277999999524,3138.8275999999046,3466.0,3138.8276999998093,5.0,3138.828,6.0,15.0,195.0,11.0,1.0,1.0,0.3,Time
,,S64,1,女,27,anonymized,Serial_Dependence_U,2023.2.3,Win32,59.52380952364454,,,,,,3138.8305,283.0,6.0,3138.830699999809,283.0,,,,3142.4267999999524,3142.9261999998093,3141.9102999999523,3142.426699999809,3139.8437999999524,3141.9101999998093,3142.9261999998093,3143.425699999809,3143.425699999809,3147.2095,3541.0,3147.2095999999046,5.0,3147.211399999857,6.0,16.0,196.0,1.0,1.0,1.0,0.3,Time
,,S64,1,女,27,anonymized,Serial_Dependence_U,2023.2.3,Win32,59.52380952364454,,,,,,3147.211899999857,14.0,6.0,3147.2121999998094,14.0,,,,3151.208799999952,3151.7076999998094,3150.6920999999047,3151.208699999809,3148.2257999999524,3150.692,3151.7076999998094,3152.2078999998566,3152.2078999998566,3161.4571999998093,3729.0,3161.457399999857,5.0,3161.459,6.0,17.0,197.0,13.0,1.0,1.4,0.3,Time
,,S64,1,女,27,anonymized,Serial_Dependence_U,2023.2.3,Win32,59.52380952364454,,,,,,3161.4595999999046,226.0,6.0,3161.46,226.0,,,,3165.456299999952,3165.9558999998567,3164.9397999999524,3165.456199999809,3162.4735,3164.9397999999524,3165.9558999998567,3166.455699999809,3166.4557999999524,3171.1055,3906.0,3171.1055999999044,5.0,3171.1071999998094,6.0,18.0,198.0,23.0,1.0,1.4,0.3,Time
,,S64,1,女,27,anonymized,Serial_Dependence_U,2023.2.3,Win32,59.52380952364454,,,,,,3171.1078999998567,212.0,6.0,3171.108199999809,212.0,,,,3174.8547999999523,3175.3540999999045,3174.3385,3174.8546999998093,3172.105199999809,3174.338199999809,3175.3540999999045,3175.8540999999045,3175.8540999999045,3180.287299999952,3850.0,3180.287299999952,5.0,3180.289199999809,6.0,19.0,199.0,7.0,1.0,1.2,0.7,Time
,,S64,1,女,27,anonymized,Serial_Dependence_U,2023.2.3,Win32,59.52380952364454,,,,,,3180.2897999999523,200.0,6.0,3180.2901999998094,200.0,,,,3184.4866999998094,3184.985799999952,3183.969699999809,3184.486399999857,3181.3036999998094,3183.9695,3184.985799999952,3185.4870999999043,3185.4873999998567,3189.7322999999524,4059.0,3189.732399999857,5.0,3189.732799999952,6.0,20.0,200.0,4.0,1.0,1.6,0.3,Time
,,S64,1,女,27,anonymized,Serial_Dependence_U,2023.2.3,Win32,59.52380952364454,,,,,,3189.7330999999044,112.0,6.0,3189.733399999857,112.0,,,,3193.9351999998094,3194.4352999999523,3193.4180999999044,3193.9350999999047,3190.7521999998094,3193.418,3194.435399999857,3194.934,3194.9340999999044,3203.6503999998567,3950.0,3203.6505,5.0,3203.652199999809,6.0,21.0,201.0,14.0,1.0,1.6,0.3,Time
,,S64,1,女,27,anonymized,Serial_Dependence_U,2023.2.3,Win32,59.52380952364454,,,,,,3203.6525999999044,320.0,6.0,3203.652899999857,320.0,,,,3207.032399999857,3207.532299999952,3206.516299999952,3207.032299999952,3204.6685,3206.516299999952,3207.532399999857,3208.0320999999044,3208.032199999809,3211.2655999999047,2759.0,3211.2656999998094,5.0,3211.2675,6.0,22.0,202.0,25.0,1.0,0.8,0.7,Time
,,S64,1,女,27,anonymized,Serial_Dependence_U,2023.2.3,Win32,59.52380952364454,,,,,,3211.2680999999047,99.0,6.0,3211.2682999999524,99.0,,,,3215.447699999809,3215.9470999999044,3214.9315,3215.4475999999045,3212.265399999857,3214.9315,3215.9470999999044,3216.4470999999044,3216.447199999809,3220.847299999952,4083.0,3220.847399999857,5.0,3220.8488999998567,6.0,23.0,203.0,24.0,1.0,1.6,0.3,Time
,,S64,1,女,27,anonymized,Serial_Dependence_U,2023.2.3,Win32,59.52380952364454,,,,,,3220.849699999809,236.0,6.0,3220.85,236.0,,,,3224.831399999857,3225.329199999809,3224.33,3224.8308999998567,3221.8636999998093,3224.33,3225.329399999857,3225.8290999999044,3225.8290999999044,3229.8625999999044,3750.0,3229.8625999999044,5.0,3229.8640999999047,6.0,24.0,204.0,3.0,1.0,1.4,0.3,Time
,,S64,1,女,27,anonymized,Serial_Dependence_U,2023.2.3,Win32,59.52380952364454,,,,,,3229.8650999999045,75.0,6.0,3229.865399999857,75.0,,,,3234.028899999857,3234.5275999999044,3233.511799999952,3234.0286999998093,3230.878899999857,3233.511799999952,3234.527699999809,3235.0292999999524,3235.0295999999043,3240.594199999809,4066.0,3240.5943999998567,5.0,3240.5962999999524,6.0,25.0,205.0,19.0,1.0,1.6,0.7,Time
,,S64,1,女,27,anonymized,Serial_Dependence_U,2023.2.3,Win32,59.52380952364454,,,,,,3240.5968999998568,107.0,6.0,3240.5970999999045,107.0,,,,3244.3930999999047,3244.8925999999046,3243.876899999857,3244.3930999999047,3241.610399999857,3243.8767999999523,3244.8926999998093,3245.3925999999046,3245.3926999998093,3249.459399999857,3809.0,3249.4595999999046,5.0,3249.461199999809,6.0,26.0,206.0,2.0,1.0,1.2,0.3,Time
,,S64,1,女,27,anonymized,Serial_Dependence_U,2023.2.3,Win32,59.52380952364454,,,,,,3249.461899999857,62.0,6.0,3249.4622999999524,62.0,,,,3252.858699999809,3253.3580999999044,3252.3420999999043,3252.8585999999045,3250.4755999999047,3252.3420999999043,3253.358199999809,3253.858199999809,3253.858299999952,3257.124899999857,3111.0,3257.124899999857,5.0,3257.126299999952,6.0,27.0,207.0,20.0,1.0,0.8,0.3,Time
,,S64,1,女,27,anonymized,Serial_Dependence_U,2023.2.3,Win32,59.52380952364454,,,,,,3257.127399999857,358.0,6.0,3257.1275999999048,358.0,,,,3260.523899999857,3261.0235999999045,3260.008,3260.523799999952,3258.1406999998094,3260.007699999809,3261.0235999999045,3261.523399999857,3261.5235,3265.0570999999045,3366.0,3265.0576999998093,5.0,3265.059299999952,6.0,28.0,208.0,10.0,1.0,0.8,0.3,Time
,,S64,1,女,27,anonymized,Serial_Dependence_U,2023.2.3,Win32,59.52380952364454,,,,,,3265.0653999998567,249.0,6.0,3265.065699999809,249.0,,,,3269.006,3269.505299999952,3268.4890999999047,3269.005899999857,3266.0563999998567,3268.488899999857,3269.5055,3270.0055,3270.0055,3277.1545,3517.0,3277.1550999999045,5.0,3277.1570999999044,6.0,29.0,209.0,8.0,1.0,1.4,0.7,Time
,,S64,1,女,27,anonymized,Serial_Dependence_U,2023.2.3,Win32,59.52380952364454,,,,,,3277.1575,151.0,7.0,3326.746199999809,151.0,s,49.57179999995242,,3330.7120999999047,3331.2120999999047,3330.1960999999046,3330.712,3327.763,3330.195899999857,3331.2120999999047,3331.7117999999523,3331.7117999999523,3336.1117999999524,3576.0,3336.112,5.0,3336.1135999999046,7.0,0.0,210.0,8.0,1.0,1.4,0.7,Time
,,S64,1,女,27,anonymized,Serial_Dependence_U,2023.2.3,Win32,59.52380952364454,,,,,,3336.1145,108.0,7.0,3336.1155999999046,108.0,,,,3339.9105999999047,3340.410399999857,3339.3960999999044,3339.9105,3337.128,3339.3955999999043,3340.4105,3340.9102999999523,3340.910399999857,3344.646299999952,3486.0,3344.646399999857,5.0,3344.6465999999045,7.0,1.0,211.0,2.0,1.0,1.2,0.3,Time
,,S64,1,女,27,anonymized,Serial_Dependence_U,2023.2.3,Win32,59.52380952364454,,,,,,3344.647,117.0,7.0,3344.6471999998093,117.0,,,,3348.0265,3348.5255999999044,3347.5098999998568,3348.026399999857,3345.6432999999524,3347.509799999952,3348.525699999809,3349.025299999952,3349.0253999998567,3355.875199999809,3599.0,3355.8752999999524,5.0,3355.8771999998094,7.0,2.0,212.0,0.0,1.0,0.8,0.3,Time
,,S64,1,女,27,anonymized,Serial_Dependence_U,2023.2.3,Win32,59.52380952364454,,,,,,3355.877699999809,95.0,7.0,3355.8778999998567,95.0,,,,3359.441199999809,3359.940599999905,3358.9245999999043,3359.4410999999045,3356.8913999998567,3358.9245,3359.940599999905,3360.4405,3360.4405,3363.7572999999525,3154.0,3363.757399999857,5.0,3363.758799999952,7.0,3.0,213.0,6.0,1.0,1.0,0.7,Time
,,S64,1,女,27,anonymized,Serial_Dependence_U,2023.2.3,Win32,59.52380952364454,,,,,,3363.759799999952,61.0,7.0,3363.76,61.0,,,,3367.7565,3368.255699999809,3367.240699999809,3367.756399999857,3364.7735999999045,3367.2401999998087,3368.255799999952,3368.756099999905,3368.756099999905,3373.3890999999044,4062.0,3373.389199999809,5.0,3373.390899999857,7.0,4.0,214.0,3.0,1.0,1.4,0.3,Time
,,S64,1,女,27,anonymized,Serial_Dependence_U,2023.2.3,Win32,59.52380952364454,,,,,,3373.391399999857,144.0,7.0,3373.3917999999526,144.0,,,,3377.1880999999044,3377.6875999999043,3376.6715999999046,3377.1880999999044,3374.4052999999526,3376.6715,3377.687699999809,3378.187799999952,3378.1878999998567,3384.687099999904,3607.0,3384.687699999809,5.0,3384.688899999857,7.0,5.0,215.0,22.0,1.0,1.2,0.3,Time
,,S64,1,女,27,anonymized,Serial_Dependence_U,2023.2.3,Win32,59.52380952364454,,,,,,3384.6891999998093,182.0,7.0,3384.6895999999047,182.0,,,,3388.686299999953,3389.1855,3388.171399999857,3388.6861999998096,3385.703399999857,3388.171,3389.1855,3389.685399999857,3389.685399999857,3402.551699999809,4009.0,3402.552099999905,5.0,3402.5528999998564,7.0,6.0,216.0,23.0,1.0,1.4,0.3,Time
,,S64,1,女,27,anonymized,Serial_Dependence_U,2023.2.3,Win32,59.52380952364454,,,,,,3402.553199999809,207.0,7.0,3402.553599999904,207.0,,,,3406.5167999999526,3407.016199999809,3406.000199999809,3406.5166999998096,3403.567299999952,3406.0000999999043,3407.0162999999525,3407.516,3407.516,3411.965699999809,3892.0,3411.9660999999046,5.0,3411.9680000000003,7.0,7.0,217.0,18.0,1.0,1.4,0.7,Time
,,S64,1,女,27,anonymized,Serial_Dependence_U,2023.2.3,Win32,59.52380952364454,,,,,,3411.968299999952,116.0,7.0,3411.968599999904,116.0,,,,3415.364899999857,3415.864699999809,3414.849899999857,3415.3647999999525,3412.9818999998565,3414.849299999952,3415.864699999809,3416.364599999905,3416.364699999809,3426.963799999952,3336.0,3426.964199999809,5.0,3426.965399999857,7.0,8.0,218.0,20.0,1.0,0.8,0.3,Time
,,S64,1,女,27,anonymized,Serial_Dependence_U,2023.2.3,Win32,59.52380952364454,,,,,,3426.965899999857,72.0,7.0,3426.9660999999046,72.0,,,,3431.1626999998093,3431.6620999999045,3430.646099999905,3431.1625999999046,3427.9797999999523,3430.646099999905,3431.662199999809,3432.163,3432.163,3437.4785999999044,4099.0,3437.4785999999044,5.0,3437.480399999857,7.0,9.0,219.0,4.0,1.0,1.6,0.3,Time
,,S64,1,女,27,anonymized,Serial_Dependence_U,2023.2.3,Win32,59.52380952364454,,,,,,3437.481099999905,257.0,7.0,3437.4812999999526,257.0,,,,3440.8445,3441.343799999952,3440.3276999998093,3440.8443999998567,3438.4948999998564,3440.3275999999046,3441.343799999952,3441.844,3441.844,3445.9272999999525,3316.0,3445.927599999905,5.0,3445.9295999999044,7.0,10.0,220.0,15.0,1.0,0.8,0.7,Time
,,S64,1,女,27,anonymized,Serial_Dependence_U,2023.2.3,Win32,59.52380952364454,,,,,,3445.93,285.0,7.0,3445.930199999809,285.0,,,,3449.526299999952,3450.0257999999526,3449.0098999998568,3449.526299999952,3446.9435,3449.009799999952,3450.0258999998573,3450.5255,3450.5255,3455.592199999809,3467.0,3455.5922999999525,5.0,3455.594,7.0,11.0,221.0,21.0,1.0,1.0,0.3,Time
,,S64,1,女,27,anonymized,Serial_Dependence_U,2023.2.3,Win32,59.52380952364454,,,,,,3455.594699999809,346.0,7.0,3455.5950999999045,346.0,,,,3459.357799999952,3459.857099999904,3458.8415,3459.357799999952,3456.6085999999045,3458.8415,3459.857199999809,3460.3575,3460.3575,3464.8236999998094,3583.0,3464.824199999809,5.0,3464.8258999998566,7.0,12.0,222.0,27.0,1.0,1.2,0.7,Time
,,S64,1,女,27,anonymized,Serial_Dependence_U,2023.2.3,Win32,59.52380952364454,,,,,,3464.8263999998567,131.0,7.0,3464.826699999809,131.0,,,,3468.9897999999525,3469.489199999809,3468.473199999809,3468.9897999999525,3465.840299999952,3468.473199999809,3469.489199999809,3469.989,3469.9890999999047,3480.7715000000003,3728.0,3480.7715000000003,5.0,3480.773,7.0,13.0,223.0,9.0,1.0,1.6,0.7,Time
,,S64,1,女,27,anonymized,Serial_Dependence_U,2023.2.3,Win32,59.52380952364454,,,,,,3480.773699999809,308.0,7.0,3480.7740999999046,308.0,,,,3484.937399999857,3485.4366999998088,3484.420699999809,3484.937299999952,3481.7876999998093,3484.4205999999044,3485.4366999998088,3485.936299999953,3485.9363999998573,3501.417699999809,3716.0,3501.417699999809,5.0,3501.419599999904,7.0,14.0,224.0,19.0,1.0,1.6,0.7,Time
,,S64,1,女,27,anonymized,Serial_Dependence_U,2023.2.3,Win32,59.52380952364454,,,,,,3501.4200999999043,355.0,7.0,3501.4203999998567,355.0,,,,3505.017299999952,3505.516599999905,3504.5008999998568,3505.017199999809,3502.434299999952,3504.5008999998568,3505.5166999998096,3506.0166999998096,3506.0167999999526,3509.7347999999524,3375.0,3509.7352999999525,5.0,3509.735599999905,7.0,15.0,225.0,1.0,1.0,1.0,0.3,Time
,,S64,1,女,27,anonymized,Serial_Dependence_U,2023.2.3,Win32,59.52380952364454,,,,,,3509.7358999998564,177.0,7.0,3509.736199999809,177.0,,,,3513.6987999999524,3514.1986999998094,3513.182699999809,3513.6987999999524,3510.7495000000004,3513.182599999904,3514.1986999998094,3514.6981999998093,3514.6981999998093,3520.348299999952,3979.0,3520.348299999952,5.0,3520.350399999857,7.0,16.0,226.0,28.0,1.0,1.4,0.7,Time
,,S64,1,女,27,anonymized,Serial_Dependence_U,2023.2.3,Win32,59.52380952364454,,,,,,3520.350899999857,357.0,7.0,3520.3512999999525,357.0,,,,3523.9141999998096,3524.413399999857,3523.397299999952,3523.914099999905,3521.364599999905,3523.397199999809,3524.4135,3524.913599999905,3524.913599999905,3529.3965000000003,3301.0,3529.396599999905,5.0,3529.399,7.0,17.0,227.0,26.0,1.0,1.0,0.7,Time
,,S64,1,女,27,anonymized,Serial_Dependence_U,2023.2.3,Win32,59.52380952364454,,,,,,3529.399399999857,15.0,7.0,3529.3995999999047,15.0,,,,3533.5956999998093,3534.095399999857,3533.0787999999525,3533.5956999998093,3530.4130999999047,3533.0787999999525,3534.095399999857,3534.595299999952,3534.5955,3538.811599999905,4001.0,3538.812099999904,5.0,3538.813799999952,7.0,18.0,228.0,24.0,1.0,1.6,0.3,Time
,,S64,1,女,27,anonymized,Serial_Dependence_U,2023.2.3,Win32,59.52380952364454,,,,,,3538.814399999857,162.0,7.0,3538.8145999999047,162.0,,,,3542.577899999857,3543.076899999857,3542.0611999998096,3542.5775999999046,3539.828,3542.061099999905,3543.077,3543.576799999952,3543.576799999952,3548.9785,3793.0,3548.9785,5.0,3548.979,7.0,19.0,229.0,7.0,1.0,1.2,0.7,Time
,,S64,1,女,27,anonymized,Serial_Dependence_U,2023.2.3,Win32,59.52380952364454,,,,,,3548.979299999952,90.0,7.0,3548.9795,90.0,,,,3552.3427999999526,3552.842399999857,3551.826199999809,3552.3427999999526,3549.992899999857,3551.826199999809,3552.842399999857,3553.3426999998096,3553.3426999998096,3556.8422999999525,3441.0,3556.842399999857,5.0,3556.844,7.0,20.0,230.0,5.0,1.0,0.8,0.7,Time
,,S64,1,女,27,anonymized,Serial_Dependence_U,2023.2.3,Win32,59.52380952364454,,,,,,3556.844799999952,213.0,7.0,3556.8450999999045,213.0,,,,3560.6080999999044,3561.1075,3560.0912999999523,3560.608,3557.8585,3560.0910999999046,3561.1075999999043,3561.6073999998566,3561.6075,3565.308299999952,3674.0,3565.3088999998567,5.0,3565.3101999998094,7.0,21.0,231.0,17.0,1.0,1.2,0.7,Time
,,S64,1,女,27,anonymized,Serial_Dependence_U,2023.2.3,Win32,59.52380952364454,,,,,,3565.310399999857,272.0,7.0,3565.3107999999525,272.0,,,,3569.1061999998087,3569.606,3568.5900999999044,3569.1061999998087,3566.3232999999523,3568.5900999999044,3569.6061999998087,3570.1057999999525,3570.105899999857,3576.6390999999044,4049.0,3576.639299999952,5.0,3576.6412999999525,7.0,22.0,232.0,12.0,1.0,1.2,0.3,Time
,,S64,1,女,27,anonymized,Serial_Dependence_U,2023.2.3,Win32,59.52380952364454,,,,,,3576.6418999998573,352.0,7.0,3576.642199999809,352.0,,,,3580.638099999904,3581.1373999998573,3580.1215999999044,3580.6379999999995,3577.6551999998096,3580.1213999998567,3581.1375000000003,3581.6373999998573,3581.6375000000003,3585.9041999998094,4135.0,3585.9042999999524,5.0,3585.905799999952,7.0,23.0,233.0,13.0,1.0,1.4,0.3,Time
,,S64,1,女,27,anonymized,Serial_Dependence_U,2023.2.3,Win32,59.52380952364454,,,,,,3585.9065999999043,74.0,7.0,3585.906799999952,74.0,,,,3589.3028999998564,3589.8028999998564,3588.7863999998567,3589.3028999998564,3586.920299999952,3588.7863999998567,3589.8028999998564,3590.3027999999526,3590.3028999998564,3594.8027999999526,3389.0,3594.8027999999526,5.0,3594.8043999998567,7.0,24.0,234.0,10.0,1.0,0.8,0.3,Time
,,S64,1,女,27,anonymized,Serial_Dependence_U,2023.2.3,Win32,59.52380952364454,,,,,,3594.805199999809,265.0,7.0,3594.8055,265.0,,,,3599.0016999998093,3599.501199999809,3598.4852999999525,3599.0016999998093,3595.8187999999523,3598.4852999999525,3599.501299999952,3600.001199999809,3600.001199999809,3604.167399999857,3759.0,3604.167399999857,5.0,3604.169099999904,7.0,25.0,235.0,14.0,1.0,1.6,0.3,Time
,,S64,1,女,27,anonymized,Serial_Dependence_U,2023.2.3,Win32,59.52380952364454,,,,,,3604.1698999998566,239.0,7.0,3604.170199999809,239.0,,,,3608.333599999905,3608.832899999857,3607.817199999809,3608.3335,3605.184,3607.817099999904,3608.833099999905,3609.332899999857,3609.333,3613.099699999809,3753.0,3613.099699999809,5.0,3613.101599999905,7.0,26.0,236.0,29.0,1.0,1.6,0.7,Time
,,S64,1,女,27,anonymized,Serial_Dependence_U,2023.2.3,Win32,59.52380952364454,,,,,,3613.102099999904,282.0,7.0,3613.102399999857,282.0,,,,3616.6653999998566,3617.164899999857,3616.148699999809,3616.6653999998566,3614.115899999857,3616.148599999905,3617.165199999809,3617.665,3617.665,3621.266,3440.0,3621.2665,5.0,3621.267599999904,7.0,27.0,237.0,16.0,1.0,1.0,0.7,Time
,,S64,1,女,27,anonymized,Serial_Dependence_U,2023.2.3,Win32,59.52380952364454,,,,,,3621.2678999998566,241.0,7.0,3621.268199999809,241.0,,,,3624.8640999999047,3625.3635999999046,3624.347399999856,3624.8640999999047,3622.281299999952,3624.3472999999526,3625.3635999999046,3625.8635,3625.8635,3630.197199999809,3648.0,3630.197699999809,5.0,3630.198899999857,7.0,28.0,238.0,11.0,1.0,1.0,0.3,Time
,,S64,1,女,27,anonymized,Serial_Dependence_U,2023.2.3,Win32,59.52380952364454,,,,,,3630.199299999953,176.0,7.0,3630.199599999905,176.0,,,,3633.562799999952,3634.062199999809,3633.046199999809,3633.562699999809,3631.213099999905,3633.046199999809,3634.062199999809,3634.562199999809,3634.562299999952,3639.5121999998096,3456.0,3639.5125,5.0,3639.514399999857,7.0,29.0,239.0,25.0,1.0,0.8,0.7,Time
,,S64,1,女,27,anonymized,Serial_Dependence_U,2023.2.3,Win32,59.52380952364454,,,,,,3639.514699999809,65.0,8.0,3710.1165,65.0,s,70.58679999995275,,3713.716299999952,3714.215599999905,3713.199399999857,3713.716199999809,3711.1332999999527,3713.199299999953,3714.215699999809,3714.715299999952,3714.715399999857,3719.0318999998567,3353.0,3719.032199999809,5.0,3719.034,8.0,0.0,240.0,11.0,1.0,1.0,0.3,Time
,,S64,1,女,27,anonymized,Serial_Dependence_U,2023.2.3,Win32,59.52380952364454,,,,,,3719.0345,12.0,8.0,3719.036,12.0,,,,3723.197599999905,3723.6973999998568,3722.681599999905,3723.1975,3720.0482999999526,3722.6815,3723.6973999998568,3724.197299999952,3724.1973999998568,3728.230899999857,3959.0,3728.231099999905,5.0,3728.232699999809,8.0,1.0,241.0,9.0,1.0,1.6,0.7,Time
,,S64,1,女,27,anonymized,Serial_Dependence_U,2023.2.3,Win32,59.52380952364454,,,,,,3728.233299999952,279.0,8.0,3728.2335,279.0,,,,3731.83,3732.3292999999526,3731.3135,3731.83,3729.247099999905,3731.3133999998568,3732.329399999857,3732.8292999999526,3732.8295,3736.529399999857,3666.0,3736.5295,5.0,3736.531199999809,8.0,2.0,242.0,1.0,1.0,1.0,0.3,Time
,,S64,1,女,27,anonymized,Serial_Dependence_U,2023.2.3,Win32,59.52380952364454,,,,,,3736.5318999998567,347.0,8.0,3736.532099999904,347.0,,,,3739.928199999809,3740.428099999904,3739.412099999905,3739.928099999904,3737.545699999809,3739.412099999905,3740.428099999904,3740.928099999904,3740.928199999809,3744.378099999905,3344.0,3744.3781999998096,5.0,3744.3795,8.0,3.0,243.0,0.0,1.0,0.8,0.3,Time
,,S64,1,女,27,anonymized,Serial_Dependence_U,2023.2.3,Win32,59.52380952364454,,,,,,3744.3803999998568,243.0,8.0,3744.380699999809,243.0,,,,3748.577,3749.076699999809,3748.060799999953,3748.577,3745.394399999857,3748.0605999999048,3749.076699999809,3749.576699999809,3749.576699999809,3755.959599999904,4313.0,3755.959699999809,5.0,3755.961399999857,8.0,4.0,244.0,14.0,1.0,1.6,0.3,Time
,,S64,1,女,27,anonymized,Serial_Dependence_U,2023.2.3,Win32,59.52380952364454,,,,,,3755.9620999999047,42.0,8.0,3755.962299999952,42.0,,,,3759.525399999857,3760.0246999998094,3759.008899999857,3759.525299999953,3756.975899999857,3759.008799999952,3760.024799999952,3760.5246999998094,3760.524799999952,3764.041699999809,3110.0,3764.041899999857,5.0,3764.043599999905,8.0,5.0,245.0,26.0,1.0,1.0,0.7,Time
,,S64,1,女,27,anonymized,Serial_Dependence_U,2023.2.3,Win32,59.52380952364454,,,,,,3764.044099999904,127.0,8.0,3764.044299999952,127.0,,,,3767.840699999809,3768.34,3767.324,3767.840599999905,3765.057799999952,3767.323899999857,3768.34,3768.84,3768.840099999904,3776.006399999857,3530.0,3776.0065,5.0,3776.008399999857,8.0,6.0,246.0,22.0,1.0,1.2,0.3,Time
,,S64,1,女,27,anonymized,Serial_Dependence_U,2023.2.3,Win32,59.52380952364454,,,,,,3776.009099999904,9.0,8.0,3776.009299999952,9.0,,,,3780.205,3780.704899999857,3779.688799999952,3780.204899999857,3777.022599999904,3779.688699999809,3780.705,3781.206599999905,3781.206899999857,3785.621299999952,3917.0,3785.6215,5.0,3785.6231999998095,8.0,7.0,247.0,24.0,1.0,1.6,0.3,Time
,,S64,1,女,27,anonymized,Serial_Dependence_U,2023.2.3,Win32,59.52380952364454,,,,,,3785.623799999953,247.0,8.0,3785.624099999905,247.0,,,,3788.987599999904,3789.486399999857,3788.470899999857,3788.987599999904,3786.6372999999526,3788.470799999952,3789.4865,3789.986599999904,3789.986699999809,3793.3705,3320.0,3793.371299999952,5.0,3793.37269999981,8.0,8.0,248.0,15.0,1.0,0.8,0.7,Time
,,S64,1,女,27,anonymized,Serial_Dependence_U,2023.2.3,Win32,59.52380952364454,,,,,,3793.373,219.0,8.0,3793.3731999998095,219.0,,,,3797.169299999952,3797.668399999857,3796.652699999809,3797.169299999952,3794.386399999857,3796.652599999904,3797.668399999857,3798.168599999905,3798.1686999998087,3802.302,3839.0,3802.302099999905,5.0,3802.303699999809,8.0,9.0,249.0,2.0,1.0,1.2,0.3,Time
,,S64,1,女,27,anonymized,Serial_Dependence_U,2023.2.3,Win32,59.52380952364454,,,,,,3802.3043999998567,245.0,8.0,3802.304599999904,245.0,,,,3806.3010999999046,3806.800599999905,3805.784599999905,3806.301,3803.318199999809,3805.7845,3806.800599999905,3807.300699999809,3807.300799999952,3811.433699999809,3802.0,3811.434099999904,5.0,3811.4356999998095,8.0,10.0,250.0,3.0,1.0,1.4,0.3,Time
,,S64,1,女,27,anonymized,Serial_Dependence_U,2023.2.3,Win32,59.52380952364454,,,,,,3811.4361999998096,105.0,8.0,3811.436399999857,105.0,,,,3815.3995999999047,3815.898899999857,3814.8831999998088,3815.3995,3812.45,3814.883099999905,3815.898899999857,3816.398799999952,3816.398799999952,3821.115599999904,4136.0,3821.115599999904,5.0,3821.118,8.0,11.0,251.0,18.0,1.0,1.4,0.7,Time
,,S64,1,女,27,anonymized,Serial_Dependence_U,2023.2.3,Win32,59.52380952364454,,,,,,3821.118399999857,288.0,8.0,3821.1186999998095,288.0,,,,3824.914599999904,3825.4141999998096,3824.398199999809,3824.9145,3822.13169999981,3824.398099999904,3825.4141999998096,3825.9142999999526,3825.914399999856,3830.765,3416.0,3830.7655,5.0,3830.7665,8.0,12.0,252.0,12.0,1.0,1.2,0.3,Time
,,S64,1,女,27,anonymized,Serial_Dependence_U,2023.2.3,Win32,59.52380952364454,,,,,,3830.7667999999526,137.0,8.0,3830.767099999905,137.0,,,,3834.73,3835.228899999857,3834.213099999905,3834.73,3831.7801999998096,3834.213099999905,3835.228899999857,3835.729,3835.729299999952,3839.8786999998088,4118.0,3839.8787999999527,5.0,3839.880199999809,8.0,13.0,253.0,28.0,1.0,1.4,0.7,Time
,,S64,1,女,27,anonymized,Serial_Dependence_U,2023.2.3,Win32,59.52380952364454,,,,,,3839.880899999857,261.0,8.0,3839.881199999809,261.0,,,,3843.644899999857,3844.1445,3843.128399999857,3843.644899999857,3840.895399999857,3843.128299999953,3844.1445,3844.644199999809,3844.644299999952,3849.677399999857,3961.0,3849.677399999857,5.0,3849.6793999998567,8.0,14.0,254.0,17.0,1.0,1.2,0.7,Time
,,S64,1,女,27,anonymized,Serial_Dependence_U,2023.2.3,Win32,59.52380952364454,,,,,,3849.680099999905,25.0,8.0,3849.6805,25.0,,,,3853.026199999809,3853.526299999952,3852.510299999952,3853.026099999904,3850.6785,3852.510199999809,3853.526299999952,3854.026299999952,3854.026399999857,3858.2256999998094,3422.0,3858.2256999998094,5.0,3858.227,8.0,15.0,255.0,25.0,1.0,0.8,0.7,Time
