Scale_setup.started,Scale_setup.stopped,participant,session,sex,age,date,expName,psychopyVersion,OS,frameRate,Intro.started,Intro.stopped,key_resp_2.keys,key_resp_2.rt,key_resp_2.duration,block.started,direction,Block_id,block.stopped,trial_direction,Block_resp_2.keys,Block_resp_2.rt,Block_resp_2.duration,ITI.started,ITI.stopped,Mask_2.started,Mask_2.stopped,encoding.started,encoding.stopped,Cue.started,Cue.stopped,Response.started,Response.stopped,keyDuration,Feedback_Time.started,FeedbackID_T,Feedback_Time.stopped,trials.thisRepN,trials.thisTrialN,trials.thisN,trials.thisIndex,trials.ran,TimeDur,Coherence1,TrialType
0.0002999999970256,0.0006000000014978,S65,1,女,20,anonymized,Serial_Dependence_U,2023.2.3,Win32,60.60606060606061,,,,,,,,,,,,,,,,,,,,,,,,,,,,,,,,,,,
,,S65,1,女,20,anonymized,Serial_Dependence_U,2023.2.3,Win32,60.60606060606061,556.8781000000015,1032.339,space,475.40750000000014,,,,,,,,,,,,,,,,,,,,,,,,,,,,,,,
,,S65,1,女,20,anonymized,Serial_Dependence_U,2023.2.3,Win32,60.60606060606061,,,,,,1032.3741999999954,86.0,0.0,1037.0396999999955,86.0,s,4.637700000002951,,1040.8311999999955,1041.3286999999957,1040.329299999997,1040.8308999999986,1038.051,1040.3291999999956,1041.3295,1041.829,1041.8298999999986,1047.6236999999956,332.0,1047.6246000000017,1.0,1048.6208999999983,0.0,0.0,0.0,2.0,1.0,1.2,0.3,Time
,,S65,1,女,20,anonymized,Serial_Dependence_U,2023.2.3,Win32,60.60606060606061,,,,,,1048.6226000000015,78.0,0.0,1048.6258999999984,78.0,,,,1052.6086000000014,1053.0995,1052.0938999999985,1052.6083999999985,1049.6295,1052.0936999999956,1053.0996000000016,1053.5985,1053.5986000000014,1057.612299999997,834.0,1057.6126000000015,1.0,1058.6106999999956,0.0,1.0,1.0,13.0,1.0,1.4,0.3,Time
,,S65,1,女,20,anonymized,Serial_Dependence_U,2023.2.3,Win32,60.60606060606061,,,,,,1058.612,285.0,0.0,1058.6125,285.0,,,,1061.9745,1062.473299999997,1061.458799999997,1061.9743999999985,1059.6116999999956,1061.4586999999956,1062.4735,1062.9725,1062.9725,1066.8045,2783.0,1066.804799999997,5.0,1067.8013999999985,0.0,2.0,2.0,15.0,1.0,0.8,0.7,Time
,,S65,1,女,20,anonymized,Serial_Dependence_U,2023.2.3,Win32,60.60606060606061,,,,,,1067.8025,280.0,0.0,1067.8031999999955,280.0,,,,1071.3986999999956,1071.8976000000016,1070.8826000000015,1071.3985,1068.8181999999956,1070.8823999999986,1071.8976999999954,1072.3971999999956,1072.3972999999971,1075.386299999997,1116.0,1075.3863999999985,4.0,1076.376299999997,0.0,3.0,3.0,21.0,1.0,1.0,0.3,Time
,,S65,1,女,20,anonymized,Serial_Dependence_U,2023.2.3,Win32,60.60606060606061,,,,,,1076.3771000000015,107.0,0.0,1076.3775,107.0,,,,1080.5738999999985,1081.0718999999983,1080.057299999997,1080.5736999999956,1077.3945,1080.057299999997,1081.072,1081.5711000000017,1081.5711000000017,1087.017299999997,3397.0,1087.0175,5.0,1088.015299999997,0.0,4.0,4.0,24.0,1.0,1.6,0.3,Time
,,S65,1,女,20,anonymized,Serial_Dependence_U,2023.2.3,Win32,60.60606060606061,,,,,,1088.0165,289.0,0.0,1088.0171999999957,289.0,,,,1091.803299999997,1092.294299999997,1091.289299999997,1091.8031999999955,1089.0233999999984,1091.2891000000016,1092.2943999999984,1092.793299999997,1092.793299999997,1095.1503999999984,1898.0,1095.1505,5.0,1096.140299999997,0.0,5.0,5.0,12.0,1.0,1.2,0.3,Time
,,S65,1,女,20,anonymized,Serial_Dependence_U,2023.2.3,Win32,60.60606060606061,,,,,,1096.1411999999957,321.0,0.0,1096.142,321.0,,,,1099.504799999997,1100.0033999999985,1098.988299999997,1099.5046999999956,1097.150299999997,1098.9881999999957,1100.0035,1100.5048999999983,1100.505,1101.7967999999971,1033.0,1101.7968999999985,4.0,1102.800799999997,0.0,6.0,6.0,5.0,1.0,0.8,0.7,Time
,,S65,1,女,20,anonymized,Serial_Dependence_U,2023.2.3,Win32,60.60606060606061,,,,,,1102.802,161.0,0.0,1102.8026999999956,161.0,,,,1106.1891000000014,1106.680299999997,1105.6745,1106.189,1103.8096999999957,1105.674299999997,1106.6806000000015,1107.1856000000014,1107.1856000000014,1108.7041000000015,1149.0,1108.704299999997,5.0,1109.693799999997,0.0,7.0,7.0,20.0,1.0,0.8,0.3,Time
,,S65,1,女,20,anonymized,Serial_Dependence_U,2023.2.3,Win32,60.60606060606061,,,,,,1109.6951000000015,343.0,0.0,1109.6956999999954,343.0,,,,1113.6816999999955,1114.1728999999984,1113.1681999999955,1113.6816000000017,1110.7013999999986,1113.168,1114.1728999999984,1114.6718999999985,1114.672,1116.1133999999986,1282.0,1116.1135,2.0,1117.102799999997,0.0,8.0,8.0,3.0,1.0,1.4,0.3,Time
,,S65,1,女,20,anonymized,Serial_Dependence_U,2023.2.3,Win32,60.60606060606061,,,,,,1117.1036000000015,347.0,0.0,1117.104299999997,347.0,,,,1120.6766999999954,1121.165799999997,1120.1751999999956,1120.6765,1118.1106999999956,1120.1751999999956,1121.1658999999986,1121.6651999999956,1121.6653999999985,1123.8591000000015,1799.0,1123.8591999999956,5.0,1124.861799999997,0.0,9.0,9.0,1.0,1.0,1.0,0.3,Time
,,S65,1,女,20,anonymized,Serial_Dependence_U,2023.2.3,Win32,60.60606060606061,,,,,,1124.8625,196.0,0.0,1124.862799999997,196.0,,,,1128.4425,1128.9416000000017,1127.927799999997,1128.4423999999983,1125.879,1127.9276999999956,1128.941799999997,1129.4406999999956,1129.4407999999971,1132.1721000000016,2447.0,1132.172299999997,5.0,1133.1708999999985,0.0,10.0,10.0,16.0,1.0,1.0,0.7,Time
,,S65,1,女,20,anonymized,Serial_Dependence_U,2023.2.3,Win32,60.60606060606061,,,,,,1133.1718999999985,169.0,0.0,1133.1726000000017,169.0,,,,1136.7681000000016,1137.266799999997,1136.251799999997,1136.768,1134.1868999999986,1136.2516999999957,1137.2668999999985,1137.765799999997,1137.7658999999985,1139.5323999999985,996.0,1139.5323999999985,3.0,1140.5301999999956,0.0,11.0,11.0,11.0,1.0,1.0,0.3,Time
,,S65,1,女,20,anonymized,Serial_Dependence_U,2023.2.3,Win32,60.60606060606061,,,,,,1140.5306999999957,48.0,0.0,1140.531,48.0,,,,1144.5355,1145.026299999997,1144.0211999999956,1144.5353999999986,1141.5551999999957,1144.021,1145.0263999999986,1145.5322999999971,1145.5323999999985,1147.2996000000014,1298.0,1147.2996000000014,2.0,1148.2891000000016,0.0,12.0,12.0,23.0,1.0,1.4,0.3,Time
,,S65,1,女,20,anonymized,Serial_Dependence_U,2023.2.3,Win32,60.60606060606061,,,,,,1148.2901999999956,212.0,0.0,1148.2908999999986,212.0,,,,1152.452299999997,1152.9515,1151.9362999999971,1152.4521000000016,1149.2903999999985,1151.9361999999956,1152.9516000000017,1153.4503999999986,1153.4503999999986,1155.5998999999986,1582.0,1155.6001000000017,3.0,1156.597799999997,0.0,13.0,13.0,19.0,1.0,1.6,0.7,Time
,,S65,1,女,20,anonymized,Serial_Dependence_U,2023.2.3,Win32,60.60606060606061,,,,,,1156.599,106.0,0.0,1156.599799999997,106.0,,,,1160.3795,1160.876299999997,1159.8625,1160.379299999997,1157.6151999999956,1159.862299999997,1160.8763999999985,1161.3766000000014,1161.3766999999957,1162.8196999999957,1233.0,1162.819799999997,3.0,1163.8241999999957,0.0,14.0,14.0,27.0,1.0,1.2,0.7,Time
,,S65,1,女,20,anonymized,Serial_Dependence_U,2023.2.3,Win32,60.60606060606061,,,,,,1163.8248999999985,148.0,0.0,1163.825299999997,148.0,,,,1168.0053999999984,1168.5028999999986,1167.4881000000014,1168.005,1164.825299999997,1167.488,1168.503,1169.0016999999957,1169.001799999997,1169.8023999999984,314.0,1169.8025,1.0,1170.8003999999985,0.0,15.0,15.0,4.0,1.0,1.6,0.3,Time
,,S65,1,女,20,anonymized,Serial_Dependence_U,2023.2.3,Win32,60.60606060606061,,,,,,1170.8016000000016,11.0,0.0,1170.802299999997,11.0,,,,1174.5726000000016,1175.0628999999983,1174.0566000000017,1174.5725,1171.8081999999956,1174.0565,1175.0628999999983,1175.562299999997,1175.5625,1177.2531999999956,1349.0,1177.2531999999956,4.0,1178.2431000000015,0.0,16.0,16.0,17.0,1.0,1.2,0.7,Time
,,S65,1,女,20,anonymized,Serial_Dependence_U,2023.2.3,Win32,60.60606060606061,,,,,,1178.2441999999955,36.0,0.0,1178.2448999999986,36.0,,,,1181.601,1182.0895,1181.0995,1181.600799999997,1179.2526999999957,1181.0993999999985,1182.0896000000014,1182.5883999999985,1182.5885,1184.3308999999986,1117.0,1184.331,5.0,1185.3191000000015,0.0,17.0,17.0,25.0,1.0,0.8,0.7,Time
,,S65,1,女,20,anonymized,Serial_Dependence_U,2023.2.3,Win32,60.60606060606061,,,,,,1185.3196999999957,45.0,0.0,1185.3201000000015,45.0,,,,1189.490799999997,1189.9816000000014,1188.9761000000017,1189.4906000000017,1186.328,1188.976,1189.9816999999955,1190.4811000000016,1190.4811000000016,1194.703299999997,3762.0,1194.7033999999985,5.0,1195.6928999999984,0.0,18.0,18.0,9.0,1.0,1.6,0.7,Time
,,S65,1,女,20,anonymized,Serial_Dependence_U,2023.2.3,Win32,60.60606060606061,,,,,,1195.6935,280.0,0.0,1195.6938999999986,280.0,,,,1199.6486000000016,1200.1383999999985,1199.1333999999986,1199.6483999999984,1196.7005,1199.1331000000016,1200.1385,1200.6378999999986,1200.6381000000015,1202.9281000000017,1248.0,1202.9283999999984,2.0,1203.918299999997,0.0,19.0,19.0,28.0,1.0,1.4,0.7,Time
,,S65,1,女,20,anonymized,Serial_Dependence_U,2023.2.3,Win32,60.60606060606061,,,,,,1203.9193999999984,135.0,0.0,1203.9201000000014,135.0,,,,1207.4995,1207.9971000000014,1206.984,1207.499299999997,1204.9345,1206.983799999997,1207.9971999999957,1208.4966999999956,1208.496799999997,1209.512799999997,666.0,1209.5128999999986,1.0,1210.510799999997,0.0,20.0,20.0,26.0,1.0,1.0,0.7,Time
,,S65,1,女,20,anonymized,Serial_Dependence_U,2023.2.3,Win32,60.60606060606061,,,,,,1210.511299999997,88.0,0.0,1210.5116000000014,88.0,,,,1213.9021999999954,1214.3916999999956,1213.3838999999984,1213.9021000000014,1211.512799999997,1213.383799999997,1214.391799999997,1214.881,1214.8811000000014,1217.947299999997,1747.0,1217.9473999999984,5.0,1218.9363999999985,0.0,21.0,21.0,0.0,1.0,0.8,0.3,Time
,,S65,1,女,20,anonymized,Serial_Dependence_U,2023.2.3,Win32,60.60606060606061,,,,,,1218.937299999997,42.0,0.0,1218.9378999999983,42.0,,,,1222.9,1223.3986999999956,1222.3841000000016,1222.8998999999983,1219.938299999997,1222.384,1223.398799999997,1223.8983999999984,1223.8986000000016,1227.804299999997,1348.0,1227.8045,3.0,1228.7931999999955,0.0,22.0,22.0,18.0,1.0,1.4,0.7,Time
,,S65,1,女,20,anonymized,Serial_Dependence_U,2023.2.3,Win32,60.60606060606061,,,,,,1228.7938999999983,115.0,0.0,1228.794299999997,115.0,,,,1232.9731999999956,1233.472799999997,1232.457299999997,1232.9731000000015,1229.8096999999957,1232.4571999999955,1233.4728999999986,1233.9718999999984,1233.972,1235.2715,1070.0,1235.2716000000014,1.0,1236.2693999999983,0.0,23.0,23.0,29.0,1.0,1.6,0.7,Time
,,S65,1,女,20,anonymized,Serial_Dependence_U,2023.2.3,Win32,60.60606060606061,,,,,,1236.27,259.0,0.0,1236.2705,259.0,,,,1239.8348999999985,1240.3318999999983,1239.3196999999957,1239.8346999999956,1237.2696999999955,1239.3195,1240.3318999999983,1240.831799999997,1240.8318999999983,1242.2561000000014,1099.0,1242.2561999999955,4.0,1243.2461000000014,0.0,24.0,24.0,6.0,1.0,1.0,0.7,Time
,,S65,1,女,20,anonymized,Serial_Dependence_U,2023.2.3,Win32,60.60606060606061,,,,,,1243.2468999999985,148.0,0.0,1243.2475,148.0,,,,1246.6266000000014,1247.1256000000014,1246.1131000000014,1246.6265,1244.2473999999986,1246.1128999999985,1247.1256999999955,1247.6251000000016,1247.6251999999956,1248.7411999999956,401.0,1248.741299999997,1.0,1249.744299999997,0.0,25.0,25.0,10.0,1.0,0.8,0.3,Time
,,S65,1,女,20,anonymized,Serial_Dependence_U,2023.2.3,Win32,60.60606060606061,,,,,,1249.7451999999955,97.0,0.0,1249.7458999999983,97.0,,,,1253.7276000000015,1254.2185,1253.2116999999955,1253.7275,1250.765,1253.2116000000017,1254.2186000000015,1254.718299999997,1254.7185,1256.9083999999984,1415.0,1256.9086000000016,3.0,1257.897799999997,0.0,26.0,26.0,8.0,1.0,1.4,0.7,Time
,,S65,1,女,20,anonymized,Serial_Dependence_U,2023.2.3,Win32,60.60606060606061,,,,,,1257.898299999997,99.0,0.0,1257.8986000000016,99.0,,,,1261.6556999999957,1262.144299999997,1261.154299999997,1261.6555,1258.906299999997,1261.1541999999956,1262.1443999999983,1262.6431999999954,1262.643299999997,1263.8021000000017,1061.0,1263.8021999999955,2.0,1264.791299999997,0.0,27.0,27.0,7.0,1.0,1.2,0.7,Time
,,S65,1,女,20,anonymized,Serial_Dependence_U,2023.2.3,Win32,60.60606060606061,,,,,,1264.792,181.0,0.0,1264.7926000000016,181.0,,,,1268.5803999999985,1269.0706999999954,1268.064299999997,1268.5802999999971,1265.7993999999985,1268.0641999999957,1269.070799999997,1269.5776000000014,1269.5776999999955,1271.3286999999957,1265.0,1271.328799999997,4.0,1272.3176000000014,0.0,28.0,28.0,22.0,1.0,1.2,0.3,Time
,,S65,1,女,20,anonymized,Serial_Dependence_U,2023.2.3,Win32,60.60606060606061,,,,,,1272.318799999997,188.0,0.0,1272.3195,188.0,,,,1276.5078999999985,1276.9961999999955,1276.0061000000014,1276.5077999999971,1273.342299999997,1276.006,1276.9961999999955,1277.495799999997,1277.4958999999983,1277.8055,232.0,1277.8055,1.0,1278.7946000000015,0.0,29.0,29.0,14.0,1.0,1.6,0.3,Time
,,S65,1,女,20,anonymized,Serial_Dependence_U,2023.2.3,Win32,60.60606060606061,,,,,,1278.7951999999957,104.0,1.0,1591.580799999997,104.0,s,312.7542999999971,,1595.775799999997,1596.265799999997,1595.2611999999956,1595.7756999999956,1592.5951999999954,1595.2608999999984,1596.265799999997,1596.7656000000015,1596.765799999997,1599.5735,1266.0,1599.5736000000015,2.0,1599.5853999999986,1.0,0.0,30.0,4.0,1.0,1.6,0.3,Time
,,S65,1,女,20,anonymized,Serial_Dependence_U,2023.2.3,Win32,60.60606060606061,,,,,,1599.5856000000017,331.0,1.0,1599.587,331.0,,,,1602.9705,1603.4591999999957,1602.4533999999985,1602.970299999997,1600.5873999999983,1602.4531999999956,1603.459299999997,1603.9581999999957,1603.9581999999957,1605.9006000000015,999.0,1605.9006999999956,4.0,1605.9175,1.0,1.0,31.0,0.0,1.0,0.8,0.3,Time
,,S65,1,女,20,anonymized,Serial_Dependence_U,2023.2.3,Win32,60.60606060606061,,,,,,1605.918,318.0,1.0,1605.9181999999955,318.0,,,,1609.7053999999985,1610.202299999997,1609.1891999999957,1609.7051999999956,1606.923,1609.189,1610.202299999997,1610.7021000000016,1610.702299999997,1612.8006000000014,1213.0,1612.8006999999957,3.0,1612.809299999997,1.0,2.0,32.0,2.0,1.0,1.2,0.3,Time
,,S65,1,女,20,anonymized,Serial_Dependence_U,2023.2.3,Win32,60.60606060606061,,,,,,1612.8096000000014,327.0,1.0,1612.809799999997,327.0,,,,1616.3638999999985,1616.8621999999957,1615.8491000000015,1616.3636999999956,1613.816,1615.8491000000015,1616.8621999999957,1617.362299999997,1617.3625,1619.5525,1714.0,1619.5525,5.0,1619.5685,1.0,3.0,33.0,26.0,1.0,1.0,0.7,Time
,,S65,1,女,20,anonymized,Serial_Dependence_U,2023.2.3,Win32,60.60606060606061,,,,,,1619.5688999999986,131.0,1.0,1619.5691999999956,131.0,,,,1623.340799999997,1623.8393999999985,1622.8245,1623.3405,1620.5802999999971,1622.824299999997,1623.8393999999985,1624.338299999997,1624.338299999997,1626.487799999997,1513.0,1626.488,4.0,1626.5041999999955,1.0,4.0,34.0,7.0,1.0,1.2,0.7,Time
,,S65,1,女,20,anonymized,Serial_Dependence_U,2023.2.3,Win32,60.60606060606061,,,,,,1626.5046999999956,60.0,1.0,1626.504799999997,60.0,,,,1630.6831999999956,1631.1825,1630.1678999999986,1630.683,1627.5201000000015,1630.167799999997,1631.1826000000017,1631.6816999999955,1631.6818999999984,1633.7805,1494.0,1633.7806999999957,2.0,1633.7976000000017,1.0,5.0,35.0,9.0,1.0,1.6,0.7,Time
,,S65,1,女,20,anonymized,Serial_Dependence_U,2023.2.3,Win32,60.60606060606061,,,,,,1633.798299999997,16.0,1.0,1633.7986999999955,16.0,,,,1637.7777999999971,1638.275299999997,1637.2616999999957,1637.7776999999955,1634.8126000000016,1637.2616000000014,1638.275299999997,1638.774799999997,1638.7748999999983,1641.1391999999955,1647.0,1641.1393999999984,4.0,1641.1486000000016,1.0,6.0,36.0,28.0,1.0,1.4,0.7,Time
,,S65,1,女,20,anonymized,Serial_Dependence_U,2023.2.3,Win32,60.60606060606061,,,,,,1641.1488999999983,6.0,1.0,1641.149,6.0,,,,1644.5031999999956,1645.0021000000015,1643.987,1644.5031000000015,1642.140299999997,1643.986799999997,1645.0021999999956,1645.5016999999957,1645.501799999997,1646.8836999999955,814.0,1646.883799999997,3.0,1646.8926000000015,1.0,7.0,37.0,5.0,1.0,0.8,0.7,Time
,,S65,1,女,20,anonymized,Serial_Dependence_U,2023.2.3,Win32,60.60606060606061,,,,,,1646.8928999999985,269.0,1.0,1646.893,269.0,,,,1650.2651000000014,1650.7633999999985,1649.7496000000017,1650.2648999999983,1647.9006999999956,1649.7495,1650.7633999999985,1651.2626000000014,1651.262799999997,1653.137299999997,1394.0,1653.1373999999985,5.0,1653.1468999999986,1.0,8.0,38.0,15.0,1.0,0.8,0.7,Time
,,S65,1,女,20,anonymized,Serial_Dependence_U,2023.2.3,Win32,60.60606060606061,,,,,,1653.1471999999956,305.0,1.0,1653.1473999999985,305.0,,,,1656.9158999999986,1657.4058999999986,1656.4001000000014,1656.915799999997,1654.1516999999956,1656.3998999999983,1657.4058999999986,1657.905299999997,1657.9055,1660.978799999997,2264.0,1660.9788999999985,5.0,1660.9891999999954,1.0,9.0,39.0,17.0,1.0,1.2,0.7,Time
,,S65,1,女,20,anonymized,Serial_Dependence_U,2023.2.3,Win32,60.60606060606061,,,,,,1660.9895,302.0,1.0,1660.9896999999955,302.0,,,,1665.1741000000015,1665.6643999999983,1664.6583999999984,1665.174,1661.9956000000016,1664.6581999999955,1665.6645,1666.164299999997,1666.1643999999983,1667.9406999999956,1216.0,1667.9408999999985,2.0,1667.9611000000016,1.0,10.0,40.0,14.0,1.0,1.6,0.3,Time
,,S65,1,女,20,anonymized,Serial_Dependence_U,2023.2.3,Win32,60.60606060606061,,,,,,1667.9618999999984,355.0,1.0,1667.9623999999983,355.0,,,,1671.9361000000015,1672.425,1671.4346999999957,1671.935799999997,1668.9711000000016,1671.4346000000014,1672.425,1672.9245,1672.9246000000014,1675.2731999999955,1802.0,1675.2731999999955,4.0,1675.29,1.0,11.0,41.0,23.0,1.0,1.4,0.3,Time
,,S65,1,女,20,anonymized,Serial_Dependence_U,2023.2.3,Win32,60.60606060606061,,,,,,1675.2903999999985,217.0,1.0,1675.2906000000014,217.0,,,,1678.671,1679.1688999999983,1678.1531999999954,1678.6706999999956,1676.29,1678.153,1679.169,1679.6681999999955,1679.668299999997,1681.601299999997,1593.0,1681.601299999997,5.0,1681.6203999999984,1.0,12.0,42.0,10.0,1.0,0.8,0.3,Time
,,S65,1,女,20,anonymized,Serial_Dependence_U,2023.2.3,Win32,60.60606060606061,,,,,,1681.621,305.0,1.0,1681.6211999999955,305.0,,,,1685.196299999997,1685.6952999999971,1684.6816999999955,1685.1961999999955,1682.6348999999984,1684.6815,1685.6952999999971,1686.1943999999985,1686.1945,1688.1101999999955,1482.0,1688.110299999997,5.0,1688.1218999999985,1.0,13.0,43.0,16.0,1.0,1.0,0.7,Time
,,S65,1,女,20,anonymized,Serial_Dependence_U,2023.2.3,Win32,60.60606060606061,,,,,,1688.122299999997,359.0,1.0,1688.1225,359.0,,,,1692.0913999999984,1692.5886000000014,1691.574799999997,1692.091299999997,1689.1285,1691.5746000000015,1692.5886999999957,1693.0881000000015,1693.0881999999956,1695.22,1634.0,1695.2201999999954,4.0,1695.2346000000016,1.0,14.0,44.0,18.0,1.0,1.4,0.7,Time
,,S65,1,女,20,anonymized,Serial_Dependence_U,2023.2.3,Win32,60.60606060606061,,,,,,1695.235799999997,287.0,1.0,1695.2363999999984,287.0,,,,1698.817799999997,1699.3153999999986,1698.3166999999955,1698.8176999999955,1696.2533999999985,1698.3166000000017,1699.3155,1699.815,1699.8151000000014,1701.730799999997,1396.0,1701.7308999999984,5.0,1701.7487999999971,1.0,15.0,45.0,11.0,1.0,1.0,0.3,Time
,,S65,1,女,20,anonymized,Serial_Dependence_U,2023.2.3,Win32,60.60606060606061,,,,,,1701.7491999999954,136.0,1.0,1701.7495,136.0,,,,1705.3278999999984,1705.8256999999955,1704.8271000000016,1705.327799999997,1702.7621999999956,1704.8268999999984,1705.8257999999971,1706.3246000000015,1706.3246000000015,1708.024,1213.0,1708.0241000000017,4.0,1708.0405,1.0,16.0,46.0,1.0,1.0,1.0,0.3,Time
,,S65,1,女,20,anonymized,Serial_Dependence_U,2023.2.3,Win32,60.60606060606061,,,,,,1708.041,99.0,1.0,1708.0411999999956,99.0,,,,1711.622,1712.1196000000016,1711.1053999999986,1711.621799999997,1709.057799999997,1711.1051999999954,1712.119799999997,1712.6086000000014,1712.6086000000014,1715.0448999999985,1799.0,1715.045,5.0,1715.073799999997,1.0,17.0,47.0,6.0,1.0,1.0,0.7,Time
,,S65,1,女,20,anonymized,Serial_Dependence_U,2023.2.3,Win32,60.60606060606061,,,,,,1715.0746000000015,174.0,1.0,1715.0748999999985,174.0,,,,1719.2298999999985,1719.7288999999985,1718.7151999999955,1719.229799999997,1716.0685,1718.715,1719.729,1720.2283999999986,1720.2283999999986,1723.2601000000016,2466.0,1723.2601999999956,5.0,1723.2866000000015,1.0,18.0,48.0,29.0,1.0,1.6,0.7,Time
,,S65,1,女,20,anonymized,Serial_Dependence_U,2023.2.3,Win32,60.60606060606061,,,,,,1723.2873999999986,310.0,1.0,1723.2876000000017,310.0,,,,1727.056299999997,1727.5538999999983,1726.5395,1727.0561000000014,1724.2916999999954,1726.539299999997,1727.5538999999983,1728.0536999999956,1728.053799999997,1730.7436000000014,2064.0,1730.7436999999954,5.0,1730.7536999999954,1.0,19.0,49.0,27.0,1.0,1.2,0.7,Time
,,S65,1,女,20,anonymized,Serial_Dependence_U,2023.2.3,Win32,60.60606060606061,,,,,,1730.754,142.0,1.0,1730.7541999999955,142.0,,,,1734.5406999999957,1735.03,1734.023799999997,1734.5406000000014,1731.7591999999956,1734.0236999999956,1735.0301000000015,1735.5295,1735.5296999999955,1737.045299999997,1053.0,1737.045299999997,2.0,1737.06,1.0,20.0,50.0,22.0,1.0,1.2,0.3,Time
,,S65,1,女,20,anonymized,Serial_Dependence_U,2023.2.3,Win32,60.60606060606061,,,,,,1737.0606999999954,91.0,1.0,1737.0608999999986,91.0,,,,1740.4191999999955,1740.907799999997,1739.903,1740.4188999999983,1738.063299999997,1739.9027999999971,1740.907799999997,1741.4071999999956,1741.4072999999971,1743.6831000000016,1749.0,1743.6831999999956,5.0,1743.7061000000017,1.0,21.0,51.0,25.0,1.0,0.8,0.7,Time
,,S65,1,女,20,anonymized,Serial_Dependence_U,2023.2.3,Win32,60.60606060606061,,,,,,1743.706799999997,186.0,1.0,1743.707,186.0,,,,1747.4851000000017,1747.9841000000015,1746.9695,1747.4848999999986,1744.7061999999955,1746.9693999999986,1747.9841000000015,1748.4836000000014,1748.4836999999957,1750.8488999999986,1814.0,1750.849,5.0,1750.8666000000014,1.0,22.0,52.0,12.0,1.0,1.2,0.3,Time
,,S65,1,女,20,anonymized,Serial_Dependence_U,2023.2.3,Win32,60.60606060606061,,,,,,1750.867299999997,277.0,1.0,1750.8675,277.0,,,,1755.0525,1755.5433999999984,1754.537799999997,1755.0523999999984,1751.8726999999956,1754.5376999999955,1755.5435,1756.042799999997,1756.0428999999986,1758.2521999999956,1733.0,1758.252299999997,4.0,1758.2696999999955,1.0,23.0,53.0,24.0,1.0,1.6,0.3,Time
,,S65,1,女,20,anonymized,Serial_Dependence_U,2023.2.3,Win32,60.60606060606061,,,,,,1758.2701000000015,62.0,1.0,1758.270299999997,62.0,,,,1761.6716999999956,1762.1696000000015,1761.1553999999985,1761.6716000000015,1759.29,1761.1553999999985,1762.1696000000015,1762.6696999999956,1762.669799999997,1764.285799999997,1080.0,1764.2858999999985,5.0,1764.3028999999983,1.0,24.0,54.0,20.0,1.0,0.8,0.3,Time
,,S65,1,女,20,anonymized,Serial_Dependence_U,2023.2.3,Win32,60.60606060606061,,,,,,1764.303299999997,82.0,1.0,1764.3035,82.0,,,,1768.473799999997,1768.9633999999985,1767.9586000000015,1768.4736999999957,1765.3095,1767.9583999999986,1768.9635,1769.4625,1769.4626000000014,1771.9371999999955,1847.0,1771.937299999997,4.0,1771.9521999999956,1.0,25.0,55.0,19.0,1.0,1.6,0.7,Time
,,S65,1,女,20,anonymized,Serial_Dependence_U,2023.2.3,Win32,60.60606060606061,,,,,,1771.9526999999955,102.0,1.0,1771.9531000000015,102.0,,,,1775.933799999997,1776.422799999997,1775.418299999997,1775.9335,1772.9521000000016,1775.418,1776.422799999997,1776.9228999999984,1776.923,1779.3628999999985,1398.0,1779.363,3.0,1779.38,1.0,26.0,56.0,3.0,1.0,1.4,0.3,Time
,,S65,1,女,20,anonymized,Serial_Dependence_U,2023.2.3,Win32,60.60606060606061,,,,,,1779.3805,131.0,1.0,1779.3806999999956,131.0,,,,1783.352,1783.848799999997,1782.8368999999984,1783.351799999997,1780.3708999999983,1782.8366999999955,1783.8488999999986,1784.3481999999956,1784.3481999999956,1786.3591000000015,1479.0,1786.3592999999971,4.0,1786.3755,1.0,27.0,57.0,13.0,1.0,1.4,0.3,Time
,,S65,1,女,20,anonymized,Serial_Dependence_U,2023.2.3,Win32,60.60606060606061,,,,,,1786.376,277.0,1.0,1786.3761999999956,277.0,,,,1790.3601000000017,1790.8586999999957,1789.8458999999984,1790.3601000000017,1787.3968999999986,1789.8456000000017,1790.8586999999957,1791.359,1791.3591999999956,1793.240299999997,1449.0,1793.2403999999983,3.0,1793.2563999999986,1.0,28.0,58.0,8.0,1.0,1.4,0.7,Time
,,S65,1,女,20,anonymized,Serial_Dependence_U,2023.2.3,Win32,60.60606060606061,,,,,,1793.256799999997,291.0,1.0,1793.2568999999985,291.0,,,,1796.8481000000015,1797.3356999999955,1796.3311999999955,1796.8478999999986,1794.2643999999984,1796.331,1797.3356999999955,1797.8356999999955,1797.8358999999984,1798.9015,964.0,1798.9016000000015,3.0,1798.9188999999983,1.0,29.0,59.0,21.0,1.0,1.0,0.3,Time
,,S65,1,女,20,anonymized,Serial_Dependence_U,2023.2.3,Win32,60.60606060606061,,,,,,1798.9193999999984,349.0,2.0,1829.594799999997,349.0,s,30.63239999999837,,1833.7615,1834.2571999999957,1833.2466000000013,1833.7613999999985,1830.6041000000012,1833.2463999999984,1834.2575,1834.756799999997,1834.7568999999985,1837.107299999997,1731.0,1837.1073999999985,4.0,1837.127,2.0,0.0,60.0,19.0,1.0,1.6,0.7,Time
,,S65,1,女,20,anonymized,Serial_Dependence_U,2023.2.3,Win32,60.60606060606061,,,,,,1837.1273999999985,107.0,2.0,1837.1291999999955,107.0,,,,1841.094799999997,1841.592299999997,1840.5936000000013,1841.0946000000013,1838.1305,1840.5936000000013,1841.592299999997,1842.0918999999983,1842.0918999999983,1843.685199999996,1182.0,1843.685299999997,2.0,1843.709799999997,2.0,1.0,61.0,3.0,1.0,1.4,0.3,Time
,,S65,1,女,20,anonymized,Serial_Dependence_U,2023.2.3,Win32,60.60606060606061,,,,,,1843.7105,47.0,2.0,1843.7106999999955,47.0,,,,1847.4961000000012,1847.985799999997,1846.981799999997,1847.496,1844.7146000000012,1846.9816999999955,1847.985799999997,1848.4855,1848.4856000000016,1850.3621999999957,1466.0,1850.3623999999984,4.0,1850.382699999996,2.0,2.0,62.0,2.0,1.0,1.2,0.3,Time
,,S65,1,女,20,anonymized,Serial_Dependence_U,2023.2.3,Win32,60.60606060606061,,,,,,1850.3831999999957,214.0,2.0,1850.3833999999983,214.0,,,,1853.774699999996,1854.262799999997,1853.2668999999985,1853.7745,1851.4013999999984,1853.266799999997,1854.262799999997,1854.7626999999957,1854.7628999999984,1855.6878999999983,699.0,1855.688,2.0,1855.7045,2.0,3.0,63.0,20.0,1.0,0.8,0.3,Time
,,S65,1,女,20,anonymized,Serial_Dependence_U,2023.2.3,Win32,60.60606060606061,,,,,,1855.7048999999984,200.0,2.0,1855.705199999996,200.0,,,,1859.6583999999984,1860.1575,1859.142699999996,1859.658299999997,1856.6961999999955,1859.1425,1860.1576000000016,1860.656799999997,1860.657,1863.439799999997,2231.0,1863.44,5.0,1863.462799999997,2.0,4.0,64.0,8.0,1.0,1.4,0.7,Time
,,S65,1,女,20,anonymized,Serial_Dependence_U,2023.2.3,Win32,60.60606060606061,,,,,,1863.463199999996,92.0,2.0,1863.4633999999985,92.0,,,,1866.8356999999955,1867.334,1866.3205,1866.8355,1864.4553999999985,1866.320199999996,1867.3341000000012,1867.8336000000013,1867.833799999997,1869.9833999999985,1648.0,1869.9836000000012,5.0,1870.0076000000013,2.0,5.0,65.0,0.0,1.0,0.8,0.3,Time
,,S65,1,女,20,anonymized,Serial_Dependence_U,2023.2.3,Win32,60.60606060606061,,,,,,1870.0081999999957,120.0,2.0,1870.0086000000013,120.0,,,,1873.552699999996,1874.0433999999984,1873.0471999999957,1873.552699999996,1870.9986000000013,1873.047,1874.0435,1874.5431000000012,1874.5431999999955,1877.5405,2522.0,1877.5406999999957,5.0,1877.549299999997,2.0,6.0,66.0,6.0,1.0,1.0,0.7,Time
,,S65,1,女,20,anonymized,Serial_Dependence_U,2023.2.3,Win32,60.60606060606061,,,,,,1877.5496999999957,106.0,2.0,1877.549799999997,106.0,,,,1881.3203999999985,1881.8196000000012,1880.8071000000016,1881.320299999997,1878.558199999996,1880.806799999997,1881.8196000000012,1882.319199999996,1882.319299999997,1885.5661999999957,2813.0,1885.566299999997,5.0,1885.5755,2.0,7.0,67.0,17.0,1.0,1.2,0.7,Time
,,S65,1,女,20,anonymized,Serial_Dependence_U,2023.2.3,Win32,60.60606060606061,,,,,,1885.575799999997,118.0,2.0,1885.576,118.0,,,,1889.7621000000013,1890.2613999999985,1889.247699999996,1889.762,1886.5836000000013,1889.2475,1890.2613999999985,1890.7608999999984,1890.7608999999984,1892.410299999997,1599.0,1892.4103999999984,3.0,1892.4313999999983,2.0,8.0,68.0,14.0,1.0,1.6,0.3,Time
,,S65,1,女,20,anonymized,Serial_Dependence_U,2023.2.3,Win32,60.60606060606061,,,,,,1892.4318999999984,294.0,2.0,1892.432299999997,294.0,,,,1896.422299999997,1896.921299999997,1895.9076999999957,1896.4221000000016,1893.435299999997,1895.9073999999985,1896.921299999997,1897.420699999996,1897.420799999997,1900.219299999997,2249.0,1900.2193999999984,5.0,1900.24,2.0,9.0,69.0,23.0,1.0,1.4,0.3,Time
,,S65,1,女,20,anonymized,Serial_Dependence_U,2023.2.3,Win32,60.60606060606061,,,,,,1900.240199999996,289.0,2.0,1900.2405,289.0,,,,1904.4401999999957,1904.93,1903.924799999997,1904.4401000000012,1901.2458999999983,1903.9246999999957,1904.9301999999957,1905.4295,1905.429699999996,1907.020799999997,1499.0,1907.0208999999984,2.0,1907.0305,2.0,10.0,70.0,24.0,1.0,1.6,0.3,Time
,,S65,1,女,20,anonymized,Serial_Dependence_U,2023.2.3,Win32,60.60606060606061,,,,,,1907.0308999999984,8.0,2.0,1907.031,8.0,,,,1910.3768999999984,1910.8745,1909.8756999999955,1910.3766999999957,1908.037799999997,1909.8756000000012,1910.8745,1911.3743999999983,1911.3746000000012,1914.3396999999957,2499.0,1914.3398999999984,5.0,1914.368199999996,2.0,11.0,71.0,25.0,1.0,0.8,0.7,Time
,,S65,1,女,20,anonymized,Serial_Dependence_U,2023.2.3,Win32,60.60606060606061,,,,,,1914.3686999999957,215.0,2.0,1914.369,215.0,,,,1917.961,1918.449699999996,1917.4536999999957,1917.960799999997,1915.3881000000013,1917.453299999997,1918.449699999996,1918.9495,1918.949699999996,1920.6915,1449.0,1920.6916000000012,5.0,1920.706699999996,2.0,12.0,72.0,21.0,1.0,1.0,0.3,Time
,,S65,1,女,20,anonymized,Serial_Dependence_U,2023.2.3,Win32,60.60606060606061,,,,,,1920.7071000000012,98.0,2.0,1920.7071999999955,98.0,,,,1924.878199999996,1925.377,1924.363299999997,1924.8781000000013,1921.7163999999984,1924.3631000000012,1925.377199999996,1925.8766999999957,1925.8768999999984,1925.9768999999983,53.0,1925.9768999999983,1.0,1925.987,2.0,13.0,73.0,29.0,1.0,1.6,0.7,Time
,,S65,1,女,20,anonymized,Serial_Dependence_U,2023.2.3,Win32,60.60606060606061,,,,,,1925.9873999999984,140.0,2.0,1925.9875,140.0,,,,1929.557,1930.055799999997,1929.0423999999985,1929.556799999997,1926.977799999997,1929.042299999997,1930.0558999999985,1930.5551000000012,1930.5551999999957,1932.4048999999984,1581.0,1932.4051000000013,5.0,1932.4298999999985,2.0,14.0,74.0,1.0,1.0,1.0,0.3,Time
,,S65,1,女,20,anonymized,Serial_Dependence_U,2023.2.3,Win32,60.60606060606061,,,,,,1932.4301999999957,291.0,2.0,1932.4303999999984,291.0,,,,1936.2091000000012,1936.699,1935.7023999999983,1936.209,1933.421699999996,1935.7021000000016,1936.6991000000012,1937.2071999999955,1937.207299999997,1939.0303999999985,1331.0,1939.0303999999985,4.0,1939.0391000000016,2.0,15.0,75.0,22.0,1.0,1.2,0.3,Time
,,S65,1,女,20,anonymized,Serial_Dependence_U,2023.2.3,Win32,60.60606060606061,,,,,,1939.0395,132.0,2.0,1939.0395,132.0,,,,1942.8285,1943.3256999999955,1942.3108999999984,1942.8283999999985,1940.0476999999955,1942.310799999997,1943.3258999999985,1943.8253999999984,1943.8255,1945.7571000000012,1614.0,1945.7571000000012,5.0,1945.7661000000012,2.0,16.0,76.0,12.0,1.0,1.2,0.3,Time
,,S65,1,女,20,anonymized,Serial_Dependence_U,2023.2.3,Win32,60.60606060606061,,,,,,1945.766299999997,320.0,2.0,1945.7663999999984,320.0,,,,1949.9365,1950.4353999999985,1949.4216000000013,1949.9363999999985,1946.758,1949.4213999999984,1950.4353999999985,1950.9348999999984,1950.9351000000013,1951.493299999997,266.0,1951.4933999999985,1.0,1951.5033999999985,2.0,17.0,77.0,4.0,1.0,1.6,0.3,Time
,,S65,1,女,20,anonymized,Serial_Dependence_U,2023.2.3,Win32,60.60606060606061,,,,,,1951.5036999999957,139.0,2.0,1951.503799999997,139.0,,,,1955.2746000000016,1955.7636000000016,1954.773299999997,1955.2743999999984,1952.527799999997,1954.773299999997,1955.7636000000016,1956.2631000000013,1956.2631999999955,1959.8545,2998.0,1959.8546000000013,5.0,1959.8796000000016,2.0,18.0,78.0,27.0,1.0,1.2,0.7,Time
,,S65,1,女,20,anonymized,Serial_Dependence_U,2023.2.3,Win32,60.60606060606061,,,,,,1959.8798999999983,224.0,2.0,1959.8801000000012,224.0,,,,1963.2341000000013,1963.722100000001,1962.732,1963.2338999999984,1960.8861000000013,1962.732,1963.722100000001,1964.221799999997,1964.222,1967.1538999999984,2347.0,1967.154,5.0,1967.1752999999967,2.0,19.0,79.0,5.0,1.0,0.8,0.7,Time
,,S65,1,女,20,anonymized,Serial_Dependence_U,2023.2.3,Win32,60.60606060606061,,,,,,1967.1756999999952,36.0,2.0,1967.176,36.0,,,,1970.9491999999957,1971.4486999999956,1970.4346000000012,1970.9491000000007,1968.186299999997,1970.4342999999967,1971.448799999997,1971.948,1971.948,1975.7111000000011,3127.0,1975.7111000000011,5.0,1975.7205,2.0,20.0,80.0,7.0,1.0,1.2,0.7,Time
,,S65,1,女,20,anonymized,Serial_Dependence_U,2023.2.3,Win32,60.60606060606061,,,,,,1975.7206999999955,258.0,2.0,1975.7207999999969,258.0,,,,1979.3076999999955,1979.806699999995,1978.792,1979.3075,1976.727799999997,1978.7917999999968,1979.8067999999969,1980.3061999999957,1980.306299999997,1982.1725,1795.0,1982.1726999999955,5.0,1982.1913999999983,2.0,21.0,81.0,11.0,1.0,1.0,0.3,Time
,,S65,1,女,20,anonymized,Serial_Dependence_U,2023.2.3,Win32,60.60606060606061,,,,,,1982.1918999999984,194.0,2.0,1982.1921999999956,194.0,,,,1986.369,1986.8668999999984,1985.852600000001,1986.368799999997,1983.205799999997,1985.8523999999984,1986.8668999999984,1987.3661999999956,1987.366299999997,1991.4806000000008,3899.0,1991.4807999999969,5.0,1991.5018999999984,2.0,22.0,82.0,9.0,1.0,1.6,0.7,Time
,,S65,1,女,20,anonymized,Serial_Dependence_U,2023.2.3,Win32,60.60606060606061,,,,,,1991.5021999999956,86.0,2.0,1991.5023999999985,86.0,,,,1994.8761999999952,1995.3748999999984,1994.3593999999985,1994.876,1992.5121000000013,1994.3593999999985,1995.375,1995.8745,1995.8746000000012,1998.323799999997,2000.0,1998.3238999999985,5.0,1998.3468999999984,2.0,23.0,83.0,15.0,1.0,0.8,0.7,Time
,,S65,1,女,20,anonymized,Serial_Dependence_U,2023.2.3,Win32,60.60606060606061,,,,,,1998.3472999999967,322.0,2.0,1998.3473999999983,322.0,,,,2002.3186000000012,2002.8176000000008,2001.803799999997,2002.3183999999983,1999.3545,2001.803600000001,2002.8177999999969,2003.317299999997,2003.3175,2007.1811999999957,3296.0,2007.181399999998,5.0,2007.2017999999969,2.0,24.0,84.0,28.0,1.0,1.4,0.7,Time
,,S65,1,女,20,anonymized,Serial_Dependence_U,2023.2.3,Win32,60.60606060606061,,,,,,2007.2022999999967,196.0,2.0,2007.2025,196.0,,,,2010.7617999999968,2011.2591999999956,2010.2456999999956,2010.7615,2008.1972999999969,2010.2455,2011.259299999997,2011.759100000001,2011.7591999999956,2014.3856000000012,2123.0,2014.3857999999968,5.0,2014.4142999999967,2.0,25.0,85.0,26.0,1.0,1.0,0.7,Time
,,S65,1,女,20,anonymized,Serial_Dependence_U,2023.2.3,Win32,60.60606060606061,,,,,,2014.4151999999956,23.0,2.0,2014.4155,23.0,,,,2018.3866000000007,2018.8851999999952,2017.8801999999955,2018.3863999999985,2015.407199999995,2017.8801000000008,2018.8852999999967,2019.3846999999955,2019.3847999999969,2021.451399999998,1410.0,2021.4516000000008,3.0,2021.475600000001,2.0,26.0,86.0,13.0,1.0,1.4,0.3,Time
,,S65,1,女,20,anonymized,Serial_Dependence_U,2023.2.3,Win32,60.60606060606061,,,,,,2021.476,9.0,2.0,2021.4761999999955,9.0,,,,2025.4301000000012,2025.928,2024.913299999997,2025.4298999999985,2022.4676999999951,2024.913100000001,2025.928,2026.4276000000011,2026.4276999999952,2030.174100000001,3177.0,2030.174100000001,5.0,2030.183399999998,2.0,27.0,87.0,18.0,1.0,1.4,0.7,Time
,,S65,1,女,20,anonymized,Serial_Dependence_U,2023.2.3,Win32,60.60606060606061,,,,,,2030.1836999999955,77.0,2.0,2030.1837999999968,77.0,,,,2033.7541999999955,2034.2536000000011,2033.2385,2033.754,2031.1916000000012,2033.2382999999968,2034.2536999999952,2034.752899999998,2034.753,2037.851,2548.0,2037.8511999999955,5.0,2037.8746000000012,2.0,28.0,88.0,16.0,1.0,1.0,0.7,Time
,,S65,1,女,20,anonymized,Serial_Dependence_U,2023.2.3,Win32,60.60606060606061,,,,,,2037.875299999997,271.0,2.0,2037.8755,271.0,,,,2041.2486000000013,2041.745899999998,2040.732100000001,2041.248399999998,2038.8676000000012,2040.7318999999984,2041.746,2042.245899999998,2042.246,2044.4273999999984,1666.0,2044.4273999999984,5.0,2044.4361000000013,2.0,29.0,89.0,10.0,1.0,0.8,0.3,Time
,,S65,1,女,20,anonymized,Serial_Dependence_U,2023.2.3,Win32,60.60606060606061,,,,,,2044.4363999999985,34.0,3.0,2061.906600000001,34.0,s,17.423499999999876,,2066.089100000001,2066.5883999999983,2065.5746000000013,2066.089,2062.927199999995,2065.5745,2066.5885,2067.0876999999955,2067.0877999999966,2071.135199999995,3779.0,2071.1352999999967,5.0,2071.1635,3.0,0.0,90.0,19.0,1.0,1.6,0.7,Time
,,S65,1,女,20,anonymized,Serial_Dependence_U,2023.2.3,Win32,60.60606060606061,,,,,,2071.164199999995,42.0,3.0,2071.1668999999983,42.0,,,,2074.9483999999984,2075.446,2074.4413999999983,2074.948100000001,2072.167799999997,2074.441199999995,2075.446,2075.9455,2075.9456000000014,2078.8096999999952,2310.0,2078.809799999997,5.0,2078.819100000001,3.0,1.0,91.0,2.0,1.0,1.2,0.3,Time
,,S65,1,女,20,anonymized,Serial_Dependence_U,2023.2.3,Win32,60.60606060606061,,,,,,2078.8193999999985,203.0,3.0,2078.819600000001,203.0,,,,2082.174899999998,2082.672399999998,2081.6576000000014,2082.174600000001,2079.810199999996,2081.6575,2082.6725,2083.1715,2083.171600000001,2085.1216000000013,1866.0,2085.121699999995,5.0,2085.1462999999967,3.0,2.0,92.0,5.0,1.0,0.8,0.7,Time
,,S65,1,女,20,anonymized,Serial_Dependence_U,2023.2.3,Win32,60.60606060606061,,,,,,2085.147,174.0,3.0,2085.147199999996,174.0,,,,2089.2996999999955,2089.7986999999957,2088.784,2089.299600000001,2086.137799999997,2088.783799999997,2089.798799999997,2090.298,2090.298,2093.628699999995,2562.0,2093.6287999999968,5.0,2093.637799999997,3.0,3.0,93.0,9.0,1.0,1.6,0.7,Time
,,S65,1,女,20,anonymized,Serial_Dependence_U,2023.2.3,Win32,60.60606060606061,,,,,,2093.638100000001,247.0,3.0,2093.638199999996,247.0,,,,2097.810299999997,2098.307,2097.2932999999966,2097.810100000001,2094.629100000001,2097.293100000001,2098.3071000000014,2098.806699999995,2098.806699999995,2100.566199999995,1265.0,2100.5662999999968,2.0,2100.585899999998,3.0,4.0,94.0,24.0,1.0,1.6,0.3,Time
,,S65,1,女,20,anonymized,Serial_Dependence_U,2023.2.3,Win32,60.60606060606061,,,,,,2100.5863999999983,53.0,3.0,2100.586600000001,53.0,,,,2104.3696000000014,2104.8672999999967,2103.8523999999984,2104.369399999998,2101.589299999997,2103.852299999997,2104.8675,2105.366899999998,2105.367,2107.881299999997,2011.0,2107.8815,5.0,2107.890100000001,3.0,5.0,95.0,12.0,1.0,1.2,0.3,Time
,,S65,1,女,20,anonymized,Serial_Dependence_U,2023.2.3,Win32,60.60606060606061,,,,,,2107.8905,289.0,3.0,2107.8905,289.0,,,,2111.877799999997,2112.3762999999967,2111.362,2111.877600000001,2108.897199999996,2111.361899999998,2112.3763999999983,2112.876,2112.8761000000013,2115.025399999998,1798.0,2115.0255,4.0,2115.041799999997,3.0,6.0,96.0,3.0,1.0,1.4,0.3,Time
,,S65,1,女,20,anonymized,Serial_Dependence_U,2023.2.3,Win32,60.60606060606061,,,,,,2115.042100000001,300.0,3.0,2115.042199999996,300.0,,,,2119.028799999997,2119.5195,2118.513199999996,2119.0286999999958,2116.049899999998,2118.513100000001,2119.5195,2120.009299999997,2120.009299999997,2121.4607999999967,965.0,2121.460899999998,1.0,2121.4745,3.0,7.0,97.0,13.0,1.0,1.4,0.3,Time
,,S65,1,女,20,anonymized,Serial_Dependence_U,2023.2.3,Win32,60.60606060606061,,,,,,2121.4748999999983,1.0,3.0,2121.4751999999958,1.0,,,,2125.024799999997,2125.5136999999954,2124.523699999995,2125.024600000001,2122.4756999999954,2124.5235,2125.5136999999954,2126.013100000001,2126.013199999996,2128.5395,1966.0,2128.539600000001,5.0,2128.5631999999955,3.0,8.0,98.0,16.0,1.0,1.0,0.7,Time
,,S65,1,女,20,anonymized,Serial_Dependence_U,2023.2.3,Win32,60.60606060606061,,,,,,2128.5641999999957,216.0,3.0,2128.564799999997,216.0,,,,2132.133799999997,2132.6307999999967,2131.6173999999983,2132.1336999999958,2129.568799999997,2131.617199999995,2132.6307999999967,2133.122299999997,2133.1223999999984,2136.0465,2597.0,2136.046600000001,5.0,2136.0638999999983,3.0,9.0,99.0,6.0,1.0,1.0,0.7,Time
,,S65,1,女,20,anonymized,Serial_Dependence_U,2023.2.3,Win32,60.60606060606061,,,,,,2136.0643999999984,244.0,3.0,2136.064600000001,244.0,,,,2140.234299999997,2140.7321999999954,2139.7175,2140.234100000001,2137.0542999999966,2139.7172999999966,2140.732299999997,2141.231199999995,2141.2313999999983,2142.947399999998,1282.0,2142.9475,2.0,2142.964199999996,3.0,10.0,100.0,14.0,1.0,1.6,0.3,Time
,,S65,1,女,20,anonymized,Serial_Dependence_U,2023.2.3,Win32,60.60606060606061,,,,,,2142.9646999999954,263.0,3.0,2142.965,263.0,,,,2146.9346000000014,2147.4253999999983,2146.420399999998,2146.9346000000014,2143.973799999997,2146.4201999999955,2147.4253999999983,2147.924899999998,2147.925,2150.450299999997,2365.0,2150.450299999997,5.0,2150.4725,3.0,11.0,101.0,28.0,1.0,1.4,0.7,Time
,,S65,1,女,20,anonymized,Serial_Dependence_U,2023.2.3,Win32,60.60606060606061,,,,,,2150.473100000001,219.0,3.0,2150.4735,219.0,,,,2154.243899999998,2154.734600000001,2153.738600000001,2154.243799999997,2151.4888999999985,2153.738299999997,2154.734600000001,2155.234199999996,2155.2343999999985,2158.575799999997,2798.0,2158.5758999999985,5.0,2158.6021999999957,3.0,12.0,102.0,7.0,1.0,1.2,0.7,Time
,,S65,1,女,20,anonymized,Serial_Dependence_U,2023.2.3,Win32,60.60606060606061,,,,,,2158.603,207.0,3.0,2158.6036000000013,207.0,,,,2162.386,2162.8766999999957,2161.871100000001,2162.3858999999984,2159.6075,2161.870899999998,2162.8766999999957,2163.376,2163.3761000000013,2165.668699999995,1665.0,2165.6687999999967,5.0,2165.6868999999983,3.0,13.0,103.0,22.0,1.0,1.2,0.3,Time
,,S65,1,女,20,anonymized,Serial_Dependence_U,2023.2.3,Win32,60.60606060606061,,,,,,2165.6875,357.0,3.0,2165.6876999999954,357.0,,,,2169.272299999997,2169.7701999999954,2168.755399999998,2169.272199999996,2166.6913999999983,2168.7552999999966,2169.7701999999954,2170.2698999999984,2170.27,2172.1355,1683.0,2172.1355,5.0,2172.153799999997,3.0,14.0,104.0,11.0,1.0,1.0,0.3,Time
,,S65,1,女,20,anonymized,Serial_Dependence_U,2023.2.3,Win32,60.60606060606061,,,,,,2172.154399999998,90.0,3.0,2172.154600000001,90.0,,,,2175.756299999997,2176.2471000000014,2175.2408999999984,2175.7561999999957,2173.162299999997,2175.2406999999957,2176.2471999999952,2176.746699999995,2176.7467999999967,2179.211600000001,2298.0,2179.2116999999957,5.0,2179.2211999999954,3.0,15.0,105.0,21.0,1.0,1.0,0.3,Time
,,S65,1,女,20,anonymized,Serial_Dependence_U,2023.2.3,Win32,60.60606060606061,,,,,,2179.221600000001,28.0,3.0,2179.2217999999966,28.0,,,,2182.976,2183.473899999998,2182.459,2182.975899999998,2180.227100000001,2182.4588999999983,2183.473899999998,2183.9733999999985,2183.973600000001,2186.7036999999955,2303.0,2186.7036999999955,5.0,2186.712299999997,3.0,16.0,106.0,17.0,1.0,1.2,0.7,Time
,,S65,1,女,20,anonymized,Serial_Dependence_U,2023.2.3,Win32,60.60606060606061,,,,,,2186.712600000001,347.0,3.0,2186.7126999999955,347.0,,,,2190.069100000001,2190.5666999999958,2189.5513999999985,2190.0688999999984,2187.7053999999985,2189.551199999996,2190.566799999997,2191.0661000000014,2191.066199999995,2193.5106999999957,2108.0,2193.5108999999984,5.0,2193.527899999998,3.0,17.0,107.0,15.0,1.0,0.8,0.7,Time
,,S65,1,女,20,anonymized,Serial_Dependence_U,2023.2.3,Win32,60.60606060606061,,,,,,2193.5283999999983,196.0,3.0,2193.5286999999958,196.0,,,,2197.704199999995,2198.192399999998,2197.1873999999984,2197.704,2194.539600000001,2197.187299999997,2198.1925,2198.6912999999968,2198.6913999999983,2201.817899999998,2998.0,2201.818,5.0,2201.844100000001,3.0,18.0,108.0,29.0,1.0,1.6,0.7,Time
,,S65,1,女,20,anonymized,Serial_Dependence_U,2023.2.3,Win32,60.60606060606061,,,,,,2201.844699999995,313.0,3.0,2201.8451000000014,313.0,,,,2205.2116999999957,2205.701600000001,2204.695,2205.2116999999957,2202.8486999999955,2204.694899999998,2205.701600000001,2206.200799999997,2206.2008999999985,2208.9443999999985,2232.0,2208.944600000001,5.0,2208.969,3.0,19.0,109.0,25.0,1.0,0.8,0.7,Time
,,S65,1,女,20,anonymized,Serial_Dependence_U,2023.2.3,Win32,60.60606060606061,,,,,,2208.969299999997,88.0,3.0,2208.969399999998,88.0,,,,2212.7291000000014,2213.227299999997,2212.213,2212.729,2209.966600000001,2212.212899999998,2213.2275,2213.7268999999983,2213.727,2217.174100000001,2946.0,2217.1741999999954,5.0,2217.1835,3.0,20.0,110.0,27.0,1.0,1.2,0.7,Time
,,S65,1,女,20,anonymized,Serial_Dependence_U,2023.2.3,Win32,60.60606060606061,,,,,,2217.183899999998,279.0,3.0,2217.184,279.0,,,,2221.153600000001,2221.652399999998,2220.638799999997,2221.1535,2218.189799999997,2220.638600000001,2221.652399999998,2222.152,2222.152,2224.933100000001,2330.0,2224.933100000001,5.0,2224.942299999997,3.0,21.0,111.0,18.0,1.0,1.4,0.7,Time
,,S65,1,女,20,anonymized,Serial_Dependence_U,2023.2.3,Win32,60.60606060606061,,,,,,2224.942600000001,255.0,3.0,2224.9427999999966,255.0,,,,2228.498399999998,2228.995,2227.9818999999984,2228.4981999999954,2225.949,2227.981799999997,2228.995,2229.4945,2229.494699999995,2232.142699999996,2136.0,2232.1428999999985,5.0,2232.1546999999955,3.0,22.0,112.0,26.0,1.0,1.0,0.7,Time
,,S65,1,女,20,anonymized,Serial_Dependence_U,2023.2.3,Win32,60.60606060606061,,,,,,2232.155,54.0,3.0,2232.1552999999967,54.0,,,,2236.3242999999966,2236.821100000001,2235.822699999995,2236.3241999999955,2233.1598999999983,2235.8225,2236.8211999999958,2237.320199999995,2237.3202999999967,2239.485699999995,1735.0,2239.4857999999967,4.0,2239.5001999999954,3.0,23.0,113.0,4.0,1.0,1.6,0.3,Time
,,S65,1,女,20,anonymized,Serial_Dependence_U,2023.2.3,Win32,60.60606060606061,,,,,,2239.5007999999966,117.0,3.0,2239.5011000000013,117.0,,,,2242.903199999995,2243.397799999997,2242.384100000001,2242.9015,2240.5185,2242.3838999999984,2243.397899999998,2243.8975,2243.897600000001,2246.1795,1699.0,2246.1796000000013,5.0,2246.1947999999966,3.0,24.0,114.0,0.0,1.0,0.8,0.3,Time
,,S65,1,女,20,anonymized,Serial_Dependence_U,2023.2.3,Win32,60.60606060606061,,,,,,2246.195199999995,82.0,3.0,2246.1955,82.0,,,,2249.586600000001,2250.0745,2249.069899999998,2249.5865,2247.205600000001,2249.0697999999966,2250.0745,2250.5738999999985,2250.5738999999985,2252.964600000001,2181.0,2252.964600000001,5.0,2252.9743999999982,3.0,25.0,115.0,20.0,1.0,0.8,0.3,Time
,,S65,1,女,20,anonymized,Serial_Dependence_U,2023.2.3,Win32,60.60606060606061,,,,,,2252.974699999995,219.0,3.0,2252.974799999997,219.0,,,,2256.9445,2257.433600000001,2256.4301000000014,2256.944299999997,2253.9825,2256.4298999999983,2257.4337999999966,2257.933600000001,2257.9336999999955,2261.3582999999967,3280.0,2261.3585,5.0,2261.3763999999983,3.0,26.0,116.0,8.0,1.0,1.4,0.7,Time
,,S65,1,女,20,anonymized,Serial_Dependence_U,2023.2.3,Win32,60.60606060606061,,,,,,2261.377,72.0,3.0,2261.377100000001,72.0,,,,2265.3607999999967,2265.859199999996,2264.844699999995,2265.360699999995,2262.3815,2264.8446000000013,2265.859299999997,2266.359,2266.359100000001,2268.8233999999984,1968.0,2268.8233999999984,5.0,2268.8323999999984,3.0,27.0,117.0,23.0,1.0,1.4,0.3,Time
,,S65,1,女,20,anonymized,Serial_Dependence_U,2023.2.3,Win32,60.60606060606061,,,,,,2268.8326999999954,356.0,3.0,2268.832899999998,356.0,,,,2272.4198999999985,2272.9186000000013,2271.904299999997,2272.4198999999985,2269.839600000001,2271.904299999997,2272.9186000000013,2273.418399999998,2273.418399999998,2274.884399999998,1065.0,2274.8845,4.0,2274.9001999999955,3.0,28.0,118.0,1.0,1.0,1.0,0.3,Time
,,S65,1,女,20,anonymized,Serial_Dependence_U,2023.2.3,Win32,60.60606060606061,,,,,,2274.900699999995,190.0,3.0,2274.9007999999967,190.0,,,,2278.2827999999968,2278.779600000001,2277.766399999998,2278.2826000000014,2275.9005,2277.7661999999955,2278.779600000001,2279.279299999997,2279.279399999998,2281.0947999999967,1462.0,2281.0948999999982,5.0,2281.1086000000014,3.0,29.0,119.0,10.0,1.0,0.8,0.3,Time
,,S65,1,女,20,anonymized,Serial_Dependence_U,2023.2.3,Win32,60.60606060606061,,,,,,2281.109,165.0,4.0,2299.2705,165.0,s,18.123700000002827,,2303.4573999999984,2303.954799999997,2302.9413999999983,2303.457100000001,2300.2763999999984,2302.941199999995,2303.954799999997,2304.4546999999952,2304.454799999997,2306.646799999997,1297.0,2306.6468999999984,2.0,2306.664199999995,4.0,0.0,120.0,4.0,1.0,1.6,0.3,Time
,,S65,1,女,20,anonymized,Serial_Dependence_U,2023.2.3,Win32,60.60606060606061,,,,,,2306.6646999999957,45.0,4.0,2306.666799999997,45.0,,,,2310.250899999998,2310.748399999998,2309.7351999999955,2310.2507999999966,2307.670699999995,2309.734899999998,2310.748399999998,2311.248,2311.248,2312.922899999998,1563.0,2312.922899999998,5.0,2312.9328999999984,4.0,1.0,121.0,21.0,1.0,1.0,0.3,Time
,,S65,1,女,20,anonymized,Serial_Dependence_U,2023.2.3,Win32,60.60606060606061,,,,,,2312.9331999999954,197.0,4.0,2312.933299999997,197.0,,,,2316.5015,2316.991899999998,2315.985699999995,2316.5015,2313.9391999999957,2315.9856000000013,2316.992,2317.4923999999983,2317.4925,2320.265600000001,2180.0,2320.2656999999954,5.0,2320.2825,4.0,2.0,122.0,6.0,1.0,1.0,0.7,Time
,,S65,1,女,20,anonymized,Serial_Dependence_U,2023.2.3,Win32,60.60606060606061,,,,,,2320.2828999999983,149.0,4.0,2320.283100000001,149.0,,,,2324.0796000000014,2324.5682999999967,2323.563,2324.0792999999967,2321.2896999999957,2323.562799999997,2324.5682999999967,2325.067299999997,2325.067299999997,2327.1936999999957,1666.0,2327.193799999997,5.0,2327.2163999999984,4.0,3.0,123.0,12.0,1.0,1.2,0.3,Time
,,S65,1,女,20,anonymized,Serial_Dependence_U,2023.2.3,Win32,60.60606060606061,,,,,,2327.217,142.0,4.0,2327.2171999999955,142.0,,,,2330.8055,2331.295,2330.298600000001,2330.8053999999984,2328.232600000001,2330.2983999999983,2331.295,2331.794799999997,2331.7948999999985,2334.2381000000014,1932.0,2334.238299999997,5.0,2334.259,4.0,4.0,124.0,11.0,1.0,1.0,0.3,Time
,,S65,1,女,20,anonymized,Serial_Dependence_U,2023.2.3,Win32,60.60606060606061,,,,,,2334.2595,71.0,4.0,2334.259600000001,71.0,,,,2337.615,2338.105100000001,2337.1086000000014,2337.614899999998,2335.2751999999955,2337.1085,2338.1051999999954,2338.604600000001,2338.604699999996,2341.269,2176.0,2341.2691000000013,5.0,2341.2783999999983,4.0,5.0,125.0,25.0,1.0,0.8,0.7,Time
,,S65,1,女,20,anonymized,Serial_Dependence_U,2023.2.3,Win32,60.60606060606061,,,,,,2341.2786999999958,60.0,4.0,2341.2788999999984,60.0,,,,2344.650699999995,2345.148399999998,2344.134299999997,2344.6505,2342.270600000001,2344.134100000001,2345.1485,2345.648,2345.648,2347.4632999999967,1280.0,2347.4633999999983,5.0,2347.481199999995,4.0,6.0,126.0,20.0,1.0,0.8,0.3,Time
,,S65,1,女,20,anonymized,Serial_Dependence_U,2023.2.3,Win32,60.60606060606061,,,,,,2347.4816999999957,332.0,4.0,2347.482,332.0,,,,2351.661399999998,2352.1581999999958,2351.143399999998,2351.6611999999955,2348.4962999999966,2351.1431999999954,2352.158299999997,2352.657699999995,2352.6578999999983,2355.4721000000013,2315.0,2355.472199999995,5.0,2355.4901000000013,4.0,7.0,127.0,19.0,1.0,1.6,0.7,Time
,,S65,1,女,20,anonymized,Serial_Dependence_U,2023.2.3,Win32,60.60606060606061,,,,,,2355.4903999999983,229.0,4.0,2355.4906999999957,229.0,,,,2359.269799999997,2359.767,2358.7533999999982,2359.269600000001,2356.5046999999954,2358.7532999999967,2359.7671000000014,2360.2667999999967,2360.267,2363.198100000001,2428.0,2363.198299999997,5.0,2363.2146999999954,4.0,8.0,128.0,17.0,1.0,1.2,0.7,Time
,,S65,1,女,20,anonymized,Serial_Dependence_U,2023.2.3,Win32,60.60606060606061,,,,,,2363.215199999995,308.0,4.0,2363.215399999998,308.0,,,,2366.611899999998,2367.1101999999955,2366.096399999998,2366.6116999999954,2364.231799999997,2366.0961999999954,2367.1101999999955,2367.6096999999954,2367.609799999997,2369.9745,1865.0,2369.9745,5.0,2369.983799999997,4.0,9.0,129.0,10.0,1.0,0.8,0.3,Time
,,S65,1,女,20,anonymized,Serial_Dependence_U,2023.2.3,Win32,60.60606060606061,,,,,,2369.984100000001,204.0,4.0,2369.984199999996,204.0,,,,2373.9702999999968,2374.468699999996,2373.455199999996,2373.970199999995,2370.975799999997,2373.455,2374.4688999999985,2374.968299999997,2374.968299999997,2376.8853999999983,1319.0,2376.8855,2.0,2376.900399999998,4.0,10.0,130.0,3.0,1.0,1.4,0.3,Time
,,S65,1,女,20,anonymized,Serial_Dependence_U,2023.2.3,Win32,60.60606060606061,,,,,,2376.9011000000014,329.0,4.0,2376.9011999999952,329.0,,,,2380.881799999997,2381.3796999999954,2380.364600000001,2380.881600000001,2377.9165,2380.364399999998,2381.379799999997,2381.8791999999958,2381.8793999999984,2384.7938999999983,2474.0,2384.7941999999957,5.0,2384.817100000001,4.0,11.0,131.0,8.0,1.0,1.4,0.7,Time
,,S65,1,女,20,anonymized,Serial_Dependence_U,2023.2.3,Win32,60.60606060606061,,,,,,2384.817899999998,204.0,4.0,2384.818199999995,204.0,,,,2388.589199999996,2389.0885,2388.0741999999955,2388.589199999996,2385.827,2388.074100000001,2389.0886000000014,2389.5886999999952,2389.588799999997,2392.468799999997,2347.0,2392.4688999999985,5.0,2392.4781999999955,4.0,12.0,132.0,27.0,1.0,1.2,0.7,Time
,,S65,1,女,20,anonymized,Serial_Dependence_U,2023.2.3,Win32,60.60606060606061,,,,,,2392.478399999998,99.0,4.0,2392.4786000000013,99.0,,,,2395.8337999999967,2396.3315,2395.333,2395.8336000000013,2393.486799999997,2395.332899999998,2396.3315,2396.831199999995,2396.831399999998,2398.263199999996,1349.0,2398.2633999999985,5.0,2398.274299999997,4.0,13.0,133.0,15.0,1.0,0.8,0.7,Time
,,S65,1,女,20,anonymized,Serial_Dependence_U,2023.2.3,Win32,60.60606060606061,,,,,,2398.274600000001,169.0,4.0,2398.2746999999954,169.0,,,,2401.861299999997,2402.3581000000013,2401.3452999999968,2401.861,2399.296,2401.345,2402.358199999995,2402.8576999999955,2402.8577999999966,2405.741100000001,2484.0,2405.741100000001,5.0,2405.7572999999966,4.0,14.0,134.0,26.0,1.0,1.0,0.7,Time
,,S65,1,女,20,anonymized,Serial_Dependence_U,2023.2.3,Win32,60.60606060606061,,,,,,2405.7577999999967,118.0,4.0,2405.758,118.0,,,,2409.152299999997,2409.651,2408.636199999996,2409.1521999999954,2406.7731000000013,2408.636199999996,2409.651,2410.150399999998,2410.150399999998,2411.899600000001,1232.0,2411.899799999997,5.0,2411.910299999997,4.0,15.0,135.0,0.0,1.0,0.8,0.3,Time
,,S65,1,女,20,anonymized,Serial_Dependence_U,2023.2.3,Win32,60.60606060606061,,,,,,2411.910699999996,282.0,4.0,2411.9108999999985,282.0,,,,2416.112100000001,2416.610699999995,2415.5961999999954,2416.112,2412.932,2415.596100000001,2416.610699999995,2417.1102999999966,2417.110399999998,2418.926100000001,1330.0,2418.926100000001,2.0,2418.9368999999983,4.0,16.0,136.0,14.0,1.0,1.6,0.3,Time
,,S65,1,女,20,anonymized,Serial_Dependence_U,2023.2.3,Win32,60.60606060606061,,,,,,2418.9371999999958,156.0,4.0,2418.9375,156.0,,,,2422.3073999999983,2422.8047999999967,2421.790199999996,2422.3071000000014,2419.9582999999966,2421.79,2422.8048999999983,2423.3051000000014,2423.3051000000014,2424.9047999999966,1317.0,2424.905,5.0,2424.922600000001,4.0,17.0,137.0,5.0,1.0,0.8,0.7,Time
,,S65,1,女,20,anonymized,Serial_Dependence_U,2023.2.3,Win32,60.60606060606061,,,,,,2424.9231000000013,274.0,4.0,2424.9232999999967,274.0,,,,2428.8841999999954,2429.3822999999966,2428.3675,2428.884100000001,2425.920699999995,2428.3672999999967,2429.382399999998,2429.8821999999955,2429.8822999999966,2432.413899999998,1995.0,2432.4141000000013,5.0,2432.4393999999984,4.0,18.0,138.0,28.0,1.0,1.4,0.7,Time
,,S65,1,女,20,anonymized,Serial_Dependence_U,2023.2.3,Win32,60.60606060606061,,,,,,2432.439799999997,150.0,4.0,2432.44,150.0,,,,2436.0277999999967,2436.5245,2435.5116999999955,2436.027699999995,2433.445699999995,2435.511600000001,2436.5245,2437.024100000001,2437.024100000001,2438.7898999999984,1362.0,2438.79,5.0,2438.798799999997,4.0,19.0,139.0,1.0,1.0,1.0,0.3,Time
,,S65,1,女,20,anonymized,Serial_Dependence_U,2023.2.3,Win32,60.60606060606061,,,,,,2438.799100000001,285.0,4.0,2438.799299999997,285.0,,,,2442.5611000000013,2443.0515,2442.0553999999984,2442.5611000000013,2439.7907999999966,2442.0551999999952,2443.051600000001,2443.5513999999985,2443.5515,2445.600600000001,1596.0,2445.600600000001,5.0,2445.6135,4.0,20.0,140.0,22.0,1.0,1.2,0.3,Time
,,S65,1,女,20,anonymized,Serial_Dependence_U,2023.2.3,Win32,60.60606060606061,,,,,,2445.613799999997,51.0,4.0,2445.613799999997,51.0,,,,2449.18,2449.6783999999984,2448.6641000000013,2449.179699999995,2446.616899999998,2448.664,2449.6783999999984,2450.1778999999983,2450.178,2452.7107999999967,2082.0,2452.7107999999967,5.0,2452.734299999997,4.0,21.0,141.0,16.0,1.0,1.0,0.7,Time
,,S65,1,女,20,anonymized,Serial_Dependence_U,2023.2.3,Win32,60.60606060606061,,,,,,2452.734899999998,285.0,4.0,2452.735100000001,285.0,,,,2456.705799999997,2457.2046999999952,2456.1913999999983,2456.7056999999954,2453.7265,2456.191199999995,2457.2048999999984,2457.7046999999952,2457.704799999997,2459.170399999998,1113.0,2459.1705,2.0,2459.1876999999954,4.0,22.0,142.0,23.0,1.0,1.4,0.3,Time
,,S65,1,女,20,anonymized,Serial_Dependence_U,2023.2.3,Win32,60.60606060606061,,,,,,2459.1882999999966,228.0,4.0,2459.188399999998,228.0,,,,2462.974799999997,2463.464799999997,2462.460699999995,2462.974699999995,2460.194299999997,2462.4605,2463.464899999998,2463.9646999999954,2463.964899999998,2465.5596999999952,1232.0,2465.56,3.0,2465.584799999997,4.0,23.0,143.0,2.0,1.0,1.2,0.3,Time
,,S65,1,女,20,anonymized,Serial_Dependence_U,2023.2.3,Win32,60.60606060606061,,,,,,2465.5856000000013,6.0,4.0,2465.585899999998,6.0,,,,2469.3361000000014,2469.825600000001,2468.8351999999954,2469.335899999998,2466.589600000001,2468.835100000001,2469.825600000001,2470.325199999995,2470.325299999997,2473.6152999999968,2980.0,2473.6153999999983,5.0,2473.6311000000014,4.0,24.0,144.0,7.0,1.0,1.2,0.7,Time
,,S65,1,女,20,anonymized,Serial_Dependence_U,2023.2.3,Win32,60.60606060606061,,,,,,2473.631600000001,108.0,4.0,2473.6318999999985,108.0,,,,2477.611600000001,2478.100299999997,2477.0955,2477.6115,2474.623299999997,2477.0952999999968,2478.100299999997,2478.600299999997,2478.6003999999984,2480.36,1050.0,2480.360100000001,2.0,2480.3781000000013,4.0,25.0,145.0,13.0,1.0,1.4,0.3,Time
,,S65,1,女,20,anonymized,Serial_Dependence_U,2023.2.3,Win32,60.60606060606061,,,,,,2480.3786000000014,249.0,4.0,2480.3787999999968,249.0,,,,2484.5551999999952,2485.053799999997,2484.054,2484.5551000000014,2481.383299999997,2484.053899999998,2485.053899999998,2485.5431999999955,2485.5432999999966,2486.970600000001,1399.0,2486.9706999999958,2.0,2486.993199999996,4.0,26.0,146.0,24.0,1.0,1.6,0.3,Time
,,S65,1,女,20,anonymized,Serial_Dependence_U,2023.2.3,Win32,60.60606060606061,,,,,,2486.993899999998,31.0,4.0,2486.9941000000013,31.0,,,,2491.1648999999984,2491.654299999997,2490.649299999997,2491.1646999999957,2488.001,2490.649100000001,2491.654399999998,2492.1538999999984,2492.154,2495.4616999999957,2864.0,2495.461799999997,5.0,2495.485399999998,4.0,27.0,147.0,9.0,1.0,1.6,0.7,Time
,,S65,1,女,20,anonymized,Serial_Dependence_U,2023.2.3,Win32,60.60606060606061,,,,,,2495.486,122.0,4.0,2495.4863999999984,122.0,,,,2499.448799999997,2499.9456000000014,2498.9316000000013,2499.448600000001,2496.4838999999984,2498.9315,2499.945699999995,2500.445199999995,2500.4452999999967,2503.043699999995,2097.0,2503.043699999995,5.0,2503.059199999995,4.0,28.0,148.0,18.0,1.0,1.4,0.7,Time
,,S65,1,女,20,anonymized,Serial_Dependence_U,2023.2.3,Win32,60.60606060606061,,,,,,2503.0596000000014,92.0,4.0,2503.059799999997,92.0,,,,2507.2315,2507.721899999998,2506.7156000000014,2507.2313999999983,2504.067399999998,2506.7155,2507.722,2508.2208999999984,2508.2208999999984,2511.7456999999954,3297.0,2511.745799999997,5.0,2511.763600000001,4.0,29.0,149.0,29.0,1.0,1.6,0.7,Time
,,S65,1,女,20,anonymized,Serial_Dependence_U,2023.2.3,Win32,60.60606060606061,,,,,,2511.764,56.0,5.0,2549.7893999999983,56.0,s,37.97760000000108,,2553.7786999999958,2554.2757999999967,2553.261100000001,2553.778600000001,2550.798600000001,2553.261100000001,2554.2757999999967,2554.7757999999967,2554.7758999999983,2556.2916000000014,1412.0,2556.2916000000014,3.0,2556.3003999999983,5.0,0.0,150.0,3.0,1.0,1.4,0.3,Time
,,S65,1,女,20,anonymized,Serial_Dependence_U,2023.2.3,Win32,60.60606060606061,,,,,,2556.3006999999952,35.0,5.0,2556.302,35.0,,,,2560.4871999999955,2560.9866999999954,2559.971600000001,2560.4871999999955,2557.3076999999957,2559.9715,2560.986899999998,2561.485399999998,2561.485399999998,2563.5688999999984,1915.0,2563.569,4.0,2563.5941999999955,5.0,1.0,151.0,4.0,1.0,1.6,0.3,Time
,,S65,1,女,20,anonymized,Serial_Dependence_U,2023.2.3,Win32,60.60606060606061,,,,,,2563.5948999999982,255.0,5.0,2563.595199999995,255.0,,,,2567.180799999997,2567.6797999999967,2566.6665,2567.180699999996,2564.600100000001,2566.6662999999967,2567.6797999999967,2568.1792999999966,2568.1795,2570.5115,1883.0,2570.511600000001,5.0,2570.5305,5.0,2.0,152.0,11.0,1.0,1.0,0.3,Time
,,S65,1,女,20,anonymized,Serial_Dependence_U,2023.2.3,Win32,60.60606060606061,,,,,,2570.530799999997,165.0,5.0,2570.5308999999984,165.0,,,,2574.684199999995,2575.1725,2574.1673999999985,2574.684,2571.5346000000013,2574.167199999996,2575.1725,2575.671799999997,2575.6718999999985,2579.596600000001,3527.0,2579.5966999999955,5.0,2579.6206999999954,5.0,3.0,153.0,29.0,1.0,1.6,0.7,Time
,,S65,1,女,20,anonymized,Serial_Dependence_U,2023.2.3,Win32,60.60606060606061,,,,,,2579.621100000001,123.0,5.0,2579.6212999999966,123.0,,,,2583.582,2584.080299999997,2583.066199999995,2583.5817999999967,2580.6191000000013,2583.066,2584.080299999997,2584.5798999999984,2584.58,2587.960100000001,2980.0,2587.9601999999954,5.0,2587.9695,5.0,4.0,154.0,8.0,1.0,1.4,0.7,Time
,,S65,1,女,20,anonymized,Serial_Dependence_U,2023.2.3,Win32,60.60606060606061,,,,,,2587.9697999999967,208.0,5.0,2587.9698999999982,208.0,,,,2591.7401000000013,2592.238699999996,2591.2253999999984,2591.739899999998,2588.9762999999966,2591.2251999999958,2592.238799999997,2592.7381999999952,2592.738299999997,2595.769600000001,2898.0,2595.7696999999957,5.0,2595.786699999995,5.0,5.0,155.0,27.0,1.0,1.2,0.7,Time
,,S65,1,女,20,anonymized,Serial_Dependence_U,2023.2.3,Win32,60.60606060606061,,,,,,2595.787199999995,11.0,5.0,2595.787299999997,11.0,,,,2599.167199999996,2599.665,2598.6511999999952,2599.167,2596.787,2598.651,2599.665,2600.164600000001,2600.1646999999957,2601.780799999997,1183.0,2601.7808999999984,5.0,2601.798199999995,5.0,6.0,156.0,10.0,1.0,0.8,0.3,Time
,,S65,1,女,20,anonymized,Serial_Dependence_U,2023.2.3,Win32,60.60606060606061,,,,,,2601.7986999999957,290.0,5.0,2601.7988999999984,290.0,,,,2605.553600000001,2606.0415,2605.051799999997,2605.5533999999984,2602.8048999999983,2605.0516999999954,2606.0416000000014,2606.5415,2606.541699999995,2609.8678999999984,2782.0,2609.868,5.0,2609.8872999999967,5.0,7.0,157.0,7.0,1.0,1.2,0.7,Time
,,S65,1,女,20,anonymized,Serial_Dependence_U,2023.2.3,Win32,60.60606060606061,,,,,,2609.888100000001,84.0,5.0,2609.888299999997,84.0,,,,2614.0515,2614.5502999999967,2613.535699999996,2614.0513999999985,2610.8891999999955,2613.535600000001,2614.5505,2615.05,2615.05,2617.597799999997,1947.0,2617.5978999999984,4.0,2617.6068999999984,5.0,8.0,158.0,9.0,1.0,1.6,0.7,Time
,,S65,1,女,20,anonymized,Serial_Dependence_U,2023.2.3,Win32,60.60606060606061,,,,,,2617.607299999997,67.0,5.0,2617.6073999999985,67.0,,,,2621.5791000000013,2622.076,2621.078100000001,2621.578899999998,2618.613699999996,2621.078,2622.076,2622.5753999999984,2622.5755,2624.325199999995,1097.0,2624.325199999995,2.0,2624.3447999999967,5.0,9.0,159.0,13.0,1.0,1.4,0.3,Time
,,S65,1,女,20,anonymized,Serial_Dependence_U,2023.2.3,Win32,60.60606060606061,,,,,,2624.3452999999968,210.0,5.0,2624.3453999999983,210.0,,,,2628.3126999999954,2628.8031999999957,2627.7976999999955,2628.312600000001,2625.3503999999984,2627.797399999998,2628.803299999997,2629.302699999995,2629.3027999999968,2632.3096000000014,2514.0,2632.3096999999952,5.0,2632.319199999996,5.0,10.0,160.0,28.0,1.0,1.4,0.7,Time
,,S65,1,女,20,anonymized,Serial_Dependence_U,2023.2.3,Win32,60.60606060606061,,,,,,2632.3195,107.0,5.0,2632.319600000001,107.0,,,,2635.6901999999955,2636.179100000001,2635.174,2635.69,2633.325199999995,2635.173799999997,2636.179100000001,2636.6786999999954,2636.678899999998,2638.169799999997,1348.0,2638.169799999997,5.0,2638.1805,5.0,11.0,161.0,15.0,1.0,0.8,0.7,Time
,,S65,1,女,20,anonymized,Serial_Dependence_U,2023.2.3,Win32,60.60606060606061,,,,,,2638.181,282.0,5.0,2638.181100000001,282.0,,,,2641.775399999998,2642.2726999999954,2641.2595,2641.7751999999955,2639.1865,2641.259399999998,2642.2726999999954,2642.772199999996,2642.772199999996,2644.025100000001,818.0,2644.0251999999955,2.0,2644.0497999999966,5.0,12.0,162.0,21.0,1.0,1.0,0.3,Time
,,S65,1,女,20,anonymized,Serial_Dependence_U,2023.2.3,Win32,60.60606060606061,,,,,,2644.0505,286.0,5.0,2644.050799999997,286.0,,,,2647.6205,2648.1171000000013,2647.104,2647.6201999999957,2645.056100000001,2647.103699999995,2648.1171000000013,2648.6167999999966,2648.6167999999966,2650.8151999999955,1665.0,2650.815299999997,5.0,2650.8248999999983,5.0,13.0,163.0,16.0,1.0,1.0,0.7,Time
,,S65,1,女,20,anonymized,Serial_Dependence_U,2023.2.3,Win32,60.60606060606061,,,,,,2650.825199999995,40.0,5.0,2650.825299999997,40.0,,,,2654.803,2655.2937999999967,2654.2971999999954,2654.8028999999983,2651.831399999998,2654.297100000001,2655.2937999999967,2655.792899999998,2655.792899999998,2657.3858999999984,1065.0,2657.386100000001,2.0,2657.4008999999983,5.0,14.0,164.0,23.0,1.0,1.4,0.3,Time
,,S65,1,女,20,anonymized,Serial_Dependence_U,2023.2.3,Win32,60.60606060606061,,,,,,2657.4015,210.0,5.0,2657.401799999997,210.0,,,,2660.7558999999983,2661.254,2660.239699999995,2660.7557999999967,2658.4078999999983,2660.239600000001,2661.254100000001,2661.754100000001,2661.7541999999958,2664.0023999999985,1685.0,2664.0025,5.0,2664.011,5.0,15.0,165.0,5.0,1.0,0.8,0.7,Time
,,S65,1,女,20,anonymized,Serial_Dependence_U,2023.2.3,Win32,60.60606060606061,,,,,,2664.011299999997,30.0,5.0,2664.0113999999985,30.0,,,,2667.8,2668.2976999999955,2667.2825,2667.799899999998,2665.0037999999968,2667.2823999999982,2668.2977999999966,2668.797299999997,2668.797399999998,2670.5551999999952,1248.0,2670.5553999999984,3.0,2670.570199999995,5.0,16.0,166.0,2.0,1.0,1.2,0.3,Time
,,S65,1,女,20,anonymized,Serial_Dependence_U,2023.2.3,Win32,60.60606060606061,,,,,,2670.5705,96.0,5.0,2670.570699999995,96.0,,,,2674.749600000001,2675.2402999999968,2674.234799999997,2674.7493999999983,2671.5711999999958,2674.2346999999954,2675.2403999999983,2675.740199999995,2675.740199999995,2677.884,1649.0,2677.8841999999954,3.0,2677.9033999999983,5.0,17.0,167.0,24.0,1.0,1.6,0.3,Time
,,S65,1,女,20,anonymized,Serial_Dependence_U,2023.2.3,Win32,60.60606060606061,,,,,,2677.903799999997,265.0,5.0,2677.9041999999954,265.0,,,,2682.077199999995,2682.566799999997,2681.5706000000014,2682.0771000000013,2678.905799999997,2681.5703999999982,2682.566799999997,2683.0662999999968,2683.0663999999983,2685.0252999999966,1466.0,2685.0255,2.0,2685.0396999999957,5.0,18.0,168.0,14.0,1.0,1.6,0.3,Time
,,S65,1,女,20,anonymized,Serial_Dependence_U,2023.2.3,Win32,60.60606060606061,,,,,,2685.040100000001,213.0,5.0,2685.0403999999985,213.0,,,,2688.788100000001,2689.277,2688.2867999999967,2688.788,2686.0413999999982,2688.286699999995,2689.277,2689.7765,2689.776699999996,2692.034699999995,1698.0,2692.0348999999983,5.0,2692.0476999999955,5.0,19.0,169.0,17.0,1.0,1.2,0.7,Time
,,S65,1,女,20,anonymized,Serial_Dependence_U,2023.2.3,Win32,60.60606060606061,,,,,,2692.0481000000013,27.0,5.0,2692.048199999995,27.0,,,,2695.431699999995,2695.9206000000013,2694.9148999999984,2695.4316000000013,2693.0506999999952,2694.9146999999957,2695.920699999995,2696.420100000001,2696.4202999999966,2697.986,1183.0,2697.986100000001,5.0,2698.000399999998,5.0,20.0,170.0,20.0,1.0,0.8,0.3,Time
,,S65,1,女,20,anonymized,Serial_Dependence_U,2023.2.3,Win32,60.60606060606061,,,,,,2698.000600000001,39.0,5.0,2698.001,39.0,,,,2701.950299999997,2702.4478999999983,2701.449,2701.9501000000014,2699.003199999995,2701.449,2702.448100000001,2702.9472999999966,2702.947399999998,2705.662,2247.0,2705.6621000000014,5.0,2705.6718999999985,5.0,21.0,171.0,18.0,1.0,1.4,0.7,Time
,,S65,1,女,20,anonymized,Serial_Dependence_U,2023.2.3,Win32,60.60606060606061,,,,,,2705.6721999999954,302.0,5.0,2705.6721999999954,302.0,,,,2709.259299999997,2709.757,2708.743899999998,2709.259100000001,2706.6785,2708.7436999999954,2709.757100000001,2710.2568999999985,2710.257,2712.505,1758.0,2712.505,5.0,2712.513799999997,5.0,22.0,172.0,1.0,1.0,1.0,0.3,Time
,,S65,1,女,20,anonymized,Serial_Dependence_U,2023.2.3,Win32,60.60606060606061,,,,,,2712.5141999999955,48.0,5.0,2712.5141999999955,48.0,,,,2715.884899999998,2716.3833999999983,2715.3697999999968,2715.8847999999966,2713.521,2715.3696000000014,2716.3833999999983,2716.8835,2716.883600000001,2719.015,1306.0,2719.015100000001,5.0,2719.0245,5.0,23.0,173.0,25.0,1.0,0.8,0.7,Time
,,S65,1,女,20,anonymized,Serial_Dependence_U,2023.2.3,Win32,60.60606060606061,,,,,,2719.024799999997,11.0,5.0,2719.024899999998,11.0,,,,2722.812899999998,2723.310600000001,2722.297,2722.8126999999954,2720.0306999999952,2722.296699999996,2723.3106999999954,2723.810100000001,2723.810199999996,2725.7596999999955,1445.0,2725.759899999998,4.0,2725.781899999998,5.0,24.0,174.0,22.0,1.0,1.2,0.3,Time
,,S65,1,女,20,anonymized,Serial_Dependence_U,2023.2.3,Win32,60.60606060606061,,,,,,2725.7822999999967,313.0,5.0,2725.7823999999982,313.0,,,,2729.172899999998,2729.6702999999966,2728.656799999997,2729.1726999999955,2726.7913999999982,2728.656600000001,2729.6702999999966,2730.1705,2730.1705,2732.501799999997,1813.0,2732.5018999999984,5.0,2732.510600000001,5.0,25.0,175.0,0.0,1.0,0.8,0.3,Time
,,S65,1,女,20,anonymized,Serial_Dependence_U,2023.2.3,Win32,60.60606060606061,,,,,,2732.510799999997,349.0,5.0,2732.5108999999984,349.0,,,,2736.2815,2736.7806999999952,2735.766699999995,2736.281299999997,2733.5023999999985,2735.7665,2736.780799999997,2737.2802999999967,2737.2805,2738.9458999999983,1282.0,2738.946,4.0,2738.9646999999954,5.0,26.0,176.0,12.0,1.0,1.2,0.3,Time
,,S65,1,女,20,anonymized,Serial_Dependence_U,2023.2.3,Win32,60.60606060606061,,,,,,2738.965399999998,197.0,5.0,2738.965699999995,197.0,,,,2742.543,2743.0412999999967,2742.026600000001,2742.542799999997,2739.979,2742.0265,2743.0413999999982,2743.5406999999955,2743.5407999999966,2745.639100000001,1571.0,2745.6391999999955,5.0,2745.6476999999954,5.0,27.0,177.0,26.0,1.0,1.0,0.7,Time
,,S65,1,女,20,anonymized,Serial_Dependence_U,2023.2.3,Win32,60.60606060606061,,,,,,2745.647899999998,152.0,5.0,2745.648199999995,152.0,,,,2749.2035,2749.701299999997,2748.7026999999957,2749.203299999997,2746.6556000000014,2748.7025,2749.701399999998,2750.201100000001,2750.201299999997,2752.4987999999967,1695.0,2752.4987999999967,5.0,2752.5115,5.0,28.0,178.0,6.0,1.0,1.0,0.7,Time
,,S65,1,女,20,anonymized,Serial_Dependence_U,2023.2.3,Win32,60.60606060606061,,,,,,2752.511899999998,214.0,5.0,2752.512,214.0,,,,2756.6946999999955,2757.193799999997,2756.178899999998,2756.694600000001,2753.532699999995,2756.1786999999954,2757.193799999997,2757.6936000000014,2757.693799999997,2760.311,2120.0,2760.311199999995,5.0,2760.3377999999966,5.0,29.0,179.0,19.0,1.0,1.6,0.7,Time
,,S65,1,女,20,anonymized,Serial_Dependence_U,2023.2.3,Win32,60.60606060606061,,,,,,2760.3385,354.0,6.0,2797.1268999999984,354.0,s,36.745700000003126,,2801.3091000000013,2801.8,2800.7931999999955,2801.3091000000013,2798.129600000001,2800.793,2801.8,2802.299399999998,2802.2995,2804.1597999999967,1332.0,2804.16,2.0,2804.1772999999966,6.0,0.0,180.0,4.0,1.0,1.6,0.3,Time
,,S65,1,女,20,anonymized,Serial_Dependence_U,2023.2.3,Win32,60.60606060606061,,,,,,2804.1777999999968,151.0,6.0,2804.1798999999983,151.0,,,,2807.9791000000014,2808.4766000000013,2807.462,2807.9787999999967,2805.1975,2807.4618999999984,2808.4766000000013,2808.976399999998,2808.976399999998,2811.3835,1914.0,2811.3836999999958,5.0,2811.393299999997,6.0,1.0,181.0,22.0,1.0,1.2,0.3,Time
,,S65,1,女,20,anonymized,Serial_Dependence_U,2023.2.3,Win32,60.60606060606061,,,,,,2811.3935,53.0,6.0,2811.393600000001,53.0,,,,2815.3475,2815.8361000000014,2814.846299999997,2815.3473999999983,2812.397899999998,2814.8461999999954,2815.8361000000014,2816.335899999998,2816.335899999998,2819.0616000000014,2248.0,2819.061699999995,5.0,2819.08,6.0,2.0,182.0,28.0,1.0,1.4,0.7,Time
,,S65,1,女,20,anonymized,Serial_Dependence_U,2023.2.3,Win32,60.60606060606061,,,,,,2819.0805,59.0,6.0,2819.080600000001,59.0,,,,2822.880100000001,2823.3783999999982,2822.364899999998,2822.88,2820.1012999999966,2822.364699999995,2823.3783999999982,2823.8782999999967,2823.8782999999967,2825.8602999999966,1569.0,2825.860399999998,5.0,2825.8741000000014,6.0,3.0,183.0,12.0,1.0,1.2,0.3,Time
,,S65,1,女,20,anonymized,Serial_Dependence_U,2023.2.3,Win32,60.60606060606061,,,,,,2825.8745,241.0,6.0,2825.8746999999958,241.0,,,,2830.056100000001,2830.555,2829.5416000000014,2830.0558999999985,2826.892699999996,2829.5413999999982,2830.5551000000014,2831.0545,2831.0546000000013,2833.635799999997,2066.0,2833.635799999997,4.0,2833.645100000001,6.0,4.0,184.0,9.0,1.0,1.6,0.7,Time
,,S65,1,女,20,anonymized,Serial_Dependence_U,2023.2.3,Win32,60.60606060606061,,,,,,2833.645399999998,268.0,6.0,2833.6455,268.0,,,,2837.3827999999967,2837.881299999997,2836.8673999999983,2837.3826000000013,2834.635,2836.8672999999967,2837.881299999997,2838.3806000000013,2838.3806000000013,2840.9956999999954,2113.0,2840.995799999997,5.0,2841.014399999998,6.0,5.0,185.0,7.0,1.0,1.2,0.7,Time
,,S65,1,女,20,anonymized,Serial_Dependence_U,2023.2.3,Win32,60.60606060606061,,,,,,2841.0148999999983,172.0,6.0,2841.015100000001,172.0,,,,2844.791699999995,2845.2911000000013,2844.286,2844.7916000000014,2842.0215,2844.2858999999985,2845.2911000000013,2845.7905,2845.790600000001,2847.439600000001,1132.0,2847.439799999997,2.0,2847.456699999995,6.0,6.0,186.0,2.0,1.0,1.2,0.3,Time
,,S65,1,女,20,anonymized,Serial_Dependence_U,2023.2.3,Win32,60.60606060606061,,,,,,2847.457600000001,4.0,6.0,2847.458,4.0,,,,2850.837,2851.334699999996,2850.336199999995,2850.8368999999984,2848.473100000001,2850.336,2851.334799999997,2851.8343999999984,2851.8343999999984,2853.5165,1216.0,2853.516699999995,5.0,2853.531299999997,6.0,7.0,187.0,20.0,1.0,0.8,0.3,Time
,,S65,1,女,20,anonymized,Serial_Dependence_U,2023.2.3,Win32,60.60606060606061,,,,,,2853.5321000000013,221.0,6.0,2853.5325,221.0,,,,2857.529299999997,2858.0282999999968,2857.014100000001,2857.5291999999954,2854.548799999997,2857.014,2858.0282999999968,2858.5271999999954,2858.527299999997,2860.5431999999955,1600.0,2860.5432999999966,4.0,2860.561,6.0,8.0,188.0,23.0,1.0,1.4,0.3,Time
,,S65,1,女,20,anonymized,Serial_Dependence_U,2023.2.3,Win32,60.60606060606061,,,,,,2860.5616000000014,191.0,6.0,2860.5617999999968,191.0,,,,2864.123,2864.6221000000014,2863.6071999999954,2864.1228999999985,2861.559,2863.607,2864.6221999999952,2865.1212999999966,2865.121399999998,2867.452600000001,1881.0,2867.4526999999957,5.0,2867.462,6.0,9.0,189.0,16.0,1.0,1.0,0.7,Time
,,S65,1,女,20,anonymized,Serial_Dependence_U,2023.2.3,Win32,60.60606060606061,,,,,,2867.462299999997,295.0,6.0,2867.4625,295.0,,,,2871.434199999995,2871.931399999998,2870.917799999997,2871.434,2868.469,2870.9175,2871.9315,2872.4308999999985,2872.431,2875.877299999997,2853.0,2875.8773999999985,5.0,2875.8866999999955,6.0,10.0,190.0,18.0,1.0,1.4,0.7,Time
,,S65,1,女,20,anonymized,Serial_Dependence_U,2023.2.3,Win32,60.60606060606061,,,,,,2875.887,202.0,6.0,2875.887,202.0,,,,2879.2578999999982,2879.757100000001,2878.742,2879.257699999995,2876.8955,2878.7417999999966,2879.7571999999955,2880.256600000001,2880.256699999996,2882.9373999999984,1982.0,2882.9375,5.0,2882.946100000001,6.0,11.0,191.0,15.0,1.0,0.8,0.7,Time
,,S65,1,女,20,anonymized,Serial_Dependence_U,2023.2.3,Win32,60.60606060606061,,,,,,2882.9463999999984,336.0,6.0,2882.946600000001,336.0,,,,2886.3343999999984,2886.8335,2885.82,2886.334299999997,2883.954799999997,2885.8196999999955,2886.8335,2887.333100000001,2887.3331999999955,2889.598,1795.0,2889.598100000001,5.0,2889.6156999999957,6.0,12.0,192.0,0.0,1.0,0.8,0.3,Time
,,S65,1,女,20,anonymized,Serial_Dependence_U,2023.2.3,Win32,60.60606060606061,,,,,,2889.6161999999954,263.0,6.0,2889.616399999998,263.0,,,,2893.395399999998,2893.893399999998,2892.879799999997,2893.3951999999954,2890.631699999996,2892.879600000001,2893.8935,2894.3923999999984,2894.3925,2897.5565,2631.0,2897.5566000000013,5.0,2897.566799999997,6.0,13.0,193.0,17.0,1.0,1.2,0.7,Time
,,S65,1,女,20,anonymized,Serial_Dependence_U,2023.2.3,Win32,60.60606060606061,,,,,,2897.567100000001,87.0,6.0,2897.5671999999954,87.0,,,,2901.152899999998,2901.6521999999954,2900.6372999999967,2901.1527999999967,2898.574,2900.6371000000013,2901.652399999998,2902.152399999998,2902.1525,2904.634399999998,1933.0,2904.6345,5.0,2904.657199999995,6.0,14.0,194.0,11.0,1.0,1.0,0.3,Time
,,S65,1,女,20,anonymized,Serial_Dependence_U,2023.2.3,Win32,60.60606060606061,,,,,,2904.6577999999968,229.0,6.0,2904.658,229.0,,,,2908.2456999999954,2908.7445,2907.73,2908.245600000001,2905.665899999998,2907.729799999997,2908.7445,2909.244399999998,2909.2446000000014,2910.8937999999966,1201.0,2910.8937999999966,4.0,2910.9091999999955,6.0,15.0,195.0,21.0,1.0,1.0,0.3,Time
,,S65,1,女,20,anonymized,Serial_Dependence_U,2023.2.3,Win32,60.60606060606061,,,,,,2910.9095,298.0,6.0,2910.9096000000013,298.0,,,,2914.473199999996,2914.9722999999967,2913.9582999999966,2914.473100000001,2911.910299999997,2913.9581999999955,2914.9722999999967,2915.471100000001,2915.4711999999954,2917.4546000000014,1532.0,2917.4546999999952,5.0,2917.4728999999984,6.0,16.0,196.0,26.0,1.0,1.0,0.7,Time
,,S65,1,女,20,anonymized,Serial_Dependence_U,2023.2.3,Win32,60.60606060606061,,,,,,2917.4733999999985,208.0,6.0,2917.473799999997,208.0,,,,2921.6495,2922.1485,2921.134899999998,2921.6493999999984,2918.4709999999995,2921.1347999999966,2922.1486000000014,2922.648199999995,2922.648199999995,2924.48,1380.0,2924.4801999999954,2.0,2924.4901000000013,6.0,17.0,197.0,24.0,1.0,1.6,0.3,Time
,,S65,1,女,20,anonymized,Serial_Dependence_U,2023.2.3,Win32,60.60606060606061,,,,,,2924.4903999999983,151.0,6.0,2924.4905,151.0,,,,2928.6591999999955,2929.158299999997,2928.145100000001,2928.6591999999955,2925.4807999999966,2928.145,2929.1583999999984,2929.6577999999968,2929.6578999999983,2931.7726999999954,1698.0,2931.772799999997,4.0,2931.7822999999967,6.0,18.0,198.0,14.0,1.0,1.6,0.3,Time
,,S65,1,女,20,anonymized,Serial_Dependence_U,2023.2.3,Win32,60.60606060606061,,,,,,2931.7826000000014,357.0,6.0,2931.782699999995,357.0,,,,2935.153,2935.6518999999985,2934.638199999996,2935.152899999998,2932.773399999998,2934.638100000001,2935.6518999999985,2936.1515,2936.1515,2938.5832999999966,1945.0,2938.583399999998,5.0,2938.5991000000013,6.0,19.0,199.0,10.0,1.0,0.8,0.3,Time
,,S65,1,女,20,anonymized,Serial_Dependence_U,2023.2.3,Win32,60.60606060606061,,,,,,2938.599699999995,195.0,6.0,2938.599799999997,195.0,,,,2942.1873999999984,2942.6783999999984,2941.671299999997,2942.1873999999984,2939.6066999999957,2941.671199999995,2942.6783999999984,2943.1778999999983,2943.1778999999983,2945.5192999999967,1915.0,2945.5193999999983,5.0,2945.5285,6.0,20.0,200.0,1.0,1.0,1.0,0.3,Time
,,S65,1,女,20,anonymized,Serial_Dependence_U,2023.2.3,Win32,60.60606060606061,,,,,,2945.5288999999984,298.0,6.0,2945.529,298.0,,,,2949.6992999999966,2950.1871999999958,2949.183,2949.699100000001,2946.533799999997,2949.1826999999957,2950.187299999997,2950.687100000001,2950.687100000001,2954.1956000000014,2915.0,2954.1956000000014,5.0,2954.21,6.0,21.0,201.0,29.0,1.0,1.6,0.7,Time
,,S65,1,女,20,anonymized,Serial_Dependence_U,2023.2.3,Win32,60.60606060606061,,,,,,2954.2105,190.0,6.0,2954.2106000000013,190.0,,,,2957.5821999999957,2958.079799999997,2957.0648999999985,2957.582100000001,2955.2166999999954,2957.064799999997,2958.0798999999984,2958.5793999999983,2958.5795,2961.310799999997,2165.0,2961.310799999997,5.0,2961.3195,6.0,22.0,202.0,5.0,1.0,0.8,0.7,Time
,,S65,1,女,20,anonymized,Serial_Dependence_U,2023.2.3,Win32,60.60606060606061,,,,,,2961.3197999999966,239.0,6.0,2961.319899999998,239.0,,,,2965.265600000001,2965.7556000000013,2964.759399999998,2965.2653999999984,2962.326299999997,2964.7591999999954,2965.755699999995,2966.2552999999966,2966.2555,2968.6,1731.0,2968.6001999999958,4.0,2968.626,6.0,23.0,203.0,8.0,1.0,1.4,0.7,Time
,,S65,1,女,20,anonymized,Serial_Dependence_U,2023.2.3,Win32,60.60606060606061,,,,,,2968.6266999999957,139.0,6.0,2968.627100000001,139.0,,,,2972.6075,2973.098199999996,2972.092,2972.6073999999985,2969.6273999999985,2972.091899999998,2973.098199999996,2973.598100000001,2973.598100000001,2976.1913999999983,2098.0,2976.191600000001,5.0,2976.2172999999966,6.0,24.0,204.0,3.0,1.0,1.4,0.3,Time
,,S65,1,女,20,anonymized,Serial_Dependence_U,2023.2.3,Win32,60.60606060606061,,,,,,2976.2181000000014,340.0,6.0,2976.218299999997,340.0,,,,2980.384899999998,2980.874199999995,2979.8691000000013,2980.3846999999955,2977.221899999998,2979.868899999998,2980.8742999999968,2981.3737999999967,2981.3737999999967,2984.6848999999984,2764.0,2984.685,5.0,2984.7118999999984,6.0,25.0,205.0,19.0,1.0,1.6,0.7,Time
,,S65,1,女,20,anonymized,Serial_Dependence_U,2023.2.3,Win32,60.60606060606061,,,,,,2984.712399999998,95.0,6.0,2984.7126999999955,95.0,,,,2988.2756000000013,2988.7665,2987.761299999997,2988.2755,2985.7135,2987.761199999996,2988.766699999995,2989.266100000001,2989.266100000001,2992.5316999999955,2786.0,2992.531899999998,5.0,2992.5483999999983,6.0,26.0,206.0,6.0,1.0,1.0,0.7,Time
,,S65,1,女,20,anonymized,Serial_Dependence_U,2023.2.3,Win32,60.60606060606061,,,,,,2992.548799999997,166.0,6.0,2992.549100000001,166.0,,,,2996.5261000000014,2997.0246999999954,2996.0201999999954,2996.5258999999983,2993.5546000000013,2996.02,2997.024799999997,2997.524899999998,2997.524899999998,2999.973,1898.0,2999.973100000001,5.0,2999.989399999998,6.0,27.0,207.0,13.0,1.0,1.4,0.3,Time
,,S65,1,女,20,anonymized,Serial_Dependence_U,2023.2.3,Win32,60.60606060606061,,,,,,2999.9905,102.0,6.0,2999.9906999999957,102.0,,,,3003.355100000001,3003.8521999999957,3002.8376999999955,3003.355,3000.9906999999957,3002.8375,3003.8521999999957,3004.3515,3004.3516000000013,3006.982600000001,2110.0,3006.9826999999955,5.0,3006.992199999995,6.0,28.0,208.0,25.0,1.0,0.8,0.7,Time
,,S65,1,女,20,anonymized,Serial_Dependence_U,2023.2.3,Win32,60.60606060606061,,,,,,3006.9923999999983,262.0,6.0,3006.9926000000014,262.0,,,,3010.763600000001,3011.2613999999985,3010.246399999998,3010.7635,3007.998299999997,3010.2462999999966,3011.2613999999985,3011.7608999999984,3011.761,3014.7932999999966,2552.0,3014.793399999998,5.0,3014.8106999999954,6.0,29.0,209.0,27.0,1.0,1.2,0.7,Time
,,S65,1,女,20,anonymized,Serial_Dependence_U,2023.2.3,Win32,60.60606060606061,,,,,,3014.8112999999967,275.0,7.0,3051.829799999997,275.0,s,36.97440000000597,,3055.602799999997,3056.100600000001,3055.085699999995,3055.602600000001,3052.837899999998,3055.0856000000013,3056.1006999999954,3056.600299999997,3056.6003999999984,3059.215699999995,2116.0,3059.2157999999968,5.0,3059.2345,7.0,0.0,210.0,7.0,1.0,1.2,0.7,Time
,,S65,1,女,20,anonymized,Serial_Dependence_U,2023.2.3,Win32,60.60606060606061,,,,,,3059.234899999998,267.0,7.0,3059.236299999997,267.0,,,,3063.2287999999967,3063.726399999998,3062.712399999998,3063.2286000000013,3060.248299999997,3062.7121999999954,3063.7265,3064.226100000001,3064.226100000001,3066.207600000001,1546.0,3066.2076999999954,4.0,3066.217100000001,7.0,1.0,211.0,13.0,1.0,1.4,0.3,Time
,,S65,1,女,20,anonymized,Serial_Dependence_U,2023.2.3,Win32,60.60606060606061,,,,,,3066.217399999998,334.0,7.0,3066.2175,334.0,,,,3070.004,3070.5031000000013,3069.489699999995,3070.0038999999983,3067.224799999997,3069.4895,3070.503199999995,3071.002600000001,3071.0026999999955,3072.6185,1114.0,3072.618600000001,2.0,3072.636299999997,7.0,2.0,212.0,22.0,1.0,1.2,0.3,Time
,,S65,1,女,20,anonymized,Serial_Dependence_U,2023.2.3,Win32,60.60606060606061,,,,,,3072.636899999998,319.0,7.0,3072.6373999999983,319.0,,,,3076.797299999997,3077.296600000001,3076.2825,3076.7971999999954,3073.635600000001,3076.2822999999967,3077.296600000001,3077.7961000000014,3077.796199999995,3080.479299999997,2252.0,3080.4795,5.0,3080.4967999999967,7.0,3.0,213.0,19.0,1.0,1.6,0.7,Time
,,S65,1,女,20,anonymized,Serial_Dependence_U,2023.2.3,Win32,60.60606060606061,,,,,,3080.497699999996,354.0,7.0,3080.4978999999985,354.0,,,,3084.658,3085.1555,3084.157,3084.6577999999968,3081.511,3084.156799999997,3085.1555,3085.654299999997,3085.654399999998,3087.753199999995,1637.0,3087.753199999995,3.0,3087.762,7.0,4.0,214.0,9.0,1.0,1.6,0.7,Time
,,S65,1,女,20,anonymized,Serial_Dependence_U,2023.2.3,Win32,60.60606060606061,,,,,,3087.762199999995,235.0,7.0,3087.7622999999967,235.0,,,,3091.350799999997,3091.8491000000013,3090.834799999997,3091.350600000001,3088.770600000001,3090.834699999996,3091.849199999995,3092.3483999999985,3092.3485,3094.2471999999952,1429.0,3094.2471999999952,5.0,3094.265,7.0,5.0,215.0,1.0,1.0,1.0,0.3,Time
,,S65,1,女,20,anonymized,Serial_Dependence_U,2023.2.3,Win32,60.60606060606061,,,,,,3094.2653999999984,251.0,7.0,3094.265600000001,251.0,,,,3097.6617999999967,3098.1596000000013,3097.144600000001,3097.6616000000013,3095.2805,3097.1445,3098.159699999995,3098.659,3098.659100000001,3100.240799999997,1212.0,3100.2408999999984,5.0,3100.2495,7.0,6.0,216.0,20.0,1.0,0.8,0.3,Time
,,S65,1,女,20,anonymized,Serial_Dependence_U,2023.2.3,Win32,60.60606060606061,,,,,,3100.249799999997,202.0,7.0,3100.2498999999984,202.0,,,,3104.2203999999983,3104.7196000000013,3103.7056999999954,3104.2202999999968,3101.2415,3103.7055,3104.7196000000013,3105.218699999996,3105.218799999997,3107.5171000000014,1829.0,3107.5171999999952,5.0,3107.525699999995,7.0,7.0,217.0,3.0,1.0,1.4,0.3,Time
,,S65,1,女,20,anonymized,Serial_Dependence_U,2023.2.3,Win32,60.60606060606061,,,,,,3107.5261000000014,285.0,7.0,3107.5261000000014,285.0,,,,3111.0971000000013,3111.5961999999954,3110.5831999999955,3111.097,3108.534699999995,3110.583,3111.596299999997,3112.095799999997,3112.0958999999984,3114.462600000001,1916.0,3114.4627999999966,5.0,3114.488600000001,7.0,8.0,218.0,26.0,1.0,1.0,0.7,Time
,,S65,1,女,20,anonymized,Serial_Dependence_U,2023.2.3,Win32,60.60606060606061,,,,,,3114.489,166.0,7.0,3114.489100000001,166.0,,,,3117.8736000000013,3118.372600000001,3117.359,3117.8735,3115.511,3117.3588999999984,3118.372600000001,3118.872,3118.8721999999952,3121.670100000001,2231.0,3121.670100000001,5.0,3121.678899999998,7.0,9.0,219.0,25.0,1.0,0.8,0.7,Time
,,S65,1,女,20,anonymized,Serial_Dependence_U,2023.2.3,Win32,60.60606060606061,,,,,,3121.6791999999955,13.0,7.0,3121.6791999999955,13.0,,,,3125.6506000000013,3126.1486000000014,3125.1355,3125.6505,3122.670399999998,3125.135199999995,3126.1486000000014,3126.6476999999954,3126.647899999998,3128.8465,1966.0,3128.8465,5.0,3128.8631999999952,7.0,10.0,220.0,23.0,1.0,1.4,0.3,Time
,,S65,1,女,20,anonymized,Serial_Dependence_U,2023.2.3,Win32,60.60606060606061,,,,,,3128.863600000001,151.0,7.0,3128.863799999997,151.0,,,,3132.251799999997,3132.741299999997,3131.735,3132.2516999999957,3129.8721999999952,3131.734899999998,3132.7415,3133.241600000001,3133.241600000001,3134.6011999999955,882.0,3134.601399999998,4.0,3134.618100000001,7.0,11.0,221.0,0.0,1.0,0.8,0.3,Time
,,S65,1,女,20,anonymized,Serial_Dependence_U,2023.2.3,Win32,60.60606060606061,,,,,,3134.6183999999985,18.0,7.0,3134.6185,18.0,,,,3138.421299999997,3138.919100000001,3137.904100000001,3138.4211000000014,3135.640799999997,3137.9038999999984,3138.919100000001,3139.418100000001,3139.418100000001,3141.0016000000014,1229.0,3141.0016999999957,3.0,3141.0192999999967,7.0,12.0,222.0,12.0,1.0,1.2,0.3,Time
,,S65,1,女,20,anonymized,Serial_Dependence_U,2023.2.3,Win32,60.60606060606061,,,,,,3141.019799999997,257.0,7.0,3141.0201999999954,257.0,,,,3144.3912999999966,3144.879600000001,3143.8743999999983,3144.391100000001,3142.026799999997,3143.8742999999968,3144.879600000001,3145.379600000001,3145.379600000001,3147.8943999999983,2112.0,3147.8945,5.0,3147.9033999999983,7.0,13.0,223.0,5.0,1.0,0.8,0.7,Time
,,S65,1,女,20,anonymized,Serial_Dependence_U,2023.2.3,Win32,60.60606060606061,,,,,,3147.903600000001,318.0,7.0,3147.903799999997,318.0,,,,3152.075,3152.572699999995,3151.559,3152.0748999999983,3148.895100000001,3151.5587999999966,3152.572699999995,3153.0721999999955,3153.0722999999966,3154.3377999999966,777.0,3154.3377999999966,1.0,3154.347199999995,7.0,14.0,224.0,14.0,1.0,1.6,0.3,Time
,,S65,1,女,20,anonymized,Serial_Dependence_U,2023.2.3,Win32,60.60606060606061,,,,,,3154.3473999999983,305.0,7.0,3154.3476000000014,305.0,,,,3158.5341999999955,3159.033100000001,3158.018299999997,3158.534100000001,3155.3548999999985,3158.018100000001,3159.033100000001,3159.5326000000014,3159.532699999995,3161.300799999997,1352.0,3161.300799999997,2.0,3161.3211999999958,7.0,15.0,225.0,4.0,1.0,1.6,0.3,Time
,,S65,1,女,20,anonymized,Serial_Dependence_U,2023.2.3,Win32,60.60606060606061,,,,,,3161.3215,158.0,7.0,3161.321600000001,158.0,,,,3165.296199999995,3165.7931999999955,3164.779899999998,3165.2958999999983,3162.331100000001,3164.7797999999966,3165.793399999998,3166.292600000001,3166.292799999997,3169.1397999999967,2381.0,3169.1398999999983,5.0,3169.1501999999955,7.0,16.0,226.0,18.0,1.0,1.4,0.7,Time
,,S65,1,女,20,anonymized,Serial_Dependence_U,2023.2.3,Win32,60.60606060606061,,,,,,3169.1506000000013,155.0,7.0,3169.150699999995,155.0,,,,3172.9047999999966,3173.401799999997,3172.403600000001,3172.9046999999955,3170.1566999999955,3172.4035,3173.401799999997,3173.9018999999985,3173.902,3176.2327999999966,1729.0,3176.233,5.0,3176.242199999995,7.0,17.0,227.0,27.0,1.0,1.2,0.7,Time
,,S65,1,女,20,anonymized,Serial_Dependence_U,2023.2.3,Win32,60.60606060606061,,,,,,3176.2423999999983,135.0,7.0,3176.2425,135.0,,,,3179.614699999995,3180.1122999999966,3179.098,3179.6145,3177.25,3179.097799999997,3180.112399999998,3180.611799999997,3180.611799999997,3182.344,1165.0,3182.344100000001,5.0,3182.360699999995,7.0,18.0,228.0,15.0,1.0,0.8,0.7,Time
,,S65,1,女,20,anonymized,Serial_Dependence_U,2023.2.3,Win32,60.60606060606061,,,,,,3182.3611999999957,7.0,7.0,3182.3613999999984,7.0,,,,3186.5411000000013,3187.038899999998,3186.024100000001,3186.540899999998,3183.3765,3186.024,3187.039,3187.538399999998,3187.5385,3190.620899999998,2662.0,3190.621100000001,5.0,3190.6421000000014,7.0,19.0,229.0,29.0,1.0,1.6,0.7,Time
,,S65,1,女,20,anonymized,Serial_Dependence_U,2023.2.3,Win32,60.60606060606061,,,,,,3190.6425,212.0,7.0,3190.642699999996,212.0,,,,3194.6166999999955,3195.1141999999954,3194.0996000000014,3194.6165,3191.653,3194.0993999999982,3195.1141999999954,3195.6138999999985,3195.614,3197.9463999999984,1935.0,3197.9465,5.0,3197.971100000001,7.0,20.0,230.0,8.0,1.0,1.4,0.7,Time
,,S65,1,女,20,anonymized,Serial_Dependence_U,2023.2.3,Win32,60.60606060606061,,,,,,3197.9717999999966,96.0,7.0,3197.972199999995,96.0,,,,3201.526299999997,3202.0238999999983,3201.008799999997,3201.5261000000014,3198.962100000001,3201.008799999997,3202.0238999999983,3202.523399999998,3202.5235,3204.788299999997,1765.0,3204.788399999998,5.0,3204.797399999998,7.0,21.0,231.0,6.0,1.0,1.0,0.7,Time
,,S65,1,女,20,anonymized,Serial_Dependence_U,2023.2.3,Win32,60.60606060606061,,,,,,3204.797600000001,23.0,7.0,3204.7976999999955,23.0,,,,3208.967399999998,3209.4665,3208.4535,3208.9672999999966,3205.7887999999966,3208.4531999999954,3209.4665,3209.966100000001,3209.9661999999958,3211.6216000000013,1272.0,3211.621699999995,2.0,3211.6385,7.0,22.0,232.0,24.0,1.0,1.6,0.3,Time
,,S65,1,女,20,anonymized,Serial_Dependence_U,2023.2.3,Win32,60.60606060606061,,,,,,3211.638899999998,206.0,7.0,3211.6391999999955,206.0,,,,3215.205299999997,3215.6938999999984,3214.6875,3215.205100000001,3212.639100000001,3214.6873999999984,3215.6938999999984,3216.1933999999983,3216.1935,3219.007100000001,2118.0,3219.0072999999966,5.0,3219.0361999999955,7.0,23.0,233.0,16.0,1.0,1.0,0.7,Time
,,S65,1,女,20,anonymized,Serial_Dependence_U,2023.2.3,Win32,60.60606060606061,,,,,,3219.0371000000014,239.0,7.0,3219.037299999997,239.0,,,,3222.4388999999983,3222.9366000000014,3221.9218999999985,3222.4387999999967,3220.0573999999983,3221.921799999997,3222.9366000000014,3223.436,3223.4361000000013,3224.802,963.0,3224.802,4.0,3224.8106999999954,7.0,24.0,234.0,10.0,1.0,0.8,0.3,Time
,,S65,1,女,20,anonymized,Serial_Dependence_U,2023.2.3,Win32,60.60606060606061,,,,,,3224.811,64.0,7.0,3224.8111000000013,64.0,,,,3228.381799999997,3228.8808999999983,3227.866399999998,3228.381799999997,3225.8027999999968,3227.8661999999954,3228.8808999999983,3229.3796999999954,3229.3796999999954,3230.979699999996,1231.0,3230.979799999997,4.0,3230.9955,7.0,25.0,235.0,21.0,1.0,1.0,0.3,Time
,,S65,1,女,20,anonymized,Serial_Dependence_U,2023.2.3,Win32,60.60606060606061,,,,,,3230.996,36.0,7.0,3230.996100000001,36.0,,,,3234.7601000000013,3235.2578999999982,3234.2433999999985,3234.759899999998,3231.996399999998,3234.243299999997,3235.258,3235.757399999998,3235.7575,3238.4277999999968,2156.0,3238.428,5.0,3238.4515,7.0,26.0,236.0,17.0,1.0,1.2,0.7,Time
,,S65,1,女,20,anonymized,Serial_Dependence_U,2023.2.3,Win32,60.60606060606061,,,,,,3238.4517999999966,88.0,7.0,3238.452,88.0,,,,3242.22,3242.7172999999966,3241.719,3242.2197999999967,3239.455600000001,3241.718799999997,3242.717399999998,3243.2165,3243.216600000001,3244.7005,1035.0,3244.700600000001,2.0,3244.7222999999967,7.0,27.0,237.0,2.0,1.0,1.2,0.3,Time
,,S65,1,女,20,anonymized,Serial_Dependence_U,2023.2.3,Win32,60.60606060606061,,,,,,3244.7226999999957,266.0,7.0,3244.7228999999984,266.0,,,,3248.6866000000014,3249.1776000000013,3248.1727999999966,3248.6865,3245.7246000000014,3248.172600000001,3249.1776000000013,3249.677199999995,3249.6772999999966,3252.670100000001,2563.0,3252.6702999999966,5.0,3252.6893999999984,7.0,28.0,238.0,28.0,1.0,1.4,0.7,Time
,,S65,1,女,20,anonymized,Serial_Dependence_U,2023.2.3,Win32,60.60606060606061,,,,,,3252.69,281.0,7.0,3252.690399999998,281.0,,,,3256.281199999996,3256.770100000001,3255.765600000001,3256.281,3253.700199999995,3255.7655,3256.770100000001,3257.2696999999957,3257.269799999997,3259.561,1797.0,3259.5611000000013,5.0,3259.5766999999955,7.0,29.0,239.0,11.0,1.0,1.0,0.3,Time
,,S65,1,女,20,anonymized,Serial_Dependence_U,2023.2.3,Win32,60.60606060606061,,,,,,3259.577199999995,193.0,8.0,3305.896199999995,193.0,s,46.27760000000171,,3309.245799999997,3309.7346999999954,3308.7282999999966,3309.245600000001,3306.8963999999983,3308.7281999999955,3309.734799999997,3310.234299999997,3310.2343999999985,3312.434799999997,1699.0,3312.435,5.0,3312.452,8.0,0.0,240.0,25.0,1.0,0.8,0.7,Time
,,S65,1,女,20,anonymized,Serial_Dependence_U,2023.2.3,Win32,60.60606060606061,,,,,,3312.452600000001,75.0,8.0,3312.4543999999983,75.0,,,,3316.0148999999983,3316.5116999999955,3315.513600000001,3316.014699999995,3313.4505,3315.5133999999985,3316.5117999999966,3317.0115,3317.011600000001,3319.0452999999966,1599.0,3319.045399999998,5.0,3319.069100000001,8.0,1.0,241.0,1.0,1.0,1.0,0.3,Time
,,S65,1,女,20,anonymized,Serial_Dependence_U,2023.2.3,Win32,60.60606060606061,,,,,,3319.0695,135.0,8.0,3319.069600000001,135.0,,,,3322.6246999999958,3323.1212999999966,3322.1231999999954,3322.624600000001,3320.060299999997,3322.123100000001,3323.1212999999966,3323.6211999999955,3323.6212999999966,3325.6701999999955,1646.0,3325.6702999999966,5.0,3325.688699999995,8.0,2.0,242.0,21.0,1.0,1.0,0.3,Time
,,S65,1,女,20,anonymized,Serial_Dependence_U,2023.2.3,Win32,60.60606060606061,,,,,,3325.6891000000014,252.0,8.0,3325.689299999997,252.0,,,,3329.4678999999983,3329.965699999995,3328.960299999997,3329.467699999995,3326.6935,3328.960100000001,3329.9658999999983,3330.464799999997,3330.464899999998,3332.396799999997,1516.0,3332.3968999999984,4.0,3332.4142999999967,8.0,3.0,243.0,22.0,1.0,1.2,0.3,Time
,,S65,1,女,20,anonymized,Serial_Dependence_U,2023.2.3,Win32,60.60606060606061,,,,,,3332.4148999999984,59.0,8.0,3332.415199999996,59.0,,,,3336.577600000001,3337.075,3336.076299999997,3336.5772999999967,3333.429100000001,3336.0761999999954,3337.0751000000014,3337.5745,3337.5746000000013,3340.6055,2513.0,3340.6055,5.0,3340.6216000000013,8.0,4.0,244.0,19.0,1.0,1.6,0.7,Time
,,S65,1,女,20,anonymized,Serial_Dependence_U,2023.2.3,Win32,60.60606060606061,,,,,,3340.6221000000014,104.0,8.0,3340.6221999999952,104.0,,,,3344.604299999997,3345.100299999997,3344.102100000001,3344.6038999999982,3341.6385,3344.102,3345.1003999999984,3345.6,3345.600100000001,3347.699100000001,1537.0,3347.6992999999966,4.0,3347.718699999996,8.0,5.0,245.0,3.0,1.0,1.4,0.3,Time
,,S65,1,女,20,anonymized,Serial_Dependence_U,2023.2.3,Win32,60.60606060606061,,,,,,3347.7191999999955,49.0,8.0,3347.719399999998,49.0,,,,3351.312799999997,3351.8105,3350.7956000000013,3351.312600000001,3348.731799999997,3350.7955,3351.810600000001,3352.310299999997,3352.3105,3354.659,1930.0,3354.6591999999955,5.0,3354.679399999998,8.0,6.0,246.0,11.0,1.0,1.0,0.3,Time
,,S65,1,女,20,anonymized,Serial_Dependence_U,2023.2.3,Win32,60.60606060606061,,,,,,3354.6798999999983,66.0,8.0,3354.6801999999952,66.0,,,,3358.472199999995,3358.970199999995,3357.956399999998,3358.472,3355.6915,3357.9562999999966,3358.9702999999968,3359.4696000000013,3359.469699999995,3361.171699999996,1054.0,3361.1718999999985,2.0,3361.19,8.0,7.0,247.0,2.0,1.0,1.2,0.3,Time
,,S65,1,女,20,anonymized,Serial_Dependence_U,2023.2.3,Win32,60.60606060606061,,,,,,3361.1905,288.0,8.0,3361.1906000000013,288.0,,,,3364.5506999999952,3365.047600000001,3364.0334999999995,3364.5505,3362.1862999999967,3364.033299999997,3365.047600000001,3365.547,3365.5471999999954,3367.363799999997,1384.0,3367.364,5.0,3367.388799999997,8.0,8.0,248.0,5.0,1.0,0.8,0.7,Time
,,S65,1,女,20,anonymized,Serial_Dependence_U,2023.2.3,Win32,60.60606060606061,,,,,,3367.3892999999966,200.0,8.0,3367.389399999998,200.0,,,,3370.7588999999984,3371.2576000000013,3370.2442999999967,3370.758799999997,3368.379,3370.244199999995,3371.2576000000013,3371.7572999999966,3371.757399999998,3373.1911000000014,900.0,3373.191199999995,4.0,3373.212600000001,8.0,9.0,249.0,20.0,1.0,0.8,0.3,Time
,,S65,1,女,20,anonymized,Serial_Dependence_U,2023.2.3,Win32,60.60606060606061,,,,,,3373.213,163.0,8.0,3373.2131000000013,163.0,,,,3376.971600000001,3377.4685,3376.4545,3376.9715,3374.215699999995,3376.4542999999967,3377.468600000001,3377.968299999997,3377.9683999999984,3381.05,2661.0,3381.05,5.0,3381.070699999995,8.0,10.0,250.0,7.0,1.0,1.2,0.7,Time
,,S65,1,女,20,anonymized,Serial_Dependence_U,2023.2.3,Win32,60.60606060606061,,,,,,3381.071100000001,160.0,8.0,3381.0711999999958,160.0,,,,3384.4471999999955,3384.944,3383.946,3384.447100000001,3382.082299999997,3383.9458999999983,3384.944,3385.444199999996,3385.444299999997,3386.710399999998,793.0,3386.7105,3.0,3386.729600000001,8.0,11.0,251.0,10.0,1.0,0.8,0.3,Time
,,S65,1,女,20,anonymized,Serial_Dependence_U,2023.2.3,Win32,60.60606060606061,,,,,,3386.7301999999954,205.0,8.0,3386.730600000001,205.0,,,,3390.691,3391.1886000000013,3390.1746999999955,3390.6907999999967,3387.727699999996,3390.1745,3391.1886000000013,3391.6871999999958,3391.6873999999984,3393.7046000000014,1532.0,3393.704799999997,4.0,3393.7306999999955,8.0,12.0,252.0,8.0,1.0,1.4,0.7,Time
,,S65,1,女,20,anonymized,Serial_Dependence_U,2023.2.3,Win32,60.60606060606061,,,,,,3393.731199999995,62.0,8.0,3393.7312999999967,62.0,,,,3397.1176999999952,3397.615199999995,3396.600299999997,3397.1175,3394.752299999997,3396.6001999999958,3397.6152999999968,3398.114699999995,3398.1147999999966,3399.980299999997,1469.0,3399.980399999998,5.0,3399.9948999999983,8.0,13.0,253.0,15.0,1.0,0.8,0.7,Time
,,S65,1,女,20,anonymized,Serial_Dependence_U,2023.2.3,Win32,60.60606060606061,,,,,,3399.995600000001,21.0,8.0,3399.995799999997,21.0,,,,3403.7693999999983,3404.258299999997,3403.2523999999985,3403.769199999995,3401.004299999997,3403.252299999997,3404.2583999999983,3404.758299999997,3404.7585,3407.0045,1718.0,3407.0046999999954,5.0,3407.025100000001,8.0,14.0,254.0,27.0,1.0,1.2,0.7,Time
,,S65,1,女,20,anonymized,Serial_Dependence_U,2023.2.3,Win32,60.60606060606061,,,,,,3407.025399999998,170.0,8.0,3407.0256000000013,170.0,,,,3410.5876999999955,3411.085,3410.070799999997,3410.5875,3408.0235,3410.070699999995,3411.085100000001,3411.584600000001,3411.584600000001,3413.6173999999983,1579.0,3413.6176000000014,5.0,3413.634600000001,8.0,15.0,255.0,6.0,1.0,1.0,0.7,Time
,,S65,1,女,20,anonymized,Serial_Dependence_U,2023.2.3,Win32,60.60606060606061,,,,,,3413.635199999995,160.0,8.0,3413.6355,160.0,,,,3417.806299999997,3418.2948999999985,3417.305,3417.806100000001,3414.6415,3417.3047999999967,3418.295,3418.794600000001,3418.794600000001,3419.9917999999966,767.0,3419.991899999998,1.0,3420.013799999997,8.0,16.0,256.0,14.0,1.0,1.6,0.3,Time
,,S65,1,女,20,anonymized,Serial_Dependence_U,2023.2.3,Win32,60.60606060606061,,,,,,3420.0141999999955,357.0,8.0,3420.0142999999966,357.0,,,,3424.191,3424.6881999999955,3423.674399999998,3424.190699999995,3421.010799999997,3423.674299999997,3424.6881999999955,3425.1876999999954,3425.187899999998,3426.5378999999984,914.0,3426.5378999999984,1.0,3426.555,8.0,17.0,257.0,24.0,1.0,1.6,0.3,Time
