Scale_setup.started,Scale_setup.stopped,participant,session,sex,age,date,expName,psychopyVersion,OS,frameRate,Intro.started,Intro.stopped,key_resp_2.keys,key_resp_2.rt,key_resp_2.duration,block.started,direction,Block_id,block.stopped,trial_direction,Block_resp_2.keys,Block_resp_2.rt,Block_resp_2.duration,ITI.started,ITI.stopped,Mask_2.started,Mask_2.stopped,encoding.started,encoding.stopped,Cue.started,Cue.stopped,Response.started,Response.stopped,keyDuration,Feedback_Time.started,FeedbackID_T,Feedback_Time.stopped,trials.thisRepN,trials.thisTrialN,trials.thisN,trials.thisIndex,trials.ran,TimeDur,Coherence1,TrialType
0.000200000001115,0.0004000000003685,S66,1,男,20,anonymized,Serial_Dependence_U,2023.2.3,Win32,144.92753623170066,,,,,,,,,,,,,,,,,,,,,,,,,,,,,,,,,,,
,,S66,1,男,20,anonymized,Serial_Dependence_U,2023.2.3,Win32,144.92753623170066,131.8416000000015,315.4398000000008,space,183.5701999999992,,,,,,,,,,,,,,,,,,,,,,,,,,,,,,,
,,S66,1,男,20,anonymized,Serial_Dependence_U,2023.2.3,Win32,144.92753623170066,,,,,,315.451,253.0,0.0,345.38410000000147,253.0,s,29.916499999999985,,349.15610000000146,349.65470000000107,348.6494000000004,349.15599999999995,346.3855,348.6493000000007,349.65490000000034,350.15470000000107,350.1548000000007,351.8078000000007,215.0,351.80799999999994,1.0,352.80749999999995,0.0,0.0,0.0,2.0,1.0,1.2,0.3,Time
,,S66,1,男,20,anonymized,Serial_Dependence_U,2023.2.3,Win32,144.92753623170066,,,,,,352.80799999999994,178.0,0.0,352.8088000000007,178.0,,,,356.94710000000146,357.4464000000003,356.4407000000011,356.94710000000146,353.8083000000007,356.4407000000011,357.4464000000003,357.9427000000011,357.9428000000007,362.0242000000011,1074.0,362.0243000000007,1.0,363.02270000000107,0.0,1.0,1.0,9.0,1.0,1.6,0.7,Time
,,S66,1,男,20,anonymized,Serial_Dependence_U,2023.2.3,Win32,144.92753623170066,,,,,,363.02290000000033,345.0,0.0,363.023,345.0,,,,366.9688000000007,367.467200000001,366.4616000000015,366.9685,364.02990000000034,366.4615,367.467200000001,367.96710000000144,367.967200000001,371.2382000000011,1086.0,371.2383000000007,2.0,372.239,0.0,2.0,2.0,18.0,1.0,1.4,0.7,Time
,,S66,1,男,20,anonymized,Serial_Dependence_U,2023.2.3,Win32,144.92753623170066,,,,,,372.23920000000106,342.0,0.0,372.2393000000007,342.0,,,,375.8094000000003,376.3075,375.30890000000034,375.8094000000003,373.2423000000007,375.30890000000034,376.3075,376.811,376.811,382.5645,1695.0,382.5647000000011,5.0,383.5644000000003,0.0,3.0,3.0,21.0,1.0,1.0,0.3,Time
,,S66,1,男,20,anonymized,Serial_Dependence_U,2023.2.3,Win32,144.92753623170066,,,,,,383.5646000000015,33.0,0.0,383.5647000000011,33.0,,,,387.1132000000011,387.6129000000003,386.6064000000004,387.1131000000015,384.5717000000011,386.6063000000007,387.6129000000003,388.1129000000003,388.1129000000003,389.9327000000011,984.0,389.9328000000007,3.0,390.9326000000015,0.0,4.0,4.0,6.0,1.0,1.0,0.7,Time
,,S66,1,男,20,anonymized,Serial_Dependence_U,2023.2.3,Win32,144.92753623170066,,,,,,390.9328000000007,89.0,0.0,390.9329000000004,89.0,,,,394.6758000000007,395.1755,394.1688000000007,394.6758000000007,391.93390000000034,394.1688000000007,395.1755,395.6755,395.6756000000015,398.0298000000007,1513.0,398.0298000000007,4.0,399.0307000000011,0.0,5.0,5.0,27.0,1.0,1.2,0.7,Time
,,S66,1,男,20,anonymized,Serial_Dependence_U,2023.2.3,Win32,144.92753623170066,,,,,,399.0309000000003,274.0,0.0,399.031,274.0,,,,402.4062000000011,402.90460000000144,401.8994000000004,402.4061000000015,400.038,401.8993000000007,402.90460000000144,403.40460000000144,403.404700000001,407.719,3514.0,407.719,5.0,408.7209000000003,0.0,6.0,6.0,20.0,1.0,0.8,0.3,Time
,,S66,1,男,20,anonymized,Serial_Dependence_U,2023.2.3,Win32,144.92753623170066,,,,,,408.7212000000011,161.0,0.0,408.7212000000011,161.0,,,,412.295,412.7936000000015,411.7903000000007,412.2949000000003,409.7254000000003,411.79020000000105,412.7936000000015,413.2935,413.2935,417.7468000000007,3582.0,417.7468000000007,5.0,418.7449000000003,0.0,7.0,7.0,11.0,1.0,1.0,0.3,Time
,,S66,1,男,20,anonymized,Serial_Dependence_U,2023.2.3,Win32,144.92753623170066,,,,,,418.7452000000011,193.0,0.0,418.7453000000007,193.0,,,,422.71740000000034,423.2181000000015,422.2117000000011,422.7173000000007,419.7459000000004,422.2117000000011,423.2181000000015,423.717200000001,423.717200000001,428.77740000000034,4072.0,428.77740000000034,5.0,429.77270000000107,0.0,8.0,8.0,13.0,1.0,1.4,0.3,Time
,,S66,1,男,20,anonymized,Serial_Dependence_U,2023.2.3,Win32,144.92753623170066,,,,,,429.77290000000033,284.0,0.0,429.773,284.0,,,,433.545,434.0436000000015,433.0382000000011,433.545,430.7743000000007,433.0381000000015,434.0436000000015,434.5387000000011,434.5387000000011,440.6773000000008,3125.0,440.6773000000008,5.0,441.6754000000003,0.0,9.0,9.0,12.0,1.0,1.2,0.3,Time
,,S66,1,男,20,anonymized,Serial_Dependence_U,2023.2.3,Win32,144.92753623170066,,,,,,441.675700000001,302.0,0.0,441.6758000000007,302.0,,,,445.83260000000143,446.32840000000033,445.3216000000015,445.83260000000143,442.6866000000015,445.3215,446.32840000000033,446.824700000001,446.824700000001,455.9675,8253.0,455.9675,5.0,456.9673000000007,0.0,10.0,10.0,19.0,1.0,1.6,0.7,Time
,,S66,1,男,20,anonymized,Serial_Dependence_U,2023.2.3,Win32,144.92753623170066,,,,,,456.9675,115.0,0.0,456.9676000000014,115.0,,,,460.9119000000003,461.41170000000113,460.4051000000014,460.9119000000003,457.96770000000106,460.4051000000014,461.41170000000113,461.91170000000113,461.91170000000113,464.127200000001,1526.0,464.1273000000007,4.0,465.1268000000007,0.0,11.0,11.0,8.0,1.0,1.4,0.7,Time
,,S66,1,男,20,anonymized,Serial_Dependence_U,2023.2.3,Win32,144.92753623170066,,,,,,465.1271000000014,198.0,0.0,465.127200000001,198.0,,,,468.4952000000011,468.995,467.9884000000003,468.4951000000015,466.1271000000014,467.9884000000003,468.995,469.4949000000004,469.4949000000004,471.8494000000003,1511.0,471.8494000000003,5.0,472.8491000000015,0.0,12.0,12.0,0.0,1.0,0.8,0.3,Time
,,S66,1,男,20,anonymized,Serial_Dependence_U,2023.2.3,Win32,144.92753623170066,,,,,,472.8493000000007,270.0,0.0,472.8494000000003,270.0,,,,476.9994000000004,477.495,476.497200000001,476.9994000000004,473.86030000000073,476.4971000000014,477.4951000000015,477.9949000000004,477.995,479.9132000000011,1444.0,479.9132000000011,2.0,480.91170000000113,0.0,13.0,13.0,29.0,1.0,1.6,0.7,Time
,,S66,1,男,20,anonymized,Serial_Dependence_U,2023.2.3,Win32,144.92753623170066,,,,,,480.9118000000007,234.0,0.0,480.9119999999999,234.0,,,,485.093700000001,485.592200000001,484.5867000000011,485.0936000000014,481.92,484.5867000000011,485.592200000001,486.0957000000011,486.0957000000011,489.5658000000007,2805.0,489.5659000000003,5.0,490.5644000000003,0.0,14.0,14.0,14.0,1.0,1.6,0.3,Time
,,S66,1,男,20,anonymized,Serial_Dependence_U,2023.2.3,Win32,144.92753623170066,,,,,,490.5646000000014,66.0,0.0,490.564700000001,66.0,,,,493.9088000000007,494.404700000001,493.3992000000011,493.9087000000011,491.5646000000014,493.3992000000011,494.404700000001,494.9011000000014,494.9011000000014,497.8439000000003,2562.0,497.8439000000003,5.0,498.8431000000014,0.0,15.0,15.0,5.0,1.0,0.8,0.7,Time
,,S66,1,男,20,anonymized,Serial_Dependence_U,2023.2.3,Win32,144.92753623170066,,,,,,498.8433000000007,235.0,0.0,498.8434000000003,235.0,,,,502.3814000000003,502.8768000000007,501.8789999999999,502.3814000000003,499.8456000000015,501.8788000000008,502.8768000000007,503.3737000000011,503.3737000000011,506.7533000000007,2979.0,506.7534000000003,5.0,507.752,0.0,16.0,16.0,16.0,1.0,1.0,0.7,Time
,,S66,1,男,20,anonymized,Serial_Dependence_U,2023.2.3,Win32,144.92753623170066,,,,,,507.752200000001,48.0,0.0,507.752200000001,48.0,,,,511.0925,511.59240000000034,510.5891000000014,511.09240000000034,508.752200000001,510.5891000000014,511.59240000000034,512.0931000000014,512.0931000000014,512.5174999999999,7.0,512.5174999999999,1.0,513.5158000000007,0.0,17.0,17.0,25.0,1.0,0.8,0.7,Time
,,S66,1,男,20,anonymized,Serial_Dependence_U,2023.2.3,Win32,144.92753623170066,,,,,,513.516,187.0,0.0,513.5161000000014,187.0,,,,517.295,517.7935,516.7882000000011,517.295,514.5229000000003,516.7882000000011,517.7935,518.2936000000014,518.2937000000011,521.9371000000015,2885.0,521.9371000000015,5.0,522.9325,0.0,18.0,18.0,22.0,1.0,1.2,0.3,Time
,,S66,1,男,20,anonymized,Serial_Dependence_U,2023.2.3,Win32,144.92753623170066,,,,,,522.9327000000011,257.0,0.0,522.9327000000011,257.0,,,,526.8674000000003,527.3631000000014,526.3644999999999,526.8674000000003,523.9332000000011,526.3644000000004,527.3631000000014,527.8631000000014,527.8631000000014,532.2744000000004,3791.0,532.2745,5.0,533.2727000000011,0.0,19.0,19.0,28.0,1.0,1.4,0.7,Time
,,S66,1,男,20,anonymized,Serial_Dependence_U,2023.2.3,Win32,144.92753623170066,,,,,,533.2729999999999,222.0,0.0,533.2731000000015,222.0,,,,537.0161000000014,537.5165,536.5104000000003,537.0161000000014,534.2742000000011,536.5104000000003,537.5166000000014,538.0124000000003,538.0124000000003,543.642200000001,4986.0,543.642200000001,5.0,544.6408000000007,0.0,20.0,20.0,17.0,1.0,1.2,0.7,Time
,,S66,1,男,20,anonymized,Serial_Dependence_U,2023.2.3,Win32,144.92753623170066,,,,,,544.641,192.0,0.0,544.641200000001,192.0,,,,548.6146000000015,549.1134999999999,548.1076000000014,548.6146000000015,545.6446000000014,548.1076000000014,549.1134999999999,549.6129000000003,549.6129000000003,559.7944000000003,3016.0,559.7944000000003,5.0,560.7937000000011,0.0,21.0,21.0,23.0,1.0,1.4,0.3,Time
,,S66,1,男,20,anonymized,Serial_Dependence_U,2023.2.3,Win32,144.92753623170066,,,,,,560.794,7.0,0.0,560.794,7.0,,,,564.766,565.2659000000003,564.2592000000011,564.766,561.794,564.2592000000011,565.2659000000003,565.766,565.766,570.9328000000007,4536.0,570.9328000000007,5.0,571.9325,0.0,22.0,22.0,3.0,1.0,1.4,0.3,Time
,,S66,1,男,20,anonymized,Serial_Dependence_U,2023.2.3,Win32,144.92753623170066,,,,,,571.9329000000004,269.0,0.0,571.9329000000004,269.0,,,,575.5092000000011,576.0091000000015,575.0023000000007,575.5091000000015,572.9398000000007,575.002200000001,576.0091000000015,576.5089000000004,576.5089000000004,581.2939000000003,3888.0,581.294,5.0,582.2937000000011,0.0,23.0,23.0,1.0,1.0,1.0,0.3,Time
,,S66,1,男,20,anonymized,Serial_Dependence_U,2023.2.3,Win32,144.92753623170066,,,,,,582.2939000000003,25.0,0.0,582.294,25.0,,,,585.6342000000011,586.1339000000004,585.1274000000003,585.6342000000011,583.2939000000003,585.127200000001,586.1339000000004,586.6339000000004,586.6339000000004,590.4954000000004,3097.0,590.4954000000004,5.0,591.4953000000007,0.0,24.0,24.0,15.0,1.0,0.8,0.7,Time
,,S66,1,男,20,anonymized,Serial_Dependence_U,2023.2.3,Win32,144.92753623170066,,,,,,591.4955,182.0,0.0,591.4956000000014,182.0,,,,594.8703000000007,595.37,594.3634000000003,594.8703000000007,592.5024999999999,594.3634000000003,595.37,595.8699000000004,595.87,599.5371000000015,2771.0,599.5371000000015,5.0,600.5367000000011,0.0,25.0,25.0,10.0,1.0,0.8,0.3,Time
,,S66,1,男,20,anonymized,Serial_Dependence_U,2023.2.3,Win32,144.92753623170066,,,,,,600.5369999999999,85.0,0.0,600.5369999999999,85.0,,,,604.0786000000014,604.5784000000003,603.5718000000007,604.0786000000014,601.5371000000015,603.5717000000011,604.5784000000003,605.0783000000007,605.0784000000003,609.7523000000007,3938.0,609.7523000000007,5.0,610.752,0.0,26.0,26.0,26.0,1.0,1.0,0.7,Time
,,S66,1,男,20,anonymized,Serial_Dependence_U,2023.2.3,Win32,144.92753623170066,,,,,,610.752200000001,40.0,0.0,610.7523000000007,40.0,,,,614.9259000000003,615.4256000000014,614.419,614.9259000000003,611.7523000000007,614.419,615.4256000000014,615.9256000000014,615.9256000000014,620.1759000000003,3625.0,620.1759000000003,5.0,621.1756000000014,0.0,27.0,27.0,4.0,1.0,1.6,0.3,Time
,,S66,1,男,20,anonymized,Serial_Dependence_U,2023.2.3,Win32,144.92753623170066,,,,,,621.1759000000003,238.0,0.0,621.1759000000003,238.0,,,,625.3494999999999,625.8491000000015,624.8426000000014,625.3494999999999,622.1759000000003,624.8426000000014,625.8491000000015,626.3493000000007,626.3493000000007,631.1481000000015,4224.0,631.1481000000015,5.0,632.1477000000011,0.0,28.0,28.0,24.0,1.0,1.6,0.3,Time
,,S66,1,男,20,anonymized,Serial_Dependence_U,2023.2.3,Win32,144.92753623170066,,,,,,632.1479000000003,266.0,0.0,632.1479999999999,266.0,,,,635.8982000000011,636.3978000000008,635.391200000001,635.8981000000015,633.1551000000014,635.391200000001,636.3978000000008,636.8978000000008,636.8978000000008,641.2384000000003,3951.0,641.2384000000003,5.0,642.238200000001,0.0,29.0,29.0,7.0,1.0,1.2,0.7,Time
,,S66,1,男,20,anonymized,Serial_Dependence_U,2023.2.3,Win32,144.92753623170066,,,,,,642.2383000000007,241.0,1.0,657.1406000000014,241.0,s,14.885200000001078,,660.6898000000007,661.1894000000003,660.1829000000004,660.6898000000007,658.1481000000015,660.1828000000007,661.1894000000003,661.6894000000003,661.6894000000003,666.877200000001,4312.0,666.8773000000007,5.0,666.8834999999999,1.0,0.0,30.0,26.0,1.0,1.0,0.7,Time
,,S66,1,男,20,anonymized,Serial_Dependence_U,2023.2.3,Win32,144.92753623170066,,,,,,666.8836000000015,90.0,1.0,666.8845,90.0,,,,670.8603000000007,671.3561000000014,670.3534999999999,670.8602000000011,667.8918000000007,670.3534999999999,671.3562000000011,671.8562000000011,671.8562000000011,676.7123000000007,3560.0,676.7123000000007,5.0,676.7184000000003,1.0,1.0,31.0,23.0,1.0,1.4,0.3,Time
,,S66,1,男,20,anonymized,Serial_Dependence_U,2023.2.3,Win32,144.92753623170066,,,,,,676.7185,110.0,1.0,676.718700000001,110.0,,,,680.2523000000007,680.7519000000003,679.7494000000004,680.252200000001,677.7175,679.7493000000007,680.7519000000003,681.2483000000007,681.2484000000003,685.766,3530.0,685.7661000000014,5.0,685.772200000001,1.0,2.0,32.0,6.0,1.0,1.0,0.7,Time
,,S66,1,男,20,anonymized,Serial_Dependence_U,2023.2.3,Win32,144.92753623170066,,,,,,685.7724000000003,112.0,1.0,685.7724999999999,112.0,,,,689.5444000000003,690.0437000000011,689.041200000001,689.5444000000003,686.7763000000007,689.0411000000015,690.0438000000007,690.5435,690.5436000000014,695.9285,3696.0,695.9286000000014,5.0,695.9348000000007,1.0,3.0,33.0,22.0,1.0,1.2,0.3,Time
,,S66,1,男,20,anonymized,Serial_Dependence_U,2023.2.3,Win32,144.92753623170066,,,,,,695.9351000000014,46.0,1.0,695.9351000000014,46.0,,,,699.3019000000004,699.8014000000003,698.7975,699.3019000000004,696.9339000000003,698.7974000000004,699.8014000000003,700.3006000000014,700.300700000001,703.6273000000007,2607.0,703.6273000000007,5.0,703.6334000000003,1.0,4.0,34.0,10.0,1.0,0.8,0.3,Time
,,S66,1,男,20,anonymized,Serial_Dependence_U,2023.2.3,Win32,144.92753623170066,,,,,,703.6336000000015,275.0,1.0,703.6337000000011,275.0,,,,707.7742000000011,708.2728000000008,707.2674000000003,707.7742000000011,704.6341000000015,707.2673000000007,708.2728000000008,708.7729000000003,708.7729000000003,714.198,4791.0,714.1981000000014,5.0,714.204200000001,1.0,5.0,35.0,9.0,1.0,1.6,0.7,Time
,,S66,1,男,20,anonymized,Serial_Dependence_U,2023.2.3,Win32,144.92753623170066,,,,,,714.2044000000003,228.0,1.0,714.2044000000003,228.0,,,,718.1452000000011,718.6409000000003,717.6424999999999,718.1452000000011,715.2117000000011,717.6424999999999,718.6409000000003,719.1373000000007,719.1374000000003,723.2607000000011,3479.0,723.2607000000011,5.0,723.2669999999999,1.0,6.0,36.0,18.0,1.0,1.4,0.7,Time
,,S66,1,男,20,anonymized,Serial_Dependence_U,2023.2.3,Win32,144.92753623170066,,,,,,723.267200000001,353.0,1.0,723.2673000000007,353.0,,,,726.8356000000015,727.3353000000008,726.3326000000014,726.8354999999999,724.2683000000007,726.3326000000014,727.3353000000008,727.8362000000011,727.8362000000011,731.5202000000011,2833.0,731.5203000000007,5.0,731.526700000001,1.0,7.0,37.0,21.0,1.0,1.0,0.3,Time
,,S66,1,男,20,anonymized,Serial_Dependence_U,2023.2.3,Win32,144.92753623170066,,,,,,731.5268000000007,73.0,1.0,731.5269000000003,73.0,,,,735.0938000000007,735.5922000000011,734.5869000000004,735.0938000000007,732.5243000000007,734.5869000000004,735.5922000000011,736.0923000000007,736.0923000000007,740.1149000000004,3491.0,740.115,5.0,740.1213000000007,1.0,8.0,38.0,1.0,1.0,1.0,0.3,Time
,,S66,1,男,20,anonymized,Serial_Dependence_U,2023.2.3,Win32,144.92753623170066,,,,,,740.1215,110.0,1.0,740.1216000000014,110.0,,,,744.0617000000011,744.5576000000015,743.5598000000007,744.0617000000011,741.1245,743.559700000001,744.5576000000015,745.0576000000015,745.0576000000015,750.03,4245.0,750.03,5.0,750.0363000000007,1.0,9.0,39.0,8.0,1.0,1.4,0.7,Time
,,S66,1,男,20,anonymized,Serial_Dependence_U,2023.2.3,Win32,144.92753623170066,,,,,,750.0364999999999,229.0,1.0,750.0366000000015,229.0,,,,754.2044999999999,754.7034000000003,753.6979000000003,754.2044000000003,751.0369999999999,753.6978000000007,754.7035,755.2034000000003,755.2035,759.8439999999999,4167.0,759.8441000000015,5.0,759.8503000000007,1.0,10.0,40.0,24.0,1.0,1.6,0.3,Time
,,S66,1,男,20,anonymized,Serial_Dependence_U,2023.2.3,Win32,144.92753623170066,,,,,,759.8504000000004,255.0,1.0,759.8506000000015,255.0,,,,763.5868000000007,764.0852000000011,763.0825,763.5868000000007,760.8517000000011,763.0825,764.0852000000011,764.5862000000011,764.5863000000007,768.0997000000011,2849.0,768.0997000000011,5.0,768.106,1.0,11.0,41.0,27.0,1.0,1.2,0.7,Time
,,S66,1,男,20,anonymized,Serial_Dependence_U,2023.2.3,Win32,144.92753623170066,,,,,,768.1063000000007,145.0,1.0,768.1066000000014,145.0,,,,772.078700000001,772.5785,771.5718000000007,772.0786000000014,769.1066000000014,771.5718000000007,772.5785,773.0783000000007,773.0784000000003,777.4328000000007,3785.0,777.4328000000007,5.0,777.439,1.0,12.0,42.0,13.0,1.0,1.4,0.3,Time
,,S66,1,男,20,anonymized,Serial_Dependence_U,2023.2.3,Win32,144.92753623170066,,,,,,777.439200000001,357.0,1.0,777.439200000001,357.0,,,,781.578700000001,782.0784000000003,781.0718000000007,781.578700000001,778.4399000000003,781.0717000000011,782.0784000000003,782.5783000000007,782.5784000000003,787.0023000000007,3856.0,787.0024000000003,5.0,787.0084000000003,1.0,13.0,43.0,19.0,1.0,1.6,0.7,Time
,,S66,1,男,20,anonymized,Serial_Dependence_U,2023.2.3,Win32,144.92753623170066,,,,,,787.0086000000015,83.0,1.0,787.0086000000015,83.0,,,,790.3496000000015,790.8492000000011,789.8426000000014,790.3496000000015,788.0092000000011,789.8425,790.8492000000011,791.3493000000007,791.3493000000007,794.2246000000015,2396.0,794.2246000000015,5.0,794.2307000000011,1.0,14.0,44.0,15.0,1.0,0.8,0.7,Time
,,S66,1,男,20,anonymized,Serial_Dependence_U,2023.2.3,Win32,144.92753623170066,,,,,,794.2309000000004,30.0,1.0,794.231,30.0,,,,797.5718000000007,798.0716000000015,797.0649999999999,797.5718000000007,795.2315,797.0649000000003,798.0716000000015,798.5714000000004,798.5714000000004,802.5371000000015,3596.0,802.5371000000015,5.0,802.5432000000011,1.0,15.0,45.0,5.0,1.0,0.8,0.7,Time
,,S66,1,男,20,anonymized,Serial_Dependence_U,2023.2.3,Win32,144.92753623170066,,,,,,802.5434000000004,352.0,1.0,802.5435,352.0,,,,806.7177000000011,807.2177000000011,806.2109000000004,806.7177000000011,803.544,806.2109000000004,807.2177000000011,807.7175,807.7175,811.4921000000014,3186.0,811.4921000000014,5.0,811.4986000000015,1.0,16.0,46.0,14.0,1.0,1.6,0.3,Time
,,S66,1,男,20,anonymized,Serial_Dependence_U,2023.2.3,Win32,144.92753623170066,,,,,,811.4988000000008,85.0,1.0,811.4989000000003,85.0,,,,815.2674999999999,815.7659000000003,814.7605,815.2674999999999,812.4964000000003,814.7604000000003,815.7659000000003,816.2626000000015,816.2627000000011,820.3439999999999,3685.0,820.3441000000015,5.0,820.3501000000015,1.0,17.0,47.0,2.0,1.0,1.2,0.3,Time
,,S66,1,男,20,anonymized,Serial_Dependence_U,2023.2.3,Win32,144.92753623170066,,,,,,820.3503000000007,216.0,1.0,820.3503000000007,216.0,,,,823.9144000000003,824.4117000000011,823.413,823.9143000000007,821.3526000000014,823.413,824.4117000000011,824.915,824.915,828.2538000000008,2833.0,828.2538000000008,5.0,828.2599000000004,1.0,18.0,48.0,11.0,1.0,1.0,0.3,Time
,,S66,1,男,20,anonymized,Serial_Dependence_U,2023.2.3,Win32,144.92753623170066,,,,,,828.2601000000014,164.0,1.0,828.2601000000014,164.0,,,,832.006,832.502,831.4996000000015,832.006,829.267200000001,831.4996000000015,832.502,833.0053000000007,833.0053000000007,837.5741000000014,3973.0,837.5743000000007,5.0,837.5804000000003,1.0,19.0,49.0,7.0,1.0,1.2,0.7,Time
,,S66,1,男,20,anonymized,Serial_Dependence_U,2023.2.3,Win32,144.92753623170066,,,,,,837.5804999999999,90.0,1.0,837.5807000000011,90.0,,,,841.5242000000011,842.0228000000008,841.0173000000007,841.5241000000015,838.5824000000003,841.0173000000007,842.0228000000008,842.5228000000008,842.5229000000003,847.5318000000007,4574.0,847.5319000000003,5.0,847.538,1.0,20.0,50.0,28.0,1.0,1.4,0.7,Time
,,S66,1,男,20,anonymized,Serial_Dependence_U,2023.2.3,Win32,144.92753623170066,,,,,,847.5382000000011,209.0,1.0,847.5382000000011,209.0,,,,851.5107000000011,852.0089000000004,851.0034000000003,851.5107000000011,848.5369999999999,851.0033000000006,852.0089000000004,852.5097000000011,852.5097000000011,856.4606000000015,3438.0,856.4607000000011,5.0,856.4668000000007,1.0,21.0,51.0,3.0,1.0,1.4,0.3,Time
,,S66,1,男,20,anonymized,Serial_Dependence_U,2023.2.3,Win32,144.92753623170066,,,,,,856.467,253.0,1.0,856.4671000000014,253.0,,,,860.2354000000004,860.7312000000011,859.7326000000014,860.2353000000007,857.468200000001,859.7326000000014,860.7312000000011,861.2312000000011,861.2313000000007,865.6426000000015,4000.0,865.6426000000015,5.0,865.6491000000015,1.0,22.0,52.0,12.0,1.0,1.2,0.3,Time
,,S66,1,男,20,anonymized,Serial_Dependence_U,2023.2.3,Win32,144.92753623170066,,,,,,865.6492000000011,26.0,1.0,865.6493000000007,26.0,,,,869.823,870.3224000000004,869.3154000000003,869.8229000000003,866.6493000000007,869.3154000000003,870.3224000000004,870.8214000000004,870.8215,875.9953000000007,4793.0,875.9954000000004,5.0,876.001700000001,1.0,23.0,53.0,4.0,1.0,1.6,0.3,Time
,,S66,1,男,20,anonymized,Serial_Dependence_U,2023.2.3,Win32,144.92753623170066,,,,,,876.0019000000003,226.0,1.0,876.002,226.0,,,,879.7453000000007,880.245,879.2384999999999,879.7453000000007,877.0023000000007,879.2384999999999,880.245,880.745,880.745,885.78,4591.0,885.78,5.0,885.7866000000015,1.0,24.0,54.0,17.0,1.0,1.2,0.7,Time
,,S66,1,男,20,anonymized,Serial_Dependence_U,2023.2.3,Win32,144.92753623170066,,,,,,885.7869000000003,16.0,1.0,885.7869000000003,16.0,,,,889.1343000000007,889.6339000000004,888.6274000000003,889.1342000000011,886.794,888.6274000000003,889.6339000000004,890.1339000000004,890.1339000000004,894.252200000001,3743.0,894.252200000001,5.0,894.2584000000003,1.0,25.0,55.0,25.0,1.0,0.8,0.7,Time
,,S66,1,男,20,anonymized,Serial_Dependence_U,2023.2.3,Win32,144.92753623170066,,,,,,894.2584999999999,230.0,1.0,894.2586000000015,230.0,,,,897.8009000000003,898.3006000000014,897.294,897.8009000000003,895.2592000000011,897.2939000000003,898.3006000000014,898.8006000000014,898.8006000000014,901.502200000001,2310.0,901.5023000000008,5.0,901.5081000000016,1.0,26.0,56.0,16.0,1.0,1.0,0.7,Time
,,S66,1,男,20,anonymized,Serial_Dependence_U,2023.2.3,Win32,144.92753623170066,,,,,,901.5082000000012,182.0,1.0,901.5083000000008,182.0,,,,904.8773000000008,905.3771000000014,904.3703000000008,904.877200000001,902.5093000000008,904.3703000000008,905.3771000000014,905.877,905.8771000000014,910.1063000000008,3752.0,910.1063000000008,5.0,910.1126000000014,1.0,27.0,57.0,0.0,1.0,0.8,0.3,Time
,,S66,1,男,20,anonymized,Serial_Dependence_U,2023.2.3,Win32,144.92753623170066,,,,,,910.1129000000004,234.0,1.0,910.113,234.0,,,,913.4816000000014,913.9812000000012,912.9746000000016,913.4814000000003,911.1133000000008,912.9745,913.9812000000012,914.4812000000012,914.4812000000012,918.655,3736.0,918.6551000000014,5.0,918.661200000001,1.0,28.0,58.0,20.0,1.0,0.8,0.3,Time
,,S66,1,男,20,anonymized,Serial_Dependence_U,2023.2.3,Win32,144.92753623170066,,,,,,918.6614000000004,193.0,1.0,918.6614000000004,193.0,,,,922.8009000000004,923.3005,922.294,922.8009000000004,919.662,922.2939000000003,923.3005,923.8006000000014,923.8006000000014,928.8008000000008,4595.0,928.8009000000004,5.0,928.807,1.0,29.0,59.0,29.0,1.0,1.6,0.7,Time
,,S66,1,男,20,anonymized,Serial_Dependence_U,2023.2.3,Win32,144.92753623170066,,,,,,928.8071000000016,270.0,2.0,945.762,270.0,s,16.94429999999886,,949.6972000000012,950.1965,949.1911000000016,949.6972000000012,946.7605,949.191,950.1965,950.6965,950.6965,955.1551000000017,3980.0,955.1552000000012,5.0,955.1613000000008,2.0,0.0,60.0,28.0,1.0,1.4,0.7,Time
,,S66,1,男,20,anonymized,Serial_Dependence_U,2023.2.3,Win32,144.92753623170066,,,,,,955.1615,169.0,2.0,955.1623000000008,169.0,,,,958.9062000000011,959.4056000000016,958.3993000000008,958.9062000000011,956.1688000000008,958.3992000000012,959.4057000000012,959.9047000000012,959.9047000000012,964.9928000000008,4582.0,964.9928000000008,5.0,964.9992000000012,2.0,1.0,61.0,27.0,1.0,1.2,0.7,Time
,,S66,1,男,20,anonymized,Serial_Dependence_U,2023.2.3,Win32,144.92753623170066,,,,,,964.9993000000007,229.0,2.0,964.9994000000004,229.0,,,,968.9342000000012,969.4331000000016,968.4272000000012,968.9341000000016,965.9955,968.4271000000016,969.4331000000016,969.9341000000016,969.9341000000016,974.0318000000008,3674.0,974.0318000000008,5.0,974.0379000000004,2.0,2.0,62.0,18.0,1.0,1.4,0.7,Time
,,S66,1,男,20,anonymized,Serial_Dependence_U,2023.2.3,Win32,144.92753623170066,,,,,,974.038,193.0,2.0,974.0382000000012,193.0,,,,978.0092000000012,978.5089000000004,977.5034000000004,978.0091000000016,975.0382000000012,977.5033000000008,978.5089000000004,979.0118000000008,979.0119000000004,982.9622000000012,3490.0,982.9622000000012,5.0,982.9684000000004,2.0,3.0,63.0,3.0,1.0,1.4,0.3,Time
,,S66,1,男,20,anonymized,Serial_Dependence_U,2023.2.3,Win32,144.92753623170066,,,,,,982.9685,199.0,2.0,982.9686000000016,199.0,,,,986.3378000000008,986.8352000000012,985.8369000000004,986.3378000000008,983.9698000000008,985.8368000000008,986.8353000000008,987.3353000000008,987.3353000000008,990.6703000000008,2778.0,990.6704000000004,5.0,990.6768000000008,2.0,4.0,64.0,0.0,1.0,0.8,0.3,Time
,,S66,1,男,20,anonymized,Serial_Dependence_U,2023.2.3,Win32,144.92753623170066,,,,,,990.677,112.0,2.0,990.677,112.0,,,,994.8148000000008,995.3155,994.3118000000007,994.8148000000008,991.6765,994.3117000000012,995.3155,995.8154000000004,995.8154000000004,1000.4206000000016,4125.0,1000.4206000000016,5.0,1000.4266000000016,2.0,5.0,65.0,9.0,1.0,1.6,0.7,Time
,,S66,1,男,20,anonymized,Serial_Dependence_U,2023.2.3,Win32,144.92753623170066,,,,,,1000.4268000000008,271.0,2.0,1000.4269000000004,271.0,,,,1003.7632000000012,1004.2589000000004,1003.2607000000012,1003.7632000000012,1001.4299000000004,1003.2607000000012,1004.259,1004.7591000000016,1004.7591000000016,1009.0625,3757.0,1009.0625,5.0,1009.0688000000008,2.0,6.0,66.0,15.0,1.0,0.8,0.7,Time
,,S66,1,男,20,anonymized,Serial_Dependence_U,2023.2.3,Win32,144.92753623170066,,,,,,1009.069,333.0,2.0,1009.0691000000016,333.0,,,,1013.2038000000008,1013.7035,1012.6969000000004,1013.2037000000012,1010.0650000000002,1012.6969000000004,1013.7035,1014.2035,1014.2035,1018.9398000000008,4127.0,1018.9399000000004,5.0,1018.946,2.0,7.0,67.0,29.0,1.0,1.6,0.7,Time
,,S66,1,男,20,anonymized,Serial_Dependence_U,2023.2.3,Win32,144.92753623170066,,,,,,1018.9461000000016,297.0,2.0,1018.9463000000007,297.0,,,,1022.5232000000012,1023.0229000000004,1022.0163000000008,1022.5232000000012,1019.9537000000012,1022.0163000000008,1023.0229000000004,1023.5231000000016,1023.5231000000016,1027.8495000000005,3847.0,1027.8495000000005,5.0,1027.8559000000005,2.0,8.0,68.0,21.0,1.0,1.0,0.3,Time
,,S66,1,男,20,anonymized,Serial_Dependence_U,2023.2.3,Win32,144.92753623170066,,,,,,1027.8561000000018,148.0,2.0,1027.8562000000013,148.0,,,,1031.398300000001,1031.8978000000009,1030.8915000000002,1031.3982000000012,1028.856800000001,1030.8914000000009,1031.8979000000006,1032.3978000000009,1032.3979000000006,1036.6762000000012,3880.0,1036.676300000001,5.0,1036.6823000000009,2.0,9.0,69.0,6.0,1.0,1.0,0.7,Time
,,S66,1,男,20,anonymized,Serial_Dependence_U,2023.2.3,Win32,144.92753623170066,,,,,,1036.6827000000012,6.0,2.0,1036.682800000001,6.0,,,,1040.8635000000002,1041.3632000000014,1040.3566000000017,1040.8634000000006,1037.6900000000005,1040.3566000000017,1041.3632000000014,1041.863300000001,1041.863300000001,1046.0927000000013,3456.0,1046.0927000000013,5.0,1046.098800000001,2.0,10.0,70.0,14.0,1.0,1.6,0.3,Time
,,S66,1,男,20,anonymized,Serial_Dependence_U,2023.2.3,Win32,144.92753623170066,,,,,,1046.0990000000002,49.0,2.0,1046.0991000000015,49.0,,,,1050.0718000000008,1050.5716000000016,1049.564800000001,1050.0718000000008,1047.0995000000005,1049.564800000001,1050.5716000000016,1051.0715000000002,1051.0716000000016,1055.495300000001,3985.0,1055.4954000000005,5.0,1055.5015,2.0,11.0,71.0,13.0,1.0,1.4,0.3,Time
,,S66,1,男,20,anonymized,Serial_Dependence_U,2023.2.3,Win32,144.92753623170066,,,,,,1055.5017000000014,168.0,2.0,1055.501800000001,168.0,,,,1059.4399000000003,1059.9395000000002,1058.936700000001,1059.439800000001,1056.5061000000017,1058.936700000001,1059.9395000000002,1060.4395000000002,1060.4395000000002,1065.0032000000012,4167.0,1065.003300000001,5.0,1065.0094000000006,2.0,12.0,72.0,8.0,1.0,1.4,0.7,Time
,,S66,1,男,20,anonymized,Serial_Dependence_U,2023.2.3,Win32,144.92753623170066,,,,,,1065.0096000000017,19.0,2.0,1065.0096000000017,19.0,,,,1068.5824000000005,1069.0784000000006,1068.079800000001,1068.5824000000005,1066.0126000000016,1068.079800000001,1069.0785,1069.5784000000006,1069.5785,1073.5245000000002,3542.0,1073.5246000000018,5.0,1073.5307000000014,2.0,13.0,73.0,1.0,1.0,1.0,0.3,Time
,,S66,1,男,20,anonymized,Serial_Dependence_U,2023.2.3,Win32,144.92753623170066,,,,,,1073.5309000000009,174.0,2.0,1073.5310000000002,174.0,,,,1076.9021000000016,1077.3978000000009,1076.3954000000006,1076.9021000000016,1074.5342000000012,1076.3954000000006,1077.3978000000009,1077.8979000000006,1077.8979000000006,1080.6360000000002,2202.0,1080.6361000000018,5.0,1080.6427000000012,2.0,14.0,74.0,20.0,1.0,0.8,0.3,Time
,,S66,1,男,20,anonymized,Serial_Dependence_U,2023.2.3,Win32,144.92753623170066,,,,,,1080.6429000000005,315.0,2.0,1080.6429000000005,315.0,,,,1083.9896000000017,1084.4882000000014,1083.4826000000016,1083.9895,1081.6492000000012,1083.4826000000016,1084.4882000000014,1084.9881000000016,1084.9881000000016,1088.7123000000008,3235.0,1088.7123000000008,5.0,1088.7186000000015,2.0,15.0,75.0,5.0,1.0,0.8,0.7,Time
,,S66,1,男,20,anonymized,Serial_Dependence_U,2023.2.3,Win32,144.92753623170066,,,,,,1088.7187000000013,98.0,2.0,1088.718800000001,98.0,,,,1092.4687000000013,1092.967300000001,1091.961800000001,1092.4687000000013,1089.725700000001,1091.961800000001,1092.967300000001,1093.4640000000002,1093.4640000000002,1097.489800000001,3194.0,1097.489800000001,5.0,1097.496,2.0,16.0,76.0,17.0,1.0,1.2,0.7,Time
,,S66,1,男,20,anonymized,Serial_Dependence_U,2023.2.3,Win32,144.92753623170066,,,,,,1097.4961000000017,261.0,2.0,1097.4962000000014,261.0,,,,1101.2700000000002,1101.765800000001,1100.7697000000012,1101.2699000000005,1098.504700000001,1100.7696000000017,1101.765800000001,1102.266800000001,1102.266800000001,1106.330300000001,3458.0,1106.3304000000005,5.0,1106.3365,2.0,17.0,77.0,12.0,1.0,1.2,0.3,Time
,,S66,1,男,20,anonymized,Serial_Dependence_U,2023.2.3,Win32,144.92753623170066,,,,,,1106.3366000000017,281.0,2.0,1106.3367000000012,281.0,,,,1110.4785000000002,1110.974300000001,1109.9689000000003,1110.4785000000002,1107.336800000001,1109.968800000001,1110.974300000001,1111.4744000000003,1111.4744000000003,1115.4676000000018,3623.0,1115.4676000000018,5.0,1115.4737000000014,2.0,18.0,78.0,19.0,1.0,1.6,0.7,Time
,,S66,1,男,20,anonymized,Serial_Dependence_U,2023.2.3,Win32,144.92753623170066,,,,,,1115.4739000000006,8.0,2.0,1115.4739000000006,8.0,,,,1118.814800000001,1119.3145000000002,1118.3080000000002,1118.814800000001,1116.4747000000011,1118.3080000000002,1119.3146000000015,1119.8146000000015,1119.8146000000015,1123.3707000000013,2912.0,1123.3707000000013,5.0,1123.376800000001,2.0,19.0,79.0,25.0,1.0,0.8,0.7,Time
,,S66,1,男,20,anonymized,Serial_Dependence_U,2023.2.3,Win32,144.92753623170066,,,,,,1123.3770000000002,181.0,2.0,1123.3770000000002,181.0,,,,1127.5582000000013,1128.0577000000012,1127.0510000000002,1127.5582000000013,1124.3843000000008,1127.0510000000002,1128.0577000000012,1128.5576000000017,1128.5577000000012,1133.2385000000002,4290.0,1133.2385000000002,5.0,1133.2448000000009,2.0,20.0,80.0,24.0,1.0,1.6,0.3,Time
,,S66,1,男,20,anonymized,Serial_Dependence_U,2023.2.3,Win32,144.92753623170066,,,,,,1133.245,111.0,2.0,1133.2451000000017,111.0,,,,1136.9885000000002,1137.4884000000006,1136.4816000000017,1136.9884000000006,1134.2454000000005,1136.4816000000017,1137.4884000000006,1137.9882000000014,1137.9882000000014,1142.016300000001,3548.0,1142.016300000001,5.0,1142.0227000000014,2.0,21.0,81.0,7.0,1.0,1.2,0.7,Time
,,S66,1,男,20,anonymized,Serial_Dependence_U,2023.2.3,Win32,144.92753623170066,,,,,,1142.0232000000012,133.0,2.0,1142.0234000000005,133.0,,,,1145.7941000000017,1146.2938000000008,1145.2872000000011,1145.7941000000017,1143.023300000001,1145.2872000000011,1146.2939000000006,1146.7938000000008,1146.7938000000008,1150.5996000000016,2811.0,1150.5997000000011,5.0,1150.605800000001,2.0,22.0,82.0,2.0,1.0,1.2,0.3,Time
,,S66,1,男,20,anonymized,Serial_Dependence_U,2023.2.3,Win32,144.92753623170066,,,,,,1150.6059000000005,350.0,2.0,1150.6060000000002,350.0,,,,1154.1482000000012,1154.6479000000006,1153.6414000000009,1154.1482000000012,1151.6065,1153.6414000000009,1154.6479000000006,1155.1478000000009,1155.1478000000009,1158.8705000000002,3017.0,1158.8705000000002,5.0,1158.876800000001,2.0,23.0,83.0,16.0,1.0,1.0,0.7,Time
,,S66,1,男,20,anonymized,Serial_Dependence_U,2023.2.3,Win32,144.92753623170066,,,,,,1158.876900000001,19.0,2.0,1158.8771000000015,19.0,,,,1162.8497000000011,1163.3492000000012,1162.3427000000013,1162.8497000000011,1159.8774000000003,1162.3427000000013,1163.3492000000012,1163.849300000001,1163.8494000000003,1168.5580000000002,3081.0,1168.5580000000002,5.0,1168.5641000000016,2.0,24.0,84.0,23.0,1.0,1.4,0.3,Time
,,S66,1,男,20,anonymized,Serial_Dependence_U,2023.2.3,Win32,144.92753623170066,,,,,,1168.564300000001,343.0,2.0,1168.564400000001,343.0,,,,1171.934300000001,1172.4335,1171.4299000000003,1171.9342000000013,1169.5650000000005,1171.4299000000003,1172.4335,1172.9325,1172.9326000000017,1177.3165,3539.0,1177.3166000000017,5.0,1177.3229000000006,2.0,25.0,85.0,10.0,1.0,0.8,0.3,Time
,,S66,1,男,20,anonymized,Serial_Dependence_U,2023.2.3,Win32,144.92753623170066,,,,,,1177.3231000000017,261.0,2.0,1177.3231000000017,261.0,,,,1181.0898000000009,1181.5854000000006,1180.5876000000017,1181.0898000000009,1178.3231000000017,1180.5876000000017,1181.5854000000006,1182.0854000000006,1182.0854000000006,1186.4970000000003,3715.0,1186.4970000000003,5.0,1186.5031000000015,2.0,26.0,86.0,22.0,1.0,1.2,0.3,Time
,,S66,1,男,20,anonymized,Serial_Dependence_U,2023.2.3,Win32,144.92753623170066,,,,,,1186.5032000000012,171.0,2.0,1186.5032000000012,171.0,,,,1190.0729000000006,1190.5716000000016,1189.5670000000002,1190.0729000000006,1187.5035000000005,1189.5669000000005,1190.5716000000016,1191.0724000000005,1191.0724000000005,1194.602300000001,3015.0,1194.602400000001,5.0,1194.6086000000016,2.0,27.0,87.0,11.0,1.0,1.0,0.3,Time
,,S66,1,男,20,anonymized,Serial_Dependence_U,2023.2.3,Win32,144.92753623170066,,,,,,1194.6088000000009,57.0,2.0,1194.6088000000009,57.0,,,,1198.7751000000017,1199.273,1198.2744000000005,1198.775,1195.6076000000016,1198.2744000000005,1199.273,1199.773,1199.773,1204.5832000000014,4065.0,1204.5832000000014,5.0,1204.5896000000016,2.0,28.0,88.0,4.0,1.0,1.6,0.3,Time
,,S66,1,男,20,anonymized,Serial_Dependence_U,2023.2.3,Win32,144.92753623170066,,,,,,1204.5897000000014,229.0,2.0,1204.5897000000014,229.0,,,,1208.1284000000005,1208.6271000000015,1207.6235,1208.1284000000005,1205.5857000000012,1207.6235,1208.6271000000015,1209.1271000000015,1209.1271000000015,1213.5094000000006,3960.0,1213.5094000000006,5.0,1213.5156000000018,2.0,29.0,89.0,26.0,1.0,1.0,0.7,Time
,,S66,1,男,20,anonymized,Serial_Dependence_U,2023.2.3,Win32,144.92753623170066,,,,,,1213.5159000000006,34.0,3.0,1215.474300000001,34.0,s,1.952300000000605,,1218.8221000000017,1219.321700000001,1218.3149000000003,1218.822,1216.4816000000017,1218.3149000000003,1219.321700000001,1219.8218000000008,1219.8219000000006,1223.8218000000008,3713.0,1223.8219000000006,5.0,1223.8281000000018,3.0,0.0,90.0,5.0,1.0,0.8,0.7,Time
,,S66,1,男,20,anonymized,Serial_Dependence_U,2023.2.3,Win32,144.92753623170066,,,,,,1223.8282000000013,173.0,3.0,1223.8292000000013,173.0,,,,1227.6066000000017,1228.1062000000013,1227.0996000000016,1227.6066000000017,1224.8357000000012,1227.0995000000005,1228.1062000000013,1228.6063000000008,1228.6063000000008,1232.828800000001,3673.0,1232.8289000000009,5.0,1232.8350000000005,3.0,1.0,91.0,2.0,1.0,1.2,0.3,Time
,,S66,1,男,20,anonymized,Serial_Dependence_U,2023.2.3,Win32,144.92753623170066,,,,,,1232.8351000000016,69.0,3.0,1232.8353000000009,69.0,,,,1236.3775000000005,1236.8772000000013,1235.8705000000002,1236.3774000000003,1233.835800000001,1235.8705000000002,1236.8772000000013,1237.3771000000015,1237.3771000000015,1252.3079000000005,3360.0,1252.3079000000005,5.0,1252.3141000000016,3.0,2.0,92.0,6.0,1.0,1.0,0.7,Time
,,S66,1,男,20,anonymized,Serial_Dependence_U,2023.2.3,Win32,144.92753623170066,,,,,,1252.3142000000014,143.0,3.0,1252.3142000000014,143.0,,,,1256.0580000000002,1256.5577000000012,1255.5511000000015,1256.0579000000005,1253.3151000000016,1255.5510000000002,1256.5577000000012,1257.0577000000012,1257.0577000000012,1261.1829000000005,3638.0,1261.1829000000005,5.0,1261.1891000000016,3.0,3.0,93.0,7.0,1.0,1.2,0.7,Time
,,S66,1,男,20,anonymized,Serial_Dependence_U,2023.2.3,Win32,144.92753623170066,,,,,,1261.1892000000014,6.0,3.0,1261.1892000000014,6.0,,,,1264.5650000000005,1265.0646000000015,1264.0580000000002,1264.5650000000005,1262.1969000000006,1264.0580000000002,1265.0646000000015,1265.5647000000013,1265.564800000001,1269.5718000000008,3575.0,1269.5719000000006,5.0,1269.5780000000002,3.0,4.0,94.0,20.0,1.0,0.8,0.3,Time
,,S66,1,男,20,anonymized,Serial_Dependence_U,2023.2.3,Win32,144.92753623170066,,,,,,1269.5782000000013,99.0,3.0,1269.5784000000006,99.0,,,,1273.7177000000013,1274.2174000000005,1273.2107000000012,1273.7177000000013,1270.578800000001,1273.2107000000012,1274.2174000000005,1274.7175000000002,1274.7175000000002,1278.7664000000009,3681.0,1278.7664000000009,5.0,1278.7724000000003,3.0,5.0,95.0,19.0,1.0,1.6,0.7,Time
,,S66,1,男,20,anonymized,Serial_Dependence_U,2023.2.3,Win32,144.92753623170066,,,,,,1278.7726000000016,53.0,3.0,1278.7727000000014,53.0,,,,1282.7455000000002,1283.2451000000017,1282.2386000000015,1282.7455000000002,1279.773300000001,1282.2385000000002,1283.2451000000017,1283.7452000000012,1283.7452000000012,1287.8843000000008,3033.0,1287.8843000000008,5.0,1287.8906000000018,3.0,6.0,96.0,3.0,1.0,1.4,0.3,Time
,,S66,1,男,20,anonymized,Serial_Dependence_U,2023.2.3,Win32,144.92753623170066,,,,,,1287.890800000001,176.0,3.0,1287.8909000000006,176.0,,,,1291.8359000000005,1292.3354000000006,1291.3291000000015,1291.8359000000005,1288.8982000000012,1291.3291000000015,1292.3354000000006,1292.8356000000017,1292.8356000000017,1296.717800000001,3000.0,1296.717800000001,5.0,1296.7241000000015,3.0,7.0,97.0,8.0,1.0,1.4,0.7,Time
,,S66,1,男,20,anonymized,Serial_Dependence_U,2023.2.3,Win32,144.92753623170066,,,,,,1296.7242000000012,357.0,3.0,1296.7244000000003,357.0,,,,1300.8982000000012,1301.3979000000006,1300.391300000001,1300.8982000000012,1297.7247000000011,1300.391300000001,1301.398,1301.898,1301.898,1307.6345,3472.0,1307.6345,5.0,1307.6406000000018,3.0,8.0,98.0,4.0,1.0,1.6,0.3,Time
,,S66,1,男,20,anonymized,Serial_Dependence_U,2023.2.3,Win32,144.92753623170066,,,,,,1307.6407000000013,208.0,3.0,1307.641,208.0,,,,1311.8149000000003,1312.3147000000013,1311.3080000000002,1311.8149000000003,1308.6414000000009,1311.3080000000002,1312.314800000001,1312.8146000000015,1312.8147000000013,1318.8705000000002,3786.0,1318.8705000000002,5.0,1318.8766000000016,3.0,9.0,99.0,24.0,1.0,1.6,0.3,Time
,,S66,1,男,20,anonymized,Serial_Dependence_U,2023.2.3,Win32,144.92753623170066,,,,,,1318.8767000000014,186.0,3.0,1318.876800000001,186.0,,,,1322.4192000000014,1322.9188000000008,1321.9122000000011,1322.4191000000017,1319.8776000000016,1321.9122000000011,1322.9188000000008,1323.4188000000008,1323.4188000000008,1327.148300000001,2799.0,1327.148300000001,5.0,1327.1543000000008,3.0,10.0,100.0,26.0,1.0,1.0,0.7,Time
,,S66,1,男,20,anonymized,Serial_Dependence_U,2023.2.3,Win32,144.92753623170066,,,,,,1327.1545,314.0,3.0,1327.1546000000017,314.0,,,,1330.9052000000013,1331.4047000000014,1330.398300000001,1330.9052000000013,1328.1621000000016,1330.3982000000012,1331.4047000000014,1331.904800000001,1331.904800000001,1336.5718000000008,3071.0,1336.5719000000006,5.0,1336.5782000000013,3.0,11.0,101.0,17.0,1.0,1.2,0.7,Time
,,S66,1,男,20,anonymized,Serial_Dependence_U,2023.2.3,Win32,144.92753623170066,,,,,,1336.5785,101.0,3.0,1336.5785,101.0,,,,1340.35,1340.8492000000012,1339.842800000001,1340.3499000000006,1337.578800000001,1339.842800000001,1340.8492000000012,1341.3494000000003,1341.3494000000003,1345.4537000000014,3353.0,1345.4537000000014,5.0,1345.4601000000016,3.0,12.0,102.0,22.0,1.0,1.2,0.3,Time
,,S66,1,男,20,anonymized,Serial_Dependence_U,2023.2.3,Win32,144.92753623170066,,,,,,1345.4604000000006,353.0,3.0,1345.4604000000006,353.0,,,,1349.6066000000017,1350.1064000000006,1349.0997000000011,1349.6066000000017,1346.4676000000018,1349.0997000000011,1350.1064000000006,1350.6063000000008,1350.6063000000008,1355.182800000001,3583.0,1355.1829000000005,5.0,1355.1891000000016,3.0,13.0,103.0,29.0,1.0,1.6,0.7,Time
,,S66,1,男,20,anonymized,Serial_Dependence_U,2023.2.3,Win32,144.92753623170066,,,,,,1355.189300000001,272.0,3.0,1355.1895000000002,272.0,,,,1358.7594000000006,1359.2590000000002,1358.2525000000005,1358.7593000000008,1356.1902000000014,1358.2524000000003,1359.2591000000016,1359.7589000000005,1359.7590000000002,1371.0729000000006,3422.0,1371.073,5.0,1371.0791000000015,3.0,14.0,104.0,1.0,1.0,1.0,0.3,Time
,,S66,1,男,20,anonymized,Serial_Dependence_U,2023.2.3,Win32,144.92753623170066,,,,,,1371.0792000000013,264.0,3.0,1371.079300000001,264.0,,,,1374.65,1375.1478000000009,1374.1431000000016,1374.65,1372.0799000000006,1374.1431000000016,1375.1479000000006,1375.6479000000006,1375.6479000000006,1382.986,2968.0,1382.9861000000017,5.0,1382.9925000000003,3.0,15.0,105.0,11.0,1.0,1.0,0.3,Time
,,S66,1,男,20,anonymized,Serial_Dependence_U,2023.2.3,Win32,144.92753623170066,,,,,,1382.9926000000016,294.0,3.0,1382.9927000000014,294.0,,,,1386.9331000000018,1387.4326000000017,1386.4262000000012,1386.9330000000002,1383.995300000001,1386.4261000000015,1387.4326000000017,1387.9326000000017,1387.9327000000012,1391.4051000000018,3230.0,1391.4052000000013,5.0,1391.411300000001,3.0,16.0,106.0,28.0,1.0,1.4,0.7,Time
,,S66,1,男,20,anonymized,Serial_Dependence_U,2023.2.3,Win32,144.92753623170066,,,,,,1391.4114000000006,182.0,3.0,1391.4116000000015,182.0,,,,1395.5510000000002,1396.0471000000016,1395.0441000000017,1395.5510000000002,1392.4121000000016,1395.0441000000017,1396.0471000000016,1396.5437000000013,1396.5437000000013,1400.5871000000018,3497.0,1400.5871000000018,5.0,1400.593300000001,3.0,17.0,107.0,9.0,1.0,1.6,0.7,Time
,,S66,1,男,20,anonymized,Serial_Dependence_U,2023.2.3,Win32,144.92753623170066,,,,,,1400.5934000000009,145.0,3.0,1400.5935000000002,145.0,,,,1404.3640000000005,1404.863300000001,1403.8606000000016,1404.3639000000005,1401.5966000000017,1403.8606000000016,1404.863300000001,1405.3640000000005,1405.3640000000005,1408.5386000000017,2697.0,1408.5386000000017,5.0,1408.544800000001,3.0,18.0,108.0,12.0,1.0,1.2,0.3,Time
,,S66,1,男,20,anonymized,Serial_Dependence_U,2023.2.3,Win32,144.92753623170066,,,,,,1408.5450000000003,240.0,3.0,1408.5451000000016,240.0,,,,1412.4884000000006,1412.9882000000014,1411.9826000000016,1412.488300000001,1409.547800000001,1411.9826000000016,1412.9882000000014,1413.488300000001,1413.488300000001,1417.198300000001,3400.0,1417.1984000000004,5.0,1417.2046000000016,3.0,19.0,109.0,18.0,1.0,1.4,0.7,Time
,,S66,1,男,20,anonymized,Serial_Dependence_U,2023.2.3,Win32,144.92753623170066,,,,,,1417.204800000001,252.0,3.0,1417.204800000001,252.0,,,,1420.5509000000006,1421.0542000000014,1420.0452000000014,1420.5509000000006,1418.210800000001,1420.0452000000014,1421.0542000000014,1421.5507000000014,1421.5507000000014,1424.6621000000016,2661.0,1424.6621000000016,5.0,1424.6679000000006,3.0,20.0,110.0,15.0,1.0,0.8,0.7,Time
,,S66,1,男,20,anonymized,Serial_Dependence_U,2023.2.3,Win32,144.92753623170066,,,,,,1424.6681000000017,76.0,3.0,1424.6681000000017,76.0,,,,1428.0383000000008,1428.5369000000003,1427.5316000000016,1428.038200000001,1425.669,1427.5315000000005,1428.5369000000003,1429.036800000001,1429.036800000001,1432.541300000001,2494.0,1432.541300000001,5.0,1432.5475,3.0,21.0,111.0,10.0,1.0,0.8,0.3,Time
,,S66,1,男,20,anonymized,Serial_Dependence_U,2023.2.3,Win32,144.92753623170066,,,,,,1432.5477000000012,355.0,3.0,1432.547800000001,355.0,,,,1436.5175000000002,1437.0161000000016,1436.0106000000017,1436.5175000000002,1433.5446000000018,1436.0105,1437.0161000000016,1437.5161000000016,1437.5161000000016,1440.3997000000013,2720.0,1440.3998000000008,5.0,1440.4059000000009,3.0,22.0,112.0,23.0,1.0,1.4,0.3,Time
,,S66,1,男,20,anonymized,Serial_Dependence_U,2023.2.3,Win32,144.92753623170066,,,,,,1440.4062000000013,140.0,3.0,1440.4062000000013,140.0,,,,1444.3885000000002,1444.8854000000006,1443.8786000000016,1444.3885000000002,1441.413200000001,1443.8786000000016,1444.8854000000006,1445.384200000001,1445.384200000001,1449.6760000000002,3688.0,1449.6760000000002,5.0,1449.682200000001,3.0,23.0,113.0,13.0,1.0,1.4,0.3,Time
,,S66,1,男,20,anonymized,Serial_Dependence_U,2023.2.3,Win32,144.92753623170066,,,,,,1449.6823000000009,29.0,3.0,1449.6824000000006,29.0,,,,1453.0481000000016,1453.5439000000006,1452.545300000001,1453.0481000000016,1450.6840000000002,1452.5452000000014,1453.5439000000006,1454.0438000000008,1454.0438000000008,1457.2817000000014,2750.0,1457.2818000000009,5.0,1457.2879000000005,3.0,24.0,114.0,0.0,1.0,0.8,0.3,Time
,,S66,1,男,20,anonymized,Serial_Dependence_U,2023.2.3,Win32,144.92753623170066,,,,,,1457.2881000000016,345.0,3.0,1457.288200000001,345.0,,,,1460.6285000000005,1461.1271000000015,1460.1217000000013,1460.6285000000005,1458.288200000001,1460.1216000000018,1461.1271000000015,1461.6305000000002,1461.6305000000002,1464.9134000000006,2660.0,1464.9134000000006,5.0,1464.919300000001,3.0,25.0,115.0,25.0,1.0,0.8,0.7,Time
,,S66,1,男,20,anonymized,Serial_Dependence_U,2023.2.3,Win32,144.92753623170066,,,,,,1464.9195000000002,97.0,3.0,1464.9196000000018,97.0,,,,1468.4579000000006,1468.9536000000016,1467.9544000000003,1468.4579000000006,1465.9191000000017,1467.9544000000003,1468.9536000000016,1469.4500000000005,1469.4500000000005,1472.6636000000017,2334.0,1472.6636000000017,5.0,1472.669800000001,3.0,26.0,116.0,16.0,1.0,1.0,0.7,Time
,,S66,1,男,20,anonymized,Serial_Dependence_U,2023.2.3,Win32,144.92753623170066,,,,,,1472.6699000000006,324.0,3.0,1472.6701000000016,324.0,,,,1476.4134000000006,1476.911800000001,1475.9065000000005,1476.4134000000006,1473.6697000000013,1475.9064000000003,1476.9119000000003,1477.4117000000012,1477.411800000001,1481.1422000000014,3295.0,1481.1422000000014,5.0,1481.1485000000002,3.0,27.0,117.0,27.0,1.0,1.2,0.7,Time
,,S66,1,男,20,anonymized,Serial_Dependence_U,2023.2.3,Win32,144.92753623170066,,,,,,1481.1486000000016,209.0,3.0,1481.148700000001,209.0,,,,1485.323300000001,1485.8225000000002,1484.818800000001,1485.3232000000014,1482.151800000001,1484.8187000000014,1485.8225000000002,1486.3215000000002,1486.3216000000016,1490.342800000001,3716.0,1490.342800000001,5.0,1490.3494000000003,3.0,28.0,118.0,14.0,1.0,1.6,0.3,Time
,,S66,1,男,20,anonymized,Serial_Dependence_U,2023.2.3,Win32,144.92753623170066,,,,,,1490.3495000000005,209.0,3.0,1490.3496000000016,209.0,,,,1493.919,1494.4187000000013,1493.4122000000011,1493.919,1491.3496000000016,1493.4122000000011,1494.4187000000013,1494.9188000000008,1494.9188000000008,1498.877300000001,2977.0,1498.8774000000003,5.0,1498.8836000000017,3.0,29.0,119.0,21.0,1.0,1.0,0.3,Time
,,S66,1,男,20,anonymized,Serial_Dependence_U,2023.2.3,Win32,144.92753623170066,,,,,,1498.883800000001,39.0,4.0,1500.5646000000015,39.0,s,1.6726999999991676,,1503.9122000000011,1504.4119000000003,1503.4052000000013,1503.9121000000016,1501.573,1503.4051000000018,1504.4119000000003,1504.9119000000003,1504.9119000000003,1508.828800000001,3415.0,1508.8289000000009,5.0,1508.8351000000016,4.0,0.0,120.0,15.0,1.0,0.8,0.7,Time
,,S66,1,男,20,anonymized,Serial_Dependence_U,2023.2.3,Win32,144.92753623170066,,,,,,1508.8352000000014,349.0,4.0,1508.835800000001,349.0,,,,1513.0094000000006,1513.5091000000016,1512.5025000000005,1513.0093000000008,1509.8357000000012,1512.5025000000005,1513.5091000000016,1514.0091000000016,1514.0091000000016,1518.0096000000017,3488.0,1518.0096000000017,5.0,1518.0157000000013,4.0,1.0,121.0,4.0,1.0,1.6,0.3,Time
,,S66,1,男,20,anonymized,Serial_Dependence_U,2023.2.3,Win32,144.92753623170066,,,,,,1518.0159000000006,260.0,4.0,1518.016,260.0,,,,1521.794,1522.2937000000013,1521.2872000000011,1521.794,1519.0232000000012,1521.2872000000011,1522.2937000000013,1522.7938000000008,1522.7938000000008,1526.1344000000006,3020.0,1526.1344000000006,5.0,1526.1406000000018,4.0,2.0,122.0,2.0,1.0,1.2,0.3,Time
,,S66,1,男,20,anonymized,Serial_Dependence_U,2023.2.3,Win32,144.92753623170066,,,,,,1526.1407000000013,166.0,4.0,1526.1407000000013,166.0,,,,1529.9121000000016,1530.411800000001,1529.4052000000013,1529.9120000000005,1527.141300000001,1529.4051000000018,1530.411800000001,1530.9119000000003,1530.9119000000003,1535.203800000001,3855.0,1535.203800000001,5.0,1535.2100000000005,4.0,3.0,123.0,12.0,1.0,1.2,0.3,Time
,,S66,1,男,20,anonymized,Serial_Dependence_U,2023.2.3,Win32,144.92753623170066,,,,,,1535.2102000000014,66.0,4.0,1535.2102000000014,66.0,,,,1538.7524000000003,1539.2522000000013,1538.2455000000002,1538.752300000001,1536.210800000001,1538.2455000000002,1539.2522000000013,1539.7522000000013,1539.7522000000013,1543.8912000000014,3424.0,1543.8912000000014,5.0,1543.897300000001,4.0,4.0,124.0,26.0,1.0,1.0,0.7,Time
,,S66,1,男,20,anonymized,Serial_Dependence_U,2023.2.3,Win32,144.92753623170066,,,,,,1543.8975000000005,67.0,4.0,1543.8976000000016,67.0,,,,1547.8357000000012,1548.3355,1547.328800000001,1547.8357000000012,1544.898300000001,1547.328800000001,1548.3355,1548.8355,1548.8356000000017,1553.5231000000017,3396.0,1553.5232000000012,5.0,1553.5293000000008,4.0,5.0,125.0,8.0,1.0,1.4,0.7,Time
,,S66,1,男,20,anonymized,Serial_Dependence_U,2023.2.3,Win32,144.92753623170066,,,,,,1553.5295,46.0,4.0,1553.5296000000017,46.0,,,,1557.710800000001,1558.2105,1557.2037000000014,1557.7107000000012,1554.5372000000011,1557.2037000000014,1558.2105,1558.7105,1558.7105,1563.391300000001,2832.0,1563.3914000000009,5.0,1563.3976000000016,4.0,6.0,126.0,14.0,1.0,1.6,0.3,Time
,,S66,1,男,20,anonymized,Serial_Dependence_U,2023.2.3,Win32,144.92753623170066,,,,,,1563.3979000000006,76.0,4.0,1563.3979000000006,76.0,,,,1566.7385000000002,1567.2382000000014,1566.2316000000017,1566.7384000000006,1564.3982000000012,1566.2316000000017,1567.2382000000014,1567.738300000001,1567.738300000001,1571.3079000000005,2144.0,1571.3079000000005,5.0,1571.3137000000013,4.0,7.0,127.0,5.0,1.0,0.8,0.7,Time
,,S66,1,男,20,anonymized,Serial_Dependence_U,2023.2.3,Win32,144.92753623170066,,,,,,1571.3139000000006,54.0,4.0,1571.3139000000006,54.0,,,,1574.8566000000017,1575.3562000000013,1574.3497000000011,1574.8566000000017,1572.3149000000003,1574.3496000000016,1575.3562000000013,1575.8563000000008,1575.8563000000008,1578.9816000000017,2512.0,1578.9816000000017,5.0,1578.987800000001,4.0,8.0,128.0,16.0,1.0,1.0,0.7,Time
,,S66,1,男,20,anonymized,Serial_Dependence_U,2023.2.3,Win32,144.92753623170066,,,,,,1578.9880000000005,168.0,4.0,1578.9881000000016,168.0,,,,1582.3565,1582.8563000000008,1581.8498000000009,1582.3564000000006,1579.9886000000015,1581.8498000000009,1582.8563000000008,1583.3563000000008,1583.3563000000008,1586.0094000000006,2007.0,1586.0094000000006,5.0,1586.0157000000013,4.0,9.0,129.0,10.0,1.0,0.8,0.3,Time
,,S66,1,男,20,anonymized,Serial_Dependence_U,2023.2.3,Win32,144.92753623170066,,,,,,1586.0159000000006,146.0,4.0,1586.016,146.0,,,,1589.3567000000014,1589.8564000000006,1588.8534000000006,1589.3565,1587.017300000001,1588.8534000000006,1589.8564000000006,1590.3563000000008,1590.3563000000008,1593.6596000000018,2431.0,1593.6596000000018,5.0,1593.6657000000014,4.0,10.0,130.0,25.0,1.0,0.8,0.7,Time
,,S66,1,男,20,anonymized,Serial_Dependence_U,2023.2.3,Win32,144.92753623170066,,,,,,1593.6659000000006,122.0,4.0,1593.6660000000002,122.0,,,,1597.7975,1598.2938000000008,1597.2952000000014,1597.7975,1594.663200000001,1597.2952000000014,1598.2938000000008,1598.7938000000008,1598.7938000000008,1602.259200000001,3116.0,1602.259200000001,5.0,1602.2654000000005,4.0,11.0,131.0,19.0,1.0,1.6,0.7,Time
,,S66,1,男,20,anonymized,Serial_Dependence_U,2023.2.3,Win32,144.92753623170066,,,,,,1602.2656000000018,204.0,4.0,1602.2656000000018,204.0,,,,1606.0094000000006,1606.5093000000008,1605.5025000000005,1606.0093000000008,1603.266300000001,1605.5025000000005,1606.5093000000008,1607.0091000000016,1607.0091000000016,1610.842800000001,3246.0,1610.842800000001,5.0,1610.8490000000002,4.0,12.0,132.0,17.0,1.0,1.2,0.7,Time
,,S66,1,男,20,anonymized,Serial_Dependence_U,2023.2.3,Win32,144.92753623170066,,,,,,1610.8492000000012,284.0,4.0,1610.849300000001,284.0,,,,1614.3914000000009,1614.891,1613.8844000000006,1614.391300000001,1611.8496000000016,1613.8844000000006,1614.8911000000016,1615.391,1615.3911000000016,1618.4814000000006,2619.0,1618.4815,5.0,1618.4876000000015,4.0,13.0,133.0,6.0,1.0,1.0,0.7,Time
,,S66,1,男,20,anonymized,Serial_Dependence_U,2023.2.3,Win32,144.92753623170066,,,,,,1618.4877000000013,290.0,4.0,1618.487800000001,290.0,,,,1622.2316000000017,1622.7314000000006,1621.7246000000016,1622.2315,1619.4885000000002,1621.7246000000016,1622.7314000000006,1623.2313000000008,1623.2313000000008,1627.8982000000012,3153.0,1627.8982000000012,5.0,1627.9043000000008,4.0,14.0,134.0,27.0,1.0,1.2,0.7,Time
,,S66,1,男,20,anonymized,Serial_Dependence_U,2023.2.3,Win32,144.92753623170066,,,,,,1627.9045,72.0,4.0,1627.9046000000017,72.0,,,,1632.044,1632.5438000000008,1631.5373000000009,1632.044,1628.9052000000013,1631.5373000000009,1632.5438000000008,1633.0437000000013,1633.0438000000008,1637.1968000000008,3054.0,1637.1968000000008,5.0,1637.2030000000002,4.0,15.0,135.0,29.0,1.0,1.6,0.7,Time
,,S66,1,男,20,anonymized,Serial_Dependence_U,2023.2.3,Win32,144.92753623170066,,,,,,1637.2032000000013,345.0,4.0,1637.2035,345.0,,,,1640.572,1641.071700000001,1640.0649000000003,1640.5719000000006,1638.2039000000009,1640.064800000001,1641.071700000001,1641.5716000000016,1641.5716000000016,1645.3010000000002,3055.0,1645.3011000000015,5.0,1645.307200000001,4.0,16.0,136.0,0.0,1.0,0.8,0.3,Time
,,S66,1,男,20,anonymized,Serial_Dependence_U,2023.2.3,Win32,144.92753623170066,,,,,,1645.3073000000009,347.0,4.0,1645.3074000000006,347.0,,,,1649.2801000000018,1649.7799000000005,1648.773300000001,1649.2801000000018,1646.3080000000002,1648.7732000000012,1649.7799000000005,1650.2800000000002,1650.2800000000002,1667.5302000000013,3320.0,1667.5302000000013,5.0,1667.5369000000003,4.0,17.0,137.0,3.0,1.0,1.4,0.3,Time
,,S66,1,男,20,anonymized,Serial_Dependence_U,2023.2.3,Win32,144.92753623170066,,,,,,1667.5371000000016,120.0,4.0,1667.5372000000011,120.0,,,,1671.1136000000015,1671.6132000000014,1670.6067000000014,1671.1136000000015,1668.5442000000014,1670.6066000000017,1671.6132000000014,1672.113300000001,1672.113300000001,1676.4539000000009,3354.0,1676.4539000000009,5.0,1676.4600000000005,4.0,18.0,138.0,1.0,1.0,1.0,0.3,Time
,,S66,1,男,20,anonymized,Serial_Dependence_U,2023.2.3,Win32,144.92753623170066,,,,,,1676.4601000000016,273.0,4.0,1676.4602000000014,273.0,,,,1680.2315,1680.7313000000008,1679.7247000000011,1680.2315,1677.4607000000012,1679.7247000000011,1680.7314000000006,1681.2313000000008,1681.2313000000008,1685.5718000000008,3388.0,1685.5719000000006,5.0,1685.5780000000002,4.0,19.0,139.0,22.0,1.0,1.2,0.3,Time
,,S66,1,男,20,anonymized,Serial_Dependence_U,2023.2.3,Win32,144.92753623170066,,,,,,1685.5782000000013,182.0,4.0,1685.578300000001,182.0,,,,1689.5510000000002,1690.050800000001,1689.044300000001,1689.5509000000006,1686.5789000000009,1689.0442000000014,1690.050800000001,1690.550800000001,1690.550800000001,1694.6136000000015,3271.0,1694.6136000000015,5.0,1694.619700000001,4.0,20.0,140.0,13.0,1.0,1.4,0.3,Time
,,S66,1,男,20,anonymized,Serial_Dependence_U,2023.2.3,Win32,144.92753623170066,,,,,,1694.6199000000006,192.0,4.0,1694.6199000000006,192.0,,,,1698.5580000000002,1699.057800000001,1698.0512000000012,1698.5579000000005,1695.6205000000002,1698.0511000000015,1699.057800000001,1699.5579000000005,1699.5579000000005,1703.4191000000017,3279.0,1703.4191000000017,5.0,1703.4255000000005,4.0,21.0,141.0,18.0,1.0,1.4,0.7,Time
,,S66,1,男,20,anonymized,Serial_Dependence_U,2023.2.3,Win32,144.92753623170066,,,,,,1703.4256000000016,207.0,4.0,1703.4257000000014,207.0,,,,1706.7941000000017,1707.2938000000008,1706.2872000000011,1706.7941000000017,1704.4261000000015,1706.2872000000011,1707.2938000000008,1707.7938000000008,1707.7938000000008,1710.7801000000018,2367.0,1710.7801000000018,5.0,1710.7869000000003,4.0,22.0,142.0,20.0,1.0,0.8,0.3,Time
,,S66,1,男,20,anonymized,Serial_Dependence_U,2023.2.3,Win32,144.92753623170066,,,,,,1710.7871000000016,15.0,4.0,1710.7872000000011,15.0,,,,1714.7316000000017,1715.2313000000008,1714.2246000000016,1714.7315,1711.7941000000017,1714.2246000000016,1715.2313000000008,1715.7313000000008,1715.7314000000006,1719.3080000000002,2917.0,1719.3080000000002,5.0,1719.3142000000014,4.0,23.0,143.0,28.0,1.0,1.4,0.7,Time
,,S66,1,男,20,anonymized,Serial_Dependence_U,2023.2.3,Win32,144.92753623170066,,,,,,1719.314300000001,101.0,4.0,1719.314400000001,101.0,,,,1722.8844000000006,1723.3841000000016,1722.3774000000003,1722.8843000000008,1720.3149000000003,1722.3774000000003,1723.3841000000016,1723.8841000000016,1723.884200000001,1727.2176000000018,2737.0,1727.2176000000018,5.0,1727.2237000000014,4.0,24.0,144.0,21.0,1.0,1.0,0.3,Time
,,S66,1,男,20,anonymized,Serial_Dependence_U,2023.2.3,Win32,144.92753623170066,,,,,,1727.2239000000006,37.0,4.0,1727.2240000000002,37.0,,,,1730.7942000000014,1731.2938000000008,1730.2871000000016,1730.7941000000017,1728.2247000000011,1730.2871000000016,1731.2938000000008,1731.7938000000008,1731.7938000000008,1734.7247000000011,2575.0,1734.7247000000011,5.0,1734.7310000000002,4.0,25.0,145.0,11.0,1.0,1.0,0.3,Time
,,S66,1,男,20,anonymized,Serial_Dependence_U,2023.2.3,Win32,144.92753623170066,,,,,,1734.7311000000018,344.0,4.0,1734.7312000000013,344.0,,,,1738.703800000001,1739.2036000000016,1738.1969000000006,1738.703800000001,1735.7316000000017,1738.1969000000006,1739.2036000000016,1739.7036000000016,1739.7036000000016,1743.4052000000013,3088.0,1743.4052000000013,5.0,1743.4114000000006,4.0,26.0,146.0,23.0,1.0,1.4,0.3,Time
,,S66,1,男,20,anonymized,Serial_Dependence_U,2023.2.3,Win32,144.92753623170066,,,,,,1743.4116000000015,256.0,4.0,1743.4117000000012,256.0,,,,1747.585800000001,1748.0856000000017,1747.0790000000002,1747.5856000000017,1744.4122000000011,1747.0790000000002,1748.0856000000017,1748.5857000000012,1748.5857000000012,1752.6277000000014,3500.0,1752.6277000000014,5.0,1752.6343000000008,4.0,27.0,147.0,24.0,1.0,1.6,0.3,Time
,,S66,1,男,20,anonymized,Serial_Dependence_U,2023.2.3,Win32,144.92753623170066,,,,,,1752.6345,183.0,4.0,1752.6345,183.0,,,,1756.3774000000003,1756.8772000000013,1755.8705000000002,1756.3774000000003,1753.6344000000006,1755.8705000000002,1756.8772000000013,1757.3772000000013,1757.3772000000013,1761.1969000000006,3415.0,1761.1969000000006,5.0,1761.2031000000018,4.0,28.0,148.0,7.0,1.0,1.2,0.7,Time
,,S66,1,男,20,anonymized,Serial_Dependence_U,2023.2.3,Win32,144.92753623170066,,,,,,1761.203300000001,150.0,4.0,1761.2034000000006,150.0,,,,1765.342800000001,1765.8424000000005,1764.835800000001,1765.3427000000013,1762.203800000001,1764.8357000000012,1765.8425000000002,1766.3424000000005,1766.3424000000005,1770.9260000000002,3450.0,1770.9260000000002,5.0,1770.932200000001,4.0,29.0,149.0,9.0,1.0,1.6,0.7,Time
,,S66,1,男,20,anonymized,Serial_Dependence_U,2023.2.3,Win32,144.92753623170066,,,,,,1770.9323000000009,57.0,5.0,1772.446700000001,57.0,s,1.5037999999988187,,1776.6205000000002,1777.1202000000012,1776.117300000001,1776.6205000000002,1773.4544000000003,1776.117300000001,1777.1202000000012,1777.6201000000017,1777.6201000000017,1781.208400000001,3094.0,1781.208400000001,5.0,1781.2146000000016,5.0,0.0,150.0,4.0,1.0,1.6,0.3,Time
,,S66,1,男,20,anonymized,Serial_Dependence_U,2023.2.3,Win32,144.92753623170066,,,,,,1781.2147000000014,81.0,5.0,1781.2154000000005,81.0,,,,1785.1484000000005,1785.6481000000017,1784.6414000000009,1785.148300000001,1782.2109000000005,1784.641300000001,1785.6481000000017,1786.148,1786.148,1790.0580000000002,3328.0,1790.0580000000002,5.0,1790.0642000000014,5.0,1.0,151.0,18.0,1.0,1.4,0.7,Time
,,S66,1,男,20,anonymized,Serial_Dependence_U,2023.2.3,Win32,144.92753623170066,,,,,,1790.064400000001,74.0,5.0,1790.0645000000002,74.0,,,,1793.6344000000006,1794.1341000000016,1793.1276000000016,1793.6344000000006,1791.0650000000005,1793.1276000000016,1794.1341000000016,1794.6341000000016,1794.6341000000016,1798.7107000000012,2810.0,1798.7107000000012,5.0,1798.7169000000006,5.0,2.0,152.0,21.0,1.0,1.0,0.3,Time
,,S66,1,男,20,anonymized,Serial_Dependence_U,2023.2.3,Win32,144.92753623170066,,,,,,1798.717,72.0,5.0,1798.7171000000017,72.0,,,,1802.4676000000015,1802.9675,1801.9609000000005,1802.4676000000015,1799.7246000000016,1801.960800000001,1802.9675,1803.4675,1803.4675,1807.9192000000012,3577.0,1807.9192000000012,5.0,1807.925300000001,5.0,3.0,153.0,7.0,1.0,1.2,0.7,Time
,,S66,1,男,20,anonymized,Serial_Dependence_U,2023.2.3,Win32,144.92753623170066,,,,,,1807.9254000000003,87.0,5.0,1807.9255000000005,87.0,,,,1811.6969000000008,1812.196700000001,1811.1901000000016,1811.6968000000008,1808.9261000000015,1811.1900000000005,1812.196700000001,1812.6966000000016,1812.696700000001,1816.5302000000013,3360.0,1816.5302000000013,5.0,1816.5365,5.0,4.0,154.0,22.0,1.0,1.2,0.3,Time
,,S66,1,男,20,anonymized,Serial_Dependence_U,2023.2.3,Win32,144.92753623170066,,,,,,1816.536800000001,70.0,5.0,1816.5370000000005,70.0,,,,1820.308,1820.8076000000017,1819.8011000000015,1820.3079000000005,1817.5373000000009,1819.8011000000015,1820.8076000000017,1821.3077000000008,1821.307800000001,1825.1135,3273.0,1825.1136000000015,5.0,1825.119700000001,5.0,5.0,155.0,2.0,1.0,1.2,0.3,Time
,,S66,1,男,20,anonymized,Serial_Dependence_U,2023.2.3,Win32,144.92753623170066,,,,,,1825.1199000000008,82.0,5.0,1825.1199000000008,82.0,,,,1829.0929000000008,1829.5925,1828.585800000001,1829.0927000000013,1826.1206000000016,1828.585800000001,1829.5925,1830.0925,1830.0925,1834.4819000000005,3675.0,1834.4819000000005,5.0,1834.4886000000015,5.0,6.0,156.0,23.0,1.0,1.4,0.3,Time
,,S66,1,男,20,anonymized,Serial_Dependence_U,2023.2.3,Win32,144.92753623170066,,,,,,1834.4887000000008,116.0,5.0,1834.488800000001,116.0,,,,1837.8647000000008,1838.3632000000011,1837.3605,1837.8647000000008,1835.4896000000017,1837.3605,1838.3632000000011,1838.863300000001,1838.863300000001,1842.8789000000008,2502.0,1842.8789000000008,5.0,1842.8851000000016,5.0,7.0,157.0,10.0,1.0,0.8,0.3,Time
,,S66,1,男,20,anonymized,Serial_Dependence_U,2023.2.3,Win32,144.92753623170066,,,,,,1842.8853000000008,138.0,5.0,1842.8853000000008,138.0,,,,1846.232800000001,1846.7313000000008,1845.726,1846.2327000000012,1843.8919000000003,1845.7259000000008,1846.7313000000008,1847.2348000000009,1847.2348000000009,1850.726,2396.0,1850.726,5.0,1850.7322000000013,5.0,8.0,158.0,25.0,1.0,0.8,0.7,Time
,,S66,1,男,20,anonymized,Serial_Dependence_U,2023.2.3,Win32,144.92753623170066,,,,,,1850.7324000000008,359.0,5.0,1850.7325000000003,359.0,,,,1854.2774000000009,1854.7729000000008,1853.7670000000005,1854.2774000000009,1851.7329000000009,1853.7669000000003,1854.7729000000008,1855.2767000000013,1855.2767000000013,1858.6222000000012,2730.0,1858.6222000000012,5.0,1858.6286000000016,5.0,9.0,159.0,6.0,1.0,1.0,0.7,Time
,,S66,1,男,20,anonymized,Serial_Dependence_U,2023.2.3,Win32,144.92753623170066,,,,,,1858.6287000000011,56.0,5.0,1858.6288000000009,56.0,,,,1861.9909000000005,1862.488300000001,1861.489800000001,1861.990800000001,1859.6275000000005,1861.4897000000008,1862.488300000001,1862.988300000001,1862.9884000000009,1866.4052000000013,2890.0,1866.4052000000013,5.0,1866.411300000001,5.0,10.0,160.0,0.0,1.0,0.8,0.3,Time
,,S66,1,男,20,anonymized,Serial_Dependence_U,2023.2.3,Win32,144.92753623170066,,,,,,1866.4115,54.0,5.0,1866.4116000000015,54.0,,,,1869.9579000000008,1870.4536000000016,1869.4482000000012,1869.9579000000008,1867.4134000000008,1869.4481000000017,1870.4536000000016,1870.9536000000016,1870.9536000000016,1874.6707000000013,3000.0,1874.6707000000013,5.0,1874.677,5.0,11.0,161.0,16.0,1.0,1.0,0.7,Time
,,S66,1,男,20,anonymized,Serial_Dependence_U,2023.2.3,Win32,144.92753623170066,,,,,,1874.6772000000008,228.0,5.0,1874.6772000000008,228.0,,,,1878.6565000000005,1879.1549000000005,1878.1522000000011,1878.6565000000005,1875.6869000000008,1878.1522000000011,1879.1549000000005,1879.6549000000005,1879.6549000000005,1884.3998000000008,3236.0,1884.3999000000008,5.0,1884.406300000001,5.0,12.0,162.0,13.0,1.0,1.4,0.3,Time
,,S66,1,男,20,anonymized,Serial_Dependence_U,2023.2.3,Win32,144.92753623170066,,,,,,1884.4065000000005,61.0,5.0,1884.4066000000016,61.0,,,,1888.3496000000016,1888.8494000000003,1887.8467000000007,1888.3496000000016,1885.4161000000015,1887.8467000000007,1888.8494000000003,1889.3494000000003,1889.3494000000003,1893.057800000001,2872.0,1893.057800000001,5.0,1893.064,5.0,13.0,163.0,8.0,1.0,1.4,0.7,Time
,,S66,1,男,20,anonymized,Serial_Dependence_U,2023.2.3,Win32,144.92753623170066,,,,,,1893.0642000000012,131.0,5.0,1893.064300000001,131.0,,,,1897.2011000000016,1897.7001000000016,1896.698,1897.201,1894.0656000000015,1896.698,1897.7001000000016,1898.196700000001,1898.1968000000008,1901.580300000001,2806.0,1901.5804000000005,5.0,1901.5865,5.0,14.0,164.0,29.0,1.0,1.6,0.7,Time
,,S66,1,男,20,anonymized,Serial_Dependence_U,2023.2.3,Win32,144.92753623170066,,,,,,1901.5866000000017,317.0,5.0,1901.5866000000017,317.0,,,,1905.1572000000008,1905.655,1904.6564000000003,1905.1572000000008,1902.5941000000016,1904.6564000000003,1905.655,1906.155,1906.155,1909.4051000000015,2846.0,1909.4051000000015,5.0,1909.411300000001,5.0,15.0,165.0,11.0,1.0,1.0,0.3,Time
,,S66,1,男,20,anonymized,Serial_Dependence_U,2023.2.3,Win32,144.92753623170066,,,,,,1909.4114000000009,73.0,5.0,1909.4116000000015,73.0,,,,1912.7605,1913.259200000001,1912.2537000000011,1912.7605,1910.419,1912.2537000000011,1913.259200000001,1913.759,1913.759200000001,1917.4278000000008,3002.0,1917.4278000000008,5.0,1917.434,5.0,16.0,166.0,15.0,1.0,0.8,0.7,Time
,,S66,1,男,20,anonymized,Serial_Dependence_U,2023.2.3,Win32,144.92753623170066,,,,,,1917.4341000000015,131.0,5.0,1917.4342000000013,131.0,,,,1921.4091000000017,1921.9049000000005,1920.8994000000005,1921.409,1918.4342000000013,1920.8994000000005,1921.9049000000005,1922.4049000000005,1922.405,1926.3566000000017,2743.0,1926.3567000000012,5.0,1926.3629000000003,5.0,17.0,167.0,3.0,1.0,1.4,0.3,Time
,,S66,1,男,20,anonymized,Serial_Dependence_U,2023.2.3,Win32,144.92753623170066,,,,,,1926.3631000000016,353.0,5.0,1926.3631000000016,353.0,,,,1929.9075000000005,1930.405,1929.400400000001,1929.9074000000005,1927.3642000000011,1929.400400000001,1930.405,1930.905,1930.905,1934.4205,3049.0,1934.4205,5.0,1934.4266000000016,5.0,18.0,168.0,26.0,1.0,1.0,0.7,Time
,,S66,1,男,20,anonymized,Serial_Dependence_U,2023.2.3,Win32,144.92753623170066,,,,,,1934.4268000000009,33.0,5.0,1934.4269000000008,33.0,,,,1937.7960000000005,1938.2939000000008,1937.2883000000008,1937.7959000000003,1935.426,1937.2883000000008,1938.2939000000008,1938.7939000000008,1938.7939000000008,1943.3165,2531.0,1943.3165,5.0,1943.3227000000013,5.0,19.0,169.0,20.0,1.0,0.8,0.3,Time
,,S66,1,男,20,anonymized,Serial_Dependence_U,2023.2.3,Win32,144.92753623170066,,,,,,1943.3229000000008,35.0,5.0,1943.3229000000008,35.0,,,,1947.2606000000017,1947.7605,1946.755800000001,1947.2605,1944.3241000000016,1946.7557000000013,1947.7606000000017,1948.259200000001,1948.259200000001,1952.788800000001,3208.0,1952.788800000001,5.0,1952.7950000000003,5.0,20.0,170.0,28.0,1.0,1.4,0.7,Time
,,S66,1,男,20,anonymized,Serial_Dependence_U,2023.2.3,Win32,144.92753623170066,,,,,,1952.7951000000016,10.0,5.0,1952.7952000000012,10.0,,,,1956.568900000001,1957.0646000000015,1956.06,1956.568800000001,1953.7976000000017,1956.0599000000009,1957.0647000000013,1957.5673000000008,1957.5674000000008,1961.6706000000015,2882.0,1961.6706000000015,5.0,1961.6768000000009,5.0,21.0,171.0,12.0,1.0,1.2,0.3,Time
,,S66,1,男,20,anonymized,Serial_Dependence_U,2023.2.3,Win32,144.92753623170066,,,,,,1961.6769000000008,229.0,5.0,1961.677,229.0,,,,1965.4191000000017,1965.9189000000008,1964.9162000000013,1965.4191000000017,1962.6799000000003,1964.9161000000015,1965.9189000000008,1966.419800000001,1966.419800000001,1969.7828000000009,2904.0,1969.7828000000009,5.0,1969.789,5.0,22.0,172.0,17.0,1.0,1.2,0.7,Time
,,S66,1,男,20,anonymized,Serial_Dependence_U,2023.2.3,Win32,144.92753623170066,,,,,,1969.7892000000013,206.0,5.0,1969.7893000000008,206.0,,,,1973.5245,1974.0239000000008,1973.0239000000008,1973.5245,1970.7871000000016,1973.0239000000008,1974.0239000000008,1974.5231000000017,1974.5231000000017,1977.8516000000016,3137.0,1977.8517000000013,5.0,1977.8579000000009,5.0,23.0,173.0,27.0,1.0,1.2,0.7,Time
,,S66,1,男,20,anonymized,Serial_Dependence_U,2023.2.3,Win32,144.92753623170066,,,,,,1977.8581000000013,132.0,5.0,1977.8581000000013,132.0,,,,1982.023800000001,1982.5230000000004,1981.5178000000008,1982.023800000001,1978.8566000000017,1981.5178000000008,1982.5230000000004,1983.0265,1983.0265,1987.3304000000005,3597.0,1987.3305000000005,5.0,1987.3366000000017,5.0,24.0,174.0,14.0,1.0,1.6,0.3,Time
,,S66,1,男,20,anonymized,Serial_Dependence_U,2023.2.3,Win32,144.92753623170066,,,,,,1987.3368000000007,188.0,5.0,1987.3369000000005,188.0,,,,1991.4816000000017,1991.9823000000008,1990.9759000000008,1991.4815,1988.3440000000005,1990.9758000000008,1991.9823000000008,1992.4812000000013,1992.481300000001,1996.094200000001,3173.0,1996.094200000001,5.0,1996.1003000000007,5.0,25.0,175.0,9.0,1.0,1.6,0.7,Time
,,S66,1,男,20,anonymized,Serial_Dependence_U,2023.2.3,Win32,144.92753623170066,,,,,,1996.1005,57.0,5.0,1996.1006000000016,57.0,,,,1999.6771000000012,2000.175800000001,1999.1702000000007,1999.6771000000012,1997.1081000000013,1999.1701000000016,2000.175800000001,2000.6759000000004,2000.6759000000004,2004.9696000000013,3473.0,2004.9696000000013,5.0,2004.9758000000008,5.0,26.0,176.0,1.0,1.0,1.0,0.3,Time
,,S66,1,男,20,anonymized,Serial_Dependence_U,2023.2.3,Win32,144.92753623170066,,,,,,2004.9760000000003,220.0,5.0,2004.9760000000003,220.0,,,,2009.1552000000013,2009.655,2008.6495,2009.1552000000013,2005.9855,2008.6495,2009.655,2010.1559000000004,2010.1559000000004,2014.8572000000013,4102.0,2014.8572000000013,5.0,2014.8640000000005,5.0,27.0,177.0,24.0,1.0,1.6,0.3,Time
,,S66,1,男,20,anonymized,Serial_Dependence_U,2023.2.3,Win32,144.92753623170066,,,,,,2014.864200000001,90.0,5.0,2014.864200000001,90.0,,,,2019.0164000000009,2019.5161000000016,2018.5108000000007,2019.016300000001,2015.874300000001,2018.5107000000012,2019.5161000000016,2020.0161000000016,2020.0161000000016,2024.9864000000005,3732.0,2024.9864000000005,5.0,2024.9926000000016,5.0,28.0,178.0,19.0,1.0,1.6,0.7,Time
,,S66,1,男,20,anonymized,Serial_Dependence_U,2023.2.3,Win32,144.92753623170066,,,,,,2024.9927000000012,47.0,5.0,2024.9927000000012,47.0,,,,2028.33,2028.8286000000016,2027.8259000000005,2028.33,2025.989200000001,2027.8258000000008,2028.8286000000016,2029.3295,2029.3295,2033.0394000000003,3189.0,2033.0394000000003,5.0,2033.0455000000004,5.0,29.0,179.0,5.0,1.0,0.8,0.7,Time
,,S66,1,男,20,anonymized,Serial_Dependence_U,2023.2.3,Win32,144.92753623170066,,,,,,2033.0457000000013,213.0,6.0,2035.3495,213.0,s,2.2960000000002765,,2039.2943000000007,2039.7939000000003,2038.7872000000011,2039.2942000000012,2036.3499000000004,2038.7871000000016,2039.7939000000003,2040.2939000000003,2040.2939000000003,2043.8574000000008,3080.0,2043.8575000000003,5.0,2043.8639000000005,6.0,0.0,180.0,8.0,1.0,1.4,0.7,Time
,,S66,1,男,20,anonymized,Serial_Dependence_U,2023.2.3,Win32,144.92753623170066,,,,,,2043.8640000000005,76.0,6.0,2043.8647000000008,76.0,,,,2047.6136000000015,2048.113300000001,2047.1067000000012,2047.6136000000015,2044.8706000000016,2047.1066000000017,2048.113300000001,2048.6134,2048.6134,2052.426,3312.0,2052.426100000001,5.0,2052.4324,6.0,1.0,181.0,17.0,1.0,1.2,0.7,Time
,,S66,1,男,20,anonymized,Serial_Dependence_U,2023.2.3,Win32,144.92753623170066,,,,,,2052.432600000001,54.0,6.0,2052.432600000001,54.0,,,,2056.2039000000004,2056.703700000001,2055.697,2056.2038000000007,2053.4331000000016,2055.6969000000004,2056.703700000001,2057.203700000001,2057.203700000001,2060.6276000000016,3021.0,2060.6276000000016,5.0,2060.6339000000003,6.0,2.0,182.0,2.0,1.0,1.2,0.3,Time
,,S66,1,男,20,anonymized,Serial_Dependence_U,2023.2.3,Win32,144.92753623170066,,,,,,2060.6341000000016,148.0,6.0,2060.634200000001,148.0,,,,2064.606800000001,2065.1064,2064.099700000001,2064.606700000001,2061.6345,2064.099700000001,2065.1064,2065.6064,2065.6064,2069.842900000001,3800.0,2069.842900000001,5.0,2069.849,6.0,3.0,183.0,23.0,1.0,1.4,0.3,Time
,,S66,1,男,20,anonymized,Serial_Dependence_U,2023.2.3,Win32,144.92753623170066,,,,,,2069.8491000000013,66.0,6.0,2069.8493000000008,66.0,,,,2073.992300000001,2074.4914000000003,2073.4898000000007,2073.992300000001,2070.856700000001,2073.4898000000007,2074.4914000000003,2074.9913000000006,2074.9914000000003,2079.3237000000013,3894.0,2079.3238000000006,5.0,2079.3299,6.0,4.0,184.0,9.0,1.0,1.6,0.7,Time
,,S66,1,男,20,anonymized,Serial_Dependence_U,2023.2.3,Win32,144.92753623170066,,,,,,2079.330100000001,285.0,6.0,2079.330100000001,285.0,,,,2083.464700000001,2083.9603000000006,2082.962,2083.464700000001,2080.33,2082.9619,2083.9603000000006,2084.4605,2084.4605,2088.9865,3837.0,2088.986600000001,5.0,2088.992700000001,6.0,5.0,185.0,19.0,1.0,1.6,0.7,Time
,,S66,1,男,20,anonymized,Serial_Dependence_U,2023.2.3,Win32,144.92753623170066,,,,,,2088.992800000001,275.0,6.0,2088.9929,275.0,,,,2092.530400000001,2093.0301000000013,2092.0235,2092.530300000001,2089.988700000001,2092.0234000000005,2093.0301000000013,2093.53,2093.53,2097.294100000001,3234.0,2097.294100000001,5.0,2097.3006000000014,6.0,6.0,186.0,26.0,1.0,1.0,0.7,Time
,,S66,1,男,20,anonymized,Serial_Dependence_U,2023.2.3,Win32,144.92753623170066,,,,,,2097.300800000001,116.0,6.0,2097.300800000001,116.0,,,,2101.44,2101.939800000001,2100.9331000000016,2101.44,2098.301,2100.933,2101.939800000001,2102.439600000001,2102.4397000000013,2106.238600000001,3410.0,2106.238700000001,5.0,2106.244800000001,6.0,7.0,187.0,29.0,1.0,1.6,0.7,Time
,,S66,1,男,20,anonymized,Serial_Dependence_U,2023.2.3,Win32,144.92753623170066,,,,,,2106.245,173.0,6.0,2106.245200000001,173.0,,,,2109.8084000000003,2110.3079,2109.3081000000016,2109.8084000000003,2107.2456000000016,2109.3081000000016,2110.3079,2110.8079,2110.8079,2115.030300000001,3786.0,2115.030400000001,5.0,2115.0368000000008,6.0,8.0,188.0,21.0,1.0,1.0,0.3,Time
,,S66,1,男,20,anonymized,Serial_Dependence_U,2023.2.3,Win32,144.92753623170066,,,,,,2115.037,251.0,6.0,2115.037,251.0,,,,2118.613600000001,2119.113300000001,2118.106800000001,2118.613600000001,2116.044300000001,2118.106700000001,2119.113300000001,2119.613200000001,2119.613300000001,2123.092800000001,3000.0,2123.092800000001,5.0,2123.0989000000004,6.0,9.0,189.0,1.0,1.0,1.0,0.3,Time
,,S66,1,男,20,anonymized,Serial_Dependence_U,2023.2.3,Win32,144.92753623170066,,,,,,2123.0991000000013,39.0,6.0,2123.0991000000013,39.0,,,,2126.467800000001,2126.9675,2125.961,2126.467700000001,2124.099800000001,2125.961,2126.9675,2127.4675,2127.4676000000013,2131.169100000001,3295.0,2131.169200000001,5.0,2131.1754000000005,6.0,10.0,190.0,20.0,1.0,0.8,0.3,Time
,,S66,1,男,20,anonymized,Serial_Dependence_U,2023.2.3,Win32,144.92753623170066,,,,,,2131.1755,121.0,6.0,2131.1756000000014,121.0,,,,2134.7455,2135.245200000001,2134.238700000001,2134.7455,2132.176200000001,2134.238700000001,2135.2453000000005,2135.7453000000005,2135.7454,2139.2255,3129.0,2139.2255,5.0,2139.232,6.0,11.0,191.0,11.0,1.0,1.0,0.3,Time
,,S66,1,男,20,anonymized,Serial_Dependence_U,2023.2.3,Win32,144.92753623170066,,,,,,2139.232100000001,270.0,6.0,2139.2322000000013,270.0,,,,2143.405300000001,2143.905,2142.8984000000005,2143.405300000001,2140.231700000001,2142.8984000000005,2143.905,2144.4051000000013,2144.4051000000013,2148.1414000000004,3417.0,2148.1415,5.0,2148.147700000001,6.0,12.0,192.0,4.0,1.0,1.6,0.3,Time
,,S66,1,男,20,anonymized,Serial_Dependence_U,2023.2.3,Win32,144.92753623170066,,,,,,2148.148,95.0,6.0,2148.1481000000013,95.0,,,,2151.690200000001,2152.189800000001,2151.183200000001,2151.6901000000016,2149.1484000000005,2151.183,2152.189800000001,2152.6897000000013,2152.6897000000013,2156.169200000001,3148.0,2156.169200000001,5.0,2156.1754000000005,6.0,13.0,193.0,6.0,1.0,1.0,0.7,Time
,,S66,1,男,20,anonymized,Serial_Dependence_U,2023.2.3,Win32,144.92753623170066,,,,,,2156.1756000000014,157.0,6.0,2156.1756000000014,157.0,,,,2160.356800000001,2160.8565,2159.85,2160.356700000001,2157.1831000000016,2159.85,2160.8565,2161.3564,2161.3564,2164.919200000001,3131.0,2164.919200000001,5.0,2164.9255,6.0,14.0,194.0,24.0,1.0,1.6,0.3,Time
,,S66,1,男,20,anonymized,Serial_Dependence_U,2023.2.3,Win32,144.92753623170066,,,,,,2164.925700000001,117.0,6.0,2164.925800000001,117.0,,,,2168.8984000000005,2169.398,2168.3914000000004,2168.8984000000005,2165.926200000001,2168.3914000000004,2169.398,2169.8981000000013,2169.8981000000013,2174.1901000000016,3743.0,2174.1901000000016,5.0,2174.1963000000005,6.0,15.0,195.0,3.0,1.0,1.4,0.3,Time
,,S66,1,男,20,anonymized,Serial_Dependence_U,2023.2.3,Win32,144.92753623170066,,,,,,2174.1965,36.0,6.0,2174.1966000000016,36.0,,,,2177.974800000001,2178.4745,2177.467800000001,2177.974800000001,2175.204,2177.467800000001,2178.4745,2178.9746000000014,2178.9746000000014,2182.753,3176.0,2182.7531000000013,5.0,2182.76,6.0,16.0,196.0,22.0,1.0,1.2,0.3,Time
,,S66,1,男,20,anonymized,Serial_Dependence_U,2023.2.3,Win32,144.92753623170066,,,,,,2182.7601000000013,237.0,6.0,2182.760200000001,237.0,,,,2186.099800000001,2186.5995,2185.5931000000014,2186.099800000001,2183.759600000001,2185.5931000000014,2186.5995,2187.0995,2187.0995,2192.495700000001,2979.0,2192.495700000001,5.0,2192.501800000001,6.0,17.0,197.0,5.0,1.0,0.8,0.7,Time
,,S66,1,男,20,anonymized,Serial_Dependence_U,2023.2.3,Win32,144.92753623170066,,,,,,2192.502,297.0,6.0,2192.5022000000013,297.0,,,,2196.2456000000016,2196.745200000001,2195.738700000001,2196.2455,2193.5025,2195.738700000001,2196.745200000001,2197.2455,2197.2455,2200.7734000000005,3104.0,2200.7734000000005,5.0,2200.7798000000007,6.0,18.0,198.0,27.0,1.0,1.2,0.7,Time
,,S66,1,男,20,anonymized,Serial_Dependence_U,2023.2.3,Win32,144.92753623170066,,,,,,2200.7799000000005,207.0,6.0,2200.7801000000013,207.0,,,,2204.3219000000004,2204.8218000000006,2203.815,2204.3219000000004,2201.780400000001,2203.8149000000003,2204.8218000000006,2205.321700000001,2205.321700000001,2208.849800000001,2933.0,2208.849800000001,5.0,2208.8559000000005,6.0,19.0,199.0,16.0,1.0,1.0,0.7,Time
,,S66,1,男,20,anonymized,Serial_Dependence_U,2023.2.3,Win32,144.92753623170066,,,,,,2208.856,15.0,6.0,2208.8561000000013,15.0,,,,2212.224700000001,2212.7245,2211.717900000001,2212.224700000001,2209.856700000001,2211.717900000001,2212.7246000000014,2213.2245,2213.2245,2216.224800000001,2432.0,2216.224800000001,5.0,2216.2309000000005,6.0,20.0,200.0,0.0,1.0,0.8,0.3,Time
,,S66,1,男,20,anonymized,Serial_Dependence_U,2023.2.3,Win32,144.92753623170066,,,,,,2216.2311000000013,16.0,6.0,2216.231300000001,16.0,,,,2219.5789000000004,2220.078700000001,2219.072,2219.5789000000004,2217.238600000001,2219.072,2220.078700000001,2220.578700000001,2220.578700000001,2224.3081000000016,2943.0,2224.3081000000016,5.0,2224.314300000001,6.0,21.0,201.0,15.0,1.0,0.8,0.7,Time
,,S66,1,男,20,anonymized,Serial_Dependence_U,2023.2.3,Win32,144.92753623170066,,,,,,2224.3144,293.0,6.0,2224.3145,293.0,,,,2228.488600000001,2228.9884,2227.981700000001,2228.488600000001,2225.3151000000016,2227.981600000001,2228.9884,2229.4884,2229.4884,2233.2108000000007,3360.0,2233.2108000000007,5.0,2233.2171000000017,6.0,22.0,202.0,14.0,1.0,1.6,0.3,Time
,,S66,1,男,20,anonymized,Serial_Dependence_U,2023.2.3,Win32,144.92753623170066,,,,,,2233.2173000000007,251.0,6.0,2233.2174000000005,251.0,,,,2236.5859000000005,2237.0856000000013,2236.0789000000004,2236.5859000000005,2234.217800000001,2236.0789000000004,2237.085700000001,2237.585700000001,2237.585700000001,2240.7109000000005,2688.0,2240.711,5.0,2240.7169000000004,6.0,23.0,203.0,10.0,1.0,0.8,0.3,Time
,,S66,1,男,20,anonymized,Serial_Dependence_U,2023.2.3,Win32,144.92753623170066,,,,,,2240.7171000000017,255.0,6.0,2240.7171000000017,255.0,,,,2244.6901000000016,2245.189800000001,2244.1831000000016,2244.69,2241.717800000001,2244.1831000000016,2245.189800000001,2245.689800000001,2245.689800000001,2249.530400000001,3520.0,2249.530400000001,5.0,2249.5366000000013,6.0,24.0,204.0,13.0,1.0,1.4,0.3,Time
,,S66,1,男,20,anonymized,Serial_Dependence_U,2023.2.3,Win32,144.92753623170066,,,,,,2249.5369000000005,44.0,6.0,2249.5369000000005,44.0,,,,2253.481800000001,2253.9815,2252.975100000001,2253.481700000001,2250.5444,2252.975,2253.9815,2254.4815,2254.4815,2258.489200000001,3656.0,2258.4893000000006,5.0,2258.4956000000016,6.0,25.0,205.0,28.0,1.0,1.4,0.7,Time
,,S66,1,男,20,anonymized,Serial_Dependence_U,2023.2.3,Win32,144.92753623170066,,,,,,2258.4958000000006,91.0,6.0,2258.4959000000003,91.0,,,,2262.2664000000004,2262.7661000000016,2261.7595,2262.2663000000007,2259.4956000000016,2261.7594000000004,2262.7661000000016,2263.266200000001,2263.266200000001,2267.981600000001,3903.0,2267.981600000001,5.0,2267.987800000001,6.0,26.0,206.0,12.0,1.0,1.2,0.3,Time
,,S66,1,男,20,anonymized,Serial_Dependence_U,2023.2.3,Win32,144.92753623170066,,,,,,2267.9879000000005,19.0,6.0,2267.9879000000005,19.0,,,,2271.731600000001,2272.2314,2271.2249,2271.731600000001,2268.988700000001,2271.2249,2272.2314,2272.731600000001,2272.731700000001,2276.683200000001,3032.0,2276.683200000001,5.0,2276.689300000001,6.0,27.0,207.0,7.0,1.0,1.2,0.7,Time
,,S66,1,男,20,anonymized,Serial_Dependence_U,2023.2.3,Win32,144.92753623170066,,,,,,2276.6895,139.0,6.0,2276.6895,139.0,,,,2280.0374,2280.537,2279.530300000001,2280.037300000001,2277.697,2279.530200000001,2280.537,2281.037,2281.0371000000014,2286.281,3393.0,2286.281,5.0,2286.2874,6.0,28.0,208.0,25.0,1.0,0.8,0.7,Time
,,S66,1,男,20,anonymized,Serial_Dependence_U,2023.2.3,Win32,144.92753623170066,,,,,,2286.287600000001,353.0,6.0,2286.287600000001,353.0,,,,2290.231700000001,2290.7314,2289.7249,2290.231700000001,2287.294100000001,2289.724800000001,2290.7314,2291.2315,2291.2315,2295.0169000000005,3240.0,2295.017,5.0,2295.0233000000007,6.0,29.0,209.0,18.0,1.0,1.4,0.7,Time
,,S66,1,男,20,anonymized,Serial_Dependence_U,2023.2.3,Win32,144.92753623170066,,,,,,2295.0235,66.0,7.0,2299.299700000001,66.0,s,4.262399999998706,,2302.6484000000005,2303.1481000000013,2302.1415,2302.6484000000005,2300.308200000001,2302.1414000000004,2303.1481000000013,2303.6481000000013,2303.648200000001,2307.3983000000007,3179.0,2307.3983000000007,5.0,2307.404700000001,7.0,0.0,210.0,5.0,1.0,0.8,0.7,Time
,,S66,1,男,20,anonymized,Serial_Dependence_U,2023.2.3,Win32,144.92753623170066,,,,,,2307.4049000000005,148.0,7.0,2307.4056000000014,148.0,,,,2311.544200000001,2312.0439,2311.0374,2311.544100000001,2308.405400000001,2311.0374,2312.0439,2312.544100000001,2312.544100000001,2316.849700000001,3905.0,2316.849700000001,5.0,2316.8561000000013,7.0,1.0,211.0,19.0,1.0,1.6,0.7,Time
,,S66,1,男,20,anonymized,Serial_Dependence_U,2023.2.3,Win32,144.92753623170066,,,,,,2316.856300000001,136.0,7.0,2316.8564,136.0,,,,2320.8081000000016,2321.3079,2320.301200000001,2320.8081000000016,2317.8638000000005,2320.301100000001,2321.3079,2321.8078000000005,2321.8079,2356.2609,3164.0,2356.2609,5.0,2356.2671000000014,7.0,2.0,212.0,8.0,1.0,1.4,0.7,Time
,,S66,1,男,20,anonymized,Serial_Dependence_U,2023.2.3,Win32,144.92753623170066,,,,,,2356.267300000001,138.0,7.0,2356.267300000001,138.0,,,,2359.8359000000005,2360.3356000000013,2359.3288000000007,2359.8359000000005,2357.2664000000004,2359.3288000000007,2360.3356000000013,2360.8356000000013,2360.8356000000013,2364.169100000001,3022.0,2364.169100000001,5.0,2364.175200000001,7.0,3.0,213.0,21.0,1.0,1.0,0.3,Time
,,S66,1,男,20,anonymized,Serial_Dependence_U,2023.2.3,Win32,144.92753623170066,,,,,,2364.1754000000005,323.0,7.0,2364.1755,323.0,,,,2367.9539000000004,2368.4536000000016,2367.447,2367.9539000000004,2365.1831000000016,2367.4469000000004,2368.4536000000016,2368.9536000000016,2368.9536000000016,2372.787300000001,3436.0,2372.787300000001,5.0,2372.7935,7.0,4.0,214.0,2.0,1.0,1.2,0.3,Time
,,S66,1,男,20,anonymized,Serial_Dependence_U,2023.2.3,Win32,144.92753623170066,,,,,,2372.7936000000013,133.0,7.0,2372.7936000000013,133.0,,,,2376.738700000001,2377.2384,2376.231700000001,2376.738600000001,2373.801100000001,2376.231700000001,2377.2384,2377.738300000001,2377.7384,2377.801,24.0,2377.801,1.0,2377.8069000000005,7.0,5.0,215.0,18.0,1.0,1.4,0.7,Time
,,S66,1,男,20,anonymized,Serial_Dependence_U,2023.2.3,Win32,144.92753623170066,,,,,,2377.807,37.0,7.0,2377.807200000001,37.0,,,,2381.7455,2382.2453000000005,2381.238700000001,2381.7454,2378.8081000000016,2381.238700000001,2382.2453000000005,2382.7453000000005,2382.7453000000005,2386.69,3239.0,2386.6901000000016,5.0,2386.696200000001,7.0,6.0,216.0,28.0,1.0,1.4,0.7,Time
,,S66,1,男,20,anonymized,Serial_Dependence_U,2023.2.3,Win32,144.92753623170066,,,,,,2386.6964000000003,276.0,7.0,2386.6965,276.0,,,,2390.8776000000016,2391.377300000001,2390.3706000000016,2390.8775,2387.7038000000007,2390.3705,2391.377300000001,2391.8772000000013,2391.877300000001,2395.5447000000013,3245.0,2395.5448000000006,5.0,2395.551,7.0,7.0,217.0,24.0,1.0,1.6,0.3,Time
,,S66,1,男,20,anonymized,Serial_Dependence_U,2023.2.3,Win32,144.92753623170066,,,,,,2395.551100000001,208.0,7.0,2395.551100000001,208.0,,,,2398.8913000000007,2399.391200000001,2398.384700000001,2398.8913000000007,2396.551100000001,2398.384700000001,2399.391200000001,2399.8914000000004,2399.8914000000004,2403.169100000001,2744.0,2403.169100000001,5.0,2403.175300000001,7.0,8.0,218.0,25.0,1.0,0.8,0.7,Time
,,S66,1,男,20,anonymized,Serial_Dependence_U,2023.2.3,Win32,144.92753623170066,,,,,,2403.1755,25.0,7.0,2403.1756000000014,25.0,,,,2407.3219000000004,2407.821700000001,2406.815200000001,2407.3218000000006,2404.1831000000016,2406.8151000000016,2407.821700000001,2408.3216000000016,2408.3216000000016,2411.988600000001,3242.0,2411.988600000001,5.0,2411.994700000001,7.0,9.0,219.0,29.0,1.0,1.6,0.7,Time
,,S66,1,男,20,anonymized,Serial_Dependence_U,2023.2.3,Win32,144.92753623170066,,,,,,2411.9949,8.0,7.0,2411.995,8.0,,,,2415.7665,2416.2661000000016,2415.2594000000004,2415.7665,2412.9956000000016,2415.2594000000004,2416.266200000001,2416.766,2416.7661000000016,2421.9539000000004,3055.0,2421.9539000000004,5.0,2421.96,7.0,10.0,220.0,12.0,1.0,1.2,0.3,Time
,,S66,1,男,20,anonymized,Serial_Dependence_U,2023.2.3,Win32,144.92753623170066,,,,,,2421.960200000001,53.0,7.0,2421.9603000000006,53.0,,,,2425.5025,2426.002300000001,2424.9956000000016,2425.5024000000003,2422.9609000000005,2424.9956000000016,2426.002300000001,2426.502300000001,2426.502300000001,2430.738600000001,3632.0,2430.738600000001,5.0,2430.7449,7.0,11.0,221.0,16.0,1.0,1.0,0.7,Time
,,S66,1,男,20,anonymized,Serial_Dependence_U,2023.2.3,Win32,144.92753623170066,,,,,,2430.745,209.0,7.0,2430.745100000001,209.0,,,,2434.717700000001,2435.2175,2434.2146000000016,2434.717700000001,2431.7455,2434.2146000000016,2435.2175,2435.7175,2435.7176000000013,2439.379100000001,3338.0,2439.379200000001,5.0,2439.385300000001,7.0,12.0,222.0,23.0,1.0,1.4,0.3,Time
,,S66,1,男,20,anonymized,Serial_Dependence_U,2023.2.3,Win32,144.92753623170066,,,,,,2439.3855,90.0,7.0,2439.3855,90.0,,,,2443.359,2443.8598000000006,2442.858,2443.3589,2440.3924,2442.8579000000004,2443.8598000000006,2444.3564,2444.3564,2449.104300000001,3843.0,2449.104300000001,5.0,2449.1105,7.0,13.0,223.0,13.0,1.0,1.4,0.3,Time
,,S66,1,男,20,anonymized,Serial_Dependence_U,2023.2.3,Win32,144.92753623170066,,,,,,2449.110700000001,186.0,7.0,2449.110700000001,186.0,,,,2452.4759000000004,2452.9745,2451.972,2452.4759000000004,2450.106600000001,2451.972,2452.9745,2453.4755,2453.4755,2456.4201000000016,2519.0,2456.420200000001,5.0,2456.4264000000003,7.0,14.0,224.0,20.0,1.0,0.8,0.3,Time
,,S66,1,男,20,anonymized,Serial_Dependence_U,2023.2.3,Win32,144.92753623170066,,,,,,2456.426700000001,144.0,7.0,2456.426700000001,144.0,,,,2459.9753000000005,2460.4745,2459.4691000000016,2459.9753000000005,2457.4336000000017,2459.4691000000016,2460.4745,2460.9745,2460.9745,2465.3378000000007,3171.0,2465.3378000000007,5.0,2465.3441000000016,7.0,15.0,225.0,26.0,1.0,1.0,0.7,Time
,,S66,1,男,20,anonymized,Serial_Dependence_U,2023.2.3,Win32,144.92753623170066,,,,,,2465.3443000000007,337.0,7.0,2465.3443000000007,337.0,,,,2468.8786000000014,2469.377300000001,2468.3776000000016,2468.8786000000014,2466.344200000001,2468.3774000000003,2469.377300000001,2469.877300000001,2469.877300000001,2472.872300000001,2590.0,2472.872300000001,5.0,2472.878200000001,7.0,16.0,226.0,6.0,1.0,1.0,0.7,Time
,,S66,1,男,20,anonymized,Serial_Dependence_U,2023.2.3,Win32,144.92753623170066,,,,,,2472.8783000000008,226.0,7.0,2472.8785,226.0,,,,2476.2201000000014,2476.7176000000013,2475.719,2476.22,2473.8811000000014,2475.719,2476.7176000000013,2477.2176000000013,2477.2176000000013,2482.139200000001,3718.0,2482.1393000000007,5.0,2482.1454000000003,7.0,17.0,227.0,15.0,1.0,0.8,0.7,Time
,,S66,1,男,20,anonymized,Serial_Dependence_U,2023.2.3,Win32,144.92753623170066,,,,,,2482.1456000000017,177.0,7.0,2482.145700000001,177.0,,,,2486.2874,2486.787,2485.780400000001,2486.287300000001,2483.1484000000005,2485.780400000001,2486.787,2487.2871000000014,2487.2871000000014,2491.8916000000013,3951.0,2491.8916000000013,5.0,2491.8978000000006,7.0,18.0,228.0,9.0,1.0,1.6,0.7,Time
,,S66,1,男,20,anonymized,Serial_Dependence_U,2023.2.3,Win32,144.92753623170066,,,,,,2491.8979000000004,66.0,7.0,2491.8979000000004,66.0,,,,2495.641800000001,2496.1385,2495.134700000001,2495.641700000001,2492.8985,2495.1345,2496.1385,2496.6343000000006,2496.6343000000006,2511.6924000000004,3397.0,2511.6924000000004,5.0,2511.698600000001,7.0,19.0,229.0,7.0,1.0,1.2,0.7,Time
,,S66,1,男,20,anonymized,Serial_Dependence_U,2023.2.3,Win32,144.92753623170066,,,,,,2511.6987000000013,194.0,7.0,2511.6988000000006,194.0,,,,2515.268600000001,2515.766,2514.767600000001,2515.268600000001,2512.7009000000003,2514.767600000001,2515.766,2516.2671000000014,2516.2671000000014,2520.220200000001,3112.0,2520.220300000001,5.0,2520.2265,7.0,20.0,230.0,11.0,1.0,1.0,0.3,Time
,,S66,1,男,20,anonymized,Serial_Dependence_U,2023.2.3,Win32,144.92753623170066,,,,,,2520.2266000000013,251.0,7.0,2520.226700000001,251.0,,,,2523.9648000000007,2524.4606000000013,2523.462,2523.964700000001,2521.227200000001,2523.462,2524.4606000000013,2524.9606000000013,2524.9606000000013,2529.1225,3813.0,2529.1225,5.0,2529.128700000001,7.0,21.0,231.0,27.0,1.0,1.2,0.7,Time
,,S66,1,男,20,anonymized,Serial_Dependence_U,2023.2.3,Win32,144.92753623170066,,,,,,2529.1289,228.0,7.0,2529.1289,228.0,,,,2532.871700000001,2533.3703000000005,2532.367800000001,2532.871700000001,2530.129100000001,2532.367700000001,2533.3703000000005,2533.871200000001,2533.871200000001,2537.5763000000006,3323.0,2537.5764000000004,5.0,2537.5825,7.0,22.0,232.0,17.0,1.0,1.2,0.7,Time
,,S66,1,男,20,anonymized,Serial_Dependence_U,2023.2.3,Win32,144.92753623170066,,,,,,2537.5827000000013,152.0,7.0,2537.5827000000013,152.0,,,,2541.5518000000006,2542.0509,2541.0456000000013,2541.5518000000006,2538.5789000000004,2541.0456000000013,2542.0509,2542.5509,2542.5509,2545.8915,2973.0,2545.8915,5.0,2545.897700000001,7.0,23.0,233.0,3.0,1.0,1.4,0.3,Time
,,S66,1,男,20,anonymized,Serial_Dependence_U,2023.2.3,Win32,144.92753623170066,,,,,,2545.8979000000004,232.0,7.0,2545.898,232.0,,,,2549.6703000000007,2550.169,2549.166,2549.670200000001,2546.9021000000016,2549.166,2550.169,2550.6689,2550.6689,2554.1714,3019.0,2554.1715,5.0,2554.177700000001,7.0,24.0,234.0,22.0,1.0,1.2,0.3,Time
,,S66,1,男,20,anonymized,Serial_Dependence_U,2023.2.3,Win32,144.92753623170066,,,,,,2554.1779,305.0,7.0,2554.178,305.0,,,,2558.344,2558.8425,2557.8398000000007,2558.344,2555.1776000000013,2557.839700000001,2558.8425,2559.3426000000013,2559.3426000000013,2563.7279000000003,3750.0,2563.728,5.0,2563.734200000001,7.0,25.0,235.0,4.0,1.0,1.6,0.3,Time
,,S66,1,男,20,anonymized,Serial_Dependence_U,2023.2.3,Win32,144.92753623170066,,,,,,2563.7343000000005,322.0,7.0,2563.7343000000005,322.0,,,,2567.103700000001,2567.602800000001,2566.6003000000005,2567.1036000000013,2564.7353000000007,2566.600200000001,2567.6029000000003,2568.0995,2568.0995,2571.948600000001,3396.0,2571.948600000001,5.0,2571.954700000001,7.0,26.0,236.0,0.0,1.0,0.8,0.3,Time
,,S66,1,男,20,anonymized,Serial_Dependence_U,2023.2.3,Win32,144.92753623170066,,,,,,2571.954800000001,10.0,7.0,2571.9549,10.0,,,,2576.122,2576.6203000000005,2575.621800000001,2576.122,2572.957200000001,2575.621800000001,2576.6203000000005,2577.1203000000005,2577.1203000000005,2581.990300000001,4405.0,2581.990300000001,5.0,2581.996700000001,7.0,27.0,237.0,14.0,1.0,1.6,0.3,Time
,,S66,1,男,20,anonymized,Serial_Dependence_U,2023.2.3,Win32,144.92753623170066,,,,,,2581.996900000001,245.0,7.0,2581.996900000001,245.0,,,,2585.5734,2586.072700000001,2585.0685,2585.573300000001,2583.003800000001,2585.0685,2586.072700000001,2586.5726000000013,2586.5726000000013,2590.0665,3111.0,2590.066600000001,5.0,2590.072700000001,7.0,28.0,238.0,1.0,1.0,1.0,0.3,Time
,,S66,1,男,20,anonymized,Serial_Dependence_U,2023.2.3,Win32,144.92753623170066,,,,,,2590.072800000001,14.0,7.0,2590.072800000001,14.0,,,,2593.4485,2593.9468000000006,2592.9415,2593.4484,2591.080200000001,2592.9415,2593.9468000000006,2594.4466000000016,2594.446700000001,2598.198600000001,3082.0,2598.198600000001,5.0,2598.204700000001,7.0,29.0,239.0,10.0,1.0,0.8,0.3,Time
,,S66,1,男,20,anonymized,Serial_Dependence_U,2023.2.3,Win32,144.92753623170066,,,,,,2598.2049,211.0,8.0,2600.1065,211.0,s,1.8949000000002345,,2603.451,2603.95,2602.941300000001,2603.4509000000003,2601.109,2602.941200000001,2603.95,2604.446700000001,2604.446700000001,2608.268,3354.0,2608.2681000000016,5.0,2608.274200000001,8.0,0.0,240.0,15.0,1.0,0.8,0.7,Time
,,S66,1,男,20,anonymized,Serial_Dependence_U,2023.2.3,Win32,144.92753623170066,,,,,,2608.2743000000005,332.0,8.0,2608.275,332.0,,,,2611.8464000000004,2612.3426000000013,2611.338200000001,2611.8463000000006,2609.2748000000006,2611.3381000000013,2612.3426000000013,2612.8425,2612.8425,2616.7961000000014,3609.0,2616.796200000001,5.0,2616.802200000001,8.0,1.0,241.0,11.0,1.0,1.0,0.3,Time
,,S66,1,男,20,anonymized,Serial_Dependence_U,2023.2.3,Win32,144.92753623170066,,,,,,2616.8025,69.0,8.0,2616.8025,69.0,,,,2620.969200000001,2621.4676000000013,2620.4685,2620.969200000001,2617.8051000000014,2620.4685,2621.4676000000013,2621.9676000000013,2621.9676000000013,2627.1025,4625.0,2627.102600000001,5.0,2627.1089,8.0,2.0,242.0,4.0,1.0,1.6,0.3,Time
,,S66,1,男,20,anonymized,Serial_Dependence_U,2023.2.3,Win32,144.92753623170066,,,,,,2627.109,244.0,8.0,2627.109200000001,244.0,,,,2631.079,2631.5786000000016,2630.5765,2631.079,2628.110200000001,2630.5765,2631.5786000000016,2632.0786000000016,2632.0786000000016,2635.7435,3302.0,2635.7436000000016,5.0,2635.749700000001,8.0,3.0,243.0,13.0,1.0,1.4,0.3,Time
,,S66,1,男,20,anonymized,Serial_Dependence_U,2023.2.3,Win32,144.92753623170066,,,,,,2635.7498000000005,117.0,8.0,2635.7498000000005,117.0,,,,2639.322100000001,2639.8219000000004,2638.8151000000016,2639.322100000001,2636.752700000001,2638.815,2639.8219000000004,2640.3219000000004,2640.3219000000004,2643.842900000001,3215.0,2643.843,5.0,2643.849800000001,8.0,4.0,244.0,21.0,1.0,1.0,0.3,Time
,,S66,1,男,20,anonymized,Serial_Dependence_U,2023.2.3,Win32,144.92753623170066,,,,,,2643.850100000001,289.0,8.0,2643.850100000001,289.0,,,,2647.217900000001,2647.7176000000013,2646.7111000000014,2647.217800000001,2644.8499,2646.711,2647.7176000000013,2648.2176000000013,2648.2176000000013,2652.162200000001,3751.0,2652.162300000001,5.0,2652.1684000000005,8.0,5.0,245.0,0.0,1.0,0.8,0.3,Time
,,S66,1,男,20,anonymized,Serial_Dependence_U,2023.2.3,Win32,144.92753623170066,,,,,,2652.1686000000013,348.0,8.0,2652.168700000001,348.0,,,,2656.315200000001,2656.814800000001,2655.8084000000003,2656.3151000000016,2653.176200000001,2655.8083000000006,2656.814800000001,2657.314800000001,2657.314800000001,2661.6694,3951.0,2661.6694,5.0,2661.6756000000014,8.0,6.0,246.0,29.0,1.0,1.6,0.7,Time
,,S66,1,男,20,anonymized,Serial_Dependence_U,2023.2.3,Win32,144.92753623170066,,,,,,2661.675800000001,216.0,8.0,2661.676,216.0,,,,2665.4195,2665.919,2664.9125,2665.4195,2662.6763000000005,2664.9124,2665.919,2666.4189,2666.4189,2670.217800000001,3078.0,2670.217800000001,5.0,2670.224,8.0,7.0,247.0,17.0,1.0,1.2,0.7,Time
,,S66,1,男,20,anonymized,Serial_Dependence_U,2023.2.3,Win32,144.92753623170066,,,,,,2670.224200000001,192.0,8.0,2670.224200000001,192.0,,,,2673.573300000001,2674.073300000001,2673.0668000000005,2673.573300000001,2671.231800000001,2673.066700000001,2674.073300000001,2674.5735,2674.5735,2678.379200000001,3249.0,2678.379200000001,5.0,2678.385300000001,8.0,8.0,248.0,5.0,1.0,0.8,0.7,Time
,,S66,1,男,20,anonymized,Serial_Dependence_U,2023.2.3,Win32,144.92753623170066,,,,,,2678.3855,116.0,8.0,2678.3855,116.0,,,,2682.562100000001,2683.0588000000007,2682.0526000000013,2682.562100000001,2679.3865,2682.0525,2683.0588000000007,2683.558700000001,2683.558700000001,2687.802800000001,3632.0,2687.802800000001,5.0,2687.809,8.0,9.0,249.0,14.0,1.0,1.6,0.3,Time
,,S66,1,男,20,anonymized,Serial_Dependence_U,2023.2.3,Win32,144.92753623170066,,,,,,2687.8091000000013,39.0,8.0,2687.809200000001,39.0,,,,2691.552100000001,2692.0509,2691.045700000001,2691.552100000001,2688.815200000001,2691.045700000001,2692.051,2692.5509,2692.5509,2696.8041000000017,3747.0,2696.8041000000017,5.0,2696.810100000001,8.0,10.0,250.0,27.0,1.0,1.2,0.7,Time
,,S66,1,男,20,anonymized,Serial_Dependence_U,2023.2.3,Win32,144.92753623170066,,,,,,2696.810300000001,124.0,8.0,2696.8104000000003,124.0,,,,2700.1784,2700.6759,2699.6704000000004,2700.1784,2697.808200000001,2699.6704000000004,2700.6759,2701.1759,2701.1759,2705.275200000001,3555.0,2705.275200000001,5.0,2705.2814000000003,8.0,11.0,251.0,10.0,1.0,0.8,0.3,Time
,,S66,1,男,20,anonymized,Serial_Dependence_U,2023.2.3,Win32,144.92753623170066,,,,,,2705.2816000000016,348.0,8.0,2705.2816000000016,348.0,,,,2708.823300000001,2709.3218000000006,2708.316300000001,2708.823300000001,2706.2818000000007,2708.316300000001,2709.3218000000006,2709.8218000000006,2709.8218000000006,2713.401300000001,2790.0,2713.4014,5.0,2713.4075,8.0,12.0,252.0,6.0,1.0,1.0,0.7,Time
,,S66,1,男,20,anonymized,Serial_Dependence_U,2023.2.3,Win32,144.92753623170066,,,,,,2713.4076000000014,240.0,8.0,2713.407800000001,240.0,,,,2717.342800000001,2717.846200000001,2716.837,2717.342800000001,2714.406300000001,2716.837,2717.846200000001,2718.3461000000016,2718.3461000000016,2722.9283000000005,4199.0,2722.9283000000005,5.0,2722.9346000000014,8.0,13.0,253.0,28.0,1.0,1.4,0.7,Time
,,S66,1,男,20,anonymized,Serial_Dependence_U,2023.2.3,Win32,144.92753623170066,,,,,,2722.934700000001,172.0,8.0,2722.934700000001,172.0,,,,2726.872,2727.3704,2726.3648000000007,2726.872,2723.934300000001,2726.3648000000007,2727.3704,2727.8704,2727.8704,2732.3863000000006,4074.0,2732.3863000000006,5.0,2732.3925,8.0,14.0,254.0,18.0,1.0,1.4,0.7,Time
