Scale_setup.started,Scale_setup.stopped,participant,session,sex,age,date,expName,psychopyVersion,OS,frameRate,Intro.started,Intro.stopped,key_resp_2.keys,key_resp_2.rt,key_resp_2.duration,block.started,direction,Block_id,block.stopped,trial_direction,Block_resp_2.keys,Block_resp_2.rt,Block_resp_2.duration,ITI.started,ITI.stopped,Mask_2.started,Mask_2.stopped,encoding.started,encoding.stopped,Cue.started,Cue.stopped,Response.started,Response.stopped,keyDuration,Feedback_Time.started,FeedbackID_T,Feedback_Time.stopped,trials.thisRepN,trials.thisTrialN,trials.thisN,trials.thisIndex,trials.ran,TimeDur,Coherence1,TrialType
9.99999642203e-05,0.0002999999523467,S67,1,男,21,anonymized,Serial_Dependence_U,2023.2.3,Win32,15.015015015020264,,,,,,,,,,,,,,,,,,,,,,,,,,,,,,,,,,,
,,S67,1,男,21,anonymized,Serial_Dependence_U,2023.2.3,Win32,15.015015015020264,194.3017999999524,267.1337999999524,space,72.69009999996422,,,,,,,,,,,,,,,,,,,,,,,,,,,,,,,
,,S67,1,男,21,anonymized,Serial_Dependence_U,2023.2.3,Win32,15.015015015020264,,,,,,267.1438999999762,261.0,0.0,298.8686999999881,261.0,s,31.625999999999976,,302.8772999999523,303.28019999998804,302.32009999996427,302.8770999999643,299.8292999999523,302.32,303.2802999999523,303.685,303.6852999999523,317.3985,4519.0,317.3986999999881,5.0,318.3798999999762,0.0,0.0,0.0,8.0,1.0,1.4,0.7,Time
,,S67,1,男,21,anonymized,Serial_Dependence_U,2023.2.3,Win32,15.015015015020264,,,,,,318.3805999999642,138.0,0.0,318.38169999998814,138.0,,,,322.36509999996423,322.7665999999643,321.81209999996423,322.36509999996423,319.325,321.81209999996423,322.7665999999643,323.2945999999642,323.2945999999642,331.117,6446.0,331.1170999999643,5.0,332.06159999996424,0.0,1.0,1.0,28.0,1.0,1.4,0.7,Time
,,S67,1,男,21,anonymized,Serial_Dependence_U,2023.2.3,Win32,15.015015015020264,,,,,,332.0617999999524,25.0,0.0,332.0618999999762,25.0,,,,335.7650999999642,336.28879999995235,335.21,335.76500000000004,333.0207999999523,335.20989999997613,336.28879999995235,336.81889999997617,336.81889999997617,348.68559999996427,6142.0,348.68559999996427,5.0,349.636,0.0,2.0,2.0,1.0,1.0,1.0,0.3,Time
,,S67,1,男,21,anonymized,Serial_Dependence_U,2023.2.3,Win32,15.015015015020264,,,,,,349.6362999999523,236.0,0.0,349.63639999997616,236.0,,,,353.47559999996423,353.87339999997613,352.9271999999881,353.47559999996423,350.58609999996423,352.9271999999881,353.87339999997613,354.27569999998803,354.27569999998803,361.9675999999642,6595.0,361.967699999988,5.0,362.9222999999524,0.0,3.0,3.0,7.0,1.0,1.2,0.7,Time
,,S67,1,男,21,anonymized,Serial_Dependence_U,2023.2.3,Win32,15.015015015020264,,,,,,362.9225999999642,242.0,0.0,362.9226999999881,242.0,,,,366.6037999999523,367.1372999999523,366.05,366.6036999999881,363.9858999999762,366.04989999997616,367.1372999999523,367.6676999999881,367.6677999999524,375.8805,7253.0,375.8805999999642,5.0,376.84600000000006,0.0,4.0,4.0,16.0,1.0,1.0,0.7,Time
,,S67,1,男,21,anonymized,Serial_Dependence_U,2023.2.3,Win32,15.015015015020264,,,,,,376.8461999999881,22.0,0.0,376.8463999999762,22.0,,,,380.8162999999524,381.2252999999524,380.2585,380.8161999999881,377.925,380.2585,381.2252999999524,381.7581999999881,381.7582999999522,389.7247999999524,6727.0,389.7248999999761,5.0,390.6780999999642,0.0,5.0,5.0,12.0,1.0,1.2,0.3,Time
,,S67,1,男,21,anonymized,Serial_Dependence_U,2023.2.3,Win32,15.015015015020264,,,,,,390.6783999999762,331.0,0.0,390.6785999999642,331.0,,,,394.6141999999881,395.1478999999761,394.0558999999761,394.614,391.7475,394.0556999999881,395.1478999999761,395.5485999999642,395.5485999999642,403.3398999999761,6015.0,403.34,5.0,404.28659999996427,0.0,6.0,6.0,2.0,1.0,1.2,0.3,Time
,,S67,1,男,21,anonymized,Serial_Dependence_U,2023.2.3,Win32,15.015015015020264,,,,,,404.2867999999523,158.0,0.0,404.2868999999761,158.0,,,,407.8501999999881,408.376,407.29139999997614,407.85,405.3752999999524,407.2911999999881,408.376,408.8988999999762,408.8988999999762,437.0203999999762,3719.0,437.0205999999643,5.0,437.9822999999523,0.0,7.0,7.0,20.0,1.0,0.8,0.3,Time
,,S67,1,男,21,anonymized,Serial_Dependence_U,2023.2.3,Win32,15.015015015020264,,,,,,437.9825,50.0,0.0,437.9825999999643,50.0,,,,442.0695,442.4722999999523,441.5220999999642,442.06939999997616,439.0558999999761,441.522,442.4722999999523,443.00689999997616,443.00689999997616,453.4072999999523,4942.0,453.4073999999761,5.0,454.35669999998805,0.0,8.0,8.0,3.0,1.0,1.4,0.3,Time
,,S67,1,男,21,anonymized,Serial_Dependence_U,2023.2.3,Win32,15.015015015020264,,,,,,454.357,138.0,0.0,454.3570999999642,138.0,,,,458.7425999999643,459.1486999999881,458.18489999997615,458.7425999999643,455.4385,458.1847999999523,459.1486999999881,459.682,459.6820999999642,489.5238999999762,4642.0,489.5238999999762,5.0,490.4825999999643,0.0,9.0,9.0,9.0,1.0,1.6,0.7,Time
,,S67,1,男,21,anonymized,Serial_Dependence_U,2023.2.3,Win32,15.015015015020264,,,,,,490.48289999997615,184.0,0.0,490.483,184.0,,,,494.6980999999642,495.1087999999523,494.1587999999524,494.698,491.43329999995234,494.1587999999524,495.1087999999523,495.6362999999523,495.6362999999523,502.8890999999642,6166.0,502.8890999999642,5.0,503.836,0.0,10.0,10.0,14.0,1.0,1.6,0.3,Time
,,S67,1,男,21,anonymized,Serial_Dependence_U,2023.2.3,Win32,15.015015015020264,,,,,,503.8363999999762,315.0,0.0,503.83650000000006,315.0,,,,507.249,507.77479999995234,506.6990999999643,507.2488999999761,504.7730999999642,506.6990999999643,507.77479999995234,508.3050999999643,508.3051999999881,515.6931999999881,6702.0,515.6931999999881,5.0,516.6512999999522,0.0,11.0,11.0,5.0,1.0,0.8,0.7,Time
,,S67,1,男,21,anonymized,Serial_Dependence_U,2023.2.3,Win32,15.015015015020264,,,,,,516.6514999999999,352.0,0.0,516.6517999999523,352.0,,,,520.7460999999641,521.1488999999763,520.1928999999761,520.7460999999641,517.7285999999642,520.1928999999761,521.1488999999763,521.6755,521.6755,530.4195999999642,7655.0,530.4195999999642,5.0,531.3806999999881,0.0,12.0,12.0,18.0,1.0,1.4,0.7,Time
,,S67,1,男,21,anonymized,Serial_Dependence_U,2023.2.3,Win32,15.015015015020264,,,,,,531.3808999999762,127.0,0.0,531.3810000000001,127.0,,,,535.0967999999523,535.6271999999881,534.5362999999522,535.096699999988,532.4594999999999,534.5361999999882,535.6272999999524,536.149199999988,536.1492999999523,543.0038999999763,6173.0,543.0038999999763,5.0,543.9556999999882,0.0,13.0,13.0,21.0,1.0,1.0,0.3,Time
,,S67,1,男,21,anonymized,Serial_Dependence_U,2023.2.3,Win32,15.015015015020264,,,,,,543.9558999999763,236.0,0.0,543.9560999999644,236.0,,,,548.0892999999523,548.623699999988,547.5441999999882,548.0891999999881,545.0411999999881,547.5441999999882,548.6237999999523,549.1612999999525,549.1612999999525,573.386,4127.0,573.3860999999642,5.0,574.3355999999644,0.0,14.0,14.0,13.0,1.0,1.4,0.3,Time
,,S67,1,男,21,anonymized,Serial_Dependence_U,2023.2.3,Win32,15.015015015020264,,,,,,574.3357999999523,123.0,0.0,574.336,123.0,,,,578.3125999999643,578.7232999999524,577.7513999999762,578.3125,575.4117999999523,577.7511999999881,578.7232999999524,579.1423999999763,579.1423999999763,585.5468999999762,5714.0,585.5468999999762,5.0,586.5095000000001,0.0,15.0,15.0,17.0,1.0,1.2,0.7,Time
,,S67,1,男,21,anonymized,Serial_Dependence_U,2023.2.3,Win32,15.015015015020264,,,,,,586.5096999999882,39.0,0.0,586.5097999999523,39.0,,,,590.1932999999524,590.5935999999642,589.6508999999762,590.1930999999643,587.4611999999881,589.6507999999524,590.5936999999881,591.1221999999882,591.1221999999882,595.6155999999644,3809.0,595.6155999999644,5.0,596.5645000000002,0.0,16.0,16.0,11.0,1.0,1.0,0.3,Time
,,S67,1,男,21,anonymized,Serial_Dependence_U,2023.2.3,Win32,15.015015015020264,,,,,,596.5647999999524,105.0,0.0,596.5648999999762,105.0,,,,600.123,600.5207999999525,599.5755000000001,600.123,597.5166999999881,599.5752999999524,600.5208999999763,601.0491999999881,601.0492999999524,606.2523999999762,4653.0,606.2523999999762,5.0,607.2016999999883,0.0,17.0,17.0,26.0,1.0,1.0,0.7,Time
,,S67,1,男,21,anonymized,Serial_Dependence_U,2023.2.3,Win32,15.015015015020264,,,,,,607.202,94.0,0.0,607.202,94.0,,,,610.7988999999761,611.2016999999883,610.2503999999763,610.7987999999523,608.2856999999881,610.2502999999524,611.2017999999523,611.7252999999523,611.7252999999523,619.1207999999524,6566.0,619.1208999999762,5.0,620.0666999999883,0.0,18.0,18.0,10.0,1.0,0.8,0.3,Time
,,S67,1,男,21,anonymized,Serial_Dependence_U,2023.2.3,Win32,15.015015015020264,,,,,,620.067,117.0,0.0,620.0670999999643,117.0,,,,624.0443999999761,624.5740000000001,623.4945999999643,624.0443999999761,621.1371999999881,623.4945,624.5740000000001,625.1003999999762,625.1005,643.1182999999523,5063.0,643.1183999999762,5.0,644.0705,0.0,19.0,19.0,22.0,1.0,1.2,0.3,Time
,,S67,1,男,21,anonymized,Serial_Dependence_U,2023.2.3,Win32,15.015015015020264,,,,,,644.0706999999882,308.0,0.0,644.0707999999524,308.0,,,,648.0305999999644,648.4352999999523,647.4837999999525,648.0305000000001,645.1390999999644,647.4837999999525,648.4353999999762,648.8398999999763,648.8400000000001,654.6055999999644,4386.0,654.6055999999644,5.0,655.5608999999763,0.0,20.0,20.0,27.0,1.0,1.2,0.7,Time
,,S67,1,男,21,anonymized,Serial_Dependence_U,2023.2.3,Win32,15.015015015020264,,,,,,655.561199999988,195.0,0.0,655.5612999999523,195.0,,,,659.1095999999643,659.6385,658.5630999999644,659.1095,656.6256999999882,658.5628999999763,659.6385,660.1557999999525,660.1558999999763,704.7707999999525,5063.0,704.7708999999763,5.0,705.7320999999642,0.0,21.0,21.0,15.0,1.0,0.8,0.7,Time
,,S67,1,男,21,anonymized,Serial_Dependence_U,2023.2.3,Win32,15.015015015020264,,,,,,705.7325000000001,93.0,0.0,705.7326999999882,93.0,,,,710.0973999999762,710.6286999999882,709.5441999999882,710.0973999999762,706.8001999999881,709.5440999999644,710.6286999999882,711.0260000000001,711.0260000000001,717.2016999999883,5351.0,717.2016999999883,5.0,718.1528999999762,0.0,22.0,22.0,24.0,1.0,1.6,0.3,Time
,,S67,1,男,21,anonymized,Serial_Dependence_U,2023.2.3,Win32,15.015015015020264,,,,,,718.1530999999643,147.0,0.0,718.1531999999881,147.0,,,,722.3681999999881,722.7767999999523,721.8187999999525,722.3680999999642,719.2252999999523,721.8186999999882,722.7768999999762,723.1785999999643,723.1785999999643,729.7583999999763,4530.0,729.7585000000001,5.0,730.7055999999643,0.0,23.0,23.0,23.0,1.0,1.4,0.3,Time
,,S67,1,男,21,anonymized,Serial_Dependence_U,2023.2.3,Win32,15.015015015020264,,,,,,730.7058999999763,343.0,0.0,730.7058999999763,343.0,,,,734.4335000000001,734.9605000000001,733.8815,734.4335000000001,731.7838999999763,733.8813999999763,734.9605999999644,735.4933999999762,735.4935999999643,742.7320999999642,6418.0,742.7321999999881,5.0,743.6812999999524,0.0,24.0,24.0,6.0,1.0,1.0,0.7,Time
,,S67,1,男,21,anonymized,Serial_Dependence_U,2023.2.3,Win32,15.015015015020264,,,,,,743.6815999999642,207.0,0.0,743.681699999988,207.0,,,,748.0361999999882,748.5647999999524,747.4886999999881,748.0360999999643,744.7470000000001,747.4886999999881,748.5647999999524,748.9668999999762,748.9668999999762,761.6843999999762,12027.0,761.6845000000001,5.0,762.6311999999882,0.0,25.0,25.0,29.0,1.0,1.6,0.7,Time
,,S67,1,男,21,anonymized,Serial_Dependence_U,2023.2.3,Win32,15.015015015020264,,,,,,762.6315,83.0,0.0,762.6315999999642,83.0,,,,767.0126999999882,767.4176999999881,766.4602999999524,767.0126999999882,763.6973999999761,766.4602999999524,767.4176999999881,767.9416999999883,767.9416999999883,778.0552999999525,8611.0,778.0553999999763,5.0,779.0120000000002,0.0,26.0,26.0,4.0,1.0,1.6,0.3,Time
,,S67,1,男,21,anonymized,Serial_Dependence_U,2023.2.3,Win32,15.015015015020264,,,,,,779.0122999999523,73.0,0.0,779.0123999999762,73.0,,,,782.5438999999762,782.950699999988,781.9945,782.5436999999881,780.0853999999763,781.9945,782.9507999999523,783.3567999999523,783.3568999999761,923.3697999999524,4431.0,923.3698999999764,5.0,924.316,0.0,27.0,27.0,25.0,1.0,0.8,0.7,Time
,,S67,1,男,21,anonymized,Serial_Dependence_U,2023.2.3,Win32,15.015015015020264,,,,,,924.3162999999524,106.0,0.0,924.3163999999764,106.0,,,,928.6950999999642,929.2236999999882,928.1385,928.6950000000002,925.3791999999884,928.1383999999762,929.2236999999882,929.7528999999764,929.7528999999764,937.5255999999642,6825.0,937.5255999999642,5.0,938.4916999999882,0.0,28.0,28.0,19.0,1.0,1.6,0.7,Time
,,S67,1,男,21,anonymized,Serial_Dependence_U,2023.2.3,Win32,15.015015015020264,,,,,,938.491899999976,23.0,0.0,938.4920999999642,23.0,,,,942.0523999999762,942.5805,941.5022999999524,942.0522999999524,939.5800999999642,941.5022999999524,942.5805,942.9806999999882,942.9806999999882,949.9233999999764,6541.0,949.9233999999764,5.0,950.8770000000002,0.0,29.0,29.0,0.0,1.0,0.8,0.3,Time
,,S67,1,男,21,anonymized,Serial_Dependence_U,2023.2.3,Win32,15.015015015020264,,,,,,950.8772999999524,255.0,1.0,985.0760999999644,255.0,s,34.11099999999988,,988.5192999999524,988.9195999999642,987.9693999999764,988.5192999999524,986.0335999999644,987.9692999999525,988.9195999999642,989.443199999988,989.4432999999524,995.9983999999764,5736.0,995.9985,5.0,996.0038999999764,1.0,0.0,30.0,20.0,1.0,0.8,0.3,Time
,,S67,1,男,21,anonymized,Serial_Dependence_U,2023.2.3,Win32,15.015015015020264,,,,,,996.0040999999644,336.0,1.0,996.0047999999524,336.0,,,,999.8490000000002,1000.2513999999762,999.2927999999524,999.8488999999764,996.9555999999644,999.292699999988,1000.2513999999762,1000.7785,1000.7785,1008.441,5599.0,1008.441,5.0,1008.446699999988,1.0,1.0,31.0,2.0,1.0,1.2,0.3,Time
,,S67,1,男,21,anonymized,Serial_Dependence_U,2023.2.3,Win32,15.015015015020264,,,,,,1008.447,168.0,1.0,1008.447,168.0,,,,1012.2622999999523,1012.6635,1011.7123999999762,1012.2622999999523,1009.3847999999524,1011.7122999999524,1012.6635,1013.0635999999644,1013.0635999999644,1020.0576999999882,6179.0,1020.0577999999524,5.0,1020.0631999999882,1.0,2.0,32.0,27.0,1.0,1.2,0.7,Time
,,S67,1,男,21,anonymized,Serial_Dependence_U,2023.2.3,Win32,15.015015015020264,,,,,,1020.063399999976,332.0,1.0,1020.0635,332.0,,,,1024.4637999999525,1024.9895,1023.9102999999524,1024.4637999999525,1021.15,1023.9101999999882,1024.9895,1025.5150999999644,1025.5150999999644,1039.4703999999765,4812.0,1039.4705,5.0,1039.4761999999882,1.0,3.0,33.0,4.0,1.0,1.6,0.3,Time
,,S67,1,男,21,anonymized,Serial_Dependence_U,2023.2.3,Win32,15.015015015020264,,,,,,1039.4762999999523,236.0,1.0,1039.476399999976,236.0,,,,1043.1673999999762,1043.699,1042.6170999999642,1043.1672999999523,1040.428,1042.617,1043.699,1044.1291999999885,1044.1291999999885,1056.4513999999765,4117.0,1056.4513999999765,5.0,1056.4572999999525,1.0,4.0,34.0,21.0,1.0,1.0,0.3,Time
,,S67,1,男,21,anonymized,Serial_Dependence_U,2023.2.3,Win32,15.015015015020264,,,,,,1056.4575,104.0,1.0,1056.4575,104.0,,,,1060.5695,1061.104699999988,1060.0252999999525,1060.5695,1057.5397999999525,1060.0250999999644,1061.104699999988,1061.6352999999524,1061.6352999999524,1066.5510999999642,4104.0,1066.5510999999642,5.0,1066.5563999999763,1.0,5.0,35.0,18.0,1.0,1.4,0.7,Time
,,S67,1,男,21,anonymized,Serial_Dependence_U,2023.2.3,Win32,15.015015015020264,,,,,,1066.5565999999642,174.0,1.0,1066.556699999988,174.0,,,,1070.1315999999642,1070.6527999999523,1069.5833999999763,1070.1315999999642,1067.5110999999642,1069.5833999999763,1070.6528999999762,1071.0585,1071.0585,1075.1745,3293.0,1075.1745999999644,5.0,1075.1797999999524,1.0,6.0,36.0,6.0,1.0,1.0,0.7,Time
,,S67,1,男,21,anonymized,Serial_Dependence_U,2023.2.3,Win32,15.015015015020264,,,,,,1075.1800999999643,144.0,1.0,1075.1800999999643,144.0,,,,1078.8608999999765,1079.2612999999524,1078.3193999999762,1078.8607999999524,1076.2491999999882,1078.3193999999762,1079.2613999999762,1079.6623999999763,1079.6623999999763,1084.1640999999645,3416.0,1084.164199999988,5.0,1084.1695999999642,1.0,7.0,37.0,16.0,1.0,1.0,0.7,Time
,,S67,1,男,21,anonymized,Serial_Dependence_U,2023.2.3,Win32,15.015015015020264,,,,,,1084.1697999999524,74.0,1.0,1084.1697999999524,74.0,,,,1087.7205,1088.1215999999642,1087.1692999999525,1087.7203999999765,1085.2522999999524,1087.1692999999525,1088.121699999988,1088.650699999988,1088.650699999988,1092.3447999999523,3419.0,1092.3448999999762,5.0,1092.350199999988,1.0,8.0,38.0,15.0,1.0,0.8,0.7,Time
,,S67,1,男,21,anonymized,Serial_Dependence_U,2023.2.3,Win32,15.015015015020264,,,,,,1092.3503999999762,226.0,1.0,1092.3503999999762,226.0,,,,1096.0417999999524,1096.5655999999642,1095.4852999999523,1096.0416999999882,1093.4181999999882,1095.4851999999885,1096.5655999999642,1097.1003999999762,1097.1003999999762,1102.184,4115.0,1102.1840999999642,5.0,1102.1893999999763,1.0,9.0,39.0,11.0,1.0,1.0,0.3,Time
,,S67,1,男,21,anonymized,Serial_Dependence_U,2023.2.3,Win32,15.015015015020264,,,,,,1102.1895999999642,337.0,1.0,1102.189699999988,337.0,,,,1106.1665999999643,1106.5867999999523,1105.6003999999762,1106.1665,1103.2740999999644,1105.6002999999523,1106.5867999999523,1106.9905999999644,1106.9905999999644,1112.3215999999643,4648.0,1112.321699999988,5.0,1112.3270999999645,1.0,10.0,40.0,12.0,1.0,1.2,0.3,Time
,,S67,1,男,21,anonymized,Serial_Dependence_U,2023.2.3,Win32,15.015015015020264,,,,,,1112.3272999999524,279.0,1.0,1112.3273999999765,279.0,,,,1116.71,1117.1115,1116.1665,1116.71,1113.4121999999882,1116.1663999999762,1117.1115,1117.513,1117.513,1123.139399999976,4798.0,1123.139399999976,5.0,1123.1446999999882,1.0,11.0,41.0,24.0,1.0,1.6,0.3,Time
,,S67,1,男,21,anonymized,Serial_Dependence_U,2023.2.3,Win32,15.015015015020264,,,,,,1123.145,107.0,1.0,1123.145,107.0,,,,1126.8288999999763,1127.234199999988,1126.2715,1126.8287999999525,1124.0905999999643,1126.2712999999524,1127.234199999988,1127.7583999999763,1127.7585,1133.2123999999762,4498.0,1133.2125,5.0,1133.2178999999762,1.0,12.0,42.0,1.0,1.0,1.0,0.3,Time
,,S67,1,男,21,anonymized,Serial_Dependence_U,2023.2.3,Win32,15.015015015020264,,,,,,1133.2180999999644,267.0,1.0,1133.2181999999882,267.0,,,,1137.5820999999644,1137.987,1137.0245,1137.582,1134.2967999999523,1137.0245,1137.987,1138.3902999999525,1138.3902999999525,1144.2630999999642,5055.0,1144.2630999999642,5.0,1144.2685,1.0,13.0,43.0,29.0,1.0,1.6,0.7,Time
,,S67,1,男,21,anonymized,Serial_Dependence_U,2023.2.3,Win32,15.015015015020264,,,,,,1144.2686999999885,23.0,1.0,1144.2686999999885,23.0,,,,1148.6323999999763,1149.160699999988,1148.0872999999524,1148.6322999999525,1145.338199999988,1148.0872999999524,1149.160699999988,1149.6881999999882,1149.6881999999882,1155.8277999999525,4486.0,1155.8277999999525,5.0,1155.8335,1.0,14.0,44.0,9.0,1.0,1.6,0.7,Time
,,S67,1,男,21,anonymized,Serial_Dependence_U,2023.2.3,Win32,15.015015015020264,,,,,,1155.833699999988,25.0,1.0,1155.8337999999524,25.0,,,,1159.8150999999643,1160.3430999999644,1159.267699999988,1159.815,1156.7816999999882,1159.267699999988,1160.3430999999644,1160.8693999999762,1160.8693999999762,1165.7952999999525,4110.0,1165.7952999999525,5.0,1165.8005999999643,1.0,15.0,45.0,3.0,1.0,1.4,0.3,Time
,,S67,1,男,21,anonymized,Serial_Dependence_U,2023.2.3,Win32,15.015015015020264,,,,,,1165.8008999999763,36.0,1.0,1165.8008999999763,36.0,,,,1170.067199999988,1170.4705,1169.5168999999762,1170.067199999988,1166.8687999999524,1169.5167999999524,1170.4705,1171.0010999999645,1171.001199999988,1176.8867999999525,5063.0,1176.8868999999763,5.0,1176.8920999999643,1.0,16.0,46.0,19.0,1.0,1.6,0.7,Time
,,S67,1,男,21,anonymized,Serial_Dependence_U,2023.2.3,Win32,15.015015015020264,,,,,,1176.8922999999525,227.0,1.0,1176.8925000000002,227.0,,,,1180.7655999999645,1181.1690999999644,1180.2180999999644,1180.7655,1177.9765999999645,1180.2180999999644,1181.1691999999882,1181.5706999999882,1181.5707999999524,1187.929699999988,4799.0,1187.929699999988,5.0,1187.9348999999763,1.0,17.0,47.0,17.0,1.0,1.2,0.7,Time
,,S67,1,男,21,anonymized,Serial_Dependence_U,2023.2.3,Win32,15.015015015020264,,,,,,1187.935199999988,266.0,1.0,1187.9352999999523,266.0,,,,1192.0285,1192.5562999999524,1191.4705999999644,1192.0283999999765,1189.0065999999642,1191.4705,1192.5562999999524,1192.9570999999644,1192.9571999999882,1199.5245999999645,5199.0,1199.5245999999645,5.0,1199.5302999999524,1.0,18.0,48.0,28.0,1.0,1.4,0.7,Time
,,S67,1,男,21,anonymized,Serial_Dependence_U,2023.2.3,Win32,15.015015015020264,,,,,,1199.5305999999644,29.0,1.0,1199.5306999999882,29.0,,,,1203.3593999999762,1203.7605999999644,1202.8028999999765,1203.3592999999523,1200.4748999999763,1202.8027999999524,1203.7605999999644,1204.1610999999643,1204.1610999999643,1210.338,5223.0,1210.3380999999642,5.0,1210.3432999999525,1.0,19.0,49.0,7.0,1.0,1.2,0.7,Time
,,S67,1,男,21,anonymized,Serial_Dependence_U,2023.2.3,Win32,15.015015015020264,,,,,,1210.3435999999642,191.0,1.0,1210.343699999988,191.0,,,,1214.611699999988,1215.1427999999523,1214.0583999999762,1214.6115999999645,1211.2910000000002,1214.0583999999762,1215.1427999999523,1215.5445999999642,1215.5445999999642,1224.024399999976,3982.0,1224.024399999976,5.0,1224.0302999999524,1.0,20.0,50.0,14.0,1.0,1.6,0.3,Time
,,S67,1,男,21,anonymized,Serial_Dependence_U,2023.2.3,Win32,15.015015015020264,,,,,,1224.0305,302.0,1.0,1224.0305999999644,302.0,,,,1228.128199999988,1228.6570000000002,1227.5750999999643,1228.128199999988,1224.980899999976,1227.5750999999643,1228.6570000000002,1229.0560999999643,1229.0560999999643,1234.4230999999645,4558.0,1234.423199999988,5.0,1234.4285,1.0,21.0,51.0,23.0,1.0,1.4,0.3,Time
,,S67,1,男,21,anonymized,Serial_Dependence_U,2023.2.3,Win32,15.015015015020264,,,,,,1234.428699999988,138.0,1.0,1234.428699999988,138.0,,,,1238.4207999999524,1238.9505999999642,1237.8700999999644,1238.420699999988,1235.3840999999643,1237.8700999999644,1238.9505999999642,1239.3508999999765,1239.351,1245.5237999999524,4928.0,1245.5238999999765,5.0,1245.5290999999645,1.0,22.0,52.0,13.0,1.0,1.4,0.3,Time
,,S67,1,男,21,anonymized,Serial_Dependence_U,2023.2.3,Win32,15.015015015020264,,,,,,1245.5292999999524,257.0,1.0,1245.5293999999762,257.0,,,,1248.9605,1249.371,1248.406199999988,1248.9603999999763,1246.485,1248.4060999999642,1249.371,1249.8987999999524,1249.8987999999524,1255.7896999999882,5206.0,1255.7896999999882,5.0,1255.795,1.0,23.0,53.0,25.0,1.0,0.8,0.7,Time
,,S67,1,男,21,anonymized,Serial_Dependence_U,2023.2.3,Win32,15.015015015020264,,,,,,1255.7951999999882,199.0,1.0,1255.7951999999882,199.0,,,,1259.7588999999762,1260.167699999988,1259.2135,1259.7588999999762,1256.8705,1259.2135,1260.167699999988,1260.6960999999644,1260.6960999999644,1265.3263999999765,4498.0,1265.3265,5.0,1265.332,1.0,24.0,54.0,22.0,1.0,1.2,0.3,Time
,,S67,1,男,21,anonymized,Serial_Dependence_U,2023.2.3,Win32,15.015015015020264,,,,,,1265.3321999999882,119.0,1.0,1265.332399999976,119.0,,,,1268.873,1269.3973999999762,1268.3200000000002,1268.8728999999762,1266.4001999999882,1268.3200000000002,1269.3975,1269.927199999988,1269.927199999988,1276.058199999988,5028.0,1276.058199999988,5.0,1276.063699999988,1.0,25.0,55.0,0.0,1.0,0.8,0.3,Time
,,S67,1,男,21,anonymized,Serial_Dependence_U,2023.2.3,Win32,15.015015015020264,,,,,,1276.064,41.0,1.0,1276.0640999999644,41.0,,,,1279.749,1280.1533999999765,1279.1985999999642,1279.7488999999762,1277.1345,1279.1985,1280.1533999999765,1280.6815,1280.6815,1285.2035999999644,3566.0,1285.2035999999644,5.0,1285.209,1.0,26.0,56.0,26.0,1.0,1.0,0.7,Time
,,S67,1,男,21,anonymized,Serial_Dependence_U,2023.2.3,Win32,15.015015015020264,,,,,,1285.2091999999882,174.0,1.0,1285.2091999999882,174.0,,,,1288.757,1289.288899999976,1288.2010999999643,1288.7568999999762,1286.278,1288.2008999999762,1289.288899999976,1289.8166999999885,1289.8167999999523,1336.121,3415.0,1336.121,5.0,1336.1266999999882,1.0,27.0,57.0,5.0,1.0,0.8,0.7,Time
,,S67,1,男,21,anonymized,Serial_Dependence_U,2023.2.3,Win32,15.015015015020264,,,,,,1336.1267999999525,268.0,1.0,1336.1268999999763,268.0,,,,1339.5492999999524,1339.9516999999885,1338.996399999976,1339.549199999988,1337.0731999999882,1338.9962999999525,1339.9516999999885,1340.4757999999524,1340.4757999999524,1344.0237999999524,2725.0,1344.0237999999524,5.0,1344.0290999999645,1.0,28.0,58.0,10.0,1.0,0.8,0.3,Time
,,S67,1,男,21,anonymized,Serial_Dependence_U,2023.2.3,Win32,15.015015015020264,,,,,,1344.0292999999524,73.0,1.0,1344.0292999999524,73.0,,,,1348.0135999999643,1348.418699999988,1347.4643999999762,1348.0135,1344.9772999999525,1347.4643999999762,1348.418699999988,1348.955199999988,1348.955199999988,1353.6147999999523,3296.0,1353.6147999999523,5.0,1353.6201999999882,1.0,29.0,59.0,8.0,1.0,1.4,0.7,Time
,,S67,1,男,21,anonymized,Serial_Dependence_U,2023.2.3,Win32,15.015015015020264,,,,,,1353.6205,33.0,2.0,1357.9817999999525,33.0,s,4.271800000011808,,1361.5431999999882,1361.9458999999763,1360.9913999999762,1361.5431999999882,1359.0545999999642,1360.9912999999524,1361.9458999999763,1362.48,1362.48,1366.3077999999523,2862.0,1366.3083999999762,5.0,1366.3135999999645,2.0,0.0,60.0,0.0,1.0,0.8,0.3,Time
,,S67,1,男,21,anonymized,Serial_Dependence_U,2023.2.3,Win32,15.015015015020264,,,,,,1366.313699999988,268.0,2.0,1366.3143999999763,268.0,,,,1369.8676999999882,1370.3942999999524,1369.3145000000002,1369.8676999999882,1367.2587999999523,1369.3143999999763,1370.3942999999524,1370.9220999999643,1370.9220999999643,1375.4160999999642,2853.0,1375.416199999988,5.0,1375.4215000000002,2.0,1.0,61.0,16.0,1.0,1.0,0.7,Time
,,S67,1,男,21,anonymized,Serial_Dependence_U,2023.2.3,Win32,15.015015015020264,,,,,,1375.421699999988,269.0,2.0,1375.4217999999523,269.0,,,,1378.815699999988,1379.3451999999882,1378.2625,1378.815699999988,1376.3605999999645,1378.2622999999523,1379.3451999999882,1379.8775999999643,1379.8776999999882,1383.688,2984.0,1383.688,5.0,1383.6933999999762,2.0,2.0,62.0,15.0,1.0,0.8,0.7,Time
,,S67,1,男,21,anonymized,Serial_Dependence_U,2023.2.3,Win32,15.015015015020264,,,,,,1383.6935,344.0,2.0,1383.6935999999644,344.0,,,,1387.9545999999643,1388.3570999999642,1387.398699999988,1387.9545999999643,1384.6470999999642,1387.3985999999643,1388.3570999999642,1388.8855999999644,1388.8855999999644,1393.9745999999643,4402.0,1393.9745999999643,5.0,1393.98,2.0,3.0,63.0,19.0,1.0,1.6,0.7,Time
,,S67,1,男,21,anonymized,Serial_Dependence_U,2023.2.3,Win32,15.015015015020264,,,,,,1393.9802999999524,231.0,2.0,1393.9802999999524,231.0,,,,1397.8131999999882,1398.2171999999882,1397.2605999999644,1397.8130999999644,1394.927,1397.2605,1398.2171999999882,1398.6218999999762,1398.6218999999762,1406.286,3452.0,1406.286,5.0,1406.2916999999882,2.0,4.0,64.0,22.0,1.0,1.2,0.3,Time
,,S67,1,男,21,anonymized,Serial_Dependence_U,2023.2.3,Win32,15.015015015020264,,,,,,1406.2918999999763,188.0,2.0,1406.292,188.0,,,,1410.6777999999524,1411.0848999999762,1410.1265,1410.6777999999524,1407.3743999999765,1410.1263999999762,1411.0848999999762,1411.6127999999524,1411.6128999999762,1416.947399999976,4386.0,1416.947399999976,5.0,1416.953199999988,2.0,5.0,65.0,9.0,1.0,1.6,0.7,Time
,,S67,1,男,21,anonymized,Serial_Dependence_U,2023.2.3,Win32,15.015015015020264,,,,,,1416.9532999999524,83.0,2.0,1416.9533999999762,83.0,,,,1420.8637999999523,1421.3905999999645,1420.3115,1420.8637999999523,1417.9481999999882,1420.3113999999762,1421.3905999999645,1421.7942999999525,1421.7942999999525,1427.1546999999882,4530.0,1427.1547999999525,5.0,1427.1601999999882,2.0,6.0,66.0,27.0,1.0,1.2,0.7,Time
,,S67,1,男,21,anonymized,Serial_Dependence_U,2023.2.3,Win32,15.015015015020264,,,,,,1427.1603999999763,259.0,2.0,1427.1605,259.0,,,,1430.7160999999644,1431.1195,1430.1675999999643,1430.716,1428.2403999999765,1430.1675999999643,1431.1195,1431.6420999999643,1431.6421999999882,1435.9000999999644,3579.0,1435.9001999999882,5.0,1435.9055,2.0,7.0,67.0,5.0,1.0,0.8,0.7,Time
,,S67,1,男,21,anonymized,Serial_Dependence_U,2023.2.3,Win32,15.015015015020264,,,,,,1435.9056999999882,90.0,2.0,1435.9057999999525,90.0,,,,1439.3237999999524,1439.853,1438.7732999999523,1439.323699999988,1436.8515999999645,1438.7732999999523,1439.853,1440.3837999999523,1440.3838999999762,1445.4585999999642,3843.0,1445.4585999999642,5.0,1445.4637999999525,2.0,8.0,68.0,20.0,1.0,0.8,0.3,Time
,,S67,1,男,21,anonymized,Serial_Dependence_U,2023.2.3,Win32,15.015015015020264,,,,,,1445.4640000000002,315.0,2.0,1445.4640999999642,315.0,,,,1449.4360999999642,1449.9613999999765,1448.8855999999644,1449.436,1446.4160000000002,1448.8855,1449.9613999999765,1450.3622999999525,1450.3622999999525,1454.8795999999645,3554.0,1454.879699999988,5.0,1454.885,2.0,9.0,69.0,8.0,1.0,1.4,0.7,Time
,,S67,1,男,21,anonymized,Serial_Dependence_U,2023.2.3,Win32,15.015015015020264,,,,,,1454.8852999999524,196.0,2.0,1454.8852999999524,196.0,,,,1459.2780999999643,1459.8055999999642,1458.7291999999882,1459.2780999999643,1455.9653999999762,1458.7291999999882,1459.805699999988,1460.3386999999882,1460.3386999999882,1465.2777999999523,3981.0,1465.2778999999762,5.0,1465.2835999999645,2.0,10.0,70.0,4.0,1.0,1.6,0.3,Time
,,S67,1,男,21,anonymized,Serial_Dependence_U,2023.2.3,Win32,15.015015015020264,,,,,,1465.2837999999524,337.0,2.0,1465.2838999999765,337.0,,,,1469.6677999999524,1470.0725,1469.1212999999525,1469.667699999988,1466.3621999999882,1469.1211999999882,1470.0725999999645,1470.4740999999642,1470.474199999988,1474.5775,3283.0,1474.5775999999644,5.0,1474.5828999999762,2.0,11.0,71.0,14.0,1.0,1.6,0.3,Time
,,S67,1,男,21,anonymized,Serial_Dependence_U,2023.2.3,Win32,15.015015015020264,,,,,,1474.5830999999644,214.0,2.0,1474.5830999999644,214.0,,,,1478.1273999999762,1478.659399999976,1477.5788999999763,1478.1272999999524,1475.525699999988,1477.5787999999525,1478.659399999976,1479.192,1479.192,1482.507,2477.0,1482.507,5.0,1482.5123999999762,2.0,12.0,72.0,6.0,1.0,1.0,0.7,Time
,,S67,1,男,21,anonymized,Serial_Dependence_U,2023.2.3,Win32,15.015015015020264,,,,,,1482.5125999999643,308.0,2.0,1482.5126999999882,308.0,,,,1486.0575999999644,1486.4636999999882,1485.509199999988,1486.0575999999644,1483.5867999999523,1485.509199999988,1486.4636999999882,1486.8645,1486.8645,1490.2835,2740.0,1490.2835999999645,5.0,1490.289,2.0,13.0,73.0,10.0,1.0,0.8,0.3,Time
,,S67,1,男,21,anonymized,Serial_Dependence_U,2023.2.3,Win32,15.015015015020264,,,,,,1490.2890999999645,61.0,2.0,1490.289199999988,61.0,,,,1494.5541999999882,1494.9563999999762,1494.0015999999644,1494.5540999999644,1491.2373999999763,1494.0015,1494.9563999999762,1495.4798999999762,1495.4798999999762,1500.8427999999524,4538.0,1500.8428999999762,5.0,1500.8480999999642,2.0,14.0,74.0,24.0,1.0,1.6,0.3,Time
,,S67,1,男,21,anonymized,Serial_Dependence_U,2023.2.3,Win32,15.015015015020264,,,,,,1500.8483999999762,30.0,2.0,1500.8485,30.0,,,,1504.3863999999762,1504.7955000000002,1503.8380999999642,1504.3863999999762,1501.7907999999525,1503.837899999976,1504.7955000000002,1505.321,1505.321,1509.5635999999645,3969.0,1509.563699999988,5.0,1509.5690999999642,2.0,15.0,75.0,26.0,1.0,1.0,0.7,Time
,,S67,1,男,21,anonymized,Serial_Dependence_U,2023.2.3,Win32,15.015015015020264,,,,,,1509.5692999999524,264.0,2.0,1509.5692999999524,264.0,,,,1513.5666999999885,1514.0943999999763,1513.0185999999644,1513.5665999999644,1510.5216999999882,1513.0185999999644,1514.0943999999763,1514.6175999999643,1514.6175999999643,1519.5378999999762,3431.0,1519.5378999999762,5.0,1519.5435,2.0,16.0,76.0,18.0,1.0,1.4,0.7,Time
,,S67,1,男,21,anonymized,Serial_Dependence_U,2023.2.3,Win32,15.015015015020264,,,,,,1519.5435999999645,73.0,2.0,1519.5437999999524,73.0,,,,1523.2272999999525,1523.6315,1522.678699999988,1523.2272999999525,1520.487699999988,1522.6785999999645,1523.6315,1524.1612999999525,1524.1612999999525,1528.404199999988,3418.0,1528.4047999999525,5.0,1528.4098999999762,2.0,17.0,77.0,21.0,1.0,1.0,0.3,Time
,,S67,1,男,21,anonymized,Serial_Dependence_U,2023.2.3,Win32,15.015015015020264,,,,,,1528.4100999999644,222.0,2.0,1528.4100999999644,222.0,,,,1531.981,1532.3811999999882,1531.4336999999882,1531.981,1529.3672999999524,1531.4335,1532.3811999999882,1532.9095999999645,1532.9095999999645,1537.306699999988,3435.0,1537.3067999999523,5.0,1537.3120999999644,2.0,18.0,78.0,11.0,1.0,1.0,0.3,Time
,,S67,1,男,21,anonymized,Serial_Dependence_U,2023.2.3,Win32,15.015015015020264,,,,,,1537.3122999999523,48.0,2.0,1537.3122999999523,48.0,,,,1540.8807999999524,1541.2858999999762,1540.324699999988,1540.8807999999524,1538.263699999988,1540.324699999988,1541.2858999999762,1541.8248999999762,1541.8248999999762,1545.1317999999524,3161.0,1545.1318999999762,5.0,1545.1370999999642,2.0,19.0,79.0,1.0,1.0,1.0,0.3,Time
,,S67,1,男,21,anonymized,Serial_Dependence_U,2023.2.3,Win32,15.015015015020264,,,,,,1545.1372999999523,158.0,2.0,1545.1373999999762,158.0,,,,1548.575,1549.109199999988,1548.0210999999642,1548.5748999999762,1546.0902999999523,1548.021,1549.109199999988,1549.6591999999882,1549.6591999999882,1552.4130999999643,2076.0,1552.4130999999643,5.0,1552.4182999999523,2.0,20.0,80.0,25.0,1.0,0.8,0.7,Time
,,S67,1,男,21,anonymized,Serial_Dependence_U,2023.2.3,Win32,15.015015015020264,,,,,,1552.4185,154.0,2.0,1552.4185999999645,154.0,,,,1556.2625999999643,1556.6646999999882,1555.7135,1556.2625,1553.3782999999523,1555.7135,1556.6646999999882,1557.0665,1557.0665,1560.6588999999765,2630.0,1560.659,5.0,1560.6642999999524,2.0,21.0,81.0,17.0,1.0,1.2,0.7,Time
,,S67,1,男,21,anonymized,Serial_Dependence_U,2023.2.3,Win32,15.015015015020264,,,,,,1560.6643999999762,7.0,2.0,1560.6645,7.0,,,,1564.6212999999525,1565.0232999999523,1564.068,1564.621199999988,1561.7392999999524,1564.068,1565.0232999999523,1565.5475999999642,1565.5475999999642,1569.91,3688.0,1569.9101999999882,5.0,1569.9153999999764,2.0,22.0,82.0,12.0,1.0,1.2,0.3,Time
,,S67,1,男,21,anonymized,Serial_Dependence_U,2023.2.3,Win32,15.015015015020264,,,,,,1569.915599999964,59.0,2.0,1569.915699999988,59.0,,,,1573.8543999999763,1574.2605999999644,1573.304399999976,1573.8542999999524,1570.9865000000002,1573.304399999976,1574.2605999999644,1574.7923999999764,1574.7923999999764,1579.7200999999643,4108.0,1579.7200999999643,5.0,1579.7255000000002,2.0,23.0,83.0,7.0,1.0,1.2,0.7,Time
,,S67,1,男,21,anonymized,Serial_Dependence_U,2023.2.3,Win32,15.015015015020264,,,,,,1579.7255999999643,359.0,2.0,1579.7256999999884,359.0,,,,1583.7122999999522,1584.2315999999644,1583.1646999999882,1583.7122999999522,1580.6745,1583.1645999999644,1584.2316999999882,1584.7537999999524,1584.7537999999524,1587.8822999999522,2717.0,1587.8822999999522,5.0,1587.888,2.0,24.0,84.0,28.0,1.0,1.4,0.7,Time
,,S67,1,男,21,anonymized,Serial_Dependence_U,2023.2.3,Win32,15.015015015020264,,,,,,1587.8883999999764,181.0,2.0,1587.8885000000002,181.0,,,,1591.8675,1592.3988999999765,1591.313699999988,1591.8675,1588.8453999999765,1591.3135999999645,1592.3988999999765,1592.931399999976,1592.931399999976,1597.0280999999643,3274.0,1597.028199999988,5.0,1597.0335000000002,2.0,25.0,85.0,13.0,1.0,1.4,0.3,Time
,,S67,1,男,21,anonymized,Serial_Dependence_U,2023.2.3,Win32,15.015015015020264,,,,,,1597.0335999999645,118.0,2.0,1597.0336999999884,118.0,,,,1601.4050999999642,1601.940399999976,1600.853199999988,1601.405,1598.1125,1600.853099999964,1601.940399999976,1602.4655999999643,1602.465699999988,1606.8808999999762,3311.0,1606.881,5.0,1606.886599999964,2.0,26.0,86.0,29.0,1.0,1.6,0.7,Time
,,S67,1,男,21,anonymized,Serial_Dependence_U,2023.2.3,Win32,15.015015015020264,,,,,,1606.8867999999522,209.0,2.0,1606.886899999976,209.0,,,,1610.975899999976,1611.5105,1610.4210999999643,1610.975899999976,1607.9600000000005,1610.421,1611.5105,1612.0400000000002,1612.0400999999645,1617.1116999999883,3689.0,1617.1117999999526,5.0,1617.1175,2.0,27.0,87.0,3.0,1.0,1.4,0.3,Time
,,S67,1,男,21,anonymized,Serial_Dependence_U,2023.2.3,Win32,15.015015015020264,,,,,,1617.1177999999525,306.0,2.0,1617.1178999999763,306.0,,,,1621.108099999964,1621.5090999999643,1620.5504999999998,1621.1079999999995,1618.0720999999642,1620.550399999976,1621.509199999988,1622.039599999964,1622.039599999964,1749.999699999988,2695.0,1749.999699999988,5.0,1750.0049999999997,2.0,28.0,88.0,23.0,1.0,1.4,0.3,Time
,,S67,1,男,21,anonymized,Serial_Dependence_U,2023.2.3,Win32,15.015015015020264,,,,,,1750.0051999999878,308.0,2.0,1750.005299999952,308.0,,,,1753.813299999952,1754.309299999952,1753.3058999999762,1753.8131999999878,1751.008399999976,1753.3057999999523,1754.309299999952,1754.803799999952,1754.803799999952,1759.6402999999525,3682.0,1759.640399999976,5.0,1759.6456999999878,2.0,29.0,89.0,2.0,1.0,1.2,0.3,Time
,,S67,1,男,21,anonymized,Serial_Dependence_U,2023.2.3,Win32,15.015015015020264,,,,,,1759.645799999952,124.0,3.0,1762.071799999952,124.0,s,2.340800000011768,,1766.132799999952,1766.634,1765.6205,1766.1326999999878,1763.069599999964,1765.620399999976,1766.634,1767.130699999988,1767.1307999999522,1772.349899999976,4448.0,1772.349899999976,5.0,1772.3550999999643,3.0,0.0,90.0,8.0,1.0,1.4,0.7,Time
,,S67,1,男,21,anonymized,Serial_Dependence_U,2023.2.3,Win32,15.015015015020264,,,,,,1772.3553999999758,123.0,3.0,1772.356199999988,123.0,,,,1775.785199999988,1776.286099999964,1775.2703999999758,1775.785099999964,1773.3548999999762,1775.270299999952,1776.286099999964,1776.779799999952,1776.779799999952,1780.377799999952,2839.0,1780.377899999976,5.0,1780.383199999988,3.0,1.0,91.0,0.0,1.0,0.8,0.3,Time
,,S67,1,男,21,anonymized,Serial_Dependence_U,2023.2.3,Win32,15.015015015020264,,,,,,1780.383399999976,266.0,3.0,1780.3835,266.0,,,,1784.0645,1784.5566999999878,1783.549199999988,1784.0642999999525,1781.387899999976,1783.5490999999645,1784.5566999999878,1785.052699999988,1785.052699999988,1791.2909999999997,4465.0,1791.2909999999997,5.0,1791.2968999999762,3.0,2.0,92.0,11.0,1.0,1.0,0.3,Time
,,S67,1,男,21,anonymized,Serial_Dependence_U,2023.2.3,Win32,15.015015015020264,,,,,,1791.2970999999643,325.0,3.0,1791.2971999999877,325.0,,,,1794.862899999976,1795.365699999988,1794.3500999999642,1794.862899999976,1792.3122999999523,1794.35,1795.3657999999523,1795.857599999964,1795.8576999999875,1801.3390999999642,4723.0,1801.3390999999642,5.0,1801.3443999999758,3.0,3.0,93.0,16.0,1.0,1.0,0.7,Time
,,S67,1,男,21,anonymized,Serial_Dependence_U,2023.2.3,Win32,15.015015015020264,,,,,,1801.344599999964,299.0,3.0,1801.3446999999878,299.0,,,,1805.131199999988,1805.628299999952,1804.629199999988,1805.131099999964,1802.458,1804.629199999988,1805.628299999952,1806.128099999964,1806.128099999964,1812.371199999988,5357.0,1812.371299999952,5.0,1812.376599999964,3.0,4.0,94.0,21.0,1.0,1.0,0.3,Time
,,S67,1,男,21,anonymized,Serial_Dependence_U,2023.2.3,Win32,15.015015015020264,,,,,,1812.3767999999525,96.0,3.0,1812.3767999999525,96.0,,,,1816.450299999952,1816.944099999964,1815.923199999988,1816.450299999952,1813.367599999964,1815.923199999988,1816.944099999964,1817.431,1817.431,1822.402799999952,3312.0,1822.402899999976,5.0,1822.408699999988,3.0,5.0,95.0,23.0,1.0,1.4,0.3,Time
,,S67,1,男,21,anonymized,Serial_Dependence_U,2023.2.3,Win32,15.015015015020264,,,,,,1822.408899999976,302.0,3.0,1822.408899999976,302.0,,,,1826.472199999988,1826.963899999976,1825.962599999964,1826.472199999988,1823.409799999952,1825.9625,1826.963899999976,1827.461099999964,1827.461199999988,1832.4085,3799.0,1832.4085999999645,5.0,1832.414199999988,3.0,6.0,96.0,28.0,1.0,1.4,0.7,Time
,,S67,1,男,21,anonymized,Serial_Dependence_U,2023.2.3,Win32,15.015015015020264,,,,,,1832.414299999952,308.0,3.0,1832.4145,308.0,,,,1835.832099999964,1836.327699999988,1835.323099999964,1835.832099999964,1833.419699999988,1835.323099999964,1836.327699999988,1836.819599999964,1836.819699999988,1840.8947999999525,2936.0,1840.894899999976,5.0,1840.900099999964,3.0,7.0,97.0,25.0,1.0,0.8,0.7,Time
,,S67,1,男,21,anonymized,Serial_Dependence_U,2023.2.3,Win32,15.015015015020264,,,,,,1840.900299999952,296.0,3.0,1840.900399999976,296.0,,,,1844.820599999964,1845.317,1844.3085,1844.8205,1842.015699999988,1844.308399999976,1845.317,1845.815,1845.815,1850.142199999988,3304.0,1850.142199999988,5.0,1850.147399999976,3.0,8.0,98.0,22.0,1.0,1.2,0.3,Time
,,S67,1,男,21,anonymized,Serial_Dependence_U,2023.2.3,Win32,15.015015015020264,,,,,,1850.147599999964,341.0,3.0,1850.147699999988,341.0,,,,1853.595199999988,1854.087299999952,1853.087199999988,1853.595099999964,1851.171,1853.0870999999645,1854.087299999952,1854.578,1854.578,1857.879699999988,2541.0,1857.879799999952,5.0,1857.885099999964,3.0,9.0,99.0,5.0,1.0,0.8,0.7,Time
,,S67,1,男,21,anonymized,Serial_Dependence_U,2023.2.3,Win32,15.015015015020264,,,,,,1857.885299999952,231.0,3.0,1857.885299999952,231.0,,,,1861.705799999952,1862.197,1861.187,1861.705699999988,1858.896399999976,1861.186899999976,1862.197,1862.690299999952,1862.690399999976,1889.377099999964,3172.0,1889.377099999964,5.0,1889.382799999952,3.0,10.0,100.0,17.0,1.0,1.2,0.7,Time
,,S67,1,男,21,anonymized,Serial_Dependence_U,2023.2.3,Win32,15.015015015020264,,,,,,1889.383,299.0,3.0,1889.383299999952,299.0,,,,1893.4245,1893.916099999964,1892.916599999964,1893.424399999976,1890.366199999988,1892.916599999964,1893.916199999988,1894.423699999988,1894.423699999988,1898.497199999988,3057.0,1898.497299999952,5.0,1898.5025,3.0,11.0,101.0,3.0,1.0,1.4,0.3,Time
,,S67,1,男,21,anonymized,Serial_Dependence_U,2023.2.3,Win32,15.015015015020264,,,,,,1898.502699999988,63.0,3.0,1898.502799999952,63.0,,,,1902.569199999988,1903.064,1902.056699999988,1902.569099999964,1899.516199999988,1902.056599999964,1903.064,1903.564899999976,1903.564899999976,1907.9127999999523,3468.0,1907.912899999976,5.0,1907.918099999964,3.0,12.0,102.0,13.0,1.0,1.4,0.3,Time
,,S67,1,男,21,anonymized,Serial_Dependence_U,2023.2.3,Win32,15.015015015020264,,,,,,1907.918399999976,111.0,3.0,1907.918399999976,111.0,,,,1911.723699999988,1912.247899999976,1911.208099999964,1911.723599999964,1908.920099999964,1911.208,1912.247899999976,1912.757299999952,1912.757299999952,1917.074699999988,3555.0,1917.074699999988,5.0,1917.080099999964,3.0,13.0,103.0,2.0,1.0,1.2,0.3,Time
,,S67,1,男,21,anonymized,Serial_Dependence_U,2023.2.3,Win32,15.015015015020264,,,,,,1917.080399999976,190.0,3.0,1917.080399999976,190.0,,,,1920.890399999976,1921.379,1920.376099999964,1920.890399999976,1918.078599999964,1920.376099999964,1921.379,1921.872299999952,1921.872399999976,1927.093899999976,3569.0,1927.093899999976,5.0,1927.0995,3.0,14.0,104.0,12.0,1.0,1.2,0.3,Time
,,S67,1,男,21,anonymized,Serial_Dependence_U,2023.2.3,Win32,15.015015015020264,,,,,,1927.099699999988,149.0,3.0,1927.099799999952,149.0,,,,1930.658199999988,1931.146299999952,1930.127599999964,1930.658199999988,1928.094,1930.127599999964,1931.146399999976,1931.639199999988,1931.639199999988,1940.0215,3173.0,1940.021599999964,5.0,1940.027299999952,3.0,15.0,105.0,26.0,1.0,1.0,0.7,Time
,,S67,1,男,21,anonymized,Serial_Dependence_U,2023.2.3,Win32,15.015015015020264,,,,,,1940.0275,10.0,3.0,1940.0275,10.0,,,,1943.706199999988,1944.1982999999525,1943.197899999976,1943.706199999988,1941.0305,1943.197799999952,1944.198399999976,1944.685699999988,1944.685699999988,1948.775899999976,3325.0,1948.775899999976,5.0,1948.781099999964,3.0,16.0,106.0,1.0,1.0,1.0,0.3,Time
,,S67,1,男,21,anonymized,Serial_Dependence_U,2023.2.3,Win32,15.015015015020264,,,,,,1948.781399999976,307.0,3.0,1948.7815,307.0,,,,1952.217199999988,1952.714099999964,1951.692599999964,1952.217099999964,1949.78,1951.6925,1952.714099999964,1953.203399999976,1953.2035,1957.800199999988,3830.0,1957.800199999988,5.0,1957.805399999976,3.0,17.0,107.0,15.0,1.0,0.8,0.7,Time
,,S67,1,男,21,anonymized,Serial_Dependence_U,2023.2.3,Win32,15.015015015020264,,,,,,1957.805699999988,149.0,3.0,1957.8057999999523,149.0,,,,1961.8725,1962.362699999988,1961.356899999976,1961.8725,1958.805299999952,1961.356899999976,1962.362699999988,1962.866,1962.866,1967.8175,3798.0,1967.8175,5.0,1967.823399999976,3.0,18.0,108.0,18.0,1.0,1.4,0.7,Time
,,S67,1,男,21,anonymized,Serial_Dependence_U,2023.2.3,Win32,15.015015015020264,,,,,,1967.823599999964,224.0,3.0,1967.823699999988,224.0,,,,1971.494099999964,1971.988399999976,1970.978199999988,1971.494,1968.826199999988,1970.978,1971.988399999976,1972.483899999976,1972.483899999976,1976.342,3102.0,1976.342,5.0,1976.347199999988,3.0,19.0,109.0,6.0,1.0,1.0,0.7,Time
,,S67,1,男,21,anonymized,Serial_Dependence_U,2023.2.3,Win32,15.015015015020264,,,,,,1976.347399999976,21.0,3.0,1976.347399999976,21.0,,,,1979.917099999964,1980.4085999999645,1979.399199999988,1979.917099999964,1977.467799999952,1979.399099999964,1980.4085999999645,1980.896199999988,1980.896199999988,1984.862699999988,3205.0,1984.862699999988,5.0,1984.8682999999523,3.0,20.0,110.0,20.0,1.0,0.8,0.3,Time
,,S67,1,男,21,anonymized,Serial_Dependence_U,2023.2.3,Win32,15.015015015020264,,,,,,1984.8685,287.0,3.0,1984.868599999964,287.0,,,,1989.070199999988,1989.568099999964,1988.556699999988,1989.070099999964,1985.8825,1988.556699999988,1989.568099999964,1990.064399999976,1990.0645,1994.400599999964,3434.0,1994.400699999988,5.0,1994.406,3.0,21.0,111.0,19.0,1.0,1.6,0.7,Time
,,S67,1,男,21,anonymized,Serial_Dependence_U,2023.2.3,Win32,15.015015015020264,,,,,,1994.406199999988,108.0,3.0,1994.4062999999524,108.0,,,,1998.603399999976,1999.0985,1998.094699999988,1998.603399999976,1995.398599999964,1998.094699999988,1999.0985,1999.596799999952,1999.596899999976,2003.403399999976,3046.0,2003.4035,5.0,2003.4085999999645,3.0,22.0,112.0,29.0,1.0,1.6,0.7,Time
,,S67,1,男,21,anonymized,Serial_Dependence_U,2023.2.3,Win32,15.015015015020264,,,,,,2003.408899999976,108.0,3.0,2003.409,108.0,,,,2007.597199999988,2008.093899999976,2007.084,2007.597199999988,2004.413299999952,2007.084,2008.093899999976,2008.5955,2008.5955,2013.6675,4062.0,2013.6675,5.0,2013.672799999952,3.0,23.0,113.0,9.0,1.0,1.6,0.7,Time
,,S67,1,男,21,anonymized,Serial_Dependence_U,2023.2.3,Win32,15.015015015020264,,,,,,2013.673,210.0,3.0,2013.673099999964,210.0,,,,2017.884899999976,2018.374099999964,2017.368199999988,2017.884899999976,2014.6775,2017.368099999964,2018.374199999988,2018.858699999988,2018.858699999988,2023.8502999999523,4226.0,2023.8502999999523,5.0,2023.855599999964,3.0,24.0,114.0,24.0,1.0,1.6,0.3,Time
,,S67,1,男,21,anonymized,Serial_Dependence_U,2023.2.3,Win32,15.015015015020264,,,,,,2023.855799999952,213.0,3.0,2023.856,213.0,,,,2028.1407999999524,2028.6385999999643,2027.6275,2028.1407999999524,2024.846,2027.627399999976,2028.6385999999643,2029.127199999988,2029.127199999988,2033.717,3071.0,2033.717,5.0,2033.7225,3.0,25.0,115.0,14.0,1.0,1.6,0.3,Time
,,S67,1,男,21,anonymized,Serial_Dependence_U,2023.2.3,Win32,15.015015015020264,,,,,,2033.7227999999525,25.0,3.0,2033.7227999999525,25.0,,,,2037.175899999976,2037.6717999999523,2036.661599999964,2037.175799999952,2034.7165,2036.661599999964,2037.6717999999523,2038.163199999988,2038.163199999988,2042.484799999952,3303.0,2042.484899999976,5.0,2042.490099999964,3.0,26.0,116.0,10.0,1.0,0.8,0.3,Time
,,S67,1,男,21,anonymized,Serial_Dependence_U,2023.2.3,Win32,15.015015015020264,,,,,,2042.490299999952,152.0,3.0,2042.490399999976,152.0,,,,2046.302299999952,2046.8035,2045.7935,2046.302199999988,2043.499599999964,2045.793399999976,2046.8035,2047.301799999952,2047.301799999952,2051.243699999988,3172.0,2051.243799999952,5.0,2051.249099999964,3.0,27.0,117.0,27.0,1.0,1.2,0.7,Time
,,S67,1,男,21,anonymized,Serial_Dependence_U,2023.2.3,Win32,15.015015015020264,,,,,,2051.249299999952,203.0,3.0,2051.249399999976,203.0,,,,2055.053099999964,2055.540599999964,2054.541099999964,2055.053,2052.2535,2054.541,2055.540599999964,2056.0375,2056.0375,2060.209399999976,3416.0,2060.209399999976,5.0,2060.214799999952,3.0,28.0,118.0,7.0,1.0,1.2,0.7,Time
,,S67,1,男,21,anonymized,Serial_Dependence_U,2023.2.3,Win32,15.015015015020264,,,,,,2060.215,44.0,3.0,2060.215099999964,44.0,,,,2064.392199999988,2064.8905,2063.873699999988,2064.392199999988,2061.211599999964,2063.873699999988,2064.8905,2065.388,2065.388099999964,2070.6055,4578.0,2070.6055,5.0,2070.610899999976,3.0,29.0,119.0,4.0,1.0,1.6,0.3,Time
,,S67,1,男,21,anonymized,Serial_Dependence_U,2023.2.3,Win32,15.015015015020264,,,,,,2070.611,121.0,4.0,2072.486699999988,121.0,s,1.7944000000356937,,2076.066399999976,2076.562799999952,2075.55,2076.066299999952,2073.506699999988,2075.55,2076.562799999952,2077.055,2077.055,2080.880799999952,2933.0,2080.880899999976,5.0,2080.886099999964,4.0,0.0,120.0,16.0,1.0,1.0,0.7,Time
,,S67,1,男,21,anonymized,Serial_Dependence_U,2023.2.3,Win32,15.015015015020264,,,,,,2080.886399999976,102.0,4.0,2080.887299999952,102.0,,,,2084.948699999988,2085.4397999999524,2084.431399999976,2084.948699999988,2081.891099999964,2084.431299999952,2085.4397999999524,2085.934799999952,2085.934899999976,2089.118899999976,2414.0,2089.118899999976,5.0,2089.124199999988,4.0,1.0,121.0,3.0,1.0,1.4,0.3,Time
,,S67,1,男,21,anonymized,Serial_Dependence_U,2023.2.3,Win32,15.015015015020264,,,,,,2089.124399999976,3.0,4.0,2089.1245,3.0,,,,2092.914399999976,2093.4085999999643,2092.4095,2092.914399999976,2090.123799999952,2092.4095,2093.4085999999643,2093.906399999976,2093.9065,2097.385399999976,2965.0,2097.385399999976,5.0,2097.3907999999524,4.0,2.0,122.0,27.0,1.0,1.2,0.7,Time
,,S67,1,男,21,anonymized,Serial_Dependence_U,2023.2.3,Win32,15.015015015020264,,,,,,2097.391,244.0,4.0,2097.391,244.0,,,,2101.589,2102.083199999988,2101.0757999999523,2101.588899999976,2098.392599999964,2101.0757999999523,2102.083199999988,2102.5755,2102.5755,2106.920199999988,3450.0,2106.920199999988,5.0,2106.9255,4.0,3.0,123.0,29.0,1.0,1.6,0.7,Time
,,S67,1,男,21,anonymized,Serial_Dependence_U,2023.2.3,Win32,15.015015015020264,,,,,,2106.925699999988,40.0,4.0,2106.925799999952,40.0,,,,2111.003199999988,2111.5017999999523,2110.484099999964,2111.003099999964,2107.9240999999643,2110.484099999964,2111.5017999999523,2111.992299999952,2111.992299999952,2116.951699999988,3824.0,2116.951799999952,5.0,2116.9575,4.0,4.0,124.0,28.0,1.0,1.4,0.7,Time
,,S67,1,男,21,anonymized,Serial_Dependence_U,2023.2.3,Win32,15.015015015020264,,,,,,2116.957699999988,121.0,4.0,2116.957699999988,121.0,,,,2120.763099999964,2121.261099999964,2120.252399999976,2120.763099999964,2117.961199999988,2120.2522999999524,2121.261199999988,2121.766599999964,2121.766699999988,2126.093099999964,3562.0,2126.093199999988,5.0,2126.098399999976,4.0,5.0,125.0,12.0,1.0,1.2,0.3,Time
,,S67,1,男,21,anonymized,Serial_Dependence_U,2023.2.3,Win32,15.015015015020264,,,,,,2126.0985,99.0,4.0,2126.098699999988,99.0,,,,2129.798299999952,2130.287599999964,2129.282,2129.798299999952,2127.101199999988,2129.281899999976,2130.287699999988,2130.779799999952,2130.779799999952,2134.3572999999524,2934.0,2134.3572999999524,5.0,2134.362699999988,4.0,6.0,126.0,11.0,1.0,1.0,0.3,Time
,,S67,1,男,21,anonymized,Serial_Dependence_U,2023.2.3,Win32,15.015015015020264,,,,,,2134.362899999976,71.0,4.0,2134.363,71.0,,,,2138.565099999964,2139.056699999988,2138.045,2138.565,2135.365,2138.045,2139.056699999988,2139.545799999952,2139.545799999952,2143.396199999988,2956.0,2143.396299999952,5.0,2143.401599999964,4.0,7.0,127.0,4.0,1.0,1.6,0.3,Time
,,S67,1,男,21,anonymized,Serial_Dependence_U,2023.2.3,Win32,15.015015015020264,,,,,,2143.4017999999523,117.0,4.0,2143.401899999976,117.0,,,,2146.8515,2147.351,2146.3282999999524,2146.8515,2144.3972999999523,2146.3282999999524,2147.351,2147.851099999964,2147.851099999964,2177.247899999976,2307.0,2177.247899999976,5.0,2177.253699999988,4.0,8.0,128.0,20.0,1.0,0.8,0.3,Time
,,S67,1,男,21,anonymized,Serial_Dependence_U,2023.2.3,Win32,15.015015015020264,,,,,,2177.253899999976,2.0,4.0,2177.254,2.0,,,,2181.0602999999523,2181.550899999976,2180.544,2181.0602999999523,2178.250299999952,2180.543899999976,2181.551,2182.0487999999523,2182.0487999999523,2186.123099999964,3300.0,2186.123099999964,5.0,2186.128399999976,4.0,9.0,129.0,2.0,1.0,1.2,0.3,Time
,,S67,1,男,21,anonymized,Serial_Dependence_U,2023.2.3,Win32,15.015015015020264,,,,,,2186.128699999988,278.0,4.0,2186.128699999988,278.0,,,,2190.297899999976,2190.791,2189.790099999964,2190.297699999988,2187.117099999964,2189.790099999964,2190.791,2191.2902999999524,2191.2902999999524,2195.9842999999523,3921.0,2195.9842999999523,5.0,2195.989599999964,4.0,10.0,130.0,19.0,1.0,1.6,0.7,Time
,,S67,1,男,21,anonymized,Serial_Dependence_U,2023.2.3,Win32,15.015015015020264,,,,,,2195.989799999952,141.0,4.0,2195.989899999976,141.0,,,,2199.423899999976,2199.924,2198.907799999952,2199.423699999988,2196.994199999988,2198.907699999988,2199.924,2200.420699999988,2200.420699999988,2204.388899999976,3190.0,2204.389,5.0,2204.394199999988,4.0,11.0,131.0,5.0,1.0,0.8,0.7,Time
,,S67,1,男,21,anonymized,Serial_Dependence_U,2023.2.3,Win32,15.015015015020264,,,,,,2204.394299999952,289.0,4.0,2204.394399999976,289.0,,,,2208.457099999964,2208.958799999952,2207.927899999976,2208.457,2205.391099999964,2207.927799999952,2208.958799999952,2209.456399999976,2209.456399999976,2214.021599999964,3809.0,2214.021599999964,5.0,2214.0267999999523,4.0,12.0,132.0,23.0,1.0,1.4,0.3,Time
,,S67,1,男,21,anonymized,Serial_Dependence_U,2023.2.3,Win32,15.015015015020264,,,,,,2214.027,300.0,4.0,2214.027099999964,300.0,,,,2217.8645,2218.3550999999643,2217.339899999976,2217.864399999976,2215.039299999952,2217.339899999976,2218.355199999988,2218.8485,2218.848699999988,2226.2415,3688.0,2226.2415,5.0,2226.247099999964,4.0,13.0,133.0,22.0,1.0,1.2,0.3,Time
,,S67,1,男,21,anonymized,Serial_Dependence_U,2023.2.3,Win32,15.015015015020264,,,,,,2226.247299999952,100.0,4.0,2226.247399999976,100.0,,,,2230.072599999964,2230.565099999964,2229.557699999988,2230.0725,2227.2445,2229.5575,2230.565199999988,2231.065199999988,2231.065299999952,2239.289099999964,3297.0,2239.289199999988,5.0,2239.295199999988,4.0,14.0,134.0,7.0,1.0,1.2,0.7,Time
,,S67,1,男,21,anonymized,Serial_Dependence_U,2023.2.3,Win32,15.015015015020264,,,,,,2239.295399999976,212.0,4.0,2239.295399999976,212.0,,,,2242.720099999964,2243.229299999952,2242.204399999976,2242.72,2240.306599999964,2242.204299999952,2243.229299999952,2243.724899999976,2243.725,2281.1995,2532.0,2281.1995,5.0,2281.2052999999523,4.0,15.0,135.0,15.0,1.0,0.8,0.7,Time
,,S67,1,男,21,anonymized,Serial_Dependence_U,2023.2.3,Win32,15.015015015020264,,,,,,2281.205399999976,56.0,4.0,2281.2055,56.0,,,,2284.756699999988,2285.251,2284.250799999952,2284.756699999988,2282.208599999964,2284.250599999964,2285.251,2285.743799999952,2285.743799999952,2294.6595,2677.0,2294.6595,5.0,2294.665099999964,4.0,16.0,136.0,26.0,1.0,1.0,0.7,Time
,,S67,1,男,21,anonymized,Serial_Dependence_U,2023.2.3,Win32,15.015015015020264,,,,,,2294.6652999999524,35.0,4.0,2294.6652999999524,35.0,,,,2298.862599999964,2299.349099999964,2298.352199999988,2298.8625,2295.672599999964,2298.352199999988,2299.349099999964,2299.854699999988,2299.854699999988,2337.905299999952,2527.0,2337.905399999976,5.0,2337.910899999976,4.0,17.0,137.0,14.0,1.0,1.6,0.3,Time
,,S67,1,男,21,anonymized,Serial_Dependence_U,2023.2.3,Win32,15.015015015020264,,,,,,2337.911199999988,295.0,4.0,2337.911199999988,295.0,,,,2341.355799999952,2341.849099999964,2340.845299999952,2341.355699999988,2338.920599999964,2340.845199999988,2341.849099999964,2342.347599999964,2342.347699999988,2346.8135,3711.0,2346.8135,5.0,2346.818699999988,4.0,18.0,138.0,10.0,1.0,0.8,0.3,Time
,,S67,1,男,21,anonymized,Serial_Dependence_U,2023.2.3,Win32,15.015015015020264,,,,,,2346.819,246.0,4.0,2346.819099999964,246.0,,,,2350.501399999976,2350.999699999988,2349.988099999964,2350.501399999976,2347.818399999976,2349.988099999964,2350.999699999988,2351.496,2351.496,2354.676099999964,2674.0,2354.676199999988,5.0,2354.6815,4.0,19.0,139.0,21.0,1.0,1.0,0.3,Time
,,S67,1,男,21,anonymized,Serial_Dependence_U,2023.2.3,Win32,15.015015015020264,,,,,,2354.681699999988,296.0,4.0,2354.681799999952,296.0,,,,2358.221799999952,2358.7175,2357.7145,2358.221699999988,2355.676399999976,2357.714399999976,2358.7175,2359.2162999999523,2359.2162999999523,2443.193399999976,2675.0,2443.193399999976,5.0,2443.199,4.0,20.0,140.0,6.0,1.0,1.0,0.7,Time
,,S67,1,男,21,anonymized,Serial_Dependence_U,2023.2.3,Win32,15.015015015020264,,,,,,2443.199199999988,245.0,4.0,2443.199199999988,245.0,,,,2447.257899999976,2447.7590999999643,2446.735599999964,2447.257799999952,2444.203699999988,2446.7355,2447.7590999999643,2448.246599999964,2448.246599999964,2453.105799999952,4220.0,2453.105799999952,5.0,2453.111399999976,4.0,21.0,141.0,18.0,1.0,1.4,0.7,Time
,,S67,1,男,21,anonymized,Serial_Dependence_U,2023.2.3,Win32,15.015015015020264,,,,,,2453.1115999999643,265.0,4.0,2453.1115999999643,265.0,,,,2457.292099999964,2457.787299999952,2456.778099999964,2457.292,2454.114899999976,2456.777899999976,2457.787399999976,2458.278,2458.278,2462.8745,3954.0,2462.874599999964,5.0,2462.879799999952,4.0,22.0,142.0,9.0,1.0,1.6,0.7,Time
,,S67,1,男,21,anonymized,Serial_Dependence_U,2023.2.3,Win32,15.015015015020264,,,,,,2462.88,258.0,4.0,2462.880099999964,258.0,,,,2466.850099999964,2467.337199999988,2466.326599999964,2466.850099999964,2463.880199999988,2466.3265,2467.337199999988,2467.8375,2467.8375,2472.4425,3831.0,2472.442599999964,5.0,2472.447799999952,4.0,23.0,143.0,8.0,1.0,1.4,0.7,Time
,,S67,1,男,21,anonymized,Serial_Dependence_U,2023.2.3,Win32,15.015015015020264,,,,,,2472.448,114.0,4.0,2472.448099999964,114.0,,,,2475.867599999964,2476.359,2475.355699999988,2475.8675,2473.449199999988,2475.355699999988,2476.359,2476.852,2476.852,2517.540199999988,2160.0,2517.540199999988,5.0,2517.545799999952,4.0,24.0,144.0,0.0,1.0,0.8,0.3,Time
,,S67,1,男,21,anonymized,Serial_Dependence_U,2023.2.3,Win32,15.015015015020264,,,,,,2517.546,294.0,4.0,2517.546099999964,294.0,,,,2521.724199999988,2522.224799999952,2521.219099999964,2521.724099999964,2518.550199999988,2521.218899999976,2522.224799999952,2522.718399999976,2522.718399999976,2527.023799999952,3428.0,2527.023799999952,5.0,2527.0290999999643,4.0,25.0,145.0,24.0,1.0,1.6,0.3,Time
,,S67,1,男,21,anonymized,Serial_Dependence_U,2023.2.3,Win32,15.015015015020264,,,,,,2527.029299999952,90.0,4.0,2527.029299999952,90.0,,,,2530.600199999988,2531.093899999976,2530.097199999988,2530.600099999964,2528.0235,2530.097199999988,2531.093899999976,2531.594699999988,2531.594699999988,2561.408,2175.0,2561.408099999964,5.0,2561.414099999964,4.0,26.0,146.0,1.0,1.0,1.0,0.3,Time
,,S67,1,男,21,anonymized,Serial_Dependence_U,2023.2.3,Win32,15.015015015020264,,,,,,2561.414399999976,302.0,4.0,2561.4145,302.0,,,,2565.220399999976,2565.728099999964,2564.708399999976,2565.220399999976,2562.425199999988,2564.708399999976,2565.728099999964,2566.221899999976,2566.221899999976,2614.8660999999643,1892.0,2614.866199999988,5.0,2614.871899999976,4.0,27.0,147.0,17.0,1.0,1.2,0.7,Time
,,S67,1,男,21,anonymized,Serial_Dependence_U,2023.2.3,Win32,15.015015015020264,,,,,,2614.872099999964,131.0,4.0,2614.872199999988,131.0,,,,2618.938199999988,2619.430099999964,2618.421899999976,2618.938099999964,2615.877199999988,2618.4217999999523,2619.430099999964,2619.919699999988,2619.919699999988,2622.489199999988,1797.0,2622.489199999988,4.0,2622.4945,4.0,28.0,148.0,13.0,1.0,1.4,0.3,Time
,,S67,1,男,21,anonymized,Serial_Dependence_U,2023.2.3,Win32,15.015015015020264,,,,,,2622.494699999988,148.0,4.0,2622.494799999952,148.0,,,,2625.929,2626.434399999976,2625.402599999964,2625.928899999976,2623.503399999976,2625.4025,2626.434399999976,2626.942399999976,2626.942399999976,2700.4797999999523,2195.0,2700.4797999999523,5.0,2700.485699999988,4.0,29.0,149.0,25.0,1.0,0.8,0.7,Time
,,S67,1,男,21,anonymized,Serial_Dependence_U,2023.2.3,Win32,15.015015015020264,,,,,,2700.485899999976,240.0,5.0,2703.063899999976,240.0,s,2.496900000036021,,2706.8705,2707.369799999952,2706.3645,2706.870399999976,2704.066599999964,2706.364399999976,2707.369799999952,2707.864199999988,2707.864199999988,2712.9805,2830.0,2712.9805,5.0,2712.985799999952,5.0,0.0,150.0,2.0,1.0,1.2,0.3,Time
,,S67,1,男,21,anonymized,Serial_Dependence_U,2023.2.3,Win32,15.015015015020264,,,,,,2712.986099999964,176.0,5.0,2712.986699999988,176.0,,,,2717.067299999952,2717.570099999964,2716.557099999964,2717.067199999988,2713.987199999988,2716.557,2717.570199999988,2718.063899999976,2718.064,2721.897699999988,3075.0,2721.897699999988,5.0,2721.902899999976,5.0,1.0,151.0,13.0,1.0,1.4,0.3,Time
,,S67,1,男,21,anonymized,Serial_Dependence_U,2023.2.3,Win32,15.015015015020264,,,,,,2721.903099999964,19.0,5.0,2721.903199999988,19.0,,,,2725.447699999988,2725.945199999988,2724.941,2725.447699999988,2722.9095,2724.940899999976,2725.945199999988,2726.445399999976,2726.4455,2730.127599999964,3050.0,2730.127599999964,5.0,2730.132799999952,5.0,2.0,152.0,26.0,1.0,1.0,0.7,Time
,,S67,1,男,21,anonymized,Serial_Dependence_U,2023.2.3,Win32,15.015015015020264,,,,,,2730.133,78.0,5.0,2730.133,78.0,,,,2733.550699999988,2734.0505,2733.04,2733.550699999988,2731.133899999976,2733.039899999976,2734.0505,2734.546099999964,2734.546099999964,2738.394599999964,3072.0,2738.394599999964,5.0,2738.399899999976,5.0,3.0,153.0,5.0,1.0,0.8,0.7,Time
,,S67,1,男,21,anonymized,Serial_Dependence_U,2023.2.3,Win32,15.015015015020264,,,,,,2738.400099999964,46.0,5.0,2738.400199999988,46.0,,,,2741.825599999964,2742.316899999976,2741.3155,2741.825399999976,2739.400599999964,2741.315399999976,2742.317,2742.8167999999523,2742.816899999976,2746.684399999976,2968.0,2746.684399999976,5.0,2746.6897999999524,5.0,4.0,154.0,0.0,1.0,0.8,0.3,Time
,,S67,1,男,21,anonymized,Serial_Dependence_U,2023.2.3,Win32,15.015015015020264,,,,,,2746.69,191.0,5.0,2746.69,191.0,,,,2750.750299999952,2751.2410999999643,2750.240699999988,2750.750199999988,2747.693599999964,2750.240599999964,2751.2410999999643,2751.739899999976,2751.739899999976,2755.952599999964,3581.0,2755.952599999964,5.0,2755.958199999988,5.0,5.0,155.0,18.0,1.0,1.4,0.7,Time
,,S67,1,男,21,anonymized,Serial_Dependence_U,2023.2.3,Win32,15.015015015020264,,,,,,2755.958299999952,28.0,5.0,2755.9585,28.0,,,,2760.026,2760.5222999999523,2759.514099999964,2760.026,2756.967399999976,2759.514,2760.5222999999523,2761.032399999976,2761.032399999976,2765.348099999964,3678.0,2765.348099999964,5.0,2765.353399999976,5.0,6.0,156.0,8.0,1.0,1.4,0.7,Time
,,S67,1,男,21,anonymized,Serial_Dependence_U,2023.2.3,Win32,15.015015015020264,,,,,,2765.353699999988,209.0,5.0,2765.353699999988,209.0,,,,2769.556399999976,2770.0532999999523,2769.046599999964,2769.556299999952,2766.355699999988,2769.0465,2770.0532999999523,2770.5415,2770.5415,2774.778299999952,3461.0,2774.778299999952,5.0,2774.784,5.0,7.0,157.0,14.0,1.0,1.6,0.3,Time
,,S67,1,男,21,anonymized,Serial_Dependence_U,2023.2.3,Win32,15.015015015020264,,,,,,2774.784199999988,247.0,5.0,2774.784299999952,247.0,,,,2778.382299999952,2778.8845,2777.8615,2778.382199999988,2775.907099999964,2777.8615,2778.8845,2779.382099999964,2779.382099999964,2782.800699999988,2916.0,2782.800699999988,5.0,2782.806199999988,5.0,8.0,158.0,25.0,1.0,0.8,0.7,Time
,,S67,1,男,21,anonymized,Serial_Dependence_U,2023.2.3,Win32,15.015015015020264,,,,,,2782.806399999976,342.0,5.0,2782.8065,342.0,,,,2786.616399999976,2787.103199999988,2786.110099999964,2786.616399999976,2783.8205,2786.11,2787.103199999988,2787.599399999976,2787.5995,2792.953699999988,3817.0,2792.953699999988,5.0,2792.959699999988,5.0,9.0,159.0,12.0,1.0,1.2,0.3,Time
,,S67,1,男,21,anonymized,Serial_Dependence_U,2023.2.3,Win32,15.015015015020264,,,,,,2792.9597999999523,176.0,5.0,2792.959899999976,176.0,,,,2796.390199999988,2796.885699999988,2795.878799999952,2796.390199999988,2793.954299999952,2795.878799999952,2796.885699999988,2797.385099999964,2797.385099999964,2801.1937999999523,3051.0,2801.1937999999523,5.0,2801.199099999964,5.0,10.0,160.0,15.0,1.0,0.8,0.7,Time
,,S67,1,男,21,anonymized,Serial_Dependence_U,2023.2.3,Win32,15.015015015020264,,,,,,2801.199299999952,188.0,5.0,2801.199299999952,188.0,,,,2805.517599999964,2806.0125,2804.8935,2805.5175,2802.204899999976,2804.8935,2806.012599999964,2806.5055,2806.5055,2810.465399999976,3063.0,2810.4655,5.0,2810.471,5.0,11.0,161.0,9.0,1.0,1.6,0.7,Time
,,S67,1,男,21,anonymized,Serial_Dependence_U,2023.2.3,Win32,15.015015015020264,,,,,,2810.471199999988,189.0,5.0,2810.471299999952,189.0,,,,2814.660699999988,2815.1517999999523,2814.142699999988,2814.660599999964,2811.468899999976,2814.142599999964,2815.151899999976,2815.655699999988,2815.655699999988,2819.886399999976,3464.0,2819.886399999976,5.0,2819.891799999952,5.0,12.0,162.0,19.0,1.0,1.6,0.7,Time
,,S67,1,男,21,anonymized,Serial_Dependence_U,2023.2.3,Win32,15.015015015020264,,,,,,2819.892,88.0,5.0,2819.892,88.0,,,,2823.6885,2824.182399999976,2823.175699999988,2823.688399999976,2820.892199999988,2823.1755,2824.1825,2824.6705,2824.6705,2828.498,3184.0,2828.498099999964,5.0,2828.503399999976,5.0,13.0,163.0,27.0,1.0,1.2,0.7,Time
,,S67,1,男,21,anonymized,Serial_Dependence_U,2023.2.3,Win32,15.015015015020264,,,,,,2828.503599999964,65.0,5.0,2828.503699999988,65.0,,,,2832.304,2832.802799999952,2831.792199999988,2832.303799999952,2829.5065,2831.792099999964,2832.802799999952,2833.2985,2833.2985,2838.6985,4638.0,2838.6985,5.0,2838.703799999952,5.0,14.0,164.0,22.0,1.0,1.2,0.3,Time
,,S67,1,男,21,anonymized,Serial_Dependence_U,2023.2.3,Win32,15.015015015020264,,,,,,2838.704,348.0,5.0,2838.704099999964,348.0,,,,2842.753199999988,2843.246899999976,2842.2415,2842.753199999988,2839.6965,2842.2415,2843.246899999976,2843.7477999999523,2843.7477999999523,2848.855,4468.0,2848.855,5.0,2848.860199999988,5.0,15.0,165.0,23.0,1.0,1.4,0.3,Time
,,S67,1,男,21,anonymized,Serial_Dependence_U,2023.2.3,Win32,15.015015015020264,,,,,,2848.8605,78.0,5.0,2848.8605,78.0,,,,2852.666899999976,2853.176199999988,2852.1635,2852.666799999952,2849.8735,2852.1635,2853.176199999988,2853.6762999999523,2853.6762999999523,2858.245799999952,3931.0,2858.245799999952,5.0,2858.251199999988,5.0,16.0,166.0,17.0,1.0,1.2,0.7,Time
,,S67,1,男,21,anonymized,Serial_Dependence_U,2023.2.3,Win32,15.015015015020264,,,,,,2858.2515,11.0,5.0,2858.2515,11.0,,,,2862.457,2862.952399999976,2861.9445,2862.456899999976,2859.267699999988,2861.9445,2862.952399999976,2863.446199999988,2863.446199999988,2867.796299999952,3965.0,2867.796399999976,5.0,2867.801599999964,5.0,17.0,167.0,29.0,1.0,1.6,0.7,Time
,,S67,1,男,21,anonymized,Serial_Dependence_U,2023.2.3,Win32,15.015015015020264,,,,,,2867.801799999952,203.0,5.0,2867.801899999976,203.0,,,,2871.213899999976,2871.697399999976,2870.703899999976,2871.213799999952,2868.800799999952,2870.703799999952,2871.697399999976,2872.190299999952,2872.190399999976,2876.684,3728.0,2876.684,5.0,2876.6892999999523,5.0,18.0,168.0,20.0,1.0,0.8,0.3,Time
,,S67,1,男,21,anonymized,Serial_Dependence_U,2023.2.3,Win32,15.015015015020264,,,,,,2876.689599999964,103.0,5.0,2876.689699999988,103.0,,,,2880.2555,2880.743399999976,2879.7362999999523,2880.255399999976,2877.690099999964,2879.7362999999523,2880.7435,2881.243799999952,2881.243899999976,2884.5555,2931.0,2884.5555,5.0,2884.560799999952,5.0,19.0,169.0,6.0,1.0,1.0,0.7,Time
,,S67,1,男,21,anonymized,Serial_Dependence_U,2023.2.3,Win32,15.015015015020264,,,,,,2884.560899999976,43.0,5.0,2884.561,43.0,,,,2887.984099999964,2888.478699999988,2887.468099999964,2887.984099999964,2885.572699999988,2887.468,2888.478699999988,2888.965199999988,2888.965199999988,2892.646799999952,3047.0,2892.646799999952,5.0,2892.6525,5.0,20.0,170.0,10.0,1.0,0.8,0.3,Time
,,S67,1,男,21,anonymized,Serial_Dependence_U,2023.2.3,Win32,15.015015015020264,,,,,,2892.652599999964,89.0,5.0,2892.652699999988,89.0,,,,2896.476699999988,2896.969399999976,2895.9635,2896.476599999964,2893.658199999988,2895.963399999976,2896.9695,2897.473799999952,2897.473799999952,2901.957099999964,3589.0,2901.957099999964,5.0,2901.962599999964,5.0,21.0,171.0,7.0,1.0,1.2,0.7,Time
,,S67,1,男,21,anonymized,Serial_Dependence_U,2023.2.3,Win32,15.015015015020264,,,,,,2901.962799999952,27.0,5.0,2901.962899999976,27.0,,,,2906.162399999976,2906.6545,2905.6465,2906.162299999952,2902.958099999964,2905.6465,2906.654599999964,2907.146399999976,2907.146399999976,2912.447199999988,4418.0,2912.447199999988,5.0,2912.452399999976,5.0,22.0,172.0,4.0,1.0,1.6,0.3,Time
,,S67,1,男,21,anonymized,Serial_Dependence_U,2023.2.3,Win32,15.015015015020264,,,,,,2912.452599999964,31.0,5.0,2912.452699999988,31.0,,,,2916.008199999988,2916.502899999976,2915.497599999964,2916.008099999964,2913.442599999964,2915.4975,2916.502899999976,2916.991699999988,2916.991699999988,2920.816399999976,3190.0,2920.8165,5.0,2920.821799999952,5.0,23.0,173.0,16.0,1.0,1.0,0.7,Time
,,S67,1,男,21,anonymized,Serial_Dependence_U,2023.2.3,Win32,15.015015015020264,,,,,,2920.821899999976,331.0,5.0,2920.822099999964,331.0,,,,2924.906899999976,2925.3965,2924.3975,2924.906899999976,2921.836899999976,2924.397399999976,2925.3965,2925.895199999988,2925.895199999988,2929.575199999988,3049.0,2929.575199999988,5.0,2929.580399999976,5.0,24.0,174.0,3.0,1.0,1.4,0.3,Time
,,S67,1,男,21,anonymized,Serial_Dependence_U,2023.2.3,Win32,15.015015015020264,,,,,,2929.580699999988,45.0,5.0,2929.580699999988,45.0,,,,2933.644899999976,2934.1385,2933.128299999952,2933.644899999976,2930.585799999952,2933.128199999988,2934.1385,2934.647199999988,2934.6472999999523,2937.7232999999524,2819.0,2937.7232999999524,5.0,2937.728599999964,5.0,25.0,175.0,28.0,1.0,1.4,0.7,Time
,,S67,1,男,21,anonymized,Serial_Dependence_U,2023.2.3,Win32,15.015015015020264,,,,,,2937.728799999952,252.0,5.0,2937.728899999976,252.0,,,,2941.929799999952,2942.4307999999523,2941.413199999988,2941.929799999952,2938.735599999964,2941.4130999999643,2942.4307999999523,2942.9325,2942.932599999964,2947.3855,3186.0,2947.3855,5.0,2947.391199999988,5.0,26.0,176.0,24.0,1.0,1.6,0.3,Time
,,S67,1,男,21,anonymized,Serial_Dependence_U,2023.2.3,Win32,15.015015015020264,,,,,,2947.3915,195.0,5.0,2947.3915,195.0,,,,2951.088,2951.582,2950.5715,2951.088,2948.395,2950.5715,2951.582099999964,2952.074899999976,2952.074899999976,2955.529599999964,2552.0,2955.529599999964,5.0,2955.535099999964,5.0,27.0,177.0,1.0,1.0,1.0,0.3,Time
,,S67,1,男,21,anonymized,Serial_Dependence_U,2023.2.3,Win32,15.015015015020264,,,,,,2955.5352999999523,1.0,5.0,2955.535399999976,1.0,,,,2959.2297999999523,2959.724899999976,2958.705899999976,2959.229699999988,2956.5332999999523,2958.705699999988,2959.724899999976,2960.217199999988,2960.217199999988,2964.199299999952,3353.0,2964.199399999976,5.0,2964.204599999964,5.0,28.0,178.0,11.0,1.0,1.0,0.3,Time
,,S67,1,男,21,anonymized,Serial_Dependence_U,2023.2.3,Win32,15.015015015020264,,,,,,2964.204799999952,7.0,5.0,2964.204899999976,7.0,,,,2967.779599999964,2968.272899999976,2967.269399999976,2967.7795,2965.203199999988,2967.269299999952,2968.273,2968.759899999976,2968.759899999976,2973.600899999976,3933.0,2973.600899999976,5.0,2973.606599999964,5.0,29.0,179.0,21.0,1.0,1.0,0.3,Time
,,S67,1,男,21,anonymized,Serial_Dependence_U,2023.2.3,Win32,15.015015015020264,,,,,,2973.606699999988,145.0,6.0,2975.313299999952,145.0,s,1.6156000000241877,,2979.400399999976,2979.8972999999523,2978.881,2979.400299999952,2976.319099999964,2978.881,2979.8972999999523,2980.384799999952,2980.384799999952,2985.155199999988,2835.0,2985.155199999988,5.0,2985.160399999976,6.0,0.0,180.0,13.0,1.0,1.4,0.3,Time
,,S67,1,男,21,anonymized,Serial_Dependence_U,2023.2.3,Win32,15.015015015020264,,,,,,2985.1605,222.0,6.0,2985.161299999952,222.0,,,,2988.598,2989.085199999988,2988.088399999976,2988.597899999976,2986.165399999976,2988.088299999952,2989.085199999988,2989.581599999964,2989.581699999988,2993.038299999952,2817.0,2993.038299999952,5.0,2993.043599999964,6.0,1.0,181.0,20.0,1.0,0.8,0.3,Time
,,S67,1,男,21,anonymized,Serial_Dependence_U,2023.2.3,Win32,15.015015015020264,,,,,,2993.043799999952,311.0,6.0,2993.043899999976,311.0,,,,2996.842699999988,2997.329799999952,2996.3325999999643,2996.842699999988,2994.046699999988,2996.3325,2997.329799999952,2997.828599999964,2997.828599999964,3002.0515,3329.0,3002.0515,5.0,3002.057099999964,6.0,2.0,182.0,22.0,1.0,1.2,0.3,Time
,,S67,1,男,21,anonymized,Serial_Dependence_U,2023.2.3,Win32,15.015015015020264,,,,,,3002.057399999976,13.0,6.0,3002.057399999976,13.0,,,,3005.626699999988,3006.1235,3005.107199999988,3005.626599999964,3003.0615,3005.107199999988,3006.1235,3006.617799999952,3006.617799999952,3011.467399999976,3580.0,3011.4675,5.0,3011.4727999999523,6.0,3.0,183.0,16.0,1.0,1.0,0.7,Time
,,S67,1,男,21,anonymized,Serial_Dependence_U,2023.2.3,Win32,15.015015015020264,,,,,,3011.473,32.0,6.0,3011.473199999988,32.0,,,,3015.164099999964,3015.6555,3014.645399999976,3015.164099999964,3012.4755999999643,3014.645399999976,3015.6555,3016.15,3016.15,3020.708899999976,3297.0,3020.708899999976,5.0,3020.714199999988,6.0,4.0,184.0,21.0,1.0,1.0,0.3,Time
,,S67,1,男,21,anonymized,Serial_Dependence_U,2023.2.3,Win32,15.015015015020264,,,,,,3020.714399999976,226.0,6.0,3020.714399999976,226.0,,,,3024.9645,3025.456899999976,3024.447799999952,3024.964399999976,3021.715699999988,3024.447699999988,3025.456899999976,3025.952099999964,3025.952099999964,3029.656399999976,2939.0,3029.656399999976,5.0,3029.661699999988,6.0,5.0,185.0,4.0,1.0,1.6,0.3,Time
,,S67,1,男,21,anonymized,Serial_Dependence_U,2023.2.3,Win32,15.015015015020264,,,,,,3029.661899999976,186.0,6.0,3029.662,186.0,,,,3033.851599999964,3034.354299999952,3033.339,3033.851399999976,3030.667399999976,3033.339,3034.354299999952,3034.8585,3034.858599999964,3039.197399999976,3832.0,3039.197399999976,5.0,3039.202699999988,6.0,6.0,186.0,9.0,1.0,1.6,0.7,Time
,,S67,1,男,21,anonymized,Serial_Dependence_U,2023.2.3,Win32,15.015015015020264,,,,,,3039.202899999976,133.0,6.0,3039.202899999976,133.0,,,,3043.008399999976,3043.493099999964,3042.496299999952,3043.008299999952,3040.197299999952,3042.496199999988,3043.493099999964,3043.985399999976,3043.9855,3048.857899999976,4101.0,3048.857899999976,5.0,3048.863299999952,6.0,7.0,187.0,7.0,1.0,1.2,0.7,Time
,,S67,1,男,21,anonymized,Serial_Dependence_U,2023.2.3,Win32,15.015015015020264,,,,,,3048.8635,47.0,6.0,3048.863599999964,47.0,,,,3052.531599999964,3053.025399999976,3052.029199999988,3052.531599999964,3049.866599999964,3052.0290999999643,3053.025399999976,3053.533099999964,3053.533199999988,3057.871099999964,3579.0,3057.871199999988,5.0,3057.876599999964,6.0,8.0,188.0,1.0,1.0,1.0,0.3,Time
,,S67,1,男,21,anonymized,Serial_Dependence_U,2023.2.3,Win32,15.015015015020264,,,,,,3057.876899999976,68.0,6.0,3057.876899999976,68.0,,,,3061.4172999999523,3061.917799999952,3060.907599999964,3061.417199999988,3058.875199999988,3060.907599999964,3061.917799999952,3062.412299999952,3062.412299999952,3067.2955,3982.0,3067.2955,5.0,3067.301199999988,6.0,9.0,189.0,6.0,1.0,1.0,0.7,Time
,,S67,1,男,21,anonymized,Serial_Dependence_U,2023.2.3,Win32,15.015015015020264,,,,,,3067.3015,308.0,6.0,3067.3015,308.0,,,,3071.384599999964,3071.885099999964,3070.857799999952,3071.384599999964,3068.300099999964,3070.857799999952,3071.885099999964,3072.389799999952,3072.389799999952,3076.699399999976,3544.0,3076.6995,5.0,3076.704899999976,6.0,10.0,190.0,3.0,1.0,1.4,0.3,Time
,,S67,1,男,21,anonymized,Serial_Dependence_U,2023.2.3,Win32,15.015015015020264,,,,,,3076.705199999988,359.0,6.0,3076.705199999988,359.0,,,,3080.761699999988,3081.252199999988,3080.2562999999523,3080.761599999964,3077.718699999988,3080.2562999999523,3081.252199999988,3081.743699999988,3081.743699999988,3085.220599999964,2845.0,3085.220699999988,5.0,3085.226,6.0,11.0,191.0,18.0,1.0,1.4,0.7,Time
,,S67,1,男,21,anonymized,Serial_Dependence_U,2023.2.3,Win32,15.015015015020264,,,,,,3085.226099999964,105.0,6.0,3085.226199999988,105.0,,,,3088.6492999999523,3089.149399999976,3088.139,3088.649199999988,3086.237299999952,3088.139,3089.149399999976,3089.653699999988,3089.6537999999523,3093.864699999988,3455.0,3093.864699999988,5.0,3093.870099999964,6.0,12.0,192.0,5.0,1.0,0.8,0.7,Time
,,S67,1,男,21,anonymized,Serial_Dependence_U,2023.2.3,Win32,15.015015015020264,,,,,,3093.8702999999523,286.0,6.0,3093.870399999976,286.0,,,,3097.6917999999523,3098.194,3097.177099999964,3097.6917999999523,3094.866799999952,3097.177,3098.194,3098.6885,3098.6885,3102.393299999952,2824.0,3102.393399999976,5.0,3102.398599999964,6.0,13.0,193.0,17.0,1.0,1.2,0.7,Time
,,S67,1,男,21,anonymized,Serial_Dependence_U,2023.2.3,Win32,15.015015015020264,,,,,,3102.398799999952,311.0,6.0,3102.398899999976,311.0,,,,3106.193599999964,3106.697199999988,3105.684699999988,3106.1935,3103.4015,3105.684599999964,3106.697199999988,3107.1925,3107.1925,3111.797399999976,3846.0,3111.797399999976,5.0,3111.802699999988,6.0,14.0,194.0,2.0,1.0,1.2,0.3,Time
,,S67,1,男,21,anonymized,Serial_Dependence_U,2023.2.3,Win32,15.015015015020264,,,,,,3111.802899999976,93.0,6.0,3111.802899999976,93.0,,,,3115.241299999952,3115.735699999988,3114.733599999964,3115.241199999988,3112.796299999952,3114.7335,3115.735699999988,3116.221699999988,3116.221799999952,3120.683299999952,3453.0,3120.683299999952,5.0,3120.688599999964,6.0,15.0,195.0,15.0,1.0,0.8,0.7,Time
,,S67,1,男,21,anonymized,Serial_Dependence_U,2023.2.3,Win32,15.015015015020264,,,,,,3120.688799999952,89.0,6.0,3120.688899999976,89.0,,,,3124.757599999964,3125.252,3124.232,3124.7575,3121.689399999976,3124.231899999976,3125.252,3125.7515,3125.7515,3129.954199999988,3447.0,3129.954199999988,5.0,3129.9595,6.0,16.0,196.0,28.0,1.0,1.4,0.7,Time
,,S67,1,男,21,anonymized,Serial_Dependence_U,2023.2.3,Win32,15.015015015020264,,,,,,3129.959599999964,110.0,6.0,3129.959699999988,110.0,,,,3134.039599999964,3134.536399999976,3133.538599999964,3134.0395,3131.077699999988,3133.5385,3134.536399999976,3135.030399999976,3135.0305,3138.746,2821.0,3138.746,5.0,3138.751399999976,6.0,17.0,197.0,23.0,1.0,1.4,0.3,Time
,,S67,1,男,21,anonymized,Serial_Dependence_U,2023.2.3,Win32,15.015015015020264,,,,,,3138.751599999964,240.0,6.0,3138.751599999964,240.0,,,,3142.175799999952,3142.677899999976,3141.663199999988,3142.175799999952,3139.7465,3141.663199999988,3142.677899999976,3143.169399999976,3143.1695,3147.302599999964,2981.0,3147.302599999964,5.0,3147.308,6.0,18.0,198.0,25.0,1.0,0.8,0.7,Time
,,S67,1,男,21,anonymized,Serial_Dependence_U,2023.2.3,Win32,15.015015015020264,,,,,,3147.3080999999643,25.0,6.0,3147.308199999988,25.0,,,,3150.731399999976,3151.222599999964,3150.214899999976,3150.731299999952,3148.303399999976,3150.214899999976,3151.222599999964,3151.716899999976,3151.716899999976,3155.907199999988,3177.0,3155.907299999952,5.0,3155.912399999976,6.0,19.0,199.0,10.0,1.0,0.8,0.3,Time
,,S67,1,男,21,anonymized,Serial_Dependence_U,2023.2.3,Win32,15.015015015020264,,,,,,3155.912699999988,346.0,6.0,3155.912699999988,346.0,,,,3160.1317999999524,3160.625199999988,3159.6145,3160.131699999988,3156.909199999988,3159.614399999976,3160.625199999988,3161.120699999988,3161.120699999988,3165.3265,3435.0,3165.3265,5.0,3165.331699999988,6.0,20.0,200.0,24.0,1.0,1.6,0.3,Time
,,S67,1,男,21,anonymized,Serial_Dependence_U,2023.2.3,Win32,15.015015015020264,,,,,,3165.332,352.0,6.0,3165.332,352.0,,,,3169.010399999976,3169.5055,3168.495199999988,3169.010399999976,3166.328,3168.495099999964,3169.5055,3169.999,3169.999099999964,3173.699899999976,2929.0,3173.699899999976,5.0,3173.705199999988,6.0,21.0,201.0,11.0,1.0,1.0,0.3,Time
,,S67,1,男,21,anonymized,Serial_Dependence_U,2023.2.3,Win32,15.015015015020264,,,,,,3173.7055,240.0,6.0,3173.7055,240.0,,,,3177.257,3177.751899999976,3176.743799999952,3177.2567999999524,3174.711899999976,3176.743699999988,3177.751899999976,3178.2452999999523,3178.2452999999523,3181.435599999964,2554.0,3181.435699999988,5.0,3181.441,6.0,22.0,202.0,26.0,1.0,1.0,0.7,Time
,,S67,1,男,21,anonymized,Serial_Dependence_U,2023.2.3,Win32,15.015015015020264,,,,,,3181.441199999988,164.0,6.0,3181.441199999988,164.0,,,,3185.240699999988,3185.744199999988,3184.7315,3185.240599999964,3182.440799999952,3184.731299999952,3185.744199999988,3186.232099999964,3186.232099999964,3189.955099999964,2951.0,3189.955199999988,5.0,3189.9605,6.0,23.0,203.0,27.0,1.0,1.2,0.7,Time
,,S67,1,男,21,anonymized,Serial_Dependence_U,2023.2.3,Win32,15.015015015020264,,,,,,3189.960599999964,253.0,6.0,3189.960699999988,253.0,,,,3194.045,3194.5425999999643,3193.529899999976,3194.044899999976,3190.976699999988,3193.529799999952,3194.542699999988,3195.0385,3195.0385,3199.119599999964,3329.0,3199.119699999988,5.0,3199.1247999999523,6.0,24.0,204.0,8.0,1.0,1.4,0.7,Time
,,S67,1,男,21,anonymized,Serial_Dependence_U,2023.2.3,Win32,15.015015015020264,,,,,,3199.125,183.0,6.0,3199.1250999999643,183.0,,,,3203.290599999964,3203.790599999964,3202.786899999976,3203.2905,3200.125699999988,3202.786799999952,3203.790599999964,3204.283699999988,3204.283699999988,3208.224899999976,3308.0,3208.225,5.0,3208.230599999964,6.0,25.0,205.0,19.0,1.0,1.6,0.7,Time
,,S67,1,男,21,anonymized,Serial_Dependence_U,2023.2.3,Win32,15.015015015020264,,,,,,3208.230699999988,201.0,6.0,3208.230799999952,201.0,,,,3212.459399999976,3212.9555,3211.947899999976,3212.459399999976,3209.267099999964,3211.947799999952,3212.9555,3213.443,3213.443,3218.293,4087.0,3218.293,5.0,3218.298699999988,6.0,26.0,206.0,29.0,1.0,1.6,0.7,Time
,,S67,1,男,21,anonymized,Serial_Dependence_U,2023.2.3,Win32,15.015015015020264,,,,,,3218.2987999999523,198.0,6.0,3218.298899999976,198.0,,,,3222.103399999976,3222.602699999988,3221.590199999988,3222.103399999976,3219.298299999952,3221.590099999964,3222.602699999988,3223.099199999988,3223.099299999952,3227.686,3821.0,3227.686,5.0,3227.691399999976,6.0,27.0,207.0,12.0,1.0,1.2,0.3,Time
,,S67,1,男,21,anonymized,Serial_Dependence_U,2023.2.3,Win32,15.015015015020264,,,,,,3227.691699999988,154.0,6.0,3227.691699999988,154.0,,,,3231.134,3231.6267999999523,3230.619299999952,3231.133899999976,3228.692,3230.619199999988,3231.6267999999523,3232.127199999988,3232.127199999988,3235.461199999988,2561.0,3235.461299999952,5.0,3235.4665,6.0,28.0,208.0,0.0,1.0,0.8,0.3,Time
,,S67,1,男,21,anonymized,Serial_Dependence_U,2023.2.3,Win32,15.015015015020264,,,,,,3235.466799999952,178.0,6.0,3235.466899999976,178.0,,,,3239.6492999999523,3240.156699999988,3239.134199999988,3239.6492999999523,3236.468,3239.1340999999643,3240.156699999988,3240.639399999976,3240.639399999976,3244.7297999999523,3075.0,3244.7297999999523,5.0,3244.735599999964,6.0,29.0,209.0,14.0,1.0,1.6,0.3,Time
,,S67,1,男,21,anonymized,Serial_Dependence_U,2023.2.3,Win32,15.015015015020264,,,,,,3244.735799999952,295.0,7.0,3246.675699999988,295.0,s,1.8533999999758637,,3250.352,3250.846699999988,3249.838099999964,3250.351899999976,3247.669099999964,3249.837899999976,3250.846699999988,3251.343899999976,3251.343899999976,3256.0780999999643,3971.0,3256.0782999999524,5.0,3256.0835,7.0,0.0,210.0,1.0,1.0,1.0,0.3,Time
,,S67,1,男,21,anonymized,Serial_Dependence_U,2023.2.3,Win32,15.015015015020264,,,,,,3256.083699999988,358.0,7.0,3256.084399999976,358.0,,,,3259.633599999964,3260.127199999988,3259.131899999976,3259.633599999964,3257.076899999976,3259.131899999976,3260.127199999988,3260.616699999988,3260.616799999952,3264.1865,3065.0,3264.1865,5.0,3264.1917999999523,7.0,1.0,211.0,16.0,1.0,1.0,0.7,Time
,,S67,1,男,21,anonymized,Serial_Dependence_U,2023.2.3,Win32,15.015015015020264,,,,,,3264.192,49.0,7.0,3264.1920999999643,49.0,,,,3268.379199999988,3268.869099999964,3267.865299999952,3268.379199999988,3265.196699999988,3267.865299999952,3268.869099999964,3269.361,3269.361099999964,3274.1245,4117.0,3274.124599999964,5.0,3274.129799999952,7.0,2.0,212.0,4.0,1.0,1.6,0.3,Time
,,S67,1,男,21,anonymized,Serial_Dependence_U,2023.2.3,Win32,15.015015015020264,,,,,,3274.13,269.0,7.0,3274.130099999964,269.0,,,,3277.675099999964,3278.175899999976,3277.1652999999524,3277.675099999964,3275.252799999952,3277.165199999988,3278.175899999976,3278.664699999988,3278.6647999999523,3281.734,2560.0,3281.734,5.0,3281.739799999952,7.0,3.0,213.0,15.0,1.0,0.8,0.7,Time
,,S67,1,男,21,anonymized,Serial_Dependence_U,2023.2.3,Win32,15.015015015020264,,,,,,3281.74,158.0,7.0,3281.740099999964,158.0,,,,3285.9535,3286.4437999999523,3285.441599999964,3285.9535,3282.753199999988,3285.4415,3286.4437999999523,3286.9435,3286.9435,3290.897699999988,3188.0,3290.897699999988,5.0,3290.903299999952,7.0,4.0,214.0,24.0,1.0,1.6,0.3,Time
,,S67,1,男,21,anonymized,Serial_Dependence_U,2023.2.3,Win32,15.015015015020264,,,,,,3290.9035,9.0,7.0,3290.903599999964,9.0,,,,3294.588099999964,3295.083399999976,3294.081099999964,3294.588,3291.900899999976,3294.081,3295.0835,3295.578199999988,3295.578199999988,3299.034299999952,2935.0,3299.034299999952,5.0,3299.039599999964,7.0,5.0,215.0,21.0,1.0,1.0,0.3,Time
,,S67,1,男,21,anonymized,Serial_Dependence_U,2023.2.3,Win32,15.015015015020264,,,,,,3299.0397999999523,248.0,7.0,3299.0397999999523,248.0,,,,3302.455,3302.953599999964,3301.945,3302.454899999976,3300.047599999964,3301.944899999976,3302.953599999964,3303.458599999964,3303.458599999964,3306.381399999976,2415.0,3306.3815,5.0,3306.386699999988,7.0,6.0,216.0,25.0,1.0,0.8,0.7,Time
,,S67,1,男,21,anonymized,Serial_Dependence_U,2023.2.3,Win32,15.015015015020264,,,,,,3306.386899999976,132.0,7.0,3306.387,132.0,,,,3310.170899999976,3310.661,3309.663799999952,3310.170899999976,3307.384799999952,3309.663699999988,3310.661,3311.152899999976,3311.153,3315.2245,3042.0,3315.2245,5.0,3315.2297999999523,7.0,7.0,217.0,27.0,1.0,1.2,0.7,Time
,,S67,1,男,21,anonymized,Serial_Dependence_U,2023.2.3,Win32,15.015015015020264,,,,,,3315.23,220.0,7.0,3315.2300999999643,220.0,,,,3318.904799999952,3319.409099999964,3318.388399999976,3318.904799999952,3316.2342999999523,3318.3882999999523,3319.409199999988,3319.906599999964,3319.906599999964,3322.8547999999523,2690.0,3322.8547999999523,5.0,3322.860099999964,7.0,8.0,218.0,11.0,1.0,1.0,0.3,Time
,,S67,1,男,21,anonymized,Serial_Dependence_U,2023.2.3,Win32,15.015015015020264,,,,,,3322.860299999952,190.0,7.0,3322.860299999952,190.0,,,,3326.680899999976,3327.1685,3326.1630999999643,3326.680899999976,3323.86,3326.163,3327.1685,3327.656,3327.656099999964,3331.328399999976,2927.0,3331.328399999976,5.0,3331.333699999988,7.0,9.0,219.0,12.0,1.0,1.2,0.3,Time
,,S67,1,男,21,anonymized,Serial_Dependence_U,2023.2.3,Win32,15.015015015020264,,,,,,3331.334,241.0,7.0,3331.334,241.0,,,,3335.446399999976,3335.940299999952,3334.9405,3335.4462999999523,3332.361,3334.940399999976,3335.940299999952,3336.438099999964,3336.438099999964,3340.407099999964,3460.0,3340.407099999964,5.0,3340.412399999976,7.0,10.0,220.0,23.0,1.0,1.4,0.3,Time
,,S67,1,男,21,anonymized,Serial_Dependence_U,2023.2.3,Win32,15.015015015020264,,,,,,3340.412599999964,20.0,7.0,3340.412699999988,20.0,,,,3343.984699999988,3344.478099999964,3343.474299999952,3343.984699999988,3341.421,3343.474199999988,3344.478099999964,3344.965,3344.965,3349.444899999976,3846.0,3349.444899999976,5.0,3349.450299999952,7.0,11.0,221.0,26.0,1.0,1.0,0.7,Time
,,S67,1,男,21,anonymized,Serial_Dependence_U,2023.2.3,Win32,15.015015015020264,,,,,,3349.4505,320.0,7.0,3349.450599999964,320.0,,,,3352.862599999964,3353.364699999988,3352.3477999999523,3352.862599999964,3350.443099999964,3352.347699999988,3353.364699999988,3353.865199999988,3353.865199999988,3358.551699999988,3793.0,3358.551699999988,5.0,3358.556899999976,7.0,12.0,222.0,10.0,1.0,0.8,0.3,Time
,,S67,1,男,21,anonymized,Serial_Dependence_U,2023.2.3,Win32,15.015015015020264,,,,,,3358.557099999964,114.0,7.0,3358.557199999988,114.0,,,,3362.7767999999523,3363.274799999952,3362.264199999988,3362.776699999988,3359.577099999964,3362.264199999988,3363.274799999952,3363.762599999964,3363.762599999964,3368.647099999964,3982.0,3368.647199999988,5.0,3368.652799999952,7.0,13.0,223.0,29.0,1.0,1.6,0.7,Time
,,S67,1,男,21,anonymized,Serial_Dependence_U,2023.2.3,Win32,15.015015015020264,,,,,,3368.652899999976,108.0,7.0,3368.653,108.0,,,,3372.841,3373.332,3372.3285,3372.841,3369.654599999964,3372.3285,3373.332,3373.8212999999523,3373.8212999999523,3378.421199999988,3706.0,3378.421299999952,5.0,3378.426399999976,7.0,14.0,224.0,19.0,1.0,1.6,0.7,Time
,,S67,1,男,21,anonymized,Serial_Dependence_U,2023.2.3,Win32,15.015015015020264,,,,,,3378.426599999964,31.0,7.0,3378.426699999988,31.0,,,,3382.253399999976,3382.7517999999523,3381.735699999988,3382.253299999952,3379.4305,3381.735599999964,3382.751899999976,3383.242099999964,3383.242099999964,3388.217099999964,4205.0,3388.217099999964,5.0,3388.2225,7.0,15.0,225.0,17.0,1.0,1.2,0.7,Time
,,S67,1,男,21,anonymized,Serial_Dependence_U,2023.2.3,Win32,15.015015015020264,,,,,,3388.2227999999523,293.0,7.0,3388.222899999976,293.0,,,,3392.408099999964,3392.908099999964,3391.888099999964,3392.408099999964,3389.213299999952,3391.888,3392.908099999964,3393.401099999964,3393.401099999964,3396.742199999988,2545.0,3396.742199999988,5.0,3396.7475,7.0,16.0,226.0,14.0,1.0,1.6,0.3,Time
,,S67,1,男,21,anonymized,Serial_Dependence_U,2023.2.3,Win32,15.015015015020264,,,,,,3396.747699999988,146.0,7.0,3396.7477999999523,146.0,,,,3400.556299999952,3401.056599999964,3400.046599999964,3400.556199999988,3397.748799999952,3400.0465,3401.056599999964,3401.553699999988,3401.553699999988,3405.134299999952,2930.0,3405.134299999952,5.0,3405.139599999964,7.0,17.0,227.0,7.0,1.0,1.2,0.7,Time
,,S67,1,男,21,anonymized,Serial_Dependence_U,2023.2.3,Win32,15.015015015020264,,,,,,3405.139799999952,340.0,7.0,3405.139799999952,340.0,,,,3409.1965999999643,3409.691399999976,3408.673599999964,3409.1965999999643,3406.136799999952,3408.6735,3409.691399999976,3410.188699999988,3410.188699999988,3413.123899999976,2303.0,3413.123899999976,5.0,3413.1295,7.0,18.0,228.0,13.0,1.0,1.4,0.3,Time
,,S67,1,男,21,anonymized,Serial_Dependence_U,2023.2.3,Win32,15.015015015020264,,,,,,3413.1295999999643,56.0,7.0,3413.129699999988,56.0,,,,3416.551399999976,3417.046199999988,3416.042099999964,3416.5512999999523,3414.137,3416.042,3417.046199999988,3417.539,3417.539099999964,3421.249699999988,2833.0,3421.249699999988,5.0,3421.255,7.0,19.0,229.0,20.0,1.0,0.8,0.3,Time
,,S67,1,男,21,anonymized,Serial_Dependence_U,2023.2.3,Win32,15.015015015020264,,,,,,3421.255199999988,124.0,7.0,3421.255299999952,124.0,,,,3425.059799999952,3425.565799999952,3424.545699999988,3425.059799999952,3422.252799999952,3424.545699999988,3425.565799999952,3426.0565,3426.056599999964,3430.152,3074.0,3430.152,5.0,3430.157399999976,7.0,20.0,230.0,22.0,1.0,1.2,0.3,Time
,,S67,1,男,21,anonymized,Serial_Dependence_U,2023.2.3,Win32,15.015015015020264,,,,,,3430.157599999964,293.0,7.0,3430.157599999964,293.0,,,,3434.349899999976,3434.845299999952,3433.832799999952,3434.349899999976,3431.156899999976,3433.832699999988,3434.845299999952,3435.331899999976,3435.331899999976,3439.543,3327.0,3439.543,5.0,3439.548299999952,7.0,21.0,231.0,9.0,1.0,1.6,0.7,Time
,,S67,1,男,21,anonymized,Serial_Dependence_U,2023.2.3,Win32,15.015015015020264,,,,,,3439.5485,355.0,7.0,3439.548599999964,355.0,,,,3443.116199999988,3443.6075,3442.595099999964,3443.116199999988,3440.553199999988,3442.595,3443.607599999964,3444.108699999988,3444.108699999988,3447.6720999999643,2928.0,3447.6720999999643,5.0,3447.677399999976,7.0,22.0,232.0,6.0,1.0,1.0,0.7,Time
,,S67,1,男,21,anonymized,Serial_Dependence_U,2023.2.3,Win32,15.015015015020264,,,,,,3447.677599999964,108.0,7.0,3447.677699999988,108.0,,,,3451.743199999988,3452.239,3451.2342999999523,3451.743099999964,3448.681799999952,3451.234199999988,3452.239099999964,3452.7295,3452.7295,3456.732699999988,3240.0,3456.732699999988,5.0,3456.737899999976,7.0,23.0,233.0,8.0,1.0,1.4,0.7,Time
,,S67,1,男,21,anonymized,Serial_Dependence_U,2023.2.3,Win32,15.015015015020264,,,,,,3456.738099999964,328.0,7.0,3456.738199999988,328.0,,,,3460.521699999988,3461.023599999964,3460.0155,3460.521599999964,3457.739,3460.0155,3461.023599999964,3461.537899999976,3461.538,3465.254,3087.0,3465.254,5.0,3465.259799999952,7.0,24.0,234.0,2.0,1.0,1.2,0.3,Time
,,S67,1,男,21,anonymized,Serial_Dependence_U,2023.2.3,Win32,15.015015015020264,,,,,,3465.26,94.0,7.0,3465.26,94.0,,,,3469.320799999952,3469.819099999964,3468.806699999988,3469.320599999964,3466.258,3468.806699999988,3469.819099999964,3470.316,3470.316,3475.4352999999523,4110.0,3475.4352999999523,5.0,3475.440899999976,7.0,25.0,235.0,28.0,1.0,1.4,0.7,Time
,,S67,1,男,21,anonymized,Serial_Dependence_U,2023.2.3,Win32,15.015015015020264,,,,,,3475.441099999964,172.0,7.0,3475.441199999988,172.0,,,,3479.496599999964,3479.985,3478.979899999976,3479.4965,3476.444799999952,3478.9797999999523,3479.985,3480.498599999964,3480.498599999964,3484.815899999976,3426.0,3484.816,5.0,3484.8212999999523,7.0,26.0,236.0,18.0,1.0,1.4,0.7,Time
,,S67,1,男,21,anonymized,Serial_Dependence_U,2023.2.3,Win32,15.015015015020264,,,,,,3484.8215,117.0,7.0,3484.8215,117.0,,,,3488.262199999988,3488.7517999999523,3487.754799999952,3488.262199999988,3485.826599999964,3487.754799999952,3488.7517999999523,3489.2375,3489.2375,3493.211,3206.0,3493.211099999964,5.0,3493.2162999999523,7.0,27.0,237.0,0.0,1.0,0.8,0.3,Time
,,S67,1,男,21,anonymized,Serial_Dependence_U,2023.2.3,Win32,15.015015015020264,,,,,,3493.2165999999643,84.0,7.0,3493.2165999999643,84.0,,,,3497.280599999964,3497.777799999952,3496.751599999964,3497.280599999964,3494.2255999999643,3496.7515,3497.777799999952,3498.272199999988,3498.272199999988,3502.755,3719.0,3502.755,5.0,3502.760299999952,7.0,28.0,238.0,3.0,1.0,1.4,0.3,Time
,,S67,1,男,21,anonymized,Serial_Dependence_U,2023.2.3,Win32,15.015015015020264,,,,,,3502.7605,314.0,7.0,3502.760599999964,314.0,,,,3506.205699999988,3506.7015,3505.690699999988,3506.205599999964,3503.764299999952,3505.690599999964,3506.701599999964,3507.187899999976,3507.188,3510.770199999988,2829.0,3510.770199999988,5.0,3510.775399999976,7.0,29.0,239.0,5.0,1.0,0.8,0.7,Time
,,S67,1,男,21,anonymized,Serial_Dependence_U,2023.2.3,Win32,15.015015015020264,,,,,,3510.775599999964,114.0,8.0,3512.531,114.0,s,1.679799999952138,,3515.944599999964,3516.4405,3515.432299999952,3515.944599999964,3513.525699999988,3515.432299999952,3516.440599999964,3516.928399999976,3516.928399999976,3521.337799999952,3757.0,3521.337899999976,5.0,3521.3435,8.0,0.0,240.0,10.0,1.0,0.8,0.3,Time
,,S67,1,男,21,anonymized,Serial_Dependence_U,2023.2.3,Win32,15.015015015020264,,,,,,3521.343699999988,117.0,8.0,3521.344399999976,117.0,,,,3525.1725,3525.667799999952,3524.6605,3525.172399999976,3522.353599999964,3524.660399999976,3525.667799999952,3526.166899999976,3526.166899999976,3530.754199999988,3823.0,3530.7542999999523,5.0,3530.759699999988,8.0,1.0,241.0,17.0,1.0,1.2,0.7,Time
,,S67,1,男,21,anonymized,Serial_Dependence_U,2023.2.3,Win32,15.015015015020264,,,,,,3530.759899999976,318.0,8.0,3530.76,318.0,,,,3534.955799999952,3535.4535,3534.4325,3534.955699999988,3531.753599999964,3534.4325,3535.4535,3535.947,3535.947099999964,3539.915799999952,3587.0,3539.915899999976,5.0,3539.921099999964,8.0,2.0,242.0,4.0,1.0,1.6,0.3,Time
,,S67,1,男,21,anonymized,Serial_Dependence_U,2023.2.3,Win32,15.015015015020264,,,,,,3539.921299999952,174.0,8.0,3539.921399999976,174.0,,,,3543.740099999964,3544.230599999964,3543.227699999988,3543.74,3540.927599999964,3543.227599999964,3544.230599999964,3544.726399999976,3544.726399999976,3548.063699999988,2701.0,3548.063699999988,5.0,3548.069,8.0,3.0,243.0,7.0,1.0,1.2,0.7,Time
,,S67,1,男,21,anonymized,Serial_Dependence_U,2023.2.3,Win32,15.015015015020264,,,,,,3548.0692999999524,174.0,8.0,3548.0692999999524,174.0,,,,3552.274899999976,3552.7665,3551.760699999988,3552.274699999988,3549.073699999988,3551.7605,3552.766599999964,3553.255799999952,3553.255799999952,3557.210399999976,3194.0,3557.210399999976,5.0,3557.216,8.0,4.0,244.0,9.0,1.0,1.6,0.7,Time
,,S67,1,男,21,anonymized,Serial_Dependence_U,2023.2.3,Win32,15.015015015020264,,,,,,3557.216099999964,20.0,8.0,3557.216099999964,20.0,,,,3560.6562999999524,3561.165599999964,3560.1365,3560.6562999999524,3558.218899999976,3560.136399999976,3561.165599999964,3561.663399999976,3561.663399999976,3564.840899999976,2422.0,3564.840899999976,5.0,3564.846,8.0,5.0,245.0,15.0,1.0,0.8,0.7,Time
,,S67,1,男,21,anonymized,Serial_Dependence_U,2023.2.3,Win32,15.015015015020264,,,,,,3564.846199999988,189.0,8.0,3564.846299999952,189.0,,,,3568.9125,3569.404799999952,3568.399199999988,3568.9125,3565.85,3568.399099999964,3569.404799999952,3569.897099999964,3569.897099999964,3574.250899999976,3324.0,3574.250899999976,5.0,3574.256,8.0,6.0,246.0,28.0,1.0,1.4,0.7,Time
,,S67,1,男,21,anonymized,Serial_Dependence_U,2023.2.3,Win32,15.015015015020264,,,,,,3574.2562999999523,15.0,8.0,3574.2562999999523,15.0,,,,3578.464899999976,3578.973899999976,3577.9495,3578.464799999952,3575.261,3577.949399999976,3578.973899999976,3579.500299999952,3579.500299999952,3584.370399999976,3967.0,3584.3705,5.0,3584.375699999988,8.0,7.0,247.0,14.0,1.0,1.6,0.3,Time
,,S67,1,男,21,anonymized,Serial_Dependence_U,2023.2.3,Win32,15.015015015020264,,,,,,3584.375899999976,70.0,8.0,3584.376,70.0,,,,3588.585699999988,3589.082,3588.067299999952,3588.585599999964,3585.385,3588.067299999952,3589.082,3589.570199999988,3589.570299999952,3594.173699999988,3714.0,3594.173699999988,5.0,3594.179,8.0,8.0,248.0,19.0,1.0,1.6,0.7,Time
,,S67,1,男,21,anonymized,Serial_Dependence_U,2023.2.3,Win32,15.015015015020264,,,,,,3594.179199999988,284.0,8.0,3594.179299999952,284.0,,,,3598.246899999976,3598.741699999988,3597.734699999988,3598.246899999976,3595.192799999952,3597.7345999999643,3598.741699999988,3599.237199999988,3599.237199999988,3604.227,3973.0,3604.227099999964,5.0,3604.2325,8.0,9.0,249.0,3.0,1.0,1.4,0.3,Time
,,S67,1,男,21,anonymized,Serial_Dependence_U,2023.2.3,Win32,15.015015015020264,,,,,,3604.232699999988,195.0,8.0,3604.232799999952,195.0,,,,3607.929,3608.423099999964,3607.415,3607.928899999976,3605.2375,3607.415,3608.423099999964,3608.919199999988,3608.919199999988,3612.240899999976,2561.0,3612.241,5.0,3612.246199999988,8.0,10.0,250.0,1.0,1.0,1.0,0.3,Time
,,S67,1,男,21,anonymized,Serial_Dependence_U,2023.2.3,Win32,15.015015015020264,,,,,,3612.246399999976,90.0,8.0,3612.2465,90.0,,,,3616.310399999976,3616.801899999976,3615.793899999976,3616.310299999952,3613.258199999988,3615.793899999976,3616.802,3617.296599999964,3617.296699999988,3624.541799999952,1918.0,3624.541799999952,5.0,3624.547399999976,8.0,11.0,251.0,23.0,1.0,1.4,0.3,Time
,,S67,1,男,21,anonymized,Serial_Dependence_U,2023.2.3,Win32,15.015015015020264,,,,,,3624.547699999988,258.0,8.0,3624.547699999988,258.0,,,,3628.109,3628.608699999988,3627.602799999952,3628.109,3625.550399999976,3627.602799999952,3628.608699999988,3629.098099999964,3629.098099999964,3633.072099999964,3208.0,3633.072299999953,5.0,3633.077899999976,8.0,12.0,252.0,26.0,1.0,1.0,0.7,Time
,,S67,1,男,21,anonymized,Serial_Dependence_U,2023.2.3,Win32,15.015015015020264,,,,,,3633.078,350.0,8.0,3633.078099999964,350.0,,,,3636.498299999952,3636.994299999952,3635.974399999976,3636.498299999952,3634.066299999952,3635.974399999976,3636.994299999952,3637.492799999952,3637.492799999952,3640.952,2702.0,3640.952099999964,5.0,3640.957399999976,8.0,13.0,253.0,25.0,1.0,0.8,0.7,Time
,,S67,1,男,21,anonymized,Serial_Dependence_U,2023.2.3,Win32,15.015015015020264,,,,,,3640.957599999964,236.0,8.0,3640.957599999964,236.0,,,,3644.404299999952,3644.906299999952,3643.900399999976,3644.404199999988,3641.986899999976,3643.900299999952,3644.906299999952,3645.399099999964,3645.399199999988,3650.496399999976,3577.0,3650.496399999976,5.0,3650.501599999964,8.0,14.0,254.0,0.0,1.0,0.8,0.3,Time
,,S67,1,男,21,anonymized,Serial_Dependence_U,2023.2.3,Win32,15.015015015020264,,,,,,3650.501799999952,306.0,8.0,3650.501799999952,306.0,,,,3654.690899999976,3655.183699999988,3654.1707999999526,3654.690799999952,3651.509,3654.170699999988,3655.183699999988,3655.678399999976,3655.678399999976,3660.154699999988,3847.0,3660.154699999988,5.0,3660.160299999952,8.0,15.0,255.0,29.0,1.0,1.6,0.7,Time
,,S67,1,男,21,anonymized,Serial_Dependence_U,2023.2.3,Win32,15.015015015020264,,,,,,3660.1605,137.0,8.0,3660.160599999964,137.0,,,,3664.3582999999526,3664.856099999965,3663.842599999965,3664.358199999988,3661.172,3663.8425,3664.856099999965,3665.345,3665.345099999964,3669.434099999964,3067.0,3669.434199999988,5.0,3669.44,8.0,16.0,256.0,24.0,1.0,1.6,0.3,Time
,,S67,1,男,21,anonymized,Serial_Dependence_U,2023.2.3,Win32,15.015015015020264,,,,,,3669.440199999988,115.0,8.0,3669.440299999952,115.0,,,,3673.501199999988,3673.994599999965,3672.993399999976,3673.501099999964,3670.4495,3672.993299999952,3673.994599999965,3674.486,3674.486,3678.340799999952,3099.0,3678.340899999976,5.0,3678.346299999952,8.0,17.0,257.0,18.0,1.0,1.4,0.7,Time
,,S67,1,男,21,anonymized,Serial_Dependence_U,2023.2.3,Win32,15.015015015020264,,,,,,3678.3465,6.0,8.0,3678.346599999965,6.0,,,,3681.891399999976,3682.382199999988,3681.378799999952,3681.891299999952,3679.341399999976,3681.378799999952,3682.382299999952,3682.876,3682.876,3686.967599999965,3586.0,3686.967699999988,5.0,3686.973,8.0,18.0,258.0,16.0,1.0,1.0,0.7,Time
,,S67,1,男,21,anonymized,Serial_Dependence_U,2023.2.3,Win32,15.015015015020264,,,,,,3686.973299999952,26.0,8.0,3686.973299999952,26.0,,,,3690.813299999953,3691.310199999988,3690.292099999964,3690.813199999988,3687.977699999988,3690.292099999964,3691.310299999952,3691.807699999988,3691.807699999988,3697.305199999988,4355.0,3697.305199999988,5.0,3697.3105,8.0,19.0,259.0,22.0,1.0,1.2,0.3,Time
