Scale_setup.started,Scale_setup.stopped,participant,session,sex,age,date,expName,psychopyVersion,OS,frameRate,Intro.started,Intro.stopped,key_resp_2.keys,key_resp_2.rt,key_resp_2.duration,block.started,direction,Block_id,block.stopped,trial_direction,Block_resp_2.keys,Block_resp_2.rt,Block_resp_2.duration,ITI.started,ITI.stopped,Mask_2.started,Mask_2.stopped,encoding.started,encoding.stopped,Cue.started,Cue.stopped,Response.started,Response.stopped,keyDuration,Feedback_Time.started,FeedbackID_T,Feedback_Time.stopped,trials.thisRepN,trials.thisTrialN,trials.thisN,trials.thisIndex,trials.ran,TimeDur,Coherence1,TrialType
0.0004000000059534,0.0006000000089159,S69,1,女,22,anonymized,Serial_Dependence_U,2023.2.3,Win32,126.5822784806396,,,,,,,,,,,,,,,,,,,,,,,,,,,,,,,,,,,
,,S69,1,女,22,anonymized,Serial_Dependence_U,2023.2.3,Win32,126.5822784806396,4.946799999997012,89.28790000000598,space,84.30840000000595,,,,,,,,,,,,,,,,,,,,,,,,,,,,,,,
,,S69,1,女,22,anonymized,Serial_Dependence_U,2023.2.3,Win32,126.5822784806396,,,,,,89.30240000000597,187.0,0.0,92.184799999997,187.0,s,2.8669000000059555,,95.95820000000296,96.45779999999704,95.45699999999997,95.958,93.19240000000596,95.456799999997,96.45810000000895,96.95640000000596,96.956799999997,98.80670000000296,831.0,98.807,1.0,99.80629999999698,0.0,0.0,0.0,2.0,1.0,1.2,0.3,Time
,,S69,1,女,22,anonymized,Serial_Dependence_U,2023.2.3,Win32,126.5822784806396,,,,,,99.807,72.0,0.0,99.80960000000894,72.0,,,,103.78190000000596,104.281700000003,103.27340000000592,103.781700000003,100.807,103.27329999999702,104.281799999997,104.78099999999998,104.78110000000892,107.79720000000296,1620.0,107.79729999999702,4.0,108.79520000000296,0.0,1.0,1.0,23.0,1.0,1.4,0.3,Time
,,S69,1,女,22,anonymized,Serial_Dependence_U,2023.2.3,Win32,126.5822784806396,,,,,,108.795799999997,333.0,0.0,108.79599999999996,333.0,,,,112.13710000000891,112.63629999999702,111.62940000000596,112.13699999999996,109.795799999997,111.62920000000295,112.63640000000592,113.13690000000597,113.13699999999996,114.82129999999702,531.0,114.82140000000592,1.0,115.82129999999702,0.0,2.0,2.0,25.0,1.0,0.8,0.7,Time
,,S69,1,女,22,anonymized,Serial_Dependence_U,2023.2.3,Win32,126.5822784806396,,,,,,115.821799999997,158.0,0.0,115.82199999999996,158.0,,,,119.76379999999702,120.26329999999705,119.2555,119.76370000000296,116.82190000000595,119.25540000000596,120.26329999999705,120.7631000000089,120.76320000000295,123.60740000000592,1759.0,123.6075,4.0,124.60520000000297,0.0,3.0,3.0,8.0,1.0,1.4,0.7,Time
,,S69,1,女,22,anonymized,Serial_Dependence_U,2023.2.3,Win32,126.5822784806396,,,,,,124.60570000000294,208.0,0.0,124.605799999997,208.0,,,,127.98870000000298,128.48920000000297,127.481200000003,127.98860000000892,125.61470000000295,127.48110000000892,128.48929999999703,128.98920000000297,128.98929999999703,131.85610000000892,1609.0,131.85610000000892,5.0,132.85810000000893,0.0,4.0,4.0,0.0,1.0,0.8,0.3,Time
,,S69,1,女,22,anonymized,Serial_Dependence_U,2023.2.3,Win32,126.5822784806396,,,,,,132.85860000000892,136.0,0.0,132.858799999997,136.0,,,,136.4005,136.90029999999703,135.89240000000595,136.40040000000593,133.85929999999703,135.892299999997,136.90029999999703,137.40079999999702,137.40079999999702,138.99249999999998,695.0,138.99249999999998,1.0,139.98890000000594,0.0,5.0,5.0,26.0,1.0,1.0,0.7,Time
,,S69,1,女,22,anonymized,Serial_Dependence_U,2023.2.3,Win32,126.5822784806396,,,,,,139.98929999999703,260.0,0.0,139.9895,260.0,,,,143.357799999997,143.85599999999997,142.850799999997,143.35770000000295,140.98879999999698,142.85070000000294,143.85599999999997,144.35570000000294,144.35570000000294,147.14240000000595,1668.0,147.1425,5.0,148.13829999999703,0.0,6.0,6.0,10.0,1.0,0.8,0.3,Time
,,S69,1,女,22,anonymized,Serial_Dependence_U,2023.2.3,Win32,126.5822784806396,,,,,,148.13890000000598,106.0,0.0,148.13920000000294,106.0,,,,152.32410000000894,152.82320000000297,151.81790000000595,152.32399999999998,149.15,151.81790000000595,152.82329999999703,153.32490000000595,153.32490000000595,155.454700000003,1477.0,155.454799999997,2.0,156.454799999997,0.0,7.0,7.0,24.0,1.0,1.6,0.3,Time
,,S69,1,女,22,anonymized,Serial_Dependence_U,2023.2.3,Win32,126.5822784806396,,,,,,156.45540000000594,264.0,0.0,156.45560000000896,264.0,,,,160.5971000000089,161.096200000003,160.08890000000596,160.5971000000089,157.45590000000593,160.08860000000894,161.096200000003,161.59670000000298,161.59670000000298,164.163700000003,1683.0,164.163700000003,4.0,165.16320000000294,0.0,8.0,8.0,9.0,1.0,1.6,0.7,Time
,,S69,1,女,22,anonymized,Serial_Dependence_U,2023.2.3,Win32,126.5822784806396,,,,,,165.16360000000893,162.0,0.0,165.163700000003,162.0,,,,168.71390000000596,169.21320000000296,168.2055,168.713799999997,166.1725,168.20529999999698,169.21329999999702,169.71329999999702,169.71329999999702,171.67960000000895,1175.0,171.67960000000895,4.0,172.67979999999702,0.0,9.0,9.0,16.0,1.0,1.0,0.7,Time
,,S69,1,女,22,anonymized,Serial_Dependence_U,2023.2.3,Win32,126.5822784806396,,,,,,172.68040000000596,293.0,0.0,172.68060000000892,293.0,,,,176.85549999999998,177.35440000000594,176.35470000000296,176.85540000000597,173.6886000000089,176.3546000000089,177.35440000000594,177.85470000000296,177.85479999999703,180.40490000000597,1782.0,180.405,4.0,181.40479999999695,0.0,10.0,10.0,4.0,1.0,1.6,0.3,Time
,,S69,1,女,22,anonymized,Serial_Dependence_U,2023.2.3,Win32,126.5822784806396,,,,,,181.40540000000595,197.0,0.0,181.4055,197.0,,,,184.9805,185.4795,184.47110000000893,184.98029999999704,182.4051000000089,184.471,185.4795,185.9796000000089,185.97970000000296,188.413299999997,1657.0,188.4135,5.0,189.412900000006,0.0,11.0,11.0,21.0,1.0,1.0,0.3,Time
,,S69,1,女,22,anonymized,Serial_Dependence_U,2023.2.3,Win32,126.5822784806396,,,,,,189.4135,151.0,0.0,189.413799999997,151.0,,,,193.163299999997,193.66220000000297,192.6545,193.16320000000292,190.420900000006,192.65440000000595,193.66220000000297,194.1631000000089,194.1631000000089,195.33029999999695,650.0,195.33040000000597,1.0,196.3295,0.0,12.0,12.0,7.0,1.0,1.2,0.7,Time
,,S69,1,女,22,anonymized,Serial_Dependence_U,2023.2.3,Win32,126.5822784806396,,,,,,196.3301000000089,192.0,0.0,196.33029999999695,192.0,,,,199.709200000003,200.209299999997,199.20110000000892,199.70910000000893,197.33590000000592,199.20110000000892,200.209299999997,200.709299999997,200.7095,203.658700000003,891.0,203.658700000003,4.0,204.65940000000597,0.0,13.0,13.0,20.0,1.0,0.8,0.3,Time
,,S69,1,女,22,anonymized,Serial_Dependence_U,2023.2.3,Win32,126.5822784806396,,,,,,204.65990000000596,313.0,0.0,204.66010000000892,313.0,,,,208.83490000000597,209.333900000006,208.334200000003,208.834799999997,205.6675,208.33410000000893,209.334,209.8346000000089,209.8346000000089,211.136,785.0,211.136,1.0,212.1366000000089,0.0,14.0,14.0,14.0,1.0,1.6,0.3,Time
,,S69,1,女,22,anonymized,Serial_Dependence_U,2023.2.3,Win32,126.5822784806396,,,,,,212.137200000003,45.0,0.0,212.137299999997,45.0,,,,215.4705,215.9696000000089,214.96970000000297,215.47040000000592,213.13710000000893,214.9695,215.96970000000297,216.46979999999695,216.46979999999695,218.821,1208.0,218.82110000000893,5.0,219.82070000000297,0.0,15.0,15.0,5.0,1.0,0.8,0.7,Time
,,S69,1,女,22,anonymized,Serial_Dependence_U,2023.2.3,Win32,126.5822784806396,,,,,,219.82129999999705,295.0,0.0,219.8215,295.0,,,,223.60690000000596,224.105799999997,223.098400000006,223.60679999999695,220.831299999997,223.09820000000292,224.105900000006,224.606,224.6061000000089,226.19840000000596,942.0,226.1985,2.0,227.19820000000297,0.0,16.0,16.0,12.0,1.0,1.2,0.3,Time
,,S69,1,女,22,anonymized,Serial_Dependence_U,2023.2.3,Win32,126.5822784806396,,,,,,227.19860000000892,137.0,0.0,227.19879999999705,137.0,,,,230.74229999999704,231.2405,230.2411000000089,230.74220000000292,228.206900000006,230.241,231.2405,231.740400000006,231.740400000006,233.432700000003,1100.0,233.432799999997,4.0,234.43210000000892,0.0,17.0,17.0,6.0,1.0,1.0,0.7,Time
,,S69,1,女,22,anonymized,Serial_Dependence_U,2023.2.3,Win32,126.5822784806396,,,,,,234.432400000006,339.0,0.0,234.43260000000893,339.0,,,,238.1745,238.6735,237.665799999997,238.17440000000596,235.432900000006,237.665799999997,238.6736000000089,239.1736000000089,239.1736000000089,240.74910000000892,806.0,240.74910000000892,1.0,241.748299999997,0.0,18.0,18.0,27.0,1.0,1.2,0.7,Time
,,S69,1,女,22,anonymized,Serial_Dependence_U,2023.2.3,Win32,126.5822784806396,,,,,,241.74870000000297,129.0,0.0,241.74890000000596,129.0,,,,245.89120000000293,246.39040000000597,245.383,245.89120000000293,242.749799999997,245.38290000000595,246.3905,246.89070000000297,246.89079999999703,248.524299999997,1185.0,248.524299999997,2.0,249.523900000006,0.0,19.0,19.0,19.0,1.0,1.6,0.7,Time
,,S69,1,女,22,anonymized,Serial_Dependence_U,2023.2.3,Win32,126.5822784806396,,,,,,249.5246000000089,178.0,0.0,249.52470000000295,178.0,,,,253.2745,253.7735,252.7665,253.27440000000595,250.53260000000896,252.7665,253.7736000000089,254.27410000000893,254.27410000000893,256.040900000006,1343.0,256.040900000006,4.0,257.04099999999994,0.0,20.0,20.0,17.0,1.0,1.2,0.7,Time
,,S69,1,女,22,anonymized,Serial_Dependence_U,2023.2.3,Win32,126.5822784806396,,,,,,257.04150000000004,287.0,0.0,257.0416000000089,287.0,,,,261.025200000003,261.524,260.51649999999995,261.025,258.04999999999995,260.516400000006,261.524,262.02360000000897,262.0237000000029,263.717700000003,997.0,263.71779999999706,2.0,264.71679999999697,0.0,21.0,21.0,13.0,1.0,1.4,0.3,Time
,,S69,1,女,22,anonymized,Serial_Dependence_U,2023.2.3,Win32,126.5822784806396,,,,,,264.7172999999969,160.0,0.0,264.7174000000059,160.0,,,,268.299900000006,268.797299999997,267.7932000000029,268.29979999999705,265.72660000000894,267.793,268.797299999997,269.297100000009,269.29720000000293,271.02579999999705,1177.0,271.02579999999705,4.0,272.02199999999993,0.0,22.0,22.0,1.0,1.0,1.0,0.3,Time
,,S69,1,女,22,anonymized,Serial_Dependence_U,2023.2.3,Win32,126.5822784806396,,,,,,272.0226000000089,64.0,0.0,272.022799999997,64.0,,,,275.9966000000089,276.49679999999705,275.4891000000089,275.99629999999706,273.022799999997,275.48900000000003,276.49679999999705,276.9964000000059,276.9964000000059,278.9294000000059,1319.0,278.9296000000089,2.0,279.929900000006,0.0,23.0,23.0,3.0,1.0,1.4,0.3,Time
,,S69,1,女,22,anonymized,Serial_Dependence_U,2023.2.3,Win32,126.5822784806396,,,,,,279.93029999999703,79.0,0.0,279.93049999999994,79.0,,,,284.0725,284.5717000000029,283.563700000003,284.0724000000059,280.93100000000004,283.56360000000893,284.5717000000029,285.07160000000897,285.0717000000029,286.70550000000003,1149.0,286.70550000000003,2.0,287.7041000000089,0.0,24.0,24.0,29.0,1.0,1.6,0.7,Time
,,S69,1,女,22,anonymized,Serial_Dependence_U,2023.2.3,Win32,126.5822784806396,,,,,,287.70449999999994,239.0,0.0,287.70470000000296,239.0,,,,291.65599999999995,292.1554000000059,291.1472000000029,291.65579999999704,288.71399999999994,291.1471000000089,292.1556000000089,292.65510000000893,292.65510000000893,294.547299999997,1283.0,294.5475,2.0,295.546799999997,0.0,25.0,25.0,28.0,1.0,1.4,0.7,Time
,,S69,1,女,22,anonymized,Serial_Dependence_U,2023.2.3,Win32,126.5822784806396,,,,,,295.547299999997,316.0,0.0,295.54740000000595,316.0,,,,299.4971000000089,299.997,298.9891000000089,299.496700000003,296.555799999997,298.9891000000089,299.997,300.49679999999705,300.4969000000059,303.088,1726.0,303.088,4.0,304.0879000000059,0.0,26.0,26.0,18.0,1.0,1.4,0.7,Time
,,S69,1,女,22,anonymized,Serial_Dependence_U,2023.2.3,Win32,126.5822784806396,,,,,,304.088400000006,115.0,0.0,304.08879999999704,115.0,,,,307.672,308.171900000006,307.16429999999696,307.671799999997,305.0969000000059,307.164200000003,308.172,308.672100000009,308.672100000009,310.4055,1189.0,310.4055,4.0,311.4054000000059,0.0,27.0,27.0,11.0,1.0,1.0,0.3,Time
,,S69,1,女,22,anonymized,Serial_Dependence_U,2023.2.3,Win32,126.5822784806396,,,,,,311.405900000006,332.0,0.0,311.40599999999995,332.0,,,,315.18070000000296,315.679900000006,314.67170000000294,315.180600000009,312.406400000006,314.671600000009,315.679900000006,316.180600000009,316.180600000009,317.8075,906.0,317.80760000000896,2.0,318.807,0.0,28.0,28.0,22.0,1.0,1.2,0.3,Time
,,S69,1,女,22,anonymized,Serial_Dependence_U,2023.2.3,Win32,126.5822784806396,,,,,,318.80740000000594,23.0,0.0,318.80760000000896,23.0,,,,322.16529999999705,322.664200000003,321.65700000000004,322.16529999999705,319.81810000000894,321.656799999997,322.664200000003,323.164900000006,323.165,325.41550000000007,1649.0,325.4156000000089,5.0,326.414200000003,0.0,29.0,29.0,15.0,1.0,0.8,0.7,Time
,,S69,1,女,22,anonymized,Serial_Dependence_U,2023.2.3,Win32,126.5822784806396,,,,,,326.414700000003,83.0,1.0,331.86229999999705,83.0,s,5.42540000000588,,335.60660000000894,336.106,335.098799999997,335.60640000000603,332.86510000000897,335.09870000000296,336.106,336.606,336.6061000000089,338.37250000000006,1031.0,338.3726000000089,2.0,338.37870000000305,1.0,0.0,30.0,17.0,1.0,1.2,0.7,Time
,,S69,1,女,22,anonymized,Serial_Dependence_U,2023.2.3,Win32,126.5822784806396,,,,,,338.379,324.0,1.0,338.3804000000059,324.0,,,,341.75579999999707,342.252400000006,341.25179999999705,341.75579999999707,339.39010000000894,341.25179999999705,342.252400000006,342.75129999999706,342.7516000000089,345.0627999999971,1658.0,345.0629000000059,5.0,345.0696000000089,1.0,1.0,31.0,0.0,1.0,0.8,0.3,Time
,,S69,1,女,22,anonymized,Serial_Dependence_U,2023.2.3,Win32,126.5822784806396,,,,,,345.07000000000005,28.0,1.0,345.070100000009,28.0,,,,348.651600000009,349.151799999997,348.1435,348.65150000000006,346.08020000000295,348.14340000000595,349.151900000006,349.651600000009,349.651600000009,351.66770000000304,1310.0,351.667799999997,5.0,351.674,1.0,2.0,32.0,21.0,1.0,1.0,0.3,Time
,,S69,1,女,22,anonymized,Serial_Dependence_U,2023.2.3,Win32,126.5822784806396,,,,,,351.674200000003,243.0,1.0,351.674400000006,243.0,,,,355.65200000000004,356.15150000000006,355.144200000003,355.651799999997,352.6775,355.144,356.151600000009,356.65170000000296,356.651900000006,358.393600000009,1284.0,358.39370000000304,2.0,358.40079999999705,1.0,3.0,33.0,3.0,1.0,1.4,0.3,Time
,,S69,1,女,22,anonymized,Serial_Dependence_U,2023.2.3,Win32,126.5822784806396,,,,,,358.401200000003,47.0,1.0,358.40129999999704,47.0,,,,362.146,362.6441000000089,361.6451000000088,362.1459000000059,359.4105,361.6447999999971,362.6441000000089,363.1447999999971,363.1447999999971,365.18710000000897,1598.0,365.18720000000303,5.0,365.1931000000088,1.0,4.0,34.0,27.0,1.0,1.2,0.7,Time
,,S69,1,女,22,anonymized,Serial_Dependence_U,2023.2.3,Win32,126.5822784806396,,,,,,365.193400000006,91.0,1.0,365.1934999999999,91.0,,,,369.34279999999694,369.8412999999971,368.8347000000029,369.3427000000029,366.203,368.834600000009,369.8412999999971,370.341200000003,370.3412999999971,372.50840000000585,1593.0,372.508600000009,3.0,372.515299999997,1.0,5.0,35.0,19.0,1.0,1.6,0.7,Time
,,S69,1,女,22,anonymized,Serial_Dependence_U,2023.2.3,Win32,126.5822784806396,,,,,,372.51579999999694,286.0,1.0,372.5161000000089,286.0,,,,375.8924999999999,376.39200000000005,375.3851000000088,375.89240000000586,373.517600000009,375.3847999999971,376.3921000000089,376.891900000006,376.89200000000005,378.475799999997,1024.0,378.4759000000058,4.0,378.4822000000029,1.0,6.0,36.0,20.0,1.0,0.8,0.3,Time
,,S69,1,女,22,anonymized,Serial_Dependence_U,2023.2.3,Win32,126.5822784806396,,,,,,378.4825000000001,21.0,1.0,378.4826000000089,21.0,,,,382.0606000000089,382.55950000000007,381.5596000000089,382.0605000000001,379.49220000000287,381.55929999999694,382.5596000000089,383.06090000000586,383.0609999999999,385.1344999999999,1651.0,385.1344999999999,5.0,385.1407000000029,1.0,7.0,37.0,11.0,1.0,1.0,0.3,Time
,,S69,1,女,22,anonymized,Serial_Dependence_U,2023.2.3,Win32,126.5822784806396,,,,,,385.1409999999999,100.0,1.0,385.1411000000089,100.0,,,,388.9286000000088,389.427799999997,388.420299999997,388.9286000000088,386.151600000009,388.420200000003,389.427799999997,389.9277000000029,389.927799999997,391.84660000000895,1443.0,391.84660000000895,4.0,391.8531000000089,1.0,8.0,38.0,12.0,1.0,1.2,0.3,Time
,,S69,1,女,22,anonymized,Serial_Dependence_U,2023.2.3,Win32,126.5822784806396,,,,,,391.8535,114.0,1.0,391.8535,114.0,,,,395.4044999999999,395.904,394.8961000000088,395.4044999999999,392.8626000000088,394.8959000000059,395.9041000000088,396.40390000000593,396.404,398.36270000000286,1415.0,398.3627999999969,5.0,398.36890000000585,1.0,9.0,39.0,16.0,1.0,1.0,0.7,Time
,,S69,1,女,22,anonymized,Serial_Dependence_U,2023.2.3,Win32,126.5822784806396,,,,,,398.3692999999969,306.0,1.0,398.3692999999969,306.0,,,,402.555900000006,403.05520000000297,402.0474000000058,402.5557999999969,399.3795,402.047299999997,403.05520000000297,403.555900000006,403.556,405.4666000000088,1259.0,405.4667000000029,2.0,405.4729000000059,1.0,10.0,40.0,14.0,1.0,1.6,0.3,Time
,,S69,1,女,22,anonymized,Serial_Dependence_U,2023.2.3,Win32,126.5822784806396,,,,,,405.4731000000088,20.0,1.0,405.47320000000286,20.0,,,,409.02860000000896,409.5282000000029,408.5201000000088,409.0284999999999,406.4835000000001,408.5201000000088,409.528299999997,410.02810000000886,410.0282000000029,412.1885,1691.0,412.1886000000088,5.0,412.1952000000029,1.0,11.0,41.0,26.0,1.0,1.0,0.7,Time
,,S69,1,女,22,anonymized,Serial_Dependence_U,2023.2.3,Win32,126.5822784806396,,,,,,412.195799999997,126.0,1.0,412.1959999999999,126.0,,,,416.13920000000303,416.6392999999971,415.638799999997,416.13920000000303,413.20560000000887,415.6387000000029,416.6392999999971,417.13920000000303,417.1392999999971,419.372900000006,1776.0,419.3730000000001,4.0,419.379100000009,1.0,12.0,42.0,18.0,1.0,1.4,0.7,Time
,,S69,1,女,22,anonymized,Serial_Dependence_U,2023.2.3,Win32,126.5822784806396,,,,,,419.3792999999969,192.0,1.0,419.3795,192.0,,,,423.1561000000088,423.656,422.6476000000089,423.1561000000088,420.3821000000089,422.6475,423.656,424.155799999997,424.1559000000059,426.2974000000058,1492.0,426.2974999999999,4.0,426.30379999999695,1.0,13.0,43.0,22.0,1.0,1.2,0.3,Time
,,S69,1,女,22,anonymized,Serial_Dependence_U,2023.2.3,Win32,126.5822784806396,,,,,,426.3041000000089,289.0,1.0,426.30429999999706,289.0,,,,430.456799999997,430.9572999999971,429.94879999999694,430.4567000000029,427.31470000000286,429.94879999999694,430.9572999999971,431.45710000000895,431.457200000003,433.73679999999695,1779.0,433.736900000006,4.0,433.7429000000059,1.0,14.0,44.0,9.0,1.0,1.6,0.7,Time
,,S69,1,女,22,anonymized,Serial_Dependence_U,2023.2.3,Win32,126.5822784806396,,,,,,433.7432000000029,290.0,1.0,433.7432999999969,290.0,,,,437.287299999997,437.78649999999993,436.7867000000029,437.2871000000089,434.7535,436.786600000009,437.7867000000029,438.28620000000296,438.286299999997,440.554200000003,1678.0,440.55429999999706,5.0,440.560400000006,1.0,15.0,45.0,6.0,1.0,1.0,0.7,Time
,,S69,1,女,22,anonymized,Serial_Dependence_U,2023.2.3,Win32,126.5822784806396,,,,,,440.560799999997,92.0,1.0,440.56090000000586,92.0,,,,443.90529999999694,444.404700000003,443.3969000000058,443.9052000000029,441.5637000000029,443.396799999997,444.404700000003,444.904,444.904,446.76670000000286,1292.0,446.7667999999969,5.0,446.772799999997,1.0,16.0,46.0,25.0,1.0,0.8,0.7,Time
,,S69,1,女,22,anonymized,Serial_Dependence_U,2023.2.3,Win32,126.5822784806396,,,,,,446.77320000000304,82.0,1.0,446.7735,82.0,,,,450.951299999997,451.4542999999969,450.443,450.9512000000029,447.775900000006,450.4427999999971,451.454400000006,451.95379999999705,451.95379999999705,454.171299999997,1449.0,454.171299999997,2.0,454.1777000000029,1.0,17.0,47.0,4.0,1.0,1.6,0.3,Time
,,S69,1,女,22,anonymized,Serial_Dependence_U,2023.2.3,Win32,126.5822784806396,,,,,,454.1779000000058,261.0,1.0,454.1779999999999,261.0,,,,458.11340000000587,458.6125,457.61229999999705,458.113299999997,455.18020000000297,457.612200000003,458.6125,459.112200000003,459.112200000003,461.122200000003,1427.0,461.122200000003,3.0,461.128400000006,1.0,18.0,48.0,8.0,1.0,1.4,0.7,Time
,,S69,1,女,22,anonymized,Serial_Dependence_U,2023.2.3,Win32,126.5822784806396,,,,,,461.1286000000089,86.0,1.0,461.1287000000029,86.0,,,,465.26579999999694,465.7656000000088,464.76479999999697,465.2657000000029,462.1314000000059,464.76479999999697,465.7656000000088,466.2647000000029,466.2647000000029,468.4902000000029,1765.0,468.490299999997,4.0,468.496900000006,1.0,19.0,49.0,29.0,1.0,1.6,0.7,Time
,,S69,1,女,22,anonymized,Serial_Dependence_U,2023.2.3,Win32,126.5822784806396,,,,,,468.4976000000088,167.0,1.0,468.4977999999969,167.0,,,,471.840799999997,472.3407000000029,471.340100000009,471.84060000000886,469.5075,471.3399999999999,472.3407000000029,472.8405,472.84060000000886,474.75960000000896,1271.0,474.75960000000896,5.0,474.7656000000088,1.0,20.0,50.0,5.0,1.0,0.8,0.7,Time
,,S69,1,女,22,anonymized,Serial_Dependence_U,2023.2.3,Win32,126.5822784806396,,,,,,474.7659999999999,196.0,1.0,474.7661000000089,196.0,,,,478.74540000000593,479.2449000000058,478.244400000006,478.7452999999971,475.776900000006,478.244400000006,479.2449000000058,479.7442999999969,479.744400000006,481.7124999999999,1437.0,481.7124999999999,3.0,481.7185,1.0,21.0,51.0,23.0,1.0,1.4,0.3,Time
,,S69,1,女,22,anonymized,Serial_Dependence_U,2023.2.3,Win32,126.5822784806396,,,,,,481.7187999999969,32.0,1.0,481.718900000006,32.0,,,,485.6637999999971,486.163,485.1551000000088,485.6637999999971,482.72160000000895,485.155,486.16310000000885,486.66429999999696,486.66429999999696,488.6242000000029,1499.0,488.624299999997,4.0,488.63079999999695,1.0,22.0,52.0,28.0,1.0,1.4,0.7,Time
,,S69,1,女,22,anonymized,Serial_Dependence_U,2023.2.3,Win32,126.5822784806396,,,,,,488.6311000000089,22.0,1.0,488.631200000003,22.0,,,,492.2091000000089,492.70870000000286,491.70829999999705,492.20900000000006,489.6415,491.708200000003,492.7087999999969,493.20870000000286,493.20870000000286,494.8752000000029,1377.0,494.87529999999697,5.0,494.881200000003,1.0,23.0,53.0,1.0,1.0,1.0,0.3,Time
,,S69,1,女,22,anonymized,Serial_Dependence_U,2023.2.3,Win32,126.5822784806396,,,,,,494.8815,245.0,1.0,494.8816000000088,245.0,,,,498.2181000000089,498.717200000003,497.717200000003,498.2179999999999,495.884299999997,497.717200000003,498.717200000003,499.2177000000029,499.2177000000029,500.75179999999705,925.0,500.7519000000059,4.0,500.757900000006,1.0,24.0,54.0,15.0,1.0,0.8,0.7,Time
,,S69,1,女,22,anonymized,Serial_Dependence_U,2023.2.3,Win32,126.5822784806396,,,,,,500.7582000000029,350.0,1.0,500.7582000000029,350.0,,,,504.545200000003,505.0447000000029,504.036900000006,504.5451000000089,501.769,504.0367000000029,505.0447000000029,505.54429999999707,505.5444000000059,507.4356000000089,1241.0,507.43570000000295,3.0,507.44170000000304,1.0,25.0,55.0,2.0,1.0,1.2,0.3,Time
,,S69,1,女,22,anonymized,Serial_Dependence_U,2023.2.3,Win32,126.5822784806396,,,,,,507.442,165.0,1.0,507.4421000000089,165.0,,,,511.6195,512.1196000000089,511.1117000000029,511.619400000006,508.4449000000059,511.1116000000088,512.1196000000089,512.619400000006,512.619400000006,514.6796000000088,1423.0,514.6797000000029,2.0,514.6862000000028,1.0,26.0,56.0,24.0,1.0,1.6,0.3,Time
,,S69,1,女,22,anonymized,Serial_Dependence_U,2023.2.3,Win32,126.5822784806396,,,,,,514.6867000000029,145.0,1.0,514.686799999997,145.0,,,,518.4307000000028,518.9307000000028,517.9231000000088,518.430600000009,515.688799999997,517.923,518.9307000000028,519.4307999999969,519.430900000006,521.3402999999969,1580.0,521.3402999999969,5.0,521.346600000009,1.0,27.0,57.0,7.0,1.0,1.2,0.7,Time
,,S69,1,女,22,anonymized,Serial_Dependence_U,2023.2.3,Win32,126.5822784806396,,,,,,521.3467999999971,174.0,1.0,521.3469000000059,174.0,,,,524.732799999997,525.232,524.2242000000028,524.732700000003,522.356700000003,524.224100000009,525.2321000000088,525.731299999997,525.731400000006,527.8067999999969,1402.0,527.806900000006,5.0,527.813200000003,1.0,28.0,58.0,10.0,1.0,0.8,0.3,Time
,,S69,1,女,22,anonymized,Serial_Dependence_U,2023.2.3,Win32,126.5822784806396,,,,,,527.8136000000088,306.0,1.0,527.8136000000088,306.0,,,,531.792799999997,532.2912999999969,531.2922999999969,531.7927000000029,528.8241000000089,531.292200000003,532.2912999999969,532.7915,532.791700000003,535.0502999999969,1650.0,535.050400000006,4.0,535.056900000006,1.0,29.0,59.0,13.0,1.0,1.4,0.3,Time
,,S69,1,女,22,anonymized,Serial_Dependence_U,2023.2.3,Win32,126.5822784806396,,,,,,535.0572000000029,274.0,2.0,769.7906000000089,274.0,s,234.71240000000603,,773.975100000009,774.4747000000029,773.4669999999999,773.9749999999999,770.800400000006,773.4669000000058,774.474799999997,774.974400000006,774.9745,777.3502999999969,1533.0,777.3502999999969,3.0,777.356299999997,2.0,0.0,60.0,4.0,1.0,1.6,0.3,Time
,,S69,1,女,22,anonymized,Serial_Dependence_U,2023.2.3,Win32,126.5822784806396,,,,,,777.3566000000089,179.0,2.0,777.358799999997,179.0,,,,780.699600000009,781.1965,780.1917999999969,780.699600000009,778.3595,780.1917999999969,781.1966000000089,781.6967000000029,781.6967000000029,783.673700000003,1145.0,783.673700000003,5.0,783.6807999999969,2.0,1.0,61.0,5.0,1.0,0.8,0.7,Time
,,S69,1,女,22,anonymized,Serial_Dependence_U,2023.2.3,Win32,126.5822784806396,,,,,,783.681,341.0,2.0,783.681200000003,341.0,,,,787.216100000009,787.7131000000088,786.7152999999969,787.2159999999999,784.6822000000029,786.715100000009,787.7131000000088,788.2131000000088,788.2132000000029,790.2792000000029,1491.0,790.2792000000029,5.0,790.2857999999969,2.0,2.0,62.0,26.0,1.0,1.0,0.7,Time
,,S69,1,女,22,anonymized,Serial_Dependence_U,2023.2.3,Win32,126.5822784806396,,,,,,790.286200000003,153.0,2.0,790.286299999997,153.0,,,,794.2322000000029,794.7317999999971,793.7232999999969,794.2321000000088,791.2881000000089,793.7231000000088,794.7319000000059,795.231299999997,795.231299999997,796.981299999997,1365.0,796.981400000006,3.0,796.9877000000029,2.0,3.0,63.0,8.0,1.0,1.4,0.7,Time
,,S69,1,女,22,anonymized,Serial_Dependence_U,2023.2.3,Win32,126.5822784806396,,,,,,796.988,153.0,2.0,796.9881000000089,153.0,,,,800.3352000000029,800.8344999999999,799.832200000003,800.3351000000089,797.9987999999969,799.832100000009,800.8344999999999,801.335,801.3351000000089,803.4524000000058,1550.0,803.4524000000058,5.0,803.4585,2.0,4.0,64.0,25.0,1.0,0.8,0.7,Time
,,S69,1,女,22,anonymized,Serial_Dependence_U,2023.2.3,Win32,126.5822784806396,,,,,,803.458900000006,304.0,2.0,803.4590000000001,304.0,,,,807.6447999999971,808.1394000000059,807.1361000000088,807.644700000003,804.4704999999999,807.1361000000088,808.1395,808.6395,808.6395,810.691600000009,1627.0,810.691600000009,3.0,810.6984000000059,2.0,5.0,65.0,24.0,1.0,1.6,0.3,Time
,,S69,1,女,22,anonymized,Serial_Dependence_U,2023.2.3,Win32,126.5822784806396,,,,,,810.6987999999969,109.0,2.0,810.698900000006,109.0,,,,814.4456000000089,814.944700000003,813.937100000009,814.445400000006,811.7001000000089,813.9369999999999,814.944700000003,815.4452000000028,815.4452000000028,817.5446000000088,1435.0,817.5447000000029,4.0,817.5509999999999,2.0,6.0,66.0,27.0,1.0,1.2,0.7,Time
,,S69,1,女,22,anonymized,Serial_Dependence_U,2023.2.3,Win32,126.5822784806396,,,,,,817.5512999999969,119.0,2.0,817.551400000006,119.0,,,,821.503799999997,822.003400000006,820.9957000000029,821.5037000000029,818.5625,820.9956000000088,822.0035,822.502700000003,822.5029000000059,824.5952000000029,1616.0,824.595299999997,4.0,824.6016000000091,2.0,7.0,67.0,18.0,1.0,1.4,0.7,Time
,,S69,1,女,22,anonymized,Serial_Dependence_U,2023.2.3,Win32,126.5822784806396,,,,,,824.601900000006,152.0,2.0,824.6020000000001,152.0,,,,828.379100000009,828.8786000000089,827.871200000003,828.3789999999999,825.604299999997,827.8710000000001,828.8786000000089,829.3795,829.3795,831.4470000000001,1475.0,831.447100000009,4.0,831.4532000000031,2.0,8.0,68.0,12.0,1.0,1.2,0.3,Time
,,S69,1,女,22,anonymized,Serial_Dependence_U,2023.2.3,Win32,126.5822784806396,,,,,,831.453400000006,141.0,2.0,831.4535000000001,141.0,,,,834.805600000009,835.305200000003,834.2974000000061,834.8054999999999,832.463700000003,834.297299999997,835.305200000003,835.8051000000089,835.805200000003,838.0472000000029,1666.0,838.0472000000029,5.0,838.0541000000089,2.0,9.0,69.0,15.0,1.0,0.8,0.7,Time
,,S69,1,女,22,anonymized,Serial_Dependence_U,2023.2.3,Win32,126.5822784806396,,,,,,838.0544000000059,310.0,2.0,838.0545,310.0,,,,841.431299999997,841.931299999997,840.923700000003,841.431200000003,839.0571000000089,840.923600000009,841.9314000000061,842.4314999999999,842.4314999999999,843.9382999999971,1049.0,843.9384000000059,5.0,843.9449999999999,2.0,10.0,70.0,10.0,1.0,0.8,0.3,Time
,,S69,1,女,22,anonymized,Serial_Dependence_U,2023.2.3,Win32,126.5822784806396,,,,,,843.9452999999971,108.0,2.0,843.9452999999971,108.0,,,,847.320700000003,847.820799999997,846.8126000000091,847.3206000000089,844.946400000006,846.8125,847.820799999997,848.320799999997,848.3209000000061,850.131200000003,1319.0,850.131299999997,5.0,850.1379999999999,2.0,11.0,71.0,20.0,1.0,0.8,0.3,Time
,,S69,1,女,22,anonymized,Serial_Dependence_U,2023.2.3,Win32,126.5822784806396,,,,,,850.138400000006,276.0,2.0,850.1385,276.0,,,,854.2892000000029,854.788700000003,853.7812999999971,854.2892000000029,851.1479000000061,853.7812999999971,854.7887999999971,855.2887999999971,855.2887999999971,857.871900000006,1859.0,857.871900000006,4.0,857.8782999999971,2.0,12.0,72.0,29.0,1.0,1.6,0.7,Time
,,S69,1,女,22,anonymized,Serial_Dependence_U,2023.2.3,Win32,126.5822784806396,,,,,,857.878799999997,307.0,2.0,857.8789000000061,307.0,,,,861.4221000000089,861.921900000006,860.915100000009,861.422,858.880799999997,860.9149000000059,861.921900000006,862.4222000000029,862.4222000000029,876.557700000003,1009.0,876.557700000003,3.0,876.564200000003,2.0,13.0,73.0,6.0,1.0,1.0,0.7,Time
,,S69,1,女,22,anonymized,Serial_Dependence_U,2023.2.3,Win32,126.5822784806396,,,,,,876.5645,327.0,2.0,876.564600000009,327.0,,,,880.5165,881.015799999997,880.008200000003,880.5164000000059,877.574600000009,880.0081000000089,881.015799999997,881.5164000000059,881.5165,883.583299999997,1567.0,883.5834000000059,4.0,883.5899000000061,2.0,14.0,74.0,28.0,1.0,1.4,0.7,Time
,,S69,1,女,22,anonymized,Serial_Dependence_U,2023.2.3,Win32,126.5822784806396,,,,,,883.590100000009,323.0,2.0,883.590200000003,323.0,,,,886.966799999997,887.466100000009,886.4581000000089,886.966799999997,884.5914000000059,886.4580000000001,887.466100000009,887.9657000000029,887.9657000000029,889.4662999999971,1017.0,889.4664000000059,4.0,889.4725000000001,2.0,15.0,75.0,0.0,1.0,0.8,0.3,Time
,,S69,1,女,22,anonymized,Serial_Dependence_U,2023.2.3,Win32,126.5822784806396,,,,,,889.472700000003,130.0,2.0,889.4729000000059,130.0,,,,893.0499000000059,893.5496000000089,892.541700000003,893.0499000000059,890.4746000000089,892.541700000003,893.549700000003,894.0495000000001,894.0495000000001,895.515799999997,1033.0,895.515799999997,3.0,895.5222000000031,2.0,16.0,76.0,1.0,1.0,1.0,0.3,Time
,,S69,1,女,22,anonymized,Serial_Dependence_U,2023.2.3,Win32,126.5822784806396,,,,,,895.522400000006,320.0,2.0,895.5226000000089,320.0,,,,899.0999999999999,899.5992000000031,898.591200000003,899.099799999997,896.524900000006,898.591100000009,899.5992000000031,900.0992999999971,900.099400000006,901.965900000006,1367.0,901.966,5.0,901.972700000003,2.0,17.0,77.0,21.0,1.0,1.0,0.3,Time
,,S69,1,女,22,anonymized,Serial_Dependence_U,2023.2.3,Win32,126.5822784806396,,,,,,901.973100000009,342.0,2.0,901.973100000009,342.0,,,,906.1501000000088,906.649100000009,905.641400000006,906.15,902.974799999997,905.641200000003,906.649100000009,907.149,907.149,909.082100000009,1424.0,909.082200000003,2.0,909.088900000006,2.0,18.0,78.0,14.0,1.0,1.6,0.3,Time
,,S69,1,女,22,anonymized,Serial_Dependence_U,2023.2.3,Win32,126.5822784806396,,,,,,909.089100000009,181.0,2.0,909.0892999999973,181.0,,,,913.240900000006,913.74,912.7332999999971,913.240700000003,910.0995,912.7332000000032,913.7401000000089,914.240600000009,914.240700000003,916.1907999999972,1609.0,916.190900000006,3.0,916.197799999997,2.0,19.0,79.0,19.0,1.0,1.6,0.7,Time
,,S69,1,女,22,anonymized,Serial_Dependence_U,2023.2.3,Win32,126.5822784806396,,,,,,916.1981000000088,247.0,2.0,916.198200000003,247.0,,,,919.782799999997,920.282100000009,919.2746000000092,919.7827000000028,917.207200000003,919.2746000000092,920.282100000009,920.7812999999971,920.7812999999971,922.3827999999972,1116.0,922.382900000006,4.0,922.389100000009,2.0,20.0,80.0,11.0,1.0,1.0,0.3,Time
,,S69,1,女,22,anonymized,Serial_Dependence_U,2023.2.3,Win32,126.5822784806396,,,,,,922.3892999999972,290.0,2.0,922.389400000006,290.0,,,,925.940900000006,926.440200000003,925.432400000006,925.9407000000032,923.399200000003,925.4322000000028,926.440299999997,926.940299999997,926.940400000006,929.0737000000032,1475.0,929.0737000000032,5.0,929.08,2.0,21.0,81.0,16.0,1.0,1.0,0.7,Time
,,S69,1,女,22,anonymized,Serial_Dependence_U,2023.2.3,Win32,126.5822784806396,,,,,,929.0802999999972,301.0,2.0,929.0802999999972,301.0,,,,933.224100000009,933.7236000000088,932.7156000000087,933.224,930.0825,932.7155,933.7236000000088,934.2236000000088,934.223700000003,936.0651000000088,1451.0,936.065200000003,2.0,936.071900000006,2.0,22.0,82.0,9.0,1.0,1.6,0.7,Time
,,S69,1,女,22,anonymized,Serial_Dependence_U,2023.2.3,Win32,126.5822784806396,,,,,,936.0722999999972,287.0,2.0,936.072400000006,287.0,,,,939.8157999999972,940.3151000000088,939.307900000006,939.8157000000032,937.074600000009,939.307900000006,940.3151000000088,940.8147999999971,940.814900000006,943.0896000000088,1898.0,943.0896000000088,5.0,943.095700000003,2.0,23.0,83.0,7.0,1.0,1.2,0.7,Time
,,S69,1,女,22,anonymized,Serial_Dependence_U,2023.2.3,Win32,126.5822784806396,,,,,,943.0961000000088,97.0,2.0,943.0962000000028,97.0,,,,946.866799999997,947.366700000003,946.3615,946.866799999997,944.0945,946.3615,947.366700000003,947.867799999997,947.867799999997,949.258900000006,857.0,949.258900000006,2.0,949.265200000003,2.0,24.0,84.0,2.0,1.0,1.2,0.3,Time
,,S69,1,女,22,anonymized,Serial_Dependence_U,2023.2.3,Win32,126.5822784806396,,,,,,949.2655,350.0,2.0,949.265600000009,350.0,,,,953.2412000000028,953.740700000003,952.739600000009,953.241100000009,950.276200000003,952.7395,953.740700000003,954.2402000000028,954.240299999997,955.990700000003,1173.0,955.9907999999972,2.0,955.997299999997,2.0,25.0,85.0,23.0,1.0,1.4,0.3,Time
,,S69,1,女,22,anonymized,Serial_Dependence_U,2023.2.3,Win32,126.5822784806396,,,,,,955.9975,262.0,2.0,955.9977000000032,262.0,,,,959.9701000000088,960.469600000009,959.461299999997,959.97,956.996900000006,959.461299999997,960.4697000000032,960.969600000009,960.969600000009,962.486100000009,1024.0,962.486100000009,2.0,962.4925,2.0,26.0,86.0,13.0,1.0,1.4,0.3,Time
,,S69,1,女,22,anonymized,Serial_Dependence_U,2023.2.3,Win32,126.5822784806396,,,,,,962.492900000006,172.0,2.0,962.493,172.0,,,,966.236600000009,966.7362999999972,965.729,966.2365,963.495,965.728900000006,966.736400000006,967.236100000009,967.236200000003,969.137100000009,1360.0,969.1372000000032,4.0,969.1437999999972,2.0,27.0,87.0,17.0,1.0,1.2,0.7,Time
,,S69,1,女,22,anonymized,Serial_Dependence_U,2023.2.3,Win32,126.5822784806396,,,,,,969.1442000000028,275.0,2.0,969.1442000000028,275.0,,,,972.9172999999972,973.415799999997,972.416100000009,972.917200000003,970.1547999999972,972.415900000006,973.415799999997,973.9155,973.9156000000088,975.707200000003,1343.0,975.707200000003,4.0,975.7135,2.0,28.0,88.0,22.0,1.0,1.2,0.3,Time
,,S69,1,女,22,anonymized,Serial_Dependence_U,2023.2.3,Win32,126.5822784806396,,,,,,975.713799999997,150.0,2.0,975.713900000006,150.0,,,,979.6922000000028,980.191,979.183400000006,979.6922000000028,976.716400000006,979.1832000000028,980.191,980.6912000000028,980.691299999997,982.6411000000088,1101.0,982.6411000000088,2.0,982.647100000009,2.0,29.0,89.0,3.0,1.0,1.4,0.3,Time
,,S69,1,女,22,anonymized,Serial_Dependence_U,2023.2.3,Win32,126.5822784806396,,,,,,982.6475,356.0,3.0,984.706,356.0,s,2.044100000008939,,988.448,988.9476000000092,987.9401000000088,988.448,985.7065,987.94,988.9476000000092,989.4475,989.4476000000092,990.814,842.0,990.814,2.0,990.8202000000032,3.0,0.0,90.0,7.0,1.0,1.2,0.7,Time
,,S69,1,女,22,anonymized,Serial_Dependence_U,2023.2.3,Win32,126.5822784806396,,,,,,990.8206000000088,161.0,3.0,990.8222999999972,161.0,,,,994.9657000000028,995.4652999999972,994.4577000000028,994.9655,991.823200000003,994.457600000009,995.4652999999972,995.965400000006,995.9656000000087,998.318100000009,1867.0,998.3182000000028,4.0,998.3245,3.0,1.0,91.0,9.0,1.0,1.6,0.7,Time
,,S69,1,女,22,anonymized,Serial_Dependence_U,2023.2.3,Win32,126.5822784806396,,,,,,998.324900000006,252.0,3.0,998.324900000006,252.0,,,,1002.512400000006,1003.0116000000088,1002.004,1002.512400000006,999.3352000000028,1002.003900000006,1003.0116000000088,1003.511900000006,1003.511900000006,1005.520299999997,1209.0,1005.520400000006,2.0,1005.5265,3.0,2.0,92.0,4.0,1.0,1.6,0.3,Time
,,S69,1,女,22,anonymized,Serial_Dependence_U,2023.2.3,Win32,126.5822784806396,,,,,,1005.5267000000032,67.0,3.0,1005.5267999999973,67.0,,,,1009.4717999999972,1009.970900000006,1008.9636000000088,1009.4717999999972,1006.530100000009,1008.9635,1009.970900000006,1010.471400000006,1010.471400000006,1012.4797999999972,1286.0,1012.479900000006,2.0,1012.486400000006,3.0,3.0,93.0,8.0,1.0,1.4,0.7,Time
,,S69,1,女,22,anonymized,Serial_Dependence_U,2023.2.3,Win32,126.5822784806396,,,,,,1012.4867000000028,206.0,3.0,1012.486799999997,206.0,,,,1016.439299999997,1016.937900000006,1015.931299999997,1016.439200000003,1013.4971000000088,1015.931200000003,1016.937900000006,1017.438200000003,1017.4382999999972,1019.331200000003,1524.0,1019.331200000003,4.0,1019.337299999997,3.0,4.0,94.0,28.0,1.0,1.4,0.7,Time
,,S69,1,女,22,anonymized,Serial_Dependence_U,2023.2.3,Win32,126.5822784806396,,,,,,1019.337700000003,4.0,3.0,1019.3377999999972,4.0,,,,1022.882,1023.3817999999968,1022.374700000003,1022.881900000006,1020.340900000006,1022.3745,1023.381900000006,1023.883200000003,1023.883299999997,1026.105700000003,1686.0,1026.105799999997,5.0,1026.112200000003,3.0,5.0,95.0,16.0,1.0,1.0,0.7,Time
,,S69,1,女,22,anonymized,Serial_Dependence_U,2023.2.3,Win32,126.5822784806396,,,,,,1026.1125,1.0,3.0,1026.1125,1.0,,,,1029.690200000003,1030.189400000006,1029.181700000003,1029.690200000003,1027.115200000003,1029.181600000009,1030.1895,1030.684100000009,1030.684200000003,1032.8772999999971,1594.0,1032.877400000006,5.0,1032.883700000003,3.0,6.0,96.0,21.0,1.0,1.0,0.3,Time
,,S69,1,女,22,anonymized,Serial_Dependence_U,2023.2.3,Win32,126.5822784806396,,,,,,1032.883900000006,184.0,3.0,1032.8841000000089,184.0,,,,1036.427900000006,1036.927400000006,1035.920600000009,1036.427799999997,1033.886299999997,1035.9205,1036.927400000006,1037.428100000009,1037.428299999997,1039.581400000006,1541.0,1039.5815,5.0,1039.588200000003,3.0,7.0,97.0,6.0,1.0,1.0,0.7,Time
,,S69,1,女,22,anonymized,Serial_Dependence_U,2023.2.3,Win32,126.5822784806396,,,,,,1039.5885,178.0,3.0,1039.588600000009,178.0,,,,1043.322799999997,1043.821900000006,1042.822100000009,1043.322700000003,1040.589799999997,1042.822,1043.821900000006,1044.322600000009,1044.322700000003,1045.382400000006,524.0,1045.382400000006,1.0,1045.3885,3.0,8.0,98.0,27.0,1.0,1.2,0.7,Time
,,S69,1,女,22,anonymized,Serial_Dependence_U,2023.2.3,Win32,126.5822784806396,,,,,,1045.388799999997,45.0,3.0,1045.388900000006,45.0,,,,1048.761200000003,1049.2605,1048.260600000009,1048.761100000009,1046.391900000006,1048.2605,1049.2605,1049.759799999997,1049.759799999997,1051.319,1118.0,1051.319100000009,5.0,1051.325100000009,3.0,9.0,99.0,10.0,1.0,0.8,0.3,Time
,,S69,1,女,22,anonymized,Serial_Dependence_U,2023.2.3,Win32,126.5822784806396,,,,,,1051.325400000006,0.0,3.0,1051.3255,0.0,,,,1054.704600000009,1055.2035,1054.203900000006,1054.704600000009,1052.336,1054.203900000006,1055.203600000009,1055.704100000009,1055.704200000003,1057.295400000006,976.0,1057.295400000006,4.0,1057.301799999997,3.0,10.0,100.0,0.0,1.0,0.8,0.3,Time
,,S69,1,女,22,anonymized,Serial_Dependence_U,2023.2.3,Win32,126.5822784806396,,,,,,1057.302200000003,66.0,3.0,1057.302299999997,66.0,,,,1060.6382999999971,1061.137900000006,1060.1375,1060.638200000003,1058.304700000003,1060.1375,1061.137900000006,1061.638,1061.638,1063.412400000006,1143.0,1063.412400000006,5.0,1063.418299999997,3.0,11.0,101.0,25.0,1.0,0.8,0.7,Time
,,S69,1,女,22,anonymized,Serial_Dependence_U,2023.2.3,Win32,126.5822784806396,,,,,,1063.418600000009,287.0,3.0,1063.418700000003,287.0,,,,1067.564299999997,1068.063900000006,1067.0555,1067.564100000009,1064.4207999999971,1067.055400000006,1068.063900000006,1068.5635,1068.563600000009,1070.738299999997,1682.0,1070.738299999997,4.0,1070.745,3.0,12.0,102.0,19.0,1.0,1.6,0.7,Time
,,S69,1,女,22,anonymized,Serial_Dependence_U,2023.2.3,Win32,126.5822784806396,,,,,,1070.745299999997,191.0,3.0,1070.745400000006,191.0,,,,1074.091200000003,1074.590400000006,1073.589900000006,1074.091100000009,1071.756200000003,1073.589799999997,1074.5905,1075.09,1075.09,1076.915900000006,1283.0,1076.916100000009,5.0,1076.923,3.0,13.0,103.0,15.0,1.0,0.8,0.7,Time
,,S69,1,女,22,anonymized,Serial_Dependence_U,2023.2.3,Win32,126.5822784806396,,,,,,1076.923299999997,240.0,3.0,1076.923400000006,240.0,,,,1080.908200000003,1081.407700000003,1080.399799999997,1080.908100000009,1077.9325,1080.399700000003,1081.407700000003,1081.9075,1081.9075,1083.741200000003,1340.0,1083.741200000003,3.0,1083.747600000009,3.0,14.0,104.0,13.0,1.0,1.4,0.3,Time
,,S69,1,女,22,anonymized,Serial_Dependence_U,2023.2.3,Win32,126.5822784806396,,,,,,1083.747900000006,31.0,3.0,1083.748,31.0,,,,1087.329,1087.829,1086.821100000009,1087.328799999997,1084.757700000003,1086.821,1087.829,1088.328100000009,1088.328100000009,1090.237,1176.0,1090.237,4.0,1090.243200000003,3.0,15.0,105.0,1.0,1.0,1.0,0.3,Time
,,S69,1,女,22,anonymized,Serial_Dependence_U,2023.2.3,Win32,126.5822784806396,,,,,,1090.2436000000089,348.0,3.0,1090.243700000003,348.0,,,,1094.014299999997,1094.513900000006,1093.513,1094.014200000003,1091.246400000006,1093.512900000006,1094.513900000006,1095.014,1095.014100000009,1097.123100000009,1324.0,1097.123200000003,4.0,1097.129200000003,3.0,16.0,106.0,22.0,1.0,1.2,0.3,Time
,,S69,1,女,22,anonymized,Serial_Dependence_U,2023.2.3,Win32,126.5822784806396,,,,,,1097.1295,9.0,3.0,1097.1295,9.0,,,,1100.664900000006,1101.1635,1100.164400000006,1100.664799999997,1098.131100000009,1100.164400000006,1101.1635,1101.664,1101.664,1103.924600000009,1750.0,1103.924700000003,5.0,1103.930900000006,3.0,17.0,107.0,26.0,1.0,1.0,0.7,Time
,,S69,1,女,22,anonymized,Serial_Dependence_U,2023.2.3,Win32,126.5822784806396,,,,,,1103.931299999997,85.0,3.0,1103.931400000006,85.0,,,,1107.307799999997,1107.8075,1106.799400000006,1107.307700000003,1104.9335,1106.799299999997,1107.8075,1108.307400000006,1108.307400000006,1110.582299999997,1424.0,1110.582400000006,5.0,1110.589100000009,3.0,18.0,108.0,20.0,1.0,0.8,0.3,Time
,,S69,1,女,22,anonymized,Serial_Dependence_U,2023.2.3,Win32,126.5822784806396,,,,,,1110.5895,291.0,3.0,1110.5896000000089,291.0,,,,1113.933400000006,1114.433400000006,1113.425700000003,1113.933299999997,1111.591799999997,1113.425700000003,1114.4335,1114.933400000006,1114.9335,1116.968,1448.0,1116.968,5.0,1116.975200000003,3.0,19.0,109.0,5.0,1.0,0.8,0.7,Time
,,S69,1,女,22,anonymized,Serial_Dependence_U,2023.2.3,Win32,126.5822784806396,,,,,,1116.9755,247.0,3.0,1116.9756000000089,247.0,,,,1120.951200000003,1121.451200000003,1120.443100000009,1120.951200000003,1117.976700000003,1120.443,1121.451200000003,1121.951200000003,1121.951299999997,1124.18,1612.0,1124.18,4.0,1124.1865,3.0,20.0,110.0,23.0,1.0,1.4,0.3,Time
,,S69,1,女,22,anonymized,Serial_Dependence_U,2023.2.3,Win32,126.5822784806396,,,,,,1124.186900000006,40.0,3.0,1124.187,40.0,,,,1127.929900000006,1128.429799999997,1127.422400000006,1127.929799999997,1125.188600000009,1127.422299999997,1128.429799999997,1128.929900000006,1128.930100000009,1131.365700000003,1794.0,1131.365799999997,5.0,1131.371600000009,3.0,21.0,111.0,17.0,1.0,1.2,0.7,Time
,,S69,1,女,22,anonymized,Serial_Dependence_U,2023.2.3,Win32,126.5822784806396,,,,,,1131.371900000006,139.0,3.0,1131.372,139.0,,,,1134.935799999997,1135.435400000006,1134.433299999997,1134.935700000003,1132.3665,1134.433100000009,1135.435400000006,1135.935400000006,1135.9355,1138.793299999997,2001.0,1138.793299999997,5.0,1138.7995,3.0,22.0,112.0,11.0,1.0,1.0,0.3,Time
,,S69,1,女,22,anonymized,Serial_Dependence_U,2023.2.3,Win32,126.5822784806396,,,,,,1138.799799999997,26.0,3.0,1138.799799999997,26.0,,,,1142.779600000009,1143.2785,1142.2781000000089,1142.779400000006,1139.8102999999971,1142.2781000000089,1143.2785,1143.779100000009,1143.779200000003,1145.837299999997,1426.0,1145.837299999997,3.0,1145.843400000006,3.0,23.0,113.0,3.0,1.0,1.4,0.3,Time
,,S69,1,女,22,anonymized,Serial_Dependence_U,2023.2.3,Win32,126.5822784806396,,,,,,1145.843600000009,295.0,3.0,1145.8437999999971,295.0,,,,1149.618100000009,1150.117400000006,1149.1145,1149.618,1146.8461000000088,1149.114299999997,1150.1175,1150.617600000009,1150.617600000009,1152.709200000003,1198.0,1152.709299999997,3.0,1152.715799999997,3.0,24.0,114.0,12.0,1.0,1.2,0.3,Time
,,S69,1,女,22,anonymized,Serial_Dependence_U,2023.2.3,Win32,126.5822784806396,,,,,,1152.716100000009,77.0,3.0,1152.716200000003,77.0,,,,1156.894700000003,1157.3927999999971,1156.393600000009,1156.894600000009,1153.726200000003,1156.3935,1157.3927999999971,1157.893600000009,1157.893700000003,1159.892600000009,1486.0,1159.892700000003,2.0,1159.898799999997,3.0,25.0,115.0,24.0,1.0,1.6,0.3,Time
,,S69,1,女,22,anonymized,Serial_Dependence_U,2023.2.3,Win32,126.5822784806396,,,,,,1159.899100000009,254.0,3.0,1159.899100000009,254.0,,,,1163.849900000006,1164.347100000009,1163.341200000003,1163.849799999997,1160.908400000006,1163.341100000009,1164.3472000000029,1164.850400000006,1164.850400000006,1166.988700000003,1670.0,1166.9887999999971,4.0,1166.995400000006,3.0,26.0,116.0,18.0,1.0,1.4,0.7,Time
,,S69,1,女,22,anonymized,Serial_Dependence_U,2023.2.3,Win32,126.5822784806396,,,,,,1166.995799999997,313.0,3.0,1166.995799999997,313.0,,,,1171.183299999997,1171.6825,1170.6742000000029,1171.183299999997,1168.005900000006,1170.674100000009,1171.6825,1172.182600000009,1172.182700000003,1174.797400000006,1966.0,1174.7975,4.0,1174.803799999997,3.0,27.0,117.0,14.0,1.0,1.6,0.3,Time
,,S69,1,女,22,anonymized,Serial_Dependence_U,2023.2.3,Win32,126.5822784806396,,,,,,1174.804100000009,54.0,3.0,1174.804200000003,54.0,,,,1178.580700000003,1179.081100000009,1178.072400000006,1178.5806000000089,1175.806200000003,1178.072200000003,1179.081100000009,1179.581,1179.581,1181.880600000009,1556.0,1181.880600000009,4.0,1181.887200000003,3.0,28.0,118.0,2.0,1.0,1.2,0.3,Time
,,S69,1,女,22,anonymized,Serial_Dependence_U,2023.2.3,Win32,126.5822784806396,,,,,,1181.8875,40.0,3.0,1181.887700000003,40.0,,,,1186.039299999997,1186.536900000006,1185.530400000006,1186.039200000003,1182.895299999997,1185.530299999997,1186.536900000006,1187.0365,1187.036600000009,1189.410900000006,1945.0,1189.411,4.0,1189.417700000003,3.0,29.0,119.0,29.0,1.0,1.6,0.7,Time
,,S69,1,女,22,anonymized,Serial_Dependence_U,2023.2.3,Win32,126.5822784806396,,,,,,1189.418,135.0,4.0,1737.561799999997,135.0,s,548.122599999994,,1741.531700000003,1742.031200000003,1741.031,1741.531600000009,1738.566,1741.030900000006,1742.031200000003,1742.531700000003,1742.531700000003,1744.706,1366.0,1744.706100000009,3.0,1744.712,4.0,0.0,120.0,3.0,1.0,1.4,0.3,Time
,,S69,1,女,22,anonymized,Serial_Dependence_U,2023.2.3,Win32,126.5822784806396,,,,,,1744.712200000003,265.0,4.0,1744.714400000006,265.0,,,,1748.300200000003,1748.801100000009,1747.791700000003,1748.300200000003,1745.723100000009,1747.7916000000089,1748.801100000009,1749.3012999999971,1749.3012999999971,1751.246600000009,1373.0,1751.246700000003,5.0,1751.252700000003,4.0,1.0,121.0,1.0,1.0,1.0,0.3,Time
,,S69,1,女,22,anonymized,Serial_Dependence_U,2023.2.3,Win32,126.5822784806396,,,,,,1751.253,210.0,4.0,1751.253100000009,210.0,,,,1754.839400000006,1755.339200000003,1754.330400000006,1754.8392999999971,1752.263700000003,1754.330400000006,1755.339200000003,1755.839,1755.839,1758.2405,1763.0,1758.2405,5.0,1758.246700000003,4.0,2.0,122.0,21.0,1.0,1.0,0.3,Time
,,S69,1,女,22,anonymized,Serial_Dependence_U,2023.2.3,Win32,126.5822784806396,,,,,,1758.247100000009,258.0,4.0,1758.247100000009,258.0,,,,1761.999900000006,1762.4995,1761.491900000006,1761.999900000006,1759.258200000003,1761.491799999997,1762.4995,1762.999299999997,1762.999299999997,1766.1,2359.0,1766.100100000009,5.0,1766.106900000006,4.0,3.0,123.0,7.0,1.0,1.2,0.7,Time
,,S69,1,女,22,anonymized,Serial_Dependence_U,2023.2.3,Win32,126.5822784806396,,,,,,1766.107299999997,106.0,4.0,1766.107400000006,106.0,,,,1770.283100000009,1770.783200000003,1769.775600000009,1770.283,1767.108400000006,1769.775400000006,1770.783299999997,1771.283200000003,1771.283200000003,1773.016200000003,1050.0,1773.016299999997,1.0,1773.022900000006,4.0,4.0,124.0,14.0,1.0,1.6,0.3,Time
,,S69,1,女,22,anonymized,Serial_Dependence_U,2023.2.3,Win32,126.5822784806396,,,,,,1773.023200000003,103.0,4.0,1773.023299999997,103.0,,,,1776.809100000009,1777.307400000006,1776.300299999997,1776.809,1774.033299999997,1776.300200000003,1777.307400000006,1777.807600000009,1777.807700000003,1779.266100000009,1016.0,1779.266200000003,2.0,1779.2722999999971,4.0,5.0,125.0,22.0,1.0,1.2,0.3,Time
,,S69,1,女,22,anonymized,Serial_Dependence_U,2023.2.3,Win32,126.5822784806396,,,,,,1779.2726000000089,281.0,4.0,1779.272700000003,281.0,,,,1783.249799999997,1783.749900000006,1782.742100000009,1783.249799999997,1780.275600000009,1782.742,1783.749900000006,1784.249799999997,1784.249900000006,1786.309799999997,1517.0,1786.309900000006,4.0,1786.3161000000089,4.0,6.0,126.0,13.0,1.0,1.4,0.3,Time
,,S69,1,女,22,anonymized,Serial_Dependence_U,2023.2.3,Win32,126.5822784806396,,,,,,1786.3165,179.0,4.0,1786.316600000009,179.0,,,,1790.26,1790.7595,1789.7515,1790.259900000006,1787.3185,1789.751400000006,1790.7595,1791.258799999997,1791.258799999997,1793.6115,1464.0,1793.6115,3.0,1793.618,4.0,7.0,127.0,28.0,1.0,1.4,0.7,Time
,,S69,1,女,22,anonymized,Serial_Dependence_U,2023.2.3,Win32,126.5822784806396,,,,,,1793.6182999999971,192.0,4.0,1793.618400000006,192.0,,,,1797.761900000006,1798.261400000006,1797.253900000006,1797.761700000003,1794.620400000006,1797.253799999997,1798.261400000006,1798.761700000003,1798.761799999997,1801.046100000009,1750.0,1801.046100000009,4.0,1801.052400000006,4.0,8.0,128.0,9.0,1.0,1.6,0.7,Time
,,S69,1,女,22,anonymized,Serial_Dependence_U,2023.2.3,Win32,126.5822784806396,,,,,,1801.052799999997,139.0,4.0,1801.052900000006,139.0,,,,1805.204,1805.703600000009,1804.695799999997,1805.203799999997,1802.0625,1804.6956000000089,1805.703600000009,1806.204700000003,1806.204799999997,1807.462700000003,586.0,1807.462700000003,1.0,1807.468600000009,4.0,9.0,129.0,29.0,1.0,1.6,0.7,Time
,,S69,1,女,22,anonymized,Serial_Dependence_U,2023.2.3,Win32,126.5822784806396,,,,,,1807.468900000006,323.0,4.0,1807.469,323.0,,,,1810.838600000009,1811.337299999997,1810.330299999997,1810.8385,1808.463600000009,1810.330200000003,1811.337299999997,1811.838,1811.838,1813.772,774.0,1813.772200000003,3.0,1813.778400000006,4.0,10.0,130.0,20.0,1.0,0.8,0.3,Time
,,S69,1,女,22,anonymized,Serial_Dependence_U,2023.2.3,Win32,126.5822784806396,,,,,,1813.778700000003,340.0,4.0,1813.778799999997,340.0,,,,1817.757700000003,1818.256400000006,1817.255799999997,1817.757600000009,1814.788400000006,1817.255799999997,1818.256400000006,1818.756900000006,1818.757,1820.683900000006,1384.0,1820.684,3.0,1820.690100000009,4.0,11.0,131.0,23.0,1.0,1.4,0.3,Time
,,S69,1,女,22,anonymized,Serial_Dependence_U,2023.2.3,Win32,126.5822784806396,,,,,,1820.6904000000056,181.0,4.0,1820.690600000009,181.0,,,,1824.443100000009,1824.942400000006,1823.935400000006,1824.443,1821.7015,1823.935400000006,1824.942400000006,1825.4421000000088,1825.442200000003,1827.233799999997,1219.0,1827.233799999997,3.0,1827.239700000003,4.0,12.0,132.0,17.0,1.0,1.2,0.7,Time
,,S69,1,女,22,anonymized,Serial_Dependence_U,2023.2.3,Win32,126.5822784806396,,,,,,1827.2401000000089,119.0,4.0,1827.240200000003,119.0,,,,1831.4176000000089,1831.9115,1830.909400000006,1831.4176000000089,1828.243100000009,1830.909299999997,1831.9115,1832.413299999997,1832.413400000006,1834.1495,1268.0,1834.149700000003,2.0,1834.156,4.0,13.0,133.0,4.0,1.0,1.6,0.3,Time
,,S69,1,女,22,anonymized,Serial_Dependence_U,2023.2.3,Win32,126.5822784806396,,,,,,1834.1562999999967,227.0,4.0,1834.1565,227.0,,,,1837.528700000003,1838.028,1837.020200000003,1837.528600000009,1835.157900000006,1837.020100000009,1838.028,1838.528200000003,1838.528200000003,1840.1285,1133.0,1840.1286000000089,5.0,1840.1345,4.0,14.0,134.0,10.0,1.0,0.8,0.3,Time
,,S69,1,女,22,anonymized,Serial_Dependence_U,2023.2.3,Win32,126.5822784806396,,,,,,1840.134799999997,158.0,4.0,1840.134799999997,158.0,,,,1844.293600000009,1844.792299999997,1843.784600000009,1844.293299999997,1841.145200000003,1843.7845,1844.792299999997,1845.291700000003,1845.291799999997,1847.375299999997,1516.0,1847.375400000006,2.0,1847.381600000009,4.0,15.0,135.0,19.0,1.0,1.6,0.7,Time
,,S69,1,女,22,anonymized,Serial_Dependence_U,2023.2.3,Win32,126.5822784806396,,,,,,1847.382,169.0,4.0,1847.382,169.0,,,,1851.3347000000028,1851.8339000000055,1850.826100000009,1851.3345,1848.3927000000028,1850.826,1851.8339000000055,1852.3331000000087,1852.3331000000087,1854.425600000009,1534.0,1854.4257000000032,4.0,1854.4324000000056,4.0,16.0,136.0,18.0,1.0,1.4,0.7,Time
,,S69,1,女,22,anonymized,Serial_Dependence_U,2023.2.3,Win32,126.5822784806396,,,,,,1854.432799999997,272.0,4.0,1854.433200000003,272.0,,,,1857.7797999999968,1858.278799999997,1857.2711000000088,1857.7795,1855.437400000006,1857.271,1858.278799999997,1858.777799999997,1858.7779000000064,1859.696900000006,374.0,1859.696900000006,1.0,1859.703,4.0,17.0,137.0,15.0,1.0,0.8,0.7,Time
,,S69,1,女,22,anonymized,Serial_Dependence_U,2023.2.3,Win32,126.5822784806396,,,,,,1859.7032999999967,82.0,4.0,1859.703400000006,82.0,,,,1863.6501000000087,1864.149299999997,1863.141400000006,1863.65,1860.7086000000088,1863.1412999999968,1864.149400000006,1864.6492000000028,1864.649400000006,1884.9575,1423.0,1884.957600000009,3.0,1884.9639000000057,4.0,18.0,138.0,8.0,1.0,1.4,0.7,Time
,,S69,1,女,22,anonymized,Serial_Dependence_U,2023.2.3,Win32,126.5822784806396,,,,,,1884.964299999997,354.0,4.0,1884.964400000006,354.0,,,,1888.549400000006,1889.049,1888.0416000000089,1888.5492000000029,1885.974,1888.0414000000055,1889.049100000009,1889.5481000000088,1889.5482000000031,1891.765600000009,1524.0,1891.7657000000029,5.0,1891.772600000009,4.0,19.0,139.0,11.0,1.0,1.0,0.3,Time
,,S69,1,女,22,anonymized,Serial_Dependence_U,2023.2.3,Win32,126.5822784806396,,,,,,1891.772900000006,326.0,4.0,1891.773200000003,326.0,,,,1895.5571000000089,1896.057799999997,1895.0492999999967,1895.5571000000089,1892.7826000000089,1895.049100000009,1896.057900000006,1896.5572000000031,1896.557299999997,1899.121700000003,1732.0,1899.121799999997,5.0,1899.127700000003,4.0,20.0,140.0,2.0,1.0,1.2,0.3,Time
,,S69,1,女,22,anonymized,Serial_Dependence_U,2023.2.3,Win32,126.5822784806396,,,,,,1899.128,343.0,4.0,1899.1281000000088,343.0,,,,1902.8907999999967,1903.3894000000064,1902.388400000006,1902.8907999999967,1900.124,1902.388400000006,1903.3894000000064,1903.8894000000064,1903.8894000000064,1906.498799999997,1686.0,1906.4989000000064,5.0,1906.5052999999969,4.0,21.0,141.0,12.0,1.0,1.2,0.3,Time
,,S69,1,女,22,anonymized,Serial_Dependence_U,2023.2.3,Win32,126.5822784806396,,,,,,1906.5055,311.0,4.0,1906.5056000000088,311.0,,,,1910.050299999997,1910.5485,1909.542,1910.050299999997,1907.5082000000032,1909.5419000000056,1910.5485,1911.049100000009,1911.049100000009,1913.5827999999967,1784.0,1913.5827999999967,5.0,1913.589100000009,4.0,22.0,142.0,26.0,1.0,1.0,0.7,Time
,,S69,1,女,22,anonymized,Serial_Dependence_U,2023.2.3,Win32,126.5822784806396,,,,,,1913.589400000006,309.0,4.0,1913.5895,309.0,,,,1916.9345,1917.434299999997,1916.426,1916.9344000000056,1914.5915,1916.4259000000056,1917.434299999997,1917.934200000003,1917.934299999997,1920.184600000009,1266.0,1920.184600000009,5.0,1920.191,4.0,23.0,143.0,25.0,1.0,0.8,0.7,Time
,,S69,1,女,22,anonymized,Serial_Dependence_U,2023.2.3,Win32,126.5822784806396,,,,,,1920.1914000000056,338.0,4.0,1920.1915,338.0,,,,1923.577600000009,1924.0766000000087,1923.069400000006,1923.5775,1921.200600000009,1923.0692999999967,1924.0766000000087,1924.575900000006,1924.576,1926.6762000000028,1194.0,1926.676299999997,5.0,1926.6827000000028,4.0,24.0,144.0,0.0,1.0,0.8,0.3,Time
,,S69,1,女,22,anonymized,Serial_Dependence_U,2023.2.3,Win32,126.5822784806396,,,,,,1926.683,235.0,4.0,1926.683100000009,235.0,,,,1930.4352999999967,1930.9349000000057,1929.9274000000064,1930.4352999999967,1927.693600000009,1929.927200000003,1930.9349000000057,1931.4352000000029,1931.4352000000029,1934.1275,1925.0,1934.127600000009,5.0,1934.133799999997,4.0,25.0,145.0,27.0,1.0,1.2,0.7,Time
,,S69,1,女,22,anonymized,Serial_Dependence_U,2023.2.3,Win32,126.5822784806396,,,,,,1934.134100000009,62.0,4.0,1934.134200000003,62.0,,,,1937.4905,1937.990600000009,1936.9825,1937.490299999997,1935.1447000000028,1936.982400000006,1937.9907000000028,1938.491,1938.491,1941.666299999997,2007.0,1941.666299999997,5.0,1941.6734000000056,4.0,26.0,146.0,5.0,1.0,0.8,0.7,Time
,,S69,1,女,22,anonymized,Serial_Dependence_U,2023.2.3,Win32,126.5822784806396,,,,,,1941.673799999997,54.0,4.0,1941.673900000006,54.0,,,,1945.2167999999967,1945.7151000000088,1944.7082999999968,1945.216700000003,1942.6746000000087,1944.708200000003,1945.7151000000088,1946.2162000000028,1946.2162000000028,1949.3919000000055,1959.0,1949.3919000000055,5.0,1949.397400000006,4.0,27.0,147.0,6.0,1.0,1.0,0.7,Time
,,S69,1,女,22,anonymized,Serial_Dependence_U,2023.2.3,Win32,126.5822784806396,,,,,,1949.397600000009,194.0,4.0,1949.397700000003,194.0,,,,1953.575600000009,1954.074799999997,1953.0675,1953.5755,1950.4001000000087,1953.0675,1954.074799999997,1954.5749000000055,1954.5749000000055,1957.168200000003,1907.0,1957.1682999999969,4.0,1957.1746000000087,4.0,28.0,148.0,24.0,1.0,1.6,0.3,Time
,,S69,1,女,22,anonymized,Serial_Dependence_U,2023.2.3,Win32,126.5822784806396,,,,,,1957.174900000006,121.0,4.0,1957.175,121.0,,,,1960.7267000000031,1961.226799999997,1960.218600000009,1960.7266000000088,1958.1845,1960.2184000000057,1961.226799999997,1961.728,1961.728100000009,1964.636400000006,1851.0,1964.636600000009,5.0,1964.643200000003,4.0,29.0,149.0,16.0,1.0,1.0,0.7,Time
,,S69,1,女,22,anonymized,Serial_Dependence_U,2023.2.3,Win32,126.5822784806396,,,,,,1964.643400000006,80.0,5.0,2198.148,80.0,s,233.48469999998812,,2201.694400000006,2202.1907000000037,2201.186600000009,2201.694400000006,2199.1451000000093,2201.1865000000003,2202.190799999997,2202.685200000003,2202.6852999999974,2205.0744000000063,1693.0,2205.0745,5.0,2205.0802999999974,5.0,0.0,150.0,6.0,1.0,1.0,0.7,Time
,,S69,1,女,22,anonymized,Serial_Dependence_U,2023.2.3,Win32,126.5822784806396,,,,,,2205.080700000003,226.0,5.0,2205.0827999999974,226.0,,,,2208.418799999997,2208.9176000000093,2207.9167000000034,2208.418700000004,2206.083700000004,2207.9167000000034,2208.917700000003,2209.417200000003,2209.417200000003,2211.1600000000003,1191.0,2211.160100000009,5.0,2211.1665000000003,5.0,1.0,151.0,5.0,1.0,0.8,0.7,Time
,,S69,1,女,22,anonymized,Serial_Dependence_U,2023.2.3,Win32,126.5822784806396,,,,,,2211.166900000006,30.0,5.0,2211.1670000000004,30.0,,,,2215.309600000009,2215.8089000000064,2214.801799999997,2215.3095000000003,2212.168700000004,2214.801700000003,2215.809,2216.308799999997,2216.3089000000064,2218.6587999999974,1826.0,2218.6587999999974,4.0,2218.6650000000004,5.0,2.0,152.0,9.0,1.0,1.6,0.7,Time
,,S69,1,女,22,anonymized,Serial_Dependence_U,2023.2.3,Win32,126.5822784806396,,,,,,2218.6652999999974,283.0,5.0,2218.6654000000062,283.0,,,,2222.601799999997,2223.101299999997,2222.100799999997,2222.601700000004,2219.668,2222.100700000003,2223.101299999997,2223.6015,2223.6015,2225.9525000000003,1829.0,2225.952600000009,5.0,2225.958600000009,5.0,3.0,153.0,28.0,1.0,1.4,0.7,Time
,,S69,1,女,22,anonymized,Serial_Dependence_U,2023.2.3,Win32,126.5822784806396,,,,,,2225.958900000006,56.0,5.0,2225.959100000009,56.0,,,,2229.936100000009,2230.430400000006,2229.4280000000003,2229.936,2226.961100000009,2229.427900000006,2230.430400000006,2230.9305000000004,2230.9305000000004,2233.250799999997,1752.0,2233.2509000000064,4.0,2233.2574000000063,5.0,4.0,154.0,23.0,1.0,1.4,0.3,Time
,,S69,1,女,22,anonymized,Serial_Dependence_U,2023.2.3,Win32,126.5822784806396,,,,,,2233.258100000009,113.0,5.0,2233.2582000000034,113.0,,,,2236.6341000000093,2237.133600000009,2236.1252999999974,2236.6340000000005,2234.2590000000005,2236.125200000003,2237.133700000003,2237.633299999997,2237.633400000006,2240.059400000006,1735.0,2240.0595000000003,5.0,2240.065299999997,5.0,5.0,155.0,0.0,1.0,0.8,0.3,Time
,,S69,1,女,22,anonymized,Serial_Dependence_U,2023.2.3,Win32,126.5822784806396,,,,,,2240.065600000009,79.0,5.0,2240.065799999997,79.0,,,,2243.810400000006,2244.309400000006,2243.302100000009,2243.810200000003,2241.0687999999973,2243.3019000000063,2244.309400000006,2244.810400000006,2244.8105,2247.298,1794.0,2247.298100000009,5.0,2247.304600000009,5.0,6.0,156.0,27.0,1.0,1.2,0.7,Time
,,S69,1,女,22,anonymized,Serial_Dependence_U,2023.2.3,Win32,126.5822784806396,,,,,,2247.304900000006,255.0,5.0,2247.3050000000003,255.0,,,,2251.0569000000064,2251.5567000000037,2250.548700000003,2251.056799999997,2248.3151000000094,2250.548600000009,2251.5567000000037,2252.055900000006,2252.056,2254.522700000003,1933.0,2254.522799999997,5.0,2254.5292999999974,5.0,7.0,157.0,7.0,1.0,1.2,0.7,Time
,,S69,1,女,22,anonymized,Serial_Dependence_U,2023.2.3,Win32,126.5822784806396,,,,,,2254.5296000000094,178.0,5.0,2254.5296000000094,178.0,,,,2258.108,2258.6065000000003,2257.598799999997,2258.1079000000063,2255.5327000000034,2257.598700000003,2258.6065000000003,2259.1067999999973,2259.106900000006,2261.323700000003,1441.0,2261.3237999999974,5.0,2261.329799999997,5.0,8.0,158.0,1.0,1.0,1.0,0.3,Time
,,S69,1,女,22,anonymized,Serial_Dependence_U,2023.2.3,Win32,126.5822784806396,,,,,,2261.3300000000004,287.0,5.0,2261.330100000009,287.0,,,,2265.118200000003,2265.617400000006,2264.6095,2265.118100000009,2262.340299999997,2264.609400000006,2265.6175000000003,2266.117400000006,2266.1175000000003,2268.5009000000064,1724.0,2268.501,5.0,2268.507600000009,5.0,9.0,159.0,22.0,1.0,1.2,0.3,Time
,,S69,1,女,22,anonymized,Serial_Dependence_U,2023.2.3,Win32,126.5822784806396,,,,,,2268.5080000000003,357.0,5.0,2268.5082000000034,357.0,,,,2272.2534000000064,2272.752799999997,2271.7455000000004,2272.253299999997,2269.510200000004,2271.745400000006,2272.752799999997,2273.253100000009,2273.253100000009,2275.6450000000004,1892.0,2275.6451000000093,5.0,2275.651100000009,5.0,10.0,160.0,17.0,1.0,1.2,0.7,Time
,,S69,1,女,22,anonymized,Serial_Dependence_U,2023.2.3,Win32,126.5822784806396,,,,,,2275.651400000006,54.0,5.0,2275.6515000000004,54.0,,,,2279.6372000000038,2280.137,2279.128600000009,2279.637100000009,2276.6617000000037,2279.1284000000064,2280.137,2280.6362999999974,2280.6364000000062,2282.7957000000038,1631.0,2282.7957000000038,4.0,2282.802,5.0,11.0,161.0,3.0,1.0,1.4,0.3,Time
,,S69,1,女,22,anonymized,Serial_Dependence_U,2023.2.3,Win32,126.5822784806396,,,,,,2282.802299999997,276.0,5.0,2282.8024000000064,276.0,,,,2286.588,2287.0872999999974,2286.079100000009,2286.5879000000064,2283.8125000000005,2286.0789000000063,2287.0872999999974,2287.588200000004,2287.588299999997,2289.932299999997,1757.0,2289.932299999997,5.0,2289.938299999997,5.0,12.0,162.0,12.0,1.0,1.2,0.3,Time
,,S69,1,女,22,anonymized,Serial_Dependence_U,2023.2.3,Win32,126.5822784806396,,,,,,2289.938600000009,285.0,5.0,2289.938700000004,285.0,,,,2294.123200000003,2294.617200000004,2293.615200000004,2294.1231000000093,2290.9489000000062,2293.615100000009,2294.617299999997,2295.117200000004,2295.117200000004,2296.976900000006,1534.0,2296.9770000000003,3.0,2296.9832000000038,5.0,13.0,163.0,14.0,1.0,1.6,0.3,Time
,,S69,1,女,22,anonymized,Serial_Dependence_U,2023.2.3,Win32,126.5822784806396,,,,,,2296.9837000000034,50.0,5.0,2296.983799999997,50.0,,,,2300.356200000004,2300.855799999997,2299.8475000000003,2300.356100000009,2297.98,2299.847400000006,2300.855799999997,2301.355799999997,2301.3559000000064,2303.6905,1701.0,2303.6905,5.0,2303.6965000000005,5.0,14.0,164.0,20.0,1.0,0.8,0.3,Time
,,S69,1,女,22,anonymized,Serial_Dependence_U,2023.2.3,Win32,126.5822784806396,,,,,,2303.696799999997,100.0,5.0,2303.6969000000063,100.0,,,,2307.268299999997,2307.767400000006,2306.759299999997,2307.268200000003,2304.691700000003,2306.7591000000093,2307.767400000006,2308.267600000009,2308.267700000003,2310.476600000009,1732.0,2310.476700000004,5.0,2310.483100000009,5.0,15.0,165.0,11.0,1.0,1.0,0.3,Time
,,S69,1,女,22,anonymized,Serial_Dependence_U,2023.2.3,Win32,126.5822784806396,,,,,,2310.483299999997,258.0,5.0,2310.4835000000003,258.0,,,,2314.025200000003,2314.520700000003,2313.5237000000034,2314.0251000000094,2311.4849000000063,2313.523600000009,2314.520799999997,2315.0242999999973,2315.0242999999973,2317.6324000000063,2058.0,2317.6325,5.0,2317.6386000000093,5.0,16.0,166.0,26.0,1.0,1.0,0.7,Time
,,S69,1,女,22,anonymized,Serial_Dependence_U,2023.2.3,Win32,126.5822784806396,,,,,,2317.639,13.0,5.0,2317.639100000009,13.0,,,,2321.0164000000063,2321.5132999999973,2320.506700000003,2321.016299999997,2318.6414000000063,2320.506700000003,2321.5132999999973,2322.007299999997,2322.0074000000063,2324.9047000000032,1982.0,2324.9047000000032,5.0,2324.9114000000063,5.0,17.0,167.0,10.0,1.0,0.8,0.3,Time
,,S69,1,女,22,anonymized,Serial_Dependence_U,2023.2.3,Win32,126.5822784806396,,,,,,2324.911799999997,279.0,5.0,2324.9119000000064,279.0,,,,2328.264,2328.764,2327.7551000000094,2328.2639000000063,2325.9221000000093,2327.7551000000094,2328.764,2329.2639000000063,2329.2639000000063,2332.1735000000003,2049.0,2332.1735000000003,5.0,2332.179600000009,5.0,18.0,168.0,25.0,1.0,0.8,0.7,Time
,,S69,1,女,22,anonymized,Serial_Dependence_U,2023.2.3,Win32,126.5822784806396,,,,,,2332.179900000006,14.0,5.0,2332.180100000009,14.0,,,,2335.723799999997,2336.223799999997,2335.216400000006,2335.723700000003,2333.182600000009,2335.2162999999973,2336.223799999997,2336.7236000000094,2336.7236000000094,2338.882799999997,1575.0,2338.8829000000064,5.0,2338.8892000000037,5.0,19.0,169.0,16.0,1.0,1.0,0.7,Time
,,S69,1,女,22,anonymized,Serial_Dependence_U,2023.2.3,Win32,126.5822784806396,,,,,,2338.8895,159.0,5.0,2338.889700000004,159.0,,,,2342.8657999999973,2343.3655000000003,2342.357700000003,2342.865700000003,2339.890700000003,2342.3576000000094,2343.365600000009,2343.864799999997,2343.8649000000064,2345.9075000000003,1717.0,2345.907600000009,4.0,2345.9136000000094,5.0,20.0,170.0,13.0,1.0,1.4,0.3,Time
,,S69,1,女,22,anonymized,Serial_Dependence_U,2023.2.3,Win32,126.5822784806396,,,,,,2345.9139000000064,242.0,5.0,2345.914,242.0,,,,2349.249700000003,2349.748299999997,2348.7490000000003,2349.249600000009,2346.916,2348.7489000000064,2349.748299999997,2350.2489000000064,2350.2489000000064,2353.0274000000063,1969.0,2353.0275,5.0,2353.0337999999974,5.0,21.0,171.0,15.0,1.0,0.8,0.7,Time
,,S69,1,女,22,anonymized,Serial_Dependence_U,2023.2.3,Win32,126.5822784806396,,,,,,2353.0342000000032,358.0,5.0,2353.034299999997,358.0,,,,2357.180700000003,2357.6802000000034,2356.676100000009,2357.180600000009,2354.0356000000093,2356.676100000009,2357.6802999999973,2358.179700000004,2358.179799999997,2360.631100000009,2209.0,2360.6312000000034,5.0,2360.637400000006,5.0,22.0,172.0,19.0,1.0,1.6,0.7,Time
,,S69,1,女,22,anonymized,Serial_Dependence_U,2023.2.3,Win32,126.5822784806396,,,,,,2360.6377000000034,353.0,5.0,2360.637799999997,353.0,,,,2364.574600000009,2365.074299999997,2364.0741000000094,2364.5745,2361.6400000000003,2364.0741000000094,2365.0744000000063,2365.575100000009,2365.5752000000034,2367.9762000000032,1990.0,2367.976299999997,5.0,2367.9824000000062,5.0,23.0,173.0,8.0,1.0,1.4,0.7,Time
,,S69,1,女,22,anonymized,Serial_Dependence_U,2023.2.3,Win32,126.5822784806396,,,,,,2367.982700000003,127.0,5.0,2367.982799999997,127.0,,,,2371.9359000000063,2372.435200000003,2371.427600000009,2371.9359000000063,2368.994,2371.4275,2372.4352999999974,2372.9355,2372.9355,2375.4440000000004,2044.0,2375.4440000000004,5.0,2375.450600000009,5.0,24.0,174.0,18.0,1.0,1.4,0.7,Time
,,S69,1,女,22,anonymized,Serial_Dependence_U,2023.2.3,Win32,126.5822784806396,,,,,,2375.450900000006,207.0,5.0,2375.451,207.0,,,,2379.228600000009,2379.728600000009,2378.7207999999973,2379.2285,2376.4530000000004,2378.720700000003,2379.728600000009,2380.2284000000063,2380.2285,2383.847100000009,1600.0,2383.847100000009,5.0,2383.8534000000063,5.0,25.0,175.0,2.0,1.0,1.2,0.3,Time
,,S69,1,女,22,anonymized,Serial_Dependence_U,2023.2.3,Win32,126.5822784806396,,,,,,2383.853600000009,11.0,5.0,2383.853799999997,11.0,,,,2387.9985,2388.497900000006,2387.489799999997,2387.9984000000063,2384.8570000000004,2387.4897000000037,2388.498,2388.997900000006,2388.998,2391.106600000009,1811.0,2391.106700000003,4.0,2391.1130000000003,5.0,26.0,176.0,29.0,1.0,1.6,0.7,Time
,,S69,1,女,22,anonymized,Serial_Dependence_U,2023.2.3,Win32,126.5822784806396,,,,,,2391.1132999999973,102.0,5.0,2391.113400000006,102.0,,,,2395.2912000000038,2395.790700000003,2394.783400000006,2395.2912000000038,2392.115100000009,2394.7832999999973,2395.790700000003,2396.290799999997,2396.2909000000063,2399.2994000000062,2066.0,2399.2994000000062,4.0,2399.306,5.0,27.0,177.0,24.0,1.0,1.6,0.3,Time
,,S69,1,女,22,anonymized,Serial_Dependence_U,2023.2.3,Win32,126.5822784806396,,,,,,2399.3064000000063,235.0,5.0,2399.3065,235.0,,,,2403.4907999999973,2403.9907999999973,2402.9829000000063,2403.490700000003,2400.316400000006,2402.982700000003,2403.9907999999973,2404.4915,2404.4915,2407.759299999997,2466.0,2407.7594000000063,5.0,2407.7657999999974,5.0,28.0,178.0,4.0,1.0,1.6,0.3,Time
,,S69,1,女,22,anonymized,Serial_Dependence_U,2023.2.3,Win32,126.5822784806396,,,,,,2407.7661000000094,249.0,5.0,2407.766200000003,249.0,,,,2411.336700000003,2411.836400000006,2410.8292000000038,2411.336600000009,2408.767700000003,2410.8292000000038,2411.8365000000003,2412.335799999997,2412.3359000000064,2414.662100000009,1619.0,2414.6622000000034,5.0,2414.6684000000064,5.0,29.0,179.0,21.0,1.0,1.0,0.3,Time
,,S69,1,女,22,anonymized,Serial_Dependence_U,2023.2.3,Win32,126.5822784806396,,,,,,2414.668700000004,247.0,6.0,2975.1910000000003,247.0,s,560.5059999999999,,2978.568100000009,2979.068100000009,2978.059100000009,2978.5679000000064,2976.1941000000093,2978.059100000009,2979.068100000009,2979.5654000000063,2979.5654000000063,2981.3085,1107.0,2981.3085,5.0,2981.314100000009,6.0,0.0,180.0,20.0,1.0,0.8,0.3,Time
,,S69,1,女,22,anonymized,Serial_Dependence_U,2023.2.3,Win32,126.5822784806396,,,,,,2981.314400000006,232.0,6.0,2981.316100000009,232.0,,,,2985.2925,2985.789100000009,2984.785100000009,2985.292400000006,2982.3174000000063,2984.785100000009,2985.789100000009,2986.2839000000063,2986.2839000000063,2988.3754000000063,1608.0,2988.3755,4.0,2988.3821000000094,6.0,1.0,181.0,3.0,1.0,1.4,0.3,Time
,,S69,1,女,22,anonymized,Serial_Dependence_U,2023.2.3,Win32,126.5822784806396,,,,,,2988.3825,266.0,6.0,2988.382600000009,266.0,,,,2991.9494000000063,2992.4489000000062,2991.448400000006,2991.949299999997,2989.385,2991.4482999999973,2992.4489000000062,2992.949299999997,2992.949299999997,2995.2412999999974,1607.0,2995.2414000000063,5.0,2995.247400000006,6.0,2.0,182.0,21.0,1.0,1.0,0.3,Time
,,S69,1,女,22,anonymized,Serial_Dependence_U,2023.2.3,Win32,126.5822784806396,,,,,,2995.247600000009,181.0,6.0,2995.2477999999974,181.0,,,,2999.025799999997,2999.5246000000093,2998.5245000000004,2999.025700000004,2996.257299999997,2998.524400000006,2999.5246000000093,3000.0246000000093,3000.024700000003,3002.2076000000093,1665.0,3002.207700000003,5.0,3002.2140000000004,6.0,3.0,183.0,2.0,1.0,1.2,0.3,Time
,,S69,1,女,22,anonymized,Serial_Dependence_U,2023.2.3,Win32,126.5822784806396,,,,,,3002.2142999999974,285.0,6.0,3002.2142999999974,285.0,,,,3006.399700000003,3006.8992999999973,3005.8915,3006.3996000000093,3003.224299999997,3005.891299999997,3006.8992999999973,3007.3996000000093,3007.399700000003,3009.892299999997,1815.0,3009.8925000000004,4.0,3009.8987000000034,6.0,4.0,184.0,14.0,1.0,1.6,0.3,Time
,,S69,1,女,22,anonymized,Serial_Dependence_U,2023.2.3,Win32,126.5822784806396,,,,,,3009.899200000003,346.0,6.0,3009.8992999999973,346.0,,,,3013.649700000003,3014.149200000003,3013.1417000000038,3013.649700000003,3010.9091000000094,3013.141600000009,3014.1492999999973,3014.6492999999973,3014.6492999999973,3017.483299999997,2092.0,3017.4835000000003,5.0,3017.4897000000037,6.0,5.0,185.0,17.0,1.0,1.2,0.7,Time
,,S69,1,女,22,anonymized,Serial_Dependence_U,2023.2.3,Win32,126.5822784806396,,,,,,3017.49,98.0,6.0,3017.490100000009,98.0,,,,3021.0665000000004,3021.566600000009,3020.5659000000064,3021.066299999997,3018.499100000009,3020.5659000000064,3021.566600000009,3022.0655,3022.0655,3024.6437000000037,1839.0,3024.643799999997,5.0,3024.6501000000094,6.0,6.0,186.0,1.0,1.0,1.0,0.3,Time
,,S69,1,女,22,anonymized,Serial_Dependence_U,2023.2.3,Win32,126.5822784806396,,,,,,3024.6504000000064,305.0,6.0,3024.650600000009,305.0,,,,3028.7949000000062,3029.293900000006,3028.2869000000064,3028.7949000000062,3025.653400000006,3028.286799999997,3029.2940000000003,3029.793900000006,3029.793900000006,3031.6749000000063,1415.0,3031.675,2.0,3031.682,6.0,7.0,187.0,19.0,1.0,1.6,0.7,Time
,,S69,1,女,22,anonymized,Serial_Dependence_U,2023.2.3,Win32,126.5822784806396,,,,,,3031.6825000000003,357.0,6.0,3031.682600000009,357.0,,,,3035.4585,3035.9570000000003,3034.9502000000034,3035.4584000000063,3032.6834000000063,3034.950100000009,3035.9570000000003,3036.456900000006,3036.456900000006,3038.609200000003,1495.0,3038.609200000003,4.0,3038.615900000006,6.0,8.0,188.0,22.0,1.0,1.2,0.3,Time
,,S69,1,女,22,anonymized,Serial_Dependence_U,2023.2.3,Win32,126.5822784806396,,,,,,3038.616200000003,50.0,6.0,3038.6164000000063,50.0,,,,3042.5925,3043.092700000004,3042.084700000003,3042.5924000000064,3039.618200000003,3042.084600000009,3043.092799999997,3043.592,3043.5921000000094,3045.983100000009,1722.0,3045.9832000000038,4.0,3045.990600000009,6.0,9.0,189.0,13.0,1.0,1.4,0.3,Time
,,S69,1,女,22,anonymized,Serial_Dependence_U,2023.2.3,Win32,126.5822784806396,,,,,,3045.990900000006,287.0,6.0,3045.9910000000004,287.0,,,,3049.530200000004,3050.030100000009,3049.0265000000004,3049.53,3046.9930000000004,3049.026400000006,3050.030100000009,3050.532900000006,3050.532900000006,3054.145799999997,1581.0,3054.145799999997,5.0,3054.152600000009,6.0,10.0,190.0,16.0,1.0,1.0,0.7,Time
,,S69,1,女,22,anonymized,Serial_Dependence_U,2023.2.3,Win32,126.5822784806396,,,,,,3054.1529000000064,150.0,6.0,3054.153,150.0,,,,3057.496700000004,3057.9964000000064,3056.9880000000003,3057.496600000009,3055.155200000004,3056.987799999997,3057.9965,3058.4961000000094,3058.4961000000094,3061.0457000000038,1740.0,3061.0457000000038,5.0,3061.0519000000063,6.0,11.0,191.0,5.0,1.0,0.8,0.7,Time
,,S69,1,女,22,anonymized,Serial_Dependence_U,2023.2.3,Win32,126.5822784806396,,,,,,3061.0522000000037,281.0,6.0,3061.052299999997,281.0,,,,3064.4300000000003,3064.929200000003,3063.921299999997,3064.4300000000003,3062.0552000000034,3063.9212000000034,3064.929200000003,3065.429299999997,3065.429299999997,3067.8127999999974,1517.0,3067.813,5.0,3067.820100000009,6.0,12.0,192.0,0.0,1.0,0.8,0.3,Time
,,S69,1,女,22,anonymized,Serial_Dependence_U,2023.2.3,Win32,126.5822784806396,,,,,,3067.820600000009,235.0,6.0,3067.820900000006,235.0,,,,3071.362900000006,3071.8621000000094,3070.854900000006,3071.362799999997,3068.8216000000093,3070.854700000003,3071.862200000003,3072.3624000000063,3072.3625,3074.6124000000063,1633.0,3074.6124000000063,5.0,3074.618400000006,6.0,13.0,193.0,26.0,1.0,1.0,0.7,Time
,,S69,1,女,22,anonymized,Serial_Dependence_U,2023.2.3,Win32,126.5822784806396,,,,,,3074.618700000003,64.0,6.0,3074.6189000000063,64.0,,,,3078.5715000000005,3079.070299999997,3078.062400000006,3078.571400000006,3075.6292999999973,3078.0622999999973,3079.0704000000064,3079.570799999997,3079.570799999997,3081.6324000000063,1608.0,3081.6325,4.0,3081.6389000000063,6.0,14.0,194.0,28.0,1.0,1.4,0.7,Time
,,S69,1,女,22,anonymized,Serial_Dependence_U,2023.2.3,Win32,126.5822784806396,,,,,,3081.6392000000037,118.0,6.0,3081.639299999997,118.0,,,,3085.7909000000063,3086.2902999999974,3085.2830000000004,3085.790799999997,3082.6485,3085.282900000006,3086.2902999999974,3086.7905,3086.790700000003,3089.1072999999974,1751.0,3089.1074000000062,4.0,3089.1132999999973,6.0,15.0,195.0,29.0,1.0,1.6,0.7,Time
,,S69,1,女,22,anonymized,Serial_Dependence_U,2023.2.3,Win32,126.5822784806396,,,,,,3089.113600000009,130.0,6.0,3089.113600000009,130.0,,,,3092.4826000000094,3092.9817999999973,3091.981700000003,3092.4824000000062,3090.1155000000003,3091.981600000009,3092.9817999999973,3093.4817999999973,3093.481900000006,3096.0062999999973,1857.0,3096.0062999999973,5.0,3096.012900000006,6.0,16.0,196.0,10.0,1.0,0.8,0.3,Time
,,S69,1,女,22,anonymized,Serial_Dependence_U,2023.2.3,Win32,126.5822784806396,,,,,,3096.013200000003,90.0,6.0,3096.0132999999973,90.0,,,,3099.965600000009,3100.4649000000063,3099.4575000000004,3099.9655,3097.023900000006,3099.457400000006,3100.465,3100.965100000009,3100.9652000000037,3103.6316000000093,1930.0,3103.6316000000093,5.0,3103.6382999999973,6.0,17.0,197.0,18.0,1.0,1.4,0.7,Time
,,S69,1,女,22,anonymized,Serial_Dependence_U,2023.2.3,Win32,126.5822784806396,,,,,,3103.6386000000093,14.0,6.0,3103.638700000003,14.0,,,,3107.3905000000004,3107.889900000006,3106.882299999997,3107.3902999999973,3104.648600000009,3106.882200000003,3107.889900000006,3108.3895,3108.3895,3111.0977999999973,2143.0,3111.0977999999973,5.0,3111.1042000000034,6.0,18.0,198.0,7.0,1.0,1.2,0.7,Time
,,S69,1,女,22,anonymized,Serial_Dependence_U,2023.2.3,Win32,126.5822784806396,,,,,,3111.1045000000004,337.0,6.0,3111.104600000009,337.0,,,,3115.2816000000093,3115.7812999999974,3114.773900000006,3115.281400000006,3112.106900000006,3114.773799999997,3115.7812999999974,3116.281400000006,3116.281400000006,3119.108799999997,2306.0,3119.108900000006,5.0,3119.115299999997,6.0,19.0,199.0,24.0,1.0,1.6,0.3,Time
,,S69,1,女,22,anonymized,Serial_Dependence_U,2023.2.3,Win32,126.5822784806396,,,,,,3119.1155000000003,217.0,6.0,3119.115600000009,217.0,,,,3122.695900000006,3123.1949000000063,3122.187200000003,3122.695799999997,3120.1256000000094,3122.187100000009,3123.1949000000063,3123.694799999997,3123.6949000000063,3126.544700000003,2169.0,3126.5447999999974,5.0,3126.551100000009,6.0,20.0,200.0,11.0,1.0,1.0,0.3,Time
,,S69,1,女,22,anonymized,Serial_Dependence_U,2023.2.3,Win32,126.5822784806396,,,,,,3126.5512999999974,331.0,6.0,3126.551400000006,331.0,,,,3130.095299999997,3130.594,3129.5870000000004,3130.0952000000034,3127.5537999999974,3129.5870000000004,3130.594,3131.0947000000037,3131.0947000000037,3133.602700000003,1858.0,3133.602700000003,5.0,3133.6092999999973,6.0,21.0,201.0,6.0,1.0,1.0,0.7,Time
,,S69,1,女,22,anonymized,Serial_Dependence_U,2023.2.3,Win32,126.5822784806396,,,,,,3133.6096000000093,188.0,6.0,3133.609700000003,188.0,,,,3137.3869000000063,3137.8862999999974,3136.8790000000004,3137.3869000000063,3134.6117999999974,3136.8787000000034,3137.8862999999974,3138.385600000009,3138.385700000003,3140.408400000006,1771.0,3140.4085000000005,5.0,3140.414900000006,6.0,22.0,202.0,12.0,1.0,1.2,0.3,Time
,,S69,1,女,22,anonymized,Serial_Dependence_U,2023.2.3,Win32,126.5822784806396,,,,,,3140.4152999999974,212.0,6.0,3140.4152999999974,212.0,,,,3144.367299999997,3144.8664000000063,3143.858799999997,3144.367200000004,3141.4240000000004,3143.8587000000034,3144.8664000000063,3145.3664000000063,3145.3665,3147.199200000003,1410.0,3147.199299999997,3.0,3147.2052999999974,6.0,23.0,203.0,8.0,1.0,1.4,0.7,Time
,,S69,1,女,22,anonymized,Serial_Dependence_U,2023.2.3,Win32,126.5822784806396,,,,,,3147.2056000000093,241.0,6.0,3147.205700000003,241.0,,,,3151.383900000006,3151.8827000000038,3150.8752999999974,3151.383900000006,3148.208900000006,3150.8752999999974,3151.8827000000038,3152.383299999997,3152.383299999997,3154.128600000009,1419.0,3154.128600000009,2.0,3154.134799999997,6.0,24.0,204.0,4.0,1.0,1.6,0.3,Time
,,S69,1,女,22,anonymized,Serial_Dependence_U,2023.2.3,Win32,126.5822784806396,,,,,,3154.135,56.0,6.0,3154.135100000009,56.0,,,,3157.8799000000063,3158.3795000000005,3157.3712000000032,3157.879799999997,3155.137100000009,3157.3711000000094,3158.3796000000093,3158.8795000000005,3158.8795000000005,3160.924700000003,1567.0,3160.924700000003,5.0,3160.9314000000063,6.0,25.0,205.0,27.0,1.0,1.2,0.7,Time
,,S69,1,女,22,anonymized,Serial_Dependence_U,2023.2.3,Win32,126.5822784806396,,,,,,3160.931799999997,254.0,6.0,3160.9319000000064,254.0,,,,3164.275600000009,3164.7747999999974,3163.767299999997,3164.2755,3161.9345000000003,3163.767299999997,3164.7749000000063,3165.2754000000064,3165.2754000000064,3167.184,1838.0,3167.184100000009,5.0,3167.190299999997,6.0,26.0,206.0,15.0,1.0,0.8,0.7,Time
,,S69,1,女,22,anonymized,Serial_Dependence_U,2023.2.3,Win32,126.5822784806396,,,,,,3167.190600000009,37.0,6.0,3167.1907000000037,37.0,,,,3171.1672999999973,3171.6665000000003,3170.659,3171.167200000003,3168.1925,3170.659,3171.666600000009,3172.1667000000034,3172.1667000000034,3173.7104000000063,1068.0,3173.7105,2.0,3173.7169000000063,6.0,27.0,207.0,23.0,1.0,1.4,0.3,Time
,,S69,1,女,22,anonymized,Serial_Dependence_U,2023.2.3,Win32,126.5822784806396,,,,,,3173.7172000000032,111.0,6.0,3173.7172000000032,111.0,,,,3177.0719000000063,3177.572,3176.563299999997,3177.071799999997,3174.727100000009,3176.5632000000032,3177.572,3178.0710000000004,3178.0710000000004,3179.830700000003,1475.0,3179.830700000003,5.0,3179.836600000009,6.0,28.0,208.0,25.0,1.0,0.8,0.7,Time
,,S69,1,女,22,anonymized,Serial_Dependence_U,2023.2.3,Win32,126.5822784806396,,,,,,3179.836900000006,101.0,6.0,3179.8370000000004,101.0,,,,3183.981100000009,3184.4804000000063,3183.4725000000003,3183.981,3180.838900000006,3183.472400000006,3184.4805,3184.980299999997,3184.9804000000063,3191.364600000009,1525.0,3191.364600000009,3.0,3191.371600000009,6.0,29.0,209.0,9.0,1.0,1.6,0.7,Time
,,S69,1,女,22,anonymized,Serial_Dependence_U,2023.2.3,Win32,126.5822784806396,,,,,,3191.372100000009,131.0,7.0,3544.6915000000004,131.0,s,353.2974999999997,,3548.672600000009,3549.1721000000093,3548.164299999997,3548.6725,3545.701200000003,3548.164200000004,3549.1721000000093,3549.672200000003,3549.672299999997,3551.6392000000037,1417.0,3551.639299999997,3.0,3551.6456000000094,7.0,0.0,210.0,13.0,1.0,1.4,0.3,Time
,,S69,1,女,22,anonymized,Serial_Dependence_U,2023.2.3,Win32,126.5822784806396,,,,,,3551.646,142.0,7.0,3551.648100000009,142.0,,,,3555.8167999999973,3556.3155,3555.3162000000034,3555.816700000003,3552.6495000000004,3555.316100000009,3556.3155,3556.816100000009,3556.816100000009,3559.1340000000005,1859.0,3559.1341000000093,4.0,3559.1406000000093,7.0,1.0,211.0,4.0,1.0,1.6,0.3,Time
,,S69,1,女,22,anonymized,Serial_Dependence_U,2023.2.3,Win32,126.5822784806396,,,,,,3559.1409000000062,257.0,7.0,3559.141,257.0,,,,3562.7180000000003,3563.217299999997,3562.2097999999974,3562.717900000006,3560.142400000006,3562.209700000003,3563.217299999997,3563.7175,3563.717600000009,3565.7590000000005,1627.0,3565.7591000000093,5.0,3565.765200000003,7.0,2.0,212.0,21.0,1.0,1.0,0.3,Time
,,S69,1,女,22,anonymized,Serial_Dependence_U,2023.2.3,Win32,126.5822784806396,,,,,,3565.7656000000093,94.0,7.0,3565.7656000000093,94.0,,,,3569.109700000003,3569.609400000006,3568.6015,3569.1095,3566.7685,3568.6015,3569.6095,3570.1092999999973,3570.1092999999973,3572.727400000006,1939.0,3572.7275000000004,5.0,3572.733600000009,7.0,3.0,213.0,15.0,1.0,0.8,0.7,Time
,,S69,1,女,22,anonymized,Serial_Dependence_U,2023.2.3,Win32,126.5822784806396,,,,,,3572.733799999997,251.0,7.0,3572.733900000006,251.0,,,,3576.7104000000063,3577.206900000006,3576.2077999999974,3576.7104000000063,3573.743799999997,3576.207700000003,3577.207100000009,3577.708,3577.7081000000094,3580.640700000003,1775.0,3580.6409000000062,4.0,3580.647400000006,7.0,4.0,214.0,23.0,1.0,1.4,0.3,Time
,,S69,1,女,22,anonymized,Serial_Dependence_U,2023.2.3,Win32,126.5822784806396,,,,,,3580.6479000000063,198.0,7.0,3580.6479000000063,198.0,,,,3584.5994000000064,3585.099,3584.094,3584.599100000009,3581.658100000009,3584.093900000006,3585.099100000009,3585.5986000000094,3585.5986000000094,3587.673700000003,1733.0,3587.673700000003,4.0,3587.680100000009,7.0,5.0,215.0,28.0,1.0,1.4,0.7,Time
,,S69,1,女,22,anonymized,Serial_Dependence_U,2023.2.3,Win32,126.5822784806396,,,,,,3587.680400000006,26.0,7.0,3587.6805000000004,26.0,,,,3591.6577000000034,3592.1572000000037,3591.1497999999974,3591.6575000000003,3588.6827999999973,3591.149700000003,3592.1572000000037,3592.657100000009,3592.657100000009,3594.716200000003,1782.0,3594.716200000003,4.0,3594.722400000006,7.0,6.0,216.0,3.0,1.0,1.4,0.3,Time
,,S69,1,女,22,anonymized,Serial_Dependence_U,2023.2.3,Win32,126.5822784806396,,,,,,3594.7227999999973,154.0,7.0,3594.7231000000093,154.0,,,,3598.4665000000005,3598.9654000000064,3597.9579000000062,3598.4665000000005,3595.7244000000064,3597.9577999999974,3598.9655,3599.4649000000063,3599.4649000000063,3601.7025000000003,1836.0,3601.702600000009,5.0,3601.709600000009,7.0,7.0,217.0,7.0,1.0,1.2,0.7,Time
,,S69,1,女,22,anonymized,Serial_Dependence_U,2023.2.3,Win32,126.5822784806396,,,,,,3601.71,33.0,7.0,3601.7101000000093,33.0,,,,3605.452100000009,3605.951299999997,3604.943700000003,3605.4519000000064,3602.711299999997,3604.943600000009,3605.951299999997,3606.451200000003,3606.451299999997,3608.956600000009,2050.0,3608.9567000000034,5.0,3608.963100000009,7.0,8.0,218.0,27.0,1.0,1.2,0.7,Time
,,S69,1,女,22,anonymized,Serial_Dependence_U,2023.2.3,Win32,126.5822784806396,,,,,,3608.963299999997,89.0,7.0,3608.963400000006,89.0,,,,3612.740700000003,3613.237600000009,3612.232799999997,3612.740600000009,3609.9647999999975,3612.232700000003,3613.237600000009,3613.731299999997,3613.7315,3615.770700000003,1544.0,3615.7709000000063,4.0,3615.777,7.0,9.0,219.0,22.0,1.0,1.2,0.3,Time
,,S69,1,女,22,anonymized,Serial_Dependence_U,2023.2.3,Win32,126.5822784806396,,,,,,3615.777200000003,104.0,7.0,3615.7774000000063,104.0,,,,3619.320799999997,3619.820799999997,3618.8132000000032,3619.3207000000034,3616.780100000009,3618.813,3619.820900000006,3620.320100000009,3620.3202000000033,3622.446700000003,1781.0,3622.446700000003,5.0,3622.452799999997,7.0,10.0,220.0,6.0,1.0,1.0,0.7,Time
,,S69,1,女,22,anonymized,Serial_Dependence_U,2023.2.3,Win32,126.5822784806396,,,,,,3622.453200000003,345.0,7.0,3622.4535,345.0,,,,3626.037799999997,3626.538000000001,3625.5297000000032,3626.037700000003,3623.463,3625.5296000000094,3626.538000000001,3627.037299999997,3627.037400000006,3629.4625,1817.0,3629.4626000000094,5.0,3629.468900000006,7.0,11.0,221.0,1.0,1.0,1.0,0.3,Time
,,S69,1,女,22,anonymized,Serial_Dependence_U,2023.2.3,Win32,126.5822784806396,,,,,,3629.469100000009,91.0,7.0,3629.469200000003,91.0,,,,3633.6462000000033,3634.145799999997,3633.138,3633.646100000009,3630.470900000006,3633.138,3634.145799999997,3634.645700000003,3634.645700000003,3636.7285,1577.0,3636.728600000009,3.0,3636.734799999997,7.0,12.0,222.0,14.0,1.0,1.6,0.3,Time
,,S69,1,女,22,anonymized,Serial_Dependence_U,2023.2.3,Win32,126.5822784806396,,,,,,3636.7352000000033,6.0,7.0,3636.735299999997,6.0,,,,3640.8715,3641.371,3640.3705,3640.8714000000064,3637.7382000000034,3640.370299999997,3641.371,3641.870600000009,3641.870700000003,3644.720100000009,2166.0,3644.7202000000034,5.0,3644.7265,7.0,13.0,223.0,9.0,1.0,1.6,0.7,Time
,,S69,1,女,22,anonymized,Serial_Dependence_U,2023.2.3,Win32,126.5822784806396,,,,,,3644.726900000006,211.0,7.0,3644.727100000009,211.0,,,,3648.112900000006,3648.612299999997,3647.604700000003,3648.112799999997,3645.737799999997,3647.604700000003,3648.612299999997,3649.112200000003,3649.112200000003,3650.945100000009,1160.0,3650.945100000009,5.0,3650.9519000000064,7.0,14.0,224.0,0.0,1.0,0.8,0.3,Time
,,S69,1,女,22,anonymized,Serial_Dependence_U,2023.2.3,Win32,126.5822784806396,,,,,,3650.9522000000034,331.0,7.0,3650.952299999997,331.0,,,,3654.504500000001,3655.004500000001,3653.9964000000064,3654.504299999997,3651.962299999997,3653.996299999997,3655.004500000001,3655.5034000000064,3655.5035,3657.929299999997,1627.0,3657.9294000000064,5.0,3657.9355,7.0,15.0,225.0,16.0,1.0,1.0,0.7,Time
,,S69,1,女,22,anonymized,Serial_Dependence_U,2023.2.3,Win32,126.5822784806396,,,,,,3657.9357999999975,264.0,7.0,3657.9359000000063,264.0,,,,3661.8804000000064,3662.3801000000094,3661.3715,3661.880299999997,3658.9387000000033,3661.3715,3662.3802000000032,3662.88,3662.88,3664.888700000003,1924.0,3664.888799999997,5.0,3664.895200000003,7.0,16.0,226.0,8.0,1.0,1.4,0.7,Time
,,S69,1,女,22,anonymized,Serial_Dependence_U,2023.2.3,Win32,126.5822784806396,,,,,,3664.8956000000094,151.0,7.0,3664.8956000000094,151.0,,,,3668.666799999997,3669.167,3668.158799999997,3668.6667000000034,3665.897400000006,3668.158700000003,3669.167100000009,3669.666400000006,3669.6665,3672.6592000000032,2382.0,3672.659299999997,5.0,3672.665700000003,7.0,17.0,227.0,2.0,1.0,1.2,0.3,Time
,,S69,1,女,22,anonymized,Serial_Dependence_U,2023.2.3,Win32,126.5822784806396,,,,,,3672.666100000009,276.0,7.0,3672.666100000009,276.0,,,,3676.406299999997,3676.905100000009,3675.902799999997,3676.406100000009,3673.668100000009,3675.902799999997,3676.9052000000033,3677.4055,3677.405600000009,3680.021299999997,2101.0,3680.021299999997,5.0,3680.028100000009,7.0,18.0,228.0,17.0,1.0,1.2,0.7,Time
,,S69,1,女,22,anonymized,Serial_Dependence_U,2023.2.3,Win32,126.5822784806396,,,,,,3680.0285,45.0,7.0,3680.028600000009,45.0,,,,3683.573100000009,3684.071299999997,3683.064299999997,3683.573,3681.030700000003,3683.064200000003,3684.071299999997,3684.5719000000063,3684.572,3687.512100000009,2150.0,3687.5122000000033,5.0,3687.519,7.0,19.0,229.0,26.0,1.0,1.0,0.7,Time
,,S69,1,女,22,anonymized,Serial_Dependence_U,2023.2.3,Win32,126.5822784806396,,,,,,3687.519400000006,51.0,7.0,3687.5195,51.0,,,,3691.6945,3692.193799999997,3691.1932000000033,3691.694400000006,3688.5297000000032,3691.193100000009,3692.193900000006,3692.693700000003,3692.693799999997,3694.665200000003,1940.0,3694.665200000003,4.0,3694.6712000000034,7.0,20.0,230.0,24.0,1.0,1.6,0.3,Time
,,S69,1,女,22,anonymized,Serial_Dependence_U,2023.2.3,Win32,126.5822784806396,,,,,,3694.6715,34.0,7.0,3694.671600000009,34.0,,,,3698.826799999997,3699.326,3698.318,3698.8267000000033,3695.6817000000033,3698.318,3699.326100000009,3699.826,3699.826100000009,3701.484299999997,1260.0,3701.484400000006,2.0,3701.490600000009,7.0,21.0,231.0,19.0,1.0,1.6,0.7,Time
,,S69,1,女,22,anonymized,Serial_Dependence_U,2023.2.3,Win32,126.5822784806396,,,,,,3701.490900000006,25.0,7.0,3701.491,25.0,,,,3704.873100000009,3705.372900000006,3704.3644000000063,3704.873,3702.501299999997,3704.3642999999975,3705.372900000006,3705.872,3705.872100000009,3708.3732999999975,1799.0,3708.3734000000063,5.0,3708.380299999997,7.0,22.0,232.0,20.0,1.0,0.8,0.3,Time
,,S69,1,女,22,anonymized,Serial_Dependence_U,2023.2.3,Win32,126.5822784806396,,,,,,3708.3807000000033,129.0,7.0,3708.3807000000033,129.0,,,,3711.731600000009,3712.231600000009,3711.224,3711.7315,3709.390299999997,3711.2237999999975,3712.231600000009,3712.731700000003,3712.731700000003,3715.289900000006,1939.0,3715.289900000006,5.0,3715.296100000009,7.0,23.0,233.0,25.0,1.0,0.8,0.7,Time
,,S69,1,女,22,anonymized,Serial_Dependence_U,2023.2.3,Win32,126.5822784806396,,,,,,3715.296400000006,244.0,7.0,3715.2965,244.0,,,,3719.240299999997,3719.7397000000033,3718.731600000009,3719.2402000000034,3716.299,3718.7315,3719.739799999997,3720.2402000000034,3720.2402000000034,3722.505799999997,2028.0,3722.505900000006,5.0,3722.511799999997,7.0,24.0,234.0,18.0,1.0,1.4,0.7,Time
,,S69,1,女,22,anonymized,Serial_Dependence_U,2023.2.3,Win32,126.5822784806396,,,,,,3722.512100000009,326.0,7.0,3722.5122000000033,326.0,,,,3725.89,3726.389900000006,3725.3822999999975,3725.889900000006,3723.514799999997,3725.3822999999975,3726.39,3726.889,3726.889,3729.966700000003,2359.0,3729.966799999997,5.0,3729.973,7.0,25.0,235.0,10.0,1.0,0.8,0.3,Time
,,S69,1,女,22,anonymized,Serial_Dependence_U,2023.2.3,Win32,126.5822784806396,,,,,,3729.973400000006,325.0,7.0,3729.973400000006,325.0,,,,3733.327799999997,3733.8267000000033,3732.8195,3733.327700000003,3730.984299999997,3732.819400000006,3733.826799999997,3734.3272000000034,3734.327299999997,3737.1102000000033,2167.0,3737.110299999997,5.0,3737.1169000000064,7.0,26.0,236.0,5.0,1.0,0.8,0.7,Time
,,S69,1,女,22,anonymized,Serial_Dependence_U,2023.2.3,Win32,126.5822784806396,,,,,,3737.1172000000033,41.0,7.0,3737.117299999997,41.0,,,,3740.703200000003,3741.201600000009,3740.194400000006,3740.703100000009,3738.127700000003,3740.194200000003,3741.2017000000033,3741.696600000009,3741.696700000003,3744.172,1832.0,3744.172,5.0,3744.178400000006,7.0,27.0,237.0,11.0,1.0,1.0,0.3,Time
,,S69,1,女,22,anonymized,Serial_Dependence_U,2023.2.3,Win32,126.5822784806396,,,,,,3744.178799999997,143.0,7.0,3744.179,143.0,,,,3747.955100000009,3748.454900000006,3747.447299999997,3747.955,3745.180600000009,3747.447299999997,3748.454900000006,3748.954799999997,3748.954799999997,3751.412799999997,2041.0,3751.412900000006,5.0,3751.419200000003,7.0,28.0,238.0,12.0,1.0,1.2,0.3,Time
,,S69,1,女,22,anonymized,Serial_Dependence_U,2023.2.3,Win32,126.5822784806396,,,,,,3751.419600000009,135.0,7.0,3751.419600000009,135.0,,,,3755.571700000003,3756.067100000009,3755.063,3755.571600000009,3752.430100000009,3755.0629000000063,3756.067100000009,3756.561600000009,3756.561600000009,3759.2864000000063,2409.0,3759.2864000000063,5.0,3759.293299999997,7.0,29.0,239.0,29.0,1.0,1.6,0.7,Time
,,S69,1,女,22,anonymized,Serial_Dependence_U,2023.2.3,Win32,126.5822784806396,,,,,,3759.2935,144.0,8.0,3827.436299999997,144.0,s,68.12759999999389,,3831.3832000000034,3831.882600000009,3830.875100000009,3831.383100000009,3828.439700000003,3830.875000000001,3831.8827000000033,3832.3822999999975,3832.3824000000063,3834.3909000000062,1591.0,3834.391,4.0,3834.397,8.0,0.0,240.0,18.0,1.0,1.4,0.7,Time
,,S69,1,女,22,anonymized,Serial_Dependence_U,2023.2.3,Win32,126.5822784806396,,,,,,3834.397299999997,292.0,8.0,3834.398600000009,292.0,,,,3838.578,3839.0772000000034,3838.069299999997,3838.578,3835.400600000009,3838.069200000003,3839.077299999997,3839.577,3839.577100000009,3842.1467000000034,1568.0,3842.146799999997,3.0,3842.153100000009,8.0,1.0,241.0,4.0,1.0,1.6,0.3,Time
,,S69,1,女,22,anonymized,Serial_Dependence_U,2023.2.3,Win32,126.5822784806396,,,,,,3842.153400000006,273.0,8.0,3842.1535,273.0,,,,3845.9235,3846.4232000000034,3845.421400000006,3845.923400000006,3843.155700000003,3845.421299999997,3846.4232000000034,3846.9229000000064,3846.923100000009,3849.651,1905.0,3849.651100000009,5.0,3849.6574000000064,8.0,2.0,242.0,2.0,1.0,1.2,0.3,Time
,,S69,1,女,22,anonymized,Serial_Dependence_U,2023.2.3,Win32,126.5822784806396,,,,,,3849.657799999997,81.0,8.0,3849.657900000006,81.0,,,,3853.006299999997,3853.505299999997,3852.497299999997,3853.006299999997,3850.6605,3852.497100000009,3853.5054000000064,3854.0054000000064,3854.0054000000064,3856.739600000009,1898.0,3856.739600000009,5.0,3856.747,8.0,3.0,243.0,15.0,1.0,0.8,0.7,Time
,,S69,1,女,22,anonymized,Serial_Dependence_U,2023.2.3,Win32,126.5822784806396,,,,,,3856.747299999997,241.0,8.0,3856.747400000006,241.0,,,,3860.1235,3860.623200000003,3859.615100000009,3860.1235,3857.748,3859.615,3860.6232999999975,3861.1232999999975,3861.1234000000063,3862.709799999997,835.0,3862.709900000006,3.0,3862.716100000009,8.0,4.0,244.0,10.0,1.0,0.8,0.3,Time
,,S69,1,女,22,anonymized,Serial_Dependence_U,2023.2.3,Win32,126.5822784806396,,,,,,3862.716500000001,32.0,8.0,3862.716500000001,32.0,,,,3866.481299999997,3866.98,3865.980600000009,3866.4812000000034,3863.711100000009,3865.9804000000063,3866.980100000009,3867.479600000009,3867.479600000009,3869.335,1228.0,3869.335100000009,3.0,3869.341100000009,8.0,5.0,245.0,12.0,1.0,1.2,0.3,Time
,,S69,1,女,22,anonymized,Serial_Dependence_U,2023.2.3,Win32,126.5822784806396,,,,,,3869.341400000006,183.0,8.0,3869.341500000001,183.0,,,,3873.3239000000062,3873.823799999997,3872.815600000009,3873.323799999997,3870.3495,3872.815600000009,3873.823799999997,3874.323400000006,3874.3235,3876.5355,1930.0,3876.5355,5.0,3876.541900000006,8.0,6.0,246.0,3.0,1.0,1.4,0.3,Time
,,S69,1,女,22,anonymized,Serial_Dependence_U,2023.2.3,Win32,126.5822784806396,,,,,,3876.542200000003,328.0,8.0,3876.542299999997,328.0,,,,3880.2869000000064,3880.785400000006,3879.785700000003,3880.286799999997,3877.5527000000034,3879.785600000009,3880.785400000006,3881.286200000003,3881.2862999999975,3883.823100000009,1709.0,3883.823100000009,5.0,3883.829600000009,8.0,7.0,247.0,7.0,1.0,1.2,0.7,Time
,,S69,1,女,22,anonymized,Serial_Dependence_U,2023.2.3,Win32,126.5822784806396,,,,,,3883.83,184.0,8.0,3883.830100000009,184.0,,,,3887.376400000006,3887.8755,3886.868299999997,3887.376299999997,3884.832100000009,3886.868100000009,3887.8755,3888.3757000000032,3888.375799999997,3891.283799999997,2028.0,3891.2839000000063,5.0,3891.29,8.0,8.0,248.0,16.0,1.0,1.0,0.7,Time
,,S69,1,女,22,anonymized,Serial_Dependence_U,2023.2.3,Win32,126.5822784806396,,,,,,3891.290200000003,249.0,8.0,3891.290299999997,249.0,,,,3895.228600000009,3895.727100000009,3894.7264000000064,3895.228600000009,3892.2929000000063,3894.726299999997,3895.727100000009,3896.227799999997,3896.227799999997,3898.853100000009,2108.0,3898.853100000009,5.0,3898.859400000006,8.0,9.0,249.0,8.0,1.0,1.4,0.7,Time
,,S69,1,女,22,anonymized,Serial_Dependence_U,2023.2.3,Win32,126.5822784806396,,,,,,3898.859700000003,291.0,8.0,3898.859799999997,291.0,,,,3902.996600000009,3903.495,3902.4951000000087,3902.9965000000007,3899.861600000009,3902.495,3903.4951000000087,3903.995200000004,3903.995299999997,3906.595600000009,2147.0,3906.595600000009,5.0,3906.601799999997,8.0,10.0,250.0,9.0,1.0,1.6,0.7,Time
,,S69,1,女,22,anonymized,Serial_Dependence_U,2023.2.3,Win32,126.5822784806396,,,,,,3906.6021000000096,155.0,8.0,3906.602200000003,155.0,,,,3910.7465000000007,3911.2465000000007,3910.2385,3910.746400000006,3907.604799999997,3910.2385,3911.246600000009,3911.746400000006,3911.7465000000007,3914.8249000000064,2275.0,3914.825,5.0,3914.8315000000007,8.0,11.0,251.0,29.0,1.0,1.6,0.7,Time
,,S69,1,女,22,anonymized,Serial_Dependence_U,2023.2.3,Win32,126.5822784806396,,,,,,3914.8317999999977,321.0,8.0,3914.832,321.0,,,,3918.8161000000096,3919.315799999997,3918.308200000004,3918.8159000000064,3915.841100000009,3918.308100000009,3919.315799999997,3919.8156000000095,3919.8157000000033,3922.674200000004,2247.0,3922.674200000004,5.0,3922.681,8.0,12.0,252.0,13.0,1.0,1.4,0.3,Time
,,S69,1,女,22,anonymized,Serial_Dependence_U,2023.2.3,Win32,126.5822784806396,,,,,,3922.6815,56.0,8.0,3922.6816000000094,56.0,,,,3926.258400000007,3926.758299999997,3925.749799999997,3926.258299999997,3923.683200000004,3925.749700000004,3926.758400000007,3927.2582000000034,3927.2582000000034,3930.567000000001,2149.0,3930.567100000009,5.0,3930.5735,8.0,13.0,253.0,1.0,1.0,1.0,0.3,Time
,,S69,1,女,22,anonymized,Serial_Dependence_U,2023.2.3,Win32,126.5822784806396,,,,,,3930.573799999997,324.0,8.0,3930.5739000000062,324.0,,,,3933.911400000006,3934.4105,3933.403400000006,3933.9112999999975,3931.5706000000096,3933.4032999999977,3934.4105,3934.910799999997,3934.911000000001,3936.804600000009,1135.0,3936.804600000009,5.0,3936.8109000000063,8.0,14.0,254.0,5.0,1.0,0.8,0.7,Time
,,S69,1,女,22,anonymized,Serial_Dependence_U,2023.2.3,Win32,126.5822784806396,,,,,,3936.8112000000033,132.0,8.0,3936.811299999997,132.0,,,,3940.361400000007,3940.859299999997,3939.854100000009,3940.361200000004,3937.821500000001,3939.854,3940.859400000006,3941.361299999997,3941.361299999997,3943.536799999997,1511.0,3943.5369000000055,5.0,3943.543,8.0,15.0,255.0,6.0,1.0,1.0,0.7,Time
,,S69,1,女,22,anonymized,Serial_Dependence_U,2023.2.3,Win32,126.5822784806396,,,,,,3943.543600000009,92.0,8.0,3943.5437999999967,92.0,,,,3947.52,3948.019799999997,3947.012799999997,3947.5199000000057,3944.545400000005,3947.012700000003,3948.0199000000057,3948.52,3948.520100000009,3950.620100000008,1591.0,3950.620100000008,4.0,3950.6266000000087,8.0,16.0,256.0,23.0,1.0,1.4,0.3,Time
