Scale_setup.started,Scale_setup.stopped,participant,session,sex,age,date,expName,psychopyVersion,OS,frameRate,Intro.started,Intro.stopped,key_resp_2.keys,key_resp_2.rt,key_resp_2.duration,block.started,direction,Block_id,block.stopped,trial_direction,Block_resp_2.keys,Block_resp_2.rt,Block_resp_2.duration,ITI.started,ITI.stopped,Mask_2.started,Mask_2.stopped,encoding.started,encoding.stopped,Cue.started,Cue.stopped,Response.started,Response.stopped,keyDuration,Feedback_Time.started,FeedbackID_T,Feedback_Time.stopped,trials.thisRepN,trials.thisTrialN,trials.thisN,trials.thisIndex,trials.ran,TimeDur,Coherence1,TrialType
0.0005000000000165,0.0013999999761722,S70,1,f,20,anonymized,Serial_Dependence_U,2023.2.3,Win32,60.240963855400565,,,,,,,,,,,,,,,,,,,,,,,,,,,,,,,,,,,
,,S70,1,f,20,anonymized,Serial_Dependence_U,2023.2.3,Win32,60.240963855400565,46.20600000000002,379.1776000000238,space,332.92929999995226,,,,,,,,,,,,,,,,,,,,,,,,,,,,,,,
,,S70,1,f,20,anonymized,Serial_Dependence_U,2023.2.3,Win32,60.240963855400565,,,,,,379.1897000000477,264.0,0.0,388.7275,264.0,s,9.509899999976255,,392.89230000007154,393.3918000000716,392.3838999999762,392.8921000000239,389.7366000000239,392.3838000000715,393.3922000000477,393.9112000000477,393.91139999997614,402.3145,171.0,402.31489999997615,1.0,403.3118000000715,0.0,0.0,0.0,19.0,1.0,1.6,0.7,Time
,,S70,1,f,20,anonymized,Serial_Dependence_U,2023.2.3,Win32,60.240963855400565,,,,,,403.3128000000715,313.0,0.0,403.31489999997615,313.0,,,,406.9015,407.3915,406.3927000000477,406.90139999997615,404.3368000000715,406.39260000002383,407.3916000000239,407.8923999999761,407.89260000002383,420.9542000000477,273.0,420.9543000000716,1.0,421.9561000000238,0.0,1.0,1.0,16.0,1.0,1.0,0.7,Time
,,S70,1,f,20,anonymized,Serial_Dependence_U,2023.2.3,Win32,60.240963855400565,,,,,,421.9566000000238,251.0,0.0,421.9568000000715,251.0,,,,425.7186000000239,426.21439999997614,425.2153999999761,425.7185,422.958,425.2152000000477,426.21439999997614,426.7102000000477,426.7103000000715,464.6402000000477,314.0,464.6403999999762,1.0,465.6167000000477,0.0,2.0,2.0,17.0,1.0,1.2,0.7,Time
,,S70,1,f,20,anonymized,Serial_Dependence_U,2023.2.3,Win32,60.240963855400565,,,,,,465.6172000000477,266.0,0.0,465.6176000000239,266.0,,,,469.6312000000477,470.1236000000238,469.12420000004767,469.631,466.65820000004766,469.124,470.1236000000238,470.6235,470.6237000000477,498.3363999999762,4154.0,498.33650000000006,5.0,499.3397000000477,0.0,3.0,3.0,13.0,1.0,1.4,0.3,Time
,,S70,1,f,20,anonymized,Serial_Dependence_U,2023.2.3,Win32,60.240963855400565,,,,,,499.3402000000477,208.0,0.0,499.3403999999761,208.0,,,,502.69989999997614,503.1966000000238,502.1728000000715,502.6998000000716,500.3272000000477,502.1726000000238,503.1966000000238,503.6721000000238,503.6721000000238,508.2123999999762,4023.0,508.2125,5.0,509.2116000000239,0.0,4.0,4.0,5.0,1.0,0.8,0.7,Time
,,S70,1,f,20,anonymized,Serial_Dependence_U,2023.2.3,Win32,60.240963855400565,,,,,,509.2120000000001,255.0,0.0,509.2123000000715,255.0,,,,513.2085,513.7070000000001,512.6813000000716,513.2083000000716,510.24570000004775,512.6811000000239,513.7070000000001,514.2073000000714,514.2073000000714,519.9227000000476,4550.0,519.9227000000476,5.0,520.9008999999762,0.0,5.0,5.0,18.0,1.0,1.4,0.7,Time
,,S70,1,f,20,anonymized,Serial_Dependence_U,2023.2.3,Win32,60.240963855400565,,,,,,520.9013000000716,211.0,0.0,520.9016000000238,211.0,,,,524.8728000000715,525.3488000000716,524.365,524.8727000000476,521.9151000000238,524.3648000000715,525.3488000000716,525.8273000000715,525.8273999999763,525.9798999999762,129.0,525.9802000000477,1.0,526.9722000000477,0.0,6.0,6.0,28.0,1.0,1.4,0.7,Time
,,S70,1,f,20,anonymized,Serial_Dependence_U,2023.2.3,Win32,60.240963855400565,,,,,,526.9727000000478,291.0,0.0,526.973,291.0,,,,530.9678000000715,531.4547000000478,530.461600000024,530.9677000000477,527.9791000000239,530.4613999999763,531.4547000000478,531.9546000000239,531.9548000000716,537.6286000000239,5060.0,537.6287000000477,5.0,538.6082000000476,0.0,7.0,7.0,23.0,1.0,1.4,0.3,Time
,,S70,1,f,20,anonymized,Serial_Dependence_U,2023.2.3,Win32,60.240963855400565,,,,,,538.6086000000239,350.0,0.0,538.6088000000716,350.0,,,,542.1883000000714,542.6542000000477,541.6723000000716,542.1882000000478,539.6220000000001,541.6722000000477,542.6543000000715,543.140100000024,543.1402000000478,548.6548999999761,5043.0,548.655,5.0,549.6382000000476,0.0,8.0,8.0,26.0,1.0,1.0,0.7,Time
,,S70,1,f,20,anonymized,Serial_Dependence_U,2023.2.3,Win32,60.240963855400565,,,,,,549.6386000000239,161.0,0.0,549.6388000000716,161.0,,,,553.21,553.6907000000476,552.6796000000238,553.2098000000715,550.6176000000239,552.6793999999761,553.6907000000476,554.1890000000001,554.1891000000239,559.0613000000715,3948.0,559.0613999999762,5.0,560.0612000000476,0.0,9.0,9.0,1.0,1.0,1.0,0.3,Time
,,S70,1,f,20,anonymized,Serial_Dependence_U,2023.2.3,Win32,60.240963855400565,,,,,,560.0616000000239,298.0,0.0,560.0618000000716,298.0,,,,563.8503999999762,564.3203999999762,563.3254999999999,563.8502000000476,561.088,563.3253999999761,564.3205,564.8085000000001,564.808600000024,568.1236000000238,2912.0,568.1237000000476,5.0,569.117,0.0,10.0,10.0,7.0,1.0,1.2,0.7,Time
,,S70,1,f,20,anonymized,Serial_Dependence_U,2023.2.3,Win32,60.240963855400565,,,,,,569.1173999999762,103.0,0.0,569.1177000000478,103.0,,,,573.332100000024,573.8385000000001,572.8109999999999,573.3320000000001,570.1136000000238,572.8108000000716,573.8385000000001,574.3398000000716,574.3398000000716,578.4303999999761,3333.0,578.4304999999999,5.0,579.4101000000239,0.0,11.0,11.0,4.0,1.0,1.6,0.3,Time
,,S70,1,f,20,anonymized,Serial_Dependence_U,2023.2.3,Win32,60.240963855400565,,,,,,579.4103999999761,19.0,0.0,579.4107000000477,19.0,,,,583.0038000000716,583.4865,582.4991000000239,583.0037000000477,580.4288000000715,582.499,583.4865,583.9866000000238,583.9867000000477,588.1490000000001,3727.0,588.149100000024,5.0,589.1183999999762,0.0,12.0,12.0,11.0,1.0,1.0,0.3,Time
,,S70,1,f,20,anonymized,Serial_Dependence_U,2023.2.3,Win32,60.240963855400565,,,,,,589.1187000000477,220.0,0.0,589.1189999999999,220.0,,,,592.4784999999999,592.9565,591.9627000000478,592.4783999999761,590.1275,591.9625000000001,592.9566000000239,593.4368999999763,593.4369999999999,597.8593999999762,3964.0,597.8595,5.0,598.8508999999763,0.0,13.0,13.0,15.0,1.0,0.8,0.7,Time
,,S70,1,f,20,anonymized,Serial_Dependence_U,2023.2.3,Win32,60.240963855400565,,,,,,598.8513999999761,207.0,0.0,598.8517000000477,207.0,,,,603.0618999999763,603.5550000000001,602.5541000000239,603.0618000000716,599.8918000000715,602.5538999999762,603.5551000000239,604.0551000000239,604.0552000000478,608.5685000000001,3926.0,608.5688999999761,5.0,609.5588999999761,0.0,14.0,14.0,14.0,1.0,1.6,0.3,Time
,,S70,1,f,20,anonymized,Serial_Dependence_U,2023.2.3,Win32,60.240963855400565,,,,,,609.5593000000715,140.0,0.0,609.5595000000001,140.0,,,,613.4033000000716,613.9058999999761,612.8763000000715,613.4033000000716,610.5707000000477,612.8761000000238,613.9058999999761,614.4023000000716,614.4023000000716,619.8900000000001,3346.0,619.890100000024,5.0,620.8528000000715,0.0,15.0,15.0,2.0,1.0,1.2,0.3,Time
,,S70,1,f,20,anonymized,Serial_Dependence_U,2023.2.3,Win32,60.240963855400565,,,,,,620.8532000000478,333.0,0.0,620.8533999999761,333.0,,,,624.2048000000716,624.722,623.7013000000716,624.2047000000478,621.854,623.7012000000477,624.722,625.2021000000238,625.2022000000477,631.9037000000476,3649.0,631.9038000000714,5.0,632.8827000000476,0.0,16.0,16.0,25.0,1.0,0.8,0.7,Time
,,S70,1,f,20,anonymized,Serial_Dependence_U,2023.2.3,Win32,60.240963855400565,,,,,,632.8831000000239,168.0,0.0,632.8834999999999,168.0,,,,636.6692000000478,637.1703000000716,636.1548000000716,636.669100000024,633.880100000024,636.154600000024,637.1703000000716,637.6683999999761,637.6683999999761,642.5083999999761,4322.0,642.5084999999999,5.0,643.4983000000716,0.0,17.0,17.0,12.0,1.0,1.2,0.3,Time
,,S70,1,f,20,anonymized,Serial_Dependence_U,2023.2.3,Win32,60.240963855400565,,,,,,643.4987000000476,257.0,0.0,643.4988000000715,257.0,,,,647.6959999999999,648.1848000000716,647.1763000000715,647.6958000000716,644.5207000000478,647.1761000000238,648.1848999999761,648.6680000000001,648.6681000000237,652.2866000000238,2794.0,652.2867000000476,5.0,653.2742000000476,0.0,18.0,18.0,29.0,1.0,1.6,0.7,Time
,,S70,1,f,20,anonymized,Serial_Dependence_U,2023.2.3,Win32,60.240963855400565,,,,,,653.2745,55.0,0.0,653.2748000000715,55.0,,,,657.4459999999999,657.9363999999762,656.9276000000239,657.4458999999761,654.2860000000001,656.9275,657.9363999999762,658.4180000000001,658.4180000000001,664.1865,4259.0,664.1866000000239,5.0,665.1647000000478,0.0,19.0,19.0,9.0,1.0,1.6,0.7,Time
,,S70,1,f,20,anonymized,Serial_Dependence_U,2023.2.3,Win32,60.240963855400565,,,,,,665.1652000000477,131.0,0.0,665.1653999999762,131.0,,,,668.5930000000001,669.1020000000001,668.0853000000716,668.5928000000715,666.1998000000715,668.0851000000239,669.1020000000001,669.6012000000476,669.6013000000714,678.1453000000715,3063.0,678.1453999999762,5.0,679.1572000000476,0.0,20.0,20.0,10.0,1.0,0.8,0.3,Time
,,S70,1,f,20,anonymized,Serial_Dependence_U,2023.2.3,Win32,60.240963855400565,,,,,,679.1577000000477,202.0,0.0,679.1582000000476,202.0,,,,682.9162000000476,683.4071000000238,682.3948000000714,682.9161000000238,680.1508000000715,682.394600000024,683.4071000000238,683.9021000000239,683.9023000000716,686.6583000000714,2208.0,686.6583999999762,5.0,687.6469999999999,0.0,21.0,21.0,27.0,1.0,1.2,0.7,Time
,,S70,1,f,20,anonymized,Serial_Dependence_U,2023.2.3,Win32,60.240963855400565,,,,,,687.6475,66.0,0.0,687.6478999999761,66.0,,,,691.8318000000716,692.3168000000715,691.3293000000715,691.8317000000477,688.646,691.3292000000476,692.3168000000715,692.8185000000001,692.8185000000001,696.5587000000478,2946.0,696.5588000000716,5.0,697.5740000000001,0.0,22.0,22.0,24.0,1.0,1.6,0.3,Time
,,S70,1,f,20,anonymized,Serial_Dependence_U,2023.2.3,Win32,60.240963855400565,,,,,,697.5746000000238,73.0,0.0,697.5747000000476,73.0,,,,701.5748999999762,702.0667000000476,701.0403000000715,701.5748000000715,698.6067000000478,701.0401000000238,702.0667000000476,702.5685000000001,702.5686000000239,706.7453999999761,3489.0,706.7455,5.0,707.739,0.0,23.0,23.0,8.0,1.0,1.4,0.7,Time
,,S70,1,f,20,anonymized,Serial_Dependence_U,2023.2.3,Win32,60.240963855400565,,,,,,707.7394999999999,156.0,0.0,707.7397000000476,156.0,,,,711.3518999999762,711.8518000000715,710.8344999999999,711.3518000000715,708.7733999999762,710.8343000000716,711.8518000000715,712.3328999999762,712.3330000000001,716.0613999999762,3188.0,716.0615,5.0,717.0468999999762,0.0,24.0,24.0,21.0,1.0,1.0,0.3,Time
,,S70,1,f,20,anonymized,Serial_Dependence_U,2023.2.3,Win32,60.240963855400565,,,,,,717.0473999999763,156.0,0.0,717.0477000000476,156.0,,,,720.8741000000239,721.3847000000476,720.3343000000716,720.8741000000239,718.05,720.3342000000478,721.3847000000476,721.8738999999762,721.874,726.1902000000478,3637.0,726.1902000000478,5.0,727.1896000000238,0.0,25.0,25.0,22.0,1.0,1.2,0.3,Time
,,S70,1,f,20,anonymized,Serial_Dependence_U,2023.2.3,Win32,60.240963855400565,,,,,,727.1901000000239,204.0,0.0,727.1903000000716,204.0,,,,730.6163000000715,731.1158999999761,730.0983000000715,730.6161000000238,728.2345,730.0981000000238,731.1158999999761,731.6017000000477,731.6018000000715,735.1398000000715,2898.0,735.1400000000001,5.0,736.1157000000476,0.0,26.0,26.0,0.0,1.0,0.8,0.3,Time
,,S70,1,f,20,anonymized,Serial_Dependence_U,2023.2.3,Win32,60.240963855400565,,,,,,736.1161000000238,227.0,0.0,736.1163000000715,227.0,,,,739.5206000000239,740.0162000000478,739.0052000000476,739.5205000000001,737.1373000000715,739.0050000000001,740.0163000000716,740.4988000000715,740.499,742.4253000000715,1891.0,742.4253999999762,5.0,743.4217000000476,0.0,27.0,27.0,20.0,1.0,0.8,0.3,Time
,,S70,1,f,20,anonymized,Serial_Dependence_U,2023.2.3,Win32,60.240963855400565,,,,,,743.4222000000477,325.0,0.0,743.4224999999999,325.0,,,,747.4361000000238,747.9178999999763,746.9228000000714,747.4359999999999,744.4338000000716,746.9226000000237,747.9178999999763,748.4153999999762,748.4155000000001,752.1508000000715,3158.0,752.1508999999762,5.0,753.1453000000715,0.0,28.0,28.0,3.0,1.0,1.4,0.3,Time
,,S70,1,f,20,anonymized,Serial_Dependence_U,2023.2.3,Win32,60.240963855400565,,,,,,753.1458000000716,333.0,0.0,753.1458999999761,333.0,,,,756.7494999999999,757.2486000000238,756.2227000000478,756.7493000000716,754.1601000000239,756.2225000000001,757.2486000000238,757.7484999999999,757.7486000000238,761.3902000000478,3062.0,761.3903000000716,5.0,762.3798000000716,0.0,29.0,29.0,6.0,1.0,1.0,0.7,Time
,,S70,1,f,20,anonymized,Serial_Dependence_U,2023.2.3,Win32,60.240963855400565,,,,,,762.380100000024,290.0,1.0,907.321600000024,290.0,s,144.9185,,911.5688000000714,912.0633000000714,911.034899999976,911.5687000000476,908.3522000000476,911.034899999976,912.0633000000714,912.5628000000715,912.5628000000715,916.2177000000476,3047.0,916.2177000000476,5.0,916.2183000000714,1.0,0.0,30.0,14.0,1.0,1.6,0.3,Time
,,S70,1,f,20,anonymized,Serial_Dependence_U,2023.2.3,Win32,60.240963855400565,,,,,,916.2188000000716,250.0,1.0,916.2207000000476,250.0,,,,920.4492000000477,920.944,919.916,920.4491000000236,917.2507000000476,919.9158000000714,920.944,921.4483000000714,921.448399999976,925.116899999976,3206.0,925.117,5.0,925.1173999999762,1.0,1.0,31.0,4.0,1.0,1.6,0.3,Time
,,S70,1,f,20,anonymized,Serial_Dependence_U,2023.2.3,Win32,60.240963855400565,,,,,,925.117899999976,354.0,1.0,925.1181000000238,354.0,,,,929.1283000000716,929.6282000000476,928.62,929.1282000000476,926.139399999976,928.6198000000716,929.6282000000476,930.1271000000238,930.1271000000238,933.1577000000476,2644.0,933.1578000000716,5.0,933.1582000000476,1.0,2.0,32.0,3.0,1.0,1.4,0.3,Time
,,S70,1,f,20,anonymized,Serial_Dependence_U,2023.2.3,Win32,60.240963855400565,,,,,,933.1587000000476,125.0,1.0,933.158899999976,125.0,,,,936.9488000000716,937.443399999976,936.4388000000716,936.9488000000716,934.1653999999762,936.4386000000238,937.443399999976,937.943899999976,937.944,941.2823999999762,2991.0,941.2823999999762,5.0,941.2828000000716,1.0,3.0,33.0,2.0,1.0,1.2,0.3,Time
,,S70,1,f,20,anonymized,Serial_Dependence_U,2023.2.3,Win32,60.240963855400565,,,,,,941.2833000000714,321.0,1.0,941.2835,321.0,,,,944.844,945.327399999976,944.3376000000236,944.8438000000716,942.299899999976,944.3373000000717,945.3275,945.8101000000238,945.8102000000476,951.4686000000238,2835.0,951.4686000000238,5.0,951.4688999999762,1.0,4.0,34.0,6.0,1.0,1.0,0.7,Time
,,S70,1,f,20,anonymized,Serial_Dependence_U,2023.2.3,Win32,60.240963855400565,,,,,,951.4693000000714,72.0,1.0,951.469399999976,72.0,,,,955.451899999976,955.9431000000238,954.9487000000476,955.4518000000714,952.482,954.9486000000238,955.9431000000238,956.4598000000716,956.4598000000716,959.6218000000716,2668.0,959.6218000000716,5.0,959.6222000000477,1.0,5.0,35.0,23.0,1.0,1.4,0.3,Time
,,S70,1,f,20,anonymized,Serial_Dependence_U,2023.2.3,Win32,60.240963855400565,,,,,,959.6226000000238,303.0,1.0,959.6228000000716,303.0,,,,963.2265,963.7281000000236,962.7005,963.226399999976,960.6127000000477,962.7005,963.7282000000477,964.2096000000238,964.2096000000238,967.038399999976,2414.0,967.0385,5.0,967.038899999976,1.0,6.0,36.0,11.0,1.0,1.0,0.3,Time
,,S70,1,f,20,anonymized,Serial_Dependence_U,2023.2.3,Win32,60.240963855400565,,,,,,967.0393000000716,216.0,1.0,967.0395,216.0,,,,970.8528999999762,971.3446000000238,970.314399999976,970.8527000000475,968.0521000000238,970.3143000000714,971.3446000000238,971.8239999999998,971.8241000000236,974.871,2536.0,974.8711000000236,5.0,974.8716000000238,1.0,7.0,37.0,12.0,1.0,1.2,0.3,Time
,,S70,1,f,20,anonymized,Serial_Dependence_U,2023.2.3,Win32,60.240963855400565,,,,,,974.8721000000236,327.0,1.0,974.8722000000477,327.0,,,,978.2657000000476,978.7613999999762,977.7361000000236,978.2656000000238,975.874399999976,977.735899999976,978.7614999999998,979.259100000024,979.259100000024,981.3247000000476,1242.0,981.3248000000716,5.0,981.3253000000714,1.0,8.0,38.0,10.0,1.0,0.8,0.3,Time
,,S70,1,f,20,anonymized,Serial_Dependence_U,2023.2.3,Win32,60.240963855400565,,,,,,981.3258000000716,208.0,1.0,981.326100000024,208.0,,,,984.6763000000716,985.1758000000714,984.1598000000716,984.6761000000238,982.3183000000716,984.1597000000476,985.1758000000714,985.687,985.6871000000236,989.2845,3051.0,989.2846000000238,5.0,989.284899999976,1.0,9.0,39.0,15.0,1.0,0.8,0.7,Time
,,S70,1,f,20,anonymized,Serial_Dependence_U,2023.2.3,Win32,60.240963855400565,,,,,,989.2853000000714,173.0,1.0,989.2855,173.0,,,,993.2161000000236,993.7103000000716,992.71,993.216,990.2762000000477,992.7097000000476,993.710399999976,994.2005,994.2005,997.754600000024,3200.0,997.7547000000476,5.0,997.755,1.0,10.0,40.0,28.0,1.0,1.4,0.7,Time
,,S70,1,f,20,anonymized,Serial_Dependence_U,2023.2.3,Win32,60.240963855400565,,,,,,997.7555,303.0,1.0,997.7557000000476,303.0,,,,1001.1657000000477,1001.644100000024,1000.619899999976,1001.1656000000236,998.7637000000476,1000.619899999976,1001.644100000024,1002.143399999976,1002.1435,1004.7326000000236,2047.0,1004.7327000000475,5.0,1004.733,1.0,11.0,41.0,5.0,1.0,0.8,0.7,Time
,,S70,1,f,20,anonymized,Serial_Dependence_U,2023.2.3,Win32,60.240963855400565,,,,,,1004.7335,140.0,1.0,1004.7337000000476,140.0,,,,1008.6987000000476,1009.1938000000714,1008.1663000000716,1008.6986000000238,1005.7318000000714,1008.1661000000238,1009.1938000000714,1009.6771000000238,1009.6771000000238,1012.5258000000716,2265.0,1012.5258999999762,5.0,1012.5263000000714,1.0,12.0,42.0,18.0,1.0,1.4,0.7,Time
,,S70,1,f,20,anonymized,Serial_Dependence_U,2023.2.3,Win32,60.240963855400565,,,,,,1012.5267000000476,27.0,1.0,1012.527,27.0,,,,1016.0922000000476,1016.595399999976,1015.5826000000238,1016.092,1013.517100000024,1015.582399999976,1016.595399999976,1017.0913000000714,1017.091399999976,1019.5822000000476,2035.0,1019.5822000000476,5.0,1019.5826000000238,1.0,13.0,43.0,21.0,1.0,1.0,0.3,Time
,,S70,1,f,20,anonymized,Serial_Dependence_U,2023.2.3,Win32,60.240963855400565,,,,,,1019.5831000000236,77.0,1.0,1019.583399999976,77.0,,,,1023.341899999976,1023.8432000000475,1022.831,1023.3418000000715,1020.5992000000476,1022.830899999976,1023.8433000000714,1024.3246000000238,1024.3246000000238,1027.4322000000475,2546.0,1027.4323000000716,5.0,1027.4328000000714,1.0,14.0,44.0,7.0,1.0,1.2,0.7,Time
,,S70,1,f,20,anonymized,Serial_Dependence_U,2023.2.3,Win32,60.240963855400565,,,,,,1027.4332000000477,11.0,1.0,1027.4335,11.0,,,,1031.3987000000477,1031.924399999976,1030.893100000024,1031.3985,1028.4481000000235,1030.893,1031.924399999976,1032.425600000024,1032.425600000024,1035.0582000000477,2326.0,1035.0582000000477,5.0,1035.0588000000714,1.0,15.0,45.0,8.0,1.0,1.4,0.7,Time
,,S70,1,f,20,anonymized,Serial_Dependence_U,2023.2.3,Win32,60.240963855400565,,,,,,1035.0593000000715,339.0,1.0,1035.0594999999998,339.0,,,,1038.649899999976,1039.1595,1038.1248999999762,1038.6498000000715,1036.048,1038.1248000000714,1039.1595,1039.6407000000477,1039.6408000000715,1040.2326000000237,118.0,1040.232899999976,1.0,1040.2335,1.0,16.0,46.0,1.0,1.0,1.0,0.3,Time
,,S70,1,f,20,anonymized,Serial_Dependence_U,2023.2.3,Win32,60.240963855400565,,,,,,1040.2343999999762,174.0,1.0,1040.2348000000716,174.0,,,,1044.4485,1044.9406000000238,1043.9247000000476,1044.448399999976,1041.263600000024,1043.9245,1044.9407000000476,1045.4385,1045.4385,1047.8532000000475,2154.0,1047.8532000000475,5.0,1047.8536000000238,1.0,17.0,47.0,24.0,1.0,1.6,0.3,Time
,,S70,1,f,20,anonymized,Serial_Dependence_U,2023.2.3,Win32,60.240963855400565,,,,,,1047.854100000024,167.0,1.0,1047.8543000000716,167.0,,,,1051.4155,1051.9155,1050.9078000000716,1051.4153999999762,1048.8742000000475,1050.9077000000475,1051.9156000000237,1052.4257000000475,1052.4258000000714,1055.2018000000714,2366.0,1055.201899999976,5.0,1055.2022000000477,1.0,18.0,48.0,26.0,1.0,1.0,0.7,Time
,,S70,1,f,20,anonymized,Serial_Dependence_U,2023.2.3,Win32,60.240963855400565,,,,,,1055.2027000000476,50.0,1.0,1055.203,50.0,,,,1058.6493000000714,1059.1402000000476,1058.104,1058.648899999976,1056.2315,1058.1038000000715,1059.1402000000476,1059.629,1059.629,1060.7187000000476,189.0,1060.7188000000715,1.0,1060.7192000000475,1.0,19.0,49.0,0.0,1.0,0.8,0.3,Time
,,S70,1,f,20,anonymized,Serial_Dependence_U,2023.2.3,Win32,60.240963855400565,,,,,,1060.7196000000238,219.0,1.0,1060.7198999999762,219.0,,,,1064.3162000000475,1064.791899999976,1063.8058000000717,1064.316100000024,1061.7633999999762,1063.8057000000476,1064.791899999976,1065.2933000000714,1065.293399999976,1068.1045,2367.0,1068.1046000000238,5.0,1068.1048999999762,1.0,20.0,50.0,16.0,1.0,1.0,0.7,Time
,,S70,1,f,20,anonymized,Serial_Dependence_U,2023.2.3,Win32,60.240963855400565,,,,,,1068.1056000000235,349.0,1.0,1068.1057000000476,349.0,,,,1072.239100000024,1072.7231000000238,1071.7341000000238,1072.239,1069.088,1071.733899999976,1072.7232000000477,1073.2157000000475,1073.2158000000716,1076.147600000024,2556.0,1076.147600000024,5.0,1076.1481000000238,1.0,21.0,51.0,29.0,1.0,1.6,0.7,Time
,,S70,1,f,20,anonymized,Serial_Dependence_U,2023.2.3,Win32,60.240963855400565,,,,,,1076.1485,102.0,1.0,1076.148600000024,102.0,,,,1079.9473000000714,1080.4228999999762,1079.4458000000716,1079.9472000000476,1077.1735,1079.4457000000475,1080.423,1080.924899999976,1080.924899999976,1083.1481000000238,2145.0,1083.1481000000238,5.0,1083.1485,1.0,22.0,52.0,22.0,1.0,1.2,0.3,Time
,,S70,1,f,20,anonymized,Serial_Dependence_U,2023.2.3,Win32,60.240963855400565,,,,,,1083.1488000000716,68.0,1.0,1083.149,68.0,,,,1087.2822000000476,1087.790899999976,1086.7663000000714,1087.2821000000238,1084.1302000000476,1086.7661000000237,1087.791,1088.272600000024,1088.2728000000716,1091.167899999976,2580.0,1091.167899999976,5.0,1091.1683000000714,1.0,23.0,53.0,9.0,1.0,1.6,0.7,Time
,,S70,1,f,20,anonymized,Serial_Dependence_U,2023.2.3,Win32,60.240963855400565,,,,,,1091.1687000000477,335.0,1.0,1091.169,335.0,,,,1094.584,1095.0738999999762,1094.0575,1094.5838000000715,1092.192899999976,1094.057399999976,1095.0739999999998,1095.5726000000238,1095.5727000000477,1096.1575,116.0,1096.1575,1.0,1096.157899999976,1.0,24.0,54.0,20.0,1.0,0.8,0.3,Time
,,S70,1,f,20,anonymized,Serial_Dependence_U,2023.2.3,Win32,60.240963855400565,,,,,,1096.158600000024,88.0,1.0,1096.1587000000477,88.0,,,,1100.3343000000714,1100.824399999976,1099.823399999976,1100.3343000000714,1097.1826000000235,1099.8232000000476,1100.824399999976,1101.2896000000237,1101.2896000000237,1104.4302000000475,2783.0,1104.4302000000475,5.0,1104.4305,1.0,25.0,55.0,19.0,1.0,1.6,0.7,Time
,,S70,1,f,20,anonymized,Serial_Dependence_U,2023.2.3,Win32,60.240963855400565,,,,,,1104.431,101.0,1.0,1104.4313000000716,101.0,,,,1108.3945,1108.876,1107.881,1108.394399999976,1105.4128999999762,1107.881,1108.876,1109.355399999976,1109.355399999976,1110.1612000000475,147.0,1110.1613000000714,1.0,1110.1618999999762,1.0,26.0,56.0,13.0,1.0,1.4,0.3,Time
,,S70,1,f,20,anonymized,Serial_Dependence_U,2023.2.3,Win32,60.240963855400565,,,,,,1110.1627000000476,58.0,1.0,1110.163100000024,58.0,,,,1113.5286000000235,1114.0238000000716,1113.0062000000476,1113.5285,1111.168899999976,1113.0061000000237,1114.0238000000716,1114.505399999976,1114.505399999976,1117.750399999976,2853.0,1117.750399999976,5.0,1117.7507000000476,1.0,27.0,57.0,25.0,1.0,0.8,0.7,Time
,,S70,1,f,20,anonymized,Serial_Dependence_U,2023.2.3,Win32,60.240963855400565,,,,,,1117.7513000000715,23.0,1.0,1117.751399999976,23.0,,,,1121.5157000000477,1122.009100000024,1120.9972000000475,1121.5156000000238,1118.7661000000237,1120.9971000000237,1122.009100000024,1122.4888000000717,1122.4888000000717,1126.2568999999762,2883.0,1126.2571000000237,5.0,1126.2575,1.0,28.0,58.0,27.0,1.0,1.2,0.7,Time
,,S70,1,f,20,anonymized,Serial_Dependence_U,2023.2.3,Win32,60.240963855400565,,,,,,1126.258,315.0,1.0,1126.2583000000716,315.0,,,,1130.0497000000476,1130.556,1129.5447000000477,1130.0497000000476,1127.2892000000477,1129.5445,1130.556100000024,1131.055399999976,1131.055399999976,1133.602,1939.0,1133.602,5.0,1133.6023000000714,1.0,29.0,59.0,17.0,1.0,1.2,0.7,Time
,,S70,1,f,20,anonymized,Serial_Dependence_U,2023.2.3,Win32,60.240963855400565,,,,,,1133.6027000000477,88.0,2.0,1264.5396000000237,88.0,s,130.91420000004769,,1267.9326000000235,1268.4343999999762,1267.406600000024,1267.9325,1265.5311000000238,1267.4065,1268.4343999999762,1268.9343000000715,1268.9343000000715,1270.3367000000476,919.0,1270.3368000000714,4.0,1270.3371000000238,2.0,0.0,60.0,20.0,1.0,0.8,0.3,Time
,,S70,1,f,20,anonymized,Serial_Dependence_U,2023.2.3,Win32,60.240963855400565,,,,,,1270.3377000000476,161.0,2.0,1270.3395,161.0,,,,1273.7582000000475,1274.252600000024,1273.2192000000475,1273.758100000024,1271.351399999976,1273.2188999999762,1274.252600000024,1274.7532000000476,1274.7533000000717,1276.4987000000476,1257.0,1276.4988000000717,5.0,1276.4992000000475,2.0,1.0,61.0,10.0,1.0,0.8,0.3,Time
,,S70,1,f,20,anonymized,Serial_Dependence_U,2023.2.3,Win32,60.240963855400565,,,,,,1276.4998000000714,218.0,2.0,1276.5001000000238,218.0,,,,1279.850600000024,1280.3508000000716,1279.3287000000475,1279.850600000024,1277.493600000024,1279.3287000000475,1280.3508000000716,1280.8368000000714,1280.836899999976,1282.6862000000476,1428.0,1282.6863000000717,5.0,1282.6867000000475,2.0,2.0,62.0,25.0,1.0,0.8,0.7,Time
,,S70,1,f,20,anonymized,Serial_Dependence_U,2023.2.3,Win32,60.240963855400565,,,,,,1282.6873999999762,132.0,2.0,1282.6877000000477,132.0,,,,1286.861399999976,1287.3527000000477,1286.3363000000716,1286.8613000000714,1283.6965,1286.3362000000477,1287.3527000000477,1287.8338999999762,1287.8342000000475,1291.6178000000714,3209.0,1291.617899999976,5.0,1291.6182000000476,2.0,3.0,63.0,29.0,1.0,1.6,0.7,Time
,,S70,1,f,20,anonymized,Serial_Dependence_U,2023.2.3,Win32,60.240963855400565,,,,,,1291.6187000000475,206.0,2.0,1291.6188000000716,206.0,,,,1295.7922000000476,1296.2852000000476,1295.2833000000714,1295.7921000000238,1292.6011000000235,1295.283,1296.2852000000476,1296.7759999999998,1296.7762000000475,1299.028899999976,1912.0,1299.028899999976,4.0,1299.029399999976,2.0,4.0,64.0,14.0,1.0,1.6,0.3,Time
,,S70,1,f,20,anonymized,Serial_Dependence_U,2023.2.3,Win32,60.240963855400565,,,,,,1299.0298000000714,55.0,2.0,1299.029899999976,55.0,,,,1302.9945,1303.4848000000716,1302.4921000000238,1302.9943999999762,1300.004,1302.491899999976,1303.4848000000716,1303.966899999976,1303.966899999976,1306.2907000000475,1956.0,1306.2907000000475,5.0,1306.2912000000476,2.0,5.0,65.0,13.0,1.0,1.4,0.3,Time
,,S70,1,f,20,anonymized,Serial_Dependence_U,2023.2.3,Win32,60.240963855400565,,,,,,1306.2917000000475,8.0,2.0,1306.2918000000716,8.0,,,,1309.859899999976,1310.368,1309.3508000000716,1309.8597000000475,1307.2842000000476,1309.3507000000477,1310.3681000000238,1310.85,1310.85,1312.7078000000715,1367.0,1312.707899999976,5.0,1312.708399999976,2.0,6.0,66.0,11.0,1.0,1.0,0.3,Time
,,S70,1,f,20,anonymized,Serial_Dependence_U,2023.2.3,Win32,60.240963855400565,,,,,,1312.7091000000237,116.0,2.0,1312.709399999976,116.0,,,,1316.9415,1317.4344999999998,1316.4071000000238,1316.9415,1313.7177000000477,1316.406899999976,1317.4344999999998,1317.934899999976,1317.934899999976,1320.2907000000475,1978.0,1320.2908000000714,4.0,1320.2912000000476,2.0,7.0,67.0,24.0,1.0,1.6,0.3,Time
,,S70,1,f,20,anonymized,Serial_Dependence_U,2023.2.3,Win32,60.240963855400565,,,,,,1320.2915,188.0,2.0,1320.2917000000475,188.0,,,,1324.0351000000237,1324.533600000024,1323.5112000000477,1324.035,1321.274,1323.511,1324.533600000024,1325.033600000024,1325.0337000000477,1327.0227000000475,1534.0,1327.0227000000475,4.0,1327.023,2.0,8.0,68.0,27.0,1.0,1.2,0.7,Time
,,S70,1,f,20,anonymized,Serial_Dependence_U,2023.2.3,Win32,60.240963855400565,,,,,,1327.0233999999762,221.0,2.0,1327.023600000024,221.0,,,,1330.592399999976,1331.099899999976,1330.0668999999762,1330.5923000000714,1328.0333000000714,1330.0667000000476,1331.099899999976,1331.6001000000238,1331.6002000000476,1334.298399999976,2366.0,1334.2985,5.0,1334.299,2.0,9.0,69.0,26.0,1.0,1.0,0.7,Time
,,S70,1,f,20,anonymized,Serial_Dependence_U,2023.2.3,Win32,60.240963855400565,,,,,,1334.2995,169.0,2.0,1334.2998000000714,169.0,,,,1338.301600000024,1338.7828000000716,1337.7895,1338.3013999999762,1335.305,1337.789399999976,1338.7828000000716,1339.2843000000714,1339.284399999976,1341.4083000000714,1735.0,1341.4083000000714,4.0,1341.408600000024,2.0,10.0,70.0,23.0,1.0,1.4,0.3,Time
,,S70,1,f,20,anonymized,Serial_Dependence_U,2023.2.3,Win32,60.240963855400565,,,,,,1341.4092000000476,162.0,2.0,1341.409399999976,162.0,,,,1344.8065,1345.300600000024,1344.267,1344.8063000000716,1342.4228999999762,1344.2668999999762,1345.300600000024,1345.799899999976,1345.8,1348.2238000000714,2227.0,1348.223899999976,5.0,1348.2242000000476,2.0,11.0,71.0,15.0,1.0,0.8,0.7,Time
,,S70,1,f,20,anonymized,Serial_Dependence_U,2023.2.3,Win32,60.240963855400565,,,,,,1348.224600000024,260.0,2.0,1348.2248000000716,260.0,,,,1351.8056000000238,1352.3097000000475,1351.2995,1351.8055,1349.2365,1351.299399999976,1352.3098000000714,1352.8172000000477,1352.8172000000477,1354.6767000000475,1463.0,1354.6767000000475,5.0,1354.6771000000238,2.0,12.0,72.0,1.0,1.0,1.0,0.3,Time
,,S70,1,f,20,anonymized,Serial_Dependence_U,2023.2.3,Win32,60.240963855400565,,,,,,1354.677600000024,124.0,2.0,1354.6778000000716,124.0,,,,1358.4553999999762,1358.932100000024,1357.9431000000238,1358.4553000000717,1355.6598000000715,1357.942899999976,1358.932100000024,1359.4343000000715,1359.4343999999762,1362.855399999976,2887.0,1362.855399999976,5.0,1362.8558000000714,2.0,13.0,73.0,2.0,1.0,1.2,0.3,Time
,,S70,1,f,20,anonymized,Serial_Dependence_U,2023.2.3,Win32,60.240963855400565,,,,,,1362.8562000000477,84.0,2.0,1362.856399999976,84.0,,,,1366.8243000000714,1367.316,1366.3203000000717,1366.8241000000237,1363.8725,1366.3201000000238,1367.316,1367.8152000000475,1367.8153000000714,1371.0165,2733.0,1371.0165,5.0,1371.0168999999762,2.0,14.0,74.0,28.0,1.0,1.4,0.7,Time
,,S70,1,f,20,anonymized,Serial_Dependence_U,2023.2.3,Win32,60.240963855400565,,,,,,1371.0173000000714,295.0,2.0,1371.0177000000476,295.0,,,,1375.2255,1375.7208000000714,1374.708399999976,1375.2253999999762,1372.0575,1374.7082000000476,1375.7208000000714,1376.2165,1376.2166000000238,1379.2897000000476,2825.0,1379.2898000000714,5.0,1379.2903000000715,2.0,15.0,75.0,9.0,1.0,1.6,0.7,Time
,,S70,1,f,20,anonymized,Serial_Dependence_U,2023.2.3,Win32,60.240963855400565,,,,,,1379.2908000000714,177.0,2.0,1379.2911000000238,177.0,,,,1383.0887000000475,1383.5813999999762,1382.5823000000714,1383.0886000000237,1380.3246000000238,1382.5822000000476,1383.5813999999762,1384.072,1384.0723000000714,1386.438399999976,1933.0,1386.4386000000238,5.0,1386.438899999976,2.0,16.0,76.0,17.0,1.0,1.2,0.7,Time
,,S70,1,f,20,anonymized,Serial_Dependence_U,2023.2.3,Win32,60.240963855400565,,,,,,1386.439399999976,109.0,2.0,1386.4396000000238,109.0,,,,1390.2751000000237,1390.7628000000714,1389.748399999976,1390.274899999976,1387.4502000000475,1389.7482000000475,1390.7628000000714,1391.266399999976,1391.266399999976,1391.7098999999762,101.0,1391.71,1.0,1391.710399999976,2.0,17.0,77.0,12.0,1.0,1.2,0.3,Time
,,S70,1,f,20,anonymized,Serial_Dependence_U,2023.2.3,Win32,60.240963855400565,,,,,,1391.711,358.0,2.0,1391.7112000000477,358.0,,,,1395.2785,1395.7813999999762,1394.7759999999998,1395.278399999976,1392.7212000000477,1394.7758999999762,1395.7815,1396.264399999976,1396.2645,1398.8122000000476,2054.0,1398.8122000000476,5.0,1398.8126000000238,2.0,18.0,78.0,6.0,1.0,1.0,0.7,Time
,,S70,1,f,20,anonymized,Serial_Dependence_U,2023.2.3,Win32,60.240963855400565,,,,,,1398.813,119.0,2.0,1398.8132000000476,119.0,,,,1402.9722000000477,1403.4655,1402.4576000000238,1402.9722000000477,1399.8246000000238,1402.4573000000714,1403.4655,1403.9473000000714,1403.947399999976,1406.8252000000475,2438.0,1406.8252000000475,5.0,1406.8256000000238,2.0,19.0,79.0,19.0,1.0,1.6,0.7,Time
,,S70,1,f,20,anonymized,Serial_Dependence_U,2023.2.3,Win32,60.240963855400565,,,,,,1406.826100000024,148.0,2.0,1406.826399999976,148.0,,,,1410.6465,1411.1473000000717,1410.120899999976,1410.6463999999762,1407.8882000000476,1410.1207000000477,1411.1473999999762,1411.6472000000476,1411.6473000000717,1414.2472000000475,2267.0,1414.2473000000714,5.0,1414.2476000000238,2.0,20.0,80.0,7.0,1.0,1.2,0.7,Time
,,S70,1,f,20,anonymized,Serial_Dependence_U,2023.2.3,Win32,60.240963855400565,,,,,,1414.248,157.0,2.0,1414.2483000000714,157.0,,,,1417.6215,1418.1153000000716,1417.101899999976,1417.621399999976,1415.2213000000716,1417.1018000000715,1418.1153000000716,1418.6161000000238,1418.6162000000477,1419.947399999976,914.0,1419.9475,4.0,1419.9478000000715,2.0,21.0,81.0,0.0,1.0,0.8,0.3,Time
,,S70,1,f,20,anonymized,Serial_Dependence_U,2023.2.3,Win32,60.240963855400565,,,,,,1419.9483000000714,96.0,2.0,1419.9485,96.0,,,,1423.5159999999998,1424.0156000000238,1423.0092000000477,1423.515899999976,1420.9712000000477,1423.009,1424.0156000000238,1424.5313999999762,1424.5315,1426.656899999976,1652.0,1426.657,5.0,1426.6573999999762,2.0,22.0,82.0,16.0,1.0,1.0,0.7,Time
,,S70,1,f,20,anonymized,Serial_Dependence_U,2023.2.3,Win32,60.240963855400565,,,,,,1426.6578000000716,293.0,2.0,1426.6581000000238,293.0,,,,1430.6633000000716,1431.1655,1430.1363999999762,1430.6632000000477,1427.6652000000477,1430.1363000000715,1431.1655,1431.6653000000715,1431.6655,1434.571,2569.0,1434.571,5.0,1434.5713000000717,2.0,23.0,83.0,8.0,1.0,1.4,0.7,Time
,,S70,1,f,20,anonymized,Serial_Dependence_U,2023.2.3,Win32,60.240963855400565,,,,,,1434.5718000000716,156.0,2.0,1434.5721000000235,156.0,,,,1437.932,1438.416600000024,1437.4305,1437.932,1435.5873000000715,1437.4303000000714,1438.4167000000475,1438.9136000000235,1438.9137000000476,1440.7543000000717,1517.0,1440.7543999999762,5.0,1440.7547000000477,2.0,24.0,84.0,5.0,1.0,0.8,0.7,Time
,,S70,1,f,20,anonymized,Serial_Dependence_U,2023.2.3,Win32,60.240963855400565,,,,,,1440.7551000000235,44.0,2.0,1440.755399999976,44.0,,,,1444.7045,1445.198399999976,1444.19,1444.7043999999762,1441.7496000000235,1444.1898000000715,1445.198399999976,1445.6796000000238,1445.6796000000238,1448.037100000024,1979.0,1448.0372000000475,5.0,1448.037399999976,2.0,25.0,85.0,18.0,1.0,1.4,0.7,Time
,,S70,1,f,20,anonymized,Serial_Dependence_U,2023.2.3,Win32,60.240963855400565,,,,,,1448.038,345.0,2.0,1448.0382000000477,345.0,,,,1451.6298000000716,1452.133399999976,1451.1207000000477,1451.6298000000716,1449.053399999976,1451.1206000000238,1452.1335,1452.6293999999762,1452.629600000024,1453.087,56.0,1453.0872000000477,1.0,1453.0878000000714,2.0,26.0,86.0,21.0,1.0,1.0,0.3,Time
,,S70,1,f,20,anonymized,Serial_Dependence_U,2023.2.3,Win32,60.240963855400565,,,,,,1453.0888000000714,20.0,2.0,1453.0892000000476,20.0,,,,1457.2701000000238,1457.768100000024,1456.763600000024,1457.2701000000238,1454.0866000000235,1456.7633000000717,1457.768100000024,1458.2648000000715,1458.264899999976,1459.3375,278.0,1459.3376000000237,1.0,1459.337899999976,2.0,27.0,87.0,4.0,1.0,1.6,0.3,Time
,,S70,1,f,20,anonymized,Serial_Dependence_U,2023.2.3,Win32,60.240963855400565,,,,,,1459.3384999999998,280.0,2.0,1459.3386000000237,280.0,,,,1463.144100000024,1463.6461000000238,1462.6388000000716,1463.144,1460.363100000024,1462.6387000000475,1463.6462000000477,1464.1473000000717,1464.1473000000717,1464.6538000000714,160.0,1464.653899999976,1.0,1464.6542000000477,2.0,28.0,88.0,22.0,1.0,1.2,0.3,Time
,,S70,1,f,20,anonymized,Serial_Dependence_U,2023.2.3,Win32,60.240963855400565,,,,,,1464.654899999976,103.0,2.0,1464.6552000000477,103.0,,,,1468.6895,1469.1837000000476,1468.1536000000235,1468.689399999976,1465.6696000000238,1468.153399999976,1469.1838000000714,1469.678899999976,1469.678899999976,1470.1802000000475,71.0,1470.1803000000714,1.0,1470.1808000000717,2.0,29.0,89.0,3.0,1.0,1.4,0.3,Time
,,S70,1,f,20,anonymized,Serial_Dependence_U,2023.2.3,Win32,60.240963855400565,,,,,,1470.1813000000716,44.0,3.0,1580.9108999999762,44.0,s,110.70610000002377,,1585.067,1585.561,1584.5656000000238,1585.0668000000717,1581.9173000000717,1584.565399999976,1585.5611000000238,1586.053,1586.0531000000235,1588.8538999999762,2239.0,1588.854,5.0,1588.854399999976,3.0,0.0,90.0,29.0,1.0,1.6,0.7,Time
,,S70,1,f,20,anonymized,Serial_Dependence_U,2023.2.3,Win32,60.240963855400565,,,,,,1588.8547000000476,173.0,3.0,1588.8567000000476,173.0,,,,1592.216899999976,1592.709,1591.715,1592.2168000000715,1589.882399999976,1591.714899999976,1592.709,1593.1923000000716,1593.192399999976,1595.0265,1439.0,1595.0266000000238,5.0,1595.027100000024,3.0,1.0,91.0,15.0,1.0,0.8,0.7,Time
,,S70,1,f,20,anonymized,Serial_Dependence_U,2023.2.3,Win32,60.240963855400565,,,,,,1595.0276000000238,8.0,3.0,1595.0278999999762,8.0,,,,1598.4489999999998,1598.942100000024,1597.9476000000238,1598.4488999999762,1596.065,1597.9475,1598.942100000024,1599.4473000000714,1599.4473000000714,1600.9453999999762,67.0,1600.945600000024,1.0,1600.945899999976,3.0,2.0,92.0,10.0,1.0,0.8,0.3,Time
,,S70,1,f,20,anonymized,Serial_Dependence_U,2023.2.3,Win32,60.240963855400565,,,,,,1600.9463000000717,89.0,3.0,1600.9465,89.0,,,,1605.1603000000714,1605.6643000000715,1604.6487000000477,1605.1602000000476,1601.957899999976,1604.648600000024,1605.664399999976,1606.1602000000476,1606.1602000000476,1608.2116000000235,1601.0,1608.2117000000476,3.0,1608.2121000000238,3.0,3.0,93.0,4.0,1.0,1.6,0.3,Time
,,S70,1,f,20,anonymized,Serial_Dependence_U,2023.2.3,Win32,60.240963855400565,,,,,,1608.2125,254.0,3.0,1608.2127000000476,254.0,,,,1612.0096000000235,1612.4955,1611.492899999976,1612.009399999976,1609.2492000000475,1611.4928000000714,1612.4955,1612.998100000024,1612.9982000000475,1615.7253000000717,2066.0,1615.7253999999762,5.0,1615.7258000000716,3.0,4.0,94.0,17.0,1.0,1.2,0.7,Time
,,S70,1,f,20,anonymized,Serial_Dependence_U,2023.2.3,Win32,60.240963855400565,,,,,,1615.7263000000714,98.0,3.0,1615.7265,98.0,,,,1619.6983000000714,1620.1933000000715,1619.1817000000476,1619.6981000000235,1616.7187000000476,1619.1815,1620.1933000000715,1620.6751000000238,1620.6751000000238,1621.2661000000237,92.0,1621.2662000000475,1.0,1621.2665,3.0,5.0,95.0,23.0,1.0,1.4,0.3,Time
,,S70,1,f,20,anonymized,Serial_Dependence_U,2023.2.3,Win32,60.240963855400565,,,,,,1621.267,63.0,3.0,1621.2673000000714,63.0,,,,1624.8745,1625.3765,1624.369899999976,1624.874100000024,1622.2978000000714,1624.3698000000716,1625.3765,1625.8748000000714,1625.8748000000714,1626.4185,159.0,1626.4185,1.0,1626.418899999976,3.0,6.0,96.0,1.0,1.0,1.0,0.3,Time
,,S70,1,f,20,anonymized,Serial_Dependence_U,2023.2.3,Win32,60.240963855400565,,,,,,1626.4193000000714,100.0,3.0,1626.4197000000477,100.0,,,,1629.753899999976,1630.2437000000475,1629.252600000024,1629.7537000000475,1627.4018000000715,1629.2523999999762,1630.2437000000475,1630.7471000000237,1630.7471000000237,1633.3926000000238,2277.0,1633.3926000000238,5.0,1633.3928999999762,3.0,7.0,97.0,5.0,1.0,0.8,0.7,Time
,,S70,1,f,20,anonymized,Serial_Dependence_U,2023.2.3,Win32,60.240963855400565,,,,,,1633.393399999976,346.0,3.0,1633.3936000000238,346.0,,,,1637.337,1637.8245,1636.827399999976,1637.336899999976,1634.392399999976,1636.8273000000715,1637.8245,1638.318399999976,1638.3185,1641.5265,2410.0,1641.5266000000238,5.0,1641.5268999999762,3.0,8.0,98.0,8.0,1.0,1.4,0.7,Time
,,S70,1,f,20,anonymized,Serial_Dependence_U,2023.2.3,Win32,60.240963855400565,,,,,,1641.5275,171.0,3.0,1641.5277000000476,171.0,,,,1645.1022000000476,1645.5908000000716,1644.5858999999762,1645.1021000000237,1642.5318000000714,1644.5858000000717,1645.5908000000716,1646.0797000000475,1646.0797000000475,1649.6422000000475,2764.0,1649.6423000000714,5.0,1649.6426000000238,3.0,9.0,99.0,6.0,1.0,1.0,0.7,Time
,,S70,1,f,20,anonymized,Serial_Dependence_U,2023.2.3,Win32,60.240963855400565,,,,,,1649.6432000000475,206.0,3.0,1649.6435,206.0,,,,1653.3973999999762,1653.877600000024,1652.8852000000477,1653.3973000000717,1650.6452000000477,1652.885,1653.8777000000475,1654.3808000000715,1654.380899999976,1657.1303000000714,2057.0,1657.130399999976,5.0,1657.1308000000715,3.0,10.0,100.0,27.0,1.0,1.2,0.7,Time
,,S70,1,f,20,anonymized,Serial_Dependence_U,2023.2.3,Win32,60.240963855400565,,,,,,1657.1312000000476,61.0,3.0,1657.1315,61.0,,,,1660.543399999976,1661.0403000000715,1660.0188000000717,1660.543399999976,1658.1633000000716,1660.0186000000238,1661.0403000000715,1661.5276000000238,1661.5276000000238,1662.8407000000475,114.0,1662.8408000000716,1.0,1662.8412000000476,3.0,11.0,101.0,25.0,1.0,0.8,0.7,Time
,,S70,1,f,20,anonymized,Serial_Dependence_U,2023.2.3,Win32,60.240963855400565,,,,,,1662.8417000000477,355.0,3.0,1662.841899999976,355.0,,,,1666.4182000000476,1666.9147000000476,1665.9093000000714,1666.4181000000235,1663.8437000000476,1665.9091000000235,1666.9147000000476,1667.4417000000476,1667.4418999999762,1668.1691000000235,175.0,1668.1692000000476,1.0,1668.169399999976,3.0,12.0,102.0,21.0,1.0,1.0,0.3,Time
,,S70,1,f,20,anonymized,Serial_Dependence_U,2023.2.3,Win32,60.240963855400565,,,,,,1668.1698000000715,10.0,3.0,1668.1699999999998,10.0,,,,1671.959399999976,1672.4598000000717,1671.4473000000714,1671.9593000000714,1669.1822000000475,1671.4472000000476,1672.4598000000717,1672.9585,1672.9585,1675.9471000000235,2499.0,1675.9472000000476,5.0,1675.9476000000238,3.0,13.0,103.0,7.0,1.0,1.2,0.7,Time
,,S70,1,f,20,anonymized,Serial_Dependence_U,2023.2.3,Win32,60.240963855400565,,,,,,1675.948,300.0,3.0,1675.9482000000476,300.0,,,,1679.5132000000476,1680.0077000000476,1679.0011000000238,1679.513,1676.9675,1679.0008000000714,1680.0078000000717,1680.5252000000476,1680.5253000000714,1683.2461000000235,2115.0,1683.2461000000235,5.0,1683.2465,3.0,14.0,104.0,26.0,1.0,1.0,0.7,Time
,,S70,1,f,20,anonymized,Serial_Dependence_U,2023.2.3,Win32,60.240963855400565,,,,,,1683.2468000000715,99.0,3.0,1683.2469999999998,99.0,,,,1687.2403000000716,1687.7235,1686.7308000000714,1687.2402000000477,1684.245,1686.7307000000476,1687.7235,1688.2243999999762,1688.2243999999762,1688.7097000000476,141.0,1688.7098999999762,1.0,1688.7103000000716,3.0,15.0,105.0,3.0,1.0,1.4,0.3,Time
,,S70,1,f,20,anonymized,Serial_Dependence_U,2023.2.3,Win32,60.240963855400565,,,,,,1688.7107000000476,230.0,3.0,1688.7108999999762,230.0,,,,1692.1127000000477,1692.6415,1691.5743000000714,1692.1125,1689.7008000000717,1691.5742000000475,1692.6415,1693.1409999999998,1693.1409999999998,1693.6147000000476,1.0,1693.6148000000717,1.0,1693.615100000024,3.0,16.0,106.0,0.0,1.0,0.8,0.3,Time
,,S70,1,f,20,anonymized,Serial_Dependence_U,2023.2.3,Win32,60.240963855400565,,,,,,1693.6156000000235,331.0,3.0,1693.6157000000476,331.0,,,,1697.798399999976,1698.2777000000476,1697.2843000000714,1697.7983000000715,1694.645899999976,1697.2841000000235,1698.2777000000476,1698.7561000000237,1698.7562000000476,1701.481,2394.0,1701.4811000000238,5.0,1701.481399999976,3.0,17.0,107.0,9.0,1.0,1.6,0.7,Time
,,S70,1,f,20,anonymized,Serial_Dependence_U,2023.2.3,Win32,60.240963855400565,,,,,,1701.481899999976,99.0,3.0,1701.4821000000238,99.0,,,,1705.4505,1705.9451000000238,1704.9297000000477,1705.450399999976,1702.4956000000238,1704.9296000000238,1705.9452000000476,1706.4392000000475,1706.4392000000475,1709.7635,2838.0,1709.7635,5.0,1709.763899999976,3.0,18.0,108.0,28.0,1.0,1.4,0.7,Time
,,S70,1,f,20,anonymized,Serial_Dependence_U,2023.2.3,Win32,60.240963855400565,,,,,,1709.764399999976,226.0,3.0,1709.7646000000238,226.0,,,,1713.3905,1713.8911000000237,1712.880399999976,1713.390399999976,1710.778399999976,1712.8802000000476,1713.8911000000237,1714.388899999976,1714.389,1714.932899999976,116.0,1714.933,1.0,1714.9333000000715,3.0,19.0,109.0,11.0,1.0,1.0,0.3,Time
,,S70,1,f,20,anonymized,Serial_Dependence_U,2023.2.3,Win32,60.240963855400565,,,,,,1714.9337000000476,350.0,3.0,1714.933899999976,350.0,,,,1718.789899999976,1719.2908000000714,1718.2733000000717,1718.789899999976,1715.9906000000235,1718.2731000000238,1719.2908000000714,1719.7891000000238,1719.7892000000477,1720.3772000000477,122.0,1720.3772000000477,1.0,1720.377600000024,3.0,20.0,110.0,22.0,1.0,1.2,0.3,Time
,,S70,1,f,20,anonymized,Serial_Dependence_U,2023.2.3,Win32,60.240963855400565,,,,,,1720.3781000000238,76.0,3.0,1720.3782000000476,76.0,,,,1724.5858000000717,1725.077,1724.0688000000714,1724.5857000000476,1721.39,1724.0687000000476,1725.077,1725.5722000000476,1725.5722000000476,1726.0608000000714,79.0,1726.0611000000238,1.0,1726.0617000000475,3.0,21.0,111.0,14.0,1.0,1.6,0.3,Time
,,S70,1,f,20,anonymized,Serial_Dependence_U,2023.2.3,Win32,60.240963855400565,,,,,,1726.0625,216.0,3.0,1726.062899999976,216.0,,,,1729.622399999976,1730.1219999999998,1729.1188000000716,1729.6223000000714,1727.0772000000477,1729.1187000000475,1730.1219999999998,1730.6238000000717,1730.6238000000717,1732.8313000000717,1771.0,1732.831600000024,5.0,1732.832399999976,3.0,22.0,112.0,16.0,1.0,1.0,0.7,Time
,,S70,1,f,20,anonymized,Serial_Dependence_U,2023.2.3,Win32,60.240963855400565,,,,,,1732.8328000000715,90.0,3.0,1732.8331000000237,90.0,,,,1736.2292000000475,1736.725899999976,1735.7155,1736.229100000024,1733.8455,1735.7152000000476,1736.725899999976,1737.2218000000714,1737.221899999976,1738.0627000000477,302.0,1738.0628000000715,1.0,1738.0631000000235,3.0,23.0,113.0,20.0,1.0,0.8,0.3,Time
,,S70,1,f,20,anonymized,Serial_Dependence_U,2023.2.3,Win32,60.240963855400565,,,,,,1738.0637000000477,318.0,3.0,1738.063899999976,318.0,,,,1742.0541000000237,1742.5383000000716,1741.546,1742.0541000000237,1739.09,1741.5458000000715,1742.538399999976,1743.039399999976,1743.039399999976,1745.168899999976,1803.0,1745.169,4.0,1745.1693000000714,3.0,24.0,114.0,18.0,1.0,1.4,0.7,Time
,,S70,1,f,20,anonymized,Serial_Dependence_U,2023.2.3,Win32,60.240963855400565,,,,,,1745.1697000000477,307.0,3.0,1745.1699999999998,307.0,,,,1749.3718000000715,1749.8743000000716,1748.8395,1749.3717000000477,1746.1612000000475,1748.8393000000715,1749.8743000000716,1750.3727000000476,1750.3728000000715,1750.866399999976,120.0,1750.8665,1.0,1750.8668000000714,3.0,25.0,115.0,24.0,1.0,1.6,0.3,Time
,,S70,1,f,20,anonymized,Serial_Dependence_U,2023.2.3,Win32,60.240963855400565,,,,,,1750.8672000000477,295.0,3.0,1750.8673000000715,295.0,,,,1754.9955,1755.4945,1754.4821000000238,1754.9953000000714,1751.8477000000476,1754.481899999976,1755.4945,1755.993,1755.9931000000238,1758.3581000000238,2015.0,1758.3581000000238,4.0,1758.358600000024,3.0,26.0,116.0,19.0,1.0,1.6,0.7,Time
,,S70,1,f,20,anonymized,Serial_Dependence_U,2023.2.3,Win32,60.240963855400565,,,,,,1758.3591000000238,275.0,3.0,1758.359600000024,275.0,,,,1762.369,1762.8377000000476,1761.861,1762.368899999976,1759.378600000024,1761.861,1762.8377000000476,1763.3315,1763.3315,1763.7811000000238,103.0,1763.7812000000476,1.0,1763.7815,3.0,27.0,117.0,13.0,1.0,1.4,0.3,Time
,,S70,1,f,20,anonymized,Serial_Dependence_U,2023.2.3,Win32,60.240963855400565,,,,,,1763.782,193.0,3.0,1763.7822000000476,193.0,,,,1767.5965,1768.092399999976,1767.0797000000475,1767.596399999976,1764.805,1767.0795,1768.092399999976,1768.5707000000475,1768.5707000000475,1770.2231000000238,1195.0,1770.2232000000477,3.0,1770.2235,3.0,28.0,118.0,2.0,1.0,1.2,0.3,Time
,,S70,1,f,20,anonymized,Serial_Dependence_U,2023.2.3,Win32,60.240963855400565,,,,,,1770.224,90.0,3.0,1770.2243000000717,90.0,,,,1774.0148000000715,1774.4937000000475,1773.5052000000476,1774.0147000000477,1771.2265,1773.505,1774.4937000000475,1774.971,1774.971,1775.53,1.0,1775.5301000000238,1.0,1775.530399999976,3.0,29.0,119.0,12.0,1.0,1.2,0.3,Time
,,S70,1,f,20,anonymized,Serial_Dependence_U,2023.2.3,Win32,60.240963855400565,,,,,,1775.530899999976,134.0,4.0,1954.456,134.0,s,178.90360000002374,,1958.0505,1958.5325,1957.494,1958.0503000000715,1955.449,1957.493800000072,1958.5325,1959.035200000048,1959.0353000000716,1961.758,2177.0,1961.758100000024,5.0,1961.758399999976,4.0,0.0,120.0,6.0,1.0,1.0,0.7,Time
,,S70,1,f,20,anonymized,Serial_Dependence_U,2023.2.3,Win32,60.240963855400565,,,,,,1961.7588000000717,199.0,4.0,1961.760600000024,199.0,,,,1965.536700000048,1966.0505,1965.0228999999763,1965.536600000024,1962.7895,1965.022800000072,1966.0505,1966.554100000024,1966.554100000024,1969.358,2471.0,1969.358100000024,5.0,1969.358399999976,4.0,1.0,121.0,27.0,1.0,1.2,0.7,Time
,,S70,1,f,20,anonymized,Serial_Dependence_U,2023.2.3,Win32,60.240963855400565,,,,,,1969.358899999976,238.0,4.0,1969.359100000024,238.0,,,,1973.5403000000715,1974.033700000048,1973.008100000024,1973.540200000048,1970.3628000000715,1973.008,1974.033800000072,1974.5325,1974.532600000024,1977.529,2352.0,1977.529,5.0,1977.529399999976,4.0,2.0,122.0,29.0,1.0,1.6,0.7,Time
,,S70,1,f,20,anonymized,Serial_Dependence_U,2023.2.3,Win32,60.240963855400565,,,,,,1977.529700000048,49.0,4.0,1977.53,49.0,,,,1981.350100000024,1981.848600000024,1980.817700000048,1981.35,1978.5462000000475,1980.817600000024,1981.848600000024,1982.353,1982.353,1983.2058999999765,143.0,1983.2058999999765,1.0,1983.2065,4.0,3.0,123.0,22.0,1.0,1.2,0.3,Time
,,S70,1,f,20,anonymized,Serial_Dependence_U,2023.2.3,Win32,60.240963855400565,,,,,,1983.207100000024,142.0,4.0,1983.2073000000717,142.0,,,,1986.6365,1987.132,1986.132600000024,1986.636399999976,1984.259200000048,1986.1325,1987.132100000024,1987.614899999976,1987.614899999976,1988.325899999976,170.0,1988.325899999976,1.0,1988.3263999999765,4.0,4.0,124.0,0.0,1.0,0.8,0.3,Time
,,S70,1,f,20,anonymized,Serial_Dependence_U,2023.2.3,Win32,60.240963855400565,,,,,,1988.326800000072,102.0,4.0,1988.327,102.0,,,,1991.9043000000715,1992.3993000000717,1991.3883000000717,1991.904100000024,1989.340100000024,1991.3883000000717,1992.399399999976,1992.8813000000716,1992.8813000000716,1995.537899999976,2092.0,1995.538,5.0,1995.538700000048,4.0,5.0,125.0,26.0,1.0,1.0,0.7,Time
,,S70,1,f,20,anonymized,Serial_Dependence_U,2023.2.3,Win32,60.240963855400565,,,,,,1995.539100000024,174.0,4.0,1995.539399999976,174.0,,,,1999.5395,2000.033600000024,1999.0145,1999.539399999976,1996.5765,1999.014399999976,2000.033600000024,2000.531100000024,2000.531100000024,2003.4392000000475,2456.0,2003.4393000000716,5.0,2003.439700000048,4.0,6.0,126.0,18.0,1.0,1.4,0.7,Time
,,S70,1,f,20,anonymized,Serial_Dependence_U,2023.2.3,Win32,60.240963855400565,,,,,,2003.440100000024,223.0,4.0,2003.4403999999763,223.0,,,,2007.608100000024,2008.082399999976,2007.104600000024,2007.6078999999763,2004.4495,2007.1045,2008.082399999976,2008.5865,2008.5865,2011.660100000024,2722.0,2011.660200000048,5.0,2011.660399999976,4.0,7.0,127.0,19.0,1.0,1.6,0.7,Time
,,S70,1,f,20,anonymized,Serial_Dependence_U,2023.2.3,Win32,60.240963855400565,,,,,,2011.6608000000715,180.0,4.0,2011.661,180.0,,,,2015.481899999976,2015.9825,2014.9723000000715,2015.4818000000716,2012.6978000000715,2014.9722000000477,2015.982600000024,2016.4477000000477,2016.4477000000477,2019.3045,2557.0,2019.304600000024,5.0,2019.3053000000716,4.0,8.0,128.0,7.0,1.0,1.2,0.7,Time
,,S70,1,f,20,anonymized,Serial_Dependence_U,2023.2.3,Win32,60.240963855400565,,,,,,2019.3058000000717,271.0,4.0,2019.306,271.0,,,,2022.694600000024,2023.150600000024,2022.1878000000715,2022.6945,2020.3097000000475,2022.187600000024,2023.150600000024,2023.647200000048,2023.6473000000717,2024.837700000048,680.0,2024.837800000072,2.0,2024.838100000024,4.0,9.0,129.0,20.0,1.0,0.8,0.3,Time
,,S70,1,f,20,anonymized,Serial_Dependence_U,2023.2.3,Win32,60.240963855400565,,,,,,2024.838600000024,58.0,4.0,2024.8388000000716,58.0,,,,2028.4415,2028.930399999976,2027.9232000000477,2028.441399999976,2025.889300000072,2027.923,2028.930399999976,2029.414,2029.414,2031.791600000024,1893.0,2031.791600000024,5.0,2031.791899999976,4.0,10.0,130.0,16.0,1.0,1.0,0.7,Time
,,S70,1,f,20,anonymized,Serial_Dependence_U,2023.2.3,Win32,60.240963855400565,,,,,,2031.793100000024,241.0,4.0,2031.793300000072,241.0,,,,2036.029800000072,2036.530100000024,2035.5037000000475,2036.029600000024,2032.841600000024,2035.5035,2036.530100000024,2037.013600000024,2037.013700000048,2037.539100000024,146.0,2037.539100000024,1.0,2037.5395,4.0,11.0,131.0,24.0,1.0,1.6,0.3,Time
,,S70,1,f,20,anonymized,Serial_Dependence_U,2023.2.3,Win32,60.240963855400565,,,,,,2037.54,31.0,4.0,2037.540200000048,31.0,,,,2040.900200000048,2041.380100000024,2040.3935,2040.900100000024,2038.5483000000715,2040.3933999999765,2041.380100000024,2041.8635,2041.863700000048,2044.210700000048,1979.0,2044.210800000072,5.0,2044.2112000000477,4.0,12.0,132.0,25.0,1.0,0.8,0.7,Time
,,S70,1,f,20,anonymized,Serial_Dependence_U,2023.2.3,Win32,60.240963855400565,,,,,,2044.211700000048,307.0,4.0,2044.2118000000717,307.0,,,,2047.6043000000716,2048.133,2047.071399999976,2047.6042000000475,2045.236200000048,2047.071200000048,2048.133,2048.6323999999763,2048.6325,2050.8398999999763,1575.0,2050.840100000024,5.0,2050.8405,4.0,13.0,133.0,5.0,1.0,0.8,0.7,Time
,,S70,1,f,20,anonymized,Serial_Dependence_U,2023.2.3,Win32,60.240963855400565,,,,,,2050.841,137.0,4.0,2050.841200000048,137.0,,,,2054.7875,2055.281200000048,2054.278300000072,2054.787399999976,2051.834899999976,2054.278100000024,2055.2813000000715,2055.762899999976,2055.763,2058.2588000000715,2048.0,2058.2588000000715,5.0,2058.259200000048,4.0,14.0,134.0,28.0,1.0,1.4,0.7,Time
,,S70,1,f,20,anonymized,Serial_Dependence_U,2023.2.3,Win32,60.240963855400565,,,,,,2058.2595,134.0,4.0,2058.259800000072,134.0,,,,2062.0798000000714,2062.5835,2061.5743999999763,2062.0798000000714,2059.287300000072,2061.574200000048,2062.5835,2063.063399999976,2063.063399999976,2063.503300000072,100.0,2063.5035,1.0,2063.504,4.0,15.0,135.0,2.0,1.0,1.2,0.3,Time
,,S70,1,f,20,anonymized,Serial_Dependence_U,2023.2.3,Win32,60.240963855400565,,,,,,2063.504600000024,327.0,4.0,2063.5048999999763,327.0,,,,2066.908,2067.396100000024,2066.4023999999763,2066.908,2064.513800000072,2066.402300000072,2067.396100000024,2067.91,2067.91,2068.3578999999763,136.0,2068.3578999999763,1.0,2068.3582000000474,4.0,16.0,136.0,10.0,1.0,0.8,0.3,Time
,,S70,1,f,20,anonymized,Serial_Dependence_U,2023.2.3,Win32,60.240963855400565,,,,,,2068.3587000000475,246.0,4.0,2068.358800000072,246.0,,,,2071.7208000000714,2072.196,2071.219,2071.720700000048,2069.379700000048,2071.2188000000715,2072.196,2072.697600000024,2072.6977000000475,2074.8418000000715,1821.0,2074.8418000000715,5.0,2074.842300000072,4.0,17.0,137.0,15.0,1.0,0.8,0.7,Time
,,S70,1,f,20,anonymized,Serial_Dependence_U,2023.2.3,Win32,60.240963855400565,,,,,,2074.8427000000474,237.0,4.0,2074.842899999976,237.0,,,,2078.8297000000475,2079.3123000000714,2078.324,2078.8297000000475,2075.8368000000714,2078.3238000000715,2079.312399999976,2079.7998999999763,2079.7998999999763,2080.287,26.0,2080.287100000024,1.0,2080.2878000000715,4.0,18.0,138.0,13.0,1.0,1.4,0.3,Time
,,S70,1,f,20,anonymized,Serial_Dependence_U,2023.2.3,Win32,60.240963855400565,,,,,,2080.2883999999763,247.0,4.0,2080.288800000072,247.0,,,,2084.497100000024,2084.979300000072,2083.996,2084.497,2081.322300000072,2083.9958000000715,2084.979399999976,2085.462200000048,2085.4623000000715,2086.0955,109.0,2086.0955,1.0,2086.096100000024,4.0,19.0,139.0,4.0,1.0,1.6,0.3,Time
,,S70,1,f,20,anonymized,Serial_Dependence_U,2023.2.3,Win32,60.240963855400565,,,,,,2086.096600000024,69.0,4.0,2086.096800000072,69.0,,,,2090.090800000072,2090.5963999999763,2089.589,2090.0907000000475,2087.119300000072,2089.588899999976,2090.5965,2091.098,2091.098100000024,2091.6933000000718,212.0,2091.693399999976,1.0,2091.693700000048,4.0,20.0,140.0,3.0,1.0,1.4,0.3,Time
,,S70,1,f,20,anonymized,Serial_Dependence_U,2023.2.3,Win32,60.240963855400565,,,,,,2091.694,29.0,4.0,2091.694200000048,29.0,,,,2095.3697000000475,2095.8632000000475,2094.835800000072,2095.3697000000475,2092.761100000024,2094.835600000024,2095.8632000000475,2096.366100000024,2096.366100000024,2097.412399999976,275.0,2097.4125,1.0,2097.412899999976,4.0,21.0,141.0,1.0,1.0,1.0,0.3,Time
,,S70,1,f,20,anonymized,Serial_Dependence_U,2023.2.3,Win32,60.240963855400565,,,,,,2097.413600000024,38.0,4.0,2097.414,38.0,,,,2101.0518999999763,2101.5285,2100.520600000024,2101.051800000072,2098.437,2100.5205,2101.5285,2102.0118999999763,2102.0118999999763,2102.5208999999763,168.0,2102.5208999999763,1.0,2102.5213000000717,4.0,22.0,142.0,21.0,1.0,1.0,0.3,Time
,,S70,1,f,20,anonymized,Serial_Dependence_U,2023.2.3,Win32,60.240963855400565,,,,,,2102.521600000024,340.0,4.0,2102.522600000024,340.0,,,,2106.702700000048,2107.196200000048,2106.169100000024,2106.702600000024,2103.52,2106.168899999976,2107.196200000048,2107.661700000048,2107.6618000000717,2110.7908999999763,2800.0,2110.791,5.0,2110.791399999976,4.0,23.0,143.0,9.0,1.0,1.6,0.7,Time
,,S70,1,f,20,anonymized,Serial_Dependence_U,2023.2.3,Win32,60.240963855400565,,,,,,2110.792,306.0,4.0,2110.792100000024,306.0,,,,2114.411899999976,2114.9297000000474,2113.9025,2114.4118000000717,2111.8048000000717,2113.9023999999763,2114.9297000000474,2115.446700000048,2115.446700000048,2117.569100000024,1733.0,2117.569100000024,5.0,2117.5695,4.0,24.0,144.0,11.0,1.0,1.0,0.3,Time
,,S70,1,f,20,anonymized,Serial_Dependence_U,2023.2.3,Win32,60.240963855400565,,,,,,2117.5698999999763,124.0,4.0,2117.570100000024,124.0,,,,2121.626100000024,2122.128399999976,2121.1015,2121.625899999976,2118.625,2121.101399999976,2122.1285,2122.611899999976,2122.612,2123.109800000072,151.0,2123.1098999999763,1.0,2123.110200000048,4.0,25.0,145.0,23.0,1.0,1.4,0.3,Time
,,S70,1,f,20,anonymized,Serial_Dependence_U,2023.2.3,Win32,60.240963855400565,,,,,,2123.111,269.0,4.0,2123.1113000000714,269.0,,,,2127.087600000024,2127.577600000024,2126.572300000072,2127.0875,2124.116,2126.571800000072,2127.577600000024,2128.069399999976,2128.069399999976,2131.695600000024,3163.0,2131.6957000000475,5.0,2131.696,4.0,26.0,146.0,8.0,1.0,1.4,0.7,Time
,,S70,1,f,20,anonymized,Serial_Dependence_U,2023.2.3,Win32,60.240963855400565,,,,,,2131.6965,261.0,4.0,2131.696600000024,261.0,,,,2135.486399999976,2135.979100000024,2134.968,2135.486200000048,2132.737,2134.967899999976,2135.979100000024,2136.4655,2136.465600000024,2138.785600000024,1906.0,2138.785600000024,5.0,2138.786,4.0,27.0,147.0,17.0,1.0,1.2,0.7,Time
,,S70,1,f,20,anonymized,Serial_Dependence_U,2023.2.3,Win32,60.240963855400565,,,,,,2138.7863999999763,222.0,4.0,2138.786600000024,222.0,,,,2142.6008999999763,2143.1073000000715,2142.085,2142.600800000072,2139.7945,2142.0848000000715,2143.107399999976,2143.6123999999763,2143.6125,2144.119600000024,151.0,2144.119800000072,1.0,2144.1203000000714,4.0,28.0,148.0,12.0,1.0,1.2,0.3,Time
,,S70,1,f,20,anonymized,Serial_Dependence_U,2023.2.3,Win32,60.240963855400565,,,,,,2144.121100000024,151.0,4.0,2144.121399999976,151.0,,,,2148.3015,2148.777,2147.786600000024,2148.3013000000715,2145.1215,2147.7865,2148.777100000024,2149.2788000000714,2149.2788000000714,2151.535100000024,2047.0,2151.535100000024,4.0,2151.5355,4.0,29.0,149.0,14.0,1.0,1.6,0.3,Time
,,S70,1,f,20,anonymized,Serial_Dependence_U,2023.2.3,Win32,60.240963855400565,,,,,,2151.535899999976,37.0,5.0,2295.431300000072,37.0,s,143.87089999997625,,2299.002399999976,2299.508700000048,2298.492399999976,2299.0023000000715,2296.439899999976,2298.492100000024,2299.508700000048,2300.006399999976,2300.006399999976,2302.447,1902.0,2302.447100000024,5.0,2302.447600000024,5.0,0.0,150.0,16.0,1.0,1.0,0.7,Time
,,S70,1,f,20,anonymized,Serial_Dependence_U,2023.2.3,Win32,60.240963855400565,,,,,,2302.448100000024,257.0,5.0,2302.450100000024,257.0,,,,2306.208200000048,2306.713,2305.683600000024,2306.208,2303.449,2305.6835,2306.713100000024,2307.1895,2307.189600000024,2309.786100000024,2123.0,2309.786200000048,5.0,2309.786600000024,5.0,1.0,151.0,27.0,1.0,1.2,0.7,Time
,,S70,1,f,20,anonymized,Serial_Dependence_U,2023.2.3,Win32,60.240963855400565,,,,,,2309.786899999976,208.0,5.0,2309.7872000000475,208.0,,,,2313.137800000072,2313.6295,2312.6298999999763,2313.1377000000475,2310.7968000000715,2312.629600000024,2313.629600000024,2314.1225,2314.122600000024,2316.399700000048,1690.0,2316.3998000000715,5.0,2316.4008000000717,5.0,2.0,152.0,5.0,1.0,0.8,0.7,Time
,,S70,1,f,20,anonymized,Serial_Dependence_U,2023.2.3,Win32,60.240963855400565,,,,,,2316.401100000024,58.0,5.0,2316.4012000000475,58.0,,,,2319.799,2320.307399999976,2319.285600000024,2319.7988000000714,2317.4133999999763,2319.2855,2320.307399999976,2320.81,2320.810100000024,2321.294899999976,131.0,2321.295100000024,1.0,2321.295600000024,5.0,3.0,153.0,10.0,1.0,0.8,0.3,Time
,,S70,1,f,20,anonymized,Serial_Dependence_U,2023.2.3,Win32,60.240963855400565,,,,,,2321.2962000000475,79.0,5.0,2321.296399999976,79.0,,,,2325.456200000048,2325.941100000024,2324.945399999976,2325.456,2322.3045,2324.9453000000717,2325.9412000000475,2326.422300000072,2326.422300000072,2329.469600000024,2559.0,2329.469700000048,5.0,2329.47,5.0,4.0,154.0,9.0,1.0,1.6,0.7,Time
,,S70,1,f,20,anonymized,Serial_Dependence_U,2023.2.3,Win32,60.240963855400565,,,,,,2329.4705,135.0,5.0,2329.470700000048,135.0,,,,2333.432300000072,2333.9238000000714,2332.908100000024,2333.432100000024,2330.459399999976,2332.908100000024,2333.923899999976,2334.405399999976,2334.4055,2336.863899999976,2045.0,2336.864,5.0,2336.864300000072,5.0,5.0,155.0,8.0,1.0,1.4,0.7,Time
,,S70,1,f,20,anonymized,Serial_Dependence_U,2023.2.3,Win32,60.240963855400565,,,,,,2336.864700000048,86.0,5.0,2336.864899999976,86.0,,,,2340.653600000024,2341.138600000024,2340.139100000024,2340.6535,2337.881100000024,2340.139,2341.138600000024,2341.6388999999763,2341.6388999999763,2344.3798999999763,2422.0,2344.3798999999763,5.0,2344.380200000048,5.0,6.0,156.0,17.0,1.0,1.2,0.7,Time
,,S70,1,f,20,anonymized,Serial_Dependence_U,2023.2.3,Win32,60.240963855400565,,,,,,2344.380600000024,213.0,5.0,2344.3808000000718,213.0,,,,2348.5625,2349.0572000000475,2348.037300000072,2348.5625,2345.388700000048,2348.037100000024,2349.0572000000475,2349.556200000048,2349.556300000072,2352.883100000024,2812.0,2352.8832000000475,5.0,2352.883600000024,5.0,7.0,157.0,29.0,1.0,1.6,0.7,Time
,,S70,1,f,20,anonymized,Serial_Dependence_U,2023.2.3,Win32,60.240963855400565,,,,,,2352.883899999976,318.0,5.0,2352.884100000024,318.0,,,,2356.488899999976,2356.975,2355.9798000000715,2356.4888000000715,2353.882100000024,2355.979700000048,2356.975,2357.479899999976,2357.48,2358.1753000000717,161.0,2358.1753000000717,1.0,2358.175600000024,5.0,8.0,158.0,21.0,1.0,1.0,0.3,Time
,,S70,1,f,20,anonymized,Serial_Dependence_U,2023.2.3,Win32,60.240963855400565,,,,,,2358.176,288.0,5.0,2358.176200000048,288.0,,,,2361.517100000024,2362.039700000048,2361.0065,2361.516899999976,2359.162600000024,2361.0065,2362.039700000048,2362.526399999976,2362.5265,2364.895399999976,1816.0,2364.8955,5.0,2364.896,5.0,9.0,159.0,15.0,1.0,0.8,0.7,Time
,,S70,1,f,20,anonymized,Serial_Dependence_U,2023.2.3,Win32,60.240963855400565,,,,,,2364.8965,306.0,5.0,2364.8967000000475,306.0,,,,2368.4723000000718,2368.971200000048,2367.962899999976,2368.4723000000718,2365.907,2367.962700000048,2368.971200000048,2369.471200000048,2369.471300000072,2371.854899999976,2009.0,2371.855,5.0,2371.855300000072,5.0,10.0,160.0,6.0,1.0,1.0,0.7,Time
,,S70,1,f,20,anonymized,Serial_Dependence_U,2023.2.3,Win32,60.240963855400565,,,,,,2371.855899999976,97.0,5.0,2371.856100000024,97.0,,,,2375.8455,2376.3375,2375.3117000000475,2375.845399999976,2372.8373000000715,2375.311600000024,2376.337600000024,2376.839100000024,2376.839200000048,2380.193899999976,2798.0,2380.194,5.0,2380.194399999976,5.0,11.0,161.0,18.0,1.0,1.4,0.7,Time
,,S70,1,f,20,anonymized,Serial_Dependence_U,2023.2.3,Win32,60.240963855400565,,,,,,2380.1948999999763,103.0,5.0,2380.195100000024,103.0,,,,2384.004,2384.504399999976,2383.478100000024,2384.004,2381.212200000048,2383.478,2384.504399999976,2385.0228999999763,2385.0228999999763,2385.710700000048,44.0,2385.710700000048,1.0,2385.711100000024,5.0,12.0,162.0,12.0,1.0,1.2,0.3,Time
,,S70,1,f,20,anonymized,Serial_Dependence_U,2023.2.3,Win32,60.240963855400565,,,,,,2385.7115,60.0,5.0,2385.711700000048,60.0,,,,2389.160700000048,2389.6552000000474,2388.6425,2389.160700000048,2386.744300000072,2388.6423000000714,2389.6552000000474,2390.137399999976,2390.137399999976,2390.555600000024,44.0,2390.555700000048,1.0,2390.556,5.0,13.0,163.0,20.0,1.0,0.8,0.3,Time
,,S70,1,f,20,anonymized,Serial_Dependence_U,2023.2.3,Win32,60.240963855400565,,,,,,2390.5563999999763,308.0,5.0,2390.556600000024,308.0,,,,2394.5685,2395.072399999976,2394.060100000024,2394.5685,2391.571,2394.06,2395.072399999976,2395.561600000024,2395.561600000024,2396.087,133.0,2396.087200000048,1.0,2396.0875,5.0,14.0,164.0,23.0,1.0,1.4,0.3,Time
,,S70,1,f,20,anonymized,Serial_Dependence_U,2023.2.3,Win32,60.240963855400565,,,,,,2396.0882000000474,212.0,5.0,2396.088399999976,212.0,,,,2400.0788999999763,2400.574300000072,2399.5668000000715,2400.078800000072,2397.1305,2399.566600000024,2400.574300000072,2401.073600000024,2401.073700000048,2403.5302000000474,2212.0,2403.5303000000717,5.0,2403.5308000000714,5.0,15.0,165.0,28.0,1.0,1.4,0.7,Time
,,S70,1,f,20,anonymized,Serial_Dependence_U,2023.2.3,Win32,60.240963855400565,,,,,,2403.531399999976,101.0,5.0,2403.531700000048,101.0,,,,2406.960300000072,2407.436899999976,2406.427800000072,2406.960100000024,2404.554300000072,2406.427600000024,2407.436899999976,2407.941600000024,2407.941600000024,2408.529399999976,1.0,2408.529399999976,1.0,2408.529800000072,5.0,16.0,166.0,0.0,1.0,0.8,0.3,Time
,,S70,1,f,20,anonymized,Serial_Dependence_U,2023.2.3,Win32,60.240963855400565,,,,,,2408.5303000000717,263.0,5.0,2408.530399999976,263.0,,,,2412.554100000024,2413.0553000000714,2412.048,2412.553899999976,2409.5803000000715,2412.047700000048,2413.0553000000714,2413.553600000024,2413.553700000048,2414.532,96.0,2414.532100000024,1.0,2414.532399999976,5.0,17.0,167.0,13.0,1.0,1.4,0.3,Time
,,S70,1,f,20,anonymized,Serial_Dependence_U,2023.2.3,Win32,60.240963855400565,,,,,,2414.533,155.0,5.0,2414.5333000000714,155.0,,,,2418.371200000048,2418.853100000024,2417.843,2418.371100000024,2415.555,2417.843,2418.853100000024,2419.3425,2419.3425,2419.9775,266.0,2419.9775,1.0,2419.977899999976,5.0,18.0,168.0,2.0,1.0,1.2,0.3,Time
,,S70,1,f,20,anonymized,Serial_Dependence_U,2023.2.3,Win32,60.240963855400565,,,,,,2419.978300000072,317.0,5.0,2419.9785,317.0,,,,2423.5835,2424.086899999976,2423.0608999999763,2423.5833999999763,2420.989200000048,2423.060700000048,2424.086899999976,2424.570200000048,2424.570200000048,2425.170899999976,111.0,2425.170899999976,1.0,2425.171300000072,5.0,19.0,169.0,11.0,1.0,1.0,0.3,Time
,,S70,1,f,20,anonymized,Serial_Dependence_U,2023.2.3,Win32,60.240963855400565,,,,,,2425.171700000048,350.0,5.0,2425.171899999976,350.0,,,,2429.326600000024,2429.802899999976,2428.825100000024,2429.3265,2426.177800000072,2428.8248000000717,2429.802899999976,2430.302800000072,2430.302899999976,2430.960899999976,201.0,2430.960899999976,1.0,2430.961300000072,5.0,20.0,170.0,19.0,1.0,1.6,0.7,Time
,,S70,1,f,20,anonymized,Serial_Dependence_U,2023.2.3,Win32,60.240963855400565,,,,,,2430.961700000048,217.0,5.0,2430.9618000000714,217.0,,,,2435.194,2435.6878000000715,2434.671,2435.193899999976,2432.004800000072,2434.6708000000717,2435.6878999999763,2436.169399999976,2436.169399999976,2436.8485,227.0,2436.848600000024,1.0,2436.848800000072,5.0,21.0,171.0,24.0,1.0,1.6,0.3,Time
,,S70,1,f,20,anonymized,Serial_Dependence_U,2023.2.3,Win32,60.240963855400565,,,,,,2436.849200000048,168.0,5.0,2436.8493000000717,168.0,,,,2441.037300000072,2441.519100000024,2440.5345,2441.037300000072,2437.858,2440.534399999976,2441.519100000024,2442.0208999999763,2442.0208999999763,2443.142700000048,963.0,2443.1428000000715,1.0,2443.143100000024,5.0,22.0,172.0,14.0,1.0,1.6,0.3,Time
,,S70,1,f,20,anonymized,Serial_Dependence_U,2023.2.3,Win32,60.240963855400565,,,,,,2443.1435,192.0,5.0,2443.143700000048,192.0,,,,2447.008700000048,2447.5023000000715,2446.469300000072,2447.0085,2444.192800000072,2446.469200000048,2447.5023000000715,2448.006700000048,2448.006700000048,2449.5215,1147.0,2449.5217000000475,3.0,2449.521899999976,5.0,23.0,173.0,22.0,1.0,1.2,0.3,Time
,,S70,1,f,20,anonymized,Serial_Dependence_U,2023.2.3,Win32,60.240963855400565,,,,,,2449.522399999976,153.0,5.0,2449.522600000024,153.0,,,,2453.536899999976,2454.038300000072,2453.031100000024,2453.536700000048,2450.553600000024,2453.030899999976,2454.0383999999763,2454.539600000024,2454.539700000048,2455.029100000024,125.0,2455.029100000024,1.0,2455.029399999976,5.0,24.0,174.0,3.0,1.0,1.4,0.3,Time
,,S70,1,f,20,anonymized,Serial_Dependence_U,2023.2.3,Win32,60.240963855400565,,,,,,2455.029800000072,343.0,5.0,2455.029800000072,343.0,,,,2458.796399999976,2459.2853000000714,2458.275399999976,2458.796399999976,2456.0358000000715,2458.275300000072,2459.2853000000714,2459.790700000048,2459.790800000072,2462.5707000000475,2479.0,2462.5707000000475,5.0,2462.571100000024,5.0,25.0,175.0,7.0,1.0,1.2,0.7,Time
,,S70,1,f,20,anonymized,Serial_Dependence_U,2023.2.3,Win32,60.240963855400565,,,,,,2462.5715,180.0,5.0,2462.571600000024,180.0,,,,2466.2085,2466.685100000024,2465.676200000048,2466.2085,2463.579100000024,2465.676,2466.685100000024,2467.185200000048,2467.1853000000715,2468.5775,901.0,2468.577600000024,2.0,2468.577899999976,5.0,26.0,176.0,1.0,1.0,1.0,0.3,Time
,,S70,1,f,20,anonymized,Serial_Dependence_U,2023.2.3,Win32,60.240963855400565,,,,,,2468.578399999976,213.0,5.0,2468.5785,213.0,,,,2472.1753000000717,2472.67,2471.652700000048,2472.1752000000474,2469.608399999976,2471.6525,2472.67,2473.156700000048,2473.156700000048,2475.513399999976,1987.0,2475.5135,5.0,2475.5138999999763,5.0,27.0,177.0,26.0,1.0,1.0,0.7,Time
,,S70,1,f,20,anonymized,Serial_Dependence_U,2023.2.3,Win32,60.240963855400565,,,,,,2475.514300000072,204.0,5.0,2475.5145,204.0,,,,2478.86,2479.353600000024,2478.354300000072,2478.8598999999763,2476.5093999999763,2478.3542000000475,2479.353600000024,2479.8348000000715,2479.834899999976,2482.203,1875.0,2482.203100000024,5.0,2482.203399999976,5.0,28.0,178.0,25.0,1.0,0.8,0.7,Time
,,S70,1,f,20,anonymized,Serial_Dependence_U,2023.2.3,Win32,60.240963855400565,,,,,,2482.204,31.0,5.0,2482.2042000000474,31.0,,,,2486.413300000072,2486.902800000072,2485.9023999999763,2486.413200000048,2483.235100000024,2485.902100000024,2486.902899999976,2487.4012000000475,2487.4013000000714,2487.9257000000475,162.0,2487.9258000000714,1.0,2487.926100000024,5.0,29.0,179.0,4.0,1.0,1.6,0.3,Time
,,S70,1,f,20,anonymized,Serial_Dependence_U,2023.2.3,Win32,60.240963855400565,,,,,,2487.926600000024,167.0,6.0,2631.588399999976,167.0,s,143.63850000000002,,2635.0043000000715,2635.4972000000475,2634.471700000048,2635.004200000048,2632.587700000048,2634.471600000024,2635.4972000000475,2635.999600000024,2635.999700000048,2637.793200000048,1355.0,2637.793200000048,5.0,2637.7935,6.0,0.0,180.0,10.0,1.0,0.8,0.3,Time
,,S70,1,f,20,anonymized,Serial_Dependence_U,2023.2.3,Win32,60.240963855400565,,,,,,2637.793899999976,149.0,6.0,2637.7955,149.0,,,,2641.565200000048,2642.0653999999763,2641.063399999976,2641.565100000024,2638.8092000000474,2641.063,2642.0653999999763,2642.5645,2642.5645,2645.122,2004.0,2645.122100000024,5.0,2645.1225,6.0,1.0,181.0,27.0,1.0,1.2,0.7,Time
,,S70,1,f,20,anonymized,Serial_Dependence_U,2023.2.3,Win32,60.240963855400565,,,,,,2645.1228000000715,85.0,6.0,2645.123,85.0,,,,2648.5378000000715,2649.031600000024,2647.994100000024,2648.537700000048,2646.116200000048,2647.994,2649.031600000024,2649.5133000000715,2649.513399999976,2651.347100000024,1546.0,2651.3472000000475,5.0,2651.3475,6.0,2.0,182.0,0.0,1.0,0.8,0.3,Time
,,S70,1,f,20,anonymized,Serial_Dependence_U,2023.2.3,Win32,60.240963855400565,,,,,,2651.347899999976,60.0,6.0,2651.348200000048,60.0,,,,2654.9693999999763,2655.463399999976,2654.425899999976,2654.969300000072,2652.3473000000718,2654.4258000000714,2655.463399999976,2655.965300000072,2655.965300000072,2658.215200000048,2088.0,2658.215200000048,5.0,2658.2155,6.0,3.0,183.0,21.0,1.0,1.0,0.3,Time
,,S70,1,f,20,anonymized,Serial_Dependence_U,2023.2.3,Win32,60.240963855400565,,,,,,2658.216,158.0,6.0,2658.216200000048,158.0,,,,2662.0035,2662.4835,2661.4868000000715,2662.003399999976,2659.2373999999763,2661.486600000024,2662.4835,2662.963399999976,2662.9635,2665.654399999976,2283.0,2665.6545,5.0,2665.654800000072,6.0,4.0,184.0,7.0,1.0,1.2,0.7,Time
,,S70,1,f,20,anonymized,Serial_Dependence_U,2023.2.3,Win32,60.240963855400565,,,,,,2665.6553000000717,350.0,6.0,2665.6555,350.0,,,,2669.447100000024,2669.9485,2668.937399999976,2669.447,2666.6725,2668.9373000000714,2669.948600000024,2670.464600000024,2670.464700000048,2673.268,2537.0,2673.268,5.0,2673.2683999999763,6.0,5.0,185.0,17.0,1.0,1.2,0.7,Time
,,S70,1,f,20,anonymized,Serial_Dependence_U,2023.2.3,Win32,60.240963855400565,,,,,,2673.268700000048,85.0,6.0,2673.269,85.0,,,,2676.839800000072,2677.3483000000715,2676.324300000072,2676.839800000072,2674.253200000048,2676.324100000024,2677.3483000000715,2677.829399999976,2677.829399999976,2680.0082000000475,1902.0,2680.008300000072,5.0,2680.008700000048,6.0,6.0,186.0,26.0,1.0,1.0,0.7,Time
,,S70,1,f,20,anonymized,Serial_Dependence_U,2023.2.3,Win32,60.240963855400565,,,,,,2680.009100000024,204.0,6.0,2680.009300000072,204.0,,,,2683.604100000024,2684.0795,2683.091600000024,2683.603899999976,2681.0245,2683.091399999976,2684.079600000024,2684.580700000048,2684.580700000048,2685.336,253.0,2685.336100000024,1.0,2685.336399999976,6.0,7.0,187.0,11.0,1.0,1.0,0.3,Time
,,S70,1,f,20,anonymized,Serial_Dependence_U,2023.2.3,Win32,60.240963855400565,,,,,,2685.336899999976,274.0,6.0,2685.337100000024,274.0,,,,2688.738899999976,2689.247100000024,2688.2363000000714,2688.738899999976,2686.352399999976,2688.236200000048,2689.247100000024,2689.734100000024,2689.734100000024,2690.4212000000475,307.0,2690.421300000072,1.0,2690.421700000048,6.0,8.0,188.0,20.0,1.0,0.8,0.3,Time
,,S70,1,f,20,anonymized,Serial_Dependence_U,2023.2.3,Win32,60.240963855400565,,,,,,2690.422,332.0,6.0,2690.422200000048,332.0,,,,2694.623800000072,2695.1123999999763,2694.113600000024,2694.623600000024,2691.438,2694.113399999976,2695.1123999999763,2695.5955,2695.595600000024,2696.1365,212.0,2696.1365,1.0,2696.137,6.0,9.0,189.0,24.0,1.0,1.6,0.3,Time
,,S70,1,f,20,anonymized,Serial_Dependence_U,2023.2.3,Win32,60.240963855400565,,,,,,2696.1375,180.0,6.0,2696.137800000072,180.0,,,,2699.705399999976,2700.198600000024,2699.196,2699.705200000048,2697.1403000000714,2699.195899999976,2700.198600000024,2700.6955,2700.6955,2702.920600000024,1912.0,2702.9207000000474,5.0,2702.921,6.0,10.0,190.0,6.0,1.0,1.0,0.7,Time
,,S70,1,f,20,anonymized,Serial_Dependence_U,2023.2.3,Win32,60.240963855400565,,,,,,2702.921399999976,63.0,6.0,2702.921700000048,63.0,,,,2706.9125,2707.398100000024,2706.402700000048,2706.912399999976,2703.953200000048,2706.4025,2707.398100000024,2707.897399999976,2707.8975,2711.12,2795.0,2711.12,5.0,2711.120399999976,6.0,11.0,191.0,18.0,1.0,1.4,0.7,Time
,,S70,1,f,20,anonymized,Serial_Dependence_U,2023.2.3,Win32,60.240963855400565,,,,,,2711.1208000000715,69.0,6.0,2711.121,69.0,,,,2715.331300000072,2715.828399999976,2714.825600000024,2715.331200000048,2712.158200000048,2714.825399999976,2715.828399999976,2716.329899999976,2716.33,2716.802100000024,126.0,2716.802200000048,1.0,2716.802600000024,6.0,12.0,192.0,14.0,1.0,1.6,0.3,Time
,,S70,1,f,20,anonymized,Serial_Dependence_U,2023.2.3,Win32,60.240963855400565,,,,,,2716.802899999976,266.0,6.0,2716.803100000024,266.0,,,,2720.7885,2721.281,2720.268600000024,2720.7885,2717.802899999976,2720.2685,2721.281100000024,2721.764200000048,2721.764200000048,2722.5758000000715,125.0,2722.5758000000715,1.0,2722.5763999999763,6.0,13.0,193.0,13.0,1.0,1.4,0.3,Time
,,S70,1,f,20,anonymized,Serial_Dependence_U,2023.2.3,Win32,60.240963855400565,,,,,,2722.576800000072,260.0,6.0,2722.576899999976,260.0,,,,2726.5548000000717,2727.063,2726.0527000000475,2726.5547000000474,2723.5793000000717,2726.052600000024,2727.063100000024,2727.5638000000718,2727.5638000000718,2728.281700000048,134.0,2728.281800000072,1.0,2728.282399999976,6.0,14.0,194.0,23.0,1.0,1.4,0.3,Time
,,S70,1,f,20,anonymized,Serial_Dependence_U,2023.2.3,Win32,60.240963855400565,,,,,,2728.2827000000475,237.0,6.0,2728.282899999976,237.0,,,,2732.329899999976,2732.806300000072,2731.7458000000715,2732.3297000000475,2729.3055,2731.745700000048,2732.806300000072,2733.301399999976,2733.3015,2745.4365,2678.0,2745.4367000000475,5.0,2745.437,6.0,15.0,195.0,8.0,1.0,1.4,0.7,Time
,,S70,1,f,20,anonymized,Serial_Dependence_U,2023.2.3,Win32,60.240963855400565,,,,,,2745.4373000000714,62.0,6.0,2745.4375,62.0,,,,2749.4945,2749.977600000024,2748.9693999999763,2749.494399999976,2746.495200000048,2748.969300000072,2749.977600000024,2750.4825,2750.482600000024,2751.8125,863.0,2751.812600000024,1.0,2751.813,6.0,16.0,196.0,3.0,1.0,1.4,0.3,Time
,,S70,1,f,20,anonymized,Serial_Dependence_U,2023.2.3,Win32,60.240963855400565,,,,,,2751.8135,343.0,6.0,2751.8137000000474,343.0,,,,2755.6215,2756.110800000072,2755.100800000072,2755.621399999976,2752.8218999999763,2755.100600000024,2756.110800000072,2756.602200000048,2756.602200000048,2757.1577000000475,172.0,2757.157800000072,1.0,2757.158100000024,6.0,17.0,197.0,2.0,1.0,1.2,0.3,Time
,,S70,1,f,20,anonymized,Serial_Dependence_U,2023.2.3,Win32,60.240963855400565,,,,,,2757.1585,90.0,6.0,2757.158800000072,90.0,,,,2760.967200000048,2761.478100000024,2760.427600000024,2760.967100000024,2758.151600000024,2760.4275,2761.478100000024,2761.979399999976,2761.9795,2762.406399999976,109.0,2762.4065,1.0,2762.406800000072,6.0,18.0,198.0,12.0,1.0,1.2,0.3,Time
,,S70,1,f,20,anonymized,Serial_Dependence_U,2023.2.3,Win32,60.240963855400565,,,,,,2762.407200000048,112.0,6.0,2762.407399999976,112.0,,,,2766.1608000000715,2766.6615,2765.651399999976,2766.160700000048,2763.387600000024,2765.6512000000475,2766.6615,2767.163300000072,2767.163300000072,2767.743700000048,124.0,2767.743800000072,1.0,2767.744300000072,6.0,19.0,199.0,22.0,1.0,1.2,0.3,Time
,,S70,1,f,20,anonymized,Serial_Dependence_U,2023.2.3,Win32,60.240963855400565,,,,,,2767.7447000000475,71.0,6.0,2767.744899999976,71.0,,,,2771.916899999976,2772.394899999976,2771.403899999976,2771.916800000072,2768.758899999976,2771.4038000000714,2772.394899999976,2772.8935,2772.8935,2776.184,2870.0,2776.1842000000474,5.0,2776.184399999976,6.0,20.0,200.0,9.0,1.0,1.6,0.7,Time
,,S70,1,f,20,anonymized,Serial_Dependence_U,2023.2.3,Win32,60.240963855400565,,,,,,2776.185,210.0,6.0,2776.185200000048,210.0,,,,2779.564600000024,2780.059899999976,2779.0527000000475,2779.5645,2777.181600000024,2779.052600000024,2780.059899999976,2780.5615,2780.561600000024,2782.6825,1434.0,2782.682700000048,5.0,2782.683100000024,6.0,21.0,201.0,25.0,1.0,0.8,0.7,Time
,,S70,1,f,20,anonymized,Serial_Dependence_U,2023.2.3,Win32,60.240963855400565,,,,,,2782.683600000024,112.0,6.0,2782.683800000072,112.0,,,,2786.294200000048,2786.7953999999763,2785.767700000048,2786.294100000024,2783.694800000072,2785.767399999976,2786.7953999999763,2787.293100000024,2787.293100000024,2787.750600000024,114.0,2787.750700000048,1.0,2787.751,6.0,22.0,202.0,1.0,1.0,1.0,0.3,Time
,,S70,1,f,20,anonymized,Serial_Dependence_U,2023.2.3,Win32,60.240963855400565,,,,,,2787.751399999976,188.0,6.0,2787.751600000024,188.0,,,,2791.983399999976,2792.477899999976,2791.438600000024,2791.9833000000717,2788.7885,2791.438399999976,2792.478,2792.976200000048,2792.976300000072,2796.044100000024,2664.0,2796.044200000048,5.0,2796.0445,6.0,23.0,203.0,19.0,1.0,1.6,0.7,Time
,,S70,1,f,20,anonymized,Serial_Dependence_U,2023.2.3,Win32,60.240963855400565,,,,,,2796.045100000024,96.0,6.0,2796.045200000048,96.0,,,,2800.232800000072,2800.7268000000718,2799.710800000072,2800.232800000072,2797.067200000048,2799.710700000048,2800.7268000000718,2801.219,2801.219100000024,2804.134,2467.0,2804.134100000024,5.0,2804.1343999999763,6.0,24.0,204.0,29.0,1.0,1.6,0.7,Time
,,S70,1,f,20,anonymized,Serial_Dependence_U,2023.2.3,Win32,60.240963855400565,,,,,,2804.134800000072,109.0,6.0,2804.135,109.0,,,,2808.0823000000714,2808.559100000024,2807.5765,2808.082200000048,2805.134200000048,2807.5763999999763,2808.559100000024,2809.047100000024,2809.047200000048,2811.966600000024,2483.0,2811.966600000024,5.0,2811.967,6.0,25.0,205.0,28.0,1.0,1.4,0.7,Time
,,S70,1,f,20,anonymized,Serial_Dependence_U,2023.2.3,Win32,60.240963855400565,,,,,,2811.967300000072,148.0,6.0,2811.967600000024,148.0,,,,2816.198700000048,2816.675600000024,2815.6645,2816.1985,2812.981700000048,2815.6643000000718,2816.6757000000475,2817.1588999999763,2817.1588999999763,2817.708600000024,138.0,2817.7088000000717,1.0,2817.709399999976,6.0,26.0,206.0,4.0,1.0,1.6,0.3,Time
,,S70,1,f,20,anonymized,Serial_Dependence_U,2023.2.3,Win32,60.240963855400565,,,,,,2817.71,113.0,6.0,2817.710300000072,113.0,,,,2821.2625,2821.764200000048,2820.7495,2821.2623000000717,2818.709100000024,2820.749300000072,2821.764200000048,2822.258700000048,2822.258700000048,2824.538800000072,1922.0,2824.538800000072,5.0,2824.5392000000475,6.0,27.0,207.0,16.0,1.0,1.0,0.7,Time
,,S70,1,f,20,anonymized,Serial_Dependence_U,2023.2.3,Win32,60.240963855400565,,,,,,2824.539700000048,320.0,6.0,2824.539899999976,320.0,,,,2827.9335,2828.414399999976,2827.3923000000714,2827.9335,2825.551,2827.3922000000475,2828.4145,2828.9145,2828.9145,2831.5503000000717,1983.0,2831.5503000000717,5.0,2831.5507000000475,6.0,28.0,208.0,5.0,1.0,0.8,0.7,Time
,,S70,1,f,20,anonymized,Serial_Dependence_U,2023.2.3,Win32,60.240963855400565,,,,,,2831.551200000048,239.0,6.0,2831.551399999976,239.0,,,,2834.985,2835.477100000024,2834.4535,2834.984800000072,2832.598800000072,2834.453200000048,2835.477200000048,2835.978899999976,2835.978899999976,2838.2333000000717,1866.0,2838.233399999976,5.0,2838.233800000072,6.0,29.0,209.0,15.0,1.0,0.8,0.7,Time
,,S70,1,f,20,anonymized,Serial_Dependence_U,2023.2.3,Win32,60.240963855400565,,,,,,2838.234200000048,222.0,7.0,2962.1613999999763,222.0,s,123.9029999999998,,2965.941700000048,2966.438200000048,2965.4288000000715,2965.9415,2963.157200000048,2965.428700000048,2966.438200000048,2966.921700000048,2966.921700000048,2967.391100000024,59.0,2967.391100000024,1.0,2967.3915,7.0,0.0,210.0,12.0,1.0,1.2,0.3,Time
,,S70,1,f,20,anonymized,Serial_Dependence_U,2023.2.3,Win32,60.240963855400565,,,,,,2967.3918000000717,249.0,7.0,2967.393899999976,249.0,,,,2971.3868999999763,2971.871300000072,2970.8808000000718,2971.386800000072,2968.406800000072,2970.880600000024,2971.871300000072,2972.3725,2972.3725,2972.8452000000475,141.0,2972.8452000000475,1.0,2972.846,7.0,1.0,211.0,13.0,1.0,1.4,0.3,Time
,,S70,1,f,20,anonymized,Serial_Dependence_U,2023.2.3,Win32,60.240963855400565,,,,,,2972.8463999999763,255.0,7.0,2972.846700000048,255.0,,,,2977.0428999999763,2977.5212000000474,2976.5055,2977.0428999999763,2973.8635,2976.505300000072,2977.5213000000717,2978.024,2978.024,2980.412600000024,2005.0,2980.412700000048,4.0,2980.413100000024,7.0,2.0,212.0,19.0,1.0,1.6,0.7,Time
,,S70,1,f,20,anonymized,Serial_Dependence_U,2023.2.3,Win32,60.240963855400565,,,,,,2980.413600000024,309.0,7.0,2980.413800000072,309.0,,,,2984.221800000072,2984.723,2983.705,2984.221600000024,2981.4433000000718,2983.704899999976,2984.723,2985.2045,2985.204600000024,2986.017,126.0,2986.017100000024,1.0,2986.017399999976,7.0,3.0,213.0,22.0,1.0,1.2,0.3,Time
,,S70,1,f,20,anonymized,Serial_Dependence_U,2023.2.3,Win32,60.240963855400565,,,,,,2986.017899999976,300.0,7.0,2986.018100000024,300.0,,,,2989.813399999976,2990.3272000000475,2989.311399999976,2989.813300000072,2987.021399999976,2989.311300000072,2990.3272000000475,2990.823,2990.823,2993.0485,1919.0,2993.048600000024,5.0,2993.049,7.0,4.0,214.0,2.0,1.0,1.2,0.3,Time
,,S70,1,f,20,anonymized,Serial_Dependence_U,2023.2.3,Win32,60.240963855400565,,,,,,2993.0493000000715,59.0,7.0,2993.0495,59.0,,,,2997.027899999976,2997.525399999976,2996.4945,2997.027700000048,2994.033100000024,2996.494300000072,2997.525399999976,2998.021399999976,2998.0215,2998.714200000048,304.0,2998.714200000048,1.0,2998.714700000048,7.0,5.0,215.0,23.0,1.0,1.4,0.3,Time
,,S70,1,f,20,anonymized,Serial_Dependence_U,2023.2.3,Win32,60.240963855400565,,,,,,2998.715300000072,140.0,7.0,2998.715600000024,140.0,,,,3002.6715,3003.1705,3002.155399999976,3002.6715,2999.721,3002.1553000000717,3003.1705,3003.672899999976,3003.673,3006.899399999976,2779.0,3006.8995,5.0,3006.8998000000715,7.0,6.0,216.0,18.0,1.0,1.4,0.7,Time
,,S70,1,f,20,anonymized,Serial_Dependence_U,2023.2.3,Win32,60.240963855400565,,,,,,3006.900300000072,358.0,7.0,3006.9005,358.0,,,,3010.277800000072,3010.771,3009.768,3010.277700000048,3007.9065,3009.767899999976,3010.771,3011.2713000000717,3011.2713000000717,3012.3675,820.0,3012.3675,3.0,3012.367899999976,7.0,7.0,217.0,10.0,1.0,0.8,0.3,Time
,,S70,1,f,20,anonymized,Serial_Dependence_U,2023.2.3,Win32,60.240963855400565,,,,,,3012.3683000000715,103.0,7.0,3012.368399999976,103.0,,,,3015.713899999976,3016.220700000048,3015.209600000024,3015.713899999976,3013.369399999976,3015.209399999976,3016.2208000000714,3016.716899999976,3016.716899999976,3018.910899999976,1822.0,3018.911,5.0,3018.9113999999763,7.0,8.0,218.0,5.0,1.0,0.8,0.7,Time
,,S70,1,f,20,anonymized,Serial_Dependence_U,2023.2.3,Win32,60.240963855400565,,,,,,3018.9118000000717,78.0,7.0,3018.912,78.0,,,,3022.5218000000714,3023.0203000000715,3022.010399999976,3022.5217000000475,3019.936800000072,3022.0103000000718,3023.0203000000715,3023.520600000024,3023.520600000024,3025.1353000000718,1350.0,3025.135399999976,5.0,3025.135700000048,7.0,9.0,219.0,11.0,1.0,1.0,0.3,Time
,,S70,1,f,20,anonymized,Serial_Dependence_U,2023.2.3,Win32,60.240963855400565,,,,,,3025.136200000048,70.0,7.0,3025.1365,70.0,,,,3029.337100000024,3029.840300000072,3028.8353999999763,3029.337100000024,3026.154600000024,3028.835200000048,3029.840300000072,3030.337,3030.337100000024,3032.151,1383.0,3032.151100000024,2.0,3032.151399999976,7.0,10.0,220.0,24.0,1.0,1.6,0.3,Time
,,S70,1,f,20,anonymized,Serial_Dependence_U,2023.2.3,Win32,60.240963855400565,,,,,,3032.151899999976,172.0,7.0,3032.152,172.0,,,,3035.5435,3036.038700000048,3035.018899999976,3035.543399999976,3033.154700000048,3035.018700000048,3036.038700000048,3036.5363999999763,3036.5363999999763,3038.801100000024,1790.0,3038.801200000048,5.0,3038.801600000024,7.0,11.0,221.0,15.0,1.0,0.8,0.7,Time
,,S70,1,f,20,anonymized,Serial_Dependence_U,2023.2.3,Win32,60.240963855400565,,,,,,3038.802200000048,296.0,7.0,3038.802600000024,296.0,,,,3042.424600000024,3042.903,3041.899899999976,3042.4245,3039.826800000072,3041.899700000048,3042.903,3043.385899999976,3043.386100000024,3044.776899999976,1109.0,3044.777,4.0,3044.777300000072,7.0,12.0,222.0,21.0,1.0,1.0,0.3,Time
,,S70,1,f,20,anonymized,Serial_Dependence_U,2023.2.3,Win32,60.240963855400565,,,,,,3044.777800000072,114.0,7.0,3044.777899999976,114.0,,,,3048.527100000024,3049.003100000024,3048.020200000048,3048.526899999976,3045.786700000048,3048.020100000024,3049.003100000024,3049.503800000072,3049.503899999976,3052.116899999976,2190.0,3052.117,5.0,3052.1173000000717,7.0,13.0,223.0,27.0,1.0,1.2,0.7,Time
,,S70,1,f,20,anonymized,Serial_Dependence_U,2023.2.3,Win32,60.240963855400565,,,,,,3052.1178000000714,187.0,7.0,3052.117899999976,187.0,,,,3055.737100000024,3056.243399999976,3055.230300000072,3055.737100000024,3053.1605,3055.230200000048,3056.243399999976,3056.736,3056.736100000024,3060.035600000024,2576.0,3060.035600000024,5.0,3060.035899999976,7.0,14.0,224.0,1.0,1.0,1.0,0.3,Time
,,S70,1,f,20,anonymized,Serial_Dependence_U,2023.2.3,Win32,60.240963855400565,,,,,,3060.0363999999763,85.0,7.0,3060.036600000024,85.0,,,,3063.965,3064.470700000048,3063.453200000048,3063.9648999999763,3061.013700000048,3063.453,3064.470700000048,3064.9702000000475,3064.970399999976,3067.966,2643.0,3067.966100000024,5.0,3067.966399999976,7.0,15.0,225.0,28.0,1.0,1.4,0.7,Time
,,S70,1,f,20,anonymized,Serial_Dependence_U,2023.2.3,Win32,60.240963855400565,,,,,,3067.966700000048,331.0,7.0,3067.967,331.0,,,,3071.3337000000474,3071.8355,3070.816600000024,3071.333600000024,3068.951899999976,3070.816399999976,3071.8355,3072.318600000024,3072.318600000024,3073.813600000024,887.0,3073.813600000024,4.0,3073.814,7.0,16.0,226.0,20.0,1.0,0.8,0.3,Time
,,S70,1,f,20,anonymized,Serial_Dependence_U,2023.2.3,Win32,60.240963855400565,,,,,,3073.814399999976,268.0,7.0,3073.814600000024,268.0,,,,3077.444700000048,3077.952899999976,3076.9438000000714,3077.444600000024,3074.865,3076.943700000048,3077.952899999976,3078.454,3078.454,3080.731899999976,2072.0,3080.732,5.0,3080.732399999976,7.0,17.0,227.0,6.0,1.0,1.0,0.7,Time
,,S70,1,f,20,anonymized,Serial_Dependence_U,2023.2.3,Win32,60.240963855400565,,,,,,3080.7328999999763,167.0,7.0,3080.7332000000474,167.0,,,,3084.9592000000475,3085.470100000024,3084.428100000024,3084.959100000024,3081.728,3084.428,3085.470100000024,3085.9612000000475,3085.961300000072,3088.002600000024,1463.0,3088.002700000048,2.0,3088.003100000024,7.0,18.0,228.0,14.0,1.0,1.6,0.3,Time
,,S70,1,f,20,anonymized,Serial_Dependence_U,2023.2.3,Win32,60.240963855400565,,,,,,3088.003800000072,357.0,7.0,3088.004,357.0,,,,3092.224899999976,3092.720100000024,3091.700600000024,3092.224899999976,3089.018600000024,3091.700399999976,3092.720100000024,3093.210200000048,3093.210300000072,3095.625899999976,1906.0,3095.626,4.0,3095.626399999976,7.0,19.0,229.0,4.0,1.0,1.6,0.3,Time
,,S70,1,f,20,anonymized,Serial_Dependence_U,2023.2.3,Win32,60.240963855400565,,,,,,3095.6268000000714,227.0,7.0,3095.627,227.0,,,,3098.984700000048,3099.470899999976,3098.458899999976,3098.984700000048,3096.6253000000715,3098.4588000000717,3099.470899999976,3099.980800000072,3099.980899999976,3102.571700000048,2213.0,3102.571800000072,5.0,3102.572200000048,7.0,20.0,230.0,25.0,1.0,0.8,0.7,Time
,,S70,1,f,20,anonymized,Serial_Dependence_U,2023.2.3,Win32,60.240963855400565,,,,,,3102.5725,218.0,7.0,3102.5727000000475,218.0,,,,3105.9522000000475,3106.437200000048,3105.451,3105.952100000024,3103.575700000048,3105.450899999976,3106.437200000048,3106.940700000048,3106.940800000072,3107.275300000072,262.0,3107.275399999976,1.0,3107.2757000000474,7.0,21.0,231.0,0.0,1.0,0.8,0.3,Time
,,S70,1,f,20,anonymized,Serial_Dependence_U,2023.2.3,Win32,60.240963855400565,,,,,,3107.2762000000475,224.0,7.0,3107.276399999976,224.0,,,,3111.443399999976,3111.952600000024,3110.927800000072,3111.4433000000718,3108.2893000000718,3110.9277000000475,3111.952700000048,3112.4525,3112.4525,3115.9255,2984.0,3115.925600000024,5.0,3115.926,7.0,22.0,232.0,29.0,1.0,1.6,0.7,Time
,,S70,1,f,20,anonymized,Serial_Dependence_U,2023.2.3,Win32,60.240963855400565,,,,,,3115.926399999976,27.0,7.0,3115.9265,27.0,,,,3119.702,3120.2005,3119.190899999976,3119.701899999976,3116.9418000000715,3119.190800000072,3120.2005,3120.7053000000715,3120.7053000000715,3123.7288000000717,2729.0,3123.728899999976,5.0,3123.729300000072,7.0,23.0,233.0,17.0,1.0,1.2,0.7,Time
,,S70,1,f,20,anonymized,Serial_Dependence_U,2023.2.3,Win32,60.240963855400565,,,,,,3123.729700000048,112.0,7.0,3123.73,112.0,,,,3127.292,3127.786100000024,3126.7518000000714,3127.292,3124.696,3126.751600000024,3127.786200000048,3128.282300000072,3128.282399999976,3130.853100000024,2233.0,3130.853200000048,5.0,3130.853600000024,7.0,24.0,234.0,26.0,1.0,1.0,0.7,Time
,,S70,1,f,20,anonymized,Serial_Dependence_U,2023.2.3,Win32,60.240963855400565,,,,,,3130.854,180.0,7.0,3130.854100000024,180.0,,,,3134.444800000072,3134.9345,3133.9288000000715,3134.444600000024,3131.874,3133.928600000024,3134.9347000000475,3135.433600000024,3135.433600000024,3137.8753000000715,2116.0,3137.8753999999763,5.0,3137.875700000048,7.0,25.0,235.0,16.0,1.0,1.0,0.7,Time
,,S70,1,f,20,anonymized,Serial_Dependence_U,2023.2.3,Win32,60.240963855400565,,,,,,3137.8762000000474,132.0,7.0,3137.8763000000718,132.0,,,,3141.879200000048,3142.3753999999763,3141.3745,3141.879100000024,3138.882300000072,3141.374399999976,3142.3753999999763,3142.850600000024,3142.850600000024,3143.317100000024,69.0,3143.317200000048,1.0,3143.3175,7.0,26.0,236.0,3.0,1.0,1.4,0.3,Time
,,S70,1,f,20,anonymized,Serial_Dependence_U,2023.2.3,Win32,60.240963855400565,,,,,,3143.317899999976,122.0,7.0,3143.3182000000475,122.0,,,,3147.0735,3147.568100000024,3146.564600000024,3147.0733000000714,3144.293200000048,3146.5645,3147.5682000000475,3148.0683000000718,3148.068399999976,3151.844,2686.0,3151.844100000024,5.0,3151.8445,7.0,27.0,237.0,7.0,1.0,1.2,0.7,Time
,,S70,1,f,20,anonymized,Serial_Dependence_U,2023.2.3,Win32,60.240963855400565,,,,,,3151.844899999976,75.0,7.0,3151.845100000024,75.0,,,,3156.034,3156.516300000072,3155.509300000072,3156.033800000072,3152.860399999976,3155.509100000024,3156.516300000072,3157.004100000024,3157.004100000024,3160.418,3144.0,3160.418100000024,5.0,3160.4185,7.0,28.0,238.0,9.0,1.0,1.6,0.7,Time
,,S70,1,f,20,anonymized,Serial_Dependence_U,2023.2.3,Win32,60.240963855400565,,,,,,3160.418899999976,254.0,7.0,3160.419100000024,254.0,,,,3164.3843999999763,3164.887600000024,3163.855800000072,3164.384300000072,3161.4053000000717,3163.855700000048,3164.887600000024,3165.389,3165.389,3168.190200000048,2292.0,3168.190300000072,5.0,3168.190700000048,7.0,29.0,239.0,8.0,1.0,1.4,0.7,Time
,,S70,1,f,20,anonymized,Serial_Dependence_U,2023.2.3,Win32,60.240963855400565,,,,,,3168.191100000024,73.0,8.0,3170.889899999976,73.0,s,2.674399999976231,,3175.124399999976,3175.634600000024,3174.6003000000715,3175.1242000000475,3171.9013000000714,3174.600100000024,3175.634700000048,3176.134100000024,3176.134100000024,3178.4605,1888.0,3178.460600000024,4.0,3178.460899999976,8.0,0.0,240.0,4.0,1.0,1.6,0.3,Time
,,S70,1,f,20,anonymized,Serial_Dependence_U,2023.2.3,Win32,60.240963855400565,,,,,,3178.461399999976,211.0,8.0,3178.4632000000474,211.0,,,,3182.672800000072,3183.1712000000475,3182.139100000024,3182.672600000024,3179.466399999976,3182.1388999999763,3183.1712000000475,3183.667200000048,3183.6673000000715,3183.95,26.0,3183.9502000000475,1.0,3183.9505,8.0,1.0,241.0,24.0,1.0,1.6,0.3,Time
,,S70,1,f,20,anonymized,Serial_Dependence_U,2023.2.3,Win32,60.240963855400565,,,,,,3183.951100000024,114.0,8.0,3183.951200000048,114.0,,,,3187.331,3187.8155,3186.816300000072,3187.3308999999763,3184.985100000024,3186.816100000024,3187.815600000024,3188.3155,3188.315600000024,3190.903399999976,2152.0,3190.903399999976,5.0,3190.903700000048,8.0,2.0,242.0,5.0,1.0,0.8,0.7,Time
,,S70,1,f,20,anonymized,Serial_Dependence_U,2023.2.3,Win32,60.240963855400565,,,,,,3190.904,352.0,8.0,3190.904200000048,352.0,,,,3194.507600000024,3195.009700000048,3194.006399999976,3194.5075,3191.9248999999763,3194.0063000000714,3195.009700000048,3195.500899999976,3195.501,3197.2402000000475,1272.0,3197.240300000072,4.0,3197.2408000000714,8.0,3.0,243.0,1.0,1.0,1.0,0.3,Time
,,S70,1,f,20,anonymized,Serial_Dependence_U,2023.2.3,Win32,60.240963855400565,,,,,,3197.241200000048,221.0,8.0,3197.2413000000715,221.0,,,,3201.4558999999763,3201.9675,3200.9215,3201.455700000048,3198.2883999999763,3200.921399999976,3201.967600000024,3202.448399999976,3202.4485,3206.3263999999763,2563.0,3206.3265,5.0,3206.326800000072,8.0,4.0,244.0,19.0,1.0,1.6,0.7,Time
,,S70,1,f,20,anonymized,Serial_Dependence_U,2023.2.3,Win32,60.240963855400565,,,,,,3206.327300000072,174.0,8.0,3206.3275,174.0,,,,3210.059600000024,3210.553,3209.549,3210.059600000024,3207.2998999999763,3209.548899999976,3210.553100000024,3211.049600000024,3211.049700000048,3213.783100000024,2263.0,3213.783200000048,5.0,3213.783600000024,8.0,5.0,245.0,27.0,1.0,1.2,0.7,Time
,,S70,1,f,20,anonymized,Serial_Dependence_U,2023.2.3,Win32,60.240963855400565,,,,,,3213.7838999999763,138.0,8.0,3213.784200000048,138.0,,,,3217.379399999976,3217.8565,3216.865899999976,3217.3793000000715,3214.8175,3216.8658000000714,3217.856600000024,3218.348,3218.348,3220.748899999976,2079.0,3220.749,5.0,3220.749399999976,8.0,6.0,246.0,16.0,1.0,1.0,0.7,Time
,,S70,1,f,20,anonymized,Serial_Dependence_U,2023.2.3,Win32,60.240963855400565,,,,,,3220.7498000000714,58.0,8.0,3220.750100000024,58.0,,,,3224.4012000000475,3224.8978999999763,3223.874899999976,3224.4008000000717,3221.788200000048,3223.8748000000714,3224.8978999999763,3225.3873000000717,3225.387399999976,3225.9497000000474,116.0,3225.9498000000717,1.0,3225.950300000072,8.0,7.0,247.0,11.0,1.0,1.0,0.3,Time
,,S70,1,f,20,anonymized,Serial_Dependence_U,2023.2.3,Win32,60.240963855400565,,,,,,3225.950899999976,332.0,8.0,3225.951200000048,332.0,,,,3229.7528999999763,3230.230800000072,3229.236399999976,3229.752800000072,3226.966,3229.2363000000714,3230.230899999976,3230.7238999999763,3230.7238999999763,3231.205100000024,83.0,3231.205200000048,1.0,3231.205800000072,8.0,8.0,248.0,22.0,1.0,1.2,0.3,Time
,,S70,1,f,20,anonymized,Serial_Dependence_U,2023.2.3,Win32,60.240963855400565,,,,,,3231.206200000048,213.0,8.0,3231.206300000072,213.0,,,,3235.3958999999763,3235.8808000000718,3234.888200000048,3235.395800000072,3232.23,3234.888,3235.880899999976,3236.3807000000475,3236.3807000000475,3239.829600000024,3113.0,3239.8297000000475,5.0,3239.830100000024,8.0,9.0,249.0,29.0,1.0,1.6,0.7,Time
,,S70,1,f,20,anonymized,Serial_Dependence_U,2023.2.3,Win32,60.240963855400565,,,,,,3239.8308999999763,269.0,8.0,3239.831200000048,269.0,,,,3243.1678999999763,3243.6473000000715,3242.637899999976,3243.167800000072,3240.8055,3242.637800000072,3243.647399999976,3244.147100000024,3244.147200000048,3246.840600000024,2229.0,3246.8407000000475,5.0,3246.841,8.0,10.0,250.0,15.0,1.0,0.8,0.7,Time
,,S70,1,f,20,anonymized,Serial_Dependence_U,2023.2.3,Win32,60.240963855400565,,,,,,3246.8415,84.0,8.0,3246.841700000048,84.0,,,,3250.7288000000717,3251.214,3250.204100000024,3250.7287000000474,3247.9025,3250.2038999999763,3251.214,3251.7137000000475,3251.7137000000475,3252.154399999976,83.0,3252.1545,1.0,3252.155,8.0,11.0,251.0,12.0,1.0,1.2,0.3,Time
,,S70,1,f,20,anonymized,Serial_Dependence_U,2023.2.3,Win32,60.240963855400565,,,,,,3252.155600000024,334.0,8.0,3252.155899999976,334.0,,,,3256.1197000000475,3256.624100000024,3255.6145,3256.1195,3253.177899999976,3255.614300000072,3256.624100000024,3257.132,3257.132100000024,3259.8305,2219.0,3259.830600000024,5.0,3259.8308999999763,8.0,12.0,252.0,8.0,1.0,1.4,0.7,Time
,,S70,1,f,20,anonymized,Serial_Dependence_U,2023.2.3,Win32,60.240963855400565,,,,,,3259.831300000072,283.0,8.0,3259.831600000024,283.0,,,,3263.788100000024,3264.282399999976,3263.2813000000715,3263.788100000024,3260.836700000048,3263.281100000024,3264.2825,3264.748800000072,3264.748899999976,3267.771399999976,2547.0,3267.7715,5.0,3267.772,8.0,13.0,253.0,28.0,1.0,1.4,0.7,Time
,,S70,1,f,20,anonymized,Serial_Dependence_U,2023.2.3,Win32,60.240963855400565,,,,,,3267.772399999976,179.0,8.0,3267.772600000024,179.0,,,,3271.973600000024,3272.466200000048,3271.470100000024,3271.973399999976,3268.789600000024,3271.47,3272.466200000048,3272.9465,3272.946600000024,3273.4805,205.0,3273.480600000024,1.0,3273.481,8.0,14.0,254.0,14.0,1.0,1.6,0.3,Time
,,S70,1,f,20,anonymized,Serial_Dependence_U,2023.2.3,Win32,60.240963855400565,,,,,,3273.481399999976,195.0,8.0,3273.481600000024,195.0,,,,3277.096600000024,3277.5803000000715,3276.559899999976,3277.0965,3274.481899999976,3276.5598000000714,3277.5803000000715,3278.083300000072,3278.0833999999763,3278.563200000048,173.0,3278.563300000072,1.0,3278.563600000024,8.0,15.0,255.0,21.0,1.0,1.0,0.3,Time
,,S70,1,f,20,anonymized,Serial_Dependence_U,2023.2.3,Win32,60.240963855400565,,,,,,3278.5642000000475,329.0,8.0,3278.564399999976,329.0,,,,3281.9468999999763,3282.4295,3281.437100000024,3281.946800000072,3279.5713000000715,3281.436899999976,3282.4295,3282.930899999976,3282.930899999976,3285.5548000000717,2118.0,3285.5548000000717,5.0,3285.5552000000475,8.0,16.0,256.0,25.0,1.0,0.8,0.7,Time
,,S70,1,f,20,anonymized,Serial_Dependence_U,2023.2.3,Win32,60.240963855400565,,,,,,3285.5558000000715,318.0,8.0,3285.555899999976,318.0,,,,3289.748,3290.246100000024,3289.229899999976,3289.747899999976,3286.594,3289.2298000000715,3290.246100000024,3290.747600000024,3290.747600000024,3294.0792000000474,2962.0,3294.079399999976,5.0,3294.0798000000714,8.0,17.0,257.0,9.0,1.0,1.6,0.7,Time
,,S70,1,f,20,anonymized,Serial_Dependence_U,2023.2.3,Win32,60.240963855400565,,,,,,3294.080200000048,316.0,8.0,3294.0805,316.0,,,,3297.901,3298.3808000000718,3297.3632000000475,3297.900899999976,3295.091,3297.363,3298.3808000000718,3298.879100000024,3298.879200000048,3299.311300000072,92.0,3299.311399999976,1.0,3299.311600000024,8.0,18.0,258.0,2.0,1.0,1.2,0.3,Time
