Scale_setup.started,Scale_setup.stopped,participant,session,sex,age,date,expName,psychopyVersion,OS,frameRate,Intro.started,Intro.stopped,key_resp_2.keys,key_resp_2.rt,key_resp_2.duration,block.started,direction,Block_id,block.stopped,trial_direction,Block_resp_2.keys,Block_resp_2.rt,Block_resp_2.duration,ITI.started,ITI.stopped,Mask_2.started,Mask_2.stopped,encoding.started,encoding.stopped,Cue.started,Cue.stopped,Response.started,Response.stopped,keyDuration,Feedback_Time.started,FeedbackID_T,Feedback_Time.stopped,trials.thisRepN,trials.thisTrialN,trials.thisN,trials.thisIndex,trials.ran,TimeDur,Coherence1,TrialType
0.0005999999999772,0.0009000000000014,S71,1,f,21,anonymized,Serial_Dependence_U,2023.2.3,Win32,59.88023952096852,,,,,,,,,,,,,,,,,,,,,,,,,,,,,,,,,,,
,,S71,1,f,21,anonymized,Serial_Dependence_U,2023.2.3,Win32,59.88023952096852,118.41470000000004,163.71439999999996,space,45.25060000000002,,,,,,,,,,,,,,,,,,,,,,,,,,,,,,,
,,S71,1,f,21,anonymized,Serial_Dependence_U,2023.2.3,Win32,59.88023952096852,,,,,,163.726,215.0,0.0,169.5471,215.0,s,5.793200000000013,,173.4977,173.997,172.99,173.4973,170.5539,172.9894,173.99739999999997,174.4975,174.49789999999996,187.18120000000005,129.0,187.1822,1.0,188.18150000000003,0.0,0.0,0.0,18.0,1.0,1.4,0.7,Time
,,S71,1,f,21,anonymized,Serial_Dependence_U,2023.2.3,Win32,59.88023952096852,,,,,,188.1836,175.0,0.0,188.1896,175.0,,,,191.9728,192.46480000000005,191.4579,191.9724,189.1836,191.45750000000004,192.4649,192.96520000000004,192.96520000000004,196.523,144.0,196.5231,1.0,197.5144,0.0,1.0,1.0,22.0,1.0,1.2,0.3,Time
,,S71,1,f,21,anonymized,Serial_Dependence_U,2023.2.3,Win32,59.88023952096852,,,,,,197.5159,35.0,0.0,197.5164,35.0,,,,201.4886,201.9812,200.9732,201.4883,198.5312,200.9729,201.9813,202.4703,202.4704,210.4538,7244.0,210.4544,5.0,211.4475,0.0,2.0,2.0,8.0,1.0,1.4,0.7,Time
,,S71,1,f,21,anonymized,Serial_Dependence_U,2023.2.3,Win32,59.88023952096852,,,,,,211.44820000000004,38.0,0.0,211.4486,38.0,,,,214.7996,215.29870000000005,214.2983,214.7993,212.4639,214.298,215.29880000000003,215.7981,215.7982,225.7645,845.0,225.7646,4.0,226.7648,0.0,3.0,3.0,15.0,1.0,0.8,0.7,Time
,,S71,1,f,21,anonymized,Serial_Dependence_U,2023.2.3,Win32,59.88023952096852,,,,,,226.7658,228.0,0.0,226.7664,228.0,,,,230.9401,231.4314,230.4329,230.9396,227.76520000000005,230.4323,231.4314,231.9307,231.9308,233.273,583.0,233.2731,1.0,234.2646,0.0,4.0,4.0,24.0,1.0,1.6,0.3,Time
,,S71,1,f,21,anonymized,Serial_Dependence_U,2023.2.3,Win32,59.88023952096852,,,,,,234.2661,109.0,0.0,234.2668,109.0,,,,237.8316,238.3304,237.32300000000004,237.8311,235.2882,237.32270000000003,238.3306,238.8318,238.832,241.4904,1716.0,241.4905,5.0,242.4806,0.0,5.0,5.0,6.0,1.0,1.0,0.7,Time
,,S71,1,f,21,anonymized,Serial_Dependence_U,2023.2.3,Win32,59.88023952096852,,,,,,242.4816,51.0,0.0,242.4821,51.0,,,,246.0986,246.5978,245.5813,246.0982,243.5047,245.581,246.5979,247.0981,247.0982,409.3317,4011.0,409.332,5.0,410.3303999999999,0.0,6.0,6.0,1.0,1.0,1.0,0.3,Time
,,S71,1,f,21,anonymized,Serial_Dependence_U,2023.2.3,Win32,59.88023952096852,,,,,,410.3316,198.0,0.0,410.3321,198.0,,,,413.9314999999999,414.4303999999999,413.41439999999983,413.93119999999993,411.3478999999999,413.4141999999999,414.4304999999999,414.9308999999999,414.9309999999999,431.2138,2040.0,431.2138999999999,5.0,432.2138,0.0,7.0,7.0,11.0,1.0,1.0,0.3,Time
,,S71,1,f,21,anonymized,Serial_Dependence_U,2023.2.3,Win32,59.88023952096852,,,,,,432.2143999999999,241.0,0.0,432.2147999999999,241.0,,,,436.3652999999999,436.8636,435.8641,436.3648999999999,433.2306999999999,435.8639999999999,436.8636,437.3641,437.3641999999999,447.3652999999999,837.0,447.3653999999999,1.0,448.3646999999999,0.0,8.0,8.0,19.0,1.0,1.6,0.7,Time
,,S71,1,f,21,anonymized,Serial_Dependence_U,2023.2.3,Win32,59.88023952096852,,,,,,448.3655999999999,313.0,0.0,448.3661999999999,313.0,,,,452.5312,453.0304999999998,452.0144999999998,452.5309999999999,449.3809999999998,452.0141999999999,453.0305999999999,453.5303999999998,453.5303999999998,456.43119999999993,2397.0,456.4312999999999,5.0,457.4303999999999,0.0,9.0,9.0,29.0,1.0,1.6,0.7,Time
,,S71,1,f,21,anonymized,Serial_Dependence_U,2023.2.3,Win32,59.88023952096852,,,,,,457.4309999999999,292.0,0.0,457.4311,292.0,,,,461.2309999999998,461.7301999999999,460.7146,461.2307999999999,458.4475999999999,460.7142999999999,461.7301999999999,462.2301999999999,462.2301999999999,484.0983,1311.0,484.0983999999999,4.0,485.0972999999999,0.0,10.0,10.0,12.0,1.0,1.2,0.3,Time
,,S71,1,f,21,anonymized,Serial_Dependence_U,2023.2.3,Win32,59.88023952096852,,,,,,485.0976999999999,129.0,0.0,485.0979999999998,129.0,,,,488.6980999999999,489.1972999999999,488.1816,488.6977999999999,486.1144999999999,488.18119999999993,489.1972999999999,489.6972999999999,489.6972999999999,500.3804999999998,585.0,500.3806999999999,1.0,501.3809999999998,0.0,11.0,11.0,21.0,1.0,1.0,0.3,Time
,,S71,1,f,21,anonymized,Serial_Dependence_U,2023.2.3,Win32,59.88023952096852,,,,,,501.3824999999999,203.0,0.0,501.3829999999999,203.0,,,,505.3818999999999,505.8810999999999,504.8646999999999,505.3816,502.39769999999993,504.8643999999999,505.8811999999999,506.3804999999998,506.3806999999999,509.8805999999999,2666.0,509.8806999999999,5.0,510.8804999999998,0.0,12.0,12.0,3.0,1.0,1.4,0.3,Time
,,S71,1,f,21,anonymized,Serial_Dependence_U,2023.2.3,Win32,59.88023952096852,,,,,,510.8810999999999,4.0,0.0,510.8811999999999,4.0,,,,514.2809,514.7803999999999,513.7649999999999,514.2807,511.8978999999999,513.7646,514.7804999999998,515.2810999999999,515.2818,517.9073999999998,1859.0,517.9074999999998,5.0,518.8970999999999,0.0,13.0,13.0,10.0,1.0,0.8,0.3,Time
,,S71,1,f,21,anonymized,Serial_Dependence_U,2023.2.3,Win32,59.88023952096852,,,,,,518.8988999999999,149.0,0.0,518.8992999999998,149.0,,,,522.2493999999999,522.7487999999998,521.7326,522.2491,519.9001999999998,521.7323999999999,522.7487999999998,523.2477999999999,523.2478999999998,524.9471999999998,1011.0,524.9472999999998,4.0,525.9469999999999,0.0,14.0,14.0,25.0,1.0,0.8,0.7,Time
,,S71,1,f,21,anonymized,Serial_Dependence_U,2023.2.3,Win32,59.88023952096852,,,,,,525.9476999999999,233.0,0.0,525.9478999999999,233.0,,,,529.7147,530.2139999999999,529.1997999999999,529.7142999999999,526.9644999999998,529.1994,530.2140999999999,530.7148,530.7148,532.4974,1008.0,532.4975999999999,2.0,533.4973,0.0,15.0,15.0,27.0,1.0,1.2,0.7,Time
,,S71,1,f,21,anonymized,Serial_Dependence_U,2023.2.3,Win32,59.88023952096852,,,,,,533.4983,75.0,0.0,533.4985999999999,75.0,,,,537.6976999999999,538.1970999999999,537.1812,537.6973999999998,534.5152999999998,537.1808999999998,538.1971999999998,538.6976,538.6979999999999,541.2163999999998,1974.0,541.2166,4.0,542.2147,0.0,16.0,16.0,14.0,1.0,1.6,0.3,Time
,,S71,1,f,21,anonymized,Serial_Dependence_U,2023.2.3,Win32,59.88023952096852,,,,,,542.2158999999999,250.0,0.0,542.2164999999998,250.0,,,,546.2067,546.6977999999999,545.6904,546.2060999999999,543.2216999999998,545.6901,546.6978999999999,547.1976,547.1976999999999,549.8426999999999,1945.0,549.8426999999999,5.0,550.8317,0.0,17.0,17.0,13.0,1.0,1.4,0.3,Time
,,S71,1,f,21,anonymized,Serial_Dependence_U,2023.2.3,Win32,59.88023952096852,,,,,,550.8326999999999,344.0,0.0,550.8329999999999,344.0,,,,554.9994999999999,555.4975,554.4907999999998,554.9983,551.8572999999999,554.4904999999999,555.4975999999999,555.9982,555.9983,558.3479999999997,1485.0,558.3479999999997,2.0,559.3477999999998,0.0,18.0,18.0,9.0,1.0,1.6,0.7,Time
,,S71,1,f,21,anonymized,Serial_Dependence_U,2023.2.3,Win32,59.88023952096852,,,,,,559.3483999999999,266.0,0.0,559.3488,266.0,,,,562.7484,563.2472,562.2397999999998,562.7481,560.3670999999999,562.2394999999999,563.2473,563.7483,563.7484,566.5973999999999,1896.0,566.5973999999999,5.0,567.5981999999999,0.0,19.0,19.0,20.0,1.0,0.8,0.3,Time
,,S71,1,f,21,anonymized,Serial_Dependence_U,2023.2.3,Win32,59.88023952096852,,,,,,567.5991999999999,337.0,0.0,567.5997,337.0,,,,570.9899999999998,571.4812,570.4739,570.9896999999999,568.6226999999999,570.4734999999998,571.4813999999999,571.9818999999998,571.9818999999998,574.7813999999998,1941.0,574.7816,5.0,575.7818,0.0,20.0,20.0,5.0,1.0,0.8,0.7,Time
,,S71,1,f,21,anonymized,Serial_Dependence_U,2023.2.3,Win32,59.88023952096852,,,,,,575.7828,49.0,0.0,575.7831999999999,49.0,,,,579.9826,580.4884999999999,579.4712,579.9817999999998,576.7984999999999,579.4708999999998,580.4884999999999,580.9881,580.9881,582.1646999999998,223.0,582.1647999999998,1.0,583.1648999999998,0.0,21.0,21.0,4.0,1.0,1.6,0.3,Time
,,S71,1,f,21,anonymized,Serial_Dependence_U,2023.2.3,Win32,59.88023952096852,,,,,,583.1659999999999,154.0,0.0,583.1662999999999,154.0,,,,587.1649999999997,587.6651999999999,586.6500999999998,587.1645999999998,584.1719999999998,586.6496999999999,587.6651999999999,588.1642999999999,588.1643999999999,590.4476999999999,1565.0,590.4477999999999,4.0,591.4476999999999,0.0,22.0,22.0,23.0,1.0,1.4,0.3,Time
,,S71,1,f,21,anonymized,Serial_Dependence_U,2023.2.3,Win32,59.88023952096852,,,,,,591.4486999999999,77.0,0.0,591.4491,77.0,,,,595.4205999999999,595.9145999999998,594.8982999999998,595.4205,592.4657,594.8979999999999,595.9147999999998,596.4150999999999,596.4151999999999,598.1596,1143.0,598.1597999999999,2.0,599.1647999999998,0.0,23.0,23.0,28.0,1.0,1.4,0.7,Time
,,S71,1,f,21,anonymized,Serial_Dependence_U,2023.2.3,Win32,59.88023952096852,,,,,,599.1658,78.0,0.0,599.1662999999999,78.0,,,,602.7319999999997,603.2309999999998,602.2238,602.7315999999998,600.1824999999999,602.2233999999999,603.2309999999998,603.7309999999998,603.7314999999999,605.1812,933.0,605.1813,2.0,606.1821,0.0,24.0,24.0,26.0,1.0,1.0,0.7,Time
,,S71,1,f,21,anonymized,Serial_Dependence_U,2023.2.3,Win32,59.88023952096852,,,,,,606.1827999999998,343.0,0.0,606.1829999999998,343.0,,,,609.7476999999999,610.2481,609.2318999999998,609.7475,607.1987999999999,609.2312,610.2481,610.7475999999999,610.7476999999999,614.0983999999999,1927.0,614.0987,5.0,615.0981999999999,0.0,25.0,25.0,16.0,1.0,1.0,0.7,Time
,,S71,1,f,21,anonymized,Serial_Dependence_U,2023.2.3,Win32,59.88023952096852,,,,,,615.0989999999999,176.0,0.0,615.0993999999998,176.0,,,,618.8649999999998,619.3644999999999,618.3483999999999,618.8646999999999,616.1162999999999,618.3477999999998,619.3645999999999,619.8652,619.8652,621.5817999999999,1181.0,621.5819999999999,3.0,622.5814999999998,0.0,26.0,26.0,17.0,1.0,1.2,0.7,Time
,,S71,1,f,21,anonymized,Serial_Dependence_U,2023.2.3,Win32,59.88023952096852,,,,,,622.5823999999998,354.0,0.0,622.5826999999999,354.0,,,,626.3329999999999,626.8314999999998,625.8157999999999,626.3326,623.5832999999998,625.8151,626.8316,627.3310999999999,627.3312999999998,628.7353999999998,851.0,628.7354999999998,2.0,629.7314999999999,0.0,27.0,27.0,7.0,1.0,1.2,0.7,Time
,,S71,1,f,21,anonymized,Serial_Dependence_U,2023.2.3,Win32,59.88023952096852,,,,,,629.7323999999999,63.0,0.0,629.7326,63.0,,,,633.5230999999999,634.0148999999999,633.0158999999999,633.5228,630.7538,633.0153999999998,634.0148999999999,634.5146,634.5147999999999,636.0419999999999,881.0,636.0421999999999,2.0,637.0314999999998,0.0,28.0,28.0,2.0,1.0,1.2,0.3,Time
,,S71,1,f,21,anonymized,Serial_Dependence_U,2023.2.3,Win32,59.88023952096852,,,,,,637.0326,234.0,0.0,637.0328999999999,234.0,,,,640.4313999999999,640.9311,639.9154999999998,640.4312,638.0404999999998,639.9149999999997,640.9313,641.4305999999999,641.4305999999999,643.1143999999999,1101.0,643.1144999999999,5.0,644.1144999999999,0.0,29.0,29.0,0.0,1.0,0.8,0.3,Time
,,S71,1,f,21,anonymized,Serial_Dependence_U,2023.2.3,Win32,59.88023952096852,,,,,,644.1158999999998,16.0,1.0,647.2312,16.0,s,3.08929999999998,,650.6077,651.0982999999999,650.0826999999999,650.6072999999999,648.2479999999998,650.0820999999999,651.0983999999999,651.5972999999999,651.5973999999999,652.8142999999998,576.0,652.8145,2.0,652.8151,1.0,0.0,30.0,15.0,1.0,0.8,0.7,Time
,,S71,1,f,21,anonymized,Serial_Dependence_U,2023.2.3,Win32,59.88023952096852,,,,,,652.8156999999999,167.0,1.0,652.8183999999999,167.0,,,,656.4206999999999,656.9149999999997,655.8996999999999,656.4204,653.8213999999998,655.8991999999998,656.9149999999997,657.4144999999999,657.4146999999998,659.1641999999999,1182.0,659.1642999999999,4.0,659.1651999999999,1.0,1.0,31.0,1.0,1.0,1.0,0.3,Time
,,S71,1,f,21,anonymized,Serial_Dependence_U,2023.2.3,Win32,59.88023952096852,,,,,,659.1654999999998,252.0,1.0,659.1658,252.0,,,,662.5324999999998,663.0303999999999,662.0310999999999,662.5319999999999,660.1653999999999,662.0309,663.0303999999999,663.5304999999998,663.5305999999998,664.9141999999999,686.0,664.9141999999999,2.0,664.9150999999999,1.0,2.0,32.0,20.0,1.0,0.8,0.3,Time
,,S71,1,f,21,anonymized,Serial_Dependence_U,2023.2.3,Win32,59.88023952096852,,,,,,664.9159,248.0,1.0,664.9160999999999,248.0,,,,668.8983999999998,669.3978,668.3816999999999,668.8981999999999,665.9149999999997,668.3812999999998,669.3979999999999,669.8978,669.8979999999999,671.6407999999999,899.0,671.6408999999999,1.0,671.6415,1.0,3.0,33.0,3.0,1.0,1.4,0.3,Time
,,S71,1,f,21,anonymized,Serial_Dependence_U,2023.2.3,Win32,59.88023952096852,,,,,,671.6422,162.0,1.0,671.6424999999999,162.0,,,,675.2239999999999,675.7185999999999,674.7218999999998,675.2237,672.6547999999998,674.7216999999998,675.7185999999999,676.2180999999998,676.2182,678.2904999999998,1283.0,678.2906,4.0,678.2912999999999,1.0,4.0,34.0,11.0,1.0,1.0,0.3,Time
,,S71,1,f,21,anonymized,Serial_Dependence_U,2023.2.3,Win32,59.88023952096852,,,,,,678.2917,7.0,1.0,678.2921999999999,7.0,,,,682.0321999999999,682.5308,681.5205999999998,682.0317,679.2830999999999,681.5204999999999,682.5309,683.0314999999998,683.0316,684.7696999999998,936.0,684.7696999999998,2.0,684.7699999999998,1.0,5.0,35.0,27.0,1.0,1.2,0.7,Time
,,S71,1,f,21,anonymized,Serial_Dependence_U,2023.2.3,Win32,59.88023952096852,,,,,,684.7702999999999,136.0,1.0,684.7703999999999,136.0,,,,688.1319999999998,688.6310999999998,687.6157999999998,688.1315999999999,685.7813999999998,687.6154999999999,688.6311999999998,689.1311999999998,689.1311999999998,690.2641999999998,758.0,690.2643999999998,2.0,690.2648999999999,1.0,6.0,36.0,25.0,1.0,0.8,0.7,Time
,,S71,1,f,21,anonymized,Serial_Dependence_U,2023.2.3,Win32,59.88023952096852,,,,,,690.2656999999999,130.0,1.0,690.2658999999999,130.0,,,,694.4662999999998,694.9637,693.9479999999999,694.4657,691.2817,693.9476,694.9638,695.4647,695.4648,696.5669999999998,452.0,696.5671,1.0,696.5681,1.0,7.0,37.0,24.0,1.0,1.6,0.3,Time
,,S71,1,f,21,anonymized,Serial_Dependence_U,2023.2.3,Win32,59.88023952096852,,,,,,696.5685999999998,304.0,1.0,696.5686999999998,304.0,,,,700.3397,700.8317999999999,699.8371999999999,700.3393999999998,697.5899999999999,699.8369999999998,700.8318999999999,701.3309999999999,701.3310999999999,703.2251999999999,1309.0,703.2252999999998,4.0,703.2257999999999,1.0,8.0,38.0,17.0,1.0,1.2,0.7,Time
,,S71,1,f,21,anonymized,Serial_Dependence_U,2023.2.3,Win32,59.88023952096852,,,,,,703.2262999999998,180.0,1.0,703.2266999999999,180.0,,,,707.3647999999998,707.8641,706.8542,707.3643,704.2221999999999,706.8538999999998,707.8643,708.3652,708.3652999999999,710.3582999999999,1418.0,710.3583999999998,2.0,710.3591999999999,1.0,9.0,39.0,9.0,1.0,1.6,0.7,Time
,,S71,1,f,21,anonymized,Serial_Dependence_U,2023.2.3,Win32,59.88023952096852,,,,,,710.3598,138.0,1.0,710.3599999999999,138.0,,,,713.7321999999999,714.2309999999998,713.2150999999999,713.7317999999998,711.3831,713.2147,714.2309999999998,714.7315999999998,714.7317999999998,715.9308999999998,621.0,715.9311,2.0,715.9313,1.0,10.0,40.0,5.0,1.0,0.8,0.7,Time
,,S71,1,f,21,anonymized,Serial_Dependence_U,2023.2.3,Win32,59.88023952096852,,,,,,715.9317999999998,287.0,1.0,715.9323999999999,287.0,,,,719.3230999999998,719.8153,718.8152,719.3227999999999,716.9477999999999,718.8147999999999,719.8153,720.3148999999999,720.3149999999998,721.6814999999999,716.0,721.6816999999999,2.0,721.6822,1.0,11.0,41.0,10.0,1.0,0.8,0.3,Time
,,S71,1,f,21,anonymized,Serial_Dependence_U,2023.2.3,Win32,59.88023952096852,,,,,,721.6829999999998,94.0,1.0,721.6834999999999,94.0,,,,725.2729999999999,725.7647999999999,724.7701,725.2727,722.6898999999999,724.7698999999998,725.7647999999999,726.2644999999998,726.2644999999998,727.8347999999999,573.0,727.8349999999998,1.0,727.8353999999999,1.0,12.0,42.0,21.0,1.0,1.0,0.3,Time
,,S71,1,f,21,anonymized,Serial_Dependence_U,2023.2.3,Win32,59.88023952096852,,,,,,727.8359999999998,169.0,1.0,727.8362,169.0,,,,731.6148999999998,732.1145999999999,731.1065999999998,731.6139999999998,728.8397,731.1062,732.1145999999999,732.6149999999998,732.6149999999998,734.2137,855.0,734.2138,2.0,734.2141999999999,1.0,13.0,43.0,22.0,1.0,1.2,0.3,Time
,,S71,1,f,21,anonymized,Serial_Dependence_U,2023.2.3,Win32,59.88023952096852,,,,,,734.2149999999999,6.0,1.0,734.2151999999999,6.0,,,,738.2212999999999,738.7139999999999,737.7038,738.2211,735.2313999999999,737.7035999999998,738.7139999999999,739.2142999999999,739.2144999999998,741.2138,1071.0,741.2138,2.0,741.2140999999999,1.0,14.0,44.0,13.0,1.0,1.4,0.3,Time
,,S71,1,f,21,anonymized,Serial_Dependence_U,2023.2.3,Win32,59.88023952096852,,,,,,741.2144999999998,298.0,1.0,741.2147,298.0,,,,745.3862999999999,745.8803999999998,744.8838999999998,745.3860999999999,742.2364999999998,744.8836999999999,745.8804999999998,746.3802999999998,746.3803999999998,746.8363999999999,28.0,746.8363999999999,1.0,746.8366999999998,1.0,15.0,45.0,29.0,1.0,1.6,0.7,Time
,,S71,1,f,21,anonymized,Serial_Dependence_U,2023.2.3,Win32,59.88023952096852,,,,,,746.8376999999998,206.0,1.0,746.8378999999998,206.0,,,,750.2321999999999,750.7312999999999,749.7222999999999,750.2315999999998,747.8581999999999,749.7218999999998,750.7313999999999,751.2317999999998,751.2318999999998,752.8517999999999,808.0,752.8518999999999,3.0,752.8522999999998,1.0,16.0,46.0,0.0,1.0,0.8,0.3,Time
,,S71,1,f,21,anonymized,Serial_Dependence_U,2023.2.3,Win32,59.88023952096852,,,,,,752.8529999999998,347.0,1.0,752.8533,347.0,,,,756.4396999999999,756.9314999999999,755.9219999999998,756.4394,753.8721,755.9216999999999,756.9314999999999,757.4312,757.4313999999999,759.0481,875.0,759.0481,2.0,759.0488999999998,1.0,17.0,47.0,16.0,1.0,1.0,0.7,Time
,,S71,1,f,21,anonymized,Serial_Dependence_U,2023.2.3,Win32,59.88023952096852,,,,,,759.0493999999999,247.0,1.0,759.0495999999998,247.0,,,,763.2475999999999,763.7468999999999,762.7308999999998,763.2474,760.0641999999998,762.7306999999998,763.7468999999999,764.2468999999999,764.2469999999998,766.2472,1334.0,766.2472,2.0,766.2476999999999,1.0,18.0,48.0,4.0,1.0,1.6,0.3,Time
,,S71,1,f,21,anonymized,Serial_Dependence_U,2023.2.3,Win32,59.88023952096852,,,,,,766.2479999999998,204.0,1.0,766.2482,204.0,,,,770.0143999999998,770.5139999999999,769.4976999999999,770.0142999999998,767.2638999999999,769.4975,770.5140999999999,771.0150999999998,771.0151999999998,772.6604999999997,854.0,772.6604999999997,2.0,772.6613,1.0,19.0,49.0,7.0,1.0,1.2,0.7,Time
,,S71,1,f,21,anonymized,Serial_Dependence_U,2023.2.3,Win32,59.88023952096852,,,,,,772.6616999999999,263.0,1.0,772.6619999999998,263.0,,,,776.6321,777.1304999999998,776.1237999999998,776.6317999999999,773.6903,776.1235999999999,777.1306,777.6312999999998,777.6315999999999,779.2312999999999,779.0,779.2313999999999,1.0,779.2319999999997,1.0,20.0,50.0,18.0,1.0,1.4,0.7,Time
,,S71,1,f,21,anonymized,Serial_Dependence_U,2023.2.3,Win32,59.88023952096852,,,,,,779.2327,0.0,1.0,779.2329,0.0,,,,783.1986999999999,783.6972999999998,782.6831999999999,783.1983999999998,780.2493,782.6828999999998,783.6972999999998,784.1972999999998,784.1972999999998,785.8970999999999,620.0,785.8971999999999,1.0,785.8976,1.0,21.0,51.0,28.0,1.0,1.4,0.7,Time
,,S71,1,f,21,anonymized,Serial_Dependence_U,2023.2.3,Win32,59.88023952096852,,,,,,785.8980999999999,341.0,1.0,785.8982999999998,341.0,,,,789.6980999999998,790.1971999999998,789.1807999999999,789.6977999999999,786.9142999999999,789.1805999999999,790.1972999999998,790.6969999999999,790.6971999999998,791.7977999999998,435.0,791.7979999999998,1.0,791.7985999999999,1.0,22.0,52.0,12.0,1.0,1.2,0.3,Time
,,S71,1,f,21,anonymized,Serial_Dependence_U,2023.2.3,Win32,59.88023952096852,,,,,,791.7992999999999,283.0,1.0,791.7995999999998,283.0,,,,795.5976999999998,796.0969999999998,795.0810999999999,795.5973999999999,792.8141999999998,795.0808999999999,796.0969999999998,796.5971,796.5971999999999,798.4979999999998,795.0,798.4981,1.0,798.4984999999999,1.0,23.0,53.0,2.0,1.0,1.2,0.3,Time
,,S71,1,f,21,anonymized,Serial_Dependence_U,2023.2.3,Win32,59.88023952096852,,,,,,798.4991,5.0,1.0,798.4993,5.0,,,,802.0651,802.5639999999999,801.5478999999998,802.0647999999999,799.5146,801.5476999999998,802.5639999999999,803.0637999999999,803.0637999999999,804.4974,667.0,804.4975999999999,1.0,804.4983,1.0,24.0,54.0,6.0,1.0,1.0,0.7,Time
,,S71,1,f,21,anonymized,Serial_Dependence_U,2023.2.3,Win32,59.88023952096852,,,,,,804.4993,72.0,1.0,804.4994999999999,72.0,,,,808.0493999999999,808.5491,807.5323999999998,808.0488999999998,805.4989999999998,807.5319999999999,808.5494999999999,809.0485999999999,809.0485999999999,810.3142999999998,683.0,810.3142999999998,1.0,810.3147999999999,1.0,25.0,55.0,26.0,1.0,1.0,0.7,Time
,,S71,1,f,21,anonymized,Serial_Dependence_U,2023.2.3,Win32,59.88023952096852,,,,,,810.3153,187.0,1.0,810.3155999999999,187.0,,,,814.5156999999999,815.0146,813.9985999999999,814.5154999999997,811.3310999999999,813.9982,815.0146,815.5150999999998,815.5151999999998,816.6645999999998,561.0,816.6647999999998,1.0,816.6650999999999,1.0,26.0,56.0,14.0,1.0,1.6,0.3,Time
,,S71,1,f,21,anonymized,Serial_Dependence_U,2023.2.3,Win32,59.88023952096852,,,,,,816.6661999999999,345.0,1.0,816.6664999999998,345.0,,,,820.6151,821.1145999999999,820.0988,820.6147999999998,817.6662999999999,820.0986,821.1145999999999,821.6146999999999,821.6147999999998,823.1319999999998,730.0,823.1321999999998,1.0,823.1333,1.0,27.0,57.0,8.0,1.0,1.4,0.7,Time
,,S71,1,f,21,anonymized,Serial_Dependence_U,2023.2.3,Win32,59.88023952096852,,,,,,823.1341999999997,47.0,1.0,823.1343999999999,47.0,,,,827.2996999999998,827.7983999999999,826.7819,827.2993999999999,824.1487999999999,826.7816,827.7984999999999,828.2982999999999,828.2983999999999,829.6316999999997,695.0,829.6317999999999,1.0,829.6324,1.0,28.0,58.0,19.0,1.0,1.6,0.7,Time
,,S71,1,f,21,anonymized,Serial_Dependence_U,2023.2.3,Win32,59.88023952096852,,,,,,829.6329999999998,191.0,1.0,829.6331999999998,191.0,,,,833.6333,834.1315999999999,833.1165999999998,833.6327999999999,830.6489999999999,833.1161,834.1315999999999,834.6314,834.6314,835.8831,642.0,835.8833,1.0,835.8842999999999,1.0,29.0,59.0,23.0,1.0,1.4,0.3,Time
,,S71,1,f,21,anonymized,Serial_Dependence_U,2023.2.3,Win32,59.88023952096852,,,,,,835.8849,138.0,2.0,837.9152999999999,138.0,s,2.003500000000031,,842.0827999999999,842.5814999999998,841.5724,842.0818999999999,838.9239,841.5721999999998,842.5816999999997,843.0814,843.0814999999998,844.6729999999998,883.0,844.6729999999998,1.0,844.6735999999999,2.0,0.0,60.0,19.0,1.0,1.6,0.7,Time
,,S71,1,f,21,anonymized,Serial_Dependence_U,2023.2.3,Win32,59.88023952096852,,,,,,844.6749,347.0,2.0,844.6768,347.0,,,,848.0657999999999,848.5649999999998,847.5571,848.0654,845.6825999999999,847.5567999999998,848.5651,849.0651,849.0653,850.1813999999999,458.0,850.1814999999999,1.0,850.1822999999999,2.0,1.0,61.0,0.0,1.0,0.8,0.3,Time
,,S71,1,f,21,anonymized,Serial_Dependence_U,2023.2.3,Win32,59.88023952096852,,,,,,850.1831999999997,128.0,2.0,850.1833999999999,128.0,,,,853.9991,854.4977999999999,853.4901,853.9985999999999,851.2067999999999,853.4899,854.4979000000001,854.9979000000001,854.9981999999998,857.3479,763.0,857.3479999999997,1.0,857.3484999999998,2.0,2.0,62.0,22.0,1.0,1.2,0.3,Time
,,S71,1,f,21,anonymized,Serial_Dependence_U,2023.2.3,Win32,59.88023952096852,,,,,,857.3491999999999,261.0,2.0,857.3496,261.0,,,,861.3155999999999,861.8145,860.7992999999999,861.3147999999999,858.3644999999999,860.7985999999999,861.8145999999999,862.3139999999999,862.3140999999998,863.7573,700.0,863.7573,1.0,863.7576999999999,2.0,3.0,63.0,28.0,1.0,1.4,0.7,Time
,,S71,1,f,21,anonymized,Serial_Dependence_U,2023.2.3,Win32,59.88023952096852,,,,,,863.7581,147.0,2.0,863.7583,147.0,,,,867.9487999999999,868.4484,867.4395999999999,867.9480999999998,864.7561999999998,867.4392999999998,868.4484,868.9479999999999,868.9480999999998,870.8317999999999,768.0,870.8318999999999,1.0,870.8324999999998,2.0,4.0,64.0,14.0,1.0,1.6,0.3,Time
,,S71,1,f,21,anonymized,Serial_Dependence_U,2023.2.3,Win32,59.88023952096852,,,,,,870.8337999999999,73.0,2.0,870.8341999999998,73.0,,,,874.9999999999998,875.4981,874.4817999999998,874.9993,871.8480999999999,874.4809999999998,875.4981,875.9971999999998,875.9971999999998,877.4480999999998,508.0,877.4480999999998,1.0,877.4486999999997,2.0,5.0,65.0,9.0,1.0,1.6,0.7,Time
,,S71,1,f,21,anonymized,Serial_Dependence_U,2023.2.3,Win32,59.88023952096852,,,,,,877.4491999999998,99.0,2.0,877.4493,99.0,,,,881.4160999999999,881.9146999999998,880.9076999999997,881.4156999999998,878.4650999999999,880.9074,881.9146999999998,882.4152999999999,882.4152999999999,883.9809999999998,839.0,883.9811,1.0,883.9821999999997,2.0,6.0,66.0,18.0,1.0,1.4,0.7,Time
,,S71,1,f,21,anonymized,Serial_Dependence_U,2023.2.3,Win32,59.88023952096852,,,,,,883.9830999999999,175.0,2.0,883.9832999999999,175.0,,,,888.1569,888.6482999999998,887.6496999999997,888.1566,884.983,887.6492999999998,888.6484,889.1549,889.1549,891.1082999999999,666.0,891.1084999999998,1.0,891.1089,2.0,7.0,67.0,24.0,1.0,1.6,0.3,Time
,,S71,1,f,21,anonymized,Serial_Dependence_U,2023.2.3,Win32,59.88023952096852,,,,,,891.1096,157.0,2.0,891.1098999999999,157.0,,,,894.8986999999997,895.3982999999998,894.3831,894.8984,892.1155999999999,894.3824999999999,895.3984,895.8984999999998,895.8986,897.4321,723.0,897.4321999999997,1.0,897.4325999999999,2.0,8.0,68.0,12.0,1.0,1.2,0.3,Time
,,S71,1,f,21,anonymized,Serial_Dependence_U,2023.2.3,Win32,59.88023952096852,,,,,,897.4332999999999,72.0,2.0,897.4334999999999,72.0,,,,900.9989,901.4981,900.4815999999998,900.9984,898.4476999999997,900.4813999999999,901.4981999999998,901.9978,901.9979,903.2478,585.0,903.2478,1.0,903.2481,2.0,9.0,69.0,26.0,1.0,1.0,0.7,Time
,,S71,1,f,21,anonymized,Serial_Dependence_U,2023.2.3,Win32,59.88023952096852,,,,,,903.2491,79.0,2.0,903.2493,79.0,,,,907.4571999999998,907.9476999999996,906.9399999999998,907.4568,904.2664,906.9397,907.9478,908.4480999999998,908.4482999999998,909.6936999999998,568.0,909.6936999999998,1.0,909.6943,2.0,10.0,70.0,4.0,1.0,1.6,0.3,Time
,,S71,1,f,21,anonymized,Serial_Dependence_U,2023.2.3,Win32,59.88023952096852,,,,,,909.6949,339.0,2.0,909.6952,339.0,,,,913.4906,913.9821000000002,912.9733,913.4904,910.7056,912.9731000000002,913.9821000000002,914.4822,914.4824,915.6496000000002,611.0,915.6499,1.0,915.6503,2.0,11.0,71.0,2.0,1.0,1.2,0.3,Time
,,S71,1,f,21,anonymized,Serial_Dependence_U,2023.2.3,Win32,59.88023952096852,,,,,,915.6509,288.0,2.0,915.651,288.0,,,,919.6489,920.1481,919.1398000000002,919.6487,916.6662,919.1396000000002,920.1482,920.6482,920.6483,922.132,638.0,922.1321,1.0,922.1326,2.0,12.0,72.0,23.0,1.0,1.4,0.3,Time
,,S71,1,f,21,anonymized,Serial_Dependence_U,2023.2.3,Win32,59.88023952096852,,,,,,922.1331,219.0,2.0,922.1338,219.0,,,,925.8992,926.3986000000002,925.3842,925.8986000000002,923.1484000000004,925.3834000000002,926.3987,926.8985,926.8986000000002,928.6079000000002,867.0,928.6079000000002,2.0,928.6084,2.0,13.0,73.0,17.0,1.0,1.2,0.7,Time
,,S71,1,f,21,anonymized,Serial_Dependence_U,2023.2.3,Win32,59.88023952096852,,,,,,928.6089000000002,279.0,2.0,928.609,279.0,,,,931.9659,932.4705,931.4486000000002,931.9657,929.6162,931.4484000000002,932.4706,932.9648,932.9648,934.0645,355.0,934.0646000000002,1.0,934.065,2.0,14.0,74.0,15.0,1.0,0.8,0.7,Time
,,S71,1,f,21,anonymized,Serial_Dependence_U,2023.2.3,Win32,59.88023952096852,,,,,,934.0654000000002,122.0,2.0,934.0656,122.0,,,,937.4665,937.9642,936.9566000000002,937.466,935.0816000000002,936.9564000000004,937.9643,938.4645,938.4646,939.5143,469.0,939.5144000000004,1.0,939.5147,2.0,15.0,75.0,10.0,1.0,0.8,0.3,Time
,,S71,1,f,21,anonymized,Serial_Dependence_U,2023.2.3,Win32,59.88023952096852,,,,,,939.5152,221.0,2.0,939.5157,221.0,,,,943.2811000000002,943.7809000000002,942.7657,943.2808,940.5326,942.7654000000002,943.7809000000002,944.281,944.281,945.4145,617.0,945.4146,1.0,945.4151000000002,2.0,16.0,76.0,27.0,1.0,1.2,0.7,Time
,,S71,1,f,21,anonymized,Serial_Dependence_U,2023.2.3,Win32,59.88023952096852,,,,,,945.4159000000002,56.0,2.0,945.4162,56.0,,,,949.4156,949.9146,948.8981,949.4152,946.4316,948.8979000000002,949.9146,950.4147,950.4148,951.7655,620.0,951.7658,1.0,951.7666000000002,2.0,17.0,77.0,3.0,1.0,1.4,0.3,Time
,,S71,1,f,21,anonymized,Serial_Dependence_U,2023.2.3,Win32,59.88023952096852,,,,,,951.7678,243.0,2.0,951.7683,243.0,,,,955.7653,956.2646000000002,955.2487,955.7651,952.782,955.2483,956.2647,956.7649,956.765,957.9477,735.0,957.9478,1.0,957.9482,2.0,18.0,78.0,13.0,1.0,1.4,0.3,Time
,,S71,1,f,21,anonymized,Serial_Dependence_U,2023.2.3,Win32,59.88023952096852,,,,,,957.9492,198.0,2.0,957.9495,198.0,,,,961.3481000000002,961.8481000000002,960.8329,961.3479000000002,958.9655,960.8324000000002,961.8482,962.349,962.349,963.8404,690.0,963.8409,2.0,963.8415,2.0,19.0,79.0,20.0,1.0,0.8,0.3,Time
,,S71,1,f,21,anonymized,Serial_Dependence_U,2023.2.3,Win32,59.88023952096852,,,,,,963.842,14.0,2.0,963.8421,14.0,,,,968.0156000000002,968.5151,967.5074000000002,968.0153,964.8514000000002,967.5072,968.5152,969.015,969.015,970.615,816.0,970.6152,1.0,970.6158,2.0,20.0,80.0,29.0,1.0,1.6,0.7,Time
,,S71,1,f,21,anonymized,Serial_Dependence_U,2023.2.3,Win32,59.88023952096852,,,,,,970.6166,68.0,2.0,970.6168,68.0,,,,974.1822,974.6814000000002,973.6654,974.1817,971.6335,973.6653,974.6817,975.1814000000002,975.1814000000002,977.0313,836.0,977.0315,2.0,977.0319000000002,2.0,21.0,81.0,6.0,1.0,1.0,0.7,Time
,,S71,1,f,21,anonymized,Serial_Dependence_U,2023.2.3,Win32,59.88023952096852,,,,,,977.0329000000002,147.0,2.0,977.0332,147.0,,,,980.5982,981.0988,980.0822,980.5979000000002,978.0491000000002,980.0816000000002,981.0989000000002,981.5983,981.5984,983.2592,609.0,983.2593000000002,1.0,983.2598,2.0,22.0,82.0,16.0,1.0,1.0,0.7,Time
,,S71,1,f,21,anonymized,Serial_Dependence_U,2023.2.3,Win32,59.88023952096852,,,,,,983.2602,158.0,2.0,983.2604,158.0,,,,986.8491,987.3387,986.332,986.8486,984.2652,986.3317,987.3387,987.832,987.8321,989.2815,652.0,989.2817,1.0,989.282,2.0,23.0,83.0,21.0,1.0,1.0,0.3,Time
,,S71,1,f,21,anonymized,Serial_Dependence_U,2023.2.3,Win32,59.88023952096852,,,,,,989.2826,290.0,2.0,989.2832,290.0,,,,992.6494000000002,993.1482,992.14,992.649,990.307,992.1397,993.1483,993.6479000000002,993.648,995.6678000000002,986.0,995.668,4.0,995.6686000000002,2.0,24.0,84.0,5.0,1.0,0.8,0.7,Time
,,S71,1,f,21,anonymized,Serial_Dependence_U,2023.2.3,Win32,59.88023952096852,,,,,,995.6691,143.0,2.0,995.6694000000002,143.0,,,,999.0335,999.531,998.5237,999.0331,996.6887,998.5233,999.5312,1000.0325,1000.0326,1002.3092,802.0,1002.3092,3.0,1002.3101,2.0,25.0,85.0,25.0,1.0,0.8,0.7,Time
,,S71,1,f,21,anonymized,Serial_Dependence_U,2023.2.3,Win32,59.88023952096852,,,,,,1002.3106,283.0,2.0,1002.3108,283.0,,,,1006.0821,1006.582,1005.5707,1006.0817,1003.3393,1005.5705,1006.582,1007.0818000000002,1007.0819,1008.9816,947.0,1008.9817,2.0,1008.9822,2.0,26.0,86.0,7.0,1.0,1.2,0.7,Time
,,S71,1,f,21,anonymized,Serial_Dependence_U,2023.2.3,Win32,59.88023952096852,,,,,,1008.9827,307.0,2.0,1008.9829000000002,307.0,,,,1012.5819,1013.0822,1012.0659,1012.5816000000002,1009.9988,1012.065,1013.0822,1013.5815,1013.5816000000002,1015.1812,572.0,1015.1812,1.0,1015.1818,2.0,27.0,87.0,1.0,1.0,1.0,0.3,Time
,,S71,1,f,21,anonymized,Serial_Dependence_U,2023.2.3,Win32,59.88023952096852,,,,,,1015.1826,312.0,2.0,1015.1828,312.0,,,,1018.7815,1019.2812,1018.2654000000002,1018.7813,1016.1985,1018.2651,1019.2814,1019.7811000000002,1019.7812,1021.332,497.0,1021.3321,1.0,1021.3327,2.0,28.0,88.0,11.0,1.0,1.0,0.3,Time
,,S71,1,f,21,anonymized,Serial_Dependence_U,2023.2.3,Win32,59.88023952096852,,,,,,1021.3337,105.0,2.0,1021.3339,105.0,,,,1025.2988,1025.7985,1024.7824,1025.2985,1022.3489000000002,1024.7821,1025.7985,1026.2978,1026.2978,1027.4151000000002,464.0,1027.4153,1.0,1027.4157,2.0,29.0,89.0,8.0,1.0,1.4,0.7,Time
,,S71,1,f,21,anonymized,Serial_Dependence_U,2023.2.3,Win32,59.88023952096852,,,,,,1027.4162,298.0,3.0,1029.1822,298.0,s,1.7453999999997905,,1032.9495,1033.4487,1032.4331000000002,1032.9491,1030.1992,1032.4315,1033.4487,1033.9481,1033.9483,1035.4314000000002,556.0,1035.4315,1.0,1035.4318,3.0,0.0,90.0,17.0,1.0,1.2,0.7,Time
,,S71,1,f,21,anonymized,Serial_Dependence_U,2023.2.3,Win32,59.88023952096852,,,,,,1035.4323000000002,318.0,3.0,1035.4346,318.0,,,,1038.7994,1039.2982,1038.2904,1038.7989000000002,1036.4495,1038.2902,1039.2983000000002,1039.7986,1039.7987,1040.9082,474.0,1040.9087,1.0,1040.9091,3.0,1.0,91.0,15.0,1.0,0.8,0.7,Time
,,S71,1,f,21,anonymized,Serial_Dependence_U,2023.2.3,Win32,59.88023952096852,,,,,,1040.9096000000002,157.0,3.0,1040.9098,157.0,,,,1045.0986,1045.5978,1044.5819,1045.0984,1041.915,1044.5811,1045.5979000000002,1046.0985,1046.0986,1047.7647,884.0,1047.7649,1.0,1047.7654000000002,3.0,2.0,92.0,24.0,1.0,1.6,0.3,Time
,,S71,1,f,21,anonymized,Serial_Dependence_U,2023.2.3,Win32,59.88023952096852,,,,,,1047.766,63.0,3.0,1047.7662,63.0,,,,1051.3318000000002,1051.8314000000005,1050.8155,1051.3315,1048.7828,1050.8151,1051.8315,1052.3327,1052.3328,1053.916,949.0,1053.9161,2.0,1053.9166,3.0,3.0,93.0,26.0,1.0,1.0,0.7,Time
,,S71,1,f,21,anonymized,Serial_Dependence_U,2023.2.3,Win32,59.88023952096852,,,,,,1053.9173,110.0,3.0,1053.9174,110.0,,,,1057.9167,1058.4154,1057.399,1057.9161,1054.9327,1057.3985,1058.4155,1058.9152,1058.9153,1059.8146000000002,168.0,1059.8147,1.0,1059.8149,3.0,4.0,94.0,3.0,1.0,1.4,0.3,Time
,,S71,1,f,21,anonymized,Serial_Dependence_U,2023.2.3,Win32,59.88023952096852,,,,,,1059.8154000000002,187.0,3.0,1059.8159,187.0,,,,1064.0161,1064.5144000000005,1063.4989,1064.0157,1060.8323,1063.4983,1064.5144000000005,1065.0148000000002,1065.0148000000002,1066.3479000000002,784.0,1066.348,1.0,1066.3487,3.0,5.0,95.0,4.0,1.0,1.6,0.3,Time
,,S71,1,f,21,anonymized,Serial_Dependence_U,2023.2.3,Win32,59.88023952096852,,,,,,1066.3494,312.0,3.0,1066.3496,312.0,,,,1070.3149,1070.8145,1069.799,1070.3146000000002,1067.3656,1069.7986,1070.8146000000002,1071.3151,1071.3152,1072.8254000000002,981.0,1072.8255,2.0,1072.8261,3.0,6.0,96.0,8.0,1.0,1.4,0.7,Time
,,S71,1,f,21,anonymized,Serial_Dependence_U,2023.2.3,Win32,59.88023952096852,,,,,,1072.8266,196.0,3.0,1072.827,196.0,,,,1076.9666000000002,1077.4653,1076.4563,1076.966,1073.8234000000002,1076.4561,1077.4655,1077.9654,1077.9655,1079.7646000000002,1002.0,1079.7647,1.0,1079.7653,3.0,7.0,97.0,29.0,1.0,1.6,0.7,Time
,,S71,1,f,21,anonymized,Serial_Dependence_U,2023.2.3,Win32,59.88023952096852,,,,,,1079.7657,336.0,3.0,1079.766,336.0,,,,1083.1312,1083.6314000000002,1082.6155,1083.131,1080.7825,1082.6151000000002,1083.6314000000002,1084.1321,1084.1322,1085.6818,896.0,1085.6819,4.0,1085.6824,3.0,8.0,98.0,25.0,1.0,0.8,0.7,Time
,,S71,1,f,21,anonymized,Serial_Dependence_U,2023.2.3,Win32,59.88023952096852,,,,,,1085.683,18.0,3.0,1085.6832,18.0,,,,1089.2828,1089.7806,1088.7673,1089.2825,1086.6989,1088.7668,1089.7806,1090.2815,1090.2816,1091.9152,1014.0,1091.9153,3.0,1091.916,3.0,9.0,99.0,21.0,1.0,1.0,0.3,Time
,,S71,1,f,21,anonymized,Serial_Dependence_U,2023.2.3,Win32,59.88023952096852,,,,,,1091.9166,94.0,3.0,1091.9169000000002,94.0,,,,1095.4827,1095.9816,1094.9659,1095.4822,1092.9322,1094.9655,1095.9817,1096.4809000000002,1096.481,1098.0982,784.0,1098.0983,2.0,1098.0989000000002,3.0,10.0,100.0,6.0,1.0,1.0,0.7,Time
,,S71,1,f,21,anonymized,Serial_Dependence_U,2023.2.3,Win32,59.88023952096852,,,,,,1098.0995,16.0,3.0,1098.0997,16.0,,,,1101.6985,1102.1981,1101.1839000000002,1101.6983,1099.1164,1101.1834,1102.1981,1102.6985,1102.6986000000002,1103.7977,533.0,1103.7978,1.0,1103.798,3.0,11.0,101.0,11.0,1.0,1.0,0.3,Time
,,S71,1,f,21,anonymized,Serial_Dependence_U,2023.2.3,Win32,59.88023952096852,,,,,,1103.7989000000002,7.0,3.0,1103.7992,7.0,,,,1107.1988,1107.6984000000002,1106.6822,1107.1983,1104.8149,1106.6814000000002,1107.6984000000002,1108.1988,1108.1989,1109.3414000000002,517.0,1109.3415,1.0,1109.3424000000002,3.0,12.0,102.0,20.0,1.0,0.8,0.3,Time
,,S71,1,f,21,anonymized,Serial_Dependence_U,2023.2.3,Win32,59.88023952096852,,,,,,1109.343,198.0,3.0,1109.3432,198.0,,,,1113.0992,1113.5983,1112.5815,1113.0988,1110.339,1112.5812,1113.5983,1114.0983,1114.0984,1115.6646,1003.0,1115.6647,2.0,1115.665,3.0,13.0,103.0,7.0,1.0,1.2,0.7,Time
,,S71,1,f,21,anonymized,Serial_Dependence_U,2023.2.3,Win32,59.88023952096852,,,,,,1115.6659000000002,237.0,3.0,1115.6662,237.0,,,,1119.4661,1119.9646,1118.9484000000002,1119.4654,1116.6826,1118.9481,1119.9646,1120.4646,1120.4647,1122.1478,1149.0,1122.1479000000002,3.0,1122.1483,3.0,14.0,104.0,22.0,1.0,1.2,0.3,Time
,,S71,1,f,21,anonymized,Serial_Dependence_U,2023.2.3,Win32,59.88023952096852,,,,,,1122.149,215.0,3.0,1122.1494000000002,215.0,,,,1125.5154000000002,1126.015,1125.0068,1125.5151,1123.1657,1125.0065,1126.015,1126.5216,1126.5217,1127.8813,823.0,1127.8813,3.0,1127.8816000000002,3.0,15.0,105.0,5.0,1.0,0.8,0.7,Time
,,S71,1,f,21,anonymized,Serial_Dependence_U,2023.2.3,Win32,59.88023952096852,,,,,,1127.8822,293.0,3.0,1127.8824000000002,293.0,,,,1131.2822,1131.7812,1130.7654000000002,1131.2816,1128.8994000000002,1130.765,1131.7812,1132.2808,1132.2808,1133.3814000000002,588.0,1133.3815,2.0,1133.382,3.0,16.0,106.0,0.0,1.0,0.8,0.3,Time
,,S71,1,f,21,anonymized,Serial_Dependence_U,2023.2.3,Win32,59.88023952096852,,,,,,1133.383,291.0,3.0,1133.3835,291.0,,,,1137.5663,1138.0647,1137.0504,1137.5657,1134.3827,1137.0499000000002,1138.0648,1138.5651,1138.5652,1140.4603,1419.0,1140.4604000000002,2.0,1140.4613000000002,3.0,17.0,107.0,14.0,1.0,1.6,0.3,Time
,,S71,1,f,21,anonymized,Serial_Dependence_U,2023.2.3,Win32,59.88023952096852,,,,,,1140.4617,262.0,3.0,1140.4619000000002,262.0,,,,1143.8647,1144.3652,1143.3584,1143.8644000000002,1141.4729000000002,1143.358,1144.3652,1144.8653000000002,1144.8654,1146.6751000000002,1168.0,1146.6754,5.0,1146.676,3.0,18.0,108.0,10.0,1.0,0.8,0.3,Time
,,S71,1,f,21,anonymized,Serial_Dependence_U,2023.2.3,Win32,59.88023952096852,,,,,,1146.6765,8.0,3.0,1146.6768,8.0,,,,1150.2342,1150.732,1149.7242,1150.2339000000002,1147.6825,1149.724,1150.7321000000002,1151.2316,1151.2318,1153.3145,1436.0,1153.3146000000002,5.0,1153.3151,3.0,19.0,109.0,16.0,1.0,1.0,0.7,Time
,,S71,1,f,21,anonymized,Serial_Dependence_U,2023.2.3,Win32,59.88023952096852,,,,,,1153.3159,105.0,3.0,1153.3163,105.0,,,,1156.9161,1157.414,1156.3988000000002,1156.9157,1154.3341,1156.3986000000002,1157.414,1157.9148,1157.9149000000002,1159.7647,1120.0,1159.7648000000002,4.0,1159.7657,3.0,20.0,110.0,1.0,1.0,1.0,0.3,Time
,,S71,1,f,21,anonymized,Serial_Dependence_U,2023.2.3,Win32,59.88023952096852,,,,,,1159.7664000000002,117.0,3.0,1159.7667,117.0,,,,1163.9164,1164.4148,1163.4147,1163.916,1160.7814,1163.4144,1164.4148,1164.9146,1164.9148,1167.0641,1101.0,1167.0641,1.0,1167.0643,3.0,21.0,111.0,9.0,1.0,1.6,0.7,Time
,,S71,1,f,21,anonymized,Serial_Dependence_U,2023.2.3,Win32,59.88023952096852,,,,,,1167.0646000000002,117.0,3.0,1167.0648,117.0,,,,1170.8237,1171.3152,1170.3157,1170.8234000000002,1168.0824000000002,1170.3153,1171.3153,1171.8148,1171.8149,1173.8407,1416.0,1173.8407,4.0,1173.8413,3.0,22.0,112.0,27.0,1.0,1.2,0.7,Time
,,S71,1,f,21,anonymized,Serial_Dependence_U,2023.2.3,Win32,59.88023952096852,,,,,,1173.8421,339.0,3.0,1173.8423,339.0,,,,1177.6157,1178.1152,1177.1078,1177.6153000000002,1174.8401,1177.1075,1178.1154,1178.6152,1178.6153000000002,1180.2244,1127.0,1180.2247,2.0,1180.2254000000005,3.0,23.0,113.0,12.0,1.0,1.2,0.3,Time
,,S71,1,f,21,anonymized,Serial_Dependence_U,2023.2.3,Win32,59.88023952096852,,,,,,1180.2261,201.0,3.0,1180.2262,201.0,,,,1184.2155,1184.7144,1183.6984000000002,1184.215,1181.224,1183.6982,1184.7145,1185.2149000000002,1185.2149000000002,1186.9319,963.0,1186.9321000000002,1.0,1186.9331000000002,3.0,24.0,114.0,23.0,1.0,1.4,0.3,Time
,,S71,1,f,21,anonymized,Serial_Dependence_U,2023.2.3,Win32,59.88023952096852,,,,,,1186.9342,342.0,3.0,1186.9345,342.0,,,,1190.732,1191.2313,1190.2155,1190.7317,1187.949,1190.2151,1191.2313,1191.7314,1191.7315,1193.4318,1218.0,1193.4319,3.0,1193.4327,3.0,25.0,115.0,2.0,1.0,1.2,0.3,Time
,,S71,1,f,21,anonymized,Serial_Dependence_U,2023.2.3,Win32,59.88023952096852,,,,,,1193.4334,324.0,3.0,1193.4342,324.0,,,,1197.406,1197.8983,1196.8825,1197.4057,1194.4491,1196.8821,1197.8983,1198.3988000000002,1198.3988000000002,1200.1218,1129.0,1200.122,2.0,1200.1227,3.0,26.0,116.0,28.0,1.0,1.4,0.7,Time
,,S71,1,f,21,anonymized,Serial_Dependence_U,2023.2.3,Win32,59.88023952096852,,,,,,1200.1233,164.0,3.0,1200.1234000000002,164.0,,,,1204.2661,1204.7654000000002,1203.7499000000005,1204.2658,1201.1171000000002,1203.7496,1204.7655,1205.2646000000002,1205.2647,1207.0809000000002,1085.0,1207.0811,1.0,1207.0818000000002,3.0,27.0,117.0,19.0,1.0,1.6,0.7,Time
,,S71,1,f,21,anonymized,Serial_Dependence_U,2023.2.3,Win32,59.88023952096852,,,,,,1207.0824000000002,47.0,3.0,1207.0826000000002,47.0,,,,1211.0827,1211.581,1210.5652,1211.0825,1208.0981000000002,1210.5649,1211.581,1212.0814000000005,1212.0815,1213.4515,859.0,1213.4516,1.0,1213.4524,3.0,28.0,118.0,13.0,1.0,1.4,0.3,Time
,,S71,1,f,21,anonymized,Serial_Dependence_U,2023.2.3,Win32,59.88023952096852,,,,,,1213.4531000000002,28.0,3.0,1213.4533,28.0,,,,1217.3992,1217.8982,1216.8906000000002,1217.3989,1214.4578,1216.8903,1217.8982,1218.3975,1218.3975,1220.1596000000002,1043.0,1220.1596000000002,2.0,1220.16,3.0,29.0,119.0,18.0,1.0,1.4,0.7,Time
,,S71,1,f,21,anonymized,Serial_Dependence_U,2023.2.3,Win32,59.88023952096852,,,,,,1220.1604000000002,14.0,4.0,1221.6155,14.0,s,1.438200000000279,,1225.4161,1225.9147,1224.9077,1225.4158,1222.6326,1224.9074,1225.9148,1226.4152,1226.4153,1227.7812,737.0,1227.7813,1.0,1227.7816,4.0,0.0,120.0,12.0,1.0,1.2,0.3,Time
,,S71,1,f,21,anonymized,Serial_Dependence_U,2023.2.3,Win32,59.88023952096852,,,,,,1227.7825,292.0,4.0,1227.7851,292.0,,,,1231.9491,1232.449,1231.4315,1231.9485,1228.7983000000002,1231.4312,1232.4491,1232.9488,1232.9488,1233.9483,418.0,1233.9484000000002,1.0,1233.9486000000002,4.0,1.0,121.0,29.0,1.0,1.6,0.7,Time
,,S71,1,f,21,anonymized,Serial_Dependence_U,2023.2.3,Win32,59.88023952096852,,,,,,1233.9491,10.0,4.0,1233.9497,10.0,,,,1237.9493,1238.4476000000002,1237.4328,1237.9491,1234.9657,1237.4325,1238.4477,1238.9486000000002,1238.9486000000002,1240.5317,889.0,1240.5318,1.0,1240.5322,4.0,2.0,122.0,13.0,1.0,1.4,0.3,Time
,,S71,1,f,21,anonymized,Serial_Dependence_U,2023.2.3,Win32,59.88023952096852,,,,,,1240.5328,274.0,4.0,1240.533,274.0,,,,1244.1325,1244.6313,1243.6163,1244.1321,1241.5498,1243.6159000000002,1244.6314000000002,1245.1314000000002,1245.1315,1246.5597,583.0,1246.5598,1.0,1246.5601,4.0,3.0,123.0,1.0,1.0,1.0,0.3,Time
,,S71,1,f,21,anonymized,Serial_Dependence_U,2023.2.3,Win32,59.88023952096852,,,,,,1246.5607,328.0,4.0,1246.5609000000002,328.0,,,,1250.7323,1251.2317,1250.2158000000002,1250.732,1247.5736000000002,1250.2153,1251.2317,1251.7312,1251.7313,1253.2812,849.0,1253.2813,1.0,1253.2817,4.0,4.0,124.0,19.0,1.0,1.6,0.7,Time
,,S71,1,f,21,anonymized,Serial_Dependence_U,2023.2.3,Win32,59.88023952096852,,,,,,1253.2821,292.0,4.0,1253.2823,292.0,,,,1257.2493,1257.7484000000002,1256.7323,1257.2491,1254.2981000000002,1256.7319000000002,1257.7484000000002,1258.249,1258.2491,1259.4486000000002,598.0,1259.4487,1.0,1259.4493,4.0,5.0,125.0,18.0,1.0,1.4,0.7,Time
,,S71,1,f,21,anonymized,Serial_Dependence_U,2023.2.3,Win32,59.88023952096852,,,,,,1259.4501,10.0,4.0,1259.4503,10.0,,,,1263.4161,1263.915,1262.8993,1263.4157,1260.4653,1262.899,1263.915,1264.4155,1264.4155,1265.5155,605.0,1265.5156000000002,1.0,1265.5159,4.0,6.0,126.0,28.0,1.0,1.4,0.7,Time
,,S71,1,f,21,anonymized,Serial_Dependence_U,2023.2.3,Win32,59.88023952096852,,,,,,1265.5165,198.0,4.0,1265.5166000000002,198.0,,,,1268.9152,1269.4147,1268.3989,1268.9147,1266.5325,1268.3987,1269.4148,1269.9152,1269.9153,1270.733,727.0,1270.7331,2.0,1270.7339000000002,4.0,7.0,127.0,20.0,1.0,0.8,0.3,Time
,,S71,1,f,21,anonymized,Serial_Dependence_U,2023.2.3,Win32,59.88023952096852,,,,,,1270.7344,152.0,4.0,1270.7346,152.0,,,,1274.5323,1275.0311000000002,1274.0166000000002,1274.5319000000002,1271.7496,1274.0153,1275.0325,1275.5316,1275.5316,1277.5584,967.0,1277.5584,2.0,1277.5589000000002,4.0,8.0,128.0,22.0,1.0,1.2,0.3,Time
,,S71,1,f,21,anonymized,Serial_Dependence_U,2023.2.3,Win32,59.88023952096852,,,,,,1277.5596,348.0,4.0,1277.5598,348.0,,,,1281.1159000000002,1281.6148,1280.6037,1281.1155,1278.5666,1280.6035,1281.6148,1282.1149000000005,1282.115,1283.815,863.0,1283.8151,2.0,1283.8162,4.0,9.0,129.0,16.0,1.0,1.0,0.7,Time
,,S71,1,f,21,anonymized,Serial_Dependence_U,2023.2.3,Win32,59.88023952096852,,,,,,1283.8169000000005,132.0,4.0,1283.8171000000002,132.0,,,,1287.7822,1288.2821,1287.2654000000002,1287.7818,1284.832,1287.2651,1288.2821,1288.7813,1288.7814,1290.3935,613.0,1290.3936,1.0,1290.3944,4.0,10.0,130.0,8.0,1.0,1.4,0.7,Time
,,S71,1,f,21,anonymized,Serial_Dependence_U,2023.2.3,Win32,59.88023952096852,,,,,,1290.3949000000002,205.0,4.0,1290.3951000000002,205.0,,,,1293.9985,1294.4984000000002,1293.4901000000002,1293.9983,1291.4071,1293.4899000000005,1294.4984000000002,1294.9983,1294.9984000000002,1296.6486000000002,690.0,1296.6486000000002,1.0,1296.6494000000002,4.0,11.0,131.0,21.0,1.0,1.0,0.3,Time
,,S71,1,f,21,anonymized,Serial_Dependence_U,2023.2.3,Win32,59.88023952096852,,,,,,1296.65,164.0,4.0,1296.6504000000002,164.0,,,,1300.0317,1300.5319000000002,1299.5148000000002,1300.0315,1297.6681,1299.5146000000002,1300.5319000000002,1301.0316,1301.0317,1302.2145,653.0,1302.2146,2.0,1302.2151,4.0,12.0,132.0,15.0,1.0,0.8,0.7,Time
,,S71,1,f,21,anonymized,Serial_Dependence_U,2023.2.3,Win32,59.88023952096852,,,,,,1302.2158000000002,166.0,4.0,1302.2161,166.0,,,,1305.9823,1306.4815,1305.4659,1305.9821000000002,1303.2321000000002,1305.4654,1306.4815,1306.982,1306.9821000000002,1308.5149,714.0,1308.5151,1.0,1308.5155,4.0,13.0,133.0,27.0,1.0,1.2,0.7,Time
,,S71,1,f,21,anonymized,Serial_Dependence_U,2023.2.3,Win32,59.88023952096852,,,,,,1308.516,88.0,4.0,1308.5162,88.0,,,,1312.5164000000002,1313.0148000000002,1311.9997,1312.5161,1309.533,1311.9994000000002,1313.0148000000002,1313.5159,1313.516,1315.2825,748.0,1315.2825,1.0,1315.2831,4.0,14.0,134.0,23.0,1.0,1.4,0.3,Time
,,S71,1,f,21,anonymized,Serial_Dependence_U,2023.2.3,Win32,59.88023952096852,,,,,,1315.2837,127.0,4.0,1315.2839,127.0,,,,1318.8494,1319.3487,1318.3334000000002,1318.8492,1316.2997,1318.3329,1319.3487,1319.8485,1319.8487,1320.9149000000002,301.0,1320.915,1.0,1320.9156,4.0,15.0,135.0,6.0,1.0,1.0,0.7,Time
,,S71,1,f,21,anonymized,Serial_Dependence_U,2023.2.3,Win32,59.88023952096852,,,,,,1320.9164,9.0,4.0,1320.9166,9.0,,,,1324.3154000000002,1324.8153,1323.7998,1324.3152,1321.9325,1323.7994,1324.8154000000002,1325.3149,1325.315,1326.9313,1004.0,1326.9314000000002,4.0,1326.9319,4.0,16.0,136.0,0.0,1.0,0.8,0.3,Time
,,S71,1,f,21,anonymized,Serial_Dependence_U,2023.2.3,Win32,59.88023952096852,,,,,,1326.9325,302.0,4.0,1326.9329000000002,302.0,,,,1330.5323,1331.0316,1330.017,1330.5318,1327.9489,1330.0166000000002,1331.0316,1331.5335,1331.5336000000002,1333.2991000000002,785.0,1333.2992,2.0,1333.2998,4.0,17.0,137.0,11.0,1.0,1.0,0.3,Time
,,S71,1,f,21,anonymized,Serial_Dependence_U,2023.2.3,Win32,59.88023952096852,,,,,,1333.3005,259.0,4.0,1333.3007,259.0,,,,1337.4663,1337.9649000000002,1336.949,1337.4662,1334.3158,1336.9486000000002,1337.9651,1338.464,1338.4641,1340.2315,1011.0,1340.2316,1.0,1340.2324,4.0,18.0,138.0,9.0,1.0,1.6,0.7,Time
,,S71,1,f,21,anonymized,Serial_Dependence_U,2023.2.3,Win32,59.88023952096852,,,,,,1340.2332,135.0,4.0,1340.2335,135.0,,,,1344.4158,1344.9142,1343.8989,1344.4155,1341.2324,1343.8986000000002,1344.9142,1345.4146,1345.4148,1347.0142,982.0,1347.0142,1.0,1347.0145,4.0,19.0,139.0,14.0,1.0,1.6,0.3,Time
,,S71,1,f,21,anonymized,Serial_Dependence_U,2023.2.3,Win32,59.88023952096852,,,,,,1347.0149,358.0,4.0,1347.0151,358.0,,,,1350.4151000000002,1350.9146,1349.8982,1350.4149000000002,1348.0314,1349.898,1350.9147,1351.4142,1351.4143,1353.1317,839.0,1353.1317,3.0,1353.1321,4.0,20.0,140.0,10.0,1.0,0.8,0.3,Time
,,S71,1,f,21,anonymized,Serial_Dependence_U,2023.2.3,Win32,59.88023952096852,,,,,,1353.1325,223.0,4.0,1353.1327,223.0,,,,1356.4979,1356.9975,1355.9815,1356.4976,1354.1482,1355.9812,1356.9975,1357.4976,1357.4976,1359.8813,1085.0,1359.8815,5.0,1359.8819,4.0,21.0,141.0,5.0,1.0,0.8,0.7,Time
,,S71,1,f,21,anonymized,Serial_Dependence_U,2023.2.3,Win32,59.88023952096852,,,,,,1359.8825,129.0,4.0,1359.8826,129.0,,,,1364.0813,1364.5812,1363.5648,1364.0812,1360.898,1363.5645,1364.5812,1365.0814000000005,1365.0815,1366.6644,970.0,1366.6645,1.0,1366.6649000000002,4.0,22.0,142.0,24.0,1.0,1.6,0.3,Time
,,S71,1,f,21,anonymized,Serial_Dependence_U,2023.2.3,Win32,59.88023952096852,,,,,,1366.6653,252.0,4.0,1366.6654,252.0,,,,1370.4328,1370.9311,1369.9159000000002,1370.4324,1367.681,1369.9154,1370.9311,1371.4311,1371.4311,1373.0988,939.0,1373.0991,2.0,1373.1001,4.0,23.0,143.0,17.0,1.0,1.2,0.7,Time
,,S71,1,f,21,anonymized,Serial_Dependence_U,2023.2.3,Win32,59.88023952096852,,,,,,1373.1009,331.0,4.0,1373.1012,331.0,,,,1376.8665,1377.3655,1376.3494,1376.8662,1374.1149000000005,1376.3491,1377.3655,1377.8656,1377.8657,1379.0157,367.0,1379.0158,1.0,1379.0164000000002,4.0,24.0,144.0,7.0,1.0,1.2,0.7,Time
,,S71,1,f,21,anonymized,Serial_Dependence_U,2023.2.3,Win32,59.88023952096852,,,,,,1379.0171,334.0,4.0,1379.0173,334.0,,,,1383.0152,1383.5157,1382.499,1383.0149,1380.0327,1382.4987,1383.5157,1384.0154000000002,1384.0155,1385.8188,917.0,1385.819,1.0,1385.8194,4.0,25.0,145.0,3.0,1.0,1.4,0.3,Time
,,S71,1,f,21,anonymized,Serial_Dependence_U,2023.2.3,Win32,59.88023952096852,,,,,,1385.8201,316.0,4.0,1385.8203,316.0,,,,1389.3821,1389.8809,1388.8653000000002,1389.3818,1386.8321,1388.865,1389.8809,1390.3818,1390.3819,1392.275,816.0,1392.275,2.0,1392.2755,4.0,26.0,146.0,26.0,1.0,1.0,0.7,Time
,,S71,1,f,21,anonymized,Serial_Dependence_U,2023.2.3,Win32,59.88023952096852,,,,,,1392.2759,226.0,4.0,1392.2761,226.0,,,,1395.6329,1396.1313,1395.1168,1395.6326,1393.2831,1395.1164,1396.1313,1396.6315,1396.6317,1398.1328,752.0,1398.133,2.0,1398.1337,4.0,27.0,147.0,25.0,1.0,0.8,0.7,Time
,,S71,1,f,21,anonymized,Serial_Dependence_U,2023.2.3,Win32,59.88023952096852,,,,,,1398.1345,92.0,4.0,1398.135,92.0,,,,1401.9323000000002,1402.4319,1401.4157,1401.9319,1399.149,1401.4155,1402.432,1402.9326,1402.9327,1404.7424,1061.0,1404.7424,2.0,1404.7429000000002,4.0,28.0,148.0,2.0,1.0,1.2,0.3,Time
,,S71,1,f,21,anonymized,Serial_Dependence_U,2023.2.3,Win32,59.88023952096852,,,,,,1404.7434,305.0,4.0,1404.7439000000002,305.0,,,,1408.9578,1409.4556,1408.4402,1408.9574000000002,1405.7731,1408.4398,1409.4557,1409.9565,1409.9565,1411.2081,616.0,1411.2083,1.0,1411.2087,4.0,29.0,149.0,4.0,1.0,1.6,0.3,Time
,,S71,1,f,21,anonymized,Serial_Dependence_U,2023.2.3,Win32,59.88023952096852,,,,,,1411.2094000000002,217.0,5.0,1412.7985,217.0,s,1.5669000000000324,,1416.1821000000002,1416.6819,1415.6656,1416.1816,1413.8246,1415.6654,1416.682,1417.1817,1417.1818,1418.8828,1132.0,1418.8828,5.0,1418.8835,5.0,0.0,150.0,25.0,1.0,0.8,0.7,Time
,,S71,1,f,21,anonymized,Serial_Dependence_U,2023.2.3,Win32,59.88023952096852,,,,,,1418.8841000000002,70.0,5.0,1418.8864,70.0,,,,1422.4831,1422.9814,1421.9663,1422.4828,1419.8996000000002,1421.9659,1422.9814,1423.4817,1423.4818,1425.1486000000002,799.0,1425.1486000000002,2.0,1425.1491,5.0,1.0,151.0,11.0,1.0,1.0,0.3,Time
,,S71,1,f,21,anonymized,Serial_Dependence_U,2023.2.3,Win32,59.88023952096852,,,,,,1425.1499,175.0,5.0,1425.15,175.0,,,,1428.5495,1429.048,1428.0332,1428.5489000000002,1426.1655,1428.0329000000002,1429.048,1429.5487,1429.5487,1430.8989,564.0,1430.899,2.0,1430.8994000000002,5.0,2.0,152.0,0.0,1.0,0.8,0.3,Time
,,S71,1,f,21,anonymized,Serial_Dependence_U,2023.2.3,Win32,59.88023952096852,,,,,,1430.9,227.0,5.0,1430.9002,227.0,,,,1435.05,1435.5485,1434.5321,1435.0494,1431.9004000000002,1434.5318,1435.5485,1436.0485,1436.0487,1437.2813,450.0,1437.2814,1.0,1437.2823,5.0,3.0,153.0,9.0,1.0,1.6,0.7,Time
,,S71,1,f,21,anonymized,Serial_Dependence_U,2023.2.3,Win32,59.88023952096852,,,,,,1437.2828,86.0,5.0,1437.283,86.0,,,,1441.0487,1441.5488,1440.5322,1441.0485,1438.2996,1440.5319000000002,1441.5489000000002,1442.0482,1442.0482,1443.6647,753.0,1443.6647,1.0,1443.6651000000002,5.0,4.0,154.0,17.0,1.0,1.2,0.7,Time
,,S71,1,f,21,anonymized,Serial_Dependence_U,2023.2.3,Win32,59.88023952096852,,,,,,1443.6659000000002,339.0,5.0,1443.6663,339.0,,,,1447.2324,1447.7314,1446.7155,1447.2322,1444.6827,1446.715,1447.7315,1448.2321000000002,1448.2322,1449.5322,974.0,1449.5323,3.0,1449.5329000000002,5.0,5.0,155.0,16.0,1.0,1.0,0.7,Time
,,S71,1,f,21,anonymized,Serial_Dependence_U,2023.2.3,Win32,59.88023952096852,,,,,,1449.5341,347.0,5.0,1449.5346000000002,347.0,,,,1453.0897,1453.5824000000002,1452.5822,1453.0894,1450.5491000000002,1452.5819,1453.5824000000002,1454.0827,1454.0828,1456.4158,1147.0,1456.4158,4.0,1456.4163,5.0,6.0,156.0,26.0,1.0,1.0,0.7,Time
,,S71,1,f,21,anonymized,Serial_Dependence_U,2023.2.3,Win32,59.88023952096852,,,,,,1456.4168,65.0,5.0,1456.417,65.0,,,,1459.8163,1460.3155,1459.2992,1459.816,1457.4315,1459.2987,1460.3157,1460.8149,1460.815,1462.4326,694.0,1462.4327,2.0,1462.4333,5.0,7.0,157.0,20.0,1.0,0.8,0.3,Time
,,S71,1,f,21,anonymized,Serial_Dependence_U,2023.2.3,Win32,59.88023952096852,,,,,,1462.4341000000002,214.0,5.0,1462.4345,214.0,,,,1466.3992,1466.8986000000002,1465.8823,1466.3988000000002,1463.4495,1465.8821,1466.8986000000002,1467.3983,1467.3985,1469.0647,852.0,1469.0648,1.0,1469.0655,5.0,8.0,158.0,28.0,1.0,1.4,0.7,Time
,,S71,1,f,21,anonymized,Serial_Dependence_U,2023.2.3,Win32,59.88023952096852,,,,,,1469.0661,349.0,5.0,1469.0663,349.0,,,,1472.8656,1473.3648,1472.3485,1472.865,1470.0819,1472.3483,1473.3649000000005,1473.8646,1473.8646,1474.7981000000002,371.0,1474.7981000000002,1.0,1474.7984,5.0,9.0,159.0,2.0,1.0,1.2,0.3,Time
,,S71,1,f,21,anonymized,Serial_Dependence_U,2023.2.3,Win32,59.88023952096852,,,,,,1474.799,164.0,5.0,1474.7994,164.0,,,,1478.9995,1479.4987,1478.4824,1478.9988,1475.8154000000002,1478.4821000000002,1479.4988,1479.9988,1479.9988,1481.5588,984.0,1481.5589000000002,1.0,1481.5594,5.0,10.0,160.0,24.0,1.0,1.6,0.3,Time
,,S71,1,f,21,anonymized,Serial_Dependence_U,2023.2.3,Win32,59.88023952096852,,,,,,1481.5599000000002,208.0,5.0,1481.56,208.0,,,,1485.516,1486.0152,1485.0073,1485.5155,1482.5589000000002,1485.0068,1486.0153,1486.5155,1486.5157,1487.7483,713.0,1487.7484000000002,1.0,1487.7488,5.0,11.0,161.0,8.0,1.0,1.4,0.7,Time
,,S71,1,f,21,anonymized,Serial_Dependence_U,2023.2.3,Win32,59.88023952096852,,,,,,1487.7494000000002,77.0,5.0,1487.75,77.0,,,,1491.5048000000002,1491.9989,1490.9824,1491.5043,1488.7494000000002,1490.982,1491.999,1492.4984000000002,1492.4985,1494.2825,1043.0,1494.2826,2.0,1494.2833,5.0,12.0,162.0,7.0,1.0,1.2,0.7,Time
,,S71,1,f,21,anonymized,Serial_Dependence_U,2023.2.3,Win32,59.88023952096852,,,,,,1494.2842,168.0,5.0,1494.2845,168.0,,,,1498.4828,1498.9825,1497.9658000000002,1498.4825,1495.3001000000002,1497.9654,1498.9826,1499.4823,1499.4824,1500.9645,868.0,1500.9646,1.0,1500.9648,5.0,13.0,163.0,14.0,1.0,1.6,0.3,Time
,,S71,1,f,21,anonymized,Serial_Dependence_U,2023.2.3,Win32,59.88023952096852,,,,,,1500.9657,19.0,5.0,1500.966,19.0,,,,1504.9662,1505.4652,1504.4491,1504.9658000000002,1501.9827,1504.4485,1505.4653,1505.965,1505.9651,1507.5254000000002,700.0,1507.5254000000002,1.0,1507.5258,5.0,14.0,164.0,13.0,1.0,1.4,0.3,Time
,,S71,1,f,21,anonymized,Serial_Dependence_U,2023.2.3,Win32,59.88023952096852,,,,,,1507.5262,208.0,5.0,1507.5263,208.0,,,,1510.908,1511.3985,1510.389,1510.9078,1508.523,1510.3886,1511.3986000000002,1511.902,1511.9022,1513.2324,612.0,1513.2325,2.0,1513.2331,5.0,15.0,165.0,10.0,1.0,0.8,0.3,Time
,,S71,1,f,21,anonymized,Serial_Dependence_U,2023.2.3,Win32,59.88023952096852,,,,,,1513.2336,273.0,5.0,1513.2338,273.0,,,,1517.216,1517.7149000000002,1516.6989,1517.2156,1514.2328,1516.6986000000002,1517.715,1518.2151,1518.2151,1520.0209000000002,958.0,1520.021,1.0,1520.0213,5.0,16.0,166.0,23.0,1.0,1.4,0.3,Time
,,S71,1,f,21,anonymized,Serial_Dependence_U,2023.2.3,Win32,59.88023952096852,,,,,,1520.0219000000002,199.0,5.0,1520.022,199.0,,,,1523.9825,1524.482,1523.4658000000002,1523.9823,1521.0336000000002,1523.4655,1524.4821000000002,1524.9822,1524.9824,1526.2153,630.0,1526.2154,1.0,1526.2157,5.0,17.0,167.0,18.0,1.0,1.4,0.7,Time
,,S71,1,f,21,anonymized,Serial_Dependence_U,2023.2.3,Win32,59.88023952096852,,,,,,1526.2164000000002,169.0,5.0,1526.2166000000002,169.0,,,,1529.5833,1530.0821,1529.0724000000002,1529.5827,1527.2322,1529.0723,1530.0822,1530.582,1530.5821,1533.2537,762.0,1533.2538,3.0,1533.2542,5.0,18.0,168.0,5.0,1.0,0.8,0.7,Time
,,S71,1,f,21,anonymized,Serial_Dependence_U,2023.2.3,Win32,59.88023952096852,,,,,,1533.2548000000002,196.0,5.0,1533.2551,196.0,,,,1537.0712,1537.5724000000002,1536.5488,1537.0709000000002,1534.2754000000002,1536.5484,1537.5725,1538.0657,1538.066,1539.8652,949.0,1539.8652,2.0,1539.8659000000002,5.0,19.0,169.0,12.0,1.0,1.2,0.3,Time
,,S71,1,f,21,anonymized,Serial_Dependence_U,2023.2.3,Win32,59.88023952096852,,,,,,1539.8666,304.0,5.0,1539.8668,304.0,,,,1543.6657,1544.1644,1543.1484000000005,1543.6654,1540.8833,1543.1483,1544.1644,1544.6656,1544.6656,1546.5149,1104.0,1546.515,2.0,1546.5155,5.0,20.0,170.0,22.0,1.0,1.2,0.3,Time
,,S71,1,f,21,anonymized,Serial_Dependence_U,2023.2.3,Win32,59.88023952096852,,,,,,1546.5161,127.0,5.0,1546.5163,127.0,,,,1550.516,1551.0155,1550.0008,1550.5158,1547.5334000000005,1550.0004,1551.0156000000002,1551.5157,1551.5157,1552.9816,386.0,1552.9817,1.0,1552.9821000000002,5.0,21.0,171.0,3.0,1.0,1.4,0.3,Time
,,S71,1,f,21,anonymized,Serial_Dependence_U,2023.2.3,Win32,59.88023952096852,,,,,,1552.9826,160.0,5.0,1552.9829000000002,160.0,,,,1556.7499000000005,1557.2485,1556.2331,1556.7493,1553.9991,1556.2327,1557.2485,1557.7485,1557.7486,1559.3155,932.0,1559.3156,2.0,1559.3164000000002,5.0,22.0,172.0,27.0,1.0,1.2,0.7,Time
,,S71,1,f,21,anonymized,Serial_Dependence_U,2023.2.3,Win32,59.88023952096852,,,,,,1559.3172,95.0,5.0,1559.3174,95.0,,,,1562.9158,1563.4155,1562.3996000000002,1562.9156,1560.3325,1562.3992,1563.4155,1563.9158,1563.9159000000002,1565.375,499.0,1565.3754,1.0,1565.376,5.0,23.0,173.0,1.0,1.0,1.0,0.3,Time
,,S71,1,f,21,anonymized,Serial_Dependence_U,2023.2.3,Win32,59.88023952096852,,,,,,1565.3765,210.0,5.0,1565.3766,210.0,,,,1568.9828,1569.4818,1568.4651,1568.9823,1566.3913,1568.4649000000002,1569.4818,1569.9818,1569.9819000000002,1571.4272,787.0,1571.4273,2.0,1571.4279,5.0,24.0,174.0,21.0,1.0,1.0,0.3,Time
,,S71,1,f,21,anonymized,Serial_Dependence_U,2023.2.3,Win32,59.88023952096852,,,,,,1571.4284000000002,35.0,5.0,1571.4286000000002,35.0,,,,1575.6004000000005,1576.0986,1575.0927,1575.6002,1572.457,1575.0924000000002,1576.0986,1576.5983,1576.5984,1577.9992,816.0,1577.9993,1.0,1578.0,5.0,25.0,175.0,19.0,1.0,1.6,0.7,Time
,,S71,1,f,21,anonymized,Serial_Dependence_U,2023.2.3,Win32,59.88023952096852,,,,,,1578.0004,99.0,5.0,1578.0009000000002,99.0,,,,1582.1666,1582.6649000000002,1581.6492,1582.1664,1579.0162,1581.6489,1582.665,1583.165,1583.1651000000002,1584.6917,683.0,1584.692,1.0,1584.6924,5.0,26.0,176.0,29.0,1.0,1.6,0.7,Time
,,S71,1,f,21,anonymized,Serial_Dependence_U,2023.2.3,Win32,59.88023952096852,,,,,,1584.6929000000002,186.0,5.0,1584.6931000000002,186.0,,,,1588.0498,1588.5488,1587.5486,1588.0495,1585.7065,1587.548,1588.5489000000002,1589.0484,1589.0485,1590.5985,432.0,1590.5987,1.0,1590.599,5.0,27.0,177.0,15.0,1.0,0.8,0.7,Time
,,S71,1,f,21,anonymized,Serial_Dependence_U,2023.2.3,Win32,59.88023952096852,,,,,,1590.5999000000002,21.0,5.0,1590.6003,21.0,,,,1594.7995,1595.2994,1594.2829000000002,1594.7992,1591.6149000000005,1594.2824,1595.2995,1595.7986,1595.7987,1597.1328,578.0,1597.133,1.0,1597.1341000000002,5.0,28.0,178.0,4.0,1.0,1.6,0.3,Time
,,S71,1,f,21,anonymized,Serial_Dependence_U,2023.2.3,Win32,59.88023952096852,,,,,,1597.1347,187.0,5.0,1597.135,187.0,,,,1600.6749000000002,1601.166,1600.1667,1600.6746,1598.1337,1600.1663,1601.166,1601.6645,1601.6646,1603.6149000000005,702.0,1603.6149000000005,2.0,1603.6153000000002,5.0,29.0,179.0,6.0,1.0,1.0,0.7,Time
,,S71,1,f,21,anonymized,Serial_Dependence_U,2023.2.3,Win32,59.88023952096852,,,,,,1603.6161000000002,193.0,6.0,1605.1817,193.0,s,1.5457000000001244,,1608.9322,1609.4326,1608.4157,1608.9319,1606.1823000000002,1608.4153,1609.4327,1609.9318,1609.9318,1635.8083,716.0,1635.8084,1.0,1635.8088,6.0,0.0,180.0,7.0,1.0,1.2,0.7,Time
,,S71,1,f,21,anonymized,Serial_Dependence_U,2023.2.3,Win32,59.88023952096852,,,,,,1635.8092,126.0,6.0,1635.8109000000002,126.0,,,,1639.1741000000002,1639.6722,1638.6577,1639.1739000000002,1636.8168,1638.6573,1639.6724000000002,1640.1655,1640.1656,1642.059,864.0,1642.0591000000002,4.0,1642.0598,6.0,1.0,181.0,5.0,1.0,0.8,0.7,Time
,,S71,1,f,21,anonymized,Serial_Dependence_U,2023.2.3,Win32,59.88023952096852,,,,,,1642.0603,242.0,6.0,1642.0605,242.0,,,,1645.8482,1646.3484,1645.334,1645.848,1643.0663,1645.3334000000002,1646.3484,1646.849,1646.8491,1648.3989,611.0,1648.3991,1.0,1648.3999,6.0,2.0,182.0,22.0,1.0,1.2,0.3,Time
,,S71,1,f,21,anonymized,Serial_Dependence_U,2023.2.3,Win32,59.88023952096852,,,,,,1648.4006000000002,66.0,6.0,1648.4009,66.0,,,,1652.3657,1652.8654,1651.8492,1652.3654,1649.4155,1651.849,1652.8654,1653.3653000000002,1653.3653000000002,1655.9818,1114.0,1655.9818,2.0,1655.9823,6.0,3.0,183.0,18.0,1.0,1.4,0.7,Time
,,S71,1,f,21,anonymized,Serial_Dependence_U,2023.2.3,Win32,59.88023952096852,,,,,,1655.9828,110.0,6.0,1655.9833,110.0,,,,1659.3826,1659.8823,1658.8666,1659.3821,1656.9981,1658.8662,1659.8824000000002,1660.3825,1660.3826,1662.6599,685.0,1662.6601,2.0,1662.6607,6.0,4.0,184.0,10.0,1.0,0.8,0.3,Time
,,S71,1,f,21,anonymized,Serial_Dependence_U,2023.2.3,Win32,59.88023952096852,,,,,,1662.6613,177.0,6.0,1662.6615,177.0,,,,1666.283,1666.7824,1665.7746000000002,1666.2827,1663.6922,1665.7743,1666.7827,1667.2822,1667.2822,1669.2818,868.0,1669.2819000000002,2.0,1669.2824,6.0,5.0,185.0,11.0,1.0,1.0,0.3,Time
,,S71,1,f,21,anonymized,Serial_Dependence_U,2023.2.3,Win32,59.88023952096852,,,,,,1669.2829000000002,232.0,6.0,1669.2831,232.0,,,,1673.4828,1673.9819000000002,1672.9665,1673.4825,1670.2999000000002,1672.966,1673.982,1674.4821000000002,1674.4821000000002,1676.1265,636.0,1676.1266,1.0,1676.1269000000002,6.0,6.0,186.0,4.0,1.0,1.6,0.3,Time
,,S71,1,f,21,anonymized,Serial_Dependence_U,2023.2.3,Win32,59.88023952096852,,,,,,1676.1274,194.0,6.0,1676.1275,194.0,,,,1680.3156,1680.8152,1679.8073000000002,1680.3153,1677.1404000000002,1679.807,1680.8153,1681.3152,1681.3153,1683.7153,786.0,1683.7153,1.0,1683.7159,6.0,7.0,187.0,24.0,1.0,1.6,0.3,Time
,,S71,1,f,21,anonymized,Serial_Dependence_U,2023.2.3,Win32,59.88023952096852,,,,,,1683.7167,64.0,6.0,1683.717,64.0,,,,1687.0989000000002,1687.5983,1686.5828,1687.0985,1684.7168,1686.5824000000002,1687.5983,1688.0983,1688.0983,1689.9261,817.0,1689.9262,3.0,1689.9269000000002,6.0,8.0,188.0,0.0,1.0,0.8,0.3,Time
,,S71,1,f,21,anonymized,Serial_Dependence_U,2023.2.3,Win32,59.88023952096852,,,,,,1689.9274000000005,269.0,6.0,1689.9275,269.0,,,,1693.2908,1693.7821,1692.7668,1693.2905,1690.9331000000002,1692.7664000000002,1693.7822,1694.2894,1694.2894,1696.5152,1154.0,1696.5152,5.0,1696.5156000000002,6.0,9.0,189.0,15.0,1.0,0.8,0.7,Time
,,S71,1,f,21,anonymized,Serial_Dependence_U,2023.2.3,Win32,59.88023952096852,,,,,,1696.516,331.0,6.0,1696.5162,331.0,,,,1700.0822,1700.5821,1699.5656,1700.0819,1697.5321,1699.5654000000002,1700.5822,1701.0815,1701.0816000000002,1702.6186,667.0,1702.6187,1.0,1702.6196000000002,6.0,10.0,190.0,6.0,1.0,1.0,0.7,Time
,,S71,1,f,21,anonymized,Serial_Dependence_U,2023.2.3,Win32,59.88023952096852,,,,,,1702.6201,275.0,6.0,1702.6203,275.0,,,,1706.5994,1707.0991,1706.0919,1706.5991,1703.6243,1706.0917,1707.0991,1707.5993,1707.5994,1709.4161,1024.0,1709.4163,2.0,1709.4166,6.0,11.0,191.0,13.0,1.0,1.4,0.3,Time
,,S71,1,f,21,anonymized,Serial_Dependence_U,2023.2.3,Win32,59.88023952096852,,,,,,1709.4172,125.0,6.0,1709.4174,125.0,,,,1712.9999000000005,1713.4979,1712.4983,1712.9995,1710.4327,1712.4982,1713.498,1713.9987,1713.9987,1715.4827,936.0,1715.4827,2.0,1715.4831,6.0,12.0,192.0,21.0,1.0,1.0,0.3,Time
,,S71,1,f,21,anonymized,Serial_Dependence_U,2023.2.3,Win32,59.88023952096852,,,,,,1715.4837,302.0,6.0,1715.4842,302.0,,,,1719.0671000000002,1719.5658,1718.5655,1719.0667,1716.4995,1718.5652,1719.5658,1720.065,1720.065,1721.7769,638.0,1721.7769,1.0,1721.7772,6.0,13.0,193.0,1.0,1.0,1.0,0.3,Time
,,S71,1,f,21,anonymized,Serial_Dependence_U,2023.2.3,Win32,59.88023952096852,,,,,,1721.7777,163.0,6.0,1721.7778,163.0,,,,1725.959,1726.4489,1725.4334,1725.9585,1722.7998,1725.433,1726.449,1726.9497,1726.9499,1728.354,761.0,1728.3541,1.0,1728.3545,6.0,14.0,194.0,29.0,1.0,1.6,0.7,Time
,,S71,1,f,21,anonymized,Serial_Dependence_U,2023.2.3,Win32,59.88023952096852,,,,,,1728.3551,293.0,6.0,1728.3554,293.0,,,,1731.9173,1732.4157,1731.4073,1731.9166,1729.3745,1731.407,1732.4158,1732.9154,1732.9155,1734.6259000000002,619.0,1734.6262,1.0,1734.6266,6.0,15.0,195.0,16.0,1.0,1.0,0.7,Time
,,S71,1,f,21,anonymized,Serial_Dependence_U,2023.2.3,Win32,59.88023952096852,,,,,,1734.6272,9.0,6.0,1734.6275,9.0,,,,1738.5833,1739.082,1738.0662,1738.5829,1735.6324000000002,1738.0655,1739.082,1739.5816000000002,1739.5817,1741.4981,749.0,1741.4982,1.0,1741.4985,6.0,16.0,196.0,28.0,1.0,1.4,0.7,Time
,,S71,1,f,21,anonymized,Serial_Dependence_U,2023.2.3,Win32,59.88023952096852,,,,,,1741.499,203.0,6.0,1741.4995,203.0,,,,1745.6671,1746.1657,1745.1503,1745.6667,1742.5164000000002,1745.1497,1746.1659000000002,1746.6657,1746.6659000000002,1748.8435,817.0,1748.8436000000002,1.0,1748.8439,6.0,17.0,197.0,19.0,1.0,1.6,0.7,Time
,,S71,1,f,21,anonymized,Serial_Dependence_U,2023.2.3,Win32,59.88023952096852,,,,,,1748.8443,55.0,6.0,1748.8445,55.0,,,,1752.2498,1752.7489,1751.7428,1752.2493,1749.8576,1751.7426,1752.749,1753.248,1753.2482,1754.666,631.0,1754.6661,2.0,1754.6667,6.0,18.0,198.0,20.0,1.0,0.8,0.3,Time
,,S71,1,f,21,anonymized,Serial_Dependence_U,2023.2.3,Win32,59.88023952096852,,,,,,1754.6673,104.0,6.0,1754.668,104.0,,,,1758.2335,1758.7326,1757.7154,1758.2333,1755.6819,1757.7152,1758.7327,1759.2316,1759.2317,1761.2418,1272.0,1761.2419000000002,4.0,1761.2425,6.0,19.0,199.0,26.0,1.0,1.0,0.7,Time
,,S71,1,f,21,anonymized,Serial_Dependence_U,2023.2.3,Win32,59.88023952096852,,,,,,1761.2428,181.0,6.0,1761.2432,181.0,,,,1765.3829,1765.8816000000002,1764.8764,1765.3825,1762.2421000000002,1764.876,1765.8816000000002,1766.3874,1766.3874,1775.4253,583.0,1775.4253,1.0,1775.4257,6.0,20.0,200.0,9.0,1.0,1.6,0.7,Time
,,S71,1,f,21,anonymized,Serial_Dependence_U,2023.2.3,Win32,59.88023952096852,,,,,,1775.4261,359.0,6.0,1775.4263,359.0,,,,1779.3664,1779.8653000000002,1778.8495,1779.3661000000002,1776.4171,1778.8487,1779.8653000000002,1780.3653000000002,1780.3654,1782.0314,1053.0,1782.0315,2.0,1782.032,6.0,21.0,201.0,8.0,1.0,1.4,0.7,Time
,,S71,1,f,21,anonymized,Serial_Dependence_U,2023.2.3,Win32,59.88023952096852,,,,,,1782.0324,222.0,6.0,1782.0329000000002,222.0,,,,1785.8233,1786.3155,1785.2996,1785.8231,1783.0325,1785.299,1786.3157,1786.8154000000002,1786.8155,1789.8277,1269.0,1789.8278,4.0,1789.8285,6.0,22.0,202.0,12.0,1.0,1.2,0.3,Time
,,S71,1,f,21,anonymized,Serial_Dependence_U,2023.2.3,Win32,59.88023952096852,,,,,,1789.829,101.0,6.0,1789.8291000000002,101.0,,,,1793.1994000000002,1793.6989,1792.6913,1793.1991,1790.8411,1792.6909,1793.6989,1794.1985,1794.1986000000002,1795.7817,767.0,1795.7818,3.0,1795.7822,6.0,23.0,203.0,25.0,1.0,0.8,0.7,Time
,,S71,1,f,21,anonymized,Serial_Dependence_U,2023.2.3,Win32,59.88023952096852,,,,,,1795.7831,87.0,6.0,1795.7835,87.0,,,,1799.7825,1800.2819000000002,1799.2653,1799.7821,1796.7997,1799.2651,1800.2819000000002,1800.7817,1800.7818,1802.9432,909.0,1802.9432,1.0,1802.9439,6.0,24.0,204.0,23.0,1.0,1.4,0.3,Time
,,S71,1,f,21,anonymized,Serial_Dependence_U,2023.2.3,Win32,59.88023952096852,,,,,,1802.9443,311.0,6.0,1802.9447,311.0,,,,1806.7658,1807.266,1806.2585,1806.7654,1803.9747,1806.2583,1807.2661,1807.766,1807.766,1810.2726,830.0,1810.2728,1.0,1810.2731,6.0,25.0,205.0,2.0,1.0,1.2,0.3,Time
,,S71,1,f,21,anonymized,Serial_Dependence_U,2023.2.3,Win32,59.88023952096852,,,,,,1810.2736,157.0,6.0,1810.2738,157.0,,,,1814.4652,1814.9659,1813.9491,1814.465,1811.2834000000005,1813.9489,1814.966,1815.4658,1815.4658,1817.5222,1163.0,1817.5223,2.0,1817.5227,6.0,26.0,206.0,14.0,1.0,1.6,0.3,Time
,,S71,1,f,21,anonymized,Serial_Dependence_U,2023.2.3,Win32,59.88023952096852,,,,,,1817.5232,196.0,6.0,1817.5235,196.0,,,,1821.5063,1821.9991,1820.9897,1821.506,1818.5239,1820.9894,1821.9992,1822.499,1822.4991,1824.2986,949.0,1824.2986,1.0,1824.2991,6.0,27.0,207.0,3.0,1.0,1.4,0.3,Time
,,S71,1,f,21,anonymized,Serial_Dependence_U,2023.2.3,Win32,59.88023952096852,,,,,,1824.2999,299.0,6.0,1824.3004,299.0,,,,1828.0492,1828.5489,1827.5326,1828.049,1825.2994,1827.5324,1828.5491,1829.0484,1829.0484,1830.8323,1233.0,1830.8324,3.0,1830.8329,6.0,28.0,208.0,27.0,1.0,1.2,0.7,Time
,,S71,1,f,21,anonymized,Serial_Dependence_U,2023.2.3,Win32,59.88023952096852,,,,,,1830.8335,142.0,6.0,1830.8339,142.0,,,,1834.5994,1835.0996,1834.0827,1834.5992,1831.8485,1834.0824,1835.0997,1835.5992,1835.5993,1836.7817,332.0,1836.7818,1.0,1836.782,6.0,29.0,209.0,17.0,1.0,1.2,0.7,Time
,,S71,1,f,21,anonymized,Serial_Dependence_U,2023.2.3,Win32,59.88023952096852,,,,,,1836.7826,258.0,7.0,1838.5648,258.0,s,1.759999999999991,,1842.5663,1843.0655,1842.0582,1842.5662,1839.5831,1842.058,1843.0656,1843.5658,1843.5658,1845.4489,896.0,1845.449,1.0,1845.4495,7.0,0.0,210.0,23.0,1.0,1.4,0.3,Time
,,S71,1,f,21,anonymized,Serial_Dependence_U,2023.2.3,Win32,59.88023952096852,,,,,,1845.4507,303.0,7.0,1845.4538,303.0,,,,1848.8162,1849.3156,1848.3095,1848.8157,1846.4649,1848.3093,1849.3156,1849.8156,1849.8157,1851.4986,694.0,1851.4987,2.0,1851.4991,7.0,1.0,211.0,5.0,1.0,0.8,0.7,Time
,,S71,1,f,21,anonymized,Serial_Dependence_U,2023.2.3,Win32,59.88023952096852,,,,,,1851.4999000000005,26.0,7.0,1851.5005,26.0,,,,1855.4661,1855.9666,1854.9494,1855.4657,1852.5155,1854.9491,1855.9667,1856.4649,1856.465,1859.9822,181.0,1859.9823,1.0,1859.9829,7.0,2.0,212.0,8.0,1.0,1.4,0.7,Time
,,S71,1,f,21,anonymized,Serial_Dependence_U,2023.2.3,Win32,59.88023952096852,,,,,,1859.9836,53.0,7.0,1859.984,53.0,,,,1863.5494,1864.0482,1863.0325,1863.549,1860.9989,1863.0322,1864.0484,1864.5485,1864.5485,1866.1653,879.0,1866.1654,2.0,1866.166,7.0,3.0,213.0,16.0,1.0,1.0,0.7,Time
,,S71,1,f,21,anonymized,Serial_Dependence_U,2023.2.3,Win32,59.88023952096852,,,,,,1866.1669,112.0,7.0,1866.1675,112.0,,,,1869.7494,1870.2489,1869.233,1869.7490000000005,1867.1861,1869.2326,1870.2489,1870.7486,1870.7487,1872.2317,685.0,1872.2317,1.0,1872.2322,7.0,4.0,214.0,26.0,1.0,1.0,0.7,Time
,,S71,1,f,21,anonymized,Serial_Dependence_U,2023.2.3,Win32,59.88023952096852,,,,,,1872.2327,66.0,7.0,1872.2333,66.0,,,,1875.7912,1876.2827,1875.2681,1875.791,1873.2336,1875.2676,1876.2828,1876.7819,1876.782,1878.5091,935.0,1878.5093,2.0,1878.5099,7.0,5.0,215.0,6.0,1.0,1.0,0.7,Time
,,S71,1,f,21,anonymized,Serial_Dependence_U,2023.2.3,Win32,59.88023952096852,,,,,,1878.5102,312.0,7.0,1878.5105000000003,312.0,,,,1882.6991,1883.1984,1882.1986,1882.6990000000003,1879.5212,1882.1983,1883.1984,1883.6984,1883.6984,1884.8812,614.0,1884.8813,1.0,1884.8816,7.0,6.0,216.0,14.0,1.0,1.6,0.3,Time
,,S71,1,f,21,anonymized,Serial_Dependence_U,2023.2.3,Win32,59.88023952096852,,,,,,1884.8820000000003,131.0,7.0,1884.8822,131.0,,,,1888.2828,1888.7818,1887.7661,1888.2825000000005,1885.8984000000005,1887.7658,1888.7819,1889.282,1889.282,1891.0489,985.0,1891.049,4.0,1891.0497,7.0,7.0,217.0,10.0,1.0,0.8,0.3,Time
,,S71,1,f,21,anonymized,Serial_Dependence_U,2023.2.3,Win32,59.88023952096852,,,,,,1891.0502,100.0,7.0,1891.0507,100.0,,,,1894.4172,1894.9156,1893.8993,1894.4165000000005,1892.0659,1893.8992,1894.9157,1895.4157,1895.4158,1897.7483,967.0,1897.7484,4.0,1897.7487,7.0,8.0,218.0,25.0,1.0,0.8,0.7,Time
,,S71,1,f,21,anonymized,Serial_Dependence_U,2023.2.3,Win32,59.88023952096852,,,,,,1897.7498,46.0,7.0,1897.7501,46.0,,,,1901.9493,1902.4482,1901.4326,1901.9490000000003,1898.7657,1901.4323,1902.4482,1902.9485,1902.9486,1905.1319,655.0,1905.1319,1.0,1905.1325,7.0,9.0,219.0,24.0,1.0,1.6,0.3,Time
,,S71,1,f,21,anonymized,Serial_Dependence_U,2023.2.3,Win32,59.88023952096852,,,,,,1905.1334,244.0,7.0,1905.1339,244.0,,,,1909.2991,1909.7988,1908.7842,1909.2988,1906.1498,1908.7832,1909.7989,1910.2991,1910.2991,1912.2986,1297.0,1912.2987,2.0,1912.299,7.0,10.0,220.0,29.0,1.0,1.6,0.7,Time
,,S71,1,f,21,anonymized,Serial_Dependence_U,2023.2.3,Win32,59.88023952096852,,,,,,1912.2995000000003,292.0,7.0,1912.3001,292.0,,,,1916.3005000000005,1916.8057,1915.7901,1916.3001,1913.3084,1915.7897,1916.8058,1917.3041,1917.3041,1919.0404,831.0,1919.0405000000003,1.0,1919.0408,7.0,11.0,221.0,3.0,1.0,1.4,0.3,Time
,,S71,1,f,21,anonymized,Serial_Dependence_U,2023.2.3,Win32,59.88023952096852,,,,,,1919.0412,43.0,7.0,1919.0415000000005,43.0,,,,1922.8076,1923.2992,1922.2925,1922.8073,1920.0385000000003,1922.2917,1923.2993,1923.7989,1923.7989,1925.6087,1168.0,1925.6087,3.0,1925.6091,7.0,12.0,222.0,7.0,1.0,1.2,0.7,Time
,,S71,1,f,21,anonymized,Serial_Dependence_U,2023.2.3,Win32,59.88023952096852,,,,,,1925.6096,328.0,7.0,1925.6098,328.0,,,,1929.1993,1929.6990000000003,1928.6839,1929.1989,1926.6153,1928.6834,1929.6990000000003,1930.1994,1930.1994,1931.6653,846.0,1931.6654,2.0,1931.6659,7.0,13.0,223.0,21.0,1.0,1.0,0.3,Time
,,S71,1,f,21,anonymized,Serial_Dependence_U,2023.2.3,Win32,59.88023952096852,,,,,,1931.6666,72.0,7.0,1931.6671,72.0,,,,1935.8332,1936.3324,1935.3161,1935.8329,1932.6828,1935.3157,1936.3324,1936.8315000000005,1936.8319000000004,1938.3588,881.0,1938.3589,1.0,1938.3593,7.0,14.0,224.0,19.0,1.0,1.6,0.7,Time
,,S71,1,f,21,anonymized,Serial_Dependence_U,2023.2.3,Win32,59.88023952096852,,,,,,1938.3597,345.0,7.0,1938.3598,345.0,,,,1941.9485,1942.4490000000003,1941.4327,1941.9482,1939.3579,1941.4324000000004,1942.4491,1942.9486,1942.9487,1946.4430000000004,699.0,1946.4431,1.0,1946.4435,7.0,15.0,225.0,11.0,1.0,1.0,0.3,Time
,,S71,1,f,21,anonymized,Serial_Dependence_U,2023.2.3,Win32,59.88023952096852,,,,,,1946.444,36.0,7.0,1946.4443,36.0,,,,1950.2575000000004,1950.7489000000005,1949.7332,1950.2572,1947.455,1949.7328,1950.749,1951.2487,1951.2489000000005,1952.6162,722.0,1952.6163,1.0,1952.6167,7.0,16.0,226.0,2.0,1.0,1.2,0.3,Time
,,S71,1,f,21,anonymized,Serial_Dependence_U,2023.2.3,Win32,59.88023952096852,,,,,,1952.6173,327.0,7.0,1952.6176,327.0,,,,1956.3903000000005,1956.8819,1955.866,1956.39,1953.6336,1955.8657,1956.8821,1957.3822,1957.3823,1959.1947,947.0,1959.1948,2.0,1959.1953,7.0,17.0,227.0,17.0,1.0,1.2,0.7,Time
,,S71,1,f,21,anonymized,Serial_Dependence_U,2023.2.3,Win32,59.88023952096852,,,,,,1959.1957,262.0,7.0,1959.196,262.0,,,,1963.4086,1963.8993000000005,1962.8916,1963.4083000000005,1960.2257,1962.8913,1963.8994,1964.3988,1964.3989000000004,1966.1317,1120.0,1966.1318,1.0,1966.1328,7.0,18.0,228.0,4.0,1.0,1.6,0.3,Time
,,S71,1,f,21,anonymized,Serial_Dependence_U,2023.2.3,Win32,59.88023952096852,,,,,,1966.1334,204.0,7.0,1966.1336,204.0,,,,1970.0996,1970.5986,1969.5825,1970.0994000000003,1967.1498,1969.5823000000005,1970.5986,1971.0991,1971.0991,1972.5993,1031.0,1972.5995,2.0,1972.5999,7.0,19.0,229.0,28.0,1.0,1.4,0.7,Time
,,S71,1,f,21,anonymized,Serial_Dependence_U,2023.2.3,Win32,59.88023952096852,,,,,,1972.6007,44.0,7.0,1972.6010000000003,44.0,,,,1976.3824,1976.8818,1975.8667,1976.3822,1973.6026,1975.8663,1976.8818,1977.3819,1977.3820000000003,1979.2328,873.0,1979.2329,2.0,1979.2333,7.0,20.0,230.0,22.0,1.0,1.2,0.3,Time
,,S71,1,f,21,anonymized,Serial_Dependence_U,2023.2.3,Win32,59.88023952096852,,,,,,1979.2338,50.0,7.0,1979.2341,50.0,,,,1982.5995,1983.0988,1982.0827,1982.5993,1980.2501,1982.082,1983.0989,1983.5989,1983.5990000000004,1984.8334,636.0,1984.8335000000004,2.0,1984.8339000000003,7.0,21.0,231.0,15.0,1.0,0.8,0.7,Time
,,S71,1,f,21,anonymized,Serial_Dependence_U,2023.2.3,Win32,59.88023952096852,,,,,,1984.8344,200.0,7.0,1984.8348,200.0,,,,1988.6165000000003,1989.1146,1988.0992000000003,1988.6162,1985.8330000000003,1988.0990000000004,1989.1147000000003,1989.6156000000003,1989.6156000000003,1991.3151,818.0,1991.3151,1.0,1991.3161,7.0,22.0,232.0,12.0,1.0,1.2,0.3,Time
,,S71,1,f,21,anonymized,Serial_Dependence_U,2023.2.3,Win32,59.88023952096852,,,,,,1991.3167,71.0,7.0,1991.3170000000007,71.0,,,,1995.0834,1995.5819000000004,1994.5741,1995.0830000000003,1992.3330000000003,1994.5737,1995.5819000000004,1996.0706,1996.0706,1997.5996,821.0,1997.5998,1.0,1997.6005000000007,7.0,23.0,233.0,27.0,1.0,1.2,0.7,Time
,,S71,1,f,21,anonymized,Serial_Dependence_U,2023.2.3,Win32,59.88023952096852,,,,,,1997.6014,246.0,7.0,1997.6018,246.0,,,,2000.9924000000003,2001.4824000000008,2000.4754000000005,2000.9921,1998.5998,2000.4750000000008,2001.4824000000008,2001.9821,2001.9822,2003.0829000000008,367.0,2003.0831,1.0,2003.0837000000004,7.0,24.0,234.0,0.0,1.0,0.8,0.3,Time
,,S71,1,f,21,anonymized,Serial_Dependence_U,2023.2.3,Win32,59.88023952096852,,,,,,2003.0850000000005,239.0,7.0,2003.0853000000004,239.0,,,,2007.0831,2007.5819000000004,2006.5725000000004,2007.0827,2004.1002,2006.5720000000003,2007.5819000000004,2008.0836,2008.0837000000004,2009.6586,733.0,2009.6587,1.0,2009.6594,7.0,25.0,235.0,13.0,1.0,1.4,0.3,Time
,,S71,1,f,21,anonymized,Serial_Dependence_U,2023.2.3,Win32,59.88023952096852,,,,,,2009.6599000000003,304.0,7.0,2009.6602,304.0,,,,2013.2490000000005,2013.7487000000003,2012.7332000000004,2013.2487000000003,2010.6667,2012.7325000000003,2013.7488,2014.2487000000003,2014.2488,2015.5327,712.0,2015.5328,2.0,2015.5332,7.0,26.0,236.0,1.0,1.0,1.0,0.3,Time
,,S71,1,f,21,anonymized,Serial_Dependence_U,2023.2.3,Win32,59.88023952096852,,,,,,2015.5343000000005,1.0,7.0,2015.5348,1.0,,,,2018.9332,2019.4318,2018.4166,2018.933000000001,2016.5501,2018.4160000000004,2019.4319000000005,2019.9323,2019.9324000000004,2021.1661,683.0,2021.1662000000003,2.0,2021.1667,7.0,27.0,237.0,20.0,1.0,0.8,0.3,Time
,,S71,1,f,21,anonymized,Serial_Dependence_U,2023.2.3,Win32,59.88023952096852,,,,,,2021.1674000000005,76.0,7.0,2021.1680000000003,76.0,,,,2025.1328,2025.6326,2024.6163000000004,2025.1326,2022.1825000000008,2024.6159000000005,2025.6328,2026.1315000000009,2026.1315000000009,2027.7158,663.0,2027.7160000000008,1.0,2027.7172000000005,7.0,28.0,238.0,18.0,1.0,1.4,0.7,Time
,,S71,1,f,21,anonymized,Serial_Dependence_U,2023.2.3,Win32,59.88023952096852,,,,,,2027.7178,177.0,7.0,2027.7181000000005,177.0,,,,2031.8751,2032.3653,2031.3656000000003,2031.8743,2028.7328000000005,2031.3653,2032.3654000000004,2032.8659000000005,2032.8661,2034.6985000000009,1152.0,2034.6985000000009,2.0,2034.6988000000003,7.0,29.0,239.0,9.0,1.0,1.6,0.7,Time
,,S71,1,f,21,anonymized,Serial_Dependence_U,2023.2.3,Win32,59.88023952096852,,,,,,2034.6997000000003,260.0,8.0,2036.3156,260.0,s,1.5919000000003507,,2039.7156,2040.2157000000004,2039.2004000000004,2039.7152000000003,2037.3341000000005,2039.1991,2040.2158,2040.7152000000003,2040.7153,2042.158500000001,831.0,2042.1586,3.0,2042.1594,8.0,0.0,240.0,0.0,1.0,0.8,0.3,Time
,,S71,1,f,21,anonymized,Serial_Dependence_U,2023.2.3,Win32,59.88023952096852,,,,,,2042.1599000000003,253.0,8.0,2042.1620000000005,253.0,,,,2045.5342000000005,2046.0322000000003,2045.0248000000004,2045.5338000000004,2043.1920000000007,2045.024500000001,2046.0323,2046.5323,2046.5324000000005,2048.2926,864.0,2048.2927,4.0,2048.2931,8.0,1.0,241.0,5.0,1.0,0.8,0.7,Time
,,S71,1,f,21,anonymized,Serial_Dependence_U,2023.2.3,Win32,59.88023952096852,,,,,,2048.2935,120.0,8.0,2048.2938,120.0,,,,2052.2747,2052.7654,2051.7575,2052.2743,2049.3243,2051.7572,2052.7655000000004,2053.2659000000003,2053.2659000000003,2054.8151,855.0,2054.8152,1.0,2054.8159,8.0,2.0,242.0,8.0,1.0,1.4,0.7,Time
,,S71,1,f,21,anonymized,Serial_Dependence_U,2023.2.3,Win32,59.88023952096852,,,,,,2054.8166,233.0,8.0,2054.8168,233.0,,,,2058.8066,2059.2991,2058.2994000000003,2058.8063,2055.8328,2058.2993,2059.2992,2059.7999,2059.8001,2061.6819,1171.0,2061.6821,2.0,2061.6826,8.0,3.0,243.0,23.0,1.0,1.4,0.3,Time
,,S71,1,f,21,anonymized,Serial_Dependence_U,2023.2.3,Win32,59.88023952096852,,,,,,2061.6834000000003,166.0,8.0,2061.6837,166.0,,,,2065.4669000000004,2065.9657,2064.9491,2065.4667,2062.6838,2064.9487,2065.9658,2066.4656,2066.4657,2068.1658,867.0,2068.166,2.0,2068.1668,8.0,4.0,244.0,2.0,1.0,1.2,0.3,Time
,,S71,1,f,21,anonymized,Serial_Dependence_U,2023.2.3,Win32,59.88023952096852,,,,,,2068.1677,51.0,8.0,2068.168,51.0,,,,2071.5737,2072.0697,2071.0576,2071.5734,2069.1894,2071.0573,2072.0698,2072.5654,2072.5655,2075.1992,795.0,2075.1993,3.0,2075.2001,8.0,5.0,245.0,10.0,1.0,0.8,0.3,Time
,,S71,1,f,21,anonymized,Serial_Dependence_U,2023.2.3,Win32,59.88023952096852,,,,,,2075.2011,186.0,8.0,2075.2016,186.0,,,,2079.166,2079.6653,2078.6492,2079.1657,2076.2077,2078.6490000000003,2079.6653,2080.1656,2080.1656,2082.1506,627.0,2082.1507,1.0,2082.1512,8.0,6.0,246.0,28.0,1.0,1.4,0.7,Time
,,S71,1,f,21,anonymized,Serial_Dependence_U,2023.2.3,Win32,59.88023952096852,,,,,,2082.1525,348.0,8.0,2082.153,348.0,,,,2085.7578,2086.2488,2085.2331,2085.7575,2083.166,2085.2328,2086.2488,2086.7492,2086.7492,2088.8821,764.0,2088.8822,2.0,2088.8832,8.0,7.0,247.0,1.0,1.0,1.0,0.3,Time
,,S71,1,f,21,anonymized,Serial_Dependence_U,2023.2.3,Win32,59.88023952096852,,,,,,2088.8843,151.0,8.0,2088.8848000000003,151.0,,,,2092.4495,2092.9489000000003,2091.9325000000003,2092.4493,2089.8996,2091.9322,2092.949,2093.4489000000003,2093.449,2095.1089,729.0,2095.1089,2.0,2095.1093,8.0,8.0,248.0,16.0,1.0,1.0,0.7,Time
,,S71,1,f,21,anonymized,Serial_Dependence_U,2023.2.3,Win32,59.88023952096852,,,,,,2095.1098,231.0,8.0,2095.11,231.0,,,,2098.8424,2099.3324,2098.3326,2098.842,2096.1000000000004,2098.3324,2099.3324,2099.8324,2099.8325000000004,2101.5491,665.0,2101.5491,1.0,2101.5496,8.0,9.0,249.0,7.0,1.0,1.2,0.7,Time
,,S71,1,f,21,anonymized,Serial_Dependence_U,2023.2.3,Win32,59.88023952096852,,,,,,2101.5501,32.0,8.0,2101.5507,32.0,,,,2105.6991,2106.1986,2105.1825000000003,2105.6988,2102.5498,2105.1822,2106.1987,2106.6992,2106.6993,2108.1662,976.0,2108.1664,1.0,2108.1670000000004,8.0,10.0,250.0,9.0,1.0,1.6,0.7,Time
,,S71,1,f,21,anonymized,Serial_Dependence_U,2023.2.3,Win32,59.88023952096852,,,,,,2108.1678,208.0,8.0,2108.1683000000003,208.0,,,,2111.7567,2112.2493,2111.2500000000005,2111.7565000000004,2109.1827,2111.2496,2112.2494,2112.7393,2112.7395,2114.5107,733.0,2114.5108,2.0,2114.5114000000003,8.0,11.0,251.0,21.0,1.0,1.0,0.3,Time
,,S71,1,f,21,anonymized,Serial_Dependence_U,2023.2.3,Win32,59.88023952096852,,,,,,2114.5119,357.0,8.0,2114.5122,357.0,,,,2118.7004,2119.1887,2118.184,2118.6999,2115.5212,2118.1836,2119.1888,2119.682,2119.6822,2121.394,768.0,2121.3941,1.0,2121.3943,8.0,12.0,252.0,4.0,1.0,1.6,0.3,Time
,,S71,1,f,21,anonymized,Serial_Dependence_U,2023.2.3,Win32,59.88023952096852,,,,,,2121.3948,1.0,8.0,2121.3951,1.0,,,,2124.7498,2125.2491,2124.242,2124.7494,2122.4072,2124.2416,2125.2492,2125.7485,2125.7486,2127.1153,703.0,2127.1154,2.0,2127.1156,8.0,13.0,253.0,25.0,1.0,0.8,0.7,Time
,,S71,1,f,21,anonymized,Serial_Dependence_U,2023.2.3,Win32,59.88023952096852,,,,,,2127.1164000000003,226.0,8.0,2127.1168,226.0,,,,2130.4826,2130.9819,2129.9663,2130.4824000000003,2128.1325,2129.9661,2130.9822,2131.4818,2131.4819,2132.7992,648.0,2132.7992,2.0,2132.7997,8.0,14.0,254.0,15.0,1.0,0.8,0.7,Time
,,S71,1,f,21,anonymized,Serial_Dependence_U,2023.2.3,Win32,59.88023952096852,,,,,,2132.8009,232.0,8.0,2132.8012,232.0,,,,2136.5496,2137.0484,2136.0325000000003,2136.5494000000003,2133.8001,2136.0322,2137.0485000000003,2137.5486,2137.5487,2138.9659,694.0,2138.9661,1.0,2138.9664,8.0,15.0,255.0,17.0,1.0,1.2,0.7,Time
,,S71,1,f,21,anonymized,Serial_Dependence_U,2023.2.3,Win32,59.88023952096852,,,,,,2138.9672,201.0,8.0,2138.9679,201.0,,,,2143.1333,2143.6322,2142.6157,2143.1331,2139.9685000000004,2142.6154,2143.6322,2144.1328,2144.1329,2145.3320000000003,671.0,2145.3321,1.0,2145.3327,8.0,16.0,256.0,19.0,1.0,1.6,0.7,Time
,,S71,1,f,21,anonymized,Serial_Dependence_U,2023.2.3,Win32,59.88023952096852,,,,,,2145.3336,165.0,8.0,2145.3339,165.0,,,,2148.8995000000004,2149.3992,2148.3827,2148.8992,2146.3494,2148.3823,2149.3993,2149.8990000000003,2149.8990000000003,2151.7321,737.0,2151.7323,2.0,2151.7326,8.0,17.0,257.0,26.0,1.0,1.0,0.7,Time
,,S71,1,f,21,anonymized,Serial_Dependence_U,2023.2.3,Win32,59.88023952096852,,,,,,2151.733,301.0,8.0,2151.7331,301.0,,,,2155.4998,2155.9994,2154.9828,2155.4995000000004,2152.7497,2154.9825,2155.9994,2156.4993,2156.4993,2158.282,652.0,2158.2821,1.0,2158.2825000000003,8.0,18.0,258.0,27.0,1.0,1.2,0.7,Time
,,S71,1,f,21,anonymized,Serial_Dependence_U,2023.2.3,Win32,59.88023952096852,,,,,,2158.2832,276.0,8.0,2158.2837,276.0,,,,2161.6745,2162.1742,2161.166,2161.6741,2159.2988,2161.1657,2162.1742,2162.6728000000003,2162.6728000000003,2163.9597,366.0,2163.9597,1.0,2163.9603,8.0,19.0,259.0,20.0,1.0,0.8,0.3,Time
,,S71,1,f,21,anonymized,Serial_Dependence_U,2023.2.3,Win32,59.88023952096852,,,,,,2163.9606,232.0,8.0,2163.9609,232.0,,,,2167.7665,2168.2654,2167.2495000000004,2167.7663,2164.9752,2167.2492,2168.2655000000004,2168.7661,2168.7661,2170.5822,1018.0,2170.5822,2.0,2170.5829000000003,8.0,20.0,260.0,12.0,1.0,1.2,0.3,Time
,,S71,1,f,21,anonymized,Serial_Dependence_U,2023.2.3,Win32,59.88023952096852,,,,,,2170.5836,78.0,8.0,2170.5838,78.0,,,,2174.1824,2174.6825000000003,2173.6676,2174.1822,2171.6000000000004,2173.6672,2174.6825000000003,2175.1822,2175.1823,2177.0494000000003,732.0,2177.0495,2.0,2177.05,8.0,21.0,261.0,11.0,1.0,1.0,0.3,Time
,,S71,1,f,21,anonymized,Serial_Dependence_U,2023.2.3,Win32,59.88023952096852,,,,,,2177.0509,28.0,8.0,2177.0513,28.0,,,,2180.5995000000003,2181.0989,2180.0835,2180.5993,2178.0497,2180.083,2181.099,2181.5994,2181.5995000000003,2183.0996,785.0,2183.0998,2.0,2183.1003,8.0,22.0,262.0,6.0,1.0,1.0,0.7,Time
,,S71,1,f,21,anonymized,Serial_Dependence_U,2023.2.3,Win32,59.88023952096852,,,,,,2183.1016,103.0,8.0,2183.1020000000003,103.0,,,,2186.9002,2187.3988,2186.3825,2186.8995000000004,2184.1165,2186.3823,2187.3989,2187.8988,2187.8989,2189.7984,985.0,2189.7984,2.0,2189.7987,8.0,23.0,263.0,22.0,1.0,1.2,0.3,Time
,,S71,1,f,21,anonymized,Serial_Dependence_U,2023.2.3,Win32,59.88023952096852,,,,,,2189.7995,189.0,8.0,2189.7999,189.0,,,,2193.7994000000003,2194.2990000000004,2193.2831,2193.7991,2190.8163,2193.2828,2194.2990000000004,2194.7991,2194.7993,2196.7333,1224.0,2196.7334,2.0,2196.7343,8.0,24.0,264.0,13.0,1.0,1.4,0.3,Time
,,S71,1,f,21,anonymized,Serial_Dependence_U,2023.2.3,Win32,59.88023952096852,,,,,,2196.7348,85.0,8.0,2196.735,85.0,,,,2200.9325000000003,2201.4325000000003,2200.4162,2200.9323,2197.7418,2200.416,2201.4325000000003,2201.9323,2201.9324,2203.7661,998.0,2203.7662,1.0,2203.7670000000003,8.0,25.0,265.0,24.0,1.0,1.6,0.3,Time
,,S71,1,f,21,anonymized,Serial_Dependence_U,2023.2.3,Win32,59.88023952096852,,,,,,2203.7681,231.0,8.0,2203.7685,231.0,,,,2207.7335000000003,2208.2386,2207.2161,2207.733,2204.7831,2207.2158,2208.2386,2208.7325,2208.7325,2210.0616,730.0,2210.0617,1.0,2210.0622,8.0,26.0,266.0,18.0,1.0,1.4,0.7,Time
,,S71,1,f,21,anonymized,Serial_Dependence_U,2023.2.3,Win32,59.88023952096852,,,,,,2210.0627,306.0,8.0,2210.0629000000004,306.0,,,,2214.0657,2214.5657,2213.5572,2214.0654,2211.0910000000003,2213.5569,2214.5657,2215.0660000000003,2215.0660000000003,2216.7659000000003,815.0,2216.766,1.0,2216.7667,8.0,27.0,267.0,3.0,1.0,1.4,0.3,Time
,,S71,1,f,21,anonymized,Serial_Dependence_U,2023.2.3,Win32,59.88023952096852,,,,,,2216.7678,306.0,8.0,2216.7682,306.0,,,,2220.9579000000003,2221.4489000000003,2220.4493,2220.9575000000004,2217.7830000000004,2220.4491,2221.4489000000003,2221.9491,2221.9492,2223.5081,608.0,2223.5082,1.0,2223.5087,8.0,28.0,268.0,14.0,1.0,1.6,0.3,Time
,,S71,1,f,21,anonymized,Serial_Dependence_U,2023.2.3,Win32,59.88023952096852,,,,,,2223.5092,144.0,8.0,2223.5094000000004,144.0,,,,2227.6568,2228.1493,2227.1499000000003,2227.6566,2224.5074,2227.1495000000004,2228.1493,2228.6396,2228.6398,2230.6914,1199.0,2230.6914,2.0,2230.6920000000005,8.0,29.0,269.0,29.0,1.0,1.6,0.7,Time
